Time,ID,Ax,Ay,Az,Gx,Gy,Gz,Height,Weight
2026-05-09 17:11:55.368,1,-0.19,0.44,0.56,-39.7878,17.244400000000002,53.3894,175,75
2026-05-09 17:11:55.393,1,-0.32,0.24,0.52,8.862200000000001,13.584399999999999,2.2394,175,75
2026-05-09 17:11:55.404,1,-0.36,0.17,0.46,20.2722,18.8944,-13.800600000000001,175,75
2026-05-09 17:11:55.420,1,-0.42,0.01,0.43,38.0722,33.034400000000005,-36.480599999999995,175,75
2026-05-09 17:11:55.424,1,-0.41,-0.27,0.43,58.5022,43.1644,-57.7606,175,75
2026-05-09 17:11:55.456,1,0.21,-1.59,0.36,72.5222,65.6644,-70.0206,175,75
2026-05-09 17:11:55.456,1,0.28,-1.68,0.6,59.5422,60.6044,-37.5806,175,75
2026-05-09 17:11:55.479,1,0.57,-1.75,1.26,48.1322,69.0144,32.5394,175,75
2026-05-09 17:11:55.479,1,0.92,-1.54,1.66,35.3322,38.4644,66.43939999999999,175,75
2026-05-09 17:11:55.495,1,1.26,-1.09,1.86,16.302200000000003,-2.5055999999999976,94.24940000000001,175,75
2026-05-09 17:11:55.525,1,1.35,-0.99,1.64,-21.007799999999996,72.67439999999999,26.4994,175,75
2026-05-09 17:11:55.557,1,0.8,-0.13,1.63,-140.3378,190.3544,14.1894,175,75
2026-05-09 17:11:55.579,1,0.1,-0.94,2.64,-272.5378,107.67439999999999,101.9894,175,75
2026-05-09 17:11:55.579,1,0.41,-1.13,2.8,-277.7778,8.9544,102.9094,175,75
2026-05-09 17:11:55.601,1,0.07,-0.57,1.77,-283.87780000000004,-149.4656,106.6294,175,75
2026-05-09 17:11:55.601,1,0.37,-0.72,1.07,-275.7078,-86.2256,105.6494,175,75
2026-05-09 17:11:55.622,1,0.71,-0.99,1.37,-239.91779999999997,26.944399999999998,102.4794,175,75
2026-05-09 17:11:55.635,1,0.59,-1.08,1.62,-197.4778,100.4144,88.2094,175,75
2026-05-09 17:11:55.648,1,0.41,-0.77,1.77,-153.3878,155.96439999999998,62.7194,175,75
2026-05-09 17:11:55.659,1,0.32,-0.52,2.04,-110.33779999999999,170.4144,44.5494,175,75
2026-05-09 17:11:55.670,1,0.5,-0.38,2.21,-70.21780000000001,136.27439999999999,10.7094,175,75
2026-05-09 17:11:55.681,1,0.66,-0.37,2.27,-15.647799999999997,92.1244,-27.8906,175,75
2026-05-09 17:11:55.705,1,0.66,-0.33,2.07,34.6022,57.42439999999999,-62.89059999999999,175,75
2026-05-09 17:11:55.705,1,0.68,0.17,1.97,82.9522,42.004400000000004,-92.7606,175,75
2026-05-09 17:11:55.720,1,0.59,0.57,1.79,137.0422,34.1944,-131.9106,175,75
2026-05-09 17:11:55.730,1,0.48,0.61,1.61,191.00220000000002,37.2444,-169.0506,175,75
2026-05-09 17:11:55.742,1,0.39,0.54,1.55,305.2722,57.06439999999999,-208.3706,175,75
2026-05-09 17:11:55.753,1,0.35,0.44,1.45,399.8422,48.1644,-232.6406,175,75
2026-05-09 17:11:55.767,1,0.28,0.32,1.32,439.05219999999997,58.95439999999999,-239.7806,175,75
2026-05-09 17:11:55.778,1,0.4,0.35,1.4,465.94219999999996,46.14439999999999,-229.9606,175,75
2026-05-09 17:11:55.805,1,0.05,-0.29,0.88,466.8522,-159.0956,-223.0106,175,75
2026-05-09 17:11:55.821,1,-0.55,-0.47,0.18,411.7922,-226.8356,-233.6806,175,75
2026-05-09 17:11:55.836,1,-1.17,-0.34,-0.47,346.6122,-266.8956,-227.5206,175,75
2026-05-09 17:11:55.836,1,-2.06,-0.04,-1.17,258.3822,-298.18559999999997,-194.8406,175,75
2026-05-09 17:11:55.847,1,-2.71,0.52,-1.7,206.8522,-312.0856,-150.57059999999998,175,75
2026-05-09 17:11:55.858,1,-2.97,1.11,-1.93,186.5522,-305.19559999999996,-109.9606,175,75
2026-05-09 17:11:55.868,1,-2.97,0.05,-2.07,189.1722,-209.8856,-54.590599999999995,175,75
2026-05-09 17:11:55.882,1,-3.25,1.12,-2.74,87.5822,-246.0456,-0.6905999999999999,175,75
2026-05-09 17:11:55.894,1,-5.74,0.14,-4.69,-11.1978,-374.76559999999995,78.3294,175,75
2026-05-09 17:11:55.905,1,-9.14,-1.62,-7.34,-86.37780000000001,-350.00559999999996,128.3294,175,75
2026-05-09 17:11:55.917,1,3.22,-1.71,2.5,38.8622,1017.1843999999999,292.83939999999996,175,75
2026-05-09 17:11:55.929,1,-1.37,2.01,5.81,-141.6778,93.64439999999999,195.2194,175,75
2026-05-09 17:11:55.943,1,-0.12,1.6,3.68,-300.4578,-40.495599999999996,147.6594,175,75
2026-05-09 17:11:55.954,1,0.98,-1.08,0.63,-321.67780000000005,-297.1456,138.3294,175,75
2026-05-09 17:11:55.976,1,-0.17,0.93,-0.73,-231.86780000000002,-9.035599999999999,130.0394,175,75
2026-05-09 17:11:55.993,1,-0.18,0.55,0.62,-165.21779999999998,18.8944,86.3794,175,75
2026-05-09 17:11:56.003,1,0.07,0.31,0.85,-158.6378,-20.3756,60.589400000000005,175,75
2026-05-09 17:11:56.019,1,-0.16,0.15,0.52,-134.0578,-24.5856,50.7094,175,75
2026-05-09 17:11:56.019,1,-0.06,0.05,0.5,-105.09779999999998,5.474399999999999,46.8694,175,75
2026-05-09 17:11:56.030,1,-0.05,-0.03,0.47,-92.34779999999998,16.694399999999998,35.4094,175,75
2026-05-09 17:11:56.041,1,0.02,-0.1,0.53,-73.14779999999999,21.5744,23.7594,175,75
2026-05-09 17:11:56.061,1,0.06,-0.56,0.5,-38.8778,8.5244,-8.010599999999998,175,75
2026-05-09 17:11:56.072,1,0.31,-1.07,0.49,-17.227800000000002,10.8444,-25.510599999999997,175,75
2026-05-09 17:11:56.105,1,0.72,-1.72,1.12,-1.1377999999999986,-22.0856,-5.2006,175,75
2026-05-09 17:11:56.116,1,0.97,-1.74,1.35,2.5822000000000003,-35.8656,10.1594,175,75
2026-05-09 17:11:56.116,1,1.17,-1.7,1.59,-0.27779999999999916,-13.7956,13.519400000000001,175,75
2026-05-09 17:11:56.141,1,1.4,-1.7,2.22,5.6922,76.5144,-6.0006,175,75
2026-05-09 17:11:56.153,1,1.49,-0.73,2.72,15.822200000000002,71.8844,-16.730600000000003,175,75
2026-05-09 17:11:56.164,1,0.72,-0.7,2.35,-12.5978,84.8644,-36.9706,175,75
2026-05-09 17:11:56.164,1,-0.19,-0.8,2.03,-90.58779999999999,40.4744,26.199399999999997,175,75
2026-05-09 17:11:56.177,1,-0.82,-0.61,1.77,-207.59779999999998,-32.0256,110.8894,175,75
2026-05-09 17:11:56.204,1,-0.12,-0.55,1.81,-291.19780000000003,-86.29560000000001,145.5294,175,75
2026-05-09 17:11:56.204,1,0.59,-0.83,1.55,-306.37780000000004,-122.9956,169.1294,175,75
2026-05-09 17:11:56.216,1,1.48,-1.01,2.01,-273.56780000000003,-43.1856,140.2194,175,75
2026-05-09 17:11:56.227,1,1.53,-0.95,2.47,-231.4378,20.7244,126.9294,175,75
2026-05-09 17:11:56.238,1,1.4,-0.03,2.4,-204.4278,98.89439999999999,108.2094,175,75
2026-05-09 17:11:56.260,1,1.26,0.1,2.91,-107.0478,143.8344,79.4294,175,75
2026-05-09 17:11:56.271,1,1.27,-0.01,3.07,-83.20779999999999,114.1944,60.8294,175,75
2026-05-09 17:11:56.282,1,1.31,-0.13,3.13,-60.7678,64.3844,40.7694,175,75
2026-05-09 17:11:56.294,1,1.26,-0.21,2.97,-39.8478,14.924400000000002,14.4894,175,75
2026-05-09 17:11:56.305,1,1.09,-0.19,2.65,-16.1978,-11.355599999999999,-13.190600000000002,175,75
2026-05-09 17:11:56.317,1,0.86,-0.1,2.38,12.042200000000001,-11.2256,-45.5106,175,75
2026-05-09 17:11:56.327,1,0.78,-0.03,2.37,36.7922,-4.3355999999999995,-63.0706,175,75
2026-05-09 17:11:56.342,1,0.66,-0.0,2.38,80.0822,-4.1556,-89.1706,175,75
2026-05-09 17:11:56.352,1,0.58,-0.07,2.28,117.16220000000001,-18.8556,-117.03059999999999,175,75
2026-05-09 17:11:56.371,1,0.5,0.02,2.12,152.3422,-29.705599999999997,-147.4606,175,75
2026-05-09 17:11:56.408,1,0.39,0.32,1.69,248.9322,-28.485599999999998,-224.8406,175,75
2026-05-09 17:11:56.408,1,0.29,0.4,1.73,290.0222,-36.1656,-255.33059999999998,175,75
2026-05-09 17:11:56.421,1,0.55,0.23,1.57,327.4622,-84.8256,-274.11060000000003,175,75
2026-05-09 17:11:56.432,1,0.09,-0.53,1.26,407.5222,-132.69559999999998,-310.0806,175,75
2026-05-09 17:11:56.442,1,-0.38,-0.46,1.21,415.1522,-180.6156,-314.35060000000004,175,75
2026-05-09 17:11:56.453,1,-0.83,-0.47,1.1,407.8922,-230.9256,-300.8706,175,75
2026-05-09 17:11:56.468,1,-2.16,-0.94,0.26,358.80219999999997,-322.57559999999995,-289.90060000000005,175,75
2026-05-09 17:11:56.480,1,-2.86,-0.85,-0.46,331.9122,-322.44559999999996,-274.17060000000004,175,75
2026-05-09 17:11:56.502,1,-3.8,-0.5,-1.85,204.72220000000002,-347.57559999999995,-150.0206,175,75
2026-05-09 17:11:56.513,1,-3.63,-0.14,-2.35,159.9622,-253.5456,-109.53059999999999,175,75
2026-05-09 17:11:56.529,1,-3.17,0.46,-2.66,120.63220000000001,-87.6356,-32.9506,175,75
2026-05-09 17:11:56.555,1,-6.87,0.89,-2.85,91.12219999999999,259.31440000000003,153.6394,175,75
2026-05-09 17:11:56.585,1,1.14,-1.73,4.91,2.5822000000000003,848.9544,219.6694,175,75
2026-05-09 17:11:56.585,1,2.4,2.35,2.53,-492.5978,-75.4356,184.5494,175,75
2026-05-09 17:11:56.598,1,1.65,1.47,0.57,-431.86780000000005,-294.4656,288.57939999999996,175,75
2026-05-09 17:11:56.608,1,-1.22,-1.9,-0.32,-261.86780000000005,-96.29560000000001,114.6694,175,75
2026-05-09 17:11:56.618,1,-0.47,0.05,-0.51,-247.34779999999998,-49.215599999999995,99.4894,175,75
2026-05-09 17:11:56.630,1,-0.35,0.12,0.53,-147.2278,55.4144,99.9794,175,75
2026-05-09 17:11:56.645,1,-0.34,-0.36,0.17,-90.0378,5.604400000000002,29.9794,175,75
2026-05-09 17:11:56.657,1,0.05,-0.52,0.43,-49.05779999999999,37.794399999999996,10.0994,175,75
2026-05-09 17:11:56.680,1,0.13,-0.82,0.64,10.022200000000002,30.4744,-14.780600000000002,175,75
2026-05-09 17:11:56.690,1,0.52,-1.21,0.76,46.0022,27.0044,-29.110599999999998,175,75
2026-05-09 17:11:56.716,1,0.99,-2.62,1.33,71.6122,27.3644,-34.410599999999995,175,75
2026-05-09 17:11:56.727,1,1.59,-1.13,2.2,125.82220000000001,212.49439999999998,-113.4406,175,75
2026-05-09 17:11:56.748,1,1.17,0.98,2.6,75.4522,156.8144,-41.1806,175,75
2026-05-09 17:11:56.766,1,-1.97,-0.13,0.28,-88.14779999999999,-40.495599999999996,47.5394,175,75
2026-05-09 17:11:56.778,1,-2.22,-1.32,-1.58,-296.55780000000004,-78.4256,202.2994,175,75
2026-05-09 17:11:56.831,1,-0.71,-1.56,-0.58,-400.0378,261.75440000000003,235.8294,175,75
2026-05-09 17:11:56.842,1,-0.35,-2.68,0.9,-441.7378,234.8044,262.3594,175,75
2026-05-09 17:11:56.842,1,-0.76,-3.66,1.38,-470.1578,189.0744,281.6294,175,75
2026-05-09 17:11:56.888,1,-0.42,-2.51,1.07,-496.55780000000004,83.70439999999999,314.1294,175,75
2026-05-09 17:11:56.894,1,-0.17,-2.17,1.36,-484.1178,74.7444,317.83939999999996,175,75
2026-05-09 17:11:56.908,1,-0.01,-1.71,1.49,-483.26779999999997,57.4944,321.07939999999996,175,75
2026-05-09 17:11:56.911,1,0.02,-1.23,1.45,-473.26779999999997,59.9944,330.0394,175,75
2026-05-09 17:11:56.959,1,0.04,-0.58,1.74,-426.61780000000005,145.9044,334.1294,175,75
2026-05-09 17:11:56.969,1,0.09,-0.71,1.88,-426.7378,151.4544,326.01939999999996,175,75
2026-05-09 17:11:56.969,1,0.12,-0.95,2.13,-418.3878,164.1344,313.9394,175,75
2026-05-09 17:11:57.003,1,0.63,-1.82,3.3,-411.86780000000005,155.1144,291.01939999999996,175,75
2026-05-09 17:11:57.003,1,1.06,-1.97,3.82,-402.1078,159.1944,289.9794,175,75
2026-05-09 17:11:57.013,1,1.7,-1.62,4.39,-361.1378,139.3144,265.1594,175,75
2026-05-09 17:11:57.025,1,2.38,-1.32,5.18,-316.43780000000004,132.3044,244.6094,175,75
2026-05-09 17:11:57.035,1,3.21,-1.17,5.99,-259.9178,97.7944,183.3294,175,75
2026-05-09 17:11:57.035,1,2.74,-1.06,6.23,-185.21779999999998,77.7344,106.9294,175,75
2026-05-09 17:11:57.067,1,2.49,-0.14,5.57,359.9022,34.0744,-217.2806,175,75
2026-05-09 17:11:57.078,1,1.68,-2.75,5.25,437.8922,-129.1556,-255.8706,175,75
2026-05-09 17:11:57.123,1,-0.61,-5.29,2.92,736.7922,-301.5356,-603.2506000000001,175,75
2026-05-09 17:11:57.123,1,-1.22,-5.36,0.97,645.2121999999999,-348.7256,-663.2506000000001,175,75
2026-05-09 17:11:57.135,1,-1.86,-4.8,-0.99,584.1722,-76.1056,-666.3606,175,75
2026-05-09 17:11:57.145,1,-1.73,-4.19,-1.51,670.3922,168.1644,-629.7806,175,75
2026-05-09 17:11:57.158,1,-0.21,-4.86,0.59,892.1021999999999,246.02439999999999,-490.7506,175,75
2026-05-09 17:11:57.158,1,0.05,-6.42,1.4,890.6322,57.004400000000004,-434.23060000000004,175,75
2026-05-09 17:11:57.175,1,-0.48,-7.85,0.87,838.8022,-129.7656,-415.0206,175,75
2026-05-09 17:11:57.183,1,-0.74,-8.34,0.62,864.6622,-162.8156,-416.67060000000004,175,75
2026-05-09 17:11:57.204,1,-1.22,-9.45,1.31,861.0622,-156.8956,-389.90060000000005,175,75
2026-05-09 17:11:57.204,1,-1.36,-10.08,1.24,769.3521999999999,-219.1556,-372.9506,175,75
2026-05-09 17:11:57.216,1,-1.45,-9.14,0.71,670.7622,-235.3756,-340.1406,175,75
2026-05-09 17:11:57.238,1,-1.45,-6.84,0.49,590.3922,-251.4156,-294.66060000000004,175,75
2026-05-09 17:11:57.249,1,-1.29,-4.7,0.5,519.1722,-274.9456,-258.86060000000003,175,75
2026-05-09 17:11:57.260,1,-1.56,-3.43,0.15,441.6722,-271.5956,-215.2606,175,75
2026-05-09 17:11:57.275,1,-1.78,-0.65,-1.74,241.00220000000002,-148.5456,-133.7406,175,75
2026-05-09 17:11:57.298,1,-1.13,0.25,-1.58,131.1222,6.2044,-65.0206,175,75
2026-05-09 17:11:57.309,1,-1.03,0.59,-0.94,7.522199999999998,83.1644,-16.4206,175,75
2026-05-09 17:11:57.321,1,-0.59,0.46,0.04,-40.337799999999994,133.8944,18.5794,175,75
2026-05-09 17:11:57.332,1,-0.25,0.32,0.52,-65.39779999999999,69.0744,35.8294,175,75
2026-05-09 17:11:57.332,1,-0.33,0.42,0.65,-82.1078,4.994400000000002,55.7094,175,75
2026-05-09 17:11:57.344,1,-0.04,0.71,1.05,-80.7678,-18.485599999999998,71.0194,175,75
2026-05-09 17:11:57.357,1,0.39,1.15,1.07,-64.6078,-98.54560000000001,57.0494,175,75
2026-05-09 17:11:57.379,1,0.22,1.33,0.75,-42.8978,-165.4956,28.029400000000003,175,75
2026-05-09 17:11:57.379,1,0.17,1.27,0.46,-33.757799999999996,-194.7056,18.3294,175,75
2026-05-09 17:11:57.390,1,-0.18,1.08,0.3,-29.727799999999995,-201.53560000000002,-1.9705999999999992,175,75
2026-05-09 17:11:57.407,1,-0.46,1.16,0.38,-22.8378,-193.1156,-3.8005999999999993,175,75
2026-05-09 17:11:57.418,1,-0.57,1.29,0.55,-6.927799999999998,-182.3856,4.4894,175,75
2026-05-09 17:11:57.426,1,-0.63,1.28,0.57,1.1221999999999994,-176.53560000000002,9.859399999999999,175,75
2026-05-09 17:11:57.440,1,-0.62,1.17,0.4,0.6322000000000045,-155.3156,18.5794,175,75
2026-05-09 17:11:57.451,1,-0.61,1.09,0.28,0.39220000000000255,-111.2256,22.659399999999998,175,75
2026-05-09 17:11:57.461,1,-0.59,1.11,0.31,-3.757799999999996,-24.645599999999998,34.7394,175,75
2026-05-09 17:11:57.466,1,-0.52,1.12,0.45,-10.217799999999997,36.20440000000001,49.7994,175,75
2026-05-09 17:11:57.482,1,-0.35,1.02,0.82,-26.617799999999995,107.18440000000001,71.4994,175,75
2026-05-09 17:11:57.524,1,0.08,0.85,0.98,-58.637800000000006,134.0744,111.9894,175,75
2026-05-09 17:11:57.536,1,0.12,0.85,1.07,-71.37780000000001,122.7344,116.2594,175,75
2026-05-09 17:11:57.538,1,0.31,0.81,1.16,-77.83779999999999,122.61439999999999,121.3194,175,75
2026-05-09 17:11:57.555,1,0.43,0.77,1.28,-84.11779999999999,104.1944,121.8094,175,75
2026-05-09 17:11:57.567,1,0.51,0.74,1.45,-88.3878,83.2244,119.9194,175,75
2026-05-09 17:11:57.589,1,0.81,0.76,1.72,-93.3878,44.4444,119.1894,175,75
2026-05-09 17:11:57.601,1,0.93,0.78,1.78,-96.0678,11.634400000000003,113.8194,175,75
2026-05-09 17:11:57.619,1,0.92,0.75,1.71,-96.86779999999999,-11.965599999999998,110.0394,175,75
2026-05-09 17:11:57.640,1,0.76,0.57,1.62,-104.7278,-22.3856,104.9794,175,75
2026-05-09 17:11:57.640,1,0.71,0.49,1.82,-110.64779999999999,-12.875599999999999,108.3294,175,75
2026-05-09 17:11:57.666,1,0.71,0.0,2.13,-109.7278,-35.495599999999996,106.8094,175,75
2026-05-09 17:11:57.677,1,0.53,-0.3,2.1,-117.89779999999999,-70.9256,107.8494,175,75
2026-05-09 17:11:57.688,1,0.27,-0.47,2.04,-131.0678,-83.7256,124.24940000000001,175,75
2026-05-09 17:11:57.698,1,0.08,-0.63,2.07,-142.1678,-78.8556,148.2694,175,75
2026-05-09 17:11:57.705,1,-0.07,-0.71,2.16,-140.8878,-65.1356,167.7794,175,75
2026-05-09 17:11:57.718,1,0.1,-0.79,1.81,-148.02779999999998,-92.0256,181.3794,175,75
2026-05-09 17:11:57.728,1,0.11,-0.86,1.47,-155.15779999999998,-79.0356,188.9994,175,75
2026-05-09 17:11:57.735,1,0.13,-0.92,1.26,-160.4578,-55.3156,193.6994,175,75
2026-05-09 17:11:57.748,1,0.21,-0.93,1.27,-155.09779999999998,-23.915599999999998,205.6494,175,75
2026-05-09 17:11:57.763,1,0.31,-0.94,1.62,-137.77779999999998,-26.8356,223.2694,175,75
2026-05-09 17:11:57.769,1,0.26,-0.79,1.72,-129.3078,-56.4156,227.9094,175,75
2026-05-09 17:11:57.784,1,0.11,-0.44,1.38,-130.7678,-102.0856,230.7094,175,75
2026-05-09 17:11:57.810,1,0.42,0.27,-0.03,-158.87779999999998,-123.3656,210.8294,175,75
2026-05-09 17:11:57.821,1,-2.36,1.01,-0.36,-157.1078,-100.3156,228.9994,175,75
2026-05-09 17:11:57.826,1,1.55,0.4,-0.43,-141.0078,58.03439999999999,245.0394,175,75
2026-05-09 17:11:57.844,1,-0.53,-2.07,1.12,-117.59779999999998,-12.2656,197.7794,175,75
2026-05-09 17:11:57.859,1,1.5,-0.4,3.97,-51.197799999999994,279.86440000000005,174.3694,175,75
2026-05-09 17:11:57.886,1,4.63,-4.8,1.3,-262.2878,2.554400000000001,8.6994,175,75
2026-05-09 17:11:57.886,1,1.42,-6.33,-2.16,-521.0678,-325.31559999999996,-2.3406000000000002,175,75
2026-05-09 17:11:57.896,1,-0.94,0.56,-0.57,-322.7778,-7.3856,145.1594,175,75
2026-05-09 17:11:57.911,1,-0.65,4.48,2.34,-147.4778,168.5844,121.6894,175,75
2026-05-09 17:11:57.992,1,-0.21,0.0,0.45,-112.89779999999999,58.34439999999999,-4.1706,175,75
2026-05-09 17:11:58.003,1,-0.19,-0.16,0.54,-93.20779999999999,74.5044,-17.8906,175,75
2026-05-09 17:11:58.003,1,-0.05,-0.42,0.49,-89.9778,74.4444,-38.370599999999996,175,75
2026-05-09 17:11:58.014,1,0.13,-0.83,0.42,-62.9578,18.4044,-62.89059999999999,175,75
2026-05-09 17:11:58.024,1,0.29,-1.22,0.48,-31.617799999999995,-18.5456,-68.7406,175,75
2026-05-09 17:11:58.041,1,0.36,-1.68,0.69,8.4422,-30.8656,-68.0106,175,75
2026-05-09 17:11:58.052,1,0.74,-1.97,1.13,33.0122,-34.5256,-56.120599999999996,175,75
2026-05-09 17:11:58.076,1,1.31,-3.36,2.36,26.4322,-3.1156000000000006,-56.7906,175,75
2026-05-09 17:11:58.087,1,1.2,-2.27,2.35,3.9322000000000017,30.2944,-63.4406,175,75
2026-05-09 17:11:58.098,1,1.26,-0.41,2.43,36.3022,60.7244,-48.2506,175,75
2026-05-09 17:11:58.108,1,0.87,0.02,2.01,0.6921999999999997,42.9144,-39.7806,175,75
2026-05-09 17:11:58.108,1,-0.03,-0.65,1.03,-123.08779999999999,-21.3556,5.0394,175,75
2026-05-09 17:11:58.119,1,-0.71,-0.5,0.95,-228.3278,27.424400000000002,70.7094,175,75
2026-05-09 17:11:58.138,1,-0.36,-1.21,1.56,-297.8978,-20.8056,118.0294,175,75
2026-05-09 17:11:58.144,1,0.98,-1.68,2.06,-343.6378,-63.1156,99.3094,175,75
2026-05-09 17:11:58.154,1,1.56,-1.39,2.57,-320.5278,-23.8556,85.46940000000001,175,75
2026-05-09 17:11:58.166,1,1.7,-1.12,2.61,-314.05780000000004,-27.6356,76.5594,175,75
2026-05-09 17:11:58.188,1,1.19,-0.43,2.15,-288.44780000000003,48.8344,65.1594,175,75
2026-05-09 17:11:58.210,1,0.75,-0.36,2.53,-196.49779999999998,176.3344,27.169400000000003,175,75
2026-05-09 17:11:58.210,1,0.8,-0.34,3.06,-159.2378,177.7944,11.5594,175,75
2026-05-09 17:11:58.224,1,0.91,-0.43,3.32,-133.1478,132.7344,-4.470599999999999,175,75
2026-05-09 17:11:58.234,1,0.79,-0.4,3.34,-113.8178,55.9644,-22.4606,175,75
2026-05-09 17:11:58.260,1,0.24,-0.24,2.63,-61.257799999999996,-20.255599999999998,-74.53059999999999,175,75
2026-05-09 17:11:58.271,1,-0.24,-0.29,2.11,17.162200000000002,-30.4956,-172.9506,175,75
2026-05-09 17:11:58.295,1,-0.59,-0.17,2.38,128.5622,-69.5256,-246.3006,175,75
2026-05-09 17:11:58.308,1,-0.76,-0.01,2.42,181.97220000000002,-122.57560000000001,-273.5606,175,75
2026-05-09 17:11:58.320,1,-0.84,0.03,2.04,226.3022,-159.7656,-302.5206,175,75
2026-05-09 17:11:58.326,1,-0.88,-0.06,1.48,263.93219999999997,-162.1456,-328.2506,175,75
2026-05-09 17:11:58.357,1,-1.01,0.04,1.06,355.88219999999995,-56.965599999999995,-359.53060000000005,175,75
2026-05-09 17:11:58.368,1,-0.92,0.16,1.23,433.38219999999995,-3.3656000000000006,-344.84060000000005,175,75
2026-05-09 17:11:58.376,1,-0.59,-0.08,1.42,490.2722,-10.7456,-319.47060000000005,175,75
2026-05-09 17:11:58.389,1,-0.64,-0.31,1.39,511.6722,-53.605599999999995,-287.16060000000004,175,75
2026-05-09 17:11:58.400,1,-0.63,-0.48,1.44,515.2722,-110.1356,-261.48060000000004,175,75
2026-05-09 17:11:58.430,1,-1.38,-1.24,0.55,476.43219999999997,-347.26559999999995,-240.7506,175,75
2026-05-09 17:11:58.430,1,-1.83,-1.4,0.01,434.8422,-383.24559999999997,-238.07059999999998,175,75
2026-05-09 17:11:58.478,1,-3.89,-1.28,-2.18,126.5522,-244.8856,-58.8006,175,75
2026-05-09 17:11:58.488,1,-2.92,0.05,-2.44,105.57220000000001,-161.6556,8.9394,175,75
2026-05-09 17:11:58.499,1,-2.61,1.71,-3.74,34.4722,-210.1356,62.1094,175,75
2026-05-09 17:11:58.511,1,-2.14,1.44,-3.68,-56.4378,-180.1356,177.3594,175,75
2026-05-09 17:11:58.522,1,-6.17,-0.02,-3.59,-249.48779999999996,-79.15559999999999,226.8094,175,75
2026-05-09 17:11:58.532,1,6.78,-12.0,2.21,-24.667799999999993,487.30440000000004,420.09939999999995,175,75
2026-05-09 17:11:58.554,1,1.25,2.07,6.2,-363.0878,-36.8356,355.94939999999997,175,75
2026-05-09 17:11:58.565,1,0.3,6.59,2.62,-518.5678,-331.0456,213.9394,175,75
2026-05-09 17:11:58.576,1,-0.81,3.11,-0.78,-255.3978,-310.74559999999997,197.9694,175,75
2026-05-09 17:11:58.587,1,-0.97,-4.0,-2.6,-233.5678,-153.1156,119.7994,175,75
2026-05-09 17:11:58.598,1,-0.5,0.37,-1.32,-195.6478,69.8044,162.8394,175,75
2026-05-09 17:11:58.624,1,-0.28,-0.12,0.95,-117.34779999999998,29.444399999999998,69.18939999999999,175,75
2026-05-09 17:11:58.643,1,0.03,-0.54,0.57,-75.58779999999999,3.4644000000000013,30.529400000000003,175,75
2026-05-09 17:11:58.667,1,0.58,-1.41,0.2,-60.217800000000004,-35.0056,-21.970599999999997,175,75
2026-05-09 17:11:58.679,1,1.07,-1.71,0.44,-41.3178,-56.105599999999995,-21.0006,175,75
2026-05-09 17:11:58.691,1,1.17,-1.87,0.83,-22.897799999999997,-71.8356,-3.0106,175,75
2026-05-09 17:11:58.703,1,1.51,-2.3,1.27,-10.587800000000001,-58.6656,17.1094,175,75
2026-05-09 17:11:58.717,1,1.87,-2.42,1.33,-25.527799999999992,-28.915599999999998,26.989400000000003,175,75
2026-05-09 17:11:58.730,1,2.1,-2.17,1.92,-18.8778,36.3344,1.4993999999999996,175,75
2026-05-09 17:11:58.741,1,2.26,-1.32,2.99,10.632200000000001,68.4044,2.1094,175,75
2026-05-09 17:11:58.741,1,1.25,-0.4,2.68,-21.1378,-8.795599999999999,-23.860599999999998,175,75
2026-05-09 17:11:58.759,1,-0.48,0.08,1.54,-165.8278,-90.6156,90.1594,175,75
2026-05-09 17:11:58.793,1,0.61,-1.41,0.98,-320.94780000000003,-211.47560000000001,182.1694,175,75
2026-05-09 17:11:58.807,1,1.22,-1.5,1.2,-331.55780000000004,-81.9656,165.5294,175,75
2026-05-09 17:11:58.818,1,1.28,-1.34,1.68,-282.0478,85.4144,161.8094,175,75
2026-05-09 17:11:58.829,1,1.03,-0.57,1.98,-247.47779999999997,201.6344,144.42940000000002,175,75
2026-05-09 17:11:58.846,1,1.13,-0.21,3.09,-161.9278,267.36440000000005,106.6294,175,75
2026-05-09 17:11:58.857,1,1.27,-0.42,3.44,-120.52779999999998,175.0544,82.5994,175,75
2026-05-09 17:11:58.877,1,1.18,-0.51,3.26,-102.95779999999999,101.7544,59.9794,175,75
2026-05-09 17:11:58.877,1,1.06,-0.51,2.99,-86.37780000000001,81.0244,45.2794,175,75
2026-05-09 17:11:58.907,1,0.72,-0.17,2.64,-29.917799999999993,65.2344,12.3594,175,75
2026-05-09 17:11:58.912,1,0.6,-0.08,2.64,11.612200000000001,33.404399999999995,-22.2806,175,75
2026-05-09 17:11:58.927,1,0.48,-0.07,2.57,41.492200000000004,-3.2455999999999996,-51.8506,175,75
2026-05-09 17:11:58.941,1,0.33,-0.04,2.4,71.8522,-36.7756,-81.8506,175,75
2026-05-09 17:11:58.965,1,0.24,0.05,2.12,107.7722,-49.3356,-118.0106,175,75
2026-05-09 17:11:58.976,1,0.1,0.34,1.92,146.3622,-67.5056,-165.6906,175,75
2026-05-09 17:11:58.976,1,-0.06,0.47,1.88,204.72220000000002,-87.93560000000001,-209.5306,175,75
2026-05-09 17:11:58.976,1,-0.16,0.43,1.91,254.1722,-118.18560000000001,-244.5906,175,75
2026-05-09 17:11:58.987,1,-0.19,0.02,1.85,303.68219999999997,-163.7956,-279.05060000000003,175,75
2026-05-09 17:11:59.008,1,-0.22,-0.14,1.62,324.9622,-196.1056,-323.0106,175,75
2026-05-09 17:11:59.013,1,-0.1,-0.03,1.55,331.7922,-241.3556,-345.8106,175,75
2026-05-09 17:11:59.025,1,-0.52,-0.21,0.36,364.9622,-227.6356,-355.3306,175,75
2026-05-09 17:11:59.038,1,-0.9,-0.4,0.04,415.3322,-108.1156,-339.78060000000005,175,75
2026-05-09 17:11:59.048,1,-0.47,-0.4,0.91,435.1522,-118.0556,-320.7506,175,75
2026-05-09 17:11:59.059,1,-1.18,-0.47,0.91,412.8922,-236.8956,-310.1406,175,75
2026-05-09 17:11:59.065,1,-1.59,-0.6,0.46,382.7122,-281.0456,-295.3306,175,75
2026-05-09 17:11:59.077,1,-2.32,-0.73,-0.2,337.0422,-368.7956,-280.7506,175,75
2026-05-09 17:11:59.099,1,-3.2,-0.5,-0.89,278.0722,-398.7256,-226.0606,175,75
2026-05-09 17:11:59.109,1,-3.75,-0.11,-1.23,218.56220000000002,-364.2156,-168.6206,175,75
2026-05-09 17:11:59.121,1,-3.89,0.42,-1.67,140.8822,-260.49559999999997,-78.8606,175,75
2026-05-09 17:11:59.121,1,-3.55,0.62,-2.17,102.10220000000001,-189.5256,8.1494,175,75
2026-05-09 17:11:59.159,1,-6.63,-1.64,-5.2,-35.6478,-233.3656,304.9794,175,75
2026-05-09 17:11:59.173,1,-0.65,-7.42,-1.44,-112.95779999999999,116.14439999999999,514.1894,175,75
2026-05-09 17:11:59.185,1,3.36,-0.73,2.55,-165.3978,276.4544,208.3294,175,75
2026-05-09 17:11:59.204,1,-0.31,2.15,0.58,-299.6078,-134.6456,228.2094,175,75
2026-05-09 17:11:59.204,1,-0.18,0.28,1.69,-232.53779999999998,40.784400000000005,201.92940000000002,175,75
2026-05-09 17:11:59.215,1,-0.47,-1.07,0.94,-188.99779999999998,-19.1556,115.7094,175,75
2026-05-09 17:11:59.226,1,-0.03,0.22,0.21,-204.6678,-97.32560000000001,136.4394,175,75
2026-05-09 17:11:59.237,1,-0.5,0.34,-0.14,-151.2578,-94.3956,86.0194,175,75
2026-05-09 17:11:59.249,1,-0.04,-0.15,-0.04,-76.43780000000001,-18.915599999999998,45.0394,175,75
2026-05-09 17:11:59.259,1,0.13,-0.88,0.62,15.212200000000003,-0.985599999999998,-11.7906,175,75
2026-05-09 17:11:59.281,1,0.57,-1.79,0.81,82.10220000000001,-6.8355999999999995,-30.870599999999996,175,75
2026-05-09 17:11:59.293,1,1.0,-2.74,1.06,89.1122,60.6044,-27.6406,175,75
2026-05-09 17:11:59.317,1,0.93,-3.51,1.54,96.12219999999999,280.23440000000005,-72.1506,175,75
2026-05-09 17:11:59.317,1,1.81,-1.74,2.49,97.4622,244.0744,28.029400000000003,175,75
2026-05-09 17:11:59.327,1,1.48,-0.17,2.7,66.2422,139.6244,14.0594,175,75
2026-05-09 17:11:59.338,1,-0.57,0.43,0.98,-45.4578,-26.895599999999998,27.7194,175,75
2026-05-09 17:11:59.350,1,-2.84,0.08,-1.31,-221.3778,-97.5056,162.4194,175,75
2026-05-09 17:11:59.360,1,-2.57,-0.5,-2.06,-417.2878,26.814400000000003,301.13939999999997,175,75
2026-05-09 17:11:59.371,1,-1.43,-1.42,-0.7,-426.1378,267.73440000000005,292.2994,175,75
2026-05-09 17:11:59.371,1,-0.2,-2.65,1.2,-424.11780000000005,255.41439999999997,283.38939999999997,175,75
2026-05-09 17:11:59.383,1,-0.48,-4.24,1.48,-480.7078,94.1944,332.71939999999995,175,75
2026-05-09 17:11:59.394,1,-1.01,-3.64,0.64,-507.7178,90.8444,315.46939999999995,175,75
2026-05-09 17:11:59.407,1,-0.49,-2.58,0.74,-483.8778,165.7844,338.63939999999997,175,75
2026-05-09 17:11:59.416,1,-0.27,-2.36,1.47,-465.7078,198.4044,328.8794,175,75
2026-05-09 17:11:59.430,1,-0.02,-2.11,1.74,-470.1578,175.1144,319.4294,175,75
2026-05-09 17:11:59.442,1,0.09,-1.4,1.61,-458.75780000000003,149.1344,314.7994,175,75
2026-05-09 17:11:59.485,1,0.36,-0.97,2.04,-442.4778,141.8844,292.1094,175,75
2026-05-09 17:11:59.497,1,0.49,-0.93,2.26,-445.3378,126.9444,290.88939999999997,175,75
2026-05-09 17:11:59.509,1,0.71,-0.98,2.62,-443.0878,93.7744,285.46939999999995,175,75
2026-05-09 17:11:59.509,1,0.95,-1.1,2.91,-429.2378,76.39439999999999,273.26939999999996,175,75
2026-05-09 17:11:59.522,1,1.2,-1.28,3.33,-401.37780000000004,71.81439999999999,266.9294,175,75
2026-05-09 17:11:59.534,1,1.56,-1.47,3.87,-345.94780000000003,65.9044,242.1694,175,75
2026-05-09 17:11:59.549,1,1.73,-1.52,4.0,-318.87780000000004,70.17439999999999,214.6694,175,75
2026-05-09 17:11:59.560,1,2.05,-1.18,4.41,-256.9878,92.1244,173.2094,175,75
2026-05-09 17:11:59.608,1,2.38,-0.03,4.97,161.1222,-20.9256,-68.9206,175,75
2026-05-09 17:11:59.616,1,1.97,0.15,4.4,268.8622,-60.6156,-155.8706,175,75
2026-05-09 17:11:59.639,1,1.32,-0.53,3.27,508.56219999999996,-122.6356,-390.8106,175,75
2026-05-09 17:11:59.651,1,1.18,-1.4,3.0,559.2922,-172.0256,-464.35060000000004,175,75
2026-05-09 17:11:59.651,1,0.7,-2.3,2.81,604.0522,-238.3056,-518.1906,175,75
2026-05-09 17:11:59.677,1,-0.53,-4.45,1.86,679.9621999999999,-300.19559999999996,-622.0906,175,75
2026-05-09 17:11:59.688,1,-1.42,-4.92,0.89,682.8322,-217.75560000000002,-631.6106,175,75
2026-05-09 17:11:59.698,1,-1.56,-5.19,0.27,679.1722,-104.46560000000001,-631.7306,175,75
2026-05-09 17:11:59.758,1,-0.45,-7.62,1.43,887.0422,-54.215599999999995,-438.4406,175,75
2026-05-09 17:11:59.781,1,-1.94,-9.95,0.51,767.2822,-252.2656,-351.55060000000003,175,75
2026-05-09 17:11:59.792,1,-1.29,-8.44,1.19,691.3622,-203.6056,-277.40060000000005,175,75
2026-05-09 17:11:59.812,1,-1.41,-7.29,1.19,565.3922,-295.49559999999997,-249.0506,175,75
2026-05-09 17:11:59.823,1,-1.49,-5.93,0.67,481.7322,-392.87559999999996,-229.2906,175,75
2026-05-09 17:11:59.845,1,-1.77,-1.01,-1.12,232.0422,-182.0856,-128.3106,175,75
2026-05-09 17:11:59.860,1,-1.36,-0.04,-1.07,146.97220000000002,-89.3356,-74.9606,175,75
2026-05-09 17:11:59.920,1,-0.74,0.68,0.78,-86.92779999999999,9.8644,65.9494,175,75
2026-05-09 17:11:59.920,1,-0.45,0.78,0.9,-103.87779999999998,-41.965599999999995,94.4894,175,75
2026-05-09 17:11:59.930,1,-0.04,0.71,0.55,-89.5478,-95.0056,96.74940000000001,175,75
2026-05-09 17:11:59.930,1,-0.16,0.78,0.27,-68.6978,-98.60560000000001,72.5394,175,75
2026-05-09 17:11:59.949,1,-0.09,1.15,0.14,-51.257799999999996,-75.4356,51.629400000000004,175,75
2026-05-09 17:11:59.963,1,-0.34,1.58,0.26,-45.1578,-49.705600000000004,36.7494,175,75
2026-05-09 17:11:59.972,1,-0.34,1.56,0.62,-34.7878,-48.0556,37.2394,175,75
2026-05-09 17:11:59.991,1,-0.24,1.41,0.88,-18.147799999999997,-85.2556,26.379399999999997,175,75
2026-05-09 17:11:59.991,1,-0.18,1.42,0.89,-12.107799999999997,-123.6656,20.9494,175,75
2026-05-09 17:12:00.001,1,-0.21,1.44,0.63,-1.7378,-134.3356,14.8594,175,75
2026-05-09 17:12:00.016,1,-0.23,1.35,0.53,2.772199999999998,-117.7556,12.8494,175,75
2026-05-09 17:12:00.037,1,-0.3,1.23,0.61,4.782200000000003,-58.0556,23.029400000000003,175,75
2026-05-09 17:12:00.047,1,-0.28,1.17,0.69,5.3922000000000025,-32.0256,31.0794,175,75
2026-05-09 17:12:00.063,1,-0.22,1.06,0.77,2.772199999999998,-2.575599999999998,43.2094,175,75
2026-05-09 17:12:00.063,1,-0.14,0.92,0.79,-4.2378,29.6844,54.6694,175,75
2026-05-09 17:12:00.086,1,-0.05,0.83,0.79,-9.3078,54.1944,62.5994,175,75
2026-05-09 17:12:00.096,1,0.11,0.73,0.97,-29.787799999999997,98.89439999999999,82.6594,175,75
2026-05-09 17:12:00.107,1,0.27,0.7,1.12,-39.8478,100.0544,89.9194,175,75
2026-05-09 17:12:00.118,1,0.42,0.68,1.28,-49.5478,91.7544,95.1594,175,75
2026-05-09 17:12:00.133,1,0.62,0.69,1.4,-59.91779999999999,78.1044,101.3194,175,75
2026-05-09 17:12:00.143,1,0.74,0.75,1.51,-67.89779999999999,62.67439999999999,103.8794,175,75
2026-05-09 17:12:00.166,1,1.04,0.95,1.7,-73.5078,41.5744,102.1694,175,75
2026-05-09 17:12:00.179,1,1.26,0.9,1.58,-71.3178,37.004400000000004,90.0394,175,75
2026-05-09 17:12:00.186,1,1.2,0.85,1.42,-69.2378,54.1944,73.8194,175,75
2026-05-09 17:12:00.200,1,1.02,0.69,1.32,-69.6078,91.45439999999999,63.9994,175,75
2026-05-09 17:12:00.211,1,0.91,0.04,1.57,-68.5078,113.2244,58.0294,175,75
2026-05-09 17:12:00.224,1,0.8,-0.3,1.74,-74.11779999999999,84.6244,47.1094,175,75
2026-05-09 17:12:00.239,1,0.67,-0.62,1.98,-80.9478,48.5244,44.5494,175,75
2026-05-09 17:12:00.249,1,0.61,-0.88,2.12,-86.0078,0.41440000000000055,57.1094,175,75
2026-05-09 17:12:00.259,1,0.61,-1.21,2.15,-102.5378,-71.3556,83.3894,175,75
2026-05-09 17:12:00.269,1,0.05,-0.43,1.52,-120.52779999999998,-117.93560000000001,96.6894,175,75
2026-05-09 17:12:00.293,1,-0.12,-0.28,1.47,-113.20779999999999,-116.6556,115.4094,175,75
2026-05-09 17:12:00.293,1,-0.28,-0.66,1.43,-116.37779999999998,-122.3856,125.3494,175,75
2026-05-09 17:12:00.381,1,3.52,-1.6,4.09,-130.0378,-237.2656,43.7594,175,75
2026-05-09 17:12:00.406,1,-1.3,-3.32,-4.53,-615.6478000000001,-0.005599999999997607,260.70939999999996,175,75
2026-05-09 17:12:00.418,1,1.64,2.02,1.64,-60.7678,342.06440000000003,438.02939999999995,175,75
2026-05-09 17:12:00.418,1,0.81,4.21,4.02,-148.0878,-53.3656,90.21940000000001,175,75
2026-05-09 17:12:00.458,1,0.64,-0.48,-0.45,-235.21779999999998,-29.4656,124.7394,175,75
2026-05-09 17:12:00.484,1,-0.03,-0.07,1.08,-147.59779999999998,18.8944,103.3294,175,75
2026-05-09 17:12:00.494,1,-0.09,0.33,0.5,-163.93779999999998,-14.0956,86.3794,175,75
2026-05-09 17:12:00.505,1,0.04,0.33,0.34,-141.8678,3.0344000000000015,72.7194,175,75
2026-05-09 17:12:00.515,1,-0.23,-0.02,0.58,-108.5078,47.4944,55.8294,175,75
2026-05-09 17:12:00.544,1,-0.36,-0.16,0.66,-87.89779999999999,51.0244,-1.2406000000000006,175,75
2026-05-09 17:12:00.553,1,-0.14,-0.26,0.57,-70.45779999999999,47.4944,-26.2406,175,75
2026-05-09 17:12:00.557,1,-0.07,-0.59,0.4,-66.3178,48.4644,-52.2806,175,75
2026-05-09 17:12:00.576,1,0.4,-1.0,0.32,-46.9278,26.7544,-75.8106,175,75
2026-05-09 17:12:00.592,1,0.6,-1.29,0.46,-33.087799999999994,-7.3256,-81.9106,175,75
2026-05-09 17:12:00.603,1,0.79,-1.63,0.85,-5.587800000000001,-30.7456,-68.1306,175,75
2026-05-09 17:12:00.603,1,0.98,-1.94,1.22,1.7922000000000011,-41.5356,-39.410599999999995,175,75
2026-05-09 17:12:00.631,1,1.1,-2.1,1.41,48.6222,84.1944,-38.5606,175,75
2026-05-09 17:12:00.644,1,1.32,-1.24,1.77,73.32220000000001,198.1644,-44.1706,175,75
2026-05-09 17:12:00.669,1,0.36,-0.11,2.07,-1.7378,140.6044,-35.870599999999996,175,75
2026-05-09 17:12:00.680,1,0.06,-0.09,1.87,-128.99779999999998,60.4744,25.0394,175,75
2026-05-09 17:12:00.680,1,0.49,0.34,2.34,-221.80780000000001,-41.4756,31.6894,175,75
2026-05-09 17:12:00.702,1,0.07,0.21,1.97,-291.06780000000003,-184.2756,64.9794,175,75
2026-05-09 17:12:00.715,1,0.94,-0.8,1.71,-368.87780000000004,-226.7756,84.1894,175,75
2026-05-09 17:12:00.733,1,0.9,-1.27,2.2,-354.2378,-47.575599999999994,87.7794,175,75
2026-05-09 17:12:00.750,1,0.8,-0.62,2.14,-308.3878,9.924400000000002,79.3094,175,75
2026-05-09 17:12:00.764,1,0.64,-0.27,2.27,-264.2378,70.1144,64.1294,175,75
2026-05-09 17:12:00.801,1,0.55,-0.24,2.74,-181.2578,110.4744,32.2994,175,75
2026-05-09 17:12:00.802,1,0.47,-0.46,2.7,-163.7578,85.1144,11.1994,175,75
2026-05-09 17:12:00.812,1,0.18,-0.9,2.56,-137.8378,36.6944,-29.470599999999997,175,75
2026-05-09 17:12:00.827,1,-0.13,-1.17,2.48,-114.42779999999999,-6.4756,-64.4106,175,75
2026-05-09 17:12:00.834,1,-0.35,-0.93,2.33,-83.02779999999998,-61.965599999999995,-113.0106,175,75
2026-05-09 17:12:00.860,1,-0.48,0.1,2.22,9.1722,-134.4656,-170.3306,175,75
2026-05-09 17:12:00.871,1,-0.68,0.38,2.0,55.1522,-167.6956,-201.9706,175,75
2026-05-09 17:12:00.899,1,-0.91,0.57,1.06,195.8822,-110.4956,-278.1306,175,75
2026-05-09 17:12:00.909,1,-0.93,0.6,0.99,268.4422,-30.6856,-298.5606,175,75
2026-05-09 17:12:00.930,1,-0.73,0.57,1.19,324.4722,14.5044,-302.9506,175,75
2026-05-09 17:12:00.940,1,-0.66,0.42,1.41,388.13219999999995,22.674400000000002,-311.48060000000004,175,75
2026-05-09 17:12:00.963,1,-0.46,0.1,1.35,520.6322,-44.465599999999995,-245.4506,175,75
2026-05-09 17:12:00.974,1,-0.64,-0.08,1.39,533.3822,-106.1656,-205.2606,175,75
2026-05-09 17:12:00.986,1,-0.69,-0.42,1.04,521.9722,-188.97560000000001,-194.8406,175,75
2026-05-09 17:12:00.997,1,-1.29,-0.64,-0.02,472.5822,-233.1856,-204.1706,175,75
2026-05-09 17:12:01.013,1,-1.55,-0.54,-0.26,419.4122,-256.5356,-190.7506,175,75
2026-05-09 17:12:01.044,1,-2.75,-1.08,-1.84,262.1622,-373.1156,-168.4406,175,75
2026-05-09 17:12:01.044,1,-3.78,-1.02,-3.01,204.6022,-342.20559999999995,-108.25059999999999,175,75
2026-05-09 17:12:01.067,1,-2.49,-0.18,-2.73,169.90220000000002,-74.0356,73.0894,175,75
2026-05-09 17:12:01.079,1,-1.72,1.04,-3.56,15.212200000000003,-202.9356,129.9794,175,75
2026-05-09 17:12:01.108,1,-1.0,-1.11,-2.76,-216.92780000000002,-33.605599999999995,218.0894,175,75
2026-05-09 17:12:01.108,1,-0.18,-3.62,0.74,-126.92779999999999,261.69440000000003,159.6694,175,75
2026-05-09 17:12:01.121,1,0.57,-2.52,3.67,-317.5378,47.2444,221.1394,175,75
2026-05-09 17:12:01.133,1,0.09,0.45,3.16,-374.5478,-186.6556,290.40939999999995,175,75
2026-05-09 17:12:01.146,1,0.86,1.81,0.81,-402.1678,-286.1656,162.1694,175,75
2026-05-09 17:12:01.158,1,-0.11,1.95,-1.43,-363.1478,-389.3356,141.1994,175,75
2026-05-09 17:12:01.181,1,0.12,-0.12,0.37,-111.55779999999999,102.6144,148.6394,175,75
2026-05-09 17:12:01.191,1,0.2,0.21,0.84,-116.0078,48.95439999999999,98.9394,175,75
2026-05-09 17:12:01.204,1,0.03,0.04,0.88,-112.95779999999999,7.244400000000002,81.4394,175,75
2026-05-09 17:12:01.252,1,0.58,-1.39,0.64,-64.42779999999999,-30.4956,1.4393999999999991,175,75
2026-05-09 17:12:01.263,1,0.93,-1.57,0.9,-57.717800000000004,-58.54559999999999,15.3494,175,75
2026-05-09 17:12:01.263,1,0.95,-1.42,1.03,-48.697799999999994,-75.9256,24.1894,175,75
2026-05-09 17:12:01.277,1,1.18,-1.29,1.26,-35.52779999999999,-59.465599999999995,26.2594,175,75
2026-05-09 17:12:01.311,1,1.6,-1.67,1.76,0.08220000000000027,-3.605599999999999,16.8094,175,75
2026-05-09 17:12:01.315,1,1.9,-0.84,2.3,10.9422,16.814400000000003,14.4894,175,75
2026-05-09 17:12:01.327,1,1.91,-0.34,2.69,8.1922,-25.3156,2.3594,175,75
2026-05-09 17:12:01.333,1,1.16,-0.0,2.56,-43.8178,-86.04560000000001,12.8494,175,75
2026-05-09 17:12:01.360,1,0.21,-0.06,1.47,-198.5678,-159.4656,85.2794,175,75
2026-05-09 17:12:01.389,1,-0.0,-0.74,0.68,-310.2778,-66.4756,185.7694,175,75
2026-05-09 17:12:01.409,1,1.37,-1.42,2.25,-231.0078,257.61440000000005,140.9494,175,75
2026-05-09 17:12:01.676,1,1.04,-0.58,3.2,-160.3378,372.18440000000004,101.3194,175,75
2026-05-09 17:12:01.676,1,1.08,-0.54,3.69,-121.43779999999998,301.5744,85.5894,175,75
2026-05-09 17:12:01.676,1,0.18,0.13,2.08,145.0222,-29.7656,-122.3406,175,75
2026-05-09 17:12:01.676,1,0.01,0.44,1.73,263.4422,-78.8556,-203.8006,175,75
2026-05-09 17:12:01.676,1,-0.2,-0.53,1.39,495.5122,-187.0856,-248.7406,175,75
2026-05-09 17:12:01.676,1,-0.77,-0.89,1.0,461.43219999999997,-280.74559999999997,-236.6106,175,75
2026-05-09 17:12:01.770,1,-3.52,-8.01,-1.12,-229.17780000000002,238.9544,552.5994,175,75
2026-05-09 17:12:01.956,1,-0.38,1.34,-0.25,-119.9778,5.6644000000000005,117.1694,175,75
2026-05-09 17:12:01.956,1,-0.03,-0.39,0.84,-50.0378,1.6343999999999994,42.9694,175,75
2026-05-09 17:12:01.956,1,0.46,-1.3,0.57,37.6522,27.3644,-30.510599999999997,175,75
2026-05-09 17:12:01.956,1,0.67,-1.59,0.94,58.1322,29.384400000000003,-31.910599999999995,175,75
2026-05-09 17:12:02.016,1,-1.14,0.13,-0.1,-259.4878,98.7744,136.80939999999998,175,75
2026-05-09 17:12:02.080,1,0.1,-1.19,1.34,-305.3978,282.67440000000005,158.2694,175,75
2026-05-09 17:12:02.080,1,0.27,-1.08,1.93,-304.05780000000004,302.06440000000003,153.8794,175,75
2026-05-09 17:12:02.147,1,0.8,0.32,2.54,-293.6378,87.7344,135.2194,175,75
2026-05-09 17:12:02.372,1,0.58,-0.49,2.64,61.4922,-108.3656,-119.8406,175,75
2026-05-09 17:12:02.372,1,0.56,-0.57,2.71,117.10220000000001,-119.0956,-159.4106,175,75
2026-05-09 17:12:02.372,1,0.49,-0.7,2.76,177.34220000000002,-149.7056,-204.5306,175,75
2026-05-09 17:12:02.372,1,0.25,-1.05,2.56,236.9122,-193.6056,-262.9506,175,75
2026-05-09 17:12:02.372,1,-0.47,-1.47,1.1,374.9622,-162.50560000000002,-371.85060000000004,175,75
2026-05-09 17:12:02.372,1,-0.53,-1.74,0.9,446.18219999999997,-84.7656,-388.5006,175,75
2026-05-09 17:12:02.372,1,-0.54,-2.0,0.98,502.7722,-40.6156,-392.22060000000005,175,75
2026-05-09 17:12:02.373,1,-0.46,-2.84,1.24,597.2221999999999,-25.6156,-374.23060000000004,175,75
2026-05-09 17:12:02.409,1,-0.63,-5.57,0.99,576.9122,-152.2656,-232.1606,175,75
2026-05-09 17:12:02.409,1,-0.64,-5.1,0.73,556.0022,-178.8556,-202.8906,175,75
2026-05-09 17:12:02.445,1,-1.31,-1.68,0.08,283.1322,-200.4956,-163.07059999999998,175,75
2026-05-09 17:12:02.492,1,-1.54,-0.79,-0.46,246.6722,-133.8556,-144.4706,175,75
2026-05-09 17:12:02.506,1,-0.14,0.59,0.74,9.4722,178.7044,54.9194,175,75
2026-05-09 17:12:02.516,1,-0.05,0.58,0.68,-6.137799999999999,116.27439999999999,53.879400000000004,175,75
2026-05-09 17:12:02.527,1,0.03,0.75,0.7,-20.7678,62.42439999999999,51.3194,175,75
2026-05-09 17:12:02.541,1,0.2,1.05,0.79,-26.3778,16.814400000000003,57.909400000000005,175,75
2026-05-09 17:12:02.553,1,0.21,1.25,0.66,-22.3478,-148.2456,37.7194,175,75
2026-05-09 17:12:02.567,1,-0.01,1.22,0.32,-31.197799999999994,-211.7756,30.949399999999997,175,75
2026-05-09 17:12:02.578,1,-0.08,1.23,0.12,-39.1778,-244.7056,37.0494,175,75
2026-05-09 17:12:02.590,1,-0.22,1.29,0.14,-35.217800000000004,-254.3956,40.4094,175,75
2026-05-09 17:12:02.600,1,-0.25,1.19,0.23,-32.837799999999994,-239.5256,44.2494,175,75
2026-05-09 17:12:02.610,1,-0.25,1.13,0.32,-36.7378,-214.8856,50.2794,175,75
2026-05-09 17:12:02.632,1,-0.15,1.08,0.71,-46.9878,-156.9656,80.8294,175,75
2026-05-09 17:12:02.665,1,-0.05,0.89,0.77,-67.4178,-106.04560000000001,101.8694,175,75
2026-05-09 17:12:02.665,1,0.02,0.84,0.84,-75.45779999999999,-82.2656,112.8494,175,75
2026-05-09 17:12:02.688,1,0.15,0.78,0.91,-79.36779999999999,-67.9956,120.3494,175,75
2026-05-09 17:12:02.699,1,0.48,0.65,1.04,-92.89779999999999,-60.495599999999996,128.6994,175,75
2026-05-09 17:12:02.717,1,0.57,0.62,1.03,-98.93779999999998,-61.2256,128.3294,175,75
2026-05-09 17:12:02.724,1,0.67,0.51,1.0,-108.4478,-50.9256,124.9794,175,75
2026-05-09 17:12:02.792,1,0.87,-0.8,1.23,-167.2878,-103.0556,133.9394,175,75
2026-05-09 17:12:02.800,1,0.71,-0.63,1.18,-175.5878,-101.10560000000001,135.64939999999999,175,75
2026-05-09 17:12:02.841,1,0.64,-0.65,1.06,-166.7378,-99.9456,154.7394,175,75
2026-05-09 17:12:02.855,1,0.49,-0.78,1.03,-155.7078,-89.3356,159.2494,175,75
2026-05-09 17:12:02.867,1,0.4,-0.62,1.06,-143.1478,-78.0556,156.2594,175,75
2026-05-09 17:12:02.908,1,0.28,-0.4,1.05,-119.30779999999999,-88.9156,165.4694,175,75
2026-05-09 17:12:02.908,1,0.29,-0.46,1.04,-112.34779999999998,-100.3156,168.4494,175,75
2026-05-09 17:12:02.919,1,0.32,-0.49,0.99,-104.42779999999999,-101.29560000000001,171.4394,175,75
2026-05-09 17:12:02.942,1,-1.06,-0.04,0.4,-110.9478,-148.5456,198.4494,175,75
2026-05-09 17:12:02.969,1,1.91,0.31,6.07,-48.997800000000005,242.67440000000002,126.8694,175,75
2026-05-09 17:12:02.988,1,-1.83,-2.53,1.36,-85.8878,-283.5456,136.1994,175,75
2026-05-09 17:12:02.993,1,1.07,-1.23,0.2,-124.17779999999999,-47.8756,186.0194,175,75
2026-05-09 17:12:03.012,1,1.01,-1.13,0.11,-105.0378,32.5544,156.92940000000002,175,75
2026-05-09 17:12:03.046,1,-0.22,0.93,1.46,-46.867799999999995,66.2744,126.2594,175,75
2026-05-09 17:12:03.066,1,0.15,-0.14,0.87,-58.697799999999994,-22.5056,87.7794,175,75
2026-05-09 17:12:03.080,1,0.06,-0.05,0.68,-51.9278,-31.775599999999997,79.3694,175,75
2026-05-09 17:12:03.113,1,-0.21,-0.04,0.79,8.4422,-12.1456,29.919400000000003,175,75
2026-05-09 17:12:03.113,1,-0.06,-0.14,0.65,27.7722,-12.205599999999999,4.3694,175,75
2026-05-09 17:12:03.138,1,0.23,-0.59,0.62,94.1722,1.8843999999999994,-38.190599999999996,175,75
2026-05-09 17:12:03.165,1,0.58,-1.0,0.62,119.72220000000002,-2.935600000000001,-47.1506,175,75
2026-05-09 17:12:03.165,1,0.83,-1.12,0.74,121.00219999999999,14.014399999999998,-44.6506,175,75
2026-05-09 17:12:03.180,1,1.14,-1.42,0.99,100.57220000000001,43.7744,-39.9606,175,75
2026-05-09 17:12:03.202,1,1.52,-0.91,1.46,115.2122,113.1044,-34.2906,175,75
2026-05-09 17:12:03.239,1,0.67,0.72,1.24,-36.80779999999999,-39.465599999999995,-14.7206,175,75
2026-05-09 17:12:03.253,1,0.1,0.51,0.47,-159.6078,-0.8656000000000006,20.529400000000003,175,75
2026-05-09 17:12:03.263,1,-0.36,0.57,0.94,-172.4178,79.1944,62.3594,175,75
2026-05-09 17:12:03.274,1,-0.1,-0.09,1.07,-204.84779999999998,58.404399999999995,91.1394,175,75
2026-05-09 17:12:03.296,1,0.1,-0.08,0.87,-240.27779999999998,50.4144,85.9494,175,75
2026-05-09 17:12:03.296,1,0.37,-0.12,0.75,-245.7078,96.7544,93.0294,175,75
2026-05-09 17:12:03.318,1,0.67,-0.46,1.09,-245.5878,216.5144,70.4694,175,75
2026-05-09 17:12:03.330,1,0.7,-0.4,1.43,-237.65779999999998,246.5744,64.9794,175,75
2026-05-09 17:12:03.343,1,0.7,-0.23,1.78,-237.71779999999998,248.22439999999997,52.9694,175,75
2026-05-09 17:12:03.343,1,0.68,-0.07,2.04,-238.1478,226.8144,45.8294,175,75
2026-05-09 17:12:03.371,1,0.78,0.07,2.2,-234.05780000000001,171.3944,37.5994,175,75
2026-05-09 17:12:03.381,1,0.75,0.28,2.15,-229.66779999999997,92.42439999999999,31.7494,175,75
2026-05-09 17:12:03.394,1,0.71,0.35,2.0,-224.78779999999998,49.8044,28.639400000000002,175,75
2026-05-09 17:12:03.406,1,0.63,0.37,1.78,-213.4478,9.6844,19.3694,175,75
2026-05-09 17:12:03.417,1,0.56,0.34,1.59,-197.4178,-5.195599999999999,4.7994,175,75
2026-05-09 17:12:03.428,1,0.47,0.36,1.49,-168.7578,-15.2556,-16.0006,175,75
2026-05-09 17:12:03.444,1,0.4,0.4,1.54,-142.65779999999998,-19.8856,-33.980599999999995,175,75
2026-05-09 17:12:03.484,1,0.1,0.97,1.69,-13.267800000000001,-91.4756,-90.5706,175,75
2026-05-09 17:12:03.503,1,0.02,1.03,1.54,13.1922,-100.7456,-105.8706,175,75
2026-05-09 17:12:03.511,1,-0.03,1.08,1.35,50.7622,-103.9156,-128.1906,175,75
2026-05-09 17:12:03.535,1,-0.02,0.95,1.06,128.1322,-72.7556,-177.4006,175,75
2026-05-09 17:12:03.535,1,0.0,0.92,1.13,161.8522,-68.8556,-183.1906,175,75
2026-05-09 17:12:03.548,1,0.01,0.86,1.27,188.4422,-86.4156,-181.1206,175,75
2026-05-09 17:12:03.581,1,-0.02,0.38,1.59,211.4922,-253.6656,-184.1106,175,75
2026-05-09 17:12:03.581,1,-0.23,0.21,1.47,200.0822,-316.2256,-195.3906,175,75
2026-05-09 17:12:03.602,1,-0.74,0.21,1.05,162.3422,-387.93559999999997,-189.1106,175,75
2026-05-09 17:12:03.623,1,-0.85,0.43,0.84,155.3922,-376.4156,-186.0006,175,75
2026-05-09 17:12:03.623,1,-0.79,0.55,0.75,156.9122,-347.50559999999996,-187.5806,175,75
2026-05-09 17:12:03.633,1,-1.33,0.58,0.12,134.5422,-380.07559999999995,-173.6806,175,75
2026-05-09 17:12:03.648,1,-6.58,0.59,-2.9,11.8522,-624.4656,-170.2606,175,75
2026-05-09 17:12:03.658,1,-3.56,-1.58,-5.94,-92.2278,-655.3156,132.4194,175,75
2026-05-09 17:12:03.682,1,0.09,0.09,2.66,195.2122,503.9544,134.4294,175,75
2026-05-09 17:12:03.699,1,-2.27,1.6,6.2,-7.1678,642.9744,88.4494,175,75
2026-05-09 17:12:03.699,1,1.32,2.24,3.24,-51.9878,-79.0956,64.9194,175,75
2026-05-09 17:12:03.724,1,0.99,-1.09,0.42,4.602200000000003,9.1344,33.0294,175,75
2026-05-09 17:12:03.740,1,0.06,0.11,0.05,10.572200000000002,-64.5856,-10.940600000000002,175,75
2026-05-09 17:12:03.769,1,0.66,-0.89,1.24,38.5022,-19.7656,3.5793999999999997,175,75
2026-05-09 17:12:03.794,1,0.25,-0.64,0.95,30.1522,-44.465599999999995,11.3794,175,75
2026-05-09 17:12:03.809,1,0.15,-0.48,0.8,48.4422,-22.0856,2.6593999999999998,175,75
2026-05-09 17:12:03.813,1,0.1,-0.53,0.62,59.7222,-10.9856,-14.1106,175,75
2026-05-09 17:12:03.829,1,0.18,-0.48,0.68,65.0822,4.624400000000001,-23.800599999999996,175,75
2026-05-09 17:12:03.829,1,0.19,-0.46,0.84,73.38220000000001,22.244400000000002,-33.440599999999996,175,75
2026-05-09 17:12:03.843,1,0.22,-0.47,0.98,82.7122,34.314400000000006,-41.6106,175,75
2026-05-09 17:12:03.864,1,0.25,-0.44,1.07,90.3322,53.8344,-42.8306,175,75
2026-05-09 17:12:03.879,1,0.32,-0.44,1.13,78.13220000000001,83.3444,-43.0706,175,75
2026-05-09 17:12:03.903,1,0.71,-0.39,1.24,73.32220000000001,105.17439999999999,-52.090599999999995,175,75
2026-05-09 17:12:03.916,1,0.77,-0.14,1.39,71.9722,140.6044,-55.75059999999999,175,75
2026-05-09 17:12:03.923,1,0.97,0.23,1.49,52.2222,118.89439999999999,-39.4706,175,75
2026-05-09 17:12:03.931,1,0.73,0.49,1.56,4.902200000000001,105.6644,-31.550599999999996,175,75
2026-05-09 17:12:03.944,1,0.12,-0.01,1.59,-93.6378,78.28439999999999,31.629399999999997,175,75
2026-05-09 17:12:03.989,1,-1.04,-0.67,0.12,-260.7678,133.7044,125.4094,175,75
2026-05-09 17:12:03.999,1,-0.48,-1.16,0.27,-258.93780000000004,188.5844,141.8094,175,75
2026-05-09 17:12:04.024,1,0.39,-0.79,1.36,-239.42780000000002,173.46439999999998,137.1694,175,75
2026-05-09 17:12:04.058,1,0.51,0.38,1.53,-237.71779999999998,17.0044,117.71940000000001,175,75
2026-05-09 17:12:04.104,1,0.66,1.27,1.69,-139.84779999999998,-9.6456,82.5994,175,75
2026-05-09 17:12:04.127,1,0.65,1.53,1.76,-76.49780000000001,-10.3156,51.6894,175,75
2026-05-09 17:12:04.142,1,0.6,1.6,1.65,-46.7378,-1.7756000000000007,34.2494,175,75
2026-05-09 17:12:04.156,1,0.61,1.73,1.5,-7.227800000000002,23.524400000000004,12.3594,175,75
2026-05-09 17:12:04.156,1,0.63,1.85,1.44,24.1122,44.31439999999999,-4.1106,175,75
2026-05-09 17:12:04.193,1,0.66,2.14,1.34,95.4522,77.2444,-29.590599999999995,175,75
2026-05-09 17:12:04.207,1,0.71,1.79,1.16,113.19220000000001,16.634400000000003,-36.1806,175,75
2026-05-09 17:12:04.218,1,0.66,1.76,0.97,108.56219999999999,-44.8856,-36.120599999999996,175,75
2026-05-09 17:12:04.230,1,0.5,1.75,0.72,105.57220000000001,-81.5356,-40.3906,175,75
2026-05-09 17:12:04.230,1,0.3,1.65,0.44,105.94220000000001,-113.79560000000001,-52.4006,175,75
2026-05-09 17:12:04.243,1,0.16,1.68,0.33,103.2622,-115.1956,-60.0206,175,75
2026-05-09 17:12:04.280,1,0.47,1.89,1.49,162.5822,-119.3956,-72.7006,175,75
2026-05-09 17:12:04.280,1,0.53,1.64,1.56,196.3022,-153.1156,-106.00059999999999,175,75
2026-05-09 17:12:04.305,1,-4.05,2.14,-0.17,176.7922,-449.2156,-168.8006,175,75
2026-05-09 17:12:04.305,1,-13.69,-1.15,-9.45,301.24219999999997,-884.1556,-464.66060000000004,175,75
2026-05-09 17:12:04.315,1,7.63,-9.57,-4.03,283.5022,-515.2556,258.44939999999997,175,75
2026-05-09 17:12:04.325,1,-0.22,-2.4,4.75,509.7222,836.4544,-133.3706,175,75
2026-05-09 17:12:04.337,1,-0.17,-0.12,3.81,140.0822,879.4444,-234.2906,175,75
2026-05-09 17:12:04.348,1,2.16,-3.27,4.15,-17.717799999999997,190.1744,-121.6106,175,75
2026-05-09 17:12:04.360,1,-0.52,-4.95,4.16,115.0822,-150.8656,-135.6906,175,75
2026-05-09 17:12:04.376,1,2.11,-2.51,0.81,191.3622,-193.6656,-66.8506,175,75
2026-05-09 17:12:04.387,1,1.26,-1.3,-0.79,66.0022,88.8344,52.9694,175,75
2026-05-09 17:12:04.412,1,0.24,-0.8,0.8,214.72220000000002,300.3544,-224.5906,175,75
2026-05-09 17:12:04.412,1,0.89,1.42,1.75,154.8422,170.4744,-64.4106,175,75
2026-05-09 17:12:04.433,1,-0.62,1.05,1.16,86.9122,-53.185599999999994,-86.3006,175,75
2026-05-09 17:12:04.458,1,-0.48,0.01,-0.38,-175.0378,-27.4456,79.7394,175,75
2026-05-09 17:12:04.470,1,-0.62,0.05,0.16,-243.8178,-60.685599999999994,136.1994,175,75
2026-05-09 17:12:04.482,1,-1.17,-0.36,-0.45,-377.2278,-117.3856,185.7094,175,75
2026-05-09 17:12:04.492,1,-1.17,-1.02,-0.39,-431.19780000000003,-6.6556,215.2194,175,75
2026-05-09 17:12:04.509,1,-0.9,-1.81,0.16,-431.80780000000004,68.03439999999999,237.8394,175,75
2026-05-09 17:12:04.533,1,-0.44,-1.65,0.99,-417.5978,82.1844,245.5294,175,75
2026-05-09 17:12:04.554,1,0.07,-0.72,1.53,-427.7778,100.6044,250.1594,175,75
2026-05-09 17:12:04.566,1,0.38,-0.3,1.69,-411.43780000000004,43.64439999999999,247.8394,175,75
2026-05-09 17:12:04.578,1,0.39,-0.09,1.59,-399.4878,17.9744,245.7094,175,75
2026-05-09 17:12:04.589,1,0.35,0.03,1.48,-391.9878,12.6144,241.1394,175,75
2026-05-09 17:12:04.602,1,0.32,0.09,1.44,-388.81780000000003,14.134400000000003,239.5494,175,75
2026-05-09 17:12:04.614,1,0.32,0.05,1.47,-386.55780000000004,21.694399999999998,236.1994,175,75
2026-05-09 17:12:04.645,1,0.7,-0.33,2.02,-366.49780000000004,10.784400000000002,237.0494,175,75
2026-05-09 17:12:04.672,1,1.23,-0.71,2.55,-321.9878,13.644400000000001,234.1294,175,75
2026-05-09 17:12:04.672,1,1.54,-0.72,2.89,-288.3278,35.784400000000005,224.2494,175,75
2026-05-09 17:12:04.704,1,2.28,0.25,3.82,-179.7278,28.704400000000003,179.42940000000002,175,75
2026-05-09 17:12:04.739,1,2.69,0.99,3.85,57.5222,-55.6156,-62.580600000000004,175,75
2026-05-09 17:12:04.767,1,1.72,-0.95,3.24,390.88219999999995,-97.32560000000001,-324.59060000000005,175,75
2026-05-09 17:12:04.784,1,1.24,-1.25,2.91,384.6622,-140.3156,-354.66060000000004,175,75
2026-05-09 17:12:04.797,1,0.96,-1.33,2.41,388.93219999999997,-167.75560000000002,-388.2506,175,75
2026-05-09 17:12:04.797,1,0.68,-1.49,1.83,444.7222,-189.2756,-414.53060000000005,175,75
2026-05-09 17:12:04.807,1,0.32,-1.99,1.46,490.4522,-172.50560000000002,-454.72060000000005,175,75
2026-05-09 17:12:04.821,1,0.13,-2.58,1.19,512.7722,-113.60560000000001,-495.7506,175,75
2026-05-09 17:12:04.837,1,-0.05,-2.89,0.91,530.0222,-50.495599999999996,-502.8306,175,75
2026-05-09 17:12:04.847,1,-0.28,-3.03,0.75,558.8622,34.1344,-492.4606,175,75
2026-05-09 17:12:04.859,1,-0.35,-3.21,0.73,597.4621999999999,106.8844,-472.5806,175,75
2026-05-09 17:12:04.876,1,-0.47,-3.62,0.68,621.6722,153.46439999999998,-449.84060000000005,175,75
2026-05-09 17:12:04.889,1,-0.31,-3.97,0.57,628.5622,187.24439999999998,-413.1906,175,75
2026-05-09 17:12:04.889,1,-0.02,-4.31,0.71,652.1021999999999,194.1344,-365.6906,175,75
2026-05-09 17:12:04.901,1,0.38,-4.61,1.23,687.3421999999999,134.5644,-315.6906,175,75
2026-05-09 17:12:04.927,1,0.25,-5.59,1.34,695.3922,-21.9656,-289.23060000000004,175,75
2026-05-09 17:12:04.952,1,-0.04,-5.87,1.33,591.6722,-113.54560000000001,-252.22060000000002,175,75
2026-05-09 17:12:04.975,1,0.03,-5.45,1.19,523.8022,-148.97560000000001,-249.2906,175,75
2026-05-09 17:12:05.004,1,-0.55,-2.75,0.62,309.5422,-317.0256,-208.5606,175,75
2026-05-09 17:12:05.004,1,-0.59,-1.95,0.35,267.3422,-305.80559999999997,-178.7406,175,75
2026-05-09 17:12:05.026,1,-1.0,-0.58,0.18,138.3222,-165.6156,-123.5606,175,75
2026-05-09 17:12:05.053,1,-0.45,0.45,0.18,20.9422,32.004400000000004,-37.5206,175,75
2026-05-09 17:12:05.094,1,-0.02,1.02,0.96,1.1822000000000017,102.0044,-3.6205999999999996,175,75
2026-05-09 17:12:05.126,1,-0.04,1.16,1.08,1.492200000000004,58.8344,-3.1906,175,75
2026-05-09 17:12:05.137,1,0.02,1.18,0.67,-9.547800000000002,-18.8556,5.4094,175,75
2026-05-09 17:12:05.152,1,-0.07,1.12,0.47,-18.6978,-22.2656,9.1294,175,75
2026-05-09 17:12:05.164,1,-0.13,1.12,0.49,-27.837799999999994,-14.7056,16.3794,175,75
2026-05-09 17:12:05.174,1,-0.12,1.07,0.77,-50.0378,-8.795599999999999,40.8294,175,75
2026-05-09 17:12:05.185,1,-0.09,1.08,0.82,-62.16779999999999,-13.1156,49.6094,175,75
2026-05-09 17:12:05.202,1,-0.05,1.09,0.83,-69.7278,-11.105599999999999,56.7494,175,75
2026-05-09 17:12:05.202,1,-0.03,1.1,0.84,-75.21780000000001,-4.1556,62.7794,175,75
2026-05-09 17:12:05.229,1,0.04,1.06,0.93,-85.27779999999998,18.704400000000003,81.8694,175,75
2026-05-09 17:12:05.241,1,0.09,1.0,0.98,-89.84779999999998,27.674400000000002,89.1294,175,75
2026-05-09 17:12:05.241,1,0.11,0.95,1.03,-94.5478,40.534400000000005,98.5194,175,75
2026-05-09 17:12:05.251,1,0.19,0.88,1.05,-100.21779999999998,48.89439999999999,103.8194,175,75
2026-05-09 17:12:05.264,1,0.22,0.8,1.09,-104.11779999999999,55.294399999999996,105.8294,175,75
2026-05-09 17:12:05.274,1,0.33,0.71,1.16,-108.5078,64.3844,107.1694,175,75
2026-05-09 17:12:05.287,1,0.42,0.65,1.2,-115.21779999999998,66.20439999999999,103.5194,175,75
2026-05-09 17:12:05.307,1,0.43,0.63,1.26,-121.86779999999999,69.8044,104.7394,175,75
2026-05-09 17:12:05.307,1,0.49,0.54,1.32,-131.2578,72.5544,109.3694,175,75
2026-05-09 17:12:05.319,1,0.42,0.47,1.36,-142.65779999999998,70.6644,117.2994,175,75
2026-05-09 17:12:05.332,1,0.37,0.36,1.39,-154.9778,70.6044,128.2094,175,75
2026-05-09 17:12:05.348,1,0.4,-0.21,1.42,-180.8878,46.0244,143.0294,175,75
2026-05-09 17:12:05.381,1,0.25,-0.87,1.33,-216.61780000000002,50.6644,154.8594,175,75
2026-05-09 17:12:05.395,1,0.22,-0.86,1.44,-212.2278,67.8544,164.6094,175,75
2026-05-09 17:12:05.395,1,0.16,-0.7,1.56,-206.2578,70.4744,174.3694,175,75
2026-05-09 17:12:05.408,1,0.09,-0.66,1.59,-207.71779999999998,68.1644,182.8394,175,75
2026-05-09 17:12:05.419,1,0.05,-0.67,1.51,-213.02779999999998,55.53439999999999,185.8294,175,75
2026-05-09 17:12:05.430,1,0.07,-0.59,1.46,-211.1378,50.6044,189.1294,175,75
2026-05-09 17:12:05.449,1,0.01,-0.46,1.41,-206.0678,50.904399999999995,189.42940000000002,175,75
2026-05-09 17:12:05.449,1,-0.05,-0.34,1.43,-199.7278,55.1144,191.8094,175,75
2026-05-09 17:12:05.470,1,-0.13,-0.21,1.47,-187.8378,52.42439999999999,195.2794,175,75
2026-05-09 17:12:05.499,1,-0.03,0.59,1.42,-144.0578,16.7544,207.5394,175,75
2026-05-09 17:12:05.512,1,0.35,0.91,1.44,-120.15779999999998,12.304399999999998,200.2194,175,75
2026-05-09 17:12:05.517,1,-2.51,1.62,0.94,-105.21779999999998,-77.0856,208.2694,175,75
2026-05-09 17:12:05.541,1,-0.48,-2.15,0.7,-156.5578,-68.6656,53.9394,175,75
2026-05-09 17:12:05.553,1,0.51,-0.45,0.24,-22.107799999999997,246.9444,35.3394,175,75
2026-05-09 17:12:05.567,1,0.12,-1.67,1.51,-10.9478,12.124399999999998,52.3594,175,75
2026-05-09 17:12:05.582,1,-0.38,-1.52,1.76,-42.2878,4.924400000000002,14.1294,175,75
2026-05-09 17:12:05.607,1,-0.08,-1.55,0.87,-89.6078,6.2744,63.2094,175,75
2026-05-09 17:12:05.618,1,0.11,0.01,0.39,-111.80779999999999,40.0544,74.7394,175,75
2026-05-09 17:12:05.631,1,-0.09,0.91,0.48,-79.7878,14.384400000000003,54.3694,175,75
2026-05-09 17:12:05.659,1,-0.23,0.54,0.93,-63.507799999999996,27.1844,46.4394,175,75
2026-05-09 17:12:05.659,1,-0.37,0.2,0.94,-64.8478,27.554399999999998,30.409399999999998,175,75
2026-05-09 17:12:05.685,1,-0.42,0.15,0.87,-63.997800000000005,34.564400000000006,17.4194,175,75
2026-05-09 17:12:05.685,1,-0.39,0.23,0.77,-57.107800000000005,38.34440000000001,4.1293999999999995,175,75
2026-05-09 17:12:05.709,1,-0.08,-0.14,0.51,-36.7378,22.554399999999998,-27.830599999999997,175,75
2026-05-09 17:12:05.717,1,-0.04,-0.44,0.47,-28.027799999999992,7.974399999999999,-38.980599999999995,175,75
2026-05-09 17:12:05.747,1,0.26,-1.44,0.77,41.492200000000004,-12.025599999999999,-42.7606,175,75
2026-05-09 17:12:05.756,1,0.47,-1.79,1.19,61.852199999999996,-13.305599999999998,-21.610599999999998,175,75
2026-05-09 17:12:05.788,1,1.12,-0.9,2.68,42.7122,67.6144,-73.0706,175,75
2026-05-09 17:12:05.811,1,0.46,-0.16,2.31,-16.437799999999996,-7.445599999999999,-40.4506,175,75
2026-05-09 17:12:05.821,1,0.08,-0.44,1.17,-104.5478,-64.0956,23.9994,175,75
2026-05-09 17:12:05.832,1,-0.67,-0.01,1.09,-216.67780000000002,-59.095600000000005,89.7394,175,75
2026-05-09 17:12:05.842,1,0.49,0.46,1.84,-238.5678,-29.4656,129.4294,175,75
2026-05-09 17:12:05.871,1,1.01,-1.3,1.59,-334.30780000000004,-64.9456,175.2794,175,75
2026-05-09 17:12:05.871,1,0.95,-1.38,1.89,-330.8278,-5.615599999999999,178.0894,175,75
2026-05-09 17:12:05.883,1,1.08,-1.47,1.64,-330.2778,16.1444,176.92940000000002,175,75
2026-05-09 17:12:05.896,1,0.77,-1.18,1.45,-296.9878,136.9444,172.9694,175,75
2026-05-09 17:12:05.917,1,0.76,-0.89,2.22,-226.0078,276.5144,156.92940000000002,175,75
2026-05-09 17:12:05.928,1,0.82,-0.76,2.55,-201.6178,274.44440000000003,146.4994,175,75
2026-05-09 17:12:05.946,1,0.87,-0.68,2.79,-172.4178,237.2444,130.52939999999998,175,75
2026-05-09 17:12:05.946,1,0.92,-0.68,2.79,-145.6478,175.9044,110.1594,175,75
2026-05-09 17:12:05.963,1,0.69,-0.63,2.58,-110.09779999999998,113.2244,80.9494,175,75
2026-05-09 17:12:05.977,1,0.55,-0.39,2.27,-57.0478,58.4644,42.2394,175,75
2026-05-09 17:12:06.007,1,0.57,0.93,1.66,132.0422,29.134400000000003,-56.120599999999996,175,75
2026-05-09 17:12:06.020,1,0.45,1.18,1.57,206.1822,5.6644000000000005,-117.89059999999999,175,75
2026-05-09 17:12:06.040,1,0.4,0.96,1.45,309.05219999999997,4.994400000000002,-187.8306,175,75
2026-05-09 17:12:06.041,1,0.41,0.66,1.41,361.30219999999997,-14.275599999999999,-207.0306,175,75
2026-05-09 17:12:06.055,1,0.36,0.39,1.33,410.82219999999995,-30.4956,-227.0306,175,75
2026-05-09 17:12:06.069,1,0.29,0.35,1.28,441.6122,-36.715599999999995,-235.2606,175,75
2026-05-09 17:12:06.080,1,0.21,0.26,1.23,482.2222,-35.8656,-248.1306,175,75
2026-05-09 17:12:06.091,1,0.15,0.07,1.08,516.7922,-62.6356,-248.5006,175,75
2026-05-09 17:12:06.129,1,-0.7,-0.8,0.47,470.94219999999996,-290.80559999999997,-258.1306,175,75
2026-05-09 17:12:06.141,1,-1.26,-0.62,-0.16,426.49219999999997,-296.5356,-264.53060000000005,175,75
2026-05-09 17:12:06.166,1,-1.71,-0.58,-0.57,386.55219999999997,-282.87559999999996,-255.6906,175,75
2026-05-09 17:12:06.177,1,-2.39,-0.74,-1.23,319.4722,-278.9156,-229.3506,175,75
2026-05-09 17:12:06.189,1,-2.97,-0.75,-2.04,260.8222,-265.31559999999996,-189.6606,175,75
2026-05-09 17:12:06.243,1,-5.85,-0.31,-4.58,-115.64779999999999,231.2044,207.5394,175,75
2026-05-09 17:12:06.254,1,3.31,-4.47,4.51,-87.2878,402.42440000000005,239.9194,175,75
2026-05-09 17:12:06.266,1,-1.44,0.28,1.89,-407.7778,-267.0256,224.9794,175,75
2026-05-09 17:12:06.287,1,-0.39,0.03,0.23,-233.9978,-114.7056,143.9994,175,75
2026-05-09 17:12:06.299,1,-0.25,-0.13,0.08,-183.99779999999998,37.3044,157.9094,175,75
2026-05-09 17:12:06.310,1,-0.13,0.38,0.7,-138.5078,12.6144,117.6594,175,75
2026-05-09 17:12:06.322,1,-0.11,0.08,0.62,-110.9478,9.8644,91.9294,175,75
2026-05-09 17:12:06.357,1,-0.1,-0.72,1.12,-34.7878,18.954400000000003,33.8194,175,75
2026-05-09 17:12:06.388,1,0.31,-1.47,1.2,-28.447799999999994,49.504400000000004,-13.1306,175,75
2026-05-09 17:12:06.421,1,0.79,-1.68,2.05,-32.227799999999995,39.3844,12.0494,175,75
2026-05-09 17:12:06.434,1,1.34,-1.52,2.04,-66.49780000000001,63.1644,2.7794,175,75
2026-05-09 17:12:06.445,1,1.45,-1.0,2.31,-42.107800000000005,114.3844,3.7594000000000003,175,75
2026-05-09 17:12:06.452,1,1.44,-0.43,2.83,-41.7378,157.5544,2.8494,175,75
2026-05-09 17:12:06.463,1,1.0,-0.26,2.95,-85.39779999999999,85.7244,30.8294,175,75
2026-05-09 17:12:06.473,1,0.39,-0.33,2.13,-173.5678,12.6144,73.7594,175,75
2026-05-09 17:12:06.473,1,-0.79,-0.4,1.38,-258.75780000000003,-43.1156,121.9294,175,75
2026-05-09 17:12:06.501,1,-0.35,-0.94,0.99,-315.2178,10.2344,205.2794,175,75
2026-05-09 17:12:06.512,1,0.88,-1.26,1.72,-276.7378,105.3544,177.7194,175,75
2026-05-09 17:12:06.538,1,1.21,-0.15,2.61,-216.4978,158.8344,153.5794,175,75
2026-05-09 17:12:06.550,1,1.1,0.2,2.63,-169.84779999999998,174.4444,145.0394,175,75
2026-05-09 17:12:06.550,1,1.08,0.04,2.87,-123.99779999999998,156.6344,128.3294,175,75
2026-05-09 17:12:06.572,1,1.11,-0.02,2.98,-84.17779999999999,123.83439999999999,104.7394,175,75
2026-05-09 17:12:06.583,1,1.15,-0.01,2.97,-59.8478,100.78439999999999,90.9494,175,75
2026-05-09 17:12:06.598,1,1.17,0.08,2.87,-28.447799999999994,78.1644,75.0394,175,75
2026-05-09 17:12:06.609,1,1.1,0.18,2.67,12.1022,59.1944,53.1494,175,75
2026-05-09 17:12:06.621,1,0.93,0.27,2.52,54.3522,40.784400000000005,20.159399999999998,175,75
2026-05-09 17:12:06.633,1,0.85,0.35,2.3,97.7722,14.134400000000003,-22.580599999999997,175,75
2026-05-09 17:12:06.633,1,0.84,0.49,2.08,140.5722,-5.1356,-60.5106,175,75
2026-05-09 17:12:06.644,1,0.89,0.56,1.92,180.3922,-16.4756,-98.0706,175,75
2026-05-09 17:12:06.669,1,0.88,0.63,1.78,225.2122,-27.5756,-130.7506,175,75
2026-05-09 17:12:06.676,1,0.81,0.68,1.64,266.0022,-39.6456,-163.1306,175,75
2026-05-09 17:12:06.704,1,0.58,0.17,1.33,367.5222,-61.8356,-260.9406,175,75
2026-05-09 17:12:06.731,1,0.06,-0.27,1.11,414.4122,-121.5356,-286.67060000000004,175,75
2026-05-09 17:12:06.740,1,-0.43,-0.19,0.84,400.94219999999996,-183.1156,-273.92060000000004,175,75
2026-05-09 17:12:06.753,1,-0.99,-0.52,0.58,373.32219999999995,-271.6556,-259.9606,175,75
2026-05-09 17:12:06.761,1,-1.16,-0.78,0.17,326.00219999999996,-334.0356,-246.2406,175,75
2026-05-09 17:12:06.775,1,-1.65,-0.93,-0.47,264.9622,-378.7956,-234.8406,175,75
2026-05-09 17:12:06.790,1,-2.81,-0.57,-1.59,176.4322,-307.1456,-180.3906,175,75
2026-05-09 17:12:06.831,1,-5.91,0.41,-1.3,147.4022,58.7744,37.5994,175,75
2026-05-09 17:12:06.831,1,-5.82,-1.04,-3.1,13.862200000000001,-148.4856,197.5994,175,75
2026-05-09 17:12:06.855,1,5.78,-4.61,0.5,35.9422,490.23440000000005,316.8694,175,75
2026-05-09 17:12:06.897,1,1.58,-0.9,2.07,-225.52779999999998,-49.0356,159.6094,175,75
2026-05-09 17:12:06.919,1,-0.19,0.93,-0.5,-213.0878,-106.2256,153.9394,175,75
2026-05-09 17:12:06.930,1,-0.44,0.7,-0.25,-124.7878,4.744400000000002,93.6394,175,75
2026-05-09 17:12:06.944,1,-0.07,-0.3,0.67,-52.41779999999999,24.5044,68.0894,175,75
2026-05-09 17:12:06.956,1,-0.09,-0.6,0.8,-20.397799999999997,13.404399999999999,25.4694,175,75
2026-05-09 17:12:06.969,1,0.0,-0.73,0.64,14.3522,28.0344,3.7594000000000003,175,75
2026-05-09 17:12:06.980,1,0.28,-1.09,0.83,61.672200000000004,43.89439999999999,-11.550600000000001,175,75
2026-05-09 17:12:07.000,1,0.53,-1.35,1.12,92.4622,59.3844,-22.2806,175,75
2026-05-09 17:12:07.010,1,0.84,-1.57,1.53,93.32220000000001,80.6644,-23.1306,175,75
2026-05-09 17:12:07.016,1,0.96,-2.14,1.8,64.1122,102.42439999999999,-35.0806,175,75
2026-05-09 17:12:07.049,1,1.52,-0.01,2.26,108.50219999999999,98.95439999999999,-75.5706,175,75
2026-05-09 17:12:07.049,1,-0.51,0.5,1.11,7.5822,-24.825599999999998,-51.910599999999995,175,75
2026-05-09 17:12:07.070,1,-1.93,-0.02,-0.34,-147.9578,0.6044000000000018,74.1894,175,75
2026-05-09 17:12:07.083,1,-2.0,0.02,-0.72,-224.97779999999997,105.6644,126.49940000000001,175,75
2026-05-09 17:12:07.120,1,-0.24,-1.53,1.36,-378.50780000000003,147.7944,250.2794,175,75
2026-05-09 17:12:07.131,1,-0.77,-1.75,0.85,-390.94780000000003,173.1644,259.1894,175,75
2026-05-09 17:12:07.146,1,-0.21,-1.78,1.44,-381.31780000000003,206.3944,264.9794,175,75
2026-05-09 17:12:07.180,1,0.28,-0.76,1.81,-393.1478,202.3644,245.6494,175,75
2026-05-09 17:12:07.200,1,0.49,-0.49,1.96,-378.87780000000004,159.6244,233.4494,175,75
2026-05-09 17:12:07.211,1,0.59,-0.31,2.03,-372.8978,124.68440000000001,227.4194,175,75
2026-05-09 17:12:07.237,1,0.75,-0.07,2.18,-369.9178,104.4444,218.6394,175,75
2026-05-09 17:12:07.237,1,0.91,0.09,2.49,-358.0878,87.3044,214.7994,175,75
2026-05-09 17:12:07.248,1,1.14,0.15,2.92,-338.2078,48.34439999999999,204.5494,175,75
2026-05-09 17:12:07.259,1,1.27,0.16,3.12,-325.0378,14.134400000000003,192.4194,175,75
2026-05-09 17:12:07.270,1,1.41,0.15,3.2,-303.2078,-15.7456,174.7994,175,75
2026-05-09 17:12:07.270,1,1.51,0.08,3.28,-265.1578,-28.7956,145.9494,175,75
2026-05-09 17:12:07.282,1,1.52,0.0,3.35,-234.42780000000002,-21.1056,124.9194,175,75
2026-05-09 17:12:07.293,1,1.55,-0.06,3.52,-185.7678,-3.9155999999999977,94.7394,175,75
2026-05-09 17:12:07.304,1,1.57,-0.07,3.7,-126.1378,-6.0455999999999985,65.6494,175,75
2026-05-09 17:12:07.338,1,1.38,0.13,3.33,17.892200000000003,-52.3856,-30.5706,175,75
2026-05-09 17:12:07.348,1,1.24,0.44,3.01,106.4922,-88.2456,-109.3506,175,75
2026-05-09 17:12:07.359,1,1.02,0.56,2.78,194.1122,-109.2756,-211.0606,175,75
2026-05-09 17:12:07.374,1,0.94,0.11,2.64,298.68219999999997,-123.85560000000001,-310.2006,175,75
2026-05-09 17:12:07.384,1,0.39,-0.85,2.15,381.8522,-166.4156,-396.42060000000004,175,75
2026-05-09 17:12:07.397,1,0.06,-1.1,1.62,426.6122,-148.2456,-431.30060000000003,175,75
2026-05-09 17:12:07.397,1,-0.01,-1.68,1.41,492.2822,-110.43560000000001,-467.40060000000005,175,75
2026-05-09 17:12:07.418,1,-0.26,-2.34,0.97,548.6822,-68.1856,-495.5706,175,75
2026-05-09 17:12:07.431,1,-0.59,-2.67,0.45,577.8922,-7.935599999999999,-494.29060000000004,175,75
2026-05-09 17:12:07.454,1,-0.3,-2.65,0.57,686.4922,112.18440000000001,-434.84060000000005,175,75
2026-05-09 17:12:07.465,1,-0.44,-2.93,0.33,716.7322,191.5744,-400.5106,175,75
2026-05-09 17:12:07.479,1,-0.38,-3.13,0.54,754.5422,255.66439999999997,-353.0106,175,75
2026-05-09 17:12:07.479,1,-0.24,-3.61,1.26,792.1021999999999,248.77439999999999,-281.79060000000004,175,75
2026-05-09 17:12:07.492,1,-0.06,-4.82,1.94,795.6922,161.3944,-220.7506,175,75
2026-05-09 17:12:07.512,1,0.22,-5.89,1.61,799.5422,43.89439999999999,-188.0106,175,75
2026-05-09 17:12:07.512,1,-0.45,-6.81,0.87,763.7422,-68.4256,-157.4606,175,75
2026-05-09 17:12:07.524,1,-0.4,-6.66,0.72,719.1122,-83.9156,-139.2306,175,75
2026-05-09 17:12:07.552,1,-0.29,-6.28,1.14,669.6622,-70.0756,-118.50059999999999,175,75
2026-05-09 17:12:07.563,1,0.17,-5.49,1.87,573.8022,-175.3156,-108.0706,175,75
2026-05-09 17:12:07.575,1,0.52,-4.39,1.4,465.63219999999995,-358.9156,-121.3606,175,75
2026-05-09 17:12:07.581,1,-0.27,-3.43,0.68,370.63219999999995,-473.4256,-134.4106,175,75
2026-05-09 17:12:07.593,1,-0.99,-2.41,0.31,309.7822,-468.9156,-158.9206,175,75
2026-05-09 17:12:07.605,1,-1.46,-1.79,-0.7,245.8222,-423.05559999999997,-172.1606,175,75
2026-05-09 17:12:07.612,1,-1.78,-1.04,-1.98,170.5122,-329.3356,-106.0606,175,75
2026-05-09 17:12:07.626,1,-1.44,0.39,-2.27,153.5622,-129.94559999999998,-83.1906,175,75
2026-05-09 17:12:07.634,1,-0.72,1.05,-0.98,57.8922,128.46439999999998,-29.5306,175,75
2026-05-09 17:12:07.658,1,-0.6,0.78,0.13,-58.757799999999996,248.9544,-1.4806000000000008,175,75
2026-05-09 17:12:07.687,1,0.21,0.4,2.0,-84.6678,-43.9156,32.5394,175,75
2026-05-09 17:12:07.700,1,0.46,1.22,1.97,-90.09779999999998,-147.8156,32.4194,175,75
2026-05-09 17:12:07.711,1,0.45,1.33,1.22,-55.337799999999994,-249.5256,5.0394,175,75
2026-05-09 17:12:07.722,1,0.09,1.3,0.46,-25.947799999999994,-286.7756,-24.050599999999996,175,75
2026-05-09 17:12:07.748,1,-0.43,1.05,0.22,3.9322000000000017,-132.5756,-16.610599999999998,175,75
2026-05-09 17:12:07.760,1,-0.29,1.14,0.49,8.6222,-98.6656,-10.260599999999998,175,75
2026-05-09 17:12:07.760,1,-0.25,1.14,0.55,10.212200000000003,-81.3556,-8.0706,175,75
2026-05-09 17:12:07.770,1,-0.24,1.08,0.49,3.6221999999999994,-32.1456,-2.7606,175,75
2026-05-09 17:12:07.797,1,-0.29,1.04,0.71,-19.727800000000002,63.5244,16.5594,175,75
2026-05-09 17:12:07.809,1,-0.25,1.03,0.9,-33.507799999999996,88.1044,32.5394,175,75
2026-05-09 17:12:07.820,1,-0.17,1.0,1.02,-46.257799999999996,89.8044,46.6894,175,75
2026-05-09 17:12:07.850,1,0.09,0.87,1.01,-80.21780000000001,73.4044,72.1694,175,75
2026-05-09 17:12:07.887,1,0.36,0.64,1.05,-128.8178,46.0244,99.24940000000001,175,75
2026-05-09 17:12:07.898,1,0.4,0.54,1.05,-136.1378,46.45439999999999,100.6494,175,75
2026-05-09 17:12:07.909,1,0.34,0.47,1.1,-145.5878,49.254400000000004,106.8694,175,75
2026-05-09 17:12:07.922,1,0.32,0.32,1.16,-156.7378,58.28439999999999,109.1294,175,75
2026-05-09 17:12:07.933,1,0.23,0.12,1.26,-167.65779999999998,63.5844,107.71940000000001,175,75
2026-05-09 17:12:07.944,1,0.19,-0.13,1.37,-171.1378,78.28439999999999,115.0394,175,75
2026-05-09 17:12:07.957,1,0.27,-0.59,1.39,-176.43779999999998,60.6644,118.0894,175,75
2026-05-09 17:12:07.967,1,0.01,-1.08,1.26,-193.02779999999998,47.4944,129.30939999999998,175,75
2026-05-09 17:12:07.978,1,0.02,-1.15,1.13,-208.6978,54.624399999999994,141.0194,175,75
2026-05-09 17:12:07.989,1,0.05,-0.59,1.14,-200.3978,70.6044,142.6594,175,75
2026-05-09 17:12:08.032,1,-0.06,-1.16,1.24,-209.0578,36.514399999999995,154.5494,175,75
2026-05-09 17:12:08.043,1,-0.04,-1.06,1.1,-208.87779999999998,27.9744,160.5894,175,75
2026-05-09 17:12:08.053,1,-0.02,-0.79,1.21,-195.6478,28.524400000000004,163.9994,175,75
2026-05-09 17:12:08.057,1,0.05,-0.53,1.46,-180.9478,4.804400000000001,168.0894,175,75
2026-05-09 17:12:08.066,1,0.22,-0.37,1.65,-168.99779999999998,-26.2956,168.8194,175,75
2026-05-09 17:12:08.078,1,0.53,-0.07,1.76,-157.5378,-64.6456,162.5394,175,75
2026-05-09 17:12:08.088,1,0.93,0.26,1.71,-149.6678,-85.2556,152.9094,175,75
2026-05-09 17:12:08.111,1,-1.69,1.26,1.44,-114.5478,-78.4256,181.2594,175,75
2026-05-09 17:12:08.122,1,7.81,-0.7,5.22,-62.107800000000005,-100.5556,206.6294,175,75
2026-05-09 17:12:08.122,1,0.28,-0.69,4.96,-158.5078,-154.0956,-39.590599999999995,175,75
2026-05-09 17:12:08.132,1,-2.75,-1.1,3.34,79.4122,-109.7656,53.1494,175,75
2026-05-09 17:12:08.143,1,0.32,-5.4,3.28,-33.637800000000006,0.5344000000000015,142.9694,175,75
2026-05-09 17:12:08.170,1,0.27,0.72,-1.6,-195.3978,-196.9656,46.9894,175,75
2026-05-09 17:12:08.180,1,-0.43,0.92,0.1,-25.037799999999997,62.67439999999999,92.4794,175,75
2026-05-09 17:12:08.190,1,-0.28,0.76,1.54,11.4922,156.27439999999999,80.1594,175,75
2026-05-09 17:12:08.200,1,0.06,0.22,1.94,-55.52779999999999,8.104400000000002,53.879400000000004,175,75
2026-05-09 17:12:08.222,1,0.31,0.07,1.22,-86.86779999999999,-37.6956,44.5494,175,75
2026-05-09 17:12:08.252,1,-0.21,0.13,1.1,-15.5278,12.734399999999997,5.5893999999999995,175,75
2026-05-09 17:12:08.277,1,0.01,-0.21,0.82,3.9322000000000017,-8.605599999999999,-31.610599999999998,175,75
2026-05-09 17:12:08.291,1,-0.12,-0.18,0.77,23.9322,-1.5355999999999987,-46.2406,175,75
2026-05-09 17:12:08.291,1,0.1,-0.3,0.89,57.8922,8.7044,-51.6106,175,75
2026-05-09 17:12:08.315,1,0.31,-0.64,0.82,75.0822,2.2444000000000024,-66.6106,175,75
2026-05-09 17:12:08.346,1,0.64,-0.86,1.07,106.6722,29.384400000000003,-63.92059999999999,175,75
2026-05-09 17:12:08.413,1,0.11,0.38,1.08,-20.7678,16.454400000000003,-40.8106,175,75
2026-05-09 17:12:08.413,1,-0.74,0.19,0.46,-121.92779999999999,48.70439999999999,18.089399999999998,175,75
2026-05-09 17:12:08.436,1,-1.65,-0.11,0.52,-225.15779999999998,237.4944,130.8294,175,75
2026-05-09 17:12:08.448,1,-0.92,-0.71,0.85,-247.9578,249.92440000000002,154.4894,175,75
2026-05-09 17:12:08.459,1,-0.36,-1.02,1.3,-262.7178,241.7544,159.1294,175,75
2026-05-09 17:12:08.490,1,0.22,-1.12,1.53,-270.3978,204.3844,160.4094,175,75
2026-05-09 17:12:08.490,1,0.39,-0.76,1.58,-279.4878,157.9144,155.3394,175,75
2026-05-09 17:12:08.496,1,0.45,-0.38,1.45,-284.36780000000005,135.3544,150.7094,175,75
2026-05-09 17:12:08.510,1,0.49,-0.07,1.38,-283.81780000000003,128.1044,142.7194,175,75
2026-05-09 17:12:08.521,1,0.55,0.07,1.44,-279.42780000000005,118.58439999999999,134.36939999999998,175,75
2026-05-09 17:12:08.533,1,0.61,0.19,1.52,-267.8378,99.7444,124.1294,175,75
2026-05-09 17:12:08.533,1,0.65,0.33,1.57,-255.09779999999998,75.6044,116.0794,175,75
2026-05-09 17:12:08.544,1,0.63,0.47,1.6,-244.72779999999997,56.39439999999999,113.7594,175,75
2026-05-09 17:12:08.555,1,0.63,0.62,1.68,-229.66779999999997,26.204400000000003,107.7794,175,75
2026-05-09 17:12:08.580,1,0.61,0.78,1.65,-197.71779999999998,-12.695599999999999,79.4894,175,75
2026-05-09 17:12:08.590,1,0.56,0.94,1.64,-173.8178,-22.3856,61.379400000000004,175,75
2026-05-09 17:12:08.606,1,0.54,1.06,1.62,-147.8378,-27.4456,41.1994,175,75
2026-05-09 17:12:08.606,1,0.52,1.19,1.64,-120.33779999999999,-27.5056,21.3794,175,75
2026-05-09 17:12:08.617,1,0.5,1.43,1.67,-77.65780000000001,-11.8356,4.3694,175,75
2026-05-09 17:12:08.627,1,0.51,1.51,1.69,-42.77779999999999,7.554400000000001,-8.6806,175,75
2026-05-09 17:12:08.638,1,0.47,1.59,1.66,-6.067799999999998,20.2944,-29.900599999999997,175,75
2026-05-09 17:12:08.649,1,0.45,1.66,1.57,19.7222,31.1444,-52.340599999999995,175,75
2026-05-09 17:12:08.657,1,0.47,1.75,1.5,47.2222,42.734399999999994,-68.8006,175,75
2026-05-09 17:12:08.698,1,0.48,1.69,1.41,136.3622,28.954400000000003,-86.1206,175,75
2026-05-09 17:12:08.711,1,0.57,1.58,1.36,153.6222,-5.195599999999999,-88.25059999999999,175,75
2026-05-09 17:12:08.722,1,0.61,1.38,1.33,166.0622,-37.9356,-90.2006,175,75
2026-05-09 17:12:08.726,1,0.56,1.27,1.33,173.50220000000002,-86.7756,-97.0906,175,75
2026-05-09 17:12:08.743,1,0.51,1.23,1.36,178.1922,-126.7756,-99.7206,175,75
2026-05-09 17:12:08.765,1,0.24,1.01,1.39,194.5422,-205.6156,-120.1406,175,75
2026-05-09 17:12:08.769,1,0.19,0.84,1.33,203.3222,-228.97560000000001,-132.4006,175,75
2026-05-09 17:12:08.783,1,0.08,0.74,1.21,207.9522,-234.2156,-143.6206,175,75
2026-05-09 17:12:08.797,1,-0.01,0.64,1.07,215.2122,-230.4356,-158.4406,175,75
2026-05-09 17:12:08.807,1,0.06,0.44,1.01,236.4322,-213.1156,-177.4006,175,75
2026-05-09 17:12:08.818,1,-6.1,1.16,-0.68,185.8222,-477.0856,-168.1906,175,75
2026-05-09 17:12:08.829,1,-13.2,-0.48,-6.85,153.1922,-686.4156,-416.85060000000004,175,75
2026-05-09 17:12:08.855,1,-1.55,-0.77,5.2,142.7722,917.4943999999999,-95.8706,175,75
2026-05-09 17:12:08.866,1,1.92,1.85,2.52,-32.77779999999999,429.19440000000003,-10.810599999999999,175,75
2026-05-09 17:12:08.906,1,0.62,-0.39,0.58,-19.547800000000002,-47.6356,-4.2905999999999995,175,75
2026-05-09 17:12:08.906,1,0.37,0.02,0.14,-17.8378,-111.6556,0.40939999999999976,175,75
2026-05-09 17:12:08.914,1,0.37,-0.05,0.8,18.072200000000002,-20.1356,-21.6706,175,75
2026-05-09 17:12:08.925,1,-0.0,0.09,1.04,26.5522,-39.5256,-23.1306,175,75
2026-05-09 17:12:08.951,1,0.19,-0.18,1.35,36.492200000000004,-27.9356,-30.4506,175,75
2026-05-09 17:12:08.962,1,0.12,-0.28,1.1,37.1622,-25.1356,-38.8606,175,75
2026-05-09 17:12:08.984,1,0.23,-0.49,1.14,51.9122,0.054400000000001114,-50.2006,175,75
2026-05-09 17:12:08.997,1,0.27,-0.75,1.07,48.1322,5.174400000000002,-50.690599999999996,175,75
2026-05-09 17:12:09.007,1,0.28,-0.77,1.17,38.0122,36.3344,-41.730599999999995,175,75
2026-05-09 17:12:09.019,1,0.44,-0.61,1.31,21.8522,56.0844,-29.470599999999997,175,75
2026-05-09 17:12:09.045,1,0.43,-0.41,1.37,-2.957799999999999,67.1844,-18.2506,175,75
2026-05-09 17:12:09.045,1,0.56,-0.37,1.32,-19.177799999999998,83.2244,0.8894000000000002,175,75
2026-05-09 17:12:09.058,1,0.82,-0.23,1.36,-16.8078,83.28439999999999,8.5194,175,75
2026-05-09 17:12:09.068,1,0.74,-0.53,1.39,-8.8778,103.5844,-17.6406,175,75
2026-05-09 17:12:09.082,1,1.41,-0.67,1.76,-72.3478,122.49439999999998,-1.5505999999999993,175,75
2026-05-09 17:12:09.097,1,0.95,-0.46,1.62,-113.6378,118.58439999999999,1.8693999999999997,175,75
2026-05-09 17:12:09.097,1,-0.14,-0.31,1.5,-139.9178,144.6244,6.5594,175,75
2026-05-09 17:12:09.113,1,-1.13,-0.03,1.39,-189.7878,142.7944,45.4694,175,75
2026-05-09 17:12:09.124,1,-0.9,-0.51,1.23,-254.66779999999997,52.06439999999999,114.1894,175,75
2026-05-09 17:12:09.124,1,-0.8,-1.1,0.91,-305.8878,-31.5356,133.02939999999998,175,75
2026-05-09 17:12:09.148,1,-1.3,-1.16,0.21,-316.61780000000005,-7.0855999999999995,150.3394,175,75
2026-05-09 17:12:09.159,1,-0.15,-1.0,0.53,-284.05780000000004,52.3044,152.1694,175,75
2026-05-09 17:12:09.172,1,0.11,-0.63,1.0,-246.80780000000001,74.31439999999999,156.92940000000002,175,75
2026-05-09 17:12:09.181,1,0.25,-0.28,1.21,-243.3878,73.89439999999999,153.1494,175,75
2026-05-09 17:12:09.194,1,0.32,0.22,1.26,-248.9978,63.5244,146.2594,175,75
2026-05-09 17:12:09.194,1,0.32,0.59,1.18,-235.52779999999998,62.1844,131.2594,175,75
2026-05-09 17:12:09.212,1,0.39,0.78,1.26,-206.9878,73.28439999999999,115.1594,175,75
2026-05-09 17:12:09.227,1,0.56,0.98,1.48,-183.2078,72.9744,101.1394,175,75
2026-05-09 17:12:09.238,1,0.76,1.27,1.8,-160.15779999999998,51.39439999999999,81.9294,175,75
2026-05-09 17:12:09.263,1,1.19,1.97,2.3,-102.77779999999998,7.064399999999999,33.2094,175,75
2026-05-09 17:12:09.283,1,1.27,1.85,1.99,-19.787799999999997,4.8644,-37.1506,175,75
2026-05-09 17:12:09.293,1,1.24,1.82,1.88,14.7222,41.5744,-63.1906,175,75
2026-05-09 17:12:09.311,1,1.3,1.97,1.88,38.1922,57.6144,-86.6106,175,75
2026-05-09 17:12:09.327,1,1.32,2.04,1.76,77.4022,59.504400000000004,-115.4506,175,75
2026-05-09 17:12:09.345,1,1.04,2.1,1.34,120.88220000000001,28.2244,-153.6206,175,75
2026-05-09 17:12:09.367,1,1.04,1.86,1.44,139.5422,-27.9956,-155.0806,175,75
2026-05-09 17:12:09.382,1,0.94,1.72,1.3,137.4022,-90.7456,-163.7406,175,75
2026-05-09 17:12:09.403,1,0.67,1.66,0.99,131.3022,-145.13559999999998,-176.9106,175,75
2026-05-09 17:12:09.429,1,0.4,1.66,0.82,124.0522,-164.6456,-190.0206,175,75
2026-05-09 17:12:09.439,1,0.33,1.65,0.92,122.8922,-189.03560000000002,-198.6206,175,75
2026-05-09 17:12:09.457,1,-0.06,1.72,1.36,147.1622,-230.7456,-213.1906,175,75
2026-05-09 17:12:09.468,1,-2.8,1.45,-0.01,134.8422,-438.18559999999997,-215.0806,175,75
2026-05-09 17:12:09.493,1,-12.27,1.18,-6.46,134.4122,-700.6156000000001,-500.1406,175,75
2026-05-09 17:12:09.493,1,11.31,-14.88,-11.8,203.62220000000002,-1116.6556,-38.620599999999996,175,75
2026-05-09 17:12:09.504,1,1.79,-0.17,6.72,275.6922,1019.5644,164.8594,175,75
2026-05-09 17:12:09.513,1,0.33,-1.84,3.5,-64.7278,417.55440000000004,-215.0206,175,75
2026-05-09 17:12:09.525,1,1.69,-4.44,4.36,75.63220000000001,102.06439999999999,-91.4206,175,75
2026-05-09 17:12:09.535,1,2.99,-3.67,1.65,107.04220000000001,-351.7756,-19.290599999999998,175,75
2026-05-09 17:12:09.535,1,0.48,-2.46,-1.44,65.5122,-314.2756,27.1094,175,75
2026-05-09 17:12:09.546,1,2.35,-1.57,-2.2,38.8022,46.2744,52.4194,175,75
2026-05-09 17:12:09.557,1,1.44,-1.08,-0.26,193.2622,241.6344,-189.3506,175,75
2026-05-09 17:12:09.570,1,2.27,-0.04,1.66,197.65220000000002,238.34439999999998,-141.0606,175,75
2026-05-09 17:12:09.588,1,1.13,-0.14,2.46,87.8322,46.0844,-196.0006,175,75
2026-05-09 17:12:09.588,1,-0.49,-0.33,1.79,-13.817799999999998,-214.7656,-142.1606,175,75
2026-05-09 17:12:09.610,1,-2.57,-0.78,0.63,-97.83779999999999,-539.5256,-0.7506000000000004,175,75
2026-05-09 17:12:09.610,1,-1.95,0.22,-0.03,-214.3078,-658.5456,80.4094,175,75
2026-05-09 17:12:09.624,1,-0.18,1.21,-0.26,-287.4778,-506.8356,127.71940000000001,175,75
2026-05-09 17:12:09.638,1,-1.68,-0.17,-1.75,-459.42780000000005,-300.19559999999996,220.5894,175,75
2026-05-09 17:12:09.648,1,-1.25,-1.02,-0.97,-437.1078,-50.8656,232.8394,175,75
2026-05-09 17:12:09.648,1,-0.61,-1.74,0.08,-415.7078,32.064400000000006,239.1294,175,75
2026-05-09 17:12:09.670,1,-0.2,-1.95,1.06,-447.8378,-0.4955999999999996,223.7594,175,75
2026-05-09 17:12:09.681,1,-0.21,-1.59,1.06,-476.2578,-1.355599999999999,215.6494,175,75
2026-05-09 17:12:09.681,1,-0.05,-1.28,1.19,-482.28780000000006,13.834399999999999,213.8194,175,75
2026-05-09 17:12:09.714,1,0.28,-0.78,1.49,-460.1578,14.804399999999998,202.2994,175,75
2026-05-09 17:12:09.725,1,0.36,-0.34,1.66,-456.00780000000003,-1.5355999999999987,187.6594,175,75
2026-05-09 17:12:09.739,1,0.3,-0.16,1.63,-457.1078,-3.9155999999999977,186.1394,175,75
2026-05-09 17:12:09.749,1,0.26,-0.13,1.63,-456.43780000000004,0.7844000000000015,188.0294,175,75
2026-05-09 17:12:09.767,1,0.35,-0.21,1.62,-454.9178,6.2744,184.8594,175,75
2026-05-09 17:12:09.767,1,0.33,-0.32,1.69,-449.42780000000005,24.994400000000002,178.3894,175,75
2026-05-09 17:12:09.780,1,0.4,-0.46,1.83,-444.30780000000004,44.504400000000004,175.8894,175,75
2026-05-09 17:12:09.791,1,0.52,-0.61,2.06,-444.4878,61.6344,175.8294,175,75
2026-05-09 17:12:09.798,1,0.66,-0.76,2.23,-433.99780000000004,74.6844,171.1994,175,75
2026-05-09 17:12:09.814,1,0.94,-0.86,2.58,-406.92780000000005,95.9644,166.4994,175,75
2026-05-09 17:12:09.825,1,1.46,-0.56,3.22,-388.99780000000004,136.9444,168.3894,175,75
2026-05-09 17:12:09.836,1,1.92,-0.36,4.05,-365.94780000000003,174.6844,137.9094,175,75
2026-05-09 17:12:09.850,1,2.42,-0.36,4.38,-316.55780000000004,158.3444,91.1994,175,75
2026-05-09 17:12:09.861,1,2.43,-0.18,4.49,-251.73779999999996,145.2944,19.7994,175,75
2026-05-09 17:12:09.879,1,2.46,0.81,4.43,-185.8278,215.9044,-71.7306,175,75
2026-05-09 17:12:09.889,1,2.05,2.87,4.43,-60.7678,206.8144,-202.8906,175,75
2026-05-09 17:12:09.904,1,1.73,2.29,4.63,117.5222,211.2044,-307.5806,175,75
2026-05-09 17:12:09.914,1,2.15,-0.22,4.61,313.07219999999995,23.774400000000004,-346.0606,175,75
2026-05-09 17:12:09.924,1,1.24,-1.45,3.58,305.5122,-118.18560000000001,-418.5006,175,75
2026-05-09 17:12:09.941,1,0.78,-0.63,1.77,281.7922,-95.9856,-467.6406,175,75
2026-05-09 17:12:09.955,1,0.53,-0.32,1.19,375.57219999999995,16.7544,-496.0006,175,75
2026-05-09 17:12:09.973,1,0.6,-1.23,1.36,484.2922,67.8544,-511.91060000000004,175,75
2026-05-09 17:12:09.973,1,0.67,-1.84,1.66,528.5622,37.064400000000006,-522.7606000000001,175,75
2026-05-09 17:12:09.984,1,0.47,-2.52,1.63,546.0622,-16.1056,-535.2006,175,75
2026-05-09 17:12:09.994,1,-0.08,-3.26,1.03,558.7422,-42.0256,-544.3506,175,75
2026-05-09 17:12:10.005,1,-0.53,-3.26,0.47,577.5822,6.084400000000002,-517.1506,175,75
2026-05-09 17:12:10.022,1,-0.68,-3.36,0.02,596.7922,57.06439999999999,-491.73060000000004,175,75
2026-05-09 17:12:10.022,1,-0.44,-3.51,-0.3,606.5522,121.8144,-456.97060000000005,175,75
2026-05-09 17:12:10.034,1,-0.3,-3.59,-0.44,660.0222,165.2944,-410.4506,175,75
2026-05-09 17:12:10.045,1,-0.1,-4.3,0.51,697.1622,69.7444,-331.1806,175,75
2026-05-09 17:12:10.055,1,-0.32,-4.56,0.54,698.2622,3.404399999999999,-327.34060000000005,175,75
2026-05-09 17:12:10.067,1,-0.6,-5.2,0.52,708.3222,-14.465599999999998,-309.53060000000005,175,75
2026-05-09 17:12:10.077,1,-2.96,-7.73,-1.23,572.8322,-47.0256,-276.1206,175,75
2026-05-09 17:12:10.100,1,1.34,-5.07,1.08,705.7622,-82.8756,-251.97060000000002,175,75
2026-05-09 17:12:10.112,1,-0.97,-4.97,-0.32,448.38219999999995,-417.20559999999995,-252.09060000000002,175,75
2026-05-09 17:12:10.126,1,-0.18,-3.02,0.26,489.1122,85.4144,-209.5306,175,75
2026-05-09 17:12:10.138,1,0.08,-3.08,1.57,473.07219999999995,12.124399999999998,-189.4106,175,75
2026-05-09 17:12:10.151,1,-0.13,-2.72,1.08,405.2722,-180.9856,-194.9606,175,75
2026-05-09 17:12:10.162,1,-0.48,-2.29,-0.26,328.32219999999995,-219.8856,-200.7506,175,75
2026-05-09 17:12:10.172,1,-1.12,-1.62,-0.77,281.7922,-145.7456,-200.2606,175,75
2026-05-09 17:12:10.197,1,-1.27,0.21,0.08,164.4122,24.314400000000003,-99.53059999999999,175,75
2026-05-09 17:12:10.207,1,-0.63,0.54,-0.05,110.7622,10.604400000000002,-55.9406,175,75
2026-05-09 17:12:10.227,1,-0.22,0.81,-0.22,-1.4377999999999957,68.64439999999999,-2.0305999999999997,175,75
2026-05-09 17:12:10.296,1,0.07,1.08,0.99,-62.77779999999999,107.30439999999999,50.949400000000004,175,75
2026-05-09 17:12:10.309,1,0.35,1.3,1.45,-72.4778,41.8844,56.9294,175,75
2026-05-09 17:12:10.340,1,0.07,1.17,0.58,-41.0678,-46.0456,27.0494,175,75
2026-05-09 17:12:10.349,1,0.14,1.16,0.94,-40.337799999999994,6.694400000000002,34.8594,175,75
2026-05-09 17:12:10.369,1,0.26,1.14,1.14,-41.137800000000006,35.294399999999996,43.0294,175,75
2026-05-09 17:12:10.393,1,0.28,0.98,1.17,-44.367799999999995,44.7444,51.379400000000004,175,75
2026-05-09 17:12:10.404,1,0.3,0.85,1.02,-72.77779999999998,62.42439999999999,67.9694,175,75
2026-05-09 17:12:10.415,1,0.37,0.77,0.99,-83.5078,69.0144,69.54939999999999,175,75
2026-05-09 17:12:10.426,1,0.38,0.67,1.01,-103.3878,77.1244,69.9194,175,75
2026-05-09 17:12:10.436,1,0.44,0.54,1.06,-116.1378,87.6144,71.0194,175,75
2026-05-09 17:12:10.471,1,0.46,0.34,1.23,-137.1078,88.7744,74.24940000000001,175,75
2026-05-09 17:12:10.482,1,0.41,0.11,1.39,-158.87779999999998,81.45439999999999,90.1594,175,75
2026-05-09 17:12:10.491,1,0.39,-0.79,1.4,-214.4878,-28.3656,94.7394,175,75
2026-05-09 17:12:10.514,1,0.24,-1.2,1.17,-239.30780000000001,-57.0856,101.0194,175,75
2026-05-09 17:12:10.543,1,0.05,-0.92,0.77,-254.48779999999996,-36.715599999999995,126.9894,175,75
2026-05-09 17:12:10.553,1,0.05,-0.65,0.85,-251.3778,0.7844000000000015,141.3194,175,75
2026-05-09 17:12:10.565,1,0.05,-0.54,1.04,-248.6378,24.444399999999998,147.8394,175,75
2026-05-09 17:12:10.576,1,0.02,-0.45,1.23,-244.97779999999997,36.2744,155.3394,175,75
2026-05-09 17:12:10.587,1,-0.09,-0.07,1.31,-239.84779999999998,-5.7456,176.7494,175,75
2026-05-09 17:12:10.598,1,-0.14,0.09,1.21,-232.8978,-13.3656,184.9794,175,75
2026-05-09 17:12:10.610,1,-0.03,0.32,1.13,-224.84779999999998,-18.0556,192.9094,175,75
2026-05-09 17:12:10.637,1,-2.14,1.1,0.93,-161.0678,-118.6656,210.4094,175,75
2026-05-09 17:12:10.647,1,1.25,-0.99,1.43,-159.2378,-14.395599999999998,195.4694,175,75
2026-05-09 17:12:10.659,1,4.07,-1.36,3.24,-77.2278,3.894400000000001,174.1894,175,75
2026-05-09 17:12:10.675,1,0.63,-0.05,2.78,-140.15779999999998,-1.355599999999999,47.909400000000005,175,75
2026-05-09 17:12:10.675,1,-0.65,-0.7,0.91,-84.2378,-154.0956,27.659399999999998,175,75
2026-05-09 17:12:10.696,1,-0.59,-1.7,0.22,-112.83779999999999,-202.9356,58.9394,175,75
2026-05-09 17:12:10.706,1,0.1,-1.26,0.46,-71.1378,-37.8756,92.5394,175,75
2026-05-09 17:12:10.725,1,-0.1,-0.45,0.68,-59.8478,-4.8856,68.6994,175,75
2026-05-09 17:12:10.737,1,0.06,0.24,0.95,-52.0478,29.564400000000003,93.2094,175,75
2026-05-09 17:12:10.748,1,-0.22,0.65,0.72,-50.947799999999994,30.4744,72.5994,175,75
2026-05-09 17:12:10.760,1,-0.16,0.65,0.49,-38.507799999999996,-7.8156,63.5794,175,75
2026-05-09 17:12:10.772,1,-0.18,0.3,0.79,-31.7378,40.3544,48.879400000000004,175,75
2026-05-09 17:12:10.781,1,-0.24,0.17,0.78,-36.007799999999996,10.8444,33.9994,175,75
2026-05-09 17:12:10.799,1,-0.27,0.13,0.83,-42.227799999999995,19.624399999999998,23.4494,175,75
2026-05-09 17:12:10.799,1,-0.34,0.28,0.83,-38.447799999999994,18.6444,8.5794,175,75
2026-05-09 17:12:10.823,1,-0.19,-0.05,0.56,-15.2778,20.234399999999997,-19.050600000000003,175,75
2026-05-09 17:12:10.838,1,-0.14,-0.52,0.4,6.612200000000001,15.7244,-31.2406,175,75
2026-05-09 17:12:10.849,1,-0.04,-0.78,0.38,23.9922,7.674400000000002,-36.9706,175,75
2026-05-09 17:12:10.860,1,0.11,-1.01,0.38,44.6022,-6.355599999999999,-37.4006,175,75
2026-05-09 17:12:10.879,1,0.37,-1.31,0.46,73.9322,-15.685599999999999,-23.620599999999996,175,75
2026-05-09 17:12:10.889,1,0.65,-1.57,0.69,94.4722,-18.665599999999998,-8.9806,175,75
2026-05-09 17:12:10.899,1,0.87,-1.73,1.01,107.9522,-4.7056000000000004,3.0893999999999995,175,75
2026-05-09 17:12:10.910,1,1.1,-2.01,1.55,93.38220000000001,52.3644,3.6394,175,75
2026-05-09 17:12:10.924,1,1.22,-1.08,2.18,54.7222,134.1344,-45.870599999999996,175,75
2026-05-09 17:12:10.929,1,0.92,-0.17,2.52,48.9922,62.2444,-45.1406,175,75
2026-05-09 17:12:10.943,1,0.49,0.4,2.19,-9.977800000000002,4.384399999999999,-25.870599999999996,175,75
2026-05-09 17:12:10.953,1,0.07,0.31,1.58,-76.86779999999999,-24.9456,3.9993999999999996,175,75
2026-05-09 17:12:10.953,1,-0.19,-0.09,1.1,-166.3178,-89.0956,46.629400000000004,175,75
2026-05-09 17:12:10.967,1,-0.52,0.56,1.23,-212.59779999999998,-65.4956,99.5494,175,75
2026-05-09 17:12:10.989,1,-0.15,0.14,1.24,-257.2878,-135.7456,148.6994,175,75
2026-05-09 17:12:11.017,1,0.84,-0.83,1.23,-315.3378,-94.3956,147.9094,175,75
2026-05-09 17:12:11.033,1,0.71,-0.79,1.16,-317.7178,-41.6556,162.9694,175,75
2026-05-09 17:12:11.038,1,0.65,-0.77,1.04,-319.6078,8.5244,165.7094,175,75
2026-05-09 17:12:11.060,1,0.48,-0.76,1.14,-308.50780000000003,90.3544,169.42940000000002,175,75
2026-05-09 17:12:11.073,1,0.58,-0.84,1.55,-277.7178,160.5344,169.5494,175,75
2026-05-09 17:12:11.086,1,0.74,-0.7,1.98,-247.8378,196.7544,165.1594,175,75
2026-05-09 17:12:11.086,1,0.89,-0.5,2.18,-227.77779999999998,199.1944,160.2794,175,75
2026-05-09 17:12:11.096,1,0.97,-0.32,2.29,-208.02779999999998,174.6844,154.6694,175,75
2026-05-09 17:12:11.111,1,0.92,-0.29,2.23,-184.4278,151.6944,145.7694,175,75
2026-05-09 17:12:11.123,1,0.84,-0.36,2.21,-159.2378,140.6044,133.7594,175,75
2026-05-09 17:12:11.123,1,0.67,-0.39,2.23,-127.4178,126.02439999999999,114.24940000000001,175,75
2026-05-09 17:12:11.146,1,0.51,-0.42,2.11,-91.61779999999999,102.1844,89.0594,175,75
2026-05-09 17:12:11.146,1,0.34,-0.36,1.91,-44.367799999999995,66.14439999999999,50.4694,175,75
2026-05-09 17:12:11.161,1,0.29,-0.13,1.74,10.392200000000003,64.56439999999999,14.3094,175,75
2026-05-09 17:12:11.161,1,0.38,0.26,1.75,69.9022,74.31439999999999,-2.4006000000000007,175,75
2026-05-09 17:12:11.187,1,0.39,1.01,1.87,233.56220000000002,3.3444000000000003,-109.3506,175,75
2026-05-09 17:12:11.208,1,0.39,0.33,1.42,324.3522,-62.575599999999994,-178.1306,175,75
2026-05-09 17:12:11.218,1,0.35,0.32,1.26,368.99219999999997,-80.4356,-198.9806,175,75
2026-05-09 17:12:11.248,1,0.22,0.07,1.19,468.44219999999996,-75.0056,-244.9006,175,75
2026-05-09 17:12:11.268,1,0.2,-0.04,1.32,490.0822,-66.7156,-252.34060000000002,175,75
2026-05-09 17:12:11.278,1,0.22,-0.11,1.33,514.7822,-70.2556,-262.7006,175,75
2026-05-09 17:12:11.279,1,0.13,-0.29,1.12,519.2922,-74.9456,-275.6306,175,75
2026-05-09 17:12:11.289,1,-0.23,-0.47,0.96,513.0722,-84.7056,-262.7606,175,75
2026-05-09 17:12:11.307,1,-0.59,-0.85,0.64,494.2922,-139.3956,-259.47060000000005,175,75
2026-05-09 17:12:11.318,1,-0.88,-1.02,0.07,448.0122,-204.2756,-250.6906,175,75
2026-05-09 17:12:11.329,1,-1.28,-0.89,-0.53,390.2722,-240.5556,-241.3006,175,75
2026-05-09 17:12:11.340,1,-1.8,-0.69,-1.11,340.5122,-250.1956,-223.5606,175,75
2026-05-09 17:12:11.351,1,-3.24,-0.75,-1.29,367.1622,-231.53560000000002,-181.9106,175,75
2026-05-09 17:12:11.364,1,-2.86,-0.73,-1.1,399.6622,-228.3656,-106.1806,175,75
2026-05-09 17:12:11.364,1,-3.34,-1.99,-3.28,151.3622,-374.5256,-74.2306,175,75
2026-05-09 17:12:11.388,1,-7.76,-0.99,-6.76,-71.7378,133.8344,259.6694,175,75
2026-05-09 17:12:11.400,1,4.55,-4.35,1.54,-57.77779999999999,529.6844,365.88939999999997,175,75
2026-05-09 17:12:11.414,1,2.49,-1.59,4.78,-62.16779999999999,489.44440000000003,263.9994,175,75
2026-05-09 17:12:11.444,1,0.82,-0.09,0.2,-297.6578,-214.8256,163.9394,175,75
2026-05-09 17:12:11.457,1,-1.08,0.08,-0.89,-238.8778,-140.13559999999998,138.2094,175,75
2026-05-09 17:12:11.468,1,-0.13,0.58,0.35,-125.8278,91.7544,150.5894,175,75
2026-05-09 17:12:11.477,1,-0.34,0.18,1.26,-110.45779999999999,50.3544,109.60940000000001,175,75
2026-05-09 17:12:11.508,1,-0.03,-0.15,0.85,-123.20779999999999,-9.3356,79.9194,175,75
2026-05-09 17:12:11.508,1,-0.21,-0.04,0.75,-96.9878,17.244400000000002,68.5194,175,75
2026-05-09 17:12:11.534,1,-0.24,-0.24,1.07,-54.5478,30.354400000000002,33.8794,175,75
2026-05-09 17:12:11.547,1,-0.24,-0.42,0.95,-32.3478,40.7244,12.5994,175,75
2026-05-09 17:12:11.547,1,0.17,-0.83,0.74,-21.0678,58.1644,-6.850600000000002,175,75
2026-05-09 17:12:11.553,1,0.18,-0.96,0.81,-20.0978,53.5844,-21.2406,175,75
2026-05-09 17:12:11.567,1,0.39,-1.1,0.98,-4.9178,56.754400000000004,-20.2006,175,75
2026-05-09 17:12:11.581,1,0.57,-1.27,1.16,-4.427799999999998,39.014399999999995,-13.6806,175,75
2026-05-09 17:12:11.602,1,1.12,-1.25,1.26,-28.757799999999996,38.404399999999995,16.4394,175,75
2026-05-09 17:12:11.645,1,1.15,-1.32,1.06,-23.507799999999996,100.2944,-7.0906,175,75
2026-05-09 17:12:11.645,1,1.46,-0.86,1.07,-6.497799999999998,137.3644,-16.1806,175,75
2026-05-09 17:12:11.645,1,1.3,-0.26,1.42,-33.507799999999996,129.3844,-16.970599999999997,175,75
2026-05-09 17:12:11.656,1,0.73,0.11,1.59,-69.9778,141.6944,-21.550600000000003,175,75
2026-05-09 17:12:11.667,1,0.04,0.09,1.7,-141.5578,124.99439999999998,22.779400000000003,175,75
2026-05-09 17:12:11.667,1,-0.59,-0.28,1.57,-220.6478,66.3344,78.7594,175,75
2026-05-09 17:12:11.679,1,-0.92,-0.4,1.34,-273.93780000000004,16.7544,126.1394,175,75
2026-05-09 17:12:11.690,1,-1.29,-0.53,1.04,-314.2378,-27.6356,178.0894,175,75
2026-05-09 17:12:11.703,1,-0.31,-0.96,0.92,-328.2078,-12.5056,187.5994,175,75
2026-05-09 17:12:11.714,1,0.08,-1.03,0.98,-314.6678,18.4044,186.9894,175,75
2026-05-09 17:12:11.714,1,0.24,-0.84,1.02,-304.11780000000005,61.9444,191.0194,175,75
2026-05-09 17:12:11.727,1,0.26,-0.55,1.19,-308.0278,112.49439999999998,187.4194,175,75
2026-05-09 17:12:11.738,1,0.35,-0.33,1.44,-305.8878,159.0744,182.9694,175,75
2026-05-09 17:12:11.751,1,0.41,-0.31,1.85,-287.4178,190.4744,172.4794,175,75
2026-05-09 17:12:11.772,1,0.64,-0.44,2.19,-274.9178,178.6444,157.1094,175,75
2026-05-09 17:12:11.782,1,0.67,-0.48,2.33,-262.4178,150.7244,153.5194,175,75
2026-05-09 17:12:11.782,1,0.78,-0.55,2.45,-246.92780000000002,134.3144,148.0894,175,75
2026-05-09 17:12:11.804,1,0.84,-0.49,2.61,-210.8278,103.89439999999999,135.3494,175,75
2026-05-09 17:12:11.822,1,0.85,-0.46,2.7,-184.4278,90.1144,121.8094,175,75
2026-05-09 17:12:11.832,1,0.78,-0.45,2.7,-145.4578,58.95439999999999,95.3494,175,75
2026-05-09 17:12:11.847,1,0.68,-0.02,2.37,-41.497800000000005,11.204400000000003,12.1694,175,75
2026-05-09 17:12:11.859,1,0.59,0.33,2.18,14.7822,-4.035599999999999,-41.8506,175,75
2026-05-09 17:12:11.873,1,0.59,0.65,2.15,60.3922,3.2243999999999993,-88.7406,175,75
2026-05-09 17:12:11.884,1,0.83,0.94,2.23,126.85220000000001,5.474399999999999,-138.1906,175,75
2026-05-09 17:12:11.897,1,0.74,1.02,2.08,179.47220000000002,-37.325599999999994,-191.5506,175,75
2026-05-09 17:12:11.910,1,0.32,1.18,1.41,311.24219999999997,-61.965599999999995,-283.6806,175,75
2026-05-09 17:12:11.928,1,0.31,0.79,1.32,347.8922,-53.245599999999996,-311.24060000000003,175,75
2026-05-09 17:12:11.960,1,1.0,-0.03,0.9,463.93219999999997,-89.2756,-329.59060000000005,175,75
2026-05-09 17:12:11.965,1,0.32,-0.18,0.73,461.43219999999997,-134.7656,-353.98060000000004,175,75
2026-05-09 17:12:11.983,1,-0.59,-0.03,0.21,413.32219999999995,-242.3856,-343.1906,175,75
2026-05-09 17:12:11.992,1,-0.9,-0.08,-0.17,361.06219999999996,-294.5856,-353.80060000000003,175,75
2026-05-09 17:12:11.992,1,-0.75,0.1,-0.57,295.0822,-345.80559999999997,-346.36060000000003,175,75
2026-05-09 17:12:12.009,1,-1.5,0.65,-1.13,230.5722,-354.70559999999995,-317.40060000000005,175,75
2026-05-09 17:12:12.020,1,-2.0,1.23,-1.61,185.3922,-305.49559999999997,-298.3706,175,75
2026-05-09 17:12:12.038,1,-3.08,1.66,-1.94,119.9022,-220.8056,-266.55060000000003,175,75
2026-05-09 17:12:12.060,1,-8.59,1.78,-3.21,126.3022,-145.8656,-258.1906,175,75
2026-05-09 17:12:12.060,1,-6.81,-0.14,-5.45,44.6622,-587.1456000000001,-61.2406,175,75
2026-05-09 17:12:12.086,1,6.23,-4.62,0.8,103.9922,120.7844,76.8694,175,75
2026-05-09 17:12:12.098,1,-4.84,-2.76,7.4,221.97220000000002,1064.0144,10.3494,175,75
2026-05-09 17:12:12.112,1,1.85,-2.95,1.66,-101.0678,-446.5956,82.9094,175,75
2026-05-09 17:12:12.123,1,1.04,-1.71,-1.04,-100.15779999999998,-163.1856,-16.480600000000003,175,75
2026-05-09 17:12:12.134,1,1.79,-1.81,-1.49,3.992200000000004,-221.47560000000001,17.3594,175,75
2026-05-09 17:12:12.145,1,1.28,-1.63,-0.18,84.1122,44.014399999999995,-32.4606,175,75
2026-05-09 17:12:12.204,1,1.9,-1.51,1.19,68.0122,14.194399999999998,-53.0706,175,75
2026-05-09 17:12:12.204,1,2.03,-1.34,1.9,56.6122,-34.5856,-65.75059999999999,175,75
2026-05-09 17:12:12.204,1,2.34,-1.21,2.5,56.7922,-179.03560000000002,-101.3006,175,75
2026-05-09 17:12:12.236,1,-2.71,0.52,-1.4,-417.2878,-762.7556000000001,255.0994,175,75
2026-05-09 17:12:12.249,1,-0.11,-0.63,-1.73,-484.17780000000005,-531.5356,241.4394,175,75
2026-05-09 17:12:12.249,1,-0.78,-1.2,-1.87,-453.56780000000003,-124.7656,237.5394,175,75
2026-05-09 17:12:12.282,1,-0.08,-2.3,0.75,-449.7278,124.1344,218.9394,175,75
2026-05-09 17:12:12.282,1,0.18,-2.33,1.3,-467.6578,84.7444,203.9394,175,75
2026-05-09 17:12:12.293,1,0.19,-2.26,1.57,-489.42780000000005,35.84440000000001,190.1594,175,75
2026-05-09 17:12:12.303,1,0.15,-1.75,1.4,-509.30780000000004,11.814400000000003,179.5494,175,75
2026-05-09 17:12:12.314,1,0.08,-1.36,1.25,-514.9178,35.534400000000005,179.5494,175,75
2026-05-09 17:12:12.325,1,0.13,-1.21,1.24,-501.55780000000004,66.0844,174.1894,175,75
2026-05-09 17:12:12.344,1,0.21,-1.09,1.43,-489.9778,97.9144,167.4794,175,75
2026-05-09 17:12:12.365,1,0.4,-0.81,1.95,-482.5978,98.5244,153.4494,175,75
2026-05-09 17:12:12.376,1,0.35,-0.75,2.0,-478.81780000000003,66.3344,150.5294,175,75
2026-05-09 17:12:12.405,1,0.4,-0.87,2.52,-436.00780000000003,56.5744,157.6594,175,75
2026-05-09 17:12:12.418,1,0.51,-0.7,2.62,-409.30780000000004,68.89439999999999,155.5894,175,75
2026-05-09 17:12:12.441,1,0.87,-0.36,3.09,-344.4878,145.8444,141.3794,175,75
2026-05-09 17:12:12.463,1,1.3,-0.19,3.67,-303.50780000000003,203.52439999999999,121.1994,175,75
2026-05-09 17:12:12.473,1,1.8,0.46,4.65,-196.8678,259.68440000000004,19.6694,175,75
2026-05-09 17:12:12.485,1,2.69,2.07,4.77,-146.9278,267.67440000000005,-31.610599999999998,175,75
2026-05-09 17:12:12.498,1,0.89,3.54,4.65,-6.677799999999998,235.72439999999997,-255.7506,175,75
2026-05-09 17:12:12.508,1,1.98,1.25,4.77,264.9022,177.24439999999998,-279.78060000000005,175,75
2026-05-09 17:12:12.530,1,0.62,0.23,3.16,332.2822,-103.6656,-437.09060000000005,175,75
2026-05-09 17:12:12.537,1,0.48,0.38,2.3,366.7922,-56.8356,-469.53060000000005,175,75
2026-05-09 17:12:12.561,1,0.53,-0.4,2.2,436.9722,-80.3156,-509.05060000000003,175,75
2026-05-09 17:12:12.561,1,0.22,-1.34,1.91,465.82219999999995,-103.3656,-539.4706,175,75
2026-05-09 17:12:12.574,1,0.05,-1.93,1.71,474.2322,-91.8356,-546.2406,175,75
2026-05-09 17:12:12.585,1,-0.26,-1.87,1.83,502.2822,-104.46560000000001,-542.4006,175,75
2026-05-09 17:12:12.597,1,-0.36,-2.14,1.74,523.0122,-108.4256,-544.7806,175,75
2026-05-09 17:12:12.607,1,-0.58,-2.44,1.55,533.1922,-115.68560000000001,-533.2506000000001,175,75
2026-05-09 17:12:12.618,1,-1.04,-2.75,1.3,538.3822,-113.0556,-505.8106,175,75
2026-05-09 17:12:12.638,1,-1.03,-3.08,0.56,540.0222,-85.1956,-454.72060000000005,175,75
2026-05-09 17:12:12.666,1,-1.2,-3.28,0.4,578.9322,7.3644,-387.28060000000005,175,75
2026-05-09 17:12:12.680,1,-1.18,-4.31,1.08,591.3022,-122.1456,-320.3906,175,75
2026-05-09 17:12:12.694,1,-1.24,-4.54,1.0,595.3922,-145.6856,-297.5806,175,75
2026-05-09 17:12:12.708,1,-1.3,-4.77,1.11,559.5422,-189.1556,-257.03060000000005,175,75
2026-05-09 17:12:12.737,1,-2.14,-3.58,1.13,454.8422,-395.00559999999996,-178.0106,175,75
2026-05-09 17:12:12.749,1,-1.54,-3.35,0.45,348.74219999999997,-341.6556,-186.1206,175,75
2026-05-09 17:12:12.768,1,-0.81,-2.46,0.68,346.12219999999996,-195.8656,-134.7206,175,75
2026-05-09 17:12:12.778,1,-0.8,-1.65,0.22,317.3422,-165.4356,-126.0606,175,75
2026-05-09 17:12:12.786,1,-0.71,-0.74,0.07,272.9522,-55.745599999999996,-93.5606,175,75
2026-05-09 17:12:12.808,1,-0.55,-0.51,0.45,223.3222,18.704400000000003,-56.970600000000005,175,75
2026-05-09 17:12:12.819,1,-0.4,-0.43,0.7,191.00220000000002,28.954400000000003,-40.1406,175,75
2026-05-09 17:12:12.834,1,-0.34,-0.21,0.77,153.4422,-0.6856000000000009,-22.830599999999997,175,75
2026-05-09 17:12:12.834,1,-0.33,0.16,0.7,121.00219999999999,-34.215599999999995,-2.5806000000000004,175,75
2026-05-09 17:12:12.848,1,-0.26,0.4,0.61,98.62219999999999,-51.6556,11.8094,175,75
2026-05-09 17:12:12.863,1,-0.15,0.56,0.51,72.5822,-65.9856,27.169400000000003,175,75
2026-05-09 17:12:12.879,1,-0.03,0.66,0.36,39.4722,-71.9656,43.089400000000005,175,75
2026-05-09 17:12:12.879,1,0.08,0.75,0.29,14.542200000000001,-67.3856,53.3894,175,75
2026-05-09 17:12:12.892,1,0.13,0.84,0.34,-3.8778000000000006,-64.8856,57.2994,175,75
2026-05-09 17:12:12.902,1,0.1,0.97,0.49,-19.2378,-61.7756,62.2394,175,75
2026-05-09 17:12:12.916,1,0.06,1.05,0.69,-30.4578,-58.7256,72.9694,175,75
2026-05-09 17:12:12.933,1,0.07,0.99,0.87,-44.91779999999999,-82.2056,84.85940000000001,175,75
2026-05-09 17:12:12.960,1,0.14,1.02,0.8,-59.5478,-82.5756,94.0594,175,75
2026-05-09 17:12:12.983,1,0.19,0.96,0.81,-70.0378,-46.715599999999995,97.8494,175,75
2026-05-09 17:12:12.990,1,0.23,0.85,0.86,-77.71780000000001,-34.9456,96.1394,175,75
2026-05-09 17:12:13.019,1,0.28,0.8,1.05,-94.7878,-18.6056,103.0294,175,75
2026-05-09 17:12:13.033,1,0.31,0.65,1.15,-112.4178,-35.4356,106.9894,175,75
2026-05-09 17:12:13.036,1,0.36,0.55,1.17,-116.86779999999999,-39.095600000000005,106.3794,175,75
2026-05-09 17:12:13.048,1,0.38,0.43,1.14,-124.84779999999998,-44.5256,103.7594,175,75
2026-05-09 17:12:13.077,1,0.42,0.13,1.01,-143.2678,-42.1456,103.99940000000001,175,75
2026-05-09 17:12:13.088,1,0.35,-0.03,0.93,-161.6778,-43.7956,106.74940000000001,175,75
2026-05-09 17:12:13.092,1,0.34,-0.16,0.92,-173.2078,-39.705600000000004,113.7594,175,75
2026-05-09 17:12:13.120,1,0.39,-0.37,0.94,-183.99779999999998,-42.2656,120.3494,175,75
2026-05-09 17:12:13.124,1,0.34,-0.79,1.0,-196.2578,-45.4356,123.6994,175,75
2026-05-09 17:12:13.133,1,0.35,-0.87,1.03,-200.09779999999998,-50.3156,132.3594,175,75
2026-05-09 17:12:13.150,1,0.3,-0.77,0.96,-206.1378,-55.5556,137.5394,175,75
2026-05-09 17:12:13.164,1,0.24,-0.54,0.89,-212.0478,-54.705600000000004,146.8694,175,75
2026-05-09 17:12:13.177,1,0.26,-0.5,0.92,-213.99779999999998,-49.215599999999995,152.4194,175,75
2026-05-09 17:12:13.188,1,0.32,-0.5,0.94,-214.6078,-41.7756,156.6294,175,75
2026-05-09 17:12:13.200,1,0.34,-0.41,0.94,-214.6678,-35.0056,160.1594,175,75
2026-05-09 17:12:13.212,1,0.38,-0.29,0.94,-212.77779999999998,-31.595599999999997,162.5394,175,75
2026-05-09 17:12:13.225,1,0.4,-0.15,0.92,-210.3378,-30.5556,162.2994,175,75
2026-05-09 17:12:13.242,1,0.43,0.12,0.97,-196.0678,-31.1056,158.6994,175,75
2026-05-09 17:12:13.255,1,0.5,0.47,1.18,-181.49779999999998,-46.1656,150.0394,175,75
2026-05-09 17:12:13.295,1,0.71,1.17,1.85,-147.2278,-111.8356,116.3194,175,75
2026-05-09 17:12:13.308,1,-1.05,2.01,1.71,-119.9778,-186.1056,122.2994,175,75
2026-05-09 17:12:13.318,1,1.82,1.86,1.09,-113.14779999999999,-272.81559999999996,107.5994,175,75
2026-05-09 17:12:13.331,1,0.08,-1.71,-0.81,-216.0078,-371.8956,33.8194,175,75
2026-05-09 17:12:13.342,1,-2.25,-1.79,-1.56,-226.61780000000002,-64.2156,-0.26060000000000016,175,75
2026-05-09 17:12:13.342,1,2.02,-1.39,-0.72,-85.0378,71.3344,31.019399999999997,175,75
2026-05-09 17:12:13.354,1,0.2,-1.0,1.35,-30.527799999999992,49.31439999999999,18.269399999999997,175,75
2026-05-09 17:12:13.381,1,0.31,-0.68,1.04,-120.70779999999999,-67.6356,-3.4406,175,75
2026-05-09 17:12:13.395,1,-0.57,-0.61,0.93,-97.65779999999998,-48.245599999999996,-8.6806,175,75
2026-05-09 17:12:13.410,1,-0.12,0.19,0.75,-79.30779999999999,-14.8256,12.1694,175,75
2026-05-09 17:12:13.477,1,-0.08,0.02,0.6,-42.2878,11.884400000000003,-10.140600000000001,175,75
2026-05-09 17:12:13.477,1,-0.18,-0.05,0.67,-35.8278,9.0744,-20.7506,175,75
2026-05-09 17:12:13.500,1,-0.14,-0.1,0.63,-10.587800000000001,-0.19559999999999889,-27.400599999999997,175,75
2026-05-09 17:12:13.511,1,-0.03,-0.28,0.55,4.842199999999998,-14.525599999999999,-27.090599999999995,175,75
2026-05-09 17:12:13.532,1,0.69,-1.07,0.65,76.85220000000001,-47.575599999999994,-21.480600000000003,175,75
2026-05-09 17:12:13.551,1,0.8,-1.3,0.65,83.5622,-27.8156,-26.120599999999996,175,75
2026-05-09 17:12:13.561,1,1.11,-1.76,0.84,61.2422,-13.305599999999998,-19.1706,175,75
2026-05-09 17:12:13.584,1,1.34,-0.79,1.61,23.9922,11.394400000000001,-49.1706,175,75
2026-05-09 17:12:13.595,1,0.76,0.26,2.27,-0.6477999999999966,-110.6156,-35.8106,175,75
2026-05-09 17:12:13.595,1,0.38,-0.05,2.07,-33.5678,-148.8556,1.4393999999999991,175,75
2026-05-09 17:12:13.639,1,0.32,-0.01,1.29,-251.0678,-125.1356,111.0194,175,75
2026-05-09 17:12:13.653,1,0.51,-1.12,0.94,-312.1078,-17.2056,171.1394,175,75
2026-05-09 17:12:13.670,1,0.83,-1.36,1.52,-261.31780000000003,109.80439999999999,173.2694,175,75
2026-05-09 17:12:13.684,1,0.98,-1.18,1.72,-227.10779999999997,196.7544,158.8794,175,75
2026-05-09 17:12:13.694,1,0.98,-0.86,1.9,-194.7878,268.4644,149.7394,175,75
2026-05-09 17:12:13.704,1,0.7,-0.83,2.14,-162.65779999999998,307.73440000000005,126.3794,175,75
2026-05-09 17:12:13.711,1,0.53,-0.9,2.45,-126.37779999999998,307.42440000000005,110.4094,175,75
2026-05-09 17:12:13.728,1,0.42,-1.04,2.84,-75.27779999999998,252.0644,89.7394,175,75
2026-05-09 17:12:13.754,1,0.41,-0.63,2.54,-3.997799999999998,124.0744,47.5994,175,75
2026-05-09 17:12:13.754,1,0.41,-0.1,2.22,49.1122,96.2744,26.4394,175,75
2026-05-09 17:12:13.764,1,0.4,0.24,2.08,92.10220000000001,78.2244,2.0494000000000003,175,75
2026-05-09 17:12:13.771,1,0.38,0.41,1.99,130.4522,62.734399999999994,-23.6806,175,75
2026-05-09 17:12:13.789,1,0.36,0.43,1.84,174.0522,47.004400000000004,-57.03059999999999,175,75
2026-05-09 17:12:13.804,1,0.39,0.59,1.6,270.6922,11.694399999999998,-121.3006,175,75
2026-05-09 17:12:13.827,1,0.36,0.67,1.38,328.93219999999997,-14.275599999999999,-150.1406,175,75
2026-05-09 17:12:13.827,1,0.34,0.58,1.27,372.8922,-24.5256,-166.8506,175,75
2026-05-09 17:12:13.839,1,0.28,0.39,1.28,417.6522,-29.275599999999997,-186.0006,175,75
2026-05-09 17:12:13.860,1,0.26,0.29,1.3,457.3422,-37.1456,-205.3906,175,75
2026-05-09 17:12:13.871,1,0.23,0.02,1.29,494.9622,-90.6156,-206.6706,175,75
2026-05-09 17:12:13.892,1,0.13,-0.35,1.21,489.6622,-160.1956,-202.9506,175,75
2026-05-09 17:12:13.909,1,-0.87,-0.76,0.06,442.0422,-268.24559999999997,-241.3006,175,75
2026-05-09 17:12:13.924,1,-1.22,-0.63,-0.49,408.8622,-245.9256,-237.6406,175,75
2026-05-09 17:12:13.934,1,-1.54,-0.6,-0.98,357.8922,-230.00560000000002,-226.3006,175,75
2026-05-09 17:12:13.945,1,-3.46,-0.83,-0.73,444.1122,-120.1956,-160.7506,175,75
2026-05-09 17:12:13.956,1,-2.1,-1.38,-1.38,359.9022,-274.5256,-103.5606,175,75
2026-05-09 17:12:13.976,1,-4.43,0.95,-4.89,18.502200000000002,-10.0756,45.949400000000004,175,75
2026-05-09 17:12:13.988,1,-6.14,0.2,-3.82,-34.1778,65.2944,169.6094,175,75
2026-05-09 17:12:13.999,1,-2.19,-3.37,-2.25,-214.9778,148.8344,336.6894,175,75
2026-05-09 17:12:14.023,1,2.85,-3.84,2.18,-55.0378,445.9044,231.3194,175,75
2026-05-09 17:12:14.039,1,-0.16,1.41,3.25,-282.7178,-47.3856,183.4494,175,75
2026-05-09 17:12:14.049,1,-0.81,1.69,1.51,-275.3378,-21.6556,210.7694,175,75
2026-05-09 17:12:14.061,1,0.69,0.03,0.32,-243.4478,-112.93560000000001,140.6494,175,75
2026-05-09 17:12:14.061,1,-0.34,-0.21,-0.19,-199.1178,-35.745599999999996,128.08939999999998,175,75
2026-05-09 17:12:14.074,1,-0.18,0.4,1.03,-112.83779999999999,16.0844,97.9094,175,75
2026-05-09 17:12:14.096,1,-0.01,0.05,0.71,-102.89779999999999,-13.7256,74.1894,175,75
2026-05-09 17:12:14.124,1,-0.05,-0.14,1.18,-44.5478,19.8644,54.7394,175,75
2026-05-09 17:12:14.136,1,-0.05,-0.38,1.14,-34.607800000000005,8.034400000000002,43.269400000000005,175,75
2026-05-09 17:12:14.147,1,0.14,-0.73,0.94,-14.787799999999997,24.194399999999998,19.4294,175,75
2026-05-09 17:12:14.159,1,0.34,-0.96,1.11,-12.5978,47.06439999999999,11.2594,175,75
2026-05-09 17:12:14.170,1,0.55,-0.92,1.49,-14.117799999999995,52.4944,23.6994,175,75
2026-05-09 17:12:14.181,1,0.57,-0.84,1.61,-30.337799999999994,44.1344,31.8694,175,75
2026-05-09 17:12:14.194,1,0.68,-0.85,1.65,-36.007799999999996,43.1044,48.7594,175,75
2026-05-09 17:12:14.207,1,0.82,-0.86,1.61,-31.557799999999993,51.81439999999999,58.3894,175,75
2026-05-09 17:12:14.218,1,0.81,-1.01,1.61,-59.117799999999995,83.4044,51.4994,175,75
2026-05-09 17:12:14.229,1,1.02,-0.8,1.73,-88.4478,130.96439999999998,38.6994,175,75
2026-05-09 17:12:14.245,1,0.64,-0.42,2.2,-121.37779999999998,106.81439999999999,29.1894,175,75
2026-05-09 17:12:14.258,1,0.05,-0.25,1.89,-161.49779999999998,114.2544,51.0794,175,75
2026-05-09 17:12:14.273,1,-0.19,-0.16,1.81,-201.9278,68.1644,94.7994,175,75
2026-05-09 17:12:14.289,1,-0.17,-0.22,1.57,-222.41779999999997,28.344400000000004,127.6594,175,75
2026-05-09 17:12:14.299,1,-0.43,-0.19,1.27,-226.98779999999996,8.834400000000002,147.0494,175,75
2026-05-09 17:12:14.311,1,0.71,-0.55,1.77,-202.1678,66.2744,138.3294,175,75
2026-05-09 17:12:14.322,1,1.02,-0.42,2.15,-178.2078,74.4444,129.6094,175,75
2026-05-09 17:12:14.322,1,1.15,-0.09,2.29,-165.0378,83.5844,120.6494,175,75
2026-05-09 17:12:14.343,1,1.13,0.16,2.23,-154.1178,78.70439999999999,111.3194,175,75
2026-05-09 17:12:14.343,1,1.07,0.38,2.2,-121.9878,82.7344,100.2794,175,75
2026-05-09 17:12:14.374,1,1.09,0.47,2.28,-85.0978,92.5544,84.3694,175,75
2026-05-09 17:12:14.374,1,1.16,0.55,2.39,-57.9578,85.1144,69.54939999999999,175,75
2026-05-09 17:12:14.384,1,1.17,0.64,2.44,-29.607800000000005,64.7444,55.5294,175,75
2026-05-09 17:12:14.398,1,1.06,0.71,2.33,3.8622000000000014,35.7244,29.6094,175,75
2026-05-09 17:12:14.414,1,0.81,0.7,1.93,67.2822,4.384399999999999,-37.5806,175,75
2026-05-09 17:12:14.431,1,0.6,0.76,1.75,96.4922,1.514400000000002,-71.4806,175,75
2026-05-09 17:12:14.442,1,0.6,0.86,1.58,134.9022,3.2243999999999993,-108.9206,175,75
2026-05-09 17:12:14.453,1,0.66,0.97,1.53,173.0722,13.404399999999999,-139.9006,175,75
2026-05-09 17:12:14.453,1,0.66,0.96,1.52,202.34220000000002,16.274400000000004,-156.6106,175,75
2026-05-09 17:12:14.478,1,0.43,0.92,1.26,261.0622,-55.1956,-187.5206,175,75
2026-05-09 17:12:14.493,1,0.27,0.73,0.97,271.49219999999997,-115.0056,-193.1906,175,75
2026-05-09 17:12:14.505,1,0.03,0.57,0.73,275.5122,-158.72560000000001,-207.9506,175,75
2026-05-09 17:12:14.505,1,-0.01,0.57,0.55,285.5722,-171.7156,-228.7406,175,75
2026-05-09 17:12:14.517,1,-0.14,0.8,0.73,293.1322,-179.9456,-232.0306,175,75
2026-05-09 17:12:14.528,1,-0.14,0.98,0.9,295.2722,-208.9156,-234.2306,175,75
2026-05-09 17:12:14.552,1,-7.74,0.22,-0.68,271.30219999999997,-323.4856,-258.3106,175,75
2026-05-09 17:12:14.565,1,-7.95,-6.42,-5.51,-64.30779999999999,-551.3556,-265.3906,175,75
2026-05-09 17:12:14.576,1,-10.13,-1.65,-9.45,-58.1478,-238.4856,132.5394,175,75
2026-05-09 17:12:14.599,1,8.3,-0.98,-1.29,335.0822,875.1143999999999,304.6694,175,75
2026-05-09 17:12:14.609,1,0.82,0.22,4.68,101.3622,536.2044,-76.1206,175,75
2026-05-09 17:12:14.609,1,1.2,-0.44,3.18,-11.5578,-29.3356,-65.2606,175,75
2026-05-09 17:12:14.620,1,0.31,-2.15,3.25,38.1322,-140.9256,-45.1406,175,75
2026-05-09 17:12:14.630,1,0.13,-1.48,1.32,-70.27779999999998,-193.5456,-20.6306,175,75
2026-05-09 17:12:14.653,1,0.6,-0.67,0.14,77.2822,65.4144,-61.67059999999999,175,75
2026-05-09 17:12:14.663,1,0.62,0.23,1.22,118.7422,85.2944,-80.75059999999999,175,75
2026-05-09 17:12:14.686,1,0.86,0.73,1.76,91.2422,41.9444,-89.7206,175,75
2026-05-09 17:12:14.693,1,0.03,0.5,0.94,33.6222,-106.8956,-82.0906,175,75
2026-05-09 17:12:14.713,1,-0.81,0.33,0.37,-30.4578,-75.4356,-46.1806,175,75
2026-05-09 17:12:14.754,1,-1.73,0.55,-0.47,-168.87779999999998,22.304399999999998,94.3094,175,75
2026-05-09 17:12:14.754,1,-1.23,0.48,-0.14,-201.8078,66.3344,152.8394,175,75
2026-05-09 17:12:14.765,1,-0.58,0.2,0.45,-207.59779999999998,78.70439999999999,169.3094,175,75
2026-05-09 17:12:14.773,1,-0.19,-0.02,0.82,-213.2078,66.6944,173.1494,175,75
2026-05-09 17:12:14.783,1,0.04,0.09,0.88,-229.97779999999997,61.2744,174.6094,175,75
2026-05-09 17:12:14.784,1,0.22,0.24,0.98,-234.72779999999997,78.1644,172.2994,175,75
2026-05-09 17:12:14.842,1,0.67,0.65,1.5,-219.60779999999997,102.3644,157.1694,175,75
2026-05-09 17:12:14.852,1,0.8,0.78,1.69,-210.8278,99.9944,146.3194,175,75
2026-05-09 17:12:14.864,1,1.06,0.99,1.85,-195.3978,76.0244,104.7394,175,75
2026-05-09 17:12:14.867,1,1.02,1.14,1.85,-184.3678,70.78439999999999,92.10940000000001,175,75
2026-05-09 17:12:14.879,1,0.97,1.33,1.89,-158.5078,61.3344,74.9194,175,75
2026-05-09 17:12:14.889,1,0.91,1.31,1.84,-140.15779999999998,51.3344,64.4294,175,75
2026-05-09 17:12:14.912,1,0.9,1.02,1.77,-104.11779999999999,71.8844,32.1694,175,75
2026-05-09 17:12:14.924,1,0.87,0.94,1.77,-91.0678,89.92439999999999,19.6094,175,75
2026-05-09 17:12:14.934,1,0.95,0.75,1.79,-77.2878,111.14439999999999,1.4393999999999991,175,75
2026-05-09 17:12:14.954,1,0.82,0.73,1.83,-70.33779999999999,115.6644,-5.4506,175,75
2026-05-09 17:12:14.962,1,0.75,0.8,2.08,-59.66779999999999,102.0044,19.8594,175,75
2026-05-09 17:12:14.963,1,0.08,0.86,1.45,-85.33779999999999,-53.605599999999995,50.2194,175,75
2026-05-09 17:12:14.967,1,-3.33,0.94,0.12,-149.4278,-292.38559999999995,48.449400000000004,175,75
2026-05-09 17:12:14.981,1,-2.1,-0.11,-3.48,-333.0278,-510.43559999999997,224.8594,175,75
2026-05-09 17:12:14.992,1,-0.07,-3.43,-1.79,-331.61780000000005,-195.0756,133.08939999999998,175,75
2026-05-09 17:12:15.010,1,0.67,0.45,3.53,-168.3878,201.3344,170.8294,175,75
2026-05-09 17:12:15.039,1,0.11,0.22,0.33,-222.71779999999998,-74.4656,80.21940000000001,175,75
2026-05-09 17:12:15.051,1,-0.69,0.35,0.11,-162.8978,26.634400000000003,104.5494,175,75
2026-05-09 17:12:15.072,1,-0.68,0.35,0.18,-153.2678,71.39439999999999,121.5594,175,75
2026-05-09 17:12:15.083,1,-0.39,0.5,0.69,-121.80779999999999,102.67439999999999,127.8494,175,75
2026-05-09 17:12:15.094,1,0.05,0.19,0.68,-126.3178,81.5144,112.4194,175,75
2026-05-09 17:12:15.094,1,0.12,0.25,0.09,-150.15779999999998,81.5144,93.8194,175,75
2026-05-09 17:12:15.108,1,0.21,0.33,-0.22,-143.93779999999998,106.39439999999999,96.8694,175,75
2026-05-09 17:12:15.115,1,0.56,0.23,0.01,-130.52779999999998,108.40440000000001,94.4894,175,75
2026-05-09 17:12:15.137,1,0.57,0.27,0.11,-143.99779999999998,25.2944,73.8194,175,75
2026-05-09 17:12:15.167,1,0.42,0.51,0.17,-148.99779999999998,-5.1356,68.32939999999999,175,75
2026-05-09 17:12:15.180,1,0.09,0.84,0.38,-151.8078,-38.7256,67.1694,175,75
2026-05-09 17:12:15.199,1,-0.05,1.05,0.39,-144.0578,-39.5856,68.7594,175,75
2026-05-09 17:12:15.211,1,-0.1,1.27,0.39,-125.64779999999999,-34.0356,66.1394,175,75
2026-05-09 17:12:15.238,1,-0.12,1.35,0.42,-116.55779999999999,-27.6956,63.0294,175,75
2026-05-09 17:12:15.249,1,-0.15,1.41,0.44,-106.92779999999999,-25.2556,58.8194,175,75
2026-05-09 17:12:15.249,1,-0.25,1.48,0.43,-100.52779999999998,-22.8156,53.519400000000005,175,75
2026-05-09 17:12:15.261,1,-0.26,1.54,0.5,-93.2678,-17.2656,49.6694,175,75
2026-05-09 17:12:15.261,1,-0.24,1.63,0.57,-87.4778,-14.275599999999999,43.8194,175,75
2026-05-09 17:12:15.272,1,-0.25,1.68,0.46,-73.08779999999999,4.134399999999999,33.8794,175,75
2026-05-09 17:12:15.287,1,-0.24,1.69,0.43,-62.6578,9.8644,32.1094,175,75
2026-05-09 17:12:15.298,1,-0.17,1.65,0.42,-48.697799999999994,18.6444,30.949399999999997,175,75
2026-05-09 17:12:15.310,1,-0.12,1.58,0.37,-41.137800000000006,22.494400000000002,29.129399999999997,175,75
2026-05-09 17:12:15.324,1,-0.04,1.53,0.29,-33.387800000000006,23.954400000000003,26.4394,175,75
2026-05-09 17:12:15.353,1,0.13,1.45,0.32,-22.8378,11.084399999999999,13.519400000000001,175,75
2026-05-09 17:12:15.367,1,0.13,1.82,0.13,-25.217800000000004,-18.0556,5.1594,175,75
2026-05-09 17:12:15.378,1,0.14,2.0,-0.05,-10.647799999999997,-12.7556,-19.1706,175,75
2026-05-09 17:12:15.389,1,0.31,1.27,0.32,10.7622,-0.005599999999997607,-6.4205999999999985,175,75
2026-05-09 17:12:15.411,1,-0.19,1.38,0.17,-1.3778000000000006,-22.0256,-14.960600000000001,175,75
2026-05-09 17:12:15.423,1,-0.08,1.48,0.31,9.7822,-8.4256,-17.760599999999997,175,75
2026-05-09 17:12:15.433,1,0.06,1.59,0.46,13.132200000000001,-10.7456,-17.760599999999997,175,75
2026-05-09 17:12:15.443,1,0.01,1.62,0.49,19.662200000000002,-12.875599999999999,-21.910600000000002,175,75
2026-05-09 17:12:15.443,1,-0.08,1.63,0.37,22.4022,-16.3556,-23.9206,175,75
2026-05-09 17:12:15.480,1,-0.07,1.59,0.4,45.2122,-1.7155999999999985,-28.1306,175,75
2026-05-09 17:12:15.480,1,-0.06,1.56,0.42,51.4922,-1.0456000000000003,-29.720599999999997,175,75
2026-05-09 17:12:15.490,1,-0.09,1.49,0.43,59.6622,1.394400000000001,-29.9606,175,75
2026-05-09 17:12:15.503,1,-0.08,1.43,0.44,64.6022,4.5044,-30.7506,175,75
2026-05-09 17:12:15.513,1,-0.08,1.32,0.42,70.5122,6.084400000000002,-31.910599999999995,175,75
2026-05-09 17:12:15.535,1,-0.06,1.3,0.32,73.7422,8.3444,-33.8606,175,75
2026-05-09 17:12:15.566,1,0.19,1.15,0.26,83.07220000000001,2.9144000000000005,-49.7806,175,75
2026-05-09 17:12:15.580,1,0.2,1.01,0.28,81.79220000000001,-16.775599999999997,-61.730599999999995,175,75
2026-05-09 17:12:15.602,1,0.14,0.99,0.26,80.1522,-24.2756,-68.1306,175,75
2026-05-09 17:12:15.602,1,-0.04,0.98,0.26,85.82220000000001,-12.2656,-64.8406,175,75
2026-05-09 17:12:15.613,1,0.05,0.89,0.25,90.6922,-10.685599999999999,-58.560599999999994,175,75
2026-05-09 17:12:15.626,1,0.17,0.95,0.22,91.9122,-19.4656,-56.67059999999999,175,75
2026-05-09 17:12:15.637,1,0.17,0.94,0.24,97.5222,-14.275599999999999,-58.860600000000005,175,75
2026-05-09 17:12:15.651,1,0.15,0.86,0.21,101.1822,-21.8356,-60.330600000000004,175,75
2026-05-09 17:12:15.668,1,0.2,0.72,0.28,109.29220000000001,-17.7556,-58.6806,175,75
2026-05-09 17:12:15.684,1,0.26,0.32,0.3,113.19220000000001,-31.6556,-71.3606,175,75
2026-05-09 17:12:15.719,1,0.53,-1.02,0.27,81.0622,-23.2456,-87.28059999999999,175,75
2026-05-09 17:12:15.735,1,0.75,-0.74,0.69,103.8622,-62.0856,-113.1906,175,75
2026-05-09 17:12:15.765,1,0.62,-0.5,0.79,92.34219999999999,-93.9156,-119.35059999999999,175,75
2026-05-09 17:12:15.765,1,0.48,-0.4,0.87,79.2322,-125.5556,-123.8006,175,75
2026-05-09 17:12:15.765,1,0.32,-0.48,0.98,62.4022,-158.0556,-127.8906,175,75
2026-05-09 17:12:15.791,1,-0.04,-0.84,1.35,42.2222,-163.4256,-115.9406,175,75
2026-05-09 17:12:15.791,1,-0.07,-1.18,1.64,27.892200000000003,-173.8556,-100.8706,175,75
2026-05-09 17:12:15.801,1,-1.03,-1.27,1.54,-12.657800000000002,-189.3956,-68.0706,175,75
2026-05-09 17:12:15.802,1,-1.01,-1.24,1.18,-62.0478,-190.25560000000002,-33.5006,175,75
2026-05-09 17:12:15.818,1,-1.33,-0.22,0.98,-53.8778,-168.97560000000001,-33.190599999999996,175,75
2026-05-09 17:12:15.836,1,-1.32,-0.82,0.12,-117.1078,-225.4356,11.3794,175,75
2026-05-09 17:12:15.848,1,-0.95,-1.26,-0.29,-176.0078,-122.0256,-18.5606,175,75
2026-05-09 17:12:15.848,1,-1.1,-1.16,0.02,-144.3678,87.67439999999999,-30.330599999999997,175,75
2026-05-09 17:12:15.862,1,-0.96,-0.84,0.59,-129.6078,177.8544,-36.550599999999996,175,75
2026-05-09 17:12:15.878,1,-1.05,-0.56,1.13,-127.95779999999999,198.2244,-50.3306,175,75
2026-05-09 17:12:15.893,1,-0.9,-0.49,1.46,-136.5578,110.6044,-65.2606,175,75
2026-05-09 17:12:15.904,1,-0.87,-0.32,1.48,-147.2878,12.1844,-82.7606,175,75
2026-05-09 17:12:15.910,1,-0.83,-0.03,1.15,-164.0578,-107.0256,-109.9606,175,75
2026-05-09 17:12:15.937,1,-1.37,0.42,0.3,-214.4278,-183.97560000000001,-174.2306,175,75
2026-05-09 17:12:15.949,1,-1.54,0.58,0.29,-227.53779999999998,-163.72560000000001,-196.9106,175,75
2026-05-09 17:12:15.960,1,-1.84,0.83,0.47,-241.2578,-121.1656,-223.8006,175,75
2026-05-09 17:12:15.985,1,-2.33,1.38,0.56,-264.30780000000004,-56.4156,-244.2306,175,75
2026-05-09 17:12:15.996,1,-2.54,1.7,0.52,-267.6578,-6.595599999999999,-250.51059999999998,175,75
2026-05-09 17:12:15.996,1,-2.65,2.12,0.49,-267.1678,59.3844,-251.1806,175,75
2026-05-09 17:12:16.007,1,-2.5,2.5,0.59,-263.81780000000003,134.3844,-240.2606,175,75
2026-05-09 17:12:16.018,1,-2.11,2.39,0.84,-261.55780000000004,176.0844,-231.0006,175,75
2026-05-09 17:12:16.030,1,-1.59,2.17,1.14,-271.92780000000005,180.6644,-231.8506,175,75
2026-05-09 17:12:16.048,1,-1.25,2.09,1.29,-284.4878,161.3344,-234.1706,175,75
2026-05-09 17:12:16.060,1,-0.86,2.01,1.46,-301.19780000000003,131.6944,-234.5906,175,75
2026-05-09 17:12:16.105,1,-0.2,1.51,1.91,-333.2078,76.81439999999999,-253.01059999999998,175,75
2026-05-09 17:12:16.127,1,0.25,0.98,2.16,-337.0478,51.514399999999995,-271.73060000000004,175,75
2026-05-09 17:12:16.143,1,0.23,0.76,2.07,-304.9778,89.5044,-277.7006,175,75
2026-05-09 17:12:16.155,1,0.28,0.7,2.22,-280.7078,119.1344,-287.9506,175,75
2026-05-09 17:12:16.183,1,0.38,0.71,2.44,-253.4478,130.7844,-301.73060000000004,175,75
2026-05-09 17:12:16.183,1,0.42,0.72,2.57,-226.67780000000002,123.2244,-316.36060000000003,175,75
2026-05-09 17:12:16.212,1,0.44,0.74,2.45,-198.6978,106.3344,-335.5706,175,75
2026-05-09 17:12:16.227,1,0.44,0.73,2.33,-172.8378,104.8644,-351.73060000000004,175,75
2026-05-09 17:12:16.267,1,0.49,0.47,2.19,-85.7678,89.9944,-389.72060000000005,175,75
2026-05-09 17:12:16.279,1,0.47,0.32,2.1,-41.257799999999996,82.2444,-409.90060000000005,175,75
2026-05-09 17:12:16.297,1,0.43,0.24,2.11,-14.2378,72.3044,-420.9406,175,75
2026-05-09 17:12:16.319,1,0.3,0.18,2.0,31.7322,51.8844,-440.8706,175,75
2026-05-09 17:12:16.331,1,0.18,0.13,1.86,52.7722,53.2244,-452.5206,175,75
