Time,ID,Ax,Ay,Az,Gx,Gy,Gz,Height,Weight
2026-05-09 16:14:52.669,1,-0.0,0.04,1.12,-14.235,24.9326,11.0318,175,75
2026-05-09 16:14:52.669,1,0.02,0.05,1.18,-20.025,26.9526,15.241800000000001,175,75
2026-05-09 16:14:52.689,1,0.04,-0.09,1.22,-48.135,36.8226,22.9218,175,75
2026-05-09 16:14:52.703,1,0.08,-0.13,1.23,-58.375,43.9026,30.0518,175,75
2026-05-09 16:14:52.714,1,0.09,-0.17,1.26,-72.705,52.7426,35.1218,175,75
2026-05-09 16:14:52.726,1,0.15,-0.19,1.33,-93.555,67.2526,45.721799999999995,175,75
2026-05-09 16:14:52.737,1,0.17,-0.23,1.41,-106.915,73.29260000000001,55.2418,175,75
2026-05-09 16:14:52.772,1,0.22,-0.52,1.39,-128.135,55.7326,74.57180000000001,175,75
2026-05-09 16:14:52.772,1,0.07,-0.33,0.97,-128.805,1.5825999999999993,60.3018,175,75
2026-05-09 16:14:52.783,1,-0.32,0.02,0.38,-135.325,-6.5874,49.9918,175,75
2026-05-09 16:14:52.793,1,-0.2,0.08,0.38,-133.195,44.7526,54.2018,175,75
2026-05-09 16:14:52.807,1,0.15,0.42,1.01,-121.855,5.422599999999999,38.831799999999994,175,75
2026-05-09 16:14:52.840,1,-0.35,1.18,0.36,-95.085,-120.7374,21.0318,175,75
2026-05-09 16:14:52.848,1,-0.28,1.13,0.39,-70.875,-105.6774,26.701800000000002,175,75
2026-05-09 16:14:52.872,1,-0.76,0.52,0.5,-33.745,-84.5774,47.1918,175,75
2026-05-09 16:14:52.885,1,-0.49,0.04,0.46,-19.295,-33.5974,49.8118,175,75
2026-05-09 16:14:52.896,1,-0.44,-0.07,0.57,-18.015,-8.177399999999999,51.7618,175,75
2026-05-09 16:14:52.918,1,0.06,-0.31,0.71,-23.075,-11.587399999999999,44.3818,175,75
2026-05-09 16:14:52.928,1,-0.04,-0.42,0.81,-36.245,-20.3074,34.8118,175,75
2026-05-09 16:14:52.966,1,-0.38,0.24,0.66,-52.645,-35.1274,13.1618,175,75
2026-05-09 16:14:52.977,1,-0.43,0.37,0.46,-47.095,-27.3174,11.2118,175,75
2026-05-09 16:14:52.979,1,-0.34,0.38,0.41,-42.825,-13.537399999999998,14.3218,175,75
2026-05-09 16:14:52.987,1,-0.42,0.27,0.42,-29.595,1.2825999999999995,10.6618,175,75
2026-05-09 16:14:53.024,1,-0.43,0.14,0.43,-15.145,14.752600000000001,-1.4082,175,75
2026-05-09 16:14:53.035,1,-0.45,0.03,0.48,-9.845,20.302599999999998,-6.4082,175,75
2026-05-09 16:14:53.072,1,-0.29,-0.12,0.19,21.445,32.4326,-29.0282,175,75
2026-05-09 16:14:53.085,1,-0.26,-0.19,0.19,32.845,37.6826,-27.8082,175,75
2026-05-09 16:14:53.095,1,-0.22,-0.47,0.22,43.455,52.132600000000004,-22.0782,175,75
2026-05-09 16:14:53.108,1,-0.24,-0.76,0.38,50.285,69.8126,-21.6482,175,75
2026-05-09 16:14:53.120,1,-0.18,-0.88,0.54,52.535,84.6926,-20.978199999999998,175,75
2026-05-09 16:14:53.132,1,-0.09,-0.9,0.79,54.005,98.2326,-17.9282,175,75
2026-05-09 16:14:53.143,1,0.02,-0.89,1.01,55.095,103.9026,-13.238199999999999,175,75
2026-05-09 16:14:53.171,1,0.07,-0.93,1.5,47.475,105.79260000000001,-7.6282000000000005,175,75
2026-05-09 16:14:53.182,1,0.18,-0.68,1.87,45.345,110.3626,-11.958200000000001,175,75
2026-05-09 16:14:53.204,1,0.38,-0.33,1.93,46.625,109.0826,-15.3082,175,75
2026-05-09 16:14:53.218,1,0.21,0.29,1.55,7.415,51.7626,2.4318,175,75
2026-05-09 16:14:53.230,1,-0.05,0.16,1.27,-35.145,28.2926,28.9618,175,75
2026-05-09 16:14:53.242,1,-0.17,0.03,1.19,-79.355,19.5726,45.1218,175,75
2026-05-09 16:14:53.271,1,0.21,0.03,1.15,-142.155,12.0726,77.2518,175,75
2026-05-09 16:14:53.271,1,0.21,-0.15,1.02,-163.805,-9.697400000000002,81.2718,175,75
2026-05-09 16:14:53.296,1,0.24,-0.19,0.71,-192.825,6.582599999999999,84.7518,175,75
2026-05-09 16:14:53.296,1,0.3,-0.08,0.59,-207.095,44.9326,90.85180000000001,175,75
2026-05-09 16:14:53.309,1,0.36,-0.01,0.65,-199.775,78.4726,100.2418,175,75
2026-05-09 16:14:53.319,1,0.4,0.05,0.9,-184.475,102.6226,107.7418,175,75
2026-05-09 16:14:53.329,1,0.36,0.02,1.01,-177.215,22.5626,114.7518,175,75
2026-05-09 16:14:53.339,1,-0.13,0.12,0.85,-182.215,29.872600000000002,120.0518,175,75
2026-05-09 16:14:53.356,1,0.21,0.05,0.96,-154.235,89.9926,124.6918,175,75
2026-05-09 16:14:53.393,1,0.41,0.22,1.52,-91.055,-52.4374,98.5318,175,75
2026-05-09 16:14:53.403,1,0.14,0.42,1.13,-58.255,-120.7974,69.6918,175,75
2026-05-09 16:14:53.415,1,-0.0,0.58,0.55,-23.135,-114.20739999999999,44.8718,175,75
2026-05-09 16:14:53.440,1,0.11,1.06,0.37,106.195,12.7426,38.5918,175,75
2026-05-09 16:14:53.488,1,-0.05,1.06,0.56,240.035,31.9526,11.0918,175,75
2026-05-09 16:14:53.503,1,0.02,0.82,0.67,294.125,36.8826,-5.2482,175,75
2026-05-09 16:14:53.514,1,0.08,0.67,0.67,309.365,48.7126,-14.8782,175,75
2026-05-09 16:14:53.526,1,0.08,0.67,0.54,326.745,65.9126,-34.5782,175,75
2026-05-09 16:14:53.538,1,0.47,0.74,0.65,342.115,128.3526,-36.0382,175,75
2026-05-09 16:14:53.553,1,0.34,0.64,1.0,352.055,161.8226,-43.358200000000004,175,75
2026-05-09 16:14:53.563,1,0.58,0.58,1.16,381.865,149.87259999999998,-71.70819999999999,175,75
2026-05-09 16:14:53.575,1,0.87,0.66,1.08,401.315,101.1526,-83.78819999999999,175,75
2026-05-09 16:14:53.575,1,-1.18,1.1,-0.23,384.615,-167.68740000000003,-105.8582,175,75
2026-05-09 16:14:53.594,1,-9.99,1.33,-3.64,348.455,-1176.7674000000002,-395.7382,175,75
2026-05-09 16:14:53.617,1,-4.56,-4.86,-5.85,18.085,376.5226,-342.5682,175,75
2026-05-09 16:14:53.629,1,-0.92,2.93,-1.02,-157.215,787.6826000000001,-85.3682,175,75
2026-05-09 16:14:53.653,1,0.18,-1.57,4.24,-37.885,302.3126,7.4318,175,75
2026-05-09 16:14:53.691,1,-0.69,1.13,-0.78,35.345,-323.7174,-38.7882,175,75
2026-05-09 16:14:53.701,1,-0.47,0.09,-1.49,33.575,-105.1874,51.641799999999996,175,75
2026-05-09 16:14:53.713,1,-0.38,-0.68,-0.77,29.795,151.6426,-32.0782,175,75
2026-05-09 16:14:53.737,1,0.18,0.24,2.11,32.785,103.5326,-13.418199999999999,175,75
2026-05-09 16:14:53.753,1,0.24,0.15,1.94,21.315,-5.3074,-21.7782,175,75
2026-05-09 16:14:53.763,1,0.17,0.19,1.23,2.355,-60.487399999999994,-26.408199999999997,175,75
2026-05-09 16:14:53.774,1,0.15,0.31,0.57,-7.645,-49.3274,-19.5182,175,75
2026-05-09 16:14:53.792,1,0.34,0.38,0.66,-22.095,36.5226,-0.6181999999999999,175,75
2026-05-09 16:14:53.804,1,0.33,0.31,0.86,-27.275,40.8526,4.441800000000001,175,75
2026-05-09 16:14:53.818,1,0.21,0.24,1.02,-40.265,21.7626,5.7918,175,75
2026-05-09 16:14:53.818,1,0.07,0.24,0.96,-53.195,7.012599999999999,9.511800000000001,175,75
2026-05-09 16:14:53.831,1,-0.02,0.29,0.82,-68.015,-0.48740000000000006,15.1218,175,75
2026-05-09 16:14:53.845,1,-0.11,0.35,0.71,-84.655,3.9625999999999997,26.7618,175,75
2026-05-09 16:14:53.856,1,-0.2,0.36,0.72,-104.655,30.3026,43.7118,175,75
2026-05-09 16:14:53.866,1,-0.2,0.36,0.83,-113.925,53.6526,56.581799999999994,175,75
2026-05-09 16:14:53.893,1,-0.05,0.08,1.38,-139.235,63.5326,89.0818,175,75
2026-05-09 16:14:53.903,1,0.05,-0.47,1.48,-142.035,58.2326,94.32180000000001,175,75
2026-05-09 16:14:53.915,1,0.15,-1.27,1.1,-136.915,9.3826,94.32180000000001,175,75
2026-05-09 16:14:53.925,1,0.06,-1.32,0.7,-138.375,35.9726,81.5818,175,75
2026-05-09 16:14:53.929,1,-0.34,-1.59,0.8,-141.305,86.7026,100.3018,175,75
2026-05-09 16:14:53.945,1,-0.49,-1.99,1.14,-177.525,102.9226,111.40180000000001,175,75
2026-05-09 16:14:53.954,1,-0.34,-1.6,0.94,-222.465,36.0326,112.1918,175,75
2026-05-09 16:14:53.968,1,-0.44,-1.6,-0.0,-275.265,-14.6374,125.3018,175,75
2026-05-09 16:14:53.974,1,-0.77,-1.56,-0.62,-318.435,-29.577399999999997,127.3118,175,75
2026-05-09 16:14:53.995,1,-0.52,-0.62,-0.32,-290.695,56.4026,141.09179999999998,175,75
2026-05-09 16:14:54.010,1,0.67,-0.44,-0.31,-262.585,50.6026,114.9918,175,75
2026-05-09 16:14:54.021,1,-1.91,-0.15,-1.3,-301.605,-239.93740000000003,77.9218,175,75
2026-05-09 16:14:54.033,1,-1.85,0.03,-2.25,-333.375,-84.3274,159.6918,175,75
2026-05-09 16:14:54.055,1,-1.01,0.02,-0.42,-311.365,114.8726,166.6418,175,75
2026-05-09 16:14:54.067,1,-0.53,0.32,0.51,-259.235,141.15259999999998,152.1318,175,75
2026-05-09 16:14:54.077,1,0.03,0.34,1.12,-235.205,131.4026,153.8318,175,75
2026-05-09 16:14:54.087,1,0.48,0.29,1.62,-217.705,26.4026,107.43180000000001,175,75
2026-05-09 16:14:54.099,1,0.53,0.39,1.49,-217.585,-46.7074,67.1918,175,75
2026-05-09 16:14:54.116,1,0.49,0.58,1.35,-204.475,-61.287400000000005,45.6618,175,75
2026-05-09 16:14:54.126,1,0.49,0.78,1.28,-186.665,-86.8974,34.141799999999996,175,75
2026-05-09 16:14:54.126,1,0.28,1.05,1.17,-158.985,-114.6374,28.1618,175,75
2026-05-09 16:14:54.147,1,0.16,1.22,1.19,-118.555,-109.6974,29.3218,175,75
2026-05-09 16:14:54.147,1,0.43,1.23,1.3,-60.815,-68.5974,19.2618,175,75
2026-05-09 16:14:54.159,1,0.68,1.1,1.41,2.6550000000000002,-31.287399999999998,-5.7382,175,75
2026-05-09 16:14:54.170,1,0.76,0.96,1.46,50.955,2.9225999999999996,-27.2582,175,75
2026-05-09 16:14:54.183,1,0.8,0.82,1.56,97.785,46.5226,-48.0582,175,75
2026-05-09 16:14:54.199,1,0.84,0.79,2.02,177.905,107.9226,-82.92819999999999,175,75
2026-05-09 16:14:54.209,1,0.84,0.82,2.26,215.225,93.7826,-93.59819999999999,175,75
2026-05-09 16:14:54.237,1,0.78,0.77,2.35,244.485,58.5926,-107.2582,175,75
2026-05-09 16:14:54.248,1,0.75,0.68,2.32,268.455,15.1826,-121.4082,175,75
2026-05-09 16:14:54.258,1,0.62,0.58,2.12,289.005,-21.5274,-134.0882,175,75
2026-05-09 16:14:54.259,1,0.56,0.46,1.92,307.415,-38.5974,-148.4182,175,75
2026-05-09 16:14:54.271,1,0.59,0.4,1.82,324.675,-33.9674,-159.4582,175,75
2026-05-09 16:14:54.271,1,0.55,0.39,1.82,338.395,-26.647399999999998,-164.2082,175,75
2026-05-09 16:14:54.284,1,0.48,0.42,1.85,353.145,-32.3174,-156.5882,175,75
2026-05-09 16:14:54.317,1,0.25,0.54,1.66,392.965,-120.0074,-158.72820000000002,175,75
2026-05-09 16:14:54.331,1,-0.05,0.64,1.25,415.405,-163.0474,-167.0782,175,75
2026-05-09 16:14:54.352,1,-0.05,0.49,1.13,415.705,-172.50740000000002,-175.12820000000002,175,75
2026-05-09 16:14:54.363,1,-0.21,0.11,0.92,408.515,-190.7974,-190.18820000000002,175,75
2026-05-09 16:14:54.374,1,-0.47,-0.2,0.61,396.315,-200.5474,-222.9882,175,75
2026-05-09 16:14:54.386,1,-0.82,-0.37,0.17,387.535,-176.7074,-247.1382,175,75
2026-05-09 16:14:54.403,1,-1.36,-0.88,-0.97,353.695,-48.1074,-202.7482,175,75
2026-05-09 16:14:54.409,1,-1.06,-0.98,-1.16,320.155,8.5926,-157.1982,175,75
2026-05-09 16:14:54.422,1,-1.09,-0.18,-0.6,279.795,102.2526,-123.7282,175,75
2026-05-09 16:14:54.435,1,-0.75,0.12,-0.01,217.295,100.6026,-88.6682,175,75
2026-05-09 16:14:54.438,1,-4.81,0.53,-0.53,122.415,-385.67740000000003,-85.3082,175,75
2026-05-09 16:14:54.454,1,-15.73,-1.37,-0.06,-53.745,-461.7074,-206.7782,175,75
2026-05-09 16:14:54.466,1,16.27,-2.27,-0.77,-380.935,328.5926,1714.0818000000002,175,75
2026-05-09 16:14:54.476,1,-5.43,-3.95,-4.66,-88.745,-526.5274,-297.7482,175,75
2026-05-09 16:14:54.487,1,-0.9,2.31,-1.67,-293.495,483.9626,189.6318,175,75
2026-05-09 16:14:54.499,1,-1.85,1.64,2.65,-425.085,86.6426,140.5418,175,75
2026-05-09 16:14:54.545,1,-1.48,1.46,-0.08,5.645,-281.9574,3.9018,175,75
2026-05-09 16:14:54.557,1,-0.73,-1.29,-0.81,-82.275,15.302599999999998,86.40180000000001,175,75
2026-05-09 16:14:54.583,1,-0.82,0.28,0.39,-8.625,75.1226,40.1218,175,75
2026-05-09 16:14:54.594,1,-0.89,-0.72,0.11,25.285,100.4826,2.7418,175,75
2026-05-09 16:14:54.621,1,-0.41,-0.7,0.18,32.905,70.4826,-24.5782,175,75
2026-05-09 16:14:54.621,1,-0.18,-1.16,0.43,48.085,102.1926,-13.3582,175,75
2026-05-09 16:14:54.630,1,-0.05,-1.84,0.7,58.335,98.1026,-10.368199999999998,175,75
2026-05-09 16:14:54.660,1,0.25,-2.14,1.48,41.375,146.7626,-11.4682,175,75
2026-05-09 16:14:54.665,1,0.33,-1.61,2.11,52.175,192.49259999999998,-5.7982000000000005,175,75
2026-05-09 16:14:54.680,1,0.61,-0.78,2.77,51.805,200.06259999999997,6.5818,175,75
2026-05-09 16:14:54.695,1,0.41,0.02,2.78,52.965,185.6726,7.6818,175,75
2026-05-09 16:14:54.706,1,0.18,0.3,2.54,48.265,122.8626,16.5218,175,75
2026-05-09 16:14:54.744,1,-0.42,0.56,0.56,-108.865,78.1026,68.96180000000001,175,75
2026-05-09 16:14:54.757,1,0.37,0.72,1.33,-52.275,165.12259999999998,74.3818,175,75
2026-05-09 16:14:54.774,1,0.6,0.63,2.1,8.395,86.2126,50.9118,175,75
2026-05-09 16:14:54.784,1,0.57,0.62,2.12,34.675,89.1426,45.3018,175,75
2026-05-09 16:14:54.791,1,0.74,0.71,2.21,39.735,77.9226,30.791800000000002,175,75
2026-05-09 16:14:54.803,1,0.69,0.99,2.24,60.585,49.9926,16.1518,175,75
2026-05-09 16:14:54.814,1,0.62,1.13,2.04,90.895,33.9026,9.1418,175,75
2026-05-09 16:14:54.834,1,0.53,1.24,1.82,126.685,24.4526,-3.4782,175,75
2026-05-09 16:14:54.834,1,0.44,1.28,1.63,155.035,8.352599999999999,-10.618199999999998,175,75
2026-05-09 16:14:54.846,1,0.38,1.22,1.44,176.625,-7.3174,-16.958199999999998,175,75
2026-05-09 16:14:54.858,1,0.39,1.01,1.23,194.735,-25.5474,-30.558199999999996,175,75
2026-05-09 16:14:54.869,1,0.32,0.83,1.01,206.565,-40.547399999999996,-48.7882,175,75
2026-05-09 16:14:54.887,1,0.3,0.71,0.87,210.095,-27.3774,-65.12819999999999,175,75
2026-05-09 16:14:54.887,1,0.31,0.66,0.83,213.635,-16.7674,-78.4782,175,75
2026-05-09 16:14:54.921,1,1.01,0.27,1.03,206.195,79.0226,-84.2782,175,75
2026-05-09 16:14:54.933,1,-0.33,0.43,0.69,171.505,-126.8274,-62.19820000000001,175,75
2026-05-09 16:14:54.940,1,-6.55,0.71,-0.45,45.585,-899.5774,-125.48819999999999,175,75
2026-05-09 16:14:54.953,1,-10.63,-0.14,-3.82,-15.265,-392.1974,-10.188199999999998,175,75
2026-05-09 16:14:54.966,1,7.14,0.71,-6.31,-194.905,-373.7174,1219.3218000000002,175,75
2026-05-09 16:14:54.988,1,2.68,0.25,0.69,-234.045,190.3626,254.5118,175,75
2026-05-09 16:14:55.008,1,-0.87,-4.42,1.72,-75.205,105.1226,57.0118,175,75
2026-05-09 16:14:55.028,1,-0.3,0.64,-1.14,-89.655,-179.5774,-17.4482,175,75
2026-05-09 16:14:55.028,1,-1.1,0.84,-1.38,-92.585,-10.737400000000001,84.4418,175,75
2026-05-09 16:14:55.050,1,-1.23,0.21,-0.4,-0.7549999999999999,160.5426,38.1018,175,75
2026-05-09 16:14:55.075,1,-1.11,-0.36,0.39,55.835,98.3526,-8.728200000000001,175,75
2026-05-09 16:14:55.084,1,-1.32,-0.44,0.3,64.485,53.2926,-43.2982,175,75
2026-05-09 16:14:55.108,1,-1.24,-1.24,0.4,114.005,82.2526,-65.73819999999999,175,75
2026-05-09 16:14:55.119,1,-0.47,-1.27,0.96,131.505,162.0726,-56.0382,175,75
2026-05-09 16:14:55.144,1,0.45,-1.0,3.17,106.075,349.8126,19.0818,175,75
2026-05-09 16:14:55.156,1,0.18,-0.63,3.33,22.655,315.1226,45.2418,175,75
2026-05-09 16:14:55.166,1,-0.51,0.01,2.3,-70.445,222.9826,42.251799999999996,175,75
2026-05-09 16:14:55.178,1,-0.98,0.12,0.55,-184.715,165.9726,87.1318,175,75
2026-05-09 16:14:55.178,1,-1.59,-0.53,-1.11,-331.915,152.31259999999997,176.3318,175,75
2026-05-09 16:14:55.199,1,-1.61,-2.18,-1.59,-435.445,283.4126,265.2418,175,75
2026-05-09 16:14:55.210,1,-0.61,-3.18,0.35,-456.425,345.7326,290.97180000000003,175,75
2026-05-09 16:14:55.221,1,-0.69,-2.32,0.51,-473.625,47.7426,186.09179999999998,175,75
2026-05-09 16:14:55.229,1,-0.61,-1.43,-0.57,-542.275,179.75259999999997,168.2918,175,75
2026-05-09 16:14:55.248,1,0.02,-1.03,0.29,-551.795,220.3626,211.52179999999998,175,75
2026-05-09 16:14:55.248,1,0.21,-0.87,1.13,-500.875,129.08259999999999,188.96179999999998,175,75
2026-05-09 16:14:55.264,1,0.2,-0.61,1.49,-472.405,80.7326,165.12179999999998,175,75
2026-05-09 16:14:55.277,1,0.28,-0.53,1.72,-463.985,58.8426,157.2518,175,75
2026-05-09 16:14:55.288,1,0.42,-0.08,2.05,-443.865,-1.3474000000000004,126.6418,175,75
2026-05-09 16:14:55.301,1,0.49,0.37,2.12,-422.765,-31.157400000000003,125.4818,175,75
2026-05-09 16:14:55.308,1,0.47,0.52,2.24,-388.865,-44.7574,131.52179999999998,175,75
2026-05-09 16:14:55.327,1,0.57,0.42,2.5,-322.885,-34.2074,130.5418,175,75
2026-05-09 16:14:55.327,1,0.9,0.55,2.5,-289.655,-53.3574,122.01180000000001,175,75
2026-05-09 16:14:55.341,1,0.98,0.79,2.2,-252.885,-111.3474,114.1418,175,75
2026-05-09 16:14:55.351,1,0.75,0.88,1.85,-203.685,-141.34740000000002,100.9718,175,75
2026-05-09 16:14:55.364,1,0.55,0.92,1.42,-144.775,-98.4774,64.3818,175,75
2026-05-09 16:14:55.389,1,0.68,0.98,1.52,-19.235,5.0626,29.4418,175,75
2026-05-09 16:14:55.402,1,0.74,1.08,1.73,40.955,14.9926,9.261800000000001,175,75
2026-05-09 16:14:55.412,1,0.73,1.11,1.78,103.455,0.7325999999999997,-10.488199999999999,175,75
2026-05-09 16:14:55.419,1,0.69,1.05,1.7,141.565,-5.0674,-24.0282,175,75
2026-05-09 16:14:55.434,1,0.57,0.9,1.41,197.295,0.6725999999999992,-52.3782,175,75
2026-05-09 16:14:55.448,1,0.5,0.85,1.28,251.315,23.2326,-71.4082,175,75
2026-05-09 16:14:55.465,1,0.45,0.8,1.26,283.265,31.7626,-75.48819999999999,175,75
2026-05-09 16:14:55.487,1,0.34,0.59,1.27,346.505,20.7926,-88.23819999999999,175,75
2026-05-09 16:14:55.511,1,0.11,0.21,1.26,406.565,-31.9574,-111.09819999999999,175,75
2026-05-09 16:14:55.536,1,0.05,0.03,1.2,432.655,-63.4174,-129.2782,175,75
2026-05-09 16:14:55.536,1,0.04,-0.08,1.19,442.595,-71.5274,-136.8982,175,75
2026-05-09 16:14:55.564,1,0.04,-0.44,1.17,454.485,-112.2574,-155.3082,175,75
2026-05-09 16:14:55.575,1,-0.06,-0.62,1.11,457.965,-135.8574,-163.1782,175,75
2026-05-09 16:14:55.597,1,-0.44,-1.03,0.64,447.595,-174.3274,-237.31820000000002,175,75
2026-05-09 16:14:55.608,1,0.03,-0.97,0.37,450.155,-159.6374,-241.1682,175,75
2026-05-09 16:14:55.620,1,-0.22,-0.75,0.24,443.635,-200.97740000000002,-230.6182,175,75
2026-05-09 16:14:55.642,1,-0.55,-1.22,-0.52,412.235,-66.5274,-235.4282,175,75
2026-05-09 16:14:55.654,1,-0.22,-1.35,-0.38,395.645,-20.6774,-218.72820000000002,175,75
2026-05-09 16:14:55.664,1,-0.46,-1.2,0.38,358.755,-8.787400000000002,-170.06820000000002,175,75
2026-05-09 16:14:55.681,1,-6.82,0.84,-1.8,91.375,-441.2874,-51.168200000000006,175,75
2026-05-09 16:14:55.694,1,-2.78,1.36,-5.41,-88.015,-373.4174,258.22180000000003,175,75
2026-05-09 16:14:55.723,1,-0.8,-1.12,0.52,-90.385,525.3626,62.251799999999996,175,75
2026-05-09 16:14:55.734,1,-1.38,-0.58,2.95,-127.88499999999999,433.9626,157.2518,175,75
2026-05-09 16:14:55.757,1,-0.27,-4.07,3.52,-80.935,-76.0374,30.791800000000002,175,75
2026-05-09 16:14:55.768,1,0.97,-0.28,1.07,-110.325,-292.6274,-26.5282,175,75
2026-05-09 16:14:55.779,1,-1.03,1.02,-0.56,-93.985,-212.1374,-1.1681999999999997,175,75
2026-05-09 16:14:55.792,1,-0.75,0.36,-0.48,-68.805,38.9026,92.01180000000001,175,75
2026-05-09 16:14:55.804,1,-0.98,-0.4,-0.2,-20.145,133.90259999999998,69.32180000000001,175,75
2026-05-09 16:14:55.809,1,-0.75,0.09,0.57,-1.245,145.7926,20.9118,175,75
2026-05-09 16:14:55.821,1,-0.72,-0.0,0.88,7.115,119.0226,19.631800000000002,175,75
2026-05-09 16:14:55.836,1,-0.82,-0.38,0.79,26.445,80.8526,-5.4882,175,75
2026-05-09 16:14:55.848,1,-0.83,-0.59,0.69,38.455,91.2126,-25.068199999999997,175,75
2026-05-09 16:14:55.858,1,-0.51,-0.7,0.78,35.225,111.2126,-27.138199999999998,175,75
2026-05-09 16:14:55.871,1,-0.15,-0.81,1.03,41.745,121.1526,-25.618199999999998,175,75
2026-05-09 16:14:55.871,1,-0.33,-0.91,1.09,39.795,97.4926,-24.5782,175,75
2026-05-09 16:14:55.883,1,0.31,-0.93,1.67,27.475,145.6726,-23.4182,175,75
2026-05-09 16:14:55.896,1,-0.01,-0.77,1.81,32.355000000000004,105.6726,-19.1482,175,75
2026-05-09 16:14:55.907,1,0.26,-0.82,1.74,21.375,117.2526,-8.118199999999998,175,75
2026-05-09 16:14:55.917,1,0.15,-0.73,1.78,16.505000000000003,129.3926,1.4018000000000002,175,75
2026-05-09 16:14:55.928,1,0.2,-0.28,1.81,16.375,154.1426,11.151800000000001,175,75
2026-05-09 16:14:55.939,1,-0.05,0.14,1.89,14.615,170.9126,22.5518,175,75
2026-05-09 16:14:55.950,1,0.01,0.51,1.83,4.795,191.7026,42.1918,175,75
2026-05-09 16:14:55.962,1,-0.06,0.72,1.67,-22.465,118.04260000000001,38.3518,175,75
2026-05-09 16:14:55.980,1,-0.08,0.73,1.39,-39.965,56.8226,54.2018,175,75
2026-05-09 16:14:55.990,1,-0.05,0.57,1.22,-41.185,32.8626,55.721799999999995,175,75
2026-05-09 16:14:56.018,1,0.53,0.93,1.45,36.135,21.7026,4.8718,175,75
2026-05-09 16:14:56.030,1,0.67,0.95,1.52,62.725,-5.4874,-16.958199999999998,175,75
2026-05-09 16:14:56.041,1,0.62,0.92,1.52,75.835,-43.3574,-30.918200000000002,175,75
2026-05-09 16:14:56.054,1,0.59,0.75,1.5,86.865,-79.6374,-48.7882,175,75
2026-05-09 16:14:56.065,1,0.54,0.69,1.51,90.225,-115.9174,-60.7982,175,75
2026-05-09 16:14:56.076,1,0.47,0.71,1.52,91.195,-137.9274,-63.2382,175,75
2026-05-09 16:14:56.099,1,0.41,0.49,1.93,105.345,-137.8674,-72.31819999999999,175,75
2026-05-09 16:14:56.099,1,0.01,0.49,1.34,88.145,-271.7074,-63.05820000000001,175,75
2026-05-09 16:14:56.109,1,-4.02,0.99,-1.03,-11.305,-989.0874,-103.4782,175,75
2026-05-09 16:14:56.121,1,-5.85,1.93,-5.11,-50.515,-252.0174,292.5518,175,75
2026-05-09 16:14:56.132,1,2.96,-2.75,-2.12,-313.985,64.26259999999999,128.2218,175,75
2026-05-09 16:14:56.145,1,-1.28,0.34,0.65,-130.325,412.07259999999997,-3.8481999999999994,175,75
2026-05-09 16:14:56.164,1,0.97,1.05,1.8,-100.635,363.1726,112.9218,175,75
2026-05-09 16:14:56.176,1,-0.27,-1.01,2.13,-55.205,269.9326,153.59179999999998,175,75
2026-05-09 16:14:56.189,1,0.12,-2.15,2.75,-39.235,-33.1074,40.0518,175,75
2026-05-09 16:14:56.210,1,-0.59,-0.02,-0.99,-35.875,-66.1574,35.1218,175,75
2026-05-09 16:14:56.235,1,-0.74,-0.33,-0.55,-5.995,67.01259999999999,20.4818,175,75
2026-05-09 16:14:56.235,1,-1.12,-0.27,0.05,26.375,97.9826,7.0718000000000005,175,75
2026-05-09 16:14:56.246,1,-0.8,-0.53,0.35,63.945,73.4726,-2.5682,175,75
2026-05-09 16:14:56.256,1,-0.86,-1.04,0.27,82.055,50.7926,-34.7582,175,75
2026-05-09 16:14:56.274,1,-1.1,-1.13,0.19,105.955,65.9126,-58.5382,175,75
2026-05-09 16:14:56.286,1,-0.81,-1.14,0.48,133.695,128.5326,-57.0182,175,75
2026-05-09 16:14:56.308,1,-0.27,-0.85,1.23,157.595,192.31259999999997,-44.638200000000005,175,75
2026-05-09 16:14:56.330,1,-0.33,0.42,2.72,-6.605,285.3626,29.9918,175,75
2026-05-09 16:14:56.330,1,-0.92,1.12,1.56,-109.165,258.9026,55.721799999999995,175,75
2026-05-09 16:14:56.353,1,-0.95,0.22,-0.36,-253.015,243.78259999999997,132.0718,175,75
2026-05-09 16:14:56.374,1,-1.46,-1.76,-1.53,-426.855,349.0826,250.9718,175,75
2026-05-09 16:14:56.396,1,0.44,-3.06,0.96,-411.665,261.0326,216.8818,175,75
2026-05-09 16:14:56.408,1,-0.69,-1.96,0.45,-507.705,87.2526,158.3518,175,75
2026-05-09 16:14:56.418,1,0.45,-0.98,0.31,-528.805,210.6726,172.49179999999998,175,75
2026-05-09 16:14:56.418,1,0.51,-0.99,0.92,-489.965,149.93259999999998,169.02179999999998,175,75
2026-05-09 16:14:56.436,1,0.7,-0.8,1.41,-449.775,105.0626,149.7518,175,75
2026-05-09 16:14:56.446,1,0.75,-0.58,1.54,-439.595,36.5826,133.65179999999998,175,75
2026-05-09 16:14:56.459,1,0.53,-0.34,1.47,-415.085,1.4625999999999992,122.8618,175,75
2026-05-09 16:14:56.472,1,0.44,-0.16,1.63,-397.945,-21.037399999999998,104.57180000000001,175,75
2026-05-09 16:14:56.479,1,0.45,0.26,1.79,-371.245,-63.657399999999996,105.9718,175,75
2026-05-09 16:14:56.493,1,0.44,0.56,1.8,-340.695,-103.8474,114.0218,175,75
2026-05-09 16:14:56.507,1,0.36,0.7,1.7,-303.255,-131.8974,122.01180000000001,175,75
2026-05-09 16:14:56.529,1,0.48,0.73,1.29,-169.965,-88.7174,80.12180000000001,175,75
2026-05-09 16:14:56.541,1,0.41,0.9,1.34,-130.875,-76.4674,58.901799999999994,175,75
2026-05-09 16:14:56.554,1,0.45,1.11,1.4,-83.195,-58.537400000000005,32.0118,175,75
2026-05-09 16:14:56.566,1,0.54,1.29,1.42,-39.355,-55.9774,10.3618,175,75
2026-05-09 16:14:56.576,1,0.55,1.42,1.38,13.875,-57.5074,-8.9682,175,75
2026-05-09 16:14:56.605,1,0.51,1.37,1.15,136.255,-9.6374,-55.7982,175,75
2026-05-09 16:14:56.633,1,0.42,1.15,1.13,232.965,33.9026,-90.12819999999999,175,75
2026-05-09 16:14:56.682,1,0.33,0.84,1.31,313.515,45.1226,-109.6382,175,75
2026-05-09 16:14:56.704,1,0.32,0.59,1.4,344.615,17.3126,-117.6882,175,75
2026-05-09 16:14:56.708,1,0.31,0.48,1.42,353.515,2.0125999999999995,-120.42819999999999,175,75
2026-05-09 16:14:56.719,1,0.29,0.36,1.41,360.405,-21.287399999999998,-122.98819999999999,175,75
2026-05-09 16:14:56.729,1,0.25,0.23,1.38,367.655,-46.7674,-126.95819999999999,175,75
2026-05-09 16:14:56.739,1,0.23,0.1,1.3,374.005,-67.0174,-136.28820000000002,175,75
2026-05-09 16:14:56.751,1,0.22,0.02,1.19,376.255,-85.4274,-142.9882,175,75
2026-05-09 16:14:56.764,1,0.18,-0.08,1.08,379.425,-105.7374,-154.3382,175,75
2026-05-09 16:14:56.764,1,0.15,-0.13,0.95,381.805,-114.8174,-168.0582,175,75
2026-05-09 16:14:56.785,1,0.21,-0.3,0.83,387.235,-110.2474,-194.75820000000002,175,75
2026-05-09 16:14:56.828,1,0.12,-1.1,0.75,371.075,-109.8174,-239.6382,175,75
2026-05-09 16:14:56.841,1,0.09,-1.21,0.63,365.095,-82.7474,-227.8682,175,75
2026-05-09 16:14:56.854,1,-5.14,-0.48,-2.02,240.095,-928.9073999999999,-228.9682,175,75
2026-05-09 16:14:56.869,1,-10.82,-1.83,-2.82,63.145,-412.6274,-53.358200000000004,175,75
2026-05-09 16:14:56.879,1,-5.34,-0.22,-6.19,-164.355,-744.3274,306.64180000000005,175,75
2026-05-09 16:14:56.890,1,3.33,1.05,-3.25,-228.315,376.5226,261.7618,175,75
2026-05-09 16:14:56.900,1,-1.88,-0.93,0.71,21.255,806.7626,-53.668200000000006,175,75
2026-05-09 16:14:56.900,1,-3.48,-0.08,3.58,-125.875,401.0326,98.35180000000001,175,75
2026-05-09 16:14:56.917,1,4.92,-2.86,1.64,-15.204999999999998,557.0726000000001,279.14180000000005,175,75
2026-05-09 16:14:56.929,1,-1.47,-5.47,4.11,32.785,78.1026,35.541799999999995,175,75
2026-05-09 16:14:56.942,1,1.47,0.29,1.97,-62.765,-382.3174,-54.638200000000005,175,75
2026-05-09 16:14:56.942,1,-1.07,0.95,0.14,-75.995,-180.3674,-2.3182,175,75
2026-05-09 16:14:56.963,1,-1.39,0.05,-0.62,-61.795,-113.9074,11.881800000000002,175,75
2026-05-09 16:14:56.963,1,-1.43,-0.05,-0.16,-59.165,18.5926,3.8318000000000003,175,75
2026-05-09 16:14:56.975,1,-1.04,-0.01,0.22,-18.375,100.9726,10.421800000000001,175,75
2026-05-09 16:14:56.985,1,-0.51,-0.53,0.57,22.235,132.3126,15.241800000000001,175,75
2026-05-09 16:14:57.001,1,-0.19,-1.06,0.36,42.725,132.43259999999998,-10.8582,175,75
2026-05-09 16:14:57.013,1,0.04,-0.5,0.86,47.785,146.03259999999997,-29.518199999999997,175,75
2026-05-09 16:14:57.030,1,0.22,-0.7,1.31,37.785,153.84259999999998,-6.1682,175,75
2026-05-09 16:14:57.052,1,0.53,-0.74,1.71,20.955,98.7826,-15.3082,175,75
2026-05-09 16:14:57.063,1,0.52,-0.59,1.75,12.725,92.3726,-10.738199999999999,175,75
2026-05-09 16:14:57.076,1,0.53,-0.48,1.85,5.645,94.4526,-9.578199999999999,175,75
2026-05-09 16:14:57.087,1,0.3,-0.22,2.06,-3.745,94.5726,-0.3081999999999998,175,75
2026-05-09 16:14:57.098,1,0.26,-0.04,2.12,-7.095,98.5326,13.3518,175,75
2026-05-09 16:14:57.110,1,0.02,0.32,1.79,-24.655,71.2126,36.331799999999994,175,75
2026-05-09 16:14:57.121,1,-0.17,0.54,1.21,-61.665,8.4726,33.5318,175,75
2026-05-09 16:14:57.131,1,-0.01,0.51,0.81,-108.015,-9.2074,41.641799999999996,175,75
2026-05-09 16:14:57.144,1,0.31,0.55,0.79,-100.935,-13.357399999999998,30.0518,175,75
2026-05-09 16:14:57.155,1,0.37,0.88,0.8,-74.415,-53.1774,-1.0981999999999994,175,75
2026-05-09 16:14:57.166,1,0.3,1.39,0.78,-46.365,-64.0874,-18.118199999999998,175,75
2026-05-09 16:14:57.176,1,0.58,1.6,1.06,-12.465,-22.4374,-31.9582,175,75
2026-05-09 16:14:57.176,1,1.03,1.67,1.62,45.895,-8.2974,-61.528200000000005,175,75
2026-05-09 16:14:57.190,1,1.03,1.66,1.86,110.095,-108.4774,-107.0782,175,75
2026-05-09 16:14:57.209,1,0.73,1.19,1.6,124.915,-141.15740000000002,-120.8582,175,75
2026-05-09 16:14:57.231,1,0.73,0.4,1.93,144.125,-99.9374,-120.9782,175,75
2026-05-09 16:14:57.249,1,-4.31,0.42,-1.89,32.295,-756.8274,-114.0882,175,75
2026-05-09 16:14:57.261,1,-2.68,-0.84,-4.5,-185.815,-414.4574,274.08180000000004,175,75
2026-05-09 16:14:57.284,1,-0.41,-1.09,-0.26,-230.205,372.13259999999997,-23.908199999999997,175,75
2026-05-09 16:14:57.301,1,-1.61,-0.27,1.85,-119.715,245.6726,-32.138200000000005,175,75
2026-05-09 16:14:57.310,1,-0.79,0.83,1.8,50.645,349.0826,169.5718,175,75
2026-05-09 16:14:57.323,1,0.55,-2.01,2.64,1.195,262.19259999999997,148.65179999999998,175,75
2026-05-09 16:14:57.332,1,0.58,-1.85,1.6,-20.145,-56.4074,-3.1781999999999995,175,75
2026-05-09 16:14:57.369,1,0.07,-0.76,-0.17,-45.635,-41.3474,9.6318,175,75
2026-05-09 16:14:57.369,1,-0.46,-0.91,0.32,-45.385,-3.5374000000000008,0.9118000000000004,175,75
2026-05-09 16:14:57.380,1,-0.73,-0.59,0.48,-38.925,1.6425999999999998,-21.5882,175,75
2026-05-09 16:14:57.391,1,-0.73,-0.2,0.3,-18.435,-5.0074,-26.708199999999998,175,75
2026-05-09 16:14:57.391,1,-0.49,-0.35,0.15,-1.055,1.4025999999999996,-29.278200000000002,175,75
2026-05-09 16:14:57.402,1,-0.43,-0.41,-0.13,30.405,10.6726,-55.858200000000004,175,75
2026-05-09 16:14:57.412,1,-0.41,-0.28,-0.02,54.185,39.5726,-66.28819999999999,175,75
2026-05-09 16:14:57.461,1,0.33,-0.06,1.14,112.595,58.9626,-58.4782,175,75
2026-05-09 16:14:57.474,1,0.11,0.21,2.07,53.815,74.3926,-46.2282,175,75
2026-05-09 16:14:57.484,1,0.17,0.21,2.75,-26.735,41.5826,-8.728200000000001,175,75
2026-05-09 16:14:57.496,1,-0.15,0.39,1.91,-105.445,-65.2474,16.7618,175,75
2026-05-09 16:14:57.507,1,-0.4,0.05,-0.0,-225.145,-99.2674,51.151799999999994,175,75
2026-05-09 16:14:57.522,1,-0.64,-0.47,-1.06,-334.965,-39.2674,101.6418,175,75
2026-05-09 16:14:57.532,1,-0.57,-1.26,-1.32,-413.745,73.5326,153.1018,175,75
2026-05-09 16:14:57.532,1,-0.13,-2.1,0.19,-437.215,152.68259999999998,163.2218,175,75
2026-05-09 16:14:57.553,1,0.39,-2.09,1.14,-482.095,-52.3174,134.1418,175,75
2026-05-09 16:14:57.566,1,-0.41,-1.06,-0.13,-538.015,-159.4574,55.6618,175,75
2026-05-09 16:14:57.587,1,0.11,-0.07,0.24,-466.855,-20.3074,89.26180000000001,175,75
2026-05-09 16:14:57.597,1,0.24,0.12,0.86,-425.935,-18.4774,77.9218,175,75
2026-05-09 16:14:57.610,1,0.32,0.41,1.08,-410.025,-26.897399999999998,71.21180000000001,175,75
2026-05-09 16:14:57.626,1,0.21,0.52,1.23,-382.465,-30.8574,64.3818,175,75
2026-05-09 16:14:57.626,1,0.2,0.56,1.31,-360.635,-44.9374,59.2618,175,75
2026-05-09 16:14:57.638,1,0.21,0.65,1.38,-343.865,-64.6974,60.971799999999995,175,75
2026-05-09 16:14:57.668,1,0.32,0.8,1.44,-286.185,-86.70739999999999,53.4118,175,75
2026-05-09 16:14:57.669,1,0.35,0.82,1.36,-260.935,-91.6474,37.251799999999996,175,75
2026-05-09 16:14:57.685,1,0.38,0.84,1.14,-225.445,-109.0874,19.931800000000003,175,75
2026-05-09 16:14:57.689,1,0.24,0.9,0.92,-181.185,-95.8574,1.1518000000000002,175,75
2026-05-09 16:14:57.726,1,0.23,0.99,1.02,-49.165,29.5126,-58.5382,175,75
2026-05-09 16:14:57.736,1,0.25,1.01,1.22,-4.845,62.7426,-71.1682,175,75
2026-05-09 16:14:57.753,1,0.3,1.01,1.42,40.895,85.6726,-82.0782,175,75
2026-05-09 16:14:57.769,1,0.34,1.0,1.56,86.745,85.1826,-94.81819999999999,175,75
2026-05-09 16:14:57.779,1,0.3,0.96,1.54,127.355,64.0826,-108.1182,175,75
2026-05-09 16:14:57.790,1,0.26,0.86,1.44,159.065,53.6526,-117.31819999999999,175,75
2026-05-09 16:14:57.800,1,0.25,0.73,1.32,202.235,46.952600000000004,-132.0782,175,75
2026-05-09 16:14:57.811,1,0.28,0.67,1.32,226.255,43.6526,-142.1382,175,75
2026-05-09 16:14:57.811,1,0.3,0.61,1.3,245.405,41.0926,-149.0282,175,75
2026-05-09 16:14:57.823,1,0.31,0.54,1.23,265.345,37.0126,-156.40820000000002,175,75
2026-05-09 16:14:57.832,1,0.32,0.49,1.2,279.735,27.6826,-164.2082,175,75
2026-05-09 16:14:57.885,1,0.38,0.21,1.18,315.895,-37.0774,-182.8082,175,75
2026-05-09 16:14:57.887,1,0.33,0.07,1.2,314.795,-71.3474,-189.75820000000002,175,75
2026-05-09 16:14:57.902,1,0.27,-0.08,1.22,313.335,-126.58739999999999,-210.6782,175,75
2026-05-09 16:14:57.924,1,0.23,-0.18,1.24,310.155,-163.3574,-243.1782,175,75
2026-05-09 16:14:57.932,1,0.23,-0.27,1.26,306.565,-185.24740000000003,-258.2982,175,75
2026-05-09 16:14:57.937,1,0.24,-0.4,1.3,305.645,-215.8574,-272.0182,175,75
2026-05-09 16:14:57.946,1,0.14,-0.53,1.43,300.155,-259.2074,-277.9282,175,75
2026-05-09 16:14:57.960,1,0.19,-0.65,1.66,289.915,-287.2574,-268.53819999999996,175,75
2026-05-09 16:14:57.973,1,-0.13,-1.01,1.86,256.565,-343.11740000000003,-270.7382,175,75
2026-05-09 16:14:57.981,1,-0.42,-1.03,1.62,237.785,-349.5774,-292.4482,175,75
2026-05-09 16:14:57.990,1,-0.05,-0.83,0.48,203.395,-423.5974,-285.7382,175,75
2026-05-09 16:14:58.001,1,-10.22,-0.64,-2.88,59.305,-1192.4374,-420.4282,175,75
2026-05-09 16:14:58.012,1,-4.04,0.46,-6.72,-41.665,-402.5674,330.4818,175,75
2026-05-09 16:14:58.029,1,-0.13,0.97,-2.84,-245.145,-98.0474,188.77179999999998,175,75
2026-05-09 16:14:58.050,1,-5.23,-0.29,3.6,-108.925,417.07259999999997,33.2918,175,75
2026-05-09 16:14:58.061,1,0.59,0.57,2.77,63.575,632.9226,278.90180000000004,175,75
2026-05-09 16:14:58.076,1,2.29,-6.86,2.73,114.615,159.75259999999997,172.1918,175,75
2026-05-09 16:14:58.089,1,2.13,-2.33,2.11,-61.185,-197.9874,-137.7482,175,75
2026-05-09 16:14:58.111,1,-1.74,0.36,-0.12,-46.485,-19.3974,-16.7782,175,75
2026-05-09 16:14:58.124,1,-1.41,0.32,0.3,-23.745,75.6726,2.1918,175,75
2026-05-09 16:14:58.135,1,-0.54,-0.64,0.58,19.615,69.6326,-3.4181999999999997,175,75
2026-05-09 16:14:58.147,1,-0.42,-1.07,-0.03,41.985,57.6226,-33.5382,175,75
2026-05-09 16:14:58.156,1,-0.29,-0.49,0.18,62.725,118.9626,-79.5182,175,75
2026-05-09 16:14:58.180,1,-0.05,-0.55,1.47,46.075,89.2026,-54.028200000000005,175,75
2026-05-09 16:14:58.186,1,-0.06,-0.74,1.77,39.975,19.8726,-62.5682,175,75
2026-05-09 16:14:58.214,1,0.01,-0.31,1.63,27.595,1.2125999999999992,-45.1282,175,75
2026-05-09 16:14:58.225,1,-0.16,0.03,1.5,17.115,25.1826,-15.798199999999998,175,75
2026-05-09 16:14:58.236,1,-0.14,0.19,1.48,-0.5149999999999999,47.9226,9.8118,175,75
2026-05-09 16:14:58.247,1,-0.0,0.23,1.5,-28.985,31.4026,15.4818,175,75
2026-05-09 16:14:58.258,1,-0.16,0.36,1.36,-50.205,0.8525999999999998,13.5318,175,75
2026-05-09 16:14:58.269,1,-0.68,0.69,1.16,-64.165,-29.937399999999997,20.4818,175,75
2026-05-09 16:14:58.286,1,-0.35,0.55,0.83,-62.765,2.1925999999999997,20.1218,175,75
2026-05-09 16:14:58.297,1,0.22,0.57,1.02,-60.635,-20.6174,9.931799999999999,175,75
2026-05-09 16:14:58.307,1,0.55,0.7,1.33,-60.325,-93.5974,-6.348199999999999,175,75
2026-05-09 16:14:58.330,1,0.49,0.94,1.89,-30.755,-290.1274,-60.068200000000004,175,75
2026-05-09 16:14:58.342,1,0.38,1.02,2.07,-12.825,-374.3974,-83.2982,175,75
2026-05-09 16:14:58.352,1,0.3,1.11,2.17,11.015,-436.4074,-101.2282,175,75
2026-05-09 16:14:58.363,1,0.32,0.99,2.47,24.915,-445.9774,-96.7782,175,75
2026-05-09 16:14:58.374,1,-0.51,0.57,2.47,22.965,-476.4074,-127.74819999999998,175,75
2026-05-09 16:14:58.395,1,-7.83,1.51,-2.41,-35.085,-1207.1974,-255.85819999999998,175,75
2026-05-09 16:14:58.423,1,-1.82,-3.14,-3.84,-105.875,370.3626,-250.8582,175,75
2026-05-09 16:14:58.448,1,1.44,1.16,1.82,-169.905,376.1526,160.18179999999998,175,75
2026-05-09 16:14:58.448,1,0.67,-2.12,2.59,-64.295,338.1026,97.5518,175,75
2026-05-09 16:14:58.472,1,-0.41,-2.46,3.83,29.975,-16.217399999999998,20.1218,175,75
2026-05-09 16:14:58.494,1,-0.83,-0.61,-0.82,-11.735,39.8726,10.7918,175,75
2026-05-09 16:14:58.502,1,-0.67,-0.18,-0.18,20.765,111.0926,-15.798199999999998,175,75
2026-05-09 16:14:58.521,1,-0.69,-0.25,0.55,46.565,132.0126,-13.598199999999999,175,75
2026-05-09 16:14:58.535,1,-0.64,-0.43,0.72,64.975,76.8226,-44.5782,175,75
2026-05-09 16:14:58.546,1,-0.53,-0.49,0.53,85.155,35.4826,-64.14819999999999,175,75
2026-05-09 16:14:58.558,1,-0.52,-0.56,0.44,103.145,29.2026,-73.3582,175,75
2026-05-09 16:14:58.568,1,-0.49,-0.62,0.48,130.225,31.282600000000002,-81.4082,175,75
2026-05-09 16:14:58.604,1,0.31,0.7,1.95,33.575,124.0226,-32.748200000000004,175,75
2026-05-09 16:14:58.626,1,-0.67,0.64,0.81,-190.815,-15.3674,28.1018,175,75
2026-05-09 16:14:58.637,1,-0.65,0.12,-0.24,-317.035,44.0226,104.7518,175,75
2026-05-09 16:14:58.654,1,-0.92,-0.71,-0.98,-390.265,77.6826,144.2018,175,75
2026-05-09 16:14:58.654,1,-1.04,-1.47,-1.37,-413.195,158.78259999999997,192.8018,175,75
2026-05-09 16:14:58.675,1,-0.85,-2.48,-0.28,-433.015,246.46259999999998,223.65179999999998,175,75
2026-05-09 16:14:58.675,1,-0.3,-2.84,0.59,-455.145,168.1026,198.4118,175,75
2026-05-09 16:14:58.700,1,0.18,-1.18,0.26,-501.975,24.5126,111.6418,175,75
2026-05-09 16:14:58.723,1,0.16,-0.53,0.95,-437.405,16.4026,95.3018,175,75
2026-05-09 16:14:58.755,1,0.41,-0.08,1.66,-398.865,-66.95739999999999,69.0818,175,75
2026-05-09 16:14:58.762,1,0.25,0.11,1.44,-363.865,-115.7374,55.0518,175,75
2026-05-09 16:14:58.773,1,0.17,0.3,1.3,-334.595,-110.7374,44.8118,175,75
2026-05-09 16:14:58.783,1,0.14,0.53,1.34,-312.215,-99.1474,40.2418,175,75
2026-05-09 16:14:58.798,1,0.21,0.89,1.32,-278.555,-120.6774,44.8718,175,75
2026-05-09 16:14:58.809,1,0.13,1.02,1.01,-249.355,-166.34740000000002,38.7118,175,75
2026-05-09 16:14:58.819,1,-0.01,1.01,0.64,-212.945,-133.47740000000002,24.021800000000002,175,75
2026-05-09 16:14:58.829,1,0.16,0.95,0.67,-166.055,-67.3174,7.1918,175,75
2026-05-09 16:14:58.839,1,0.4,0.88,0.94,-104.905,0.8525999999999998,-14.278199999999998,175,75
2026-05-09 16:14:58.851,1,0.53,0.9,1.24,-45.695,43.7826,-28.9682,175,75
2026-05-09 16:14:58.864,1,0.54,0.95,1.42,1.075,79.2026,-44.9482,175,75
2026-05-09 16:14:58.874,1,0.57,1.0,1.49,34.425,99.3226,-57.928200000000004,175,75
2026-05-09 16:14:58.884,1,0.55,1.07,1.55,77.115,105.3626,-73.0582,175,75
2026-05-09 16:14:58.894,1,0.48,1.08,1.64,112.595,100.9726,-83.9682,175,75
2026-05-09 16:14:58.917,1,0.4,1.04,1.73,175.345,84.2026,-103.4182,175,75
2026-05-09 16:14:58.929,1,0.37,0.95,1.58,229.615,54.452600000000004,-112.98819999999999,175,75
2026-05-09 16:14:58.942,1,0.31,0.8,1.43,262.115,47.8626,-125.9182,175,75
2026-05-09 16:14:58.953,1,0.31,0.7,1.39,284.245,49.9926,-136.9582,175,75
2026-05-09 16:14:58.964,1,0.35,0.61,1.49,307.725,44.5726,-146.7082,175,75
2026-05-09 16:14:58.975,1,0.38,0.55,1.58,324.305,18.5326,-148.3582,175,75
2026-05-09 16:14:58.986,1,0.36,0.5,1.63,332.415,-17.8674,-147.9282,175,75
2026-05-09 16:14:58.998,1,0.32,0.48,1.65,336.625,-53.1774,-146.22820000000002,175,75
2026-05-09 16:14:59.033,1,0.01,0.3,1.32,344.555,-176.40740000000002,-157.56820000000002,175,75
2026-05-09 16:14:59.055,1,-0.2,0.03,1.15,361.865,-207.31740000000002,-194.6382,175,75
2026-05-09 16:14:59.071,1,0.12,-0.44,1.29,369.065,-213.59740000000002,-224.5182,175,75
2026-05-09 16:14:59.093,1,0.67,-0.92,1.06,345.465,-248.0474,-234.3382,175,75
2026-05-09 16:14:59.102,1,-0.59,-1.27,0.14,323.025,-202.9274,-268.41819999999996,175,75
2026-05-09 16:14:59.114,1,-0.84,-0.94,-0.61,297.595,-231.40740000000002,-220.4282,175,75
2026-05-09 16:14:59.147,1,-3.82,-1.5,-1.58,-54.355,363.9626,-501.46819999999997,175,75
2026-05-09 16:14:59.168,1,-1.86,2.43,0.53,-222.405,500.9726,20.7218,175,75
2026-05-09 16:14:59.178,1,0.49,2.01,2.77,-130.025,533.7826,237.31179999999998,175,75
2026-05-09 16:14:59.182,1,1.22,-2.3,2.76,50.835,83.5926,120.9718,175,75
2026-05-09 16:14:59.218,1,-0.51,-0.92,-0.06,-61.665,-269.0874,-92.5082,175,75
2026-05-09 16:14:59.242,1,0.01,-1.0,0.01,6.075,70.2426,32.9218,175,75
2026-05-09 16:14:59.280,1,-0.03,-0.72,1.13,-2.035,49.3226,-11.0382,175,75
2026-05-09 16:14:59.300,1,-0.05,-0.75,1.27,3.695,99.5126,-11.348199999999999,175,75
2026-05-09 16:14:59.313,1,-0.12,-0.54,1.45,9.365,126.1526,-9.028199999999998,175,75
2026-05-09 16:14:59.333,1,0.14,-0.23,1.92,14.855,150.9126,14.4418,175,75
2026-05-09 16:14:59.347,1,0.19,0.05,2.05,3.395,125.54260000000001,20.7218,175,75
2026-05-09 16:14:59.348,1,0.06,0.28,1.89,-20.875,61.8226,12.861799999999999,175,75
2026-05-09 16:14:59.371,1,0.01,0.52,1.54,-45.575,-14.4574,15.721800000000002,175,75
2026-05-09 16:14:59.371,1,-0.35,0.57,1.11,-64.295,-56.1574,22.4918,175,75
2026-05-09 16:14:59.382,1,-0.42,0.62,0.91,-56.855,-40.8574,22.9818,175,75
2026-05-09 16:14:59.394,1,0.03,0.81,1.09,-16.245,4.9925999999999995,10.6618,175,75
2026-05-09 16:14:59.427,1,0.7,1.29,1.69,106.505,-9.147400000000001,-35.7382,175,75
2026-05-09 16:14:59.439,1,0.76,1.21,1.76,126.195,-23.4774,-49.5182,175,75
2026-05-09 16:14:59.451,1,0.81,1.09,1.9,159.675,-49.6974,-59.7582,175,75
2026-05-09 16:14:59.498,1,-2.46,1.42,0.1,107.845,-662.6274,-121.28819999999999,175,75
2026-05-09 16:14:59.498,1,-9.13,0.88,-1.86,63.515,-680.3674,-152.9282,175,75
2026-05-09 16:14:59.508,1,-0.77,0.44,-7.34,17.905,-430.9774,436.09180000000003,175,75
2026-05-09 16:14:59.522,1,3.05,-3.7,-4.12,-281.305,-122.9874,241.46179999999998,175,75
2026-05-09 16:14:59.535,1,-0.29,-0.35,-1.12,-142.035,551.4626000000001,-144.87820000000002,175,75
2026-05-09 16:14:59.536,1,-1.29,1.76,1.69,-137.155,426.82259999999997,32.7418,175,75
2026-05-09 16:14:59.549,1,1.09,0.87,2.41,-37.215,415.1226,194.6918,175,75
2026-05-09 16:14:59.560,1,-0.12,-2.43,3.21,19.485,99.7526,39.931799999999996,175,75
2026-05-09 16:14:59.573,1,0.27,-1.34,2.03,-1.4249999999999998,-152.19740000000002,-22.9882,175,75
2026-05-09 16:14:59.587,1,0.13,-0.39,0.2,-28.435,-220.18740000000003,-39.0882,175,75
2026-05-09 16:14:59.604,1,-0.73,-0.32,-1.21,6.685,-4.1474,-13.598199999999999,175,75
2026-05-09 16:14:59.611,1,-0.85,-0.18,-0.29,42.535,86.4626,-23.908199999999997,175,75
2026-05-09 16:14:59.623,1,-0.67,-0.43,0.41,88.575,90.7326,-29.4582,175,75
2026-05-09 16:14:59.640,1,-0.75,-0.82,0.61,103.205,44.0226,-53.1182,175,75
2026-05-09 16:14:59.652,1,-0.87,-1.08,0.46,126.255,-12.4374,-69.5182,175,75
2026-05-09 16:14:59.664,1,-0.65,-0.92,0.34,164.675,68.0426,-84.81819999999999,175,75
2026-05-09 16:14:59.676,1,0.03,-0.25,0.81,173.455,159.75259999999997,-62.3782,175,75
2026-05-09 16:14:59.690,1,0.45,-0.02,3.0,23.695,289.26259999999996,29.8718,175,75
2026-05-09 16:14:59.713,1,-0.63,0.69,1.17,-179.775,111.2126,59.4418,175,75
2026-05-09 16:14:59.737,1,-1.03,-0.93,-1.06,-350.145,143.84259999999998,166.5818,175,75
2026-05-09 16:14:59.748,1,-1.41,-1.47,-1.47,-384.775,215.7926,218.77179999999998,175,75
2026-05-09 16:14:59.759,1,-0.82,-2.26,-0.31,-402.155,342.5626,271.9418,175,75
2026-05-09 16:14:59.774,1,-0.31,-2.56,0.39,-418.255,156.34259999999998,262.3118,175,75
2026-05-09 16:14:59.786,1,-1.04,-1.98,-0.51,-451.915,97.0126,168.4718,175,75
2026-05-09 16:14:59.793,1,-0.15,-0.88,-0.43,-487.345,181.21259999999998,189.87179999999998,175,75
2026-05-09 16:14:59.818,1,0.31,-0.03,1.35,-392.645,69.5726,162.9818,175,75
2026-05-09 16:14:59.836,1,0.35,0.29,1.48,-383.195,17.5626,147.8618,175,75
2026-05-09 16:14:59.846,1,0.45,0.72,1.46,-362.155,-21.467399999999998,132.0118,175,75
2026-05-09 16:14:59.858,1,0.49,0.95,1.4,-321.735,-36.0374,134.0818,175,75
2026-05-09 16:14:59.872,1,0.45,0.84,1.49,-271.855,-27.507399999999997,129.6318,175,75
2026-05-09 16:14:59.883,1,0.51,0.8,1.6,-238.985,-12.1374,120.18180000000001,175,75
2026-05-09 16:14:59.894,1,0.55,0.81,1.69,-197.405,-15.7974,108.10180000000001,175,75
2026-05-09 16:14:59.905,1,0.49,0.8,1.71,-157.215,-14.877399999999998,93.35180000000001,175,75
2026-05-09 16:14:59.916,1,0.45,0.8,1.74,-119.905,-10.7974,72.3118,175,75
2026-05-09 16:14:59.918,1,0.37,0.85,1.77,-82.825,-19.1474,41.331799999999994,175,75
2026-05-09 16:14:59.949,1,0.45,1.23,1.59,-0.5149999999999999,-64.7574,-8.9682,175,75
2026-05-09 16:14:59.960,1,0.47,1.09,1.5,52.355,-56.5874,-26.5282,175,75
2026-05-09 16:14:59.971,1,0.47,0.98,1.42,92.475,-40.6774,-45.0082,175,75
2026-05-09 16:14:59.984,1,0.45,0.89,1.36,133.335,-19.8174,-65.5582,175,75
2026-05-09 16:14:59.990,1,0.44,0.81,1.33,166.805,-1.8974000000000002,-80.67819999999999,175,75
2026-05-09 16:15:00.007,1,0.43,0.77,1.34,194.425,8.7126,-92.0782,175,75
2026-05-09 16:15:00.018,1,0.38,0.7,1.35,229.065,13.712599999999998,-103.9082,175,75
2026-05-09 16:15:00.027,1,0.35,0.63,1.36,249.485,11.7026,-109.81819999999999,175,75
2026-05-09 16:15:00.073,1,0.17,0.32,1.13,312.965,-34.3974,-131.7782,175,75
2026-05-09 16:15:00.078,1,0.12,0.22,1.08,328.575,-43.2374,-136.9582,175,75
2026-05-09 16:15:00.098,1,0.14,0.06,1.17,342.355,-56.7674,-144.1482,175,75
2026-05-09 16:15:00.101,1,0.14,-0.09,1.2,351.865,-65.4874,-153.0582,175,75
2026-05-09 16:15:00.113,1,0.13,-0.24,1.2,362.595,-80.4874,-162.62820000000002,175,75
2026-05-09 16:15:00.125,1,0.06,-0.4,1.18,368.695,-87.1974,-171.28820000000002,175,75
2026-05-09 16:15:00.137,1,0.08,-0.59,1.13,372.725,-95.7974,-187.1982,175,75
2026-05-09 16:15:00.151,1,0.15,-0.67,1.08,377.415,-105.5474,-194.0882,175,75
2026-05-09 16:15:00.184,1,0.54,-0.93,1.28,347.355,-152.1374,-181.34820000000002,175,75
2026-05-09 16:15:00.206,1,-15.46,-0.91,-2.86,119.485,-967.0774,-351.6482,175,75
2026-05-09 16:15:00.217,1,0.14,0.13,-8.28,-96.365,-708.1773999999999,787.6218,175,75
2026-05-09 16:15:00.244,1,-4.6,1.64,0.24,-65.875,703.7826,11.401800000000001,175,75
2026-05-09 16:15:00.250,1,0.19,2.33,3.65,-189.595,595.2426,226.5818,175,75
2026-05-09 16:15:00.264,1,1.51,-0.46,3.83,-56.305,449.8126,237.62179999999998,175,75
2026-05-09 16:15:00.277,1,-1.31,-4.28,3.9,120.525,-80.7974,23.7118,175,75
2026-05-09 16:15:00.288,1,0.93,-2.62,1.64,27.535,-298.04740000000004,-55.4882,175,75
2026-05-09 16:15:00.301,1,-0.36,-0.63,-0.72,-73.435,-290.1874,-92.0182,175,75
2026-05-09 16:15:00.314,1,-0.67,-0.01,-1.07,-6.055,-17.5674,14.201799999999999,175,75
2026-05-09 16:15:00.326,1,-0.43,-0.57,-0.29,19.365,109.9926,27.0718,175,75
2026-05-09 16:15:00.326,1,-0.51,-0.8,0.34,22.725,145.18259999999998,-0.4281999999999999,175,75
2026-05-09 16:15:00.339,1,-0.52,-0.34,1.06,20.895,97.9826,-22.8082,175,75
2026-05-09 16:15:00.354,1,-0.45,-0.1,0.83,52.055,55.3626,-27.318199999999997,175,75
2026-05-09 16:15:00.366,1,-0.36,-0.16,0.64,58.755,61.8226,-30.4282,175,75
2026-05-09 16:15:00.377,1,-0.33,-0.24,0.63,64.36500000000001,80.4226,-31.9582,175,75
2026-05-09 16:15:00.389,1,-0.27,-0.25,0.87,66.505,103.7826,-32.8082,175,75
2026-05-09 16:15:00.400,1,-0.11,-0.25,1.25,66.565,114.2626,-32.5082,175,75
2026-05-09 16:15:00.402,1,-0.15,-0.22,1.48,70.525,105.79260000000001,-35.1282,175,75
2026-05-09 16:15:00.423,1,0.14,-0.11,1.6,58.395,87.2526,-15.798199999999998,175,75
2026-05-09 16:15:00.440,1,0.05,0.08,1.38,41.745,99.3226,-4.7581999999999995,175,75
2026-05-09 16:15:00.451,1,0.03,0.26,1.33,13.455,93.6526,1.0918,175,75
2026-05-09 16:15:00.464,1,-0.18,0.48,1.26,-17.465,88.2326,22.681800000000003,175,75
2026-05-09 16:15:00.474,1,-0.09,0.47,1.23,-35.515,83.6526,39.2018,175,75
2026-05-09 16:15:00.486,1,-0.29,0.36,0.99,-64.535,40.4226,49.321799999999996,175,75
2026-05-09 16:15:00.497,1,-0.32,0.43,0.76,-76.855,49.202600000000004,47.5518,175,75
2026-05-09 16:15:00.508,1,0.46,0.6,0.87,-66.735,37.742599999999996,28.1018,175,75
2026-05-09 16:15:00.519,1,0.48,0.84,1.09,-50.995,-25.0674,18.1018,175,75
2026-05-09 16:15:00.529,1,0.7,0.86,1.35,-37.765,-34.2674,2.9218,175,75
2026-05-09 16:15:00.555,1,0.77,1.14,1.95,3.025,-167.43740000000003,-33.9682,175,75
2026-05-09 16:15:00.565,1,0.63,1.28,2.19,21.445,-204.2674,-39.278200000000005,175,75
2026-05-09 16:15:00.586,1,-0.15,0.87,1.96,40.525,-318.7174,-99.6382,175,75
2026-05-09 16:15:00.586,1,-2.19,1.22,0.38,1.375,-589.3974,-81.4682,175,75
2026-05-09 16:15:00.600,1,-6.87,1.47,-1.65,-15.875,-815.1274,-147.50820000000002,175,75
2026-05-09 16:15:00.626,1,3.41,-0.53,-3.41,-137.885,-70.7374,388.71180000000004,175,75
2026-05-09 16:15:00.638,1,-0.82,0.71,-0.05,81.445,287.13259999999997,-67.0782,175,75
2026-05-09 16:15:00.650,1,0.58,-0.91,1.52,28.145,362.9826,162.37179999999998,175,75
2026-05-09 16:15:00.662,1,1.05,-2.46,2.74,3.395,176.46259999999998,52.9218,175,75
2026-05-09 16:15:00.698,1,-0.39,-0.98,-0.05,-22.405,-64.9374,22.0718,175,75
2026-05-09 16:15:00.698,1,-0.69,-0.74,-0.25,-16.975,11.282599999999999,7.4318,175,75
2026-05-09 16:15:00.714,1,-0.69,-0.12,0.02,11.015,69.1426,-3.6681999999999997,175,75
2026-05-09 16:15:00.741,1,-0.8,-0.1,0.11,84.555,33.6526,-63.2382,175,75
2026-05-09 16:15:00.755,1,-0.85,-0.24,0.16,106.375,32.8626,-73.3582,175,75
2026-05-09 16:15:00.765,1,-0.9,-0.46,0.32,129.485,31.5826,-85.42819999999999,175,75
2026-05-09 16:15:00.794,1,0.1,-0.37,0.96,175.765,75.8526,-75.73819999999999,175,75
2026-05-09 16:15:00.804,1,0.59,-0.05,1.12,163.265,94.8126,-57.9882,175,75
2026-05-09 16:15:00.816,1,0.28,0.1,1.76,96.195,104.3226,-27.5082,175,75
2026-05-09 16:15:00.816,1,0.04,0.38,2.13,2.5949999999999998,105.8526,4.0818,175,75
2026-05-09 16:15:00.834,1,-0.86,1.06,0.78,-109.845,23.9026,23.6518,175,75
2026-05-09 16:15:00.846,1,-1.03,0.67,-0.43,-208.985,85.2426,88.10180000000001,175,75
2026-05-09 16:15:00.863,1,-0.89,-0.35,-1.11,-328.985,197.43259999999998,157.43179999999998,175,75
2026-05-09 16:15:00.871,1,-0.94,-1.15,-0.99,-357.275,282.13259999999997,202.8618,175,75
2026-05-09 16:15:00.871,1,-0.9,-1.67,-0.17,-378.495,315.9126,232.68179999999998,175,75
2026-05-09 16:15:00.914,1,-0.62,-1.57,-0.48,-491.975,120.4826,152.9218,175,75
2026-05-09 16:15:00.925,1,-0.02,-0.9,-0.09,-473.015,194.02259999999998,165.7918,175,75
2026-05-09 16:15:00.937,1,0.21,-0.74,0.74,-427.525,184.99259999999998,156.09179999999998,175,75
2026-05-09 16:15:00.937,1,0.41,-0.57,1.27,-404.105,147.56259999999997,136.5818,175,75
2026-05-09 16:15:00.954,1,0.43,-0.42,1.7,-396.125,75.4226,108.4718,175,75
2026-05-09 16:15:00.990,1,0.4,0.74,2.0,-303.075,-62.627399999999994,62.6218,175,75
2026-05-09 16:15:01.022,1,0.46,0.76,2.04,-212.405,-122.62740000000001,51.2118,175,75
2026-05-09 16:15:01.022,1,0.36,0.83,1.83,-183.075,-164.2674,39.8118,175,75
2026-05-09 16:15:01.051,1,0.07,1.09,1.08,-106.915,-159.0874,-8.7882,175,75
2026-05-09 16:15:01.061,1,0.18,1.11,1.05,-56.605,-97.8674,-34.3982,175,75
2026-05-09 16:15:01.085,1,0.42,1.1,1.31,50.765,-29.087400000000002,-64.6982,175,75
2026-05-09 16:15:01.103,1,0.32,0.91,1.23,130.285,16.3426,-88.9682,175,75
2026-05-09 16:15:01.124,1,0.23,0.88,1.19,163.945,29.3826,-100.73819999999999,175,75
2026-05-09 16:15:01.135,1,0.18,0.76,1.2,199.425,42.3726,-115.2482,175,75
2026-05-09 16:15:01.146,1,0.19,0.66,1.24,224.485,49.8126,-124.81819999999999,175,75
2026-05-09 16:15:01.158,1,0.21,0.53,1.25,251.565,47.9826,-134.81820000000002,175,75
2026-05-09 16:15:01.158,1,0.18,0.44,1.23,268.205,42.8026,-142.1382,175,75
2026-05-09 16:15:01.170,1,0.15,0.4,1.2,280.225,33.9626,-146.34820000000002,175,75
2026-05-09 16:15:01.231,1,0.15,-0.03,1.24,338.635,-46.9574,-170.4882,175,75
2026-05-09 16:15:01.242,1,0.04,-0.16,1.18,341.565,-73.5374,-179.81820000000002,175,75
2026-05-09 16:15:01.254,1,-0.02,-0.24,1.16,340.765,-90.7974,-187.4482,175,75
2026-05-09 16:15:01.264,1,0.02,-0.33,1.19,349.065,-102.0174,-195.7382,175,75
2026-05-09 16:15:01.284,1,0.32,-0.49,1.47,355.465,-109.5774,-193.4182,175,75
2026-05-09 16:15:01.294,1,0.32,-0.77,1.72,352.175,-125.18740000000001,-195.97820000000002,175,75
2026-05-09 16:15:01.311,1,0.36,-0.88,1.3,338.335,-229.6374,-191.6482,175,75
2026-05-09 16:15:01.311,1,-2.49,-0.26,-0.6,243.515,-543.2973999999999,-142.56820000000002,175,75
2026-05-09 16:15:01.321,1,-13.53,-1.77,-5.64,90.345,-903.1773999999999,-337.2582,175,75
2026-05-09 16:15:01.340,1,-0.84,0.25,-7.8,-72.585,-361.8974,874.0817999999999,175,75
2026-05-09 16:15:01.351,1,-0.45,-2.43,-3.21,-107.945,321.3426,-229.0882,175,75
2026-05-09 16:15:01.361,1,-1.52,1.28,0.25,-81.605,778.4726,-3.6681999999999997,175,75
2026-05-09 16:15:01.374,1,-1.42,2.21,3.1,-204.045,520.8526,123.8318,175,75
2026-05-09 16:15:01.386,1,0.08,0.4,3.57,-27.645,522.9226,201.09179999999998,175,75
2026-05-09 16:15:01.386,1,0.21,-2.88,3.86,112.475,134.08259999999999,130.1218,175,75
2026-05-09 16:15:01.417,1,0.01,-0.85,0.1,-33.985,-254.75740000000002,-62.80820000000001,175,75
2026-05-09 16:15:01.429,1,-0.3,-0.3,-0.79,-11.605,-117.1974,-22.138199999999998,175,75
2026-05-09 16:15:01.440,1,-0.33,-0.85,-0.21,9.795,3.7125999999999997,9.991800000000001,175,75
2026-05-09 16:15:01.440,1,-0.4,-0.96,0.29,28.145,55.4826,-4.8182,175,75
2026-05-09 16:15:01.454,1,-0.16,-0.86,0.62,32.475,64.3926,-15.008199999999999,175,75
2026-05-09 16:15:01.476,1,-0.17,-0.59,0.63,32.595,37.8626,-28.118199999999998,175,75
2026-05-09 16:15:01.476,1,-0.2,-0.34,0.54,49.615,61.0926,-29.4582,175,75
2026-05-09 16:15:01.503,1,0.02,-0.39,1.07,59.065,133.7826,-20.068199999999997,175,75
2026-05-09 16:15:01.525,1,-0.11,-0.31,1.83,53.755,104.8726,-30.308199999999996,175,75
2026-05-09 16:15:01.548,1,-0.0,-0.03,1.83,22.295,71.5826,-6.5882,175,75
2026-05-09 16:15:01.558,1,0.03,0.18,1.73,-8.075,55.5426,6.0918,175,75
2026-05-09 16:15:01.574,1,-0.14,0.36,1.56,-37.155,43.7826,23.7118,175,75
2026-05-09 16:15:01.587,1,-0.26,0.38,1.31,-61.855,28.6526,45.4218,175,75
2026-05-09 16:15:01.597,1,-0.3,0.32,1.06,-75.325,12.4926,57.9218,175,75
2026-05-09 16:15:01.601,1,-0.35,0.22,0.86,-85.575,13.6526,57.861799999999995,175,75
2026-05-09 16:15:01.613,1,-0.11,0.31,1.0,-75.755,30.6026,48.7118,175,75
2026-05-09 16:15:01.636,1,0.17,0.62,1.15,-47.155,24.7526,30.541800000000002,175,75
2026-05-09 16:15:01.648,1,0.48,1.09,1.38,16.985,13.962599999999998,9.1418,175,75
2026-05-09 16:15:01.664,1,0.73,1.1,1.56,34.735,-12.987400000000001,-3.9681999999999995,175,75
2026-05-09 16:15:01.675,1,0.82,1.01,1.79,57.055,-59.267399999999995,-23.4182,175,75
2026-05-09 16:15:01.682,1,0.98,0.95,2.06,81.865,-91.8974,-39.028200000000005,175,75
2026-05-09 16:15:01.693,1,1.07,0.6,2.2,99.675,-154.5774,-60.248200000000004,175,75
2026-05-09 16:15:01.703,1,-0.03,0.63,1.53,81.015,-274.9374,-71.1682,175,75
2026-05-09 16:15:01.718,1,-3.28,0.97,0.06,45.345,-641.6474,-104.45819999999999,175,75
2026-05-09 16:15:01.740,1,0.84,-0.9,-5.27,-116.545,-457.7474,248.2918,175,75
2026-05-09 16:15:01.786,1,0.07,-1.03,1.97,-9.655,176.8226,103.5918,175,75
2026-05-09 16:15:01.807,1,0.16,-0.53,-0.3,10.225,-57.3174,36.821799999999996,175,75
2026-05-09 16:15:01.826,1,-0.27,-0.56,-0.66,35.345,29.5726,26.2118,175,75
2026-05-09 16:15:01.837,1,-0.46,-0.35,-0.24,51.445,98.7126,26.701800000000002,175,75
2026-05-09 16:15:01.887,1,-1.01,-0.42,0.48,125.225,83.7826,-50.7382,175,75
2026-05-09 16:15:01.904,1,-1.29,-0.37,1.08,169.555,126.8926,-77.56819999999999,175,75
2026-05-09 16:15:01.922,1,-1.18,-0.13,1.57,165.895,167.9226,-74.9482,175,75
2026-05-09 16:15:01.928,1,-0.47,0.22,2.04,136.925,220.4826,-55.858200000000004,175,75
2026-05-09 16:15:01.943,1,-0.54,0.57,2.5,70.765,262.8026,20.4818,175,75
2026-05-09 16:15:01.952,1,-1.09,0.76,1.32,-10.575,254.6326,84.4418,175,75
2026-05-09 16:15:01.967,1,-1.1,0.43,0.15,-78.555,289.7526,123.96180000000001,175,75
2026-05-09 16:15:01.977,1,-1.36,-0.79,-1.35,-250.875,402.6226,209.1418,175,75
2026-05-09 16:15:02.003,1,-0.51,-2.03,0.78,-329.165,469.45259999999996,283.47180000000003,175,75
2026-05-09 16:15:02.014,1,0.15,-2.36,1.07,-360.695,237.8626,239.99179999999998,175,75
2026-05-09 16:15:02.038,1,0.27,-0.81,-0.2,-487.585,178.4126,194.2618,175,75
2026-05-09 16:15:02.049,1,0.28,-0.75,0.51,-443.015,186.6426,195.7918,175,75
2026-05-09 16:15:02.057,1,0.52,-0.53,1.28,-421.605,164.4526,173.1018,175,75
2026-05-09 16:15:02.070,1,0.73,-0.26,1.78,-416.975,109.5126,151.5818,175,75
2026-05-09 16:15:02.088,1,0.72,0.35,1.87,-371.485,-49.8774,134.6918,175,75
2026-05-09 16:15:02.100,1,0.67,0.58,1.72,-356.545,-85.6074,134.3818,175,75
2026-05-09 16:15:02.113,1,0.52,0.87,1.49,-321.485,-106.3474,145.24179999999998,175,75
2026-05-09 16:15:02.124,1,0.51,0.99,1.35,-281.605,-109.3974,157.0118,175,75
2026-05-09 16:15:02.148,1,0.37,0.83,0.79,-204.655,-102.1974,148.5318,175,75
2026-05-09 16:15:02.160,1,0.24,0.68,0.54,-172.645,-64.6374,126.0318,175,75
2026-05-09 16:15:02.174,1,0.49,0.66,0.98,-54.595,56.5226,75.85180000000001,175,75
2026-05-09 16:15:02.190,1,0.71,0.71,1.36,-5.445,56.5826,52.0118,175,75
2026-05-09 16:15:02.196,1,0.73,0.76,1.41,22.725,35.062599999999996,38.5918,175,75
2026-05-09 16:15:02.226,1,0.64,0.79,1.14,102.965,10.4226,7.0118,175,75
2026-05-09 16:15:02.249,1,0.5,0.71,0.94,185.095,5.6026,-14.0882,175,75
2026-05-09 16:15:02.260,1,0.46,0.64,0.91,219.485,15.5426,-21.5882,175,75
2026-05-09 16:15:02.260,1,0.43,0.57,0.92,248.875,26.0926,-27.2582,175,75
2026-05-09 16:15:02.286,1,0.4,0.5,1.01,286.255,38.2926,-31.2882,175,75
2026-05-09 16:15:02.286,1,0.4,0.47,1.06,307.475,42.3126,-30.918200000000002,175,75
2026-05-09 16:15:02.297,1,0.39,0.42,1.13,330.155,35.852599999999995,-29.0282,175,75
2026-05-09 16:15:02.309,1,0.36,0.34,1.25,352.845,12.9226,-27.0782,175,75
2026-05-09 16:15:02.336,1,0.25,0.2,1.37,381.805,-44.9374,-28.118199999999998,175,75
2026-05-09 16:15:02.358,1,0.12,-0.08,1.41,400.645,-112.0174,-40.5582,175,75
2026-05-09 16:15:02.370,1,0.13,-0.25,1.38,409.735,-119.8174,-58.2982,175,75
2026-05-09 16:15:02.384,1,0.22,-0.41,1.21,417.115,-133.71740000000003,-75.12819999999999,175,75
2026-05-09 16:15:02.394,1,0.04,-0.53,1.06,417.175,-141.5274,-90.3082,175,75
2026-05-09 16:15:02.405,1,-0.18,-0.68,0.95,418.755,-107.5674,-110.42819999999999,175,75
2026-05-09 16:15:02.416,1,-0.03,-0.87,0.92,419.855,-40.6774,-130.3082,175,75
2026-05-09 16:15:02.424,1,-0.08,-1.14,0.87,424.975,48.5326,-137.9282,175,75
2026-05-09 16:15:02.445,1,-3.8,0.26,-2.07,384.005,-288.29740000000004,-108.4182,175,75
2026-05-09 16:15:02.457,1,-5.63,-0.83,-3.25,157.235,0.7925999999999993,223.1018,175,75
2026-05-09 16:15:02.468,1,-3.86,-0.52,-3.72,-105.265,-519.2074,101.0318,175,75
2026-05-09 16:15:02.480,1,3.94,0.64,-2.26,-168.495,548.8426000000001,203.65179999999998,175,75
2026-05-09 16:15:02.494,1,0.16,0.64,0.96,-33.435,313.0426,32.4318,175,75
2026-05-09 16:15:02.505,1,-2.32,2.42,2.09,14.915,271.1526,100.54180000000001,175,75
2026-05-09 16:15:02.520,1,-1.18,-2.49,3.09,39.485,88.1026,69.4418,175,75
2026-05-09 16:15:02.543,1,-0.32,-1.26,-0.12,-8.685,-209.5174,-45.678200000000004,175,75
2026-05-09 16:15:02.568,1,-0.58,-0.3,-0.02,36.015,82.0126,39.8118,175,75
2026-05-09 16:15:02.594,1,-0.53,-0.71,0.77,61.075,105.9126,19.3218,175,75
2026-05-09 16:15:02.616,1,-0.2,-1.26,0.52,71.135,124.0826,26.8218,175,75
2026-05-09 16:15:02.641,1,0.04,-1.01,1.19,88.205,255.30259999999998,40.541799999999995,175,75
2026-05-09 16:15:02.693,1,0.59,0.26,2.3,52.845,266.88259999999997,54.6318,175,75
2026-05-09 16:15:02.708,1,-0.26,0.52,1.3,-6.735,54.2626,49.8718,175,75
2026-05-09 16:15:02.711,1,-0.72,0.49,0.42,-58.865,78.5326,81.76180000000001,175,75
2026-05-09 16:15:02.737,1,-0.15,0.89,1.5,-2.465,142.62259999999998,106.5218,175,75
2026-05-09 16:15:02.749,1,0.5,1.21,1.88,53.945,168.1026,84.87180000000001,175,75
2026-05-09 16:15:02.770,1,1.27,1.18,1.85,98.395,152.31259999999997,63.7118,175,75
2026-05-09 16:15:02.785,1,0.45,1.64,1.67,199.735,136.09259999999998,-15.368199999999998,175,75
2026-05-09 16:15:02.801,1,0.58,1.03,1.56,245.835,139.3226,-12.568200000000001,175,75
2026-05-09 16:15:02.812,1,0.71,0.49,1.72,269.185,130.30259999999998,-33.1182,175,75
2026-05-09 16:15:02.823,1,1.47,-0.07,1.97,277.475,115.4826,-40.1882,175,75
2026-05-09 16:15:02.834,1,-0.46,0.3,0.84,241.075,-130.4874,-24.5782,175,75
2026-05-09 16:15:02.846,1,-4.53,0.51,-0.75,167.475,-679.4574,-56.4682,175,75
2026-05-09 16:15:02.855,1,-7.8,-0.14,-3.45,85.035,-468.7174,24.631800000000002,175,75
2026-05-09 16:15:02.873,1,-0.45,-0.99,-5.88,-233.865,-457.6874,400.8518,175,75
2026-05-09 16:15:02.873,1,2.34,-0.55,-3.27,-204.845,515.6726,-118.6682,175,75
2026-05-09 16:15:02.883,1,-2.36,1.3,1.06,-96.185,546.0326,20.6618,175,75
2026-05-09 16:15:02.895,1,-0.38,1.6,2.55,-70.815,462.2526,160.5418,175,75
2026-05-09 16:15:02.909,1,0.56,-1.09,3.0,-32.275,221.28259999999997,179.5718,175,75
2026-05-09 16:15:02.924,1,0.1,-1.9,2.47,-1.245,-153.1774,9.261800000000001,175,75
2026-05-09 16:15:02.936,1,-0.57,-0.45,1.03,-28.685,-244.0874,-24.6982,175,75
2026-05-09 16:15:02.947,1,-0.24,-0.08,-0.41,-55.995,-132.68740000000003,37.431799999999996,175,75
2026-05-09 16:15:02.956,1,-0.46,-0.2,-0.97,-26.665,-37.1374,47.861799999999995,175,75
2026-05-09 16:15:02.956,1,-0.7,-0.35,-0.67,2.725,93.9626,37.9218,175,75
2026-05-09 16:15:02.970,1,-0.53,-0.45,0.35,27.055,143.2926,38.5318,175,75
2026-05-09 16:15:02.981,1,-0.64,-0.66,0.56,35.705,119.5726,22.1918,175,75
2026-05-09 16:15:02.994,1,-0.86,-0.83,0.65,41.985,84.9926,1.3318,175,75
2026-05-09 16:15:03.000,1,-0.82,-0.85,0.52,58.875,80.9726,-10.918199999999999,175,75
2026-05-09 16:15:03.023,1,-0.26,-0.96,1.03,84.185,144.1426,-18.2382,175,75
2026-05-09 16:15:03.048,1,-0.25,-0.43,2.33,100.035,205.06259999999997,-3.3582,175,75
2026-05-09 16:15:03.048,1,0.22,-0.43,2.95,74.305,247.43259999999998,29.5118,175,75
2026-05-09 16:15:03.058,1,0.11,-0.18,2.68,-7.404999999999999,219.2026,35.181799999999996,175,75
2026-05-09 16:15:03.078,1,-0.29,0.23,1.91,-74.845,213.78259999999997,54.2618,175,75
2026-05-09 16:15:03.109,1,-1.5,0.19,-0.43,-212.465,114.8726,122.2518,175,75
2026-05-09 16:15:03.122,1,-1.95,-0.5,-1.68,-301.795,141.09259999999998,204.81179999999998,175,75
2026-05-09 16:15:03.122,1,-1.9,-1.84,-1.32,-377.345,327.07259999999997,282.3718,175,75
2026-05-09 16:15:03.134,1,-0.53,-2.21,0.12,-400.875,302.01259999999996,278.4118,175,75
2026-05-09 16:15:03.144,1,-0.72,-1.85,-0.15,-401.185,133.2926,213.2918,175,75
2026-05-09 16:15:03.144,1,-0.73,-1.18,-0.61,-478.745,185.3626,189.87179999999998,175,75
2026-05-09 16:15:03.154,1,0.25,-0.98,0.23,-484.775,223.53259999999997,216.3318,175,75
2026-05-09 16:15:03.166,1,0.39,-0.81,0.98,-428.495,151.9526,179.1418,175,75
2026-05-09 16:15:03.182,1,0.63,-0.6,1.48,-422.945,66.4626,148.4118,175,75
2026-05-09 16:15:03.205,1,0.63,-0.0,1.76,-411.485,-44.2074,107.2518,175,75
2026-05-09 16:15:03.216,1,0.58,0.33,1.83,-373.315,-89.5774,93.5918,175,75
2026-05-09 16:15:03.220,1,0.5,0.57,1.85,-325.205,-102.6874,95.54180000000001,175,75
2026-05-09 16:15:03.238,1,0.65,0.63,1.81,-276.055,-115.4874,102.8618,175,75
2026-05-09 16:15:03.250,1,0.57,0.54,1.49,-208.435,-112.1374,103.71180000000001,175,75
2026-05-09 16:15:03.272,1,0.53,0.51,1.14,-103.925,-68.4174,78.96180000000001,175,75
2026-05-09 16:15:03.291,1,0.4,0.57,0.98,-58.865,-51.8274,56.151799999999994,175,75
2026-05-09 16:15:03.307,1,0.3,0.76,0.8,1.745,-21.287399999999998,31.1518,175,75
2026-05-09 16:15:03.307,1,0.34,0.89,0.84,79.245,28.2326,16.6418,175,75
2026-05-09 16:15:03.318,1,0.52,0.75,1.07,155.525,75.4226,2.1918,175,75
2026-05-09 16:15:03.328,1,0.59,0.63,1.25,211.985,98.4726,-16.5282,175,75
2026-05-09 16:15:03.340,1,0.61,0.53,1.38,260.345,98.2326,-31.838199999999997,175,75
2026-05-09 16:15:03.355,1,0.56,0.41,1.48,297.595,72.3126,-42.3782,175,75
2026-05-09 16:15:03.365,1,0.49,0.35,1.51,320.225,46.5826,-48.9082,175,75
2026-05-09 16:15:03.375,1,0.44,0.26,1.51,340.225,23.6526,-54.8782,175,75
2026-05-09 16:15:03.390,1,0.4,0.16,1.51,356.865,4.1426,-60.0082,175,75
2026-05-09 16:15:03.407,1,0.32,-0.06,1.45,388.635,-37.5074,-78.2982,175,75
2026-05-09 16:15:03.419,1,0.26,-0.09,1.37,398.145,-53.1074,-88.23819999999999,175,75
2026-05-09 16:15:03.430,1,0.2,-0.08,1.31,408.575,-67.9274,-100.2482,175,75
2026-05-09 16:15:03.443,1,0.17,-0.07,1.32,417.595,-75.6774,-109.9482,175,75
2026-05-09 16:15:03.454,1,0.16,-0.04,1.38,422.845,-92.2574,-119.0282,175,75
2026-05-09 16:15:03.465,1,0.15,-0.05,1.34,428.205,-120.1274,-126.40820000000001,175,75
2026-05-09 16:15:03.479,1,0.09,-0.1,1.23,433.025,-137.19740000000002,-145.4882,175,75
2026-05-09 16:15:03.488,1,0.06,-0.14,1.07,434.185,-163.41740000000001,-172.68820000000002,175,75
2026-05-09 16:15:03.491,1,0.02,-0.27,0.93,432.175,-183.1774,-198.53820000000002,175,75
2026-05-09 16:15:03.519,1,0.03,-0.35,0.84,429.305,-172.0174,-224.3382,175,75
2026-05-09 16:15:03.520,1,0.05,-0.46,0.67,421.135,-172.68740000000003,-233.59820000000002,175,75
2026-05-09 16:15:03.532,1,-0.09,-0.87,0.18,417.845,-140.91740000000001,-246.9582,175,75
2026-05-09 16:15:03.545,1,-0.44,-1.34,-0.46,410.835,-69.5174,-239.1482,175,75
2026-05-09 16:15:03.556,1,-6.13,-0.79,-1.9,348.205,-565.1873999999999,-271.5882,175,75
2026-05-09 16:15:03.567,1,-12.48,-1.51,-2.38,187.655,-607.6274,-204.5182,175,75
2026-05-09 16:15:03.567,1,-5.43,0.05,-6.16,90.585,-279.7574,473.96180000000004,175,75
2026-05-09 16:15:03.577,1,-5.92,0.49,-9.1,-242.465,-561.0373999999999,490.6018,175,75
2026-05-09 16:15:03.612,1,-3.67,-0.05,0.34,-90.325,683.5326,-21.8982,175,75
2026-05-09 16:15:03.626,1,0.95,2.01,2.86,-260.085,691.9526000000001,279.9918,175,75
2026-05-09 16:15:03.636,1,1.64,0.42,2.66,-67.465,322.19259999999997,213.4718,175,75
2026-05-09 16:15:03.636,1,-0.96,-2.96,3.99,33.455,82.0126,30.7218,175,75
2026-05-09 16:15:03.647,1,0.61,-3.34,2.73,24.795,-252.37740000000002,47.7418,175,75
2026-05-09 16:15:03.650,1,-0.83,-1.22,0.06,-75.515,-357.1974,-107.5082,175,75
2026-05-09 16:15:03.664,1,-0.85,0.05,-1.18,-66.545,-92.6874,-4.0282,175,75
2026-05-09 16:15:03.678,1,-0.51,-0.3,-1.22,0.03500000000000003,92.9226,67.8618,175,75
2026-05-09 16:15:03.689,1,-0.68,-1.41,0.0,10.525,216.58259999999999,33.8318,175,75
2026-05-09 16:15:03.689,1,-0.76,-1.37,1.23,-0.14500000000000002,224.99259999999998,11.701799999999999,175,75
2026-05-09 16:15:03.700,1,-0.47,-1.1,1.85,10.705,161.58259999999999,12.861799999999999,175,75
2026-05-09 16:15:03.712,1,-0.45,-1.11,2.01,10.285,108.04260000000001,-1.5881999999999996,175,75
2026-05-09 16:15:03.723,1,-0.15,-1.04,1.71,2.475,92.9826,-3.0582000000000003,175,75
2026-05-09 16:15:03.746,1,0.33,-0.96,1.68,6.015,172.1326,17.9818,175,75
2026-05-09 16:15:03.757,1,0.56,-0.96,2.28,-9.535,227.74259999999998,34.2618,175,75
2026-05-09 16:15:03.768,1,0.58,-0.6,2.94,-9.235,232.43259999999998,32.6818,175,75
2026-05-09 16:15:03.790,1,0.09,0.48,2.08,-55.025,40.2426,45.1218,175,75
2026-05-09 16:15:03.801,1,-0.45,0.32,1.1,-112.215,-80.9174,50.791799999999995,175,75
2026-05-09 16:15:03.839,1,0.05,1.09,1.26,-59.105,21.5226,53.9618,175,75
2026-05-09 16:15:03.850,1,0.61,1.45,1.46,-1.3050000000000002,62.0126,48.1018,175,75
2026-05-09 16:15:03.850,1,1.08,1.66,1.82,79.615,81.7026,24.5718,175,75
2026-05-09 16:15:03.876,1,1.05,1.99,1.85,194.555,80.6026,-20.068199999999997,175,75
2026-05-09 16:15:03.898,1,0.65,0.94,1.56,257.295,76.9526,-42.4482,175,75
2026-05-09 16:15:03.910,1,0.57,0.42,1.59,273.085,83.8426,-56.2282,175,75
2026-05-09 16:15:03.915,1,0.81,-0.16,1.9,283.695,138.96259999999998,-52.6282,175,75
2026-05-09 16:15:03.931,1,1.12,-0.42,2.22,287.475,45.9726,-58.358200000000004,175,75
2026-05-09 16:15:03.945,1,-2.51,0.52,-0.22,178.455,-660.2474,-72.8082,175,75
2026-05-09 16:15:03.955,1,-11.85,-0.66,-2.85,61.445,-506.4074,-87.92819999999999,175,75
2026-05-09 16:15:03.965,1,-0.35,0.73,-8.18,-81.545,-550.1274,701.4018,175,75
2026-05-09 16:15:03.983,1,-3.07,1.03,0.72,-172.215,723.9026,15.4818,175,75
2026-05-09 16:15:04.004,1,1.58,1.64,3.41,-218.625,516.0326,230.3618,175,75
2026-05-09 16:15:04.015,1,0.36,-1.98,3.07,-29.905,124.3226,67.7418,175,75
2026-05-09 16:15:04.026,1,-0.19,-2.23,2.65,-15.575,-197.19740000000002,5.361800000000001,175,75
2026-05-09 16:15:04.039,1,0.09,-0.59,-0.13,-86.855,-307.86740000000003,-60.4882,175,75
2026-05-09 16:15:04.049,1,-0.73,-0.46,-1.19,-65.325,-140.97740000000002,-6.6482,175,75
2026-05-09 16:15:04.067,1,-0.53,-0.64,-0.09,-14.475,140.24259999999998,28.9618,175,75
2026-05-09 16:15:04.081,1,-0.73,-0.71,0.39,-3.6849999999999996,148.65259999999998,17.1918,175,75
2026-05-09 16:15:04.091,1,-0.27,-0.51,0.52,13.755,88.4726,0.12180000000000035,175,75
2026-05-09 16:15:04.103,1,-0.58,-0.52,0.17,38.265,55.4226,-19.0882,175,75
2026-05-09 16:15:04.124,1,-0.82,-0.7,0.17,59.065,59.8126,-30.798199999999998,175,75
2026-05-09 16:15:04.124,1,-0.89,-0.91,0.47,81.195,83.9026,-36.168200000000006,175,75
2026-05-09 16:15:04.135,1,-0.37,-1.01,0.95,105.345,129.93259999999998,-32.0782,175,75
2026-05-09 16:15:04.150,1,0.09,-0.32,2.49,89.365,244.5726,-0.3081999999999998,175,75
2026-05-09 16:15:04.166,1,0.32,0.14,3.06,-31.185000000000002,231.7626,11.581800000000001,175,75
2026-05-09 16:15:04.180,1,-0.83,0.93,1.4,-178.805,52.4326,28.8318,175,75
2026-05-09 16:15:04.192,1,-1.18,0.46,-0.14,-298.015,-14.517399999999999,105.54180000000001,175,75
2026-05-09 16:15:04.214,1,-1.42,-2.24,-2.16,-459.295,244.6926,253.4718,175,75
2026-05-09 16:15:04.336,1,0.12,0.38,1.55,-395.145,-142.37740000000002,112.01180000000001,175,75
2026-05-09 16:15:04.361,1,0.34,0.4,1.35,-221.735,-104.45739999999999,114.3818,175,75
2026-05-09 16:15:04.370,1,0.16,0.62,1.19,-169.655,-84.45739999999999,85.79180000000001,175,75
2026-05-09 16:15:04.383,1,0.04,0.77,1.16,-108.745,-36.7074,63.7118,175,75
2026-05-09 16:15:04.409,1,0.47,0.81,1.81,36.075,78.29260000000001,4.3818,175,75
2026-05-09 16:15:04.418,1,0.53,0.84,1.94,96.375,66.8226,-9.9482,175,75
2026-05-09 16:15:04.461,1,0.47,0.75,1.75,183.945,66.2126,-37.318200000000004,175,75
2026-05-09 16:15:04.461,1,0.47,0.69,1.66,231.445,69.26259999999999,-56.8382,175,75
2026-05-09 16:15:04.519,1,0.3,0.48,1.77,378.025,53.2326,-86.95819999999999,175,75
2026-05-09 16:15:04.555,1,0.26,0.1,1.68,429.305,-32.7474,-94.20819999999999,175,75
2026-05-09 16:15:04.575,1,0.17,-0.02,1.39,445.525,-81.4674,-109.45819999999999,175,75
2026-05-09 16:15:04.575,1,0.12,-0.0,1.31,451.375,-91.5274,-115.48819999999999,175,75
2026-05-09 16:15:04.585,1,0.05,-0.1,1.31,458.205,-111.8974,-121.95819999999999,175,75
2026-05-09 16:15:04.607,1,-0.13,-0.31,1.02,469.555,-153.2374,-174.0282,175,75
2026-05-09 16:15:04.607,1,0.0,-0.35,0.88,474.615,-164.75740000000002,-189.2082,175,75
2026-05-09 16:15:04.618,1,-0.18,-0.74,0.98,485.285,-196.7074,-213.4182,175,75
2026-05-09 16:15:04.632,1,-0.12,-1.39,0.19,460.095,-201.5274,-239.9482,175,75
2026-05-09 16:15:04.664,1,-0.54,-2.2,-0.56,393.695,-83.7174,-215.3682,175,75
2026-05-09 16:15:04.678,1,-7.93,-1.41,-1.58,218.515,-948.4173999999999,-278.1182,175,75
2026-05-09 16:15:04.741,1,-5.21,0.17,2.98,-349.295,797.5626000000001,107.5518,175,75
2026-05-09 16:15:04.741,1,3.24,2.28,2.74,-287.945,504.0226,323.71180000000004,175,75
2026-05-09 16:15:04.752,1,-1.62,-2.49,3.88,-20.265,27.4926,25.2418,175,75
2026-05-09 16:15:04.765,1,0.03,-2.63,3.13,11.015,-235.7974,47.071799999999996,175,75
2026-05-09 16:15:04.765,1,0.76,-0.95,0.6,-4.475,-422.3774,-72.37819999999999,175,75
2026-05-09 16:15:04.808,1,-0.09,-0.23,-0.75,-12.945,160.06259999999997,61.0918,175,75
2026-05-09 16:15:04.820,1,-0.64,-0.86,1.09,0.405,198.71259999999998,19.5118,175,75
2026-05-09 16:15:04.820,1,-0.53,-0.81,1.58,26.315,103.29260000000001,3.2218,175,75
2026-05-09 16:15:04.839,1,-0.33,-0.9,1.05,26.315,87.2526,-4.1482,175,75
2026-05-09 16:15:04.882,1,0.26,-0.82,1.83,27.785,216.28259999999997,11.581800000000001,175,75
2026-05-09 16:15:04.895,1,0.43,-0.62,2.46,25.705,241.09259999999998,25.4818,175,75
2026-05-09 16:15:04.918,1,0.59,-0.18,2.86,11.865,217.25259999999997,32.251799999999996,175,75
2026-05-09 16:15:04.929,1,0.26,0.25,2.57,-2.705,147.56259999999997,34.8118,175,75
2026-05-09 16:15:04.929,1,0.11,0.38,2.1,-28.135,74.2626,27.8018,175,75
2026-05-09 16:15:04.939,1,-0.02,0.49,1.48,-76.055,-28.1074,37.3118,175,75
2026-05-09 16:15:04.950,1,-0.26,0.64,1.1,-87.405,-57.1974,54.6318,175,75
2026-05-09 16:15:04.976,1,-0.14,0.87,1.17,-53.015,3.7125999999999997,49.321799999999996,175,75
2026-05-09 16:15:04.976,1,0.46,1.15,1.61,15.765,47.132600000000004,21.701800000000002,175,75
2026-05-09 16:15:05.009,1,0.86,1.38,1.86,152.415,66.2126,-20.978199999999998,175,75
2026-05-09 16:15:05.009,1,0.64,1.32,1.76,191.865,57.9826,-38.5382,175,75
2026-05-09 16:15:05.030,1,0.4,0.59,1.81,217.535,64.0226,-37.1982,175,75
2026-05-09 16:15:05.071,1,0.68,-0.22,1.79,242.905,13.4726,-70.48819999999999,175,75
2026-05-09 16:15:05.087,1,-1.57,0.64,-0.07,156.745,-627.3774,-52.318200000000004,175,75
2026-05-09 16:15:05.098,1,-3.22,-0.09,-6.43,-123.015,-588.6573999999999,253.4718,175,75
2026-05-09 16:15:05.123,1,3.56,-2.02,-5.05,-295.205,573.0426,37.071799999999996,175,75
2026-05-09 16:15:05.134,1,0.26,-0.39,-0.06,-129.415,564.1426,-22.568199999999997,175,75
2026-05-09 16:15:05.144,1,-1.8,0.78,2.81,-179.045,552.0126,91.3318,175,75
2026-05-09 16:15:05.144,1,1.38,0.15,3.3,-115.205,267.6826,200.0518,175,75
2026-05-09 16:15:05.153,1,-0.87,-2.91,3.85,-74.355,0.7925999999999993,21.271800000000002,175,75
2026-05-09 16:15:05.163,1,-0.1,-0.71,2.29,-87.645,-256.7674,-8.9682,175,75
2026-05-09 16:15:05.179,1,-0.21,0.03,0.54,-103.315,-265.1874,-19.3382,175,75
2026-05-09 16:15:05.193,1,-0.36,-0.46,-0.74,-90.575,-203.2974,18.1018,175,75
2026-05-09 16:15:05.204,1,-0.35,-0.35,-0.14,-44.595,153.78259999999997,34.8718,175,75
2026-05-09 16:15:05.241,1,-0.48,0.13,0.18,-6.485,93.3526,20.9118,175,75
2026-05-09 16:15:05.254,1,-0.43,0.2,-0.05,20.955,51.0926,1.4618000000000002,175,75
2026-05-09 16:15:05.276,1,-0.93,-0.69,0.6,102.115,60.9126,-40.7382,175,75
2026-05-09 16:15:05.287,1,-0.75,-1.08,1.03,129.425,78.04260000000001,-51.0382,175,75
2026-05-09 16:15:05.290,1,-0.35,-0.51,1.48,137.055,114.5726,-39.7582,175,75
2026-05-09 16:15:05.323,1,-0.54,0.63,1.87,-53.985,148.4126,50.791799999999995,175,75
2026-05-09 16:15:05.334,1,-1.35,0.05,-0.59,-284.775,137.8626,169.6318,175,75
2026-05-09 16:15:05.348,1,-1.3,-0.86,-0.94,-378.805,164.6326,213.0418,175,75
2026-05-09 16:15:05.354,1,-1.13,-1.57,-0.49,-411.545,214.87259999999998,240.6018,175,75
2026-05-09 16:15:05.367,1,-0.33,-2.13,0.66,-402.825,219.87259999999998,249.6318,175,75
2026-05-09 16:15:05.379,1,-0.64,-1.47,0.18,-477.155,-48.047399999999996,198.8318,175,75
2026-05-09 16:15:05.392,1,0.27,-0.8,-0.2,-467.215,100.9726,227.8018,175,75
2026-05-09 16:15:05.402,1,0.26,-0.71,0.44,-432.585,90.6726,212.1918,175,75
2026-05-09 16:15:05.402,1,0.4,-0.54,0.72,-419.905,79.5726,199.3218,175,75
2026-05-09 16:15:05.415,1,0.5,-0.44,1.02,-400.695,53.2926,178.1618,175,75
2026-05-09 16:15:05.455,1,0.2,0.35,1.5,-306.735,-67.6274,140.4818,175,75
2026-05-09 16:15:05.490,1,0.45,0.43,1.07,-201.855,-46.3474,132.9818,175,75
2026-05-09 16:15:05.541,1,0.55,0.35,0.9,-164.165,-50.797399999999996,108.8318,175,75
2026-05-09 16:15:05.541,1,0.19,0.57,0.56,-89.045,18.4726,51.7018,175,75
2026-05-09 16:15:05.569,1,0.44,0.84,1.35,23.085,91.4626,9.6318,175,75
2026-05-09 16:15:05.575,1,0.5,0.88,1.59,67.725,87.6226,-3.7282,175,75
2026-05-09 16:15:05.601,1,0.54,0.7,1.48,142.785,55.5426,-37.8682,175,75
2026-05-09 16:15:05.616,1,0.49,0.57,1.43,203.575,40.5426,-68.78819999999999,175,75
2026-05-09 16:15:05.638,1,0.4,0.47,1.44,284.125,16.8226,-104.0282,175,75
2026-05-09 16:15:05.648,1,0.38,0.41,1.46,309.975,10.4826,-113.0582,175,75
2026-05-09 16:15:05.648,1,0.39,0.34,1.45,331.315,2.8625999999999996,-118.23819999999999,175,75
2026-05-09 16:15:05.661,1,0.39,0.28,1.45,349.795,-8.967400000000001,-121.5282,175,75
2026-05-09 16:15:05.661,1,0.36,0.22,1.44,364.185,-19.5174,-124.3382,175,75
2026-05-09 16:15:05.687,1,0.34,0.16,1.4,382.535,-24.3974,-125.24819999999998,175,75
2026-05-09 16:15:05.710,1,0.24,0.07,1.36,397.785,-55.547399999999996,-124.3382,175,75
2026-05-09 16:15:05.716,1,0.13,0.02,1.38,403.455,-79.2674,-127.74819999999998,175,75
2026-05-09 16:15:05.732,1,0.04,-0.07,1.38,412.595,-100.2474,-136.7782,175,75
2026-05-09 16:15:05.746,1,-0.07,-0.57,1.37,418.875,-195.18740000000003,-179.81820000000002,175,75
2026-05-09 16:15:05.784,1,-0.13,-0.88,1.4,411.015,-244.4574,-203.1782,175,75
2026-05-09 16:15:05.794,1,0.01,-1.33,-0.23,375.955,-160.3674,-259.6982,175,75
2026-05-09 16:15:05.820,1,-4.05,0.97,-7.8,-273.865,-581.6474,859.0218,175,75
2026-05-09 16:15:05.830,1,0.78,-2.54,-4.36,-90.085,878.3526,-284.02819999999997,175,75
2026-05-09 16:15:05.879,1,-0.04,3.92,3.15,-350.995,706.3426000000001,391.58180000000004,175,75
2026-05-09 16:15:05.923,1,2.4,0.02,2.73,-41.605,432.8626,311.52180000000004,175,75
2026-05-09 16:15:05.923,1,0.32,-4.1,3.46,122.235,-43.8474,33.8318,175,75
2026-05-09 16:15:05.958,1,-0.49,-0.03,-0.58,-114.535,-240.00740000000002,-61.0982,175,75
2026-05-09 16:15:06.035,1,-0.79,-0.74,-0.64,-4.165,151.7626,47.7418,175,75
2026-05-09 16:15:06.055,1,-0.66,-0.84,0.63,-4.475,197.0126,32.9218,175,75
2026-05-09 16:15:06.055,1,-0.51,-0.78,1.08,25.225,138.65259999999998,10.0518,175,75
2026-05-09 16:15:06.091,1,-0.25,-0.98,1.17,24.185,110.0626,0.6618000000000004,175,75
2026-05-09 16:15:06.145,1,0.11,0.45,1.49,-35.025,3.7825999999999995,19.931800000000003,175,75
2026-05-09 16:15:06.181,1,-0.21,0.86,1.36,-28.135,89.8126,61.2718,175,75
2026-05-09 16:15:06.191,1,0.61,1.2,1.92,58.575,101.3426,43.4118,175,75
2026-05-09 16:15:06.217,1,0.66,0.84,1.68,221.135,96.5826,-21.3482,175,75
2026-05-09 16:15:06.271,1,0.7,-0.19,2.0,224.005,-89.5174,-44.5182,175,75
2026-05-09 16:15:06.271,1,-1.54,0.54,0.74,142.175,-519.6374,-28.1782,175,75
2026-05-09 16:15:06.294,1,-6.57,0.48,-0.91,97.235,-468.9074,-57.2582,175,75
2026-05-09 16:15:06.350,1,0.81,0.89,2.58,-95.995,353.4726,204.5718,175,75
2026-05-09 16:15:06.371,1,-0.48,-0.71,-1.34,-34.715,-45.3074,39.9918,175,75
2026-05-09 16:15:06.376,1,-0.6,-0.24,-0.36,1.625,153.1026,12.741800000000001,175,75
2026-05-09 16:15:06.401,1,-0.55,-0.37,0.71,39.555,107.6226,9.261800000000001,175,75
2026-05-09 16:15:06.427,1,-0.87,-0.85,0.44,122.175,98.4126,-75.1882,175,75
2026-05-09 16:15:06.451,1,-0.2,-0.07,1.39,140.645,138.3526,-86.1682,175,75
2026-05-09 16:15:06.467,1,0.03,0.11,1.78,116.805,147.62259999999998,-63.358200000000004,175,75
2026-05-09 16:15:06.478,1,0.14,-0.11,2.33,43.695,172.0726,-18.4182,175,75
2026-05-09 16:15:06.491,1,-0.34,0.28,2.36,-48.135,146.8226,16.0918,175,75
2026-05-09 16:15:06.503,1,-0.86,0.79,0.67,-142.525,111.4026,59.4418,175,75
2026-05-09 16:15:06.522,1,-1.16,-0.09,-0.72,-262.765,210.4226,132.8618,175,75
2026-05-09 16:15:06.561,1,-0.04,-2.08,0.98,-398.075,290.6026,217.9218,175,75
2026-05-09 16:15:06.580,1,-0.47,-1.95,0.24,-456.795,133.2326,138.0418,175,75
2026-05-09 16:15:06.603,1,0.04,-1.23,0.04,-486.365,158.90259999999998,137.49179999999998,175,75
2026-05-09 16:15:06.603,1,0.24,-0.72,0.64,-474.415,152.25259999999997,127.1918,175,75
2026-05-09 16:15:06.644,1,0.61,0.09,1.73,-397.095,-15.677399999999999,87.01180000000001,175,75
2026-05-09 16:15:06.644,1,0.59,0.43,1.82,-381.795,-51.2174,72.8018,175,75
2026-05-09 16:15:06.644,1,0.65,0.95,1.9,-350.515,-75.3674,67.01180000000001,175,75
2026-05-09 16:15:06.654,1,0.62,1.19,2.03,-314.295,-91.5874,72.1318,175,75
2026-05-09 16:15:06.665,1,0.6,1.27,2.13,-265.265,-114.6974,75.0518,175,75
2026-05-09 16:15:06.665,1,0.61,1.23,2.0,-215.145,-145.3074,72.8618,175,75
2026-05-09 16:15:06.682,1,0.33,1.03,1.48,-135.515,-177.37740000000002,55.4218,175,75
2026-05-09 16:15:06.704,1,0.4,1.05,1.43,21.685,-50.1874,-34.3382,175,75
2026-05-09 16:15:06.715,1,0.47,0.99,1.49,134.915,-29.4574,-47.928200000000004,175,75
2026-05-09 16:15:06.736,1,0.37,0.86,1.32,175.035,-21.5274,-57.2582,175,75
2026-05-09 16:15:06.750,1,0.26,0.57,1.12,255.285,9.2026,-78.7282,175,75
2026-05-09 16:15:06.760,1,0.18,0.44,1.06,284.975,12.7426,-84.45819999999999,175,75
2026-05-09 16:15:06.773,1,0.11,0.33,0.97,317.355,11.462599999999998,-88.0582,175,75
2026-05-09 16:15:06.773,1,0.0,0.25,0.9,343.755,13.962599999999998,-89.9482,175,75
2026-05-09 16:15:06.784,1,0.03,0.15,0.87,366.075,28.962600000000002,-93.17819999999999,175,75
2026-05-09 16:15:06.794,1,0.11,-0.0,0.93,393.815,37.2526,-98.59819999999999,175,75
2026-05-09 16:15:06.797,1,0.16,-0.18,1.01,413.025,45.2426,-102.0182,175,75
2026-05-09 16:15:06.821,1,0.23,-0.63,1.23,433.635,25.4826,-103.4782,175,75
2026-05-09 16:15:06.821,1,0.25,-0.78,1.41,435.225,-13.177399999999999,-105.7982,175,75
2026-05-09 16:15:06.836,1,0.16,-0.92,1.47,431.565,-48.1774,-112.37819999999999,175,75
2026-05-09 16:15:06.846,1,0.22,-1.15,1.46,426.255,-79.1474,-124.39819999999999,175,75
2026-05-09 16:15:06.865,1,0.2,-1.28,0.99,403.875,-146.09740000000002,-119.9482,175,75
2026-05-09 16:15:06.866,1,-0.96,-1.12,0.4,363.025,-176.5874,-134.6382,175,75
2026-05-09 16:15:06.876,1,-1.71,-0.58,-1.39,309.795,-250.54740000000004,-117.8682,175,75
2026-05-09 16:15:06.886,1,-5.57,-0.9,-2.69,189.675,-570.1873999999999,-133.84820000000002,175,75
2026-05-09 16:15:06.896,1,-1.98,-0.51,-6.15,61.075,-126.89739999999999,116.9418,175,75
2026-05-09 16:15:06.907,1,-4.18,0.86,-5.67,-153.865,-180.18740000000003,59.0218,175,75
2026-05-09 16:15:06.907,1,2.69,1.18,-1.71,-111.125,776.6426,160.9118,175,75
2026-05-09 16:15:06.929,1,1.02,-0.15,3.13,-72.585,427.3726,31.3318,175,75
2026-05-09 16:15:06.939,1,-1.65,1.3,2.77,-65.385,292.9826,98.7718,175,75
2026-05-09 16:15:06.979,1,-0.95,0.11,-0.27,12.175,-257.2574,-42.0782,175,75
2026-05-09 16:15:06.979,1,-0.43,-0.66,-1.06,7.475,-59.817400000000006,69.3818,175,75
2026-05-09 16:15:07.011,1,-0.19,-0.34,1.12,31.135,171.8826,22.681800000000003,175,75
2026-05-09 16:15:07.045,1,-0.24,-0.72,1.25,45.585,81.7026,-5.4281999999999995,175,75
2026-05-09 16:15:07.060,1,-0.24,-0.48,0.87,35.345,34.6326,-26.1682,175,75
2026-05-09 16:15:07.123,1,-0.4,-0.59,0.83,55.895,92.0726,-26.5882,175,75
2026-05-09 16:15:07.123,1,-0.37,-0.53,1.0,61.925,118.6526,-26.5882,175,75
2026-05-09 16:15:07.179,1,-0.38,0.4,1.38,36.985,165.3626,46.7618,175,75
2026-05-09 16:15:07.179,1,-0.34,0.5,1.27,20.225,175.8526,61.9418,175,75
2026-05-09 16:15:07.214,1,-0.43,0.55,1.24,-0.2649999999999999,164.5126,82.8618,175,75
2026-05-09 16:15:07.223,1,0.23,0.74,1.39,26.925,144.6326,77.1918,175,75
2026-05-09 16:15:07.237,1,0.44,0.93,1.4,46.315,110.3026,67.68180000000001,175,75
2026-05-09 16:15:07.237,1,0.64,1.0,1.28,62.175,88.2326,53.471799999999995,175,75
2026-05-09 16:15:07.249,1,0.78,1.11,1.38,77.785,53.2926,42.5518,175,75
2026-05-09 16:15:07.264,1,1.01,0.98,1.8,105.095,52.4326,35.6618,175,75
2026-05-09 16:15:07.286,1,0.71,0.77,2.03,124.975,26.6426,2.4918,175,75
2026-05-09 16:15:07.286,1,-0.14,1.08,1.65,106.625,-149.81740000000002,6.9418,175,75
2026-05-09 16:15:07.301,1,-1.77,1.49,0.42,72.055,-391.9574,18.7118,175,75
2026-05-09 16:15:07.312,1,-3.61,0.68,-2.19,41.505,-301.4674,-8.478200000000001,175,75
2026-05-09 16:15:07.312,1,1.98,-1.44,-5.28,-81.425,-165.3674,195.18179999999998,175,75
2026-05-09 16:15:07.326,1,2.16,-2.85,-1.89,-198.255,365.7926,29.5118,175,75
2026-05-09 16:15:07.337,1,0.02,0.53,1.27,1.195,266.4626,-58.598200000000006,175,75
2026-05-09 16:15:07.392,1,-0.32,-1.17,-0.51,-12.465,-49.6374,36.151799999999994,175,75
2026-05-09 16:15:07.403,1,-0.29,-0.88,-0.44,5.405,105.4226,14.081800000000001,175,75
2026-05-09 16:15:07.413,1,-0.2,-0.21,0.37,27.725,145.9126,13.651800000000001,175,75
2026-05-09 16:15:07.425,1,-0.23,-0.32,0.71,35.895,113.2326,12.861799999999999,175,75
2026-05-09 16:15:07.425,1,-0.5,-0.33,0.68,51.625,69.9326,-14.578199999999999,175,75
2026-05-09 16:15:07.447,1,-0.63,-0.09,0.41,64.005,39.7526,-34.0882,175,75
2026-05-09 16:15:07.459,1,-0.84,0.01,0.34,100.835,53.0426,-62.6282,175,75
2026-05-09 16:15:07.482,1,-1.08,-0.36,0.76,135.585,70.9126,-85.67819999999999,175,75
2026-05-09 16:15:07.549,1,-1.02,0.75,1.25,114.855,220.7326,4.5718,175,75
2026-05-09 16:15:07.549,1,-1.02,0.95,0.9,57.725,310.7926,66.5818,175,75
2026-05-09 16:15:07.622,1,0.14,-1.45,1.01,-383.375,41.0326,153.0418,175,75
2026-05-09 16:15:07.678,1,0.24,-0.97,0.21,-396.735,29.8126,142.1918,175,75
2026-05-09 16:15:07.678,1,0.27,-0.66,-0.22,-393.625,57.8026,130.8518,175,75
2026-05-09 16:15:07.678,1,0.13,-0.23,-0.09,-372.345,93.4726,136.21179999999998,175,75
2026-05-09 16:15:07.700,1,0.47,-0.17,1.06,-308.685,132.3726,129.0818,175,75
2026-05-09 16:15:07.700,1,0.46,0.07,1.39,-283.075,75.3626,104.26180000000001,175,75
2026-05-09 16:15:07.700,1,0.43,0.47,1.44,-259.535,12.2526,99.6918,175,75
2026-05-09 16:15:07.938,1,0.35,0.66,1.13,-215.205,-56.8974,97.7418,175,75
2026-05-09 16:15:07.938,1,0.26,0.71,1.09,-6.855,-4.877400000000001,9.2018,175,75
2026-05-09 16:15:07.938,1,0.28,0.74,1.23,34.245,2.3725999999999994,-5.368199999999999,175,75
2026-05-09 16:15:07.938,1,0.31,0.7,1.31,73.515,-0.36740000000000084,-21.408199999999997,175,75
2026-05-09 16:15:07.938,1,0.34,0.68,1.32,103.395,-11.9574,-33.1182,175,75
2026-05-09 16:15:07.938,1,0.3,0.62,1.23,136.255,-31.897399999999998,-47.6882,175,75
2026-05-09 16:15:07.939,1,0.2,0.07,1.3,262.655,-71.4074,-127.68820000000001,175,75
2026-05-09 16:15:07.939,1,0.17,-0.02,1.37,269.855,-86.0974,-136.03820000000002,175,75
2026-05-09 16:15:07.956,1,0.11,-0.22,1.37,280.405,-110.7374,-158.53820000000002,175,75
2026-05-09 16:15:07.967,1,0.13,-0.22,1.35,286.925,-114.7574,-168.59820000000002,175,75
2026-05-09 16:15:08.082,1,1.7,-0.67,-3.12,-213.495,-101.8974,239.3818,175,75
2026-05-09 16:15:08.161,1,-0.4,-0.07,0.38,38.515,36.1526,-27.9882,175,75
2026-05-09 16:15:08.299,1,-0.24,0.03,0.37,76.745,77.9826,-27.6882,175,75
2026-05-09 16:15:08.299,1,-0.27,-0.11,0.56,91.925,94.6926,-31.348200000000002,175,75
2026-05-09 16:15:08.299,1,-0.1,-0.13,1.33,103.515,122.8626,-36.708200000000005,175,75
2026-05-09 16:15:08.299,1,0.1,-0.1,1.38,92.535,103.4726,-46.098200000000006,175,75
2026-05-09 16:15:08.299,1,-0.64,0.5,0.02,-89.905,19.2026,60.6618,175,75
2026-05-09 16:15:08.410,1,0.61,1.04,1.44,-73.805,-29.8774,2.8018,175,75
2026-05-09 16:15:08.410,1,0.75,1.14,1.67,-56.055,-68.8474,-10.618199999999998,175,75
2026-05-09 16:15:08.454,1,0.07,1.5,1.1,-21.665,-180.6774,-55.3682,175,75
2026-05-09 16:15:08.454,1,-0.98,0.9,-0.36,-35.695,-236.34740000000002,-22.7482,175,75
2026-05-09 16:15:08.454,1,-0.74,-0.43,1.28,-97.885,21.5226,65.8518,175,75
2026-05-09 16:15:08.479,1,-0.78,-1.04,0.81,79.555,-62.1974,-14.3982,175,75
2026-05-09 16:15:08.530,1,0.31,-1.5,0.85,13.145,-20.0674,3.8318000000000003,175,75
2026-05-09 16:15:08.530,1,-0.33,-0.88,0.34,22.655,-30.007399999999997,-8.118199999999998,175,75
2026-05-09 16:15:08.661,1,-0.52,-0.78,0.14,31.195,-10.0674,-20.4282,175,75
2026-05-09 16:15:08.661,1,-0.58,-0.47,0.1,47.475,21.2826,-31.0382,175,75
2026-05-09 16:15:08.661,1,-0.5,-0.42,0.1,68.205,32.1926,-41.2282,175,75
2026-05-09 16:15:08.661,1,0.07,0.24,1.46,142.965,125.6726,-38.2382,175,75
2026-05-09 16:15:08.717,1,-0.6,-0.69,-0.12,-197.585,410.6726,182.8618,175,75
2026-05-09 16:15:08.717,1,-0.16,-1.18,0.49,-217.275,435.4226,191.8218,175,75
2026-05-09 16:15:08.721,1,0.07,-1.6,0.92,-238.745,371.2126,177.31179999999998,175,75
2026-05-09 16:15:08.869,1,0.33,-0.39,0.22,-304.595,226.34259999999998,93.7718,175,75
2026-05-09 16:15:08.869,1,-0.02,1.06,0.94,-146.485,-174.2074,34.141799999999996,175,75
2026-05-09 16:15:08.925,1,0.42,0.95,1.11,6.075,-83.7874,-23.118199999999998,175,75
2026-05-09 16:15:09.040,1,0.31,0.97,1.1,107.055,-33.3574,-73.9082,175,75
2026-05-09 16:15:09.040,1,0.18,0.58,1.0,205.585,-34.0274,-139.75820000000002,175,75
2026-05-09 16:15:09.113,1,0.04,0.31,1.3,242.355,-103.5374,-180.4282,175,75
2026-05-09 16:15:09.113,1,-0.13,-0.03,1.34,250.895,-160.3074,-198.2382,175,75
2026-05-09 16:15:09.127,1,-6.49,0.57,-5.36,4.615,-395.1874,184.7518,175,75
2026-05-09 16:15:09.127,1,4.45,-0.51,-0.69,-154.905,232.25259999999997,289.4418,175,75
2026-05-09 16:15:09.150,1,-1.56,1.95,0.88,15.405,337.7426,47.7418,175,75
2026-05-09 16:15:09.150,1,0.33,1.26,1.7,105.405,233.71259999999998,126.82180000000001,175,75
2026-05-09 16:15:09.226,1,-0.25,-0.74,0.92,4.0649999999999995,7.3126,-4.9482,175,75
2026-05-09 16:15:09.253,1,-0.25,-0.56,0.72,9.615,36.5826,-1.7782,175,75
2026-05-09 16:15:09.253,1,-0.32,-0.56,0.61,15.345,53.9026,-10.5582,175,75
2026-05-09 16:15:09.280,1,-0.27,-0.4,0.71,22.415,85.8526,-13.9682,175,75
2026-05-09 16:15:09.361,1,-0.19,-0.08,0.81,50.345,88.8426,-21.7782,175,75
2026-05-09 16:15:09.374,1,-0.16,-0.05,1.25,58.875,41.3426,-29.878199999999996,175,75
2026-05-09 16:15:09.397,1,-0.06,0.25,1.0,21.565,15.302599999999998,-16.228199999999998,175,75
2026-05-09 16:15:09.407,1,-0.22,0.42,0.75,3.265,-7.687400000000001,-2.4482,175,75
2026-05-09 16:15:09.407,1,-0.37,0.44,0.35,-21.665,-24.6374,19.4418,175,75
2026-05-09 16:15:09.415,1,-0.47,0.36,0.02,-48.495,6.4026,33.4118,175,75
2026-05-09 16:15:09.430,1,-0.36,0.42,0.01,-67.765,42.5626,48.7118,175,75
2026-05-09 16:15:09.430,1,-0.32,0.55,0.2,-74.105,70.3626,60.8518,175,75
2026-05-09 16:15:09.442,1,0.11,0.47,0.54,-77.405,97.7426,60.181799999999996,175,75
2026-05-09 16:15:09.469,1,0.62,0.68,1.24,-89.295,20.0626,27.7418,175,75
2026-05-09 16:15:09.488,1,0.82,0.94,1.97,-54.355,-50.2474,-25.6782,175,75
2026-05-09 16:15:09.510,1,0.06,1.65,1.4,-29.715,-194.93740000000003,-55.428200000000004,175,75
2026-05-09 16:15:09.538,1,-2.47,0.3,-0.3,-124.965,-38.2374,67.8618,175,75
2026-05-09 16:15:09.569,1,-1.49,-0.61,0.81,81.445,-3.2974000000000006,16.7018,175,75
2026-05-09 16:15:09.579,1,-0.31,-0.51,1.13,6.745,107.1926,70.6618,175,75
2026-05-09 16:15:09.598,1,0.79,-1.07,1.33,38.515,101.8226,63.1618,175,75
2026-05-09 16:15:09.606,1,0.73,-1.37,0.94,10.645,36.7626,30.7218,175,75
2026-05-09 16:15:09.641,1,0.03,-0.85,0.55,-11.425,-57.1974,0.48180000000000023,175,75
2026-05-09 16:15:09.651,1,-0.4,-0.68,0.19,1.8050000000000002,-46.3474,-6.528199999999999,175,75
2026-05-09 16:15:09.676,1,-0.6,-0.3,-0.11,61.745,34.3226,-35.428200000000004,175,75
2026-05-09 16:15:09.686,1,-0.57,-0.26,-0.01,83.335,45.5426,-50.9782,175,75
2026-05-09 16:15:09.712,1,-0.4,-0.68,0.65,156.075,47.4326,-80.06819999999999,175,75
2026-05-09 16:15:09.736,1,-0.06,-0.31,0.92,164.365,83.7826,-68.6682,175,75
2026-05-09 16:15:09.746,1,0.34,0.09,1.45,150.585,127.1326,-60.918200000000006,175,75
2026-05-09 16:15:09.746,1,0.37,0.09,2.24,97.725,159.81259999999997,-27.138199999999998,175,75
2026-05-09 16:15:09.787,1,-0.81,-0.12,-1.12,-248.865,137.56259999999997,105.4818,175,75
2026-05-09 16:15:09.838,1,-0.75,-1.75,0.24,-419.655,156.7626,136.8218,175,75
2026-05-09 16:15:09.880,1,0.39,0.03,1.22,-336.365,165.12259999999998,120.0518,175,75
2026-05-09 16:15:09.933,1,0.43,0.95,1.98,-201.055,-42.1374,53.471799999999995,175,75
2026-05-09 16:15:09.961,1,0.47,0.89,1.84,-141.735,-87.6874,42.1918,175,75
2026-05-09 16:15:10.000,1,0.08,0.88,1.35,-4.775,-106.5274,-12.4482,175,75
2026-05-09 16:15:10.005,1,0.18,0.84,1.36,41.625,-100.7974,-43.358200000000004,175,75
2026-05-09 16:15:10.049,1,0.14,0.64,1.01,166.985,-31.407400000000003,-103.9082,175,75
2026-05-09 16:15:10.090,1,0.1,0.46,1.1,216.015,-22.5674,-121.95819999999999,175,75
2026-05-09 16:15:10.106,1,0.04,0.39,1.06,231.375,-30.367399999999996,-130.3682,175,75
2026-05-09 16:15:10.140,1,-0.05,0.33,0.96,250.705,-43.4774,-142.1982,175,75
2026-05-09 16:15:10.152,1,-0.07,0.24,0.91,269.915,-41.2874,-151.8382,175,75
2026-05-09 16:15:10.177,1,-0.02,-0.03,0.93,300.585,-34.5174,-169.2082,175,75
2026-05-09 16:15:10.236,1,0.04,-0.19,0.95,312.055,-31.157400000000003,-179.9482,175,75
2026-05-09 16:15:10.236,1,0.13,-0.38,1.07,317.415,-48.1074,-183.9682,175,75
2026-05-09 16:15:10.315,1,-0.77,1.34,1.97,-5.875,358.7126,53.5918,175,75
2026-05-09 16:15:10.423,1,0.02,-0.34,0.78,77.785,101.5826,-32.318200000000004,175,75
2026-05-09 16:15:10.445,1,-0.04,-0.22,1.29,79.915,105.7326,-36.2882,175,75
2026-05-09 16:15:10.445,1,0.1,-0.2,1.65,70.585,103.9626,-32.8682,175,75
2026-05-09 16:15:10.454,1,-0.02,-0.0,1.83,52.235,85.4226,-36.8382,175,75
2026-05-09 16:15:10.485,1,-0.1,0.16,1.65,18.755,66.2126,-15.008199999999999,175,75
2026-05-09 16:15:10.546,1,0.52,0.6,0.99,-55.145,26.8826,9.021799999999999,175,75
2026-05-09 16:15:10.562,1,0.56,0.84,1.15,-40.145,-25.9174,-1.0381999999999998,175,75
2026-05-09 16:15:10.587,1,0.82,0.86,1.4,-8.925,-82.9274,-43.7282,175,75
2026-05-09 16:15:10.621,1,0.8,1.05,1.63,24.305,-113.5974,-76.09819999999999,175,75
2026-05-09 16:15:10.621,1,0.97,0.91,1.87,46.505,-147.19740000000002,-91.89819999999999,175,75
2026-05-09 16:15:10.641,1,0.45,0.97,1.31,45.895,-245.91740000000001,-91.5282,175,75
2026-05-09 16:15:10.641,1,-0.86,1.03,-0.26,12.725,-407.1374,-68.53819999999999,175,75
2026-05-09 16:15:10.654,1,-4.79,1.14,-2.04,-59.775,-709.2074,-99.6382,175,75
2026-05-09 16:15:10.675,1,-1.73,-0.96,1.89,-61.185,82.7426,-76.1682,175,75
2026-05-09 16:15:10.685,1,-1.24,0.87,1.35,50.225,91.2826,72.9818,175,75
2026-05-09 16:15:10.701,1,-0.78,-0.78,1.92,7.535,189.4526,117.7418,175,75
2026-05-09 16:15:10.735,1,0.48,-1.04,0.02,-2.405,25.6026,12.921800000000001,175,75
2026-05-09 16:15:10.746,1,0.06,-0.83,0.25,-6.485,0.06259999999999977,-6.2282,175,75
2026-05-09 16:15:10.752,1,-0.36,-0.36,0.34,6.805,-15.427399999999999,-16.5282,175,75
2026-05-09 16:15:10.767,1,-0.74,-0.12,0.21,36.015,-32.2574,-21.958199999999998,175,75
2026-05-09 16:15:10.791,1,-0.77,-0.32,-0.13,64.975,3.4725999999999995,-28.1782,175,75
2026-05-09 16:15:10.791,1,-0.64,-0.52,-0.23,88.755,41.5226,-35.5582,175,75
2026-05-09 16:15:10.807,1,-0.48,-0.73,-0.11,125.285,99.7526,-55.4882,175,75
2026-05-09 16:15:10.819,1,-0.46,-0.78,0.36,145.955,125.0626,-58.1182,175,75
2026-05-09 16:15:10.823,1,-0.09,-0.57,0.9,163.635,161.52259999999998,-49.7582,175,75
2026-05-09 16:15:10.843,1,0.09,-0.32,1.51,172.235,161.40259999999998,-53.7282,175,75
2026-05-09 16:15:10.851,1,0.22,-0.19,1.71,150.285,164.6926,-50.918200000000006,175,75
2026-05-09 16:15:10.861,1,0.27,-0.13,2.09,84.125,143.1726,-56.5882,175,75
2026-05-09 16:15:10.882,1,-0.5,0.72,1.35,-50.265,73.5326,0.6018000000000003,175,75
2026-05-09 16:15:10.901,1,-1.04,0.38,-0.02,-134.295,82.8026,57.681799999999996,175,75
2026-05-09 16:15:10.912,1,-1.1,-0.43,-1.14,-279.355,236.9526,164.2018,175,75
2026-05-09 16:15:10.936,1,-0.87,-1.2,-0.4,-304.105,359.14259999999996,212.62179999999998,175,75
2026-05-09 16:15:10.948,1,-0.15,-1.54,0.67,-320.085,275.1226,223.2918,175,75
2026-05-09 16:15:10.948,1,-0.35,-1.36,0.64,-329.775,197.43259999999998,169.4418,175,75
2026-05-09 16:15:10.981,1,0.21,-0.04,0.65,-335.085,213.96259999999998,130.9118,175,75
2026-05-09 16:15:11.014,1,0.54,0.33,1.73,-277.765,64.0226,69.7518,175,75
2026-05-09 16:15:11.046,1,0.36,0.9,1.69,-220.445,-64.8774,51.151799999999994,175,75
2026-05-09 16:15:11.046,1,0.31,0.92,1.56,-200.995,-85.1274,46.0318,175,75
2026-05-09 16:15:11.057,1,0.3,0.89,1.43,-172.275,-108.5974,38.651799999999994,175,75
2026-05-09 16:15:11.068,1,0.25,0.85,1.38,-134.235,-123.2374,35.971799999999995,175,75
2026-05-09 16:15:11.086,1,0.21,0.85,1.25,-103.195,-138.84740000000002,31.091800000000003,175,75
2026-05-09 16:15:11.097,1,0.04,0.88,1.07,-75.695,-153.0474,22.6218,175,75
2026-05-09 16:15:11.121,1,-0.11,0.91,0.8,-8.745,-114.45739999999999,-33.178200000000004,175,75
2026-05-09 16:15:11.134,1,0.05,0.96,0.82,74.245,-60.3674,-74.7582,175,75
2026-05-09 16:15:11.149,1,0.1,0.92,0.81,104.975,-32.3774,-87.1382,175,75
2026-05-09 16:15:11.156,1,0.15,0.84,0.8,134.125,-3.5974000000000013,-99.3382,175,75
2026-05-09 16:15:11.186,1,0.35,0.55,0.92,195.525,49.8126,-129.5182,175,75
2026-05-09 16:15:11.196,1,0.34,0.51,0.93,206.255,45.7326,-134.4582,175,75
2026-05-09 16:15:11.210,1,0.33,0.4,0.9,218.025,35.062599999999996,-141.4682,175,75
2026-05-09 16:15:11.230,1,0.24,0.29,0.83,228.515,29.2026,-160.2482,175,75
2026-05-09 16:15:11.249,1,0.46,0.35,1.16,218.695,20.4226,-158.0582,175,75
2026-05-09 16:15:11.259,1,0.34,0.54,1.5,212.415,-32.1374,-131.5882,175,75
2026-05-09 16:15:11.280,1,0.3,0.35,1.63,194.185,-111.1574,-112.92819999999999,175,75
2026-05-09 16:15:11.290,1,0.29,-0.02,1.43,167.845,-208.53740000000002,-113.59819999999999,175,75
2026-05-09 16:15:11.297,1,0.05,-0.16,1.06,144.615,-210.12740000000002,-113.84819999999999,175,75
2026-05-09 16:15:11.311,1,0.08,0.0,0.73,130.835,-162.43740000000003,-127.86819999999999,175,75
2026-05-09 16:15:11.322,1,0.36,0.09,0.59,124.555,-117.5074,-126.40820000000001,175,75
2026-05-09 16:15:11.336,1,-0.95,0.61,-0.71,38.875,-192.62740000000002,-63.9682,175,75
2026-05-09 16:15:11.381,1,-2.64,0.29,2.96,-158.135,-121.5274,-19.5782,175,75
2026-05-09 16:15:11.410,1,0.31,-1.62,1.25,-62.155,52.9226,55.0518,175,75
2026-05-09 16:15:11.421,1,-0.59,-0.34,-0.08,-26.975,-113.5974,-13.5382,175,75
2026-05-09 16:15:11.434,1,-0.03,-0.69,-1.26,-34.235,-23.8474,22.8018,175,75
2026-05-09 16:15:11.445,1,-0.43,-0.8,-0.4,-14.045,122.8626,-6.528199999999999,175,75
2026-05-09 16:15:11.457,1,-0.43,-1.42,0.08,-7.095,107.4926,4.9318,175,75
2026-05-09 16:15:11.468,1,-0.53,-0.93,0.22,-5.815,77.8626,-59.028200000000005,175,75
2026-05-09 16:15:11.480,1,-0.6,-0.18,-0.09,-1.545,52.5626,-67.98819999999999,175,75
2026-05-09 16:15:11.480,1,-0.77,-0.01,-0.44,14.065,48.5926,-63.9682,175,75
2026-05-09 16:15:11.550,1,-1.15,-1.52,1.18,113.025,110.2426,-140.97820000000002,175,75
2026-05-09 16:15:11.601,1,-1.97,0.96,0.3,98.025,242.80259999999998,42.6218,175,75
2026-05-09 16:15:11.624,1,-2.13,0.79,0.35,55.285,453.1026,136.7018,175,75
2026-05-09 16:15:11.640,1,-1.0,0.09,1.06,23.875,405.1826,180.5418,175,75
2026-05-09 16:15:11.640,1,-1.07,-0.01,1.63,-34.965,386.0926,207.74179999999998,175,75
2026-05-09 16:15:11.674,1,-0.31,0.48,1.27,-124.045,-19.0274,208.1018,175,75
2026-05-09 16:15:11.709,1,0.61,0.41,0.91,-92.825,0.5425999999999993,216.21179999999998,175,75
2026-05-09 16:15:11.743,1,1.63,0.72,1.47,-61.485,52.4326,180.6018,175,75
2026-05-09 16:15:11.743,1,1.63,0.8,1.83,-25.755,44.8726,169.6918,175,75
2026-05-09 16:15:11.758,1,1.51,1.01,1.59,-14.845,-14.087399999999999,151.8818,175,75
2026-05-09 16:15:11.769,1,1.43,1.15,0.91,-9.165,-19.6374,120.4818,175,75
2026-05-09 16:15:11.789,1,2.01,0.84,0.56,9.675,67.5626,81.2718,175,75
2026-05-09 16:15:11.815,1,1.61,1.7,-2.04,5.895,-143.2374,119.7518,175,75
2026-05-09 16:15:11.815,1,3.29,-1.71,-3.49,41.565,469.32259999999997,23.6518,175,75
2026-05-09 16:15:11.825,1,4.28,-2.46,0.9,48.025,494.20259999999996,43.1018,175,75
2026-05-09 16:15:11.836,1,2.46,-2.48,3.08,145.895,217.1926,-3.5981999999999994,175,75
2026-05-09 16:15:11.847,1,1.58,-1.95,3.1,-65.025,-81.4074,-78.84819999999999,175,75
2026-05-09 16:15:11.877,1,-0.64,-1.29,0.3,-3.255,-186.09740000000002,-23.908199999999997,175,75
2026-05-09 16:15:11.889,1,-1.13,-1.55,-0.81,-8.925,-25.8574,8.7118,175,75
2026-05-09 16:15:11.889,1,0.92,-2.09,-1.59,3.575,105.7326,-10.918199999999999,175,75
2026-05-09 16:15:11.907,1,-0.47,0.06,-0.12,8.815000000000001,168.1026,-75.5582,175,75
2026-05-09 16:15:11.929,1,-0.75,0.85,0.08,45.465,103.3526,-63.8482,175,75
2026-05-09 16:15:11.939,1,-0.68,0.46,-0.39,85.765,89.3226,-95.9182,175,75
2026-05-09 16:15:11.984,1,-1.7,0.03,0.29,214.915,239.1426,-176.7782,175,75
2026-05-09 16:15:12.015,1,-1.9,0.19,0.61,256.505,316.64259999999996,-209.9482,175,75
2026-05-09 16:15:12.038,1,-0.6,0.45,-2.26,213.455,440.7926,-172.8082,175,75
2026-05-09 16:15:12.038,1,-0.94,0.53,-2.87,161.805,771.7026000000001,-50.1282,175,75
2026-05-09 16:15:12.063,1,0.27,0.16,1.03,222.475,1043.9625999999998,31.9418,175,75
2026-05-09 16:15:12.075,1,-0.16,-0.27,3.85,219.245,856.1526,43.1618,175,75
2026-05-09 16:15:12.075,1,-0.98,-0.77,2.86,35.095,303.1726,-42.138200000000005,175,75
2026-05-09 16:15:12.090,1,-1.92,0.01,1.12,-210.815,63.9626,-62.86820000000001,175,75
2026-05-09 16:15:12.095,1,-1.63,0.28,0.13,-324.475,-17.1374,-27.9882,175,75
2026-05-09 16:15:12.144,1,-0.79,-1.47,0.88,-374.845,-246.28740000000002,5.4818,175,75
2026-05-09 16:15:12.144,1,-0.93,-0.74,0.83,-381.605,-273.29740000000004,60.541799999999995,175,75
2026-05-09 16:15:12.170,1,-1.19,-0.58,0.74,-308.315,-176.28740000000002,184.2618,175,75
2026-05-09 16:15:12.170,1,-1.18,-1.11,0.97,-267.525,-97.5074,210.18179999999998,175,75
2026-05-09 16:15:12.251,1,-0.72,-1.39,1.4,-211.365,-115.6074,192.37179999999998,175,75
2026-05-09 16:15:12.255,1,-0.57,-1.25,1.39,-195.385,-122.0174,169.4418,175,75
2026-05-09 16:15:12.284,1,-0.03,-1.01,1.37,-178.435,-123.7874,135.4818,175,75
2026-05-09 16:15:12.284,1,0.21,-0.93,1.41,-163.495,-120.0674,108.2218,175,75
2026-05-09 16:15:12.313,1,1.0,-0.44,0.78,-89.235,-93.6574,83.65180000000001,175,75
2026-05-09 16:15:12.324,1,1.32,-0.31,0.87,-52.345,-16.4074,82.1318,175,75
2026-05-09 16:15:12.324,1,1.55,-0.1,1.27,-28.375,29.0226,82.3118,175,75
2026-05-09 16:15:12.336,1,1.58,0.19,1.99,-4.475,5.3626,88.4718,175,75
2026-05-09 16:15:12.336,1,1.58,0.39,2.26,14.365,-39.0274,82.8018,175,75
2026-05-09 16:15:12.347,1,1.64,0.62,1.75,36.565,-148.78740000000002,62.7418,175,75
2026-05-09 16:15:12.358,1,1.54,0.59,1.54,43.815,-168.2974,56.5218,175,75
2026-05-09 16:15:12.373,1,1.45,0.48,0.95,67.235,-164.69740000000002,33.2218,175,75
2026-05-09 16:15:12.401,1,1.45,0.55,0.69,87.295,-118.0474,28.5318,175,75
2026-05-09 16:15:12.401,1,1.33,0.67,0.59,101.075,-77.8674,25.2418,175,75
2026-05-09 16:15:12.493,1,0.86,0.97,1.15,121.505,18.7126,51.581799999999994,175,75
2026-05-09 16:15:12.493,1,0.65,0.79,1.22,114.795,17.1926,53.7118,175,75
2026-05-09 16:15:12.500,1,0.33,0.76,0.46,90.585,-103.2374,39.6318,175,75
2026-05-09 16:15:12.514,1,0.13,1.01,-1.0,47.535,-83.9074,32.5518,175,75
2026-05-09 16:15:12.543,1,2.48,-2.91,1.33,-98.435,461.5826,15.721800000000002,175,75
2026-05-09 16:15:12.555,1,1.2,-1.29,3.59,120.525,163.65259999999998,-27.4482,175,75
2026-05-09 16:15:12.555,1,1.92,-1.9,2.09,27.965,-173.2974,-57.8082,175,75
2026-05-09 16:15:12.566,1,0.96,-1.53,1.39,-74.535,-181.6474,-97.98819999999999,175,75
2026-05-09 16:15:12.577,1,-0.32,-1.71,-0.45,-23.135,-228.1774,-107.6882,175,75
2026-05-09 16:15:12.577,1,-1.04,-1.77,-1.17,-32.825,-43.047399999999996,-74.6382,175,75
2026-05-09 16:15:12.590,1,-0.48,-1.42,-1.03,-20.515,96.1526,-70.2482,175,75
2026-05-09 16:15:12.647,1,-1.32,-0.47,-0.16,46.865,56.0926,-196.22820000000002,175,75
2026-05-09 16:15:12.647,1,-1.21,-0.8,-0.23,71.375,54.8126,-212.9882,175,75
2026-05-09 16:15:12.659,1,-1.33,-0.81,0.15,124.735,67.0726,-256.22819999999996,175,75
2026-05-09 16:15:12.680,1,-2.53,-0.74,2.68,191.135,109.7526,-173.1782,175,75
2026-05-09 16:15:12.711,1,-2.43,0.34,2.34,176.445,94.7526,-145.00820000000002,175,75
2026-05-09 16:15:12.734,1,-3.26,1.14,-0.74,98.755,324.7526,70.0518,175,75
2026-05-09 16:15:12.735,1,-3.36,0.7,-0.49,18.265,519.2626,162.68179999999998,175,75
2026-05-09 16:15:12.791,1,-1.46,-0.67,1.85,-118.315,396.64259999999996,241.27179999999998,175,75
2026-05-09 16:15:12.791,1,-0.99,-0.89,2.23,-123.555,247.62259999999998,238.0418,175,75
2026-05-09 16:15:12.813,1,-0.42,-0.1,1.27,-203.625,-33.1774,219.6318,175,75
2026-05-09 16:15:12.813,1,-0.18,-0.05,1.19,-206.795,-52.7474,235.9718,175,75
2026-05-09 16:15:12.826,1,0.14,-0.08,1.23,-193.925,-61.647400000000005,241.7618,175,75
2026-05-09 16:15:12.826,1,0.26,-0.06,1.27,-176.305,-119.3974,228.5318,175,75
2026-05-09 16:15:12.836,1,0.96,0.02,1.45,-139.535,-43.4174,193.59179999999998,175,75
2026-05-09 16:15:12.847,1,1.31,0.29,1.4,-120.515,-97.6874,186.15179999999998,175,75
2026-05-09 16:15:12.857,1,1.45,0.47,1.04,-81.245,-61.5274,170.8518,175,75
2026-05-09 16:15:12.857,1,1.45,0.71,0.9,-60.635,-5.5474000000000006,171.09179999999998,175,75
2026-05-09 16:15:12.869,1,1.38,0.88,0.98,-31.305,71.2826,175.4818,175,75
2026-05-09 16:15:12.880,1,1.24,0.94,1.45,-7.885,71.0326,171.3318,175,75
2026-05-09 16:15:12.892,1,0.79,0.96,1.75,20.645,80.9726,173.1018,175,75
2026-05-09 16:15:12.918,1,0.81,0.85,0.24,48.145,9.1426,128.0418,175,75
2026-05-09 16:15:12.932,1,0.85,0.78,-0.4,34.735,96.9526,105.0518,175,75
2026-05-09 16:15:12.956,1,2.35,0.97,1.28,128.265,391.5826,111.15180000000001,175,75
2026-05-09 16:15:12.966,1,2.34,0.44,-1.97,53.265,-343.7174,54.9918,175,75
2026-05-09 16:15:13.002,1,2.06,-6.01,0.16,54.915,1051.8226,81.46180000000001,175,75
2026-05-09 16:15:13.018,1,1.28,-1.86,6.52,202.415,452.07259999999997,88.5318,175,75
2026-05-09 16:15:13.028,1,2.96,-0.95,5.05,47.965,-33.5374,17.3718,175,75
2026-05-09 16:15:13.041,1,0.1,-1.16,2.8,72.295,-280.0674,-64.39819999999999,175,75
2026-05-09 16:15:13.064,1,-0.34,-1.84,0.81,84.795,-335.1874,-67.8682,175,75
2026-05-09 16:15:13.082,1,-1.49,-5.46,-0.7,-64.415,186.52259999999998,-165.9182,175,75
2026-05-09 16:15:13.089,1,-0.79,0.03,1.85,-61.975,171.21259999999998,-140.12820000000002,175,75
2026-05-09 16:15:13.111,1,-0.5,1.48,-0.16,26.195,-5.0674,-64.14819999999999,175,75
2026-05-09 16:15:13.120,1,-1.64,0.76,-1.76,53.395,37.0126,-174.5782,175,75
2026-05-09 16:15:13.131,1,-1.78,0.85,-0.41,264.305,221.52259999999998,-263.0582,175,75
2026-05-09 16:15:13.145,1,-2.35,0.3,0.16,260.585,298.0426,-229.81820000000002,175,75
2026-05-09 16:15:13.145,1,-2.71,-0.39,0.77,290.585,344.20259999999996,-199.6382,175,75
2026-05-09 16:15:13.155,1,-3.28,-0.58,1.67,341.015,326.4026,-188.6682,175,75
2026-05-09 16:15:13.166,1,-1.58,-0.3,0.96,346.565,309.26259999999996,-158.53820000000002,175,75
2026-05-09 16:15:13.166,1,-0.28,-0.0,-1.44,295.525,313.8426,-137.9882,175,75
2026-05-09 16:15:13.179,1,-0.48,0.25,-3.03,187.295,432.2526,-91.4682,175,75
2026-05-09 16:15:13.187,1,-0.75,1.06,-1.0,78.145,944.8726,15.541799999999999,175,75
2026-05-09 16:15:13.202,1,-0.21,0.16,0.32,16.195,792.9826,-6.8382,175,75
2026-05-09 16:15:13.214,1,-1.69,-0.37,0.95,-119.235,727.4326000000001,3.2918000000000003,175,75
2026-05-09 16:15:13.225,1,-1.85,-0.44,1.36,-224.535,487.2526,79.4418,175,75
2026-05-09 16:15:13.236,1,-1.03,-1.46,1.42,-250.935,210.4826,88.10180000000001,175,75
2026-05-09 16:15:13.248,1,-0.27,-1.42,1.23,-363.015,-169.69740000000002,24.381800000000002,175,75
2026-05-09 16:15:13.259,1,-0.46,-1.33,0.99,-391.975,-212.68740000000003,47.4918,175,75
2026-05-09 16:15:13.281,1,-0.55,-1.19,1.02,-388.015,-267.5674,77.8618,175,75
2026-05-09 16:15:13.327,1,-0.86,-0.95,1.18,-338.805,-276.7074,143.59179999999998,175,75
2026-05-09 16:15:13.361,1,-0.91,-1.1,1.19,-290.025,-257.3774,155.6018,175,75
2026-05-09 16:15:13.390,1,-0.0,-0.72,1.59,-190.695,-204.69740000000002,140.12179999999998,175,75
2026-05-09 16:15:13.390,1,0.1,-0.51,1.55,-169.415,-213.65740000000002,125.4218,175,75
2026-05-09 16:15:13.417,1,0.73,0.08,0.73,-111.915,-117.8674,103.71180000000001,175,75
2026-05-09 16:15:13.445,1,1.29,0.42,0.7,-42.525,43.1726,104.0818,175,75
2026-05-09 16:15:13.455,1,1.6,0.8,1.37,11.565,114.3226,101.0318,175,75
2026-05-09 16:15:13.463,1,1.32,0.78,1.69,52.785,89.2626,83.7718,175,75
2026-05-09 16:15:13.475,1,1.17,0.83,1.98,58.145,41.2126,77.1918,175,75
2026-05-09 16:15:13.487,1,0.99,0.79,2.08,51.445,-34.3274,66.9418,175,75
2026-05-09 16:15:13.497,1,0.89,0.78,2.05,52.355,-126.52739999999999,71.5818,175,75
2026-05-09 16:15:13.518,1,0.77,0.7,1.82,48.515,-187.8674,68.96180000000001,175,75
2026-05-09 16:15:13.539,1,0.77,0.7,1.27,49.185,-250.24740000000003,64.9918,175,75
2026-05-09 16:15:13.539,1,0.6,0.71,1.05,52.535,-202.0174,61.2718,175,75
2026-05-09 16:15:13.551,1,0.78,0.93,1.06,66.075,-125.9174,53.291799999999995,175,75
2026-05-09 16:15:13.562,1,1.05,0.9,1.33,76.805,-77.7474,46.5218,175,75
2026-05-09 16:15:13.569,1,0.83,0.82,0.5,79.125,-112.6874,19.021800000000002,175,75
2026-05-09 16:15:13.583,1,0.39,1.11,-0.93,57.965,-140.06740000000002,-8.848199999999999,175,75
2026-05-09 16:15:13.595,1,-0.48,1.36,-1.75,54.915,192.9826,61.581799999999994,175,75
2026-05-09 16:15:13.629,1,5.11,-7.3,-4.5,-59.775,1042.2526,95.7218,175,75
2026-05-09 16:15:13.642,1,1.76,-4.18,3.95,84.675,606.5826000000001,-27.138199999999998,175,75
2026-05-09 16:15:13.642,1,7.2,-0.78,4.86,37.355,261.8226,52.0118,175,75
2026-05-09 16:15:13.657,1,1.35,-2.35,4.53,9.245,-19.3974,-65.0082,175,75
2026-05-09 16:15:13.667,1,-0.37,-1.91,1.15,43.025,-448.04740000000004,-136.34820000000002,175,75
2026-05-09 16:15:13.667,1,-1.23,-3.14,-1.01,30.765,-354.6974,-46.0382,175,75
2026-05-09 16:15:13.688,1,-0.89,-3.21,-2.42,-43.625,20.9726,-55.858200000000004,175,75
2026-05-09 16:15:13.688,1,-0.41,-2.06,-0.84,-17.465,273.2926,-119.3382,175,75
2026-05-09 16:15:13.725,1,-0.93,-0.2,0.18,21.195,156.28259999999997,-131.5282,175,75
2026-05-09 16:15:13.743,1,-1.09,-0.81,-0.39,64.85499999999999,105.3026,-188.2382,175,75
2026-05-09 16:15:13.764,1,-2.02,-0.6,0.95,157.415,185.6726,-187.8082,175,75
2026-05-09 16:15:13.776,1,-3.06,-0.54,2.05,179.245,212.1926,-141.8382,175,75
2026-05-09 16:15:13.786,1,-3.35,-0.37,2.98,173.635,241.6426,-117.0782,175,75
2026-05-09 16:15:13.799,1,-2.66,0.89,2.35,164.065,181.09259999999998,-49.638200000000005,175,75
2026-05-09 16:15:13.822,1,-2.98,1.18,0.24,154.485,147.68259999999998,3.2918000000000003,175,75
2026-05-09 16:15:13.853,1,-1.66,-0.31,-0.29,-35.385,554.4526000000001,197.74179999999998,175,75
2026-05-09 16:15:13.869,1,-1.73,-0.38,1.26,-81.185,499.9926,243.8318,175,75
2026-05-09 16:15:13.869,1,-1.2,-0.64,2.14,-87.525,308.6526,264.3218,175,75
2026-05-09 16:15:13.903,1,-0.21,0.19,0.96,-202.275,-82.9874,225.8518,175,75
2026-05-09 16:15:13.903,1,-0.12,0.19,0.98,-190.265,-66.3474,227.37179999999998,175,75
2026-05-09 16:15:13.915,1,0.2,0.34,1.04,-166.185,-45.6074,234.1418,175,75
2026-05-09 16:15:13.922,1,0.24,0.4,1.21,-145.755,-61.70739999999999,232.49179999999998,175,75
2026-05-09 16:15:13.948,1,0.58,0.35,1.18,-118.375,-40.9774,224.99179999999998,175,75
2026-05-09 16:15:13.958,1,0.68,0.31,1.05,-107.155,-44.3974,207.31179999999998,175,75
2026-05-09 16:15:13.974,1,1.21,0.54,1.06,-77.275,65.8526,195.3618,175,75
2026-05-09 16:15:13.998,1,1.22,0.71,1.31,-55.695,67.01259999999999,177.68179999999998,175,75
2026-05-09 16:15:13.998,1,1.15,0.88,1.5,-40.995,59.0826,184.81179999999998,175,75
2026-05-09 16:15:14.048,1,0.99,0.93,1.28,22.355,59.1426,165.8518,175,75
2026-05-09 16:15:14.057,1,0.88,0.95,1.11,43.695,107.9226,151.6418,175,75
2026-05-09 16:15:14.064,1,0.65,1.04,0.76,52.535,53.5926,135.6618,175,75
2026-05-09 16:15:14.077,1,1.1,1.06,0.42,68.025,142.0126,137.8018,175,75
2026-05-09 16:15:14.099,1,1.63,0.58,1.05,94.305,296.95259999999996,96.76180000000001,175,75
2026-05-09 16:15:14.115,1,-0.53,-0.0,-3.56,46.075,-552.6274,-11.168199999999999,175,75
2026-05-09 16:15:14.152,1,1.6,-7.13,-0.55,79.125,1312.1925999999999,150.5418,175,75
2026-05-09 16:15:14.162,1,3.52,-3.84,6.77,240.705,595.7326,98.29180000000001,175,75
2026-05-09 16:15:14.187,1,-0.97,-1.44,4.61,4.245,-221.8274,-53.4782,175,75
2026-05-09 16:15:14.229,1,-1.22,-2.87,-0.63,64.915,-371.5274,-34.3382,175,75
2026-05-09 16:15:14.229,1,-0.73,-3.89,-2.4,22.785,-53.4174,-17.138199999999998,175,75
2026-05-09 16:15:14.260,1,-1.02,-3.37,-0.46,-13.685,235.3626,-126.2282,175,75
2026-05-09 16:15:14.265,1,-0.99,-0.36,1.42,-13.555,175.9726,-122.7482,175,75
2026-05-09 16:15:14.289,1,-1.16,0.94,0.21,9.735,15.6726,-107.4482,175,75
2026-05-09 16:15:14.319,1,-1.66,0.47,-0.63,260.285,239.2626,-245.6782,175,75
2026-05-09 16:15:14.345,1,-1.96,-0.08,0.01,280.225,315.7926,-246.22820000000002,175,75
2026-05-09 16:15:14.345,1,-2.74,-0.37,0.74,322.475,358.5326,-185.4282,175,75
2026-05-09 16:15:14.357,1,-1.42,0.06,0.43,350.465,388.6526,-136.8982,175,75
2026-05-09 16:15:14.372,1,-1.18,0.45,-1.35,296.315,427.2526,-139.5782,175,75
2026-05-09 16:15:14.407,1,-1.39,0.94,-2.06,191.135,677.0726000000001,-52.928200000000004,175,75
2026-05-09 16:15:14.407,1,-0.42,0.92,-1.27,125.955,877.7426,-14.758199999999999,175,75
2026-05-09 16:15:14.448,1,-0.43,-1.8,2.61,-160.325,304.9926,63.831799999999994,175,75
2026-05-09 16:15:14.470,1,-0.73,-1.3,0.46,-378.865,-193.59740000000002,58.831799999999994,175,75
2026-05-09 16:15:14.470,1,-0.72,-1.53,0.57,-374.295,-204.5174,68.5318,175,75
2026-05-09 16:15:14.481,1,-0.66,-1.36,0.92,-353.555,-202.8074,80.12180000000001,175,75
2026-05-09 16:15:14.516,1,-1.04,-0.89,1.4,-291.055,-251.5274,156.09179999999998,175,75
2026-05-09 16:15:14.543,1,-0.76,-0.77,1.32,-232.765,-233.96740000000003,171.52179999999998,175,75
2026-05-09 16:15:14.543,1,-0.59,-0.67,1.11,-206.365,-208.71740000000003,164.93179999999998,175,75
2026-05-09 16:15:14.594,1,0.09,-0.28,0.96,-161.545,-98.2974,139.2618,175,75
2026-05-09 16:15:14.607,1,1.24,0.19,1.4,-134.845,-43.4174,108.29180000000001,175,75
2026-05-09 16:15:14.615,1,1.37,0.39,1.54,-108.375,-46.0374,100.4218,175,75
2026-05-09 16:15:14.629,1,1.47,0.73,1.69,-68.685,-68.2974,83.10180000000001,175,75
2026-05-09 16:15:14.643,1,1.35,0.73,1.71,-41.795,-92.4374,75.7218,175,75
2026-05-09 16:15:14.685,1,1.22,0.63,1.59,7.965,-190.8574,53.9618,175,75
2026-05-09 16:15:14.695,1,1.06,0.75,1.35,26.195,-208.47740000000002,54.5118,175,75
2026-05-09 16:15:14.704,1,0.74,0.9,1.13,47.235,-182.8674,65.12180000000001,175,75
2026-05-09 16:15:14.713,1,0.65,0.91,1.04,71.565,-140.12740000000002,61.331799999999994,175,75
2026-05-09 16:15:14.730,1,0.79,0.77,1.03,84.975,-100.4874,63.5918,175,75
2026-05-09 16:15:14.743,1,0.66,0.68,0.94,89.555,-69.0874,59.2618,175,75
2026-05-09 16:15:14.753,1,0.53,0.7,0.61,99.675,49.632600000000004,42.7418,175,75
2026-05-09 16:15:14.766,1,-0.03,1.37,-0.26,106.985,92.8626,57.251799999999996,175,75
2026-05-09 16:15:14.806,1,4.05,-2.37,5.54,106.865,-38.5374,25.361800000000002,175,75
2026-05-09 16:15:14.820,1,0.34,-2.5,0.88,15.525,-488.8474,-110.1882,175,75
2026-05-09 16:15:14.872,1,0.43,-6.04,-3.55,-20.695,-153.47740000000002,31.521800000000002,175,75
2026-05-09 16:15:14.969,1,-1.07,0.55,-0.64,73.515,125.4226,-127.2582,175,75
2026-05-09 16:15:14.969,1,-1.2,0.21,-0.84,151.445,154.87259999999998,-150.97820000000002,175,75
2026-05-09 16:15:14.994,1,-1.5,-1.32,0.56,215.765,213.78259999999997,-215.9182,175,75
2026-05-09 16:15:15.044,1,-2.12,0.06,1.43,-124.295,477.6226,234.3218,175,75
2026-05-09 16:15:15.066,1,-0.5,-1.38,2.83,-178.015,12.1326,209.0818,175,75
2026-05-09 16:15:15.066,1,-0.52,-0.13,1.52,-267.705,-197.8674,143.4718,175,75
2026-05-09 16:15:15.078,1,-0.54,0.55,0.63,-268.555,-187.37740000000002,201.46179999999998,175,75
2026-05-09 16:15:15.101,1,0.59,0.21,0.94,-179.715,-29.147399999999998,231.7018,175,75
2026-05-09 16:15:15.117,1,1.26,0.39,0.96,-112.465,27.2526,185.24179999999998,175,75
2026-05-09 16:15:15.128,1,1.53,0.44,1.17,-95.085,82.3126,164.6918,175,75
2026-05-09 16:15:15.159,1,1.65,0.86,2.04,-59.295,84.9326,156.27179999999998,175,75
2026-05-09 16:15:15.170,1,1.81,0.88,2.14,4.795,9.7526,139.3218,175,75
2026-05-09 16:15:15.183,1,1.55,0.78,1.57,25.225,-14.697399999999998,116.0918,175,75
2026-05-09 16:15:15.183,1,1.88,0.79,1.03,46.865,-5.2474,107.5518,175,75
2026-05-09 16:15:15.233,1,3.59,-9.34,-2.69,-20.815,906.6426,71.5818,175,75
2026-05-09 16:15:15.261,1,-0.85,-2.73,3.19,40.955,-168.0474,-65.73819999999999,175,75
2026-05-09 16:15:15.271,1,-0.69,-1.17,1.36,40.035,-382.1374,-60.0082,175,75
2026-05-09 16:15:15.297,1,-0.95,-1.54,-1.24,54.915,-283.4774,-62.6882,175,75
2026-05-09 16:15:15.352,1,-0.99,0.24,-1.11,151.445,104.8126,-202.68820000000002,175,75
2026-05-09 16:15:15.360,1,-1.23,0.32,-1.06,216.315,175.7326,-192.56820000000002,175,75
2026-05-09 16:15:15.384,1,-1.74,0.45,0.01,299.915,276.2826,-244.87820000000002,175,75
2026-05-09 16:15:15.425,1,-1.22,0.35,-2.67,247.785,597.9226,-137.56820000000002,175,75
2026-05-09 16:15:15.447,1,-0.73,0.58,-0.14,209.855,925.6726,14.631800000000002,175,75
2026-05-09 16:15:15.458,1,0.69,0.26,2.49,265.895,850.1226,51.2718,175,75
2026-05-09 16:15:15.458,1,-0.51,-0.63,2.75,20.765,226.15259999999998,-26.1682,175,75
2026-05-09 16:15:15.472,1,-1.08,0.06,0.98,-237.885,-76.8274,-70.8582,175,75
2026-05-09 16:15:15.480,1,-1.69,0.48,-0.03,-364.105,-131.8974,-44.1482,175,75
2026-05-09 16:15:15.491,1,-0.74,-0.41,0.76,-391.305,-284.0274,23.4718,175,75
2026-05-09 16:15:15.537,1,-1.25,-0.64,0.47,-437.095,-463.6574,60.8518,175,75
2026-05-09 16:15:15.559,1,-1.2,-0.85,0.53,-284.905,-143.84740000000002,210.9718,175,75
2026-05-09 16:15:15.559,1,-1.1,-1.09,0.82,-249.415,-108.5374,220.4818,175,75
2026-05-09 16:15:15.570,1,-0.89,-1.23,0.96,-211.605,-67.5074,204.2618,175,75
2026-05-09 16:15:15.608,1,-0.21,-0.63,1.32,-159.475,-61.8274,181.5818,175,75
2026-05-09 16:15:15.617,1,-0.22,-0.47,1.36,-144.235,-115.5474,169.2018,175,75
2026-05-09 16:15:15.629,1,0.14,-0.48,1.18,-132.645,-115.7974,143.5318,175,75
2026-05-09 16:15:15.640,1,0.4,-0.25,0.89,-118.555,-146.40740000000002,118.5318,175,75
2026-05-09 16:15:15.651,1,1.07,0.06,0.7,-78.135,-49.6974,102.9218,175,75
2026-05-09 16:15:15.694,1,1.31,0.65,1.25,-21.795,-28.967399999999998,83.2218,175,75
2026-05-09 16:15:15.706,1,1.23,0.76,1.44,-10.265,-52.9274,65.9718,175,75
2026-05-09 16:15:15.719,1,1.17,0.79,1.63,4.245,-81.5274,47.071799999999996,175,75
2026-05-09 16:15:15.731,1,1.19,0.88,1.7,16.505000000000003,-117.1374,30.3018,175,75
2026-05-09 16:15:15.744,1,1.01,0.95,1.59,22.655,-177.0774,23.291800000000002,175,75
2026-05-09 16:15:15.759,1,0.66,0.87,1.22,39.855,-220.5474,22.3118,175,75
2026-05-09 16:15:15.770,1,0.61,0.72,1.15,57.965,-193.47740000000002,19.9918,175,75
2026-05-09 16:15:15.784,1,0.84,0.67,1.23,81.375,-133.71740000000003,15.421800000000001,175,75
2026-05-09 16:15:15.796,1,1.08,0.7,1.57,92.725,-105.6074,28.1618,175,75
2026-05-09 16:15:15.834,1,-0.58,0.65,-0.33,110.955,-198.71740000000003,-29.0282,175,75
2026-05-09 16:15:15.858,1,4.87,-1.45,-7.42,-5.085,-34.1474,330.97180000000003,175,75
2026-05-09 16:15:15.869,1,-2.27,-4.73,-3.09,59.425,1022.9226,-37.8682,175,75
2026-05-09 16:15:15.885,1,-0.91,-0.11,5.7,15.225,1098.3526,110.12180000000001,175,75
2026-05-09 16:15:15.924,1,-1.79,-3.1,-1.33,6.135,-470.0074,-67.5082,175,75
2026-05-09 16:15:15.958,1,-0.5,0.27,-0.37,14.855,226.21259999999998,-43.0582,175,75
2026-05-09 16:15:15.975,1,-1.17,0.36,0.07,39.555,207.0726,-78.53819999999999,175,75
2026-05-09 16:15:15.989,1,-1.33,0.45,0.19,59.125,167.37259999999998,-128.47820000000002,175,75
2026-05-09 16:15:15.993,1,-1.22,0.07,0.13,111.015,150.6026,-150.5582,175,75
2026-05-09 16:15:16.013,1,-1.17,-0.37,0.08,150.585,145.12259999999998,-183.47820000000002,175,75
2026-05-09 16:15:16.055,1,-1.62,-0.91,1.37,163.265,144.6326,-199.0882,175,75
2026-05-09 16:15:16.055,1,-2.24,-0.47,1.82,178.815,138.53259999999997,-159.5182,175,75
2026-05-09 16:15:16.066,1,-2.75,-0.04,2.19,196.565,148.4726,-142.8682,175,75
2026-05-09 16:15:16.067,1,-2.47,0.48,2.23,210.955,191.52259999999998,-80.9782,175,75
2026-05-09 16:15:16.097,1,-3.1,0.95,-1.15,65.765,414.63259999999997,117.8018,175,75
2026-05-09 16:15:16.156,1,-0.46,-0.16,1.94,-179.165,-28.2374,184.6318,175,75
2026-05-09 16:15:16.195,1,-0.14,0.55,0.73,-191.975,-108.5974,216.9418,175,75
2026-05-09 16:15:16.209,1,0.25,0.63,0.59,-163.255,-78.5974,228.4118,175,75
2026-05-09 16:15:16.220,1,0.71,0.43,0.45,-115.755,16.8826,195.24179999999998,175,75
2026-05-09 16:15:16.230,1,1.14,0.27,0.54,-98.495,94.5726,167.8618,175,75
2026-05-09 16:15:16.244,1,1.38,0.43,0.96,-91.545,148.96259999999998,161.5818,175,75
2026-05-09 16:15:16.260,1,1.33,0.73,2.2,-73.745,68.65259999999999,143.71179999999998,175,75
2026-05-09 16:15:16.284,1,1.36,0.82,2.39,-51.855,6.5226,123.4718,175,75
2026-05-09 16:15:16.296,1,1.75,0.9,1.91,-22.035,-80.4874,94.9918,175,75
2026-05-09 16:15:16.313,1,0.94,1.26,1.01,-8.195,-117.8674,74.2018,175,75
2026-05-09 16:15:16.321,1,1.39,1.11,0.55,14.425,-45.797399999999996,85.3618,175,75
2026-05-09 16:15:16.330,1,1.45,1.01,0.77,60.225,46.6426,60.4218,175,75
2026-05-09 16:15:16.362,1,4.02,-2.64,5.55,186.195,757.4926,84.6918,175,75
2026-05-09 16:15:16.385,1,4.16,-1.88,5.35,61.685,296.1526,44.5118,175,75
2026-05-09 16:15:16.397,1,-0.41,-2.9,5.03,14.005,-65.0074,-30.978199999999998,175,75
2026-05-09 16:15:16.397,1,0.77,-1.64,2.12,6.075,-384.8174,-43.7882,175,75
2026-05-09 16:15:16.431,1,-0.57,-0.49,-1.68,33.945,160.4226,-29.518199999999997,175,75
2026-05-09 16:15:16.447,1,-0.75,0.27,-0.6,58.695,203.4726,-56.8382,175,75
2026-05-09 16:15:16.474,1,-0.91,-1.0,0.65,125.585,91.4026,-143.4182,175,75
2026-05-09 16:15:16.486,1,-1.23,-0.45,-0.06,132.235,69.2026,-163.4182,175,75
2026-05-09 16:15:16.500,1,-1.04,-0.02,-0.67,139.305,123.3526,-187.31820000000002,175,75
2026-05-09 16:15:16.509,1,-1.38,0.11,-0.83,167.295,167.56259999999997,-208.2982,175,75
2026-05-09 16:15:16.517,1,-1.86,0.13,-0.4,226.375,239.3226,-237.4482,175,75
2026-05-09 16:15:16.531,1,-2.12,0.27,0.38,282.175,317.19259999999997,-205.3682,175,75
2026-05-09 16:15:16.553,1,-2.72,0.37,0.84,329.305,333.1726,-192.1382,175,75
2026-05-09 16:15:16.553,1,-1.68,0.52,0.5,355.285,372.5626,-176.34820000000002,175,75
2026-05-09 16:15:16.580,1,-0.69,0.0,-2.81,227.655,521.1526,-133.72820000000002,175,75
2026-05-09 16:15:16.584,1,-1.52,0.53,-1.81,160.895,933.9626000000001,-26.7782,175,75
2026-05-09 16:15:16.591,1,-0.13,0.74,0.45,197.845,1030.4825999999998,33.5918,175,75
2026-05-09 16:15:16.621,1,-1.23,-0.47,0.98,-238.015,330.4826,52.9818,175,75
2026-05-09 16:15:16.665,1,-0.2,-1.7,1.22,-323.625,-125.5474,34.4418,175,75
2026-05-09 16:15:16.676,1,-0.35,-1.71,1.1,-375.385,-235.3674,29.2618,175,75
2026-05-09 16:15:16.687,1,-0.93,-0.84,1.06,-410.575,-268.9674,71.5818,175,75
2026-05-09 16:15:16.700,1,-0.96,-0.5,1.33,-379.475,-311.9574,127.3118,175,75
2026-05-09 16:15:16.710,1,-1.3,-0.55,1.24,-313.315,-326.7674,164.5118,175,75
2026-05-09 16:15:16.719,1,-0.83,-0.82,0.63,-239.235,-240.8574,180.24179999999998,175,75
2026-05-09 16:15:16.734,1,-0.69,-0.83,0.63,-204.105,-130.18740000000003,175.4818,175,75
2026-05-09 16:15:16.744,1,-0.39,-0.71,1.06,-175.875,-47.1974,164.02179999999998,175,75
2026-05-09 16:15:16.757,1,0.03,-0.55,1.58,-158.435,-24.4574,139.02179999999998,175,75
2026-05-09 16:15:16.769,1,0.32,-0.34,2.0,-155.695,-84.3274,110.79180000000001,175,75
2026-05-09 16:15:16.780,1,0.59,-0.22,1.94,-136.665,-91.3474,82.2518,175,75
2026-05-09 16:15:16.791,1,1.03,0.02,1.72,-135.815,-106.2174,66.1518,175,75
2026-05-09 16:15:16.803,1,1.43,0.3,1.47,-119.775,-119.2674,70.18180000000001,175,75
2026-05-09 16:15:16.812,1,1.54,0.4,1.28,-99.415,-118.0474,78.04180000000001,175,75
2026-05-09 16:15:16.815,1,1.35,0.5,1.24,-81.125,-104.3974,77.07180000000001,175,75
2026-05-09 16:15:16.829,1,1.36,0.63,1.38,-58.745,-81.3474,79.87180000000001,175,75
2026-05-09 16:15:16.842,1,1.42,0.68,1.67,-45.265,-90.9774,82.1318,175,75
2026-05-09 16:15:16.877,1,1.0,0.71,1.4,1.745,-223.96740000000003,61.821799999999996,175,75
2026-05-09 16:15:16.893,1,0.91,0.77,1.04,26.075,-197.9274,53.901799999999994,175,75
2026-05-09 16:15:16.913,1,0.8,0.85,0.73,60.225,-103.7874,57.861799999999995,175,75
2026-05-09 16:15:16.943,1,0.69,0.79,0.76,79.615,-12.2574,61.4618,175,75
2026-05-09 16:15:16.951,1,0.14,0.96,0.12,96.315,130.5426,74.0818,175,75
2026-05-09 16:15:16.966,1,0.75,0.97,0.25,128.635,264.57259999999997,111.40180000000001,175,75
2026-05-09 16:15:16.987,1,0.18,0.26,-3.23,61.625,-410.48740000000004,26.7618,175,75
2026-05-09 16:15:16.987,1,5.06,-7.79,-5.85,-27.885,762.9826,170.5418,175,75
2026-05-09 16:15:16.993,1,-1.7,-3.47,1.73,155.035,859.2626,20.8518,175,75
2026-05-09 16:15:17.018,1,0.23,-3.12,5.52,65.835,-74.3974,-59.9482,175,75
2026-05-09 16:15:17.032,1,1.85,-1.79,3.08,-7.275,-290.9174,-65.3682,175,75
2026-05-09 16:15:17.043,1,0.22,-1.65,0.25,-1.975,-435.67740000000003,-90.73819999999999,175,75
2026-05-09 16:15:17.053,1,-1.95,-2.38,-1.69,10.525,-313.4774,-35.678200000000004,175,75
2026-05-09 16:15:17.064,1,-1.62,-2.07,-2.57,-9.965,35.7326,-7.2581999999999995,175,75
2026-05-09 16:15:17.073,1,-0.55,-1.25,-1.14,21.685,276.4626,-74.6982,175,75
2026-05-09 16:15:17.080,1,-0.51,-0.49,0.11,33.205,261.4626,-89.0882,175,75
2026-05-09 16:15:17.102,1,-0.9,0.08,0.37,48.455,184.2626,-111.34819999999999,175,75
2026-05-09 16:15:17.122,1,-0.79,0.49,0.13,74.855,124.2626,-127.0182,175,75
