Time,ID,Ax,Ay,Az,Gx,Gy,Gz,Height,Weight
2026-05-11 17:50:45.805,1,-1.11,-1.35,1.64,27.525999999999996,2.0518000000000036,-85.2288,175,75
2026-05-11 17:50:45.812,1,-1.03,-1.48,1.66,34.116,-1.6681999999999988,-81.3888,175,75
2026-05-11 17:50:45.828,1,-0.83,-1.76,1.76,40.205999999999996,10.4618,-71.7588,175,75
2026-05-11 17:50:45.830,1,-0.76,-1.95,1.9,34.056,30.161800000000003,-55.838800000000006,175,75
2026-05-11 17:50:45.846,1,-0.53,-2.16,2.11,19.966,82.7218,-51.878800000000005,175,75
2026-05-11 17:50:45.871,1,-0.18,-1.35,2.52,25.816,182.1118,-20.598800000000004,175,75
2026-05-11 17:50:45.889,1,-0.64,-0.86,2.48,14.475999999999999,252.72179999999997,8.7312,175,75
2026-05-11 17:50:45.889,1,-0.96,-0.97,2.49,-37.774,180.2818,32.3912,175,75
2026-05-11 17:50:45.952,1,-0.95,-1.12,3.41,-94.85400000000001,205.5318,107.63119999999999,175,75
2026-05-11 17:50:45.962,1,0.27,-0.5,3.71,-68.144,67.7218,81.1112,175,75
2026-05-11 17:50:45.972,1,0.8,0.7,3.45,-3.9940000000000015,-31.6682,17.331199999999995,175,75
2026-05-11 17:50:45.972,1,0.66,1.23,2.87,49.786,-97.4582,-57.72880000000001,175,75
2026-05-11 17:50:45.993,1,0.04,0.64,2.73,186.61599999999999,-49.8982,-126.2088,175,75
2026-05-11 17:50:46.030,1,-0.2,-0.83,2.01,184.846,-296.0582,-189.8088,175,75
2026-05-11 17:50:46.042,1,-1.26,-0.82,1.55,142.46599999999998,-351.5482,-179.1388,175,75
2026-05-11 17:50:46.048,1,-2.1,-0.87,1.23,109.476,-363.4382,-159.8688,175,75
2026-05-11 17:50:46.055,1,-4.28,-0.38,0.85,63.016,-385.2082,-77.78880000000001,175,75
2026-05-11 17:50:46.079,1,-8.29,-0.61,-4.39,-15.584000000000001,-425.5682,343.0012,175,75
2026-05-11 17:50:46.090,1,2.33,-3.34,-0.39,117.28599999999999,216.2018,304.5212,175,75
2026-05-11 17:50:46.102,1,-0.59,-0.71,4.12,-36.684,889.2418,38.2412,175,75
2026-05-11 17:50:46.113,1,-0.2,-1.21,4.55,-66.494,176.2018,112.5112,175,75
2026-05-11 17:50:46.172,1,-1.38,-1.93,1.91,72.586,188.3318,-17.2388,175,75
2026-05-11 17:50:46.181,1,-0.69,-1.81,2.39,20.206,9.491800000000001,-14.928800000000003,175,75
2026-05-11 17:50:46.274,1,-0.51,-1.92,2.64,24.726,176.0718,-72.7888,175,75
2026-05-11 17:50:46.284,1,-0.4,-1.61,2.41,3.685999999999999,175.6518,-35.7188,175,75
2026-05-11 17:50:46.284,1,-0.42,-1.07,2.48,-8.874,193.3318,-3.5288000000000013,175,75
2026-05-11 17:50:46.298,1,-0.74,-0.89,2.24,-69.724,175.9518,27.4512,175,75
2026-05-11 17:50:46.298,1,-2.48,-0.84,1.41,-149.424,146.5618,90.8612,175,75
2026-05-11 17:50:46.311,1,-3.58,-2.0,0.13,-270.524,137.4818,220.3212,175,75
2026-05-11 17:50:46.311,1,-3.8,-3.3,-0.14,-362.224,198.3318,310.6212,175,75
2026-05-11 17:50:46.325,1,-4.13,-4.61,0.26,-341.25399999999996,249.4318,326.7812,175,75
2026-05-11 17:50:46.352,1,-1.08,-2.15,2.3,-393.81399999999996,134.9818,329.5212,175,75
2026-05-11 17:50:46.409,1,-0.93,-1.83,1.95,-387.414,48.3318,326.5412,175,75
2026-05-11 17:50:46.450,1,-0.63,-1.13,1.52,-348.81399999999996,60.2218,314.6512,175,75
2026-05-11 17:50:46.450,1,-0.42,-0.98,1.72,-337.534,75.6518,301.6012,175,75
2026-05-11 17:50:46.475,1,0.01,-0.51,2.2,-273.75399999999996,-26.368199999999998,241.4112,175,75
2026-05-11 17:50:46.485,1,0.05,-0.08,2.44,-229.72400000000002,-13.928199999999999,214.8912,175,75
2026-05-11 17:50:46.502,1,0.84,0.79,3.38,-119.60400000000001,53.2718,147.0812,175,75
2026-05-11 17:50:46.513,1,1.18,1.85,3.16,34.966,53.151799999999994,-15.838800000000003,175,75
2026-05-11 17:50:46.525,1,0.84,1.54,3.0,121.976,147.6018,-75.7788,175,75
2026-05-11 17:50:46.536,1,0.8,1.03,3.33,174.666,181.8718,-105.5988,175,75
2026-05-11 17:50:46.536,1,0.67,0.34,3.66,237.096,152.6018,-131.87879999999998,175,75
2026-05-11 17:50:46.548,1,0.77,-0.0,3.81,279.05600000000004,43.76180000000001,-156.3888,175,75
2026-05-11 17:50:46.557,1,0.41,-0.18,3.15,279.786,-109.3482,-195.5988,175,75
2026-05-11 17:50:46.557,1,-0.02,0.05,2.61,269.536,-150.9382,-214.7388,175,75
2026-05-11 17:50:46.634,1,-0.76,-0.12,2.04,309.29600000000005,-50.4482,-255.5388,175,75
2026-05-11 17:50:46.669,1,-1.01,-0.32,1.76,327.896,-86.4882,-252.0588,175,75
2026-05-11 17:50:46.680,1,-1.23,-0.46,1.5,327.956,-113.3782,-254.3788,175,75
2026-05-11 17:50:46.691,1,-1.3,-0.96,1.37,311.00600000000003,-124.8982,-257.11879999999996,175,75
2026-05-11 17:50:46.702,1,-1.34,-1.41,1.44,310.336,-143.1882,-265.5988,175,75
2026-05-11 17:50:46.713,1,-1.6,-1.93,1.6,295.946,-189.4682,-240.3488,175,75
2026-05-11 17:50:46.724,1,-1.84,-2.33,1.59,257.096,-244.7782,-203.5288,175,75
2026-05-11 17:50:46.724,1,-2.23,-2.41,1.25,204.96599999999998,-325.6282,-183.1588,175,75
2026-05-11 17:50:46.748,1,-2.66,-1.81,0.5,166.796,-351.5482,-178.7688,175,75
2026-05-11 17:50:46.784,1,-2.67,-0.38,0.32,121.48599999999999,-190.9982,-96.9388,175,75
2026-05-11 17:50:46.784,1,-4.43,-0.39,0.46,65.396,-166.9682,-2.3088000000000015,175,75
2026-05-11 17:50:46.816,1,-0.27,-4.4,6.37,39.596,1003.2718,-44.6788,175,75
2026-05-11 17:50:46.827,1,2.29,-0.78,4.03,34.356,412.1118,82.21119999999999,175,75
2026-05-11 17:50:46.838,1,-2.47,-2.02,3.41,-10.464,-187.8282,60.5012,175,75
2026-05-11 17:50:46.926,1,-0.54,-1.46,1.06,-243.75400000000002,-158.1282,145.3812,175,75
2026-05-11 17:50:46.939,1,-0.59,-1.84,-0.02,-182.354,-150.6882,57.82119999999999,175,75
2026-05-11 17:50:46.939,1,-1.8,-1.41,0.36,-92.29400000000001,31.8118,105.99119999999999,175,75
2026-05-11 17:50:46.951,1,-1.57,-0.74,1.13,-24.113999999999997,145.8318,98.0012,175,75
2026-05-11 17:50:46.962,1,-0.99,-0.43,1.49,-4.604000000000001,64.4318,75.38119999999999,175,75
2026-05-11 17:50:46.974,1,-1.14,-0.94,1.39,-4.664,1.131800000000002,59.46119999999999,175,75
2026-05-11 17:50:46.974,1,-1.6,-1.12,1.13,1.7359999999999989,-5.878199999999998,33.3612,175,75
2026-05-11 17:50:46.984,1,-1.81,-0.89,1.38,32.466,17.1718,1.1111999999999984,175,75
2026-05-11 17:50:46.984,1,-1.72,-0.91,1.51,53.626,46.1318,-28.528800000000004,175,75
2026-05-11 17:50:47.005,1,-1.42,-0.96,1.55,66.856,26.011800000000004,-63.278800000000004,175,75
2026-05-11 17:50:47.006,1,-1.41,-1.05,1.59,68.98599999999999,25.401800000000005,-80.1688,175,75
2026-05-11 17:50:47.018,1,-1.28,-1.21,1.73,72.526,33.3318,-98.2188,175,75
2026-05-11 17:50:47.031,1,-1.14,-1.27,1.94,71.366,39.0018,-102.2488,175,75
2026-05-11 17:50:47.043,1,-0.99,-1.3,2.05,67.956,40.1618,-103.5288,175,75
2026-05-11 17:50:47.056,1,-0.85,-1.41,2.12,62.286,47.23179999999999,-102.9788,175,75
2026-05-11 17:50:47.056,1,-0.6,-1.76,2.16,71.976,116.3818,-118.9488,175,75
2026-05-11 17:50:47.066,1,-0.36,-1.56,2.26,50.756,125.5318,-84.67880000000001,175,75
2026-05-11 17:50:47.097,1,-0.41,-0.62,2.27,-2.474000000000002,137.0518,-5.838800000000002,175,75
2026-05-11 17:50:47.126,1,-0.63,-0.14,2.67,-45.094,114.18180000000001,44.52119999999999,175,75
2026-05-11 17:50:47.139,1,-0.43,0.05,2.5,-26.744,23.091800000000003,32.8812,175,75
2026-05-11 17:50:47.151,1,0.03,0.39,2.19,-4.364000000000001,11.201800000000002,-9.558800000000002,175,75
2026-05-11 17:50:47.198,1,-0.14,0.36,2.3,74.056,-0.8181999999999974,-69.9288,175,75
2026-05-11 17:50:47.211,1,0.19,-0.04,2.49,115.14599999999999,-108.2582,-104.4988,175,75
2026-05-11 17:50:47.222,1,-0.72,-0.22,2.14,108.92599999999999,-193.6782,-99.1388,175,75
2026-05-11 17:50:47.222,1,-2.06,-0.18,1.54,83.256,-224.2882,-83.03880000000001,175,75
2026-05-11 17:50:47.242,1,-4.02,-0.18,0.41,20.456,-295.2082,-30.348800000000004,175,75
2026-05-11 17:50:47.247,1,-6.96,0.08,-1.71,-76.01400000000001,-336.0582,91.60119999999999,175,75
2026-05-11 17:50:47.253,1,-3.17,-0.49,-3.08,-146.374,-302.1582,285.0112,175,75
2026-05-11 17:50:47.265,1,-1.12,-0.2,3.72,-12.044000000000002,469.9218,73.7312,175,75
2026-05-11 17:50:47.277,1,-1.25,0.83,3.37,-121.744,186.8118,47.4512,175,75
2026-05-11 17:50:47.345,1,-1.31,-1.57,0.45,8.625999999999998,-39.8382,-16.5088,175,75
2026-05-11 17:50:47.355,1,-0.85,-1.94,1.36,54.536,79.8518,-16.878800000000002,175,75
2026-05-11 17:50:47.366,1,-0.7,-1.96,1.73,1.7359999999999989,-5.758199999999999,-33.3988,175,75
2026-05-11 17:50:47.372,1,-0.88,-2.08,1.41,-20.464,-0.5681999999999974,-40.598800000000004,175,75
2026-05-11 17:50:47.385,1,-0.8,-2.03,1.64,-6.434000000000003,58.09179999999999,-31.7588,175,75
2026-05-11 17:50:47.409,1,0.21,-2.06,2.21,-37.164,201.8118,-31.2688,175,75
2026-05-11 17:50:47.430,1,-0.26,-1.79,3.23,-111.07400000000001,351.6218,22.211199999999998,175,75
2026-05-11 17:50:47.442,1,-3.76,-2.01,1.39,-347.964,-37.0382,218.9112,175,75
2026-05-11 17:50:47.457,1,-3.16,-3.29,0.31,-452.354,-115.6882,241.2312,175,75
2026-05-11 17:50:47.481,1,-4.35,-3.3,-0.99,-448.26399999999995,29.0618,249.58120000000002,175,75
2026-05-11 17:50:47.481,1,-2.81,-2.98,-1.21,-349.484,230.8318,228.7912,175,75
2026-05-11 17:50:47.493,1,-1.69,-1.96,0.44,-268.144,364.9818,219.7112,175,75
2026-05-11 17:50:47.499,1,-1.05,-1.88,1.93,-304.794,347.9018,216.6612,175,75
2026-05-11 17:50:47.515,1,-0.62,-0.59,2.21,-351.984,75.4618,172.2112,175,75
2026-05-11 17:50:47.547,1,-0.76,-0.14,1.99,-327.294,11.561800000000002,173.9712,175,75
2026-05-11 17:50:47.547,1,-0.88,0.12,1.9,-325.154,6.381800000000002,178.00119999999998,175,75
2026-05-11 17:50:47.558,1,-0.85,0.14,1.95,-321.554,10.161800000000003,181.1712,175,75
2026-05-11 17:50:47.573,1,-0.7,0.18,2.12,-301.37399999999997,-6.608199999999998,180.8012,175,75
2026-05-11 17:50:47.573,1,-0.46,0.32,2.3,-275.94399999999996,-46.2382,182.1512,175,75
2026-05-11 17:50:47.596,1,-0.2,0.7,2.51,-214.484,-90.5082,167.3312,175,75
2026-05-11 17:50:47.623,1,0.55,1.17,2.92,-50.944,-6.668199999999999,56.8412,175,75
2026-05-11 17:50:47.633,1,0.42,1.44,2.75,0.395999999999999,36.201800000000006,21.961199999999998,175,75
2026-05-11 17:50:47.645,1,0.16,1.33,2.77,72.096,149.9218,-17.788800000000002,175,75
2026-05-11 17:50:47.662,1,0.3,0.73,3.46,149.906,160.5318,-34.808800000000005,175,75
2026-05-11 17:50:47.676,1,0.56,0.65,3.51,184.416,9.731800000000003,-66.2688,175,75
2026-05-11 17:50:47.682,1,0.16,0.48,2.9,190.456,-133.0082,-93.39880000000001,175,75
2026-05-11 17:50:47.696,1,-0.07,0.35,2.42,191.736,-166.1782,-109.06880000000001,175,75
2026-05-11 17:50:47.707,1,-0.26,0.36,1.95,201.186,-175.1482,-132.1188,175,75
2026-05-11 17:50:47.724,1,-0.48,0.12,1.67,249.536,-85.9982,-160.3488,175,75
2026-05-11 17:50:47.746,1,-0.51,0.05,1.82,256.676,-71.9082,-179.3788,175,75
2026-05-11 17:50:47.753,1,-0.52,0.06,1.88,263.50600000000003,-70.4482,-190.71880000000002,175,75
2026-05-11 17:50:47.792,1,-0.9,-0.22,1.88,289.17600000000004,-72.7682,-204.9288,175,75
2026-05-11 17:50:47.803,1,-0.77,-0.4,1.85,300.576,-93.4982,-210.71880000000002,175,75
2026-05-11 17:50:47.803,1,-0.78,-0.61,1.8,306.00600000000003,-112.15820000000001,-224.3788,175,75
2026-05-11 17:50:47.815,1,-0.75,-0.89,1.75,312.166,-122.3382,-238.4588,175,75
2026-05-11 17:50:47.828,1,-0.78,-1.18,1.76,317.466,-143.4382,-252.6088,175,75
2026-05-11 17:50:47.840,1,-0.78,-1.67,1.91,321.916,-172.7682,-263.0388,175,75
2026-05-11 17:50:47.847,1,-0.84,-2.22,2.07,308.92600000000004,-195.9382,-260.8388,175,75
2026-05-11 17:50:47.879,1,-1.62,-2.71,1.77,210.696,-337.7682,-259.98879999999997,175,75
2026-05-11 17:50:47.889,1,-2.36,-2.15,1.24,178.686,-372.9482,-245.0488,175,75
2026-05-11 17:50:47.900,1,-4.56,-1.15,0.67,149.11599999999999,-357.0382,-192.7888,175,75
2026-05-11 17:50:47.937,1,12.73,-6.72,3.23,351.00600000000003,199.0018,384.2812,175,75
2026-05-11 17:50:47.958,1,5.4,1.08,3.11,56.616,983.5718,-160.3488,175,75
2026-05-11 17:50:47.993,1,-1.38,-0.89,-0.0,-225.88400000000001,-292.7082,64.71119999999999,175,75
2026-05-11 17:50:47.993,1,-1.21,-1.29,-0.47,-60.764,-66.5482,55.07119999999999,175,75
2026-05-11 17:50:48.004,1,-1.73,-1.88,0.89,23.746,151.8718,50.9912,175,75
2026-05-11 17:50:48.029,1,-1.21,-1.0,1.91,8.565999999999999,178.5718,58.85119999999999,175,75
2026-05-11 17:50:48.040,1,-1.5,-1.11,1.07,-15.764000000000001,-48.188199999999995,16.3512,175,75
2026-05-11 17:50:48.048,1,-1.61,-1.03,1.19,32.525999999999996,23.151800000000005,-16.208800000000004,175,75
2026-05-11 17:50:48.061,1,-1.56,-1.06,1.63,62.776,60.041799999999995,-41.3888,175,75
2026-05-11 17:50:48.075,1,-1.32,-1.11,1.8,53.386,61.561800000000005,-54.4988,175,75
2026-05-11 17:50:48.086,1,-1.24,-1.09,1.81,39.236,34.12180000000001,-67.4888,175,75
2026-05-11 17:50:48.108,1,-1.22,-1.21,1.87,40.946,58.571799999999996,-77.36880000000001,175,75
2026-05-11 17:50:48.118,1,-0.97,-1.3,2.08,38.315999999999995,74.4318,-63.338800000000006,175,75
2026-05-11 17:50:48.140,1,-0.77,-1.26,2.24,46.796,107.84179999999999,-96.8788,175,75
2026-05-11 17:50:48.177,1,-0.64,-1.28,2.29,11.185999999999998,127.3518,-44.8688,175,75
2026-05-11 17:50:48.177,1,-0.54,-1.32,2.36,-5.644,148.3318,-25.538800000000002,175,75
2026-05-11 17:50:48.274,1,-0.4,0.02,2.9,-30.403999999999996,96.3218,71.1112,175,75
2026-05-11 17:50:48.286,1,0.18,0.41,2.67,76.79599999999999,-90.0782,-36.9388,175,75
2026-05-11 17:50:48.286,1,0.13,0.33,2.65,93.196,-177.0982,-61.088800000000006,175,75
2026-05-11 17:50:48.301,1,-0.18,-0.09,2.13,97.776,-304.4082,-112.2488,175,75
2026-05-11 17:50:48.301,1,-0.8,-0.17,1.68,81.246,-345.6282,-115.89880000000001,175,75
2026-05-11 17:50:48.313,1,-3.01,-0.09,1.12,68.866,-380.7582,-98.2788,175,75
2026-05-11 17:50:48.324,1,-6.48,0.18,-0.42,-0.5840000000000014,-427.5782,-26.028800000000004,175,75
2026-05-11 17:50:48.337,1,-8.5,0.4,-2.96,-26.314,-378.4982,134.9512,175,75
2026-05-11 17:50:48.354,1,-2.56,-2.36,1.49,136.426,703.9418,53.7912,175,75
2026-05-11 17:50:48.354,1,-0.66,-0.03,2.84,-61.614,434.3118,53.49119999999999,175,75
2026-05-11 17:50:48.367,1,-1.26,0.33,3.51,-83.634,293.0918,48.2412,175,75
2026-05-11 17:50:48.389,1,0.42,-2.38,3.93,10.636,-42.6482,44.8912,175,75
2026-05-11 17:50:48.389,1,-1.16,-1.86,2.19,-107.834,-191.2382,58.85119999999999,175,75
2026-05-11 17:50:48.411,1,-0.88,-1.25,0.64,-114.54400000000001,-150.8782,51.6012,175,75
2026-05-11 17:50:48.421,1,-1.21,-1.52,0.45,-39.484,-35.688199999999995,37.151199999999996,175,75
2026-05-11 17:50:48.463,1,-1.01,-1.81,1.41,11.975999999999999,72.3518,25.621199999999995,175,75
2026-05-11 17:50:48.463,1,-1.0,-1.67,2.12,-16.864000000000004,26.5618,14.521199999999999,175,75
2026-05-11 17:50:48.485,1,-1.1,-1.79,1.72,-40.403999999999996,45.40180000000001,-4.498800000000002,175,75
2026-05-11 17:50:48.496,1,-0.93,-1.86,1.98,-26.253999999999998,95.8918,-1.0288000000000022,175,75
2026-05-11 17:50:48.496,1,-0.7,-2.03,2.28,-13.574,145.4018,2.5711999999999993,175,75
2026-05-11 17:50:48.529,1,0.4,-2.63,1.71,-30.464,260.8318,-1.3888000000000016,175,75
2026-05-11 17:50:48.557,1,-1.08,-1.12,1.34,-79.85400000000001,271.8718,-11.148800000000001,175,75
2026-05-11 17:50:48.569,1,-2.54,-0.32,2.27,-198.63400000000001,335.2218,112.5112,175,75
2026-05-11 17:50:48.582,1,-2.95,-1.44,1.6,-199.794,2.7218000000000018,149.5812,175,75
2026-05-11 17:50:48.699,1,-1.18,-0.91,0.71,-207.714,113.15180000000001,182.2712,175,75
2026-05-11 17:50:48.728,1,-0.92,-0.33,1.46,-212.41400000000002,137.2918,146.4712,175,75
2026-05-11 17:50:48.748,1,-0.82,-0.1,1.68,-207.104,130.8318,136.4112,175,75
2026-05-11 17:50:48.761,1,-0.45,0.55,1.96,-129.124,-35.9982,92.6912,175,75
2026-05-11 17:50:48.784,1,-0.24,0.78,2.07,-53.083999999999996,-53.8682,40.9312,175,75
2026-05-11 17:50:48.784,1,-0.2,0.76,2.07,-19.484,-68.0082,0.26119999999999877,175,75
2026-05-11 17:50:48.795,1,-0.24,0.64,1.97,34.906,-56.178200000000004,-61.3888,175,75
2026-05-11 17:50:48.806,1,-0.36,0.63,1.93,59.666000000000004,-42.4582,-76.81880000000001,175,75
2026-05-11 17:50:48.817,1,-0.43,0.6,1.91,86.48599999999999,-32.398199999999996,-96.9388,175,75
2026-05-11 17:50:48.817,1,-0.53,0.59,1.92,105.756,-27.7682,-110.53880000000001,175,75
2026-05-11 17:50:48.834,1,-0.61,0.41,1.96,153.80599999999998,-20.998199999999997,-142.1788,175,75
2026-05-11 17:50:48.843,1,-0.64,0.33,1.93,176.61599999999999,-22.3982,-158.0988,175,75
2026-05-11 17:50:48.849,1,-0.64,0.23,1.89,199.666,-25.6882,-173.9488,175,75
2026-05-11 17:50:48.861,1,-0.67,0.15,1.84,215.636,-28.798199999999998,-183.0988,175,75
2026-05-11 17:50:48.889,1,-0.63,-0.07,1.73,249.296,-29.228199999999998,-187.3088,175,75
2026-05-11 17:50:48.900,1,-0.71,-0.25,1.65,256.556,-59.2882,-186.93880000000001,175,75
2026-05-11 17:50:48.911,1,-0.71,-0.44,1.54,261.06600000000003,-74.0482,-194.9288,175,75
2026-05-11 17:50:48.929,1,-1.23,-0.94,1.63,249.476,-148.4382,-200.6588,175,75
2026-05-11 17:50:48.938,1,-1.25,-1.17,1.84,232.286,-179.6582,-188.0388,175,75
2026-05-11 17:50:48.994,1,-1.81,-1.31,1.47,121.556,-405.2082,-139.6188,175,75
2026-05-11 17:50:49.005,1,-2.11,-0.96,1.1,88.076,-419.0482,-118.4588,175,75
2026-05-11 17:50:49.019,1,-2.38,-0.53,0.7,63.626,-382.5182,-102.78880000000001,175,75
2026-05-11 17:50:49.045,1,-7.95,-0.03,-1.25,-18.573999999999998,-184.5982,92.5112,175,75
2026-05-11 17:50:49.096,1,0.33,-1.97,1.26,-260.274,-259.40819999999997,81.35119999999999,175,75
2026-05-11 17:50:49.110,1,-0.94,-0.8,0.49,-211.624,-205.3282,64.71119999999999,175,75
2026-05-11 17:50:49.118,1,-1.24,-1.15,0.76,-88.20400000000001,-76.48819999999999,50.441199999999995,175,75
2026-05-11 17:50:49.137,1,-1.05,-1.32,1.72,-51.194,51.1318,70.13119999999999,175,75
2026-05-11 17:50:49.147,1,-1.0,-0.63,1.32,-41.804,-29.718199999999996,66.96119999999999,175,75
2026-05-11 17:50:49.164,1,-1.53,-1.05,1.14,35.146,33.2118,15.741199999999997,175,75
2026-05-11 17:50:49.191,1,-1.39,-0.99,1.75,51.856,39.2418,-30.778800000000004,175,75
2026-05-11 17:50:49.220,1,-1.41,-0.96,1.64,48.866,21.261800000000004,-62.3688,175,75
2026-05-11 17:50:49.235,1,-1.23,-1.04,1.87,63.926,47.6018,-86.50880000000001,175,75
2026-05-11 17:50:49.243,1,-1.08,-1.08,1.96,63.566,45.1018,-92.36880000000001,175,75
2026-05-11 17:50:49.286,1,-0.95,-1.05,1.85,49.476,51.811800000000005,-86.8788,175,75
2026-05-11 17:50:49.332,1,-0.73,-0.96,1.93,34.296,62.84179999999999,-62.668800000000005,175,75
2026-05-11 17:50:49.332,1,-0.78,-0.71,2.11,24.055999999999997,59.921800000000005,-39.4388,175,75
2026-05-11 17:50:49.332,1,-0.83,-0.53,2.22,12.956,37.9618,-20.7188,175,75
2026-05-11 17:50:49.343,1,-1.1,-0.44,2.02,-11.744000000000002,-4.3481999999999985,2.6911999999999985,175,75
2026-05-11 17:50:49.372,1,-1.09,-0.06,1.62,-44.544,-12.828199999999999,40.441199999999995,175,75
2026-05-11 17:50:49.383,1,-1.11,0.02,1.66,-46.804,-41.4882,47.331199999999995,175,75
2026-05-11 17:50:49.383,1,-0.98,0.09,1.81,-43.024,-62.9482,46.291199999999996,175,75
2026-05-11 17:50:49.395,1,-0.48,0.09,1.88,-37.294,-89.9582,39.9512,175,75
2026-05-11 17:50:49.407,1,-0.48,0.35,1.35,-35.214,-135.0182,15.8012,175,75
2026-05-11 17:50:49.437,1,-1.46,0.69,1.2,-25.464,-121.7882,13.431199999999999,175,75
2026-05-11 17:50:49.449,1,-1.5,0.43,0.74,-33.994,-128.9282,26.231199999999994,175,75
2026-05-11 17:50:49.462,1,-3.05,0.3,0.56,-58.99399999999999,-118.0082,54.0412,175,75
2026-05-11 17:50:49.491,1,-1.77,-0.24,1.09,-39.364,58.2718,71.7212,175,75
2026-05-11 17:50:49.514,1,-0.9,-0.64,2.84,56.736,160.2218,65.38119999999999,175,75
2026-05-11 17:50:49.527,1,-1.43,-1.15,3.49,41.126,38.451800000000006,52.3912,175,75
2026-05-11 17:50:49.538,1,-0.76,-2.03,2.27,-19.794000000000004,-90.3882,65.93119999999999,175,75
2026-05-11 17:50:49.549,1,-0.98,-1.18,1.16,-53.38399999999999,-104.5982,45.0712,175,75
2026-05-11 17:50:49.549,1,-0.87,-1.08,0.88,-8.694,-32.3382,29.221199999999996,175,75
2026-05-11 17:50:49.561,1,-0.98,-1.47,1.4,29.966,17.3518,0.381199999999998,175,75
2026-05-11 17:50:49.561,1,-0.88,-1.77,1.89,31.555999999999997,31.0718,3.7311999999999976,175,75
2026-05-11 17:50:49.580,1,-0.7,-2.15,1.96,6.675999999999998,-13.678199999999999,11.0512,175,75
2026-05-11 17:50:49.580,1,-0.83,-2.21,1.64,-19.484,-43.9882,14.221199999999998,175,75
2026-05-11 17:50:49.591,1,-1.09,-1.87,1.5,-7.774000000000003,30.951800000000002,-7.8488000000000016,175,75
2026-05-11 17:50:49.601,1,-0.8,-2.26,2.22,-22.653999999999996,84.73179999999999,-10.168800000000001,175,75
2026-05-11 17:50:49.617,1,-0.29,-2.68,2.7,-53.264,113.5718,12.151199999999998,175,75
2026-05-11 17:50:49.642,1,0.49,-3.31,2.31,-38.204,253.7018,-31.998800000000003,175,75
2026-05-11 17:50:49.654,1,0.11,-2.25,2.59,-88.57400000000001,339.1818,23.911199999999994,175,75
2026-05-11 17:50:49.667,1,-2.03,-0.76,2.67,-141.314,244.3718,62.3912,175,75
2026-05-11 17:50:49.668,1,-3.35,-0.92,2.49,-198.204,95.7718,114.5212,175,75
2026-05-11 17:50:49.725,1,-2.59,-1.54,1.92,-255.46400000000003,22.1118,184.4612,175,75
2026-05-11 17:50:49.725,1,-2.77,-1.8,0.74,-274.604,-28.1882,172.6912,175,75
2026-05-11 17:50:49.736,1,-3.09,-1.39,0.08,-253.57399999999998,32.7218,204.4012,175,75
2026-05-11 17:50:49.759,1,-1.34,-1.41,0.26,-168.38400000000001,224.1218,184.3412,175,75
2026-05-11 17:50:49.775,1,-1.18,-1.0,1.13,-126.25400000000002,255.53179999999998,200.0712,175,75
2026-05-11 17:50:49.775,1,-0.81,-0.82,1.58,-155.214,212.1118,174.0412,175,75
2026-05-11 17:50:49.785,1,-0.74,-0.29,1.69,-173.814,142.5418,159.4012,175,75
2026-05-11 17:50:49.798,1,-0.67,0.05,1.7,-159.304,100.5318,152.9412,175,75
2026-05-11 17:50:49.798,1,-0.63,0.28,1.74,-138.38400000000001,64.1218,142.1512,175,75
2026-05-11 17:50:49.827,1,-0.38,0.77,1.75,-72.164,-60.1482,86.96119999999999,175,75
2026-05-11 17:50:49.838,1,-0.45,0.85,1.7,-27.714,-50.26819999999999,53.551199999999994,175,75
2026-05-11 17:50:49.849,1,-0.42,1.0,1.75,-0.8240000000000016,-32.2782,31.291199999999996,175,75
2026-05-11 17:50:49.856,1,-0.38,1.05,1.76,29.665999999999997,-30.6282,0.13119999999999798,175,75
2026-05-11 17:50:49.869,1,-0.5,1.04,1.78,80.51599999999999,6.931800000000003,-46.5088,175,75
2026-05-11 17:50:49.894,1,-0.5,0.96,1.92,121.916,39.061800000000005,-62.4288,175,75
2026-05-11 17:50:49.917,1,-0.48,0.79,1.92,137.466,28.941800000000004,-74.6188,175,75
2026-05-11 17:50:49.917,1,-0.49,0.66,1.88,147.166,28.0318,-85.3488,175,75
2026-05-11 17:50:49.984,1,-0.55,0.5,1.81,201.916,31.621800000000004,-135.59879999999998,175,75
2026-05-11 17:50:49.996,1,-0.53,0.2,1.72,219.846,-11.178199999999997,-154.49880000000002,175,75
2026-05-11 17:50:50.063,1,-0.52,-0.16,1.54,231.126,-40.688199999999995,-164.1388,175,75
2026-05-11 17:50:50.084,1,-1.41,-1.29,1.62,205.08599999999998,-193.9882,-173.3988,175,75
2026-05-11 17:50:50.097,1,-1.7,-1.47,1.43,161.006,-269.46819999999997,-145.2288,175,75
2026-05-11 17:50:50.114,1,-1.66,-1.31,1.03,117.466,-285.9982,-114.06880000000001,175,75
2026-05-11 17:50:50.115,1,-1.82,-0.97,0.55,76.916,-253.4982,-93.3388,175,75
2026-05-11 17:50:50.127,1,-6.13,-0.35,0.05,39.356,-230.1482,-16.9388,175,75
2026-05-11 17:50:50.136,1,-10.6,-0.54,-2.19,0.14599999999999902,-145.44819999999999,4.891199999999998,175,75
2026-05-11 17:50:50.179,1,-2.1,-1.79,4.49,-1.684000000000001,-2.3381999999999987,99.8312,175,75
2026-05-11 17:50:50.209,1,-1.45,-0.25,-0.44,-204.304,-284.6582,63.49119999999999,175,75
2026-05-11 17:50:50.220,1,-1.62,-0.84,-0.3,-71.924,-56.178200000000004,53.1812,175,75
2026-05-11 17:50:50.288,1,-1.7,-1.68,1.41,9.595999999999998,174.6718,55.32119999999999,175,75
2026-05-11 17:50:50.304,1,-0.99,-1.24,2.4,-0.5840000000000014,154.6118,57.941199999999995,175,75
2026-05-11 17:50:50.324,1,-0.87,-0.81,1.96,-53.023999999999994,-22.218199999999996,51.541199999999996,175,75
2026-05-11 17:50:50.324,1,-1.2,-0.72,1.27,-59.114,-86.1182,36.84119999999999,175,75
2026-05-11 17:50:50.387,1,-1.08,-1.19,1.63,72.166,29.3118,-89.86880000000001,175,75
2026-05-11 17:50:50.424,1,-0.51,-1.68,1.95,83.68599999999999,73.8218,-130.34879999999998,175,75
2026-05-11 17:50:50.425,1,-0.71,-1.44,2.07,50.636,62.171800000000005,-82.6088,175,75
2026-05-11 17:50:50.445,1,-0.65,-0.9,2.32,26.246,88.2718,-41.1488,175,75
2026-05-11 17:50:50.452,1,-0.97,-0.62,2.28,2.0359999999999996,51.87179999999999,-16.088800000000003,175,75
2026-05-11 17:50:50.463,1,-1.23,-0.42,2.1,-31.134,41.01180000000001,12.8212,175,75
2026-05-11 17:50:50.475,1,-0.59,0.13,2.13,-54.974,12.481800000000003,34.7112,175,75
2026-05-11 17:50:50.495,1,-0.54,0.28,2.04,-50.153999999999996,-61.6082,27.941199999999995,175,75
2026-05-11 17:50:50.495,1,-0.47,0.42,2.18,-26.014000000000003,-86.4882,12.8212,175,75
2026-05-11 17:50:50.506,1,-0.15,0.4,2.42,-1.3740000000000006,-96.3682,-10.108800000000002,175,75
2026-05-11 17:50:50.514,1,-1.36,0.56,1.79,13.625999999999998,-253.9282,-36.6388,175,75
2026-05-11 17:50:50.541,1,-4.71,0.59,-0.21,-27.043999999999997,-213.0082,7.2711999999999986,175,75
2026-05-11 17:50:50.577,1,-0.76,-1.06,4.08,93.68599999999999,372.4818,50.5012,175,75
2026-05-11 17:50:50.609,1,-0.24,-2.1,2.49,-50.824,-163.6182,55.5612,175,75
2026-05-11 17:50:50.630,1,-1.01,-0.94,0.72,-33.694,-40.4482,24.041199999999996,175,75
2026-05-11 17:50:50.659,1,-0.72,-2.3,1.87,-2.8340000000000014,-5.998199999999999,-5.778800000000001,175,75
2026-05-11 17:50:50.670,1,-0.65,-2.11,1.66,-29.854,-18.318199999999997,-6.448800000000001,175,75
2026-05-11 17:50:50.681,1,-0.77,-1.96,1.53,-27.164,10.041800000000002,-8.038800000000002,175,75
2026-05-11 17:50:50.694,1,-0.75,-2.04,1.72,-11.374,46.3818,-6.148800000000001,175,75
2026-05-11 17:50:50.732,1,-0.78,-2.26,2.1,-6.254,80.7118,1.1111999999999984,175,75
2026-05-11 17:50:50.743,1,-0.59,-2.6,2.43,-8.814000000000002,110.40180000000001,14.771199999999999,175,75
2026-05-11 17:50:50.743,1,-0.53,-3.31,2.89,14.475999999999999,218.8218,19.461199999999998,175,75
2026-05-11 17:50:50.758,1,0.68,-3.91,3.04,-7.834000000000001,317.7218,-3.6488000000000014,175,75
2026-05-11 17:50:50.758,1,-0.46,-2.14,2.94,-56.74399999999999,332.9618,20.931199999999997,175,75
2026-05-11 17:50:50.773,1,-3.09,-0.68,2.18,-121.744,190.8318,66.6612,175,75
2026-05-11 17:50:50.784,1,-3.76,-1.15,1.19,-220.464,172.7818,179.5812,175,75
2026-05-11 17:50:50.784,1,-2.52,-2.2,-0.03,-285.584,129.2418,184.8312,175,75
2026-05-11 17:50:50.795,1,-3.03,-2.41,-1.3,-281.43399999999997,214.3118,170.3812,175,75
2026-05-11 17:50:50.835,1,-1.55,-1.67,0.7,-175.404,313.7618,194.3412,175,75
2026-05-11 17:50:50.835,1,-1.14,-1.28,1.34,-245.27400000000003,203.2118,184.7112,175,75
2026-05-11 17:50:50.835,1,-1.0,-0.67,1.44,-294.724,78.3918,174.8312,175,75
2026-05-11 17:50:50.897,1,-0.93,-0.14,1.38,-287.534,11.501800000000003,181.8412,175,75
2026-05-11 17:50:50.907,1,-0.93,0.2,1.33,-269.794,-29.048199999999998,178.3612,175,75
2026-05-11 17:50:50.907,1,-0.98,0.5,1.25,-265.464,-26.4882,184.7712,175,75
2026-05-11 17:50:50.907,1,-0.9,0.58,1.35,-264.484,-20.208199999999998,188.3612,175,75
2026-05-11 17:50:50.962,1,-0.26,0.74,2.23,-184.244,-58.438199999999995,155.56119999999999,175,75
2026-05-11 17:50:50.975,1,-0.06,0.68,2.42,-150.03400000000002,-45.8182,145.0712,175,75
2026-05-11 17:50:50.986,1,0.22,0.84,2.67,-105.274,-35.5682,116.60119999999999,175,75
2026-05-11 17:50:50.997,1,0.42,1.15,2.84,-58.443999999999996,-6.7281999999999975,66.8412,175,75
2026-05-11 17:50:50.997,1,0.49,1.01,2.68,-2.9040000000000017,18.511800000000004,18.1212,175,75
2026-05-11 17:50:51.008,1,0.32,0.88,2.65,44.536,65.0418,-7.178800000000002,175,75
2026-05-11 17:50:51.020,1,0.33,0.79,2.82,89.666,93.8818,-29.808800000000005,175,75
2026-05-11 17:50:51.043,1,0.31,0.77,2.99,125.51599999999999,79.9218,-45.778800000000004,175,75
2026-05-11 17:50:51.064,1,0.09,0.58,2.69,175.206,-43.3182,-93.8888,175,75
2026-05-11 17:50:51.064,1,-0.05,0.43,2.46,186.976,-71.7882,-109.8088,175,75
2026-05-11 17:50:51.064,1,-0.19,0.27,2.26,204.356,-89.5382,-127.11880000000001,175,75
2026-05-11 17:50:51.076,1,-0.32,0.12,2.05,219.05599999999998,-90.26820000000001,-147.6088,175,75
2026-05-11 17:50:51.095,1,-0.53,-0.05,1.88,241.30599999999998,-73.7982,-179.49880000000002,175,75
2026-05-11 17:50:51.095,1,-0.68,-0.19,1.86,254.596,-70.2682,-193.21880000000002,175,75
2026-05-11 17:50:51.121,1,-0.78,-0.32,1.86,263.50600000000003,-63.188199999999995,-209.9288,175,75
2026-05-11 17:50:51.121,1,-0.67,-0.44,1.84,269.846,-58.6182,-225.2288,175,75
2026-05-11 17:50:51.158,1,-1.15,-1.26,1.36,260.696,-74.8982,-225.71880000000002,175,75
2026-05-11 17:50:51.263,1,-11.06,-2.11,-3.73,-87.65400000000001,-566.2982,154.4012,175,75
2026-05-11 17:50:51.299,1,6.03,-9.37,2.1,291.61600000000004,240.10180000000003,221.8412,175,75
2026-05-11 17:50:51.308,1,-2.96,-1.5,4.81,-59.663999999999994,44.671800000000005,93.0012,175,75
2026-05-11 17:50:51.320,1,0.21,-2.34,2.23,-132.53400000000002,-278.1282,114.0412,175,75
2026-05-11 17:50:51.320,1,-0.98,-0.54,0.55,-154.854,-221.0582,123.18119999999999,175,75
2026-05-11 17:50:51.350,1,-1.21,-1.39,-0.12,-86.924,-127.0982,64.71119999999999,175,75
2026-05-11 17:50:51.350,1,-1.61,-1.84,0.24,-16.194000000000003,28.5718,43.2412,175,75
2026-05-11 17:50:51.361,1,-1.39,-1.45,1.81,35.635999999999996,171.1318,52.151199999999996,175,75
2026-05-11 17:50:51.361,1,-0.79,-1.07,2.16,-0.2740000000000009,66.6818,46.721199999999996,175,75
2026-05-11 17:50:51.380,1,-1.59,-0.99,1.02,-18.384,-24.538199999999996,-3.5288000000000013,175,75
2026-05-11 17:50:51.441,1,-1.39,-0.95,1.8,43.016,20.4618,-66.2088,175,75
2026-05-11 17:50:51.462,1,-1.25,-1.11,1.59,44.116,8.821800000000003,-94.4988,175,75
2026-05-11 17:50:51.462,1,-1.17,-1.06,1.62,55.886,23.451800000000002,-103.8288,175,75
2026-05-11 17:50:51.475,1,-1.17,-1.14,1.72,62.466,34.671800000000005,-118.03880000000001,175,75
2026-05-11 17:50:51.539,1,-1.1,-0.72,1.96,69.056,93.2118,-89.06880000000001,175,75
2026-05-11 17:50:51.539,1,-0.9,-0.72,2.1,47.096000000000004,71.3818,-91.9388,175,75
2026-05-11 17:50:51.553,1,-0.78,-0.58,2.09,31.856,20.831800000000005,-72.0588,175,75
2026-05-11 17:50:51.575,1,-0.88,-0.57,1.99,16.976,0.4618000000000002,-58.3988,175,75
2026-05-11 17:50:51.606,1,-1.19,-0.54,1.73,-12.834000000000001,-16.908199999999997,-30.778800000000004,175,75
2026-05-11 17:50:51.649,1,-0.74,-0.05,2.2,-49.184,-45.01819999999999,87.0812,175,75
2026-05-11 17:50:51.687,1,0.39,-0.06,1.24,-51.014,-79.9582,13.851199999999997,175,75
2026-05-11 17:50:51.711,1,-0.16,0.52,2.45,40.205999999999996,192.1718,31.051199999999994,175,75
2026-05-11 17:50:51.747,1,-1.74,-0.37,1.36,-7.534000000000001,-260.2082,13.3012,175,75
2026-05-11 17:50:51.760,1,-1.23,-2.71,3.26,42.406,52.0518,71.1712,175,75
2026-05-11 17:50:51.817,1,-1.32,-0.32,0.95,-76.744,-141.5482,14.1612,175,75
2026-05-11 17:50:51.839,1,-1.08,-2.1,1.43,12.956,-31.178199999999997,-55.168800000000005,175,75
2026-05-11 17:50:51.850,1,-1.23,-1.45,1.23,43.016,1.011800000000001,-75.28880000000001,175,75
2026-05-11 17:50:51.861,1,-1.25,-1.47,1.34,62.706,24.1818,-98.2788,175,75
2026-05-11 17:50:51.872,1,-1.19,-1.6,1.55,71.916,47.0518,-116.8788,175,75
2026-05-11 17:50:51.882,1,-0.34,-2.12,2.22,93.866,151.8118,-137.9188,175,75
2026-05-11 17:50:51.894,1,-0.32,-0.97,1.91,19.415999999999997,108.8218,-65.9588,175,75
2026-05-11 17:50:51.904,1,-0.57,-0.57,1.53,12.036,125.5918,-58.098800000000004,175,75
2026-05-11 17:50:51.920,1,-1.81,-0.64,1.18,-52.414,194.5518,-1.698800000000002,175,75
2026-05-11 17:50:51.920,1,-3.51,-0.96,0.74,-148.69400000000002,247.66179999999997,72.57119999999999,175,75
2026-05-11 17:50:51.960,1,-2.91,-3.95,1.04,-315.82399999999996,213.5718,277.0212,175,75
2026-05-11 17:50:51.960,1,-1.9,-2.84,1.39,-320.88399999999996,165.7118,296.4112,175,75
2026-05-11 17:50:51.965,1,-1.5,-2.07,1.51,-377.594,112.11179999999999,309.2812,175,75
2026-05-11 17:50:51.981,1,-1.4,-1.37,1.27,-354.364,123.39179999999999,311.4712,175,75
2026-05-11 17:50:51.994,1,-1.06,-1.14,1.54,-324.424,163.3918,304.5812,175,75
2026-05-11 17:50:52.009,1,-0.82,-0.92,1.82,-322.414,169.1218,294.8312,175,75
2026-05-11 17:50:52.009,1,-0.6,-0.73,2.0,-335.94399999999996,134.7918,278.7912,175,75
2026-05-11 17:50:52.036,1,-0.38,-0.58,2.04,-326.31399999999996,29.4918,260.3812,175,75
2026-05-11 17:50:52.048,1,-0.27,-0.47,2.05,-311.49399999999997,-13.738199999999999,257.2712,175,75
2026-05-11 17:50:52.069,1,-0.14,-0.34,2.11,-288.93399999999997,-55.87819999999999,254.46120000000002,175,75
2026-05-11 17:50:52.070,1,-0.06,-0.21,2.23,-263.38399999999996,-76.5482,243.3012,175,75
2026-05-11 17:50:52.079,1,0.13,-0.05,2.47,-232.16400000000002,-62.2782,224.5212,175,75
2026-05-11 17:50:52.092,1,0.81,0.51,2.94,-146.014,-55.1482,146.8412,175,75
2026-05-11 17:50:52.106,1,0.98,0.83,2.99,-103.144,-53.0082,95.2512,175,75
2026-05-11 17:50:52.144,1,0.56,1.23,2.78,47.526,26.8118,-21.0888,175,75
2026-05-11 17:50:52.155,1,0.45,0.93,2.94,121.06599999999999,57.3518,-68.5888,175,75
2026-05-11 17:50:52.155,1,0.37,0.62,3.13,177.706,41.62180000000001,-104.1388,175,75
2026-05-11 17:50:52.166,1,0.29,0.18,3.04,220.816,-27.7682,-139.3188,175,75
2026-05-11 17:50:52.180,1,0.02,0.05,2.6,236.36599999999999,-72.2782,-170.4188,175,75
2026-05-11 17:50:52.260,1,-0.15,-0.09,2.19,245.516,-72.9482,-195.5388,175,75
2026-05-11 17:50:52.260,1,-0.37,-0.13,1.92,262.226,-58.98819999999999,-213.0388,175,75
2026-05-11 17:50:52.260,1,-0.46,-0.27,1.78,295.81600000000003,-36.298199999999994,-229.9288,175,75
2026-05-11 17:50:52.260,1,-0.54,-0.47,1.81,315.276,-21.2382,-243.21880000000002,175,75
2026-05-11 17:50:52.275,1,-0.61,-0.63,1.87,319.29600000000005,-26.4882,-256.6988,175,75
2026-05-11 17:50:52.289,1,-0.69,-0.65,1.94,320.946,-30.9382,-266.8188,175,75
2026-05-11 17:50:52.317,1,-0.67,-0.76,1.95,328.446,-73.98819999999999,-265.04879999999997,175,75
2026-05-11 17:50:52.317,1,-0.96,-1.05,1.59,317.706,-135.5682,-253.1588,175,75
2026-05-11 17:50:52.362,1,-1.53,-1.66,1.39,197.036,-256.6082,-216.1488,175,75
2026-05-11 17:50:52.384,1,-3.47,-0.74,0.82,120.886,-376.6082,-149.1988,175,75
2026-05-11 17:50:52.395,1,-12.08,-1.01,-3.05,11.425999999999998,-590.9382,-150.2888,175,75
2026-05-11 17:50:52.409,1,6.04,-1.74,-1.89,-10.464,-730.9982,1220.6212,175,75
2026-05-11 17:50:52.418,1,-0.55,-7.81,5.44,271.79600000000005,639.3118,-165.7788,175,75
2026-05-11 17:50:52.429,1,0.11,0.29,3.13,-70.944,563.5718,-64.3788,175,75
2026-05-11 17:50:52.492,1,-1.59,-1.85,0.69,14.966,137.6018,16.6012,175,75
2026-05-11 17:50:52.501,1,-0.8,-1.07,1.79,23.256,76.0118,10.191199999999997,175,75
2026-05-11 17:50:52.521,1,-1.17,-1.1,1.8,-2.0440000000000005,-2.458199999999998,-1.8788000000000018,175,75
2026-05-11 17:50:52.521,1,-1.59,-1.07,1.36,4.535999999999999,-21.2382,-30.598800000000004,175,75
2026-05-11 17:50:52.535,1,-1.56,-1.03,1.34,31.065999999999995,-1.5481999999999978,-50.0488,175,75
2026-05-11 17:50:52.618,1,-0.93,-1.35,1.63,91.366,129.1818,-165.2288,175,75
2026-05-11 17:50:52.634,1,-0.77,-0.87,1.81,95.45599999999999,175.8918,-110.1688,175,75
2026-05-11 17:50:52.648,1,-0.58,-0.7,2.18,73.386,139.6118,-79.00880000000001,175,75
2026-05-11 17:50:52.648,1,-0.62,-0.5,2.32,46.616,81.0718,-74.0688,175,75
2026-05-11 17:50:52.669,1,-0.97,-0.36,2.38,7.285999999999999,27.2918,-47.72880000000001,175,75
2026-05-11 17:50:52.680,1,-1.24,-0.43,2.13,-25.944000000000003,-12.578199999999999,-20.958800000000004,175,75
2026-05-11 17:50:52.691,1,-1.77,-0.34,1.24,-86.554,-19.838199999999997,42.331199999999995,175,75
2026-05-11 17:50:52.702,1,-1.55,-0.09,1.09,-89.18400000000001,-5.1481999999999974,57.63119999999999,175,75
2026-05-11 17:50:52.714,1,-1.45,0.03,1.06,-87.90400000000001,-3.6781999999999986,66.1112,175,75
2026-05-11 17:50:52.725,1,-0.98,0.2,1.28,-70.09400000000001,11.561800000000002,65.99119999999999,175,75
2026-05-11 17:50:52.793,1,-0.14,0.28,1.88,-63.023999999999994,-73.6782,49.401199999999996,175,75
2026-05-11 17:50:52.840,1,-3.26,0.18,1.7,-59.24399999999999,-306.1182,22.761199999999995,175,75
2026-05-11 17:50:52.850,1,-0.09,-1.28,2.89,59.726,207.2318,113.9112,175,75
2026-05-11 17:50:52.880,1,-0.85,-1.37,0.75,-111.804,-142.4582,21.0512,175,75
2026-05-11 17:50:52.898,1,-0.92,-0.89,0.71,-26.134,-22.708199999999998,-10.958800000000002,175,75
2026-05-11 17:50:52.909,1,-0.79,-1.46,1.7,42.586,23.761800000000004,-30.2288,175,75
2026-05-11 17:50:52.951,1,-1.0,-1.85,1.9,12.405999999999999,53.3318,-55.838800000000006,175,75
2026-05-11 17:50:52.978,1,-0.53,-1.97,2.26,60.396,176.0118,-64.2588,175,75
2026-05-11 17:50:53.052,1,-4.08,-0.96,1.6,-151.924,226.3818,96.7212,175,75
2026-05-11 17:50:53.052,1,-3.4,-1.95,0.72,-267.904,233.3918,208.8512,175,75
2026-05-11 17:50:53.052,1,-3.38,-2.97,-0.13,-333.44399999999996,221.2018,212.4512,175,75
2026-05-11 17:50:53.121,1,-0.82,-0.83,1.64,-318.99399999999997,96.6218,239.4612,175,75
2026-05-11 17:50:53.145,1,-0.84,-0.21,1.27,-273.93399999999997,113.15180000000001,232.4512,175,75
2026-05-11 17:50:53.145,1,-0.72,-0.04,1.37,-275.404,138.27179999999998,229.9512,175,75
2026-05-11 17:50:53.156,1,-0.58,-0.05,1.57,-270.404,147.6018,223.4312,175,75
2026-05-11 17:50:53.169,1,-0.39,-0.1,1.88,-261.43399999999997,120.95179999999999,212.8212,175,75
2026-05-11 17:50:53.192,1,-0.06,0.35,2.3,-177.16400000000002,-45.5082,184.9512,175,75
2026-05-11 17:50:53.210,1,0.07,0.52,2.55,-161.984,-59.59819999999999,183.1212,175,75
2026-05-11 17:50:53.210,1,0.23,0.76,2.74,-133.514,-88.0082,166.7212,175,75
2026-05-11 17:50:53.220,1,0.36,1.06,2.69,-87.04400000000001,-115.01820000000001,113.5512,175,75
2026-05-11 17:50:53.233,1,0.33,1.22,2.54,-57.594,-101.1182,65.99119999999999,175,75
2026-05-11 17:50:53.253,1,0.05,0.93,2.32,72.466,32.6018,-48.8888,175,75
2026-05-11 17:50:53.273,1,-0.0,0.78,2.58,114.356,40.531800000000004,-87.5488,175,75
2026-05-11 17:50:53.279,1,-0.02,0.65,2.65,136.366,13.571800000000003,-109.86880000000001,175,75
2026-05-11 17:50:53.298,1,-0.13,0.4,2.55,160.396,-37.3382,-136.5688,175,75
2026-05-11 17:50:53.316,1,-0.38,0.17,2.14,187.46599999999998,-85.01820000000001,-173.8888,175,75
2026-05-11 17:50:53.327,1,-0.46,0.07,2.0,199.666,-90.5682,-192.3688,175,75
2026-05-11 17:50:53.356,1,-0.49,-0.06,1.85,214.666,-82.0382,-210.4188,175,75
2026-05-11 17:50:53.373,1,-0.55,-0.27,1.75,235.33599999999998,-64.2282,-227.9188,175,75
2026-05-11 17:50:53.388,1,-0.77,-0.52,1.72,275.456,-23.1882,-266.0888,175,75
2026-05-11 17:50:53.388,1,-0.86,-0.52,1.75,287.646,-7.6481999999999974,-269.3788,175,75
2026-05-11 17:50:53.402,1,-0.86,-0.72,1.8,304.356,-24.3482,-251.0288,175,75
2026-05-11 17:50:53.410,1,-0.81,-0.9,1.89,305.87600000000003,-58.0082,-240.4788,175,75
2026-05-11 17:50:53.467,1,-0.71,-1.46,2.35,295.276,-167.0382,-233.3988,175,75
2026-05-11 17:50:53.478,1,-1.22,-1.85,2.6,253.80599999999998,-365.1482,-209.3788,175,75
2026-05-11 17:50:53.498,1,-2.27,-1.28,1.27,177.896,-382.9482,-209.0688,175,75
2026-05-11 17:50:53.504,1,-11.77,-0.95,-1.4,101.06599999999999,-432.3982,-211.0888,175,75
2026-05-11 17:50:53.539,1,9.54,-4.43,2.18,312.286,74.9218,680.8012000000001,175,75
2026-05-11 17:50:53.562,1,0.34,-2.5,3.66,-11.554,167.2918,14.341199999999999,175,75
2026-05-11 17:50:53.700,1,-1.16,-1.14,0.96,-0.7640000000000011,7.231800000000003,37.3912,175,75
2026-05-11 17:50:53.729,1,-0.99,-1.46,1.49,-24.424,5.101800000000001,19.581199999999995,175,75
2026-05-11 17:50:53.819,1,-1.29,-0.94,1.89,71.856,34.37180000000001,-88.3388,175,75
2026-05-11 17:50:53.861,1,-1.16,-0.96,1.65,71.48599999999999,-15.208199999999998,-119.4988,175,75
2026-05-11 17:50:53.873,1,-1.16,-1.14,1.54,81.73599999999999,3.0918000000000028,-136.5688,175,75
2026-05-11 17:50:53.933,1,-1.21,-0.22,1.41,-82.71400000000001,60.401799999999994,83.6712,175,75
2026-05-11 17:50:53.969,1,-2.99,0.17,1.78,-83.754,-152.2182,40.9312,175,75
2026-05-11 17:50:53.992,1,-0.92,-1.01,2.83,-6.014000000000001,9.8518,73.24119999999999,175,75
2026-05-11 17:50:54.003,1,-1.9,-2.24,3.15,3.685999999999999,-46.6082,57.82119999999999,175,75
2026-05-11 17:50:54.040,1,-0.76,-1.06,0.91,-39.244,-32.7682,20.5612,175,75
2026-05-11 17:50:54.065,1,-0.69,-2.14,1.56,-2.4140000000000015,12.291800000000002,2.0211999999999986,175,75
2026-05-11 17:50:54.103,1,-0.85,-2.1,1.5,-18.934000000000005,9.981800000000003,3.001199999999999,175,75
2026-05-11 17:50:54.103,1,-1.04,-1.69,1.59,-18.444000000000003,19.6118,1.7211999999999978,175,75
2026-05-11 17:50:54.136,1,-1.18,-1.6,1.92,-8.814000000000002,51.3818,-17.3088,175,75
2026-05-11 17:50:54.136,1,-1.08,-1.57,2.06,-8.934000000000003,59.12179999999999,-19.6188,175,75
2026-05-11 17:50:54.172,1,-0.69,-1.59,2.24,-18.753999999999998,247.11180000000002,21.721199999999996,175,75
2026-05-11 17:50:54.182,1,-1.66,-0.93,2.52,-29.183999999999997,247.35180000000003,49.2812,175,75
2026-05-11 17:50:54.236,1,-3.15,-1.25,1.13,-176.374,244.3718,154.6512,175,75
2026-05-11 17:50:54.236,1,-2.4,-1.87,0.13,-224.91400000000002,283.0318,175.8612,175,75
2026-05-11 17:50:54.317,1,-1.06,-2.03,1.27,-188.44400000000002,296.0118,219.7112,175,75
2026-05-11 17:50:54.317,1,-0.72,-1.46,1.88,-221.624,176.6218,227.0812,175,75
2026-05-11 17:50:54.373,1,-0.45,-0.46,1.51,-283.20399999999995,-25.568199999999997,204.7112,175,75
2026-05-11 17:50:54.373,1,-0.51,-0.24,1.19,-264.484,-27.3382,198.7312,175,75
2026-05-11 17:50:54.373,1,-0.53,-0.03,1.26,-242.714,6.201800000000002,186.1112,175,75
2026-05-11 17:50:54.384,1,-0.01,0.34,2.07,-155.154,-86.3682,140.0712,175,75
2026-05-11 17:50:54.406,1,0.03,0.54,2.03,23.445999999999998,-36.968199999999996,61.35119999999999,175,75
2026-05-11 17:50:54.417,1,0.01,0.62,1.96,71.18599999999999,18.331800000000005,25.9912,175,75
2026-05-11 17:50:54.427,1,-0.04,0.53,2.2,186.55599999999998,112.2918,-26.5088,175,75
2026-05-11 17:50:54.427,1,-0.13,0.4,2.34,231.30599999999998,110.34179999999999,-48.098800000000004,175,75
2026-05-11 17:50:54.440,1,-0.22,0.24,2.38,257.346,91.8718,-64.2588,175,75
2026-05-11 17:50:54.450,1,-0.3,0.08,2.38,278.136,55.1618,-76.3288,175,75
2026-05-11 17:50:54.461,1,-0.39,-0.12,2.26,290.086,12.171800000000001,-92.42880000000001,175,75
2026-05-11 17:50:54.472,1,-0.56,-0.21,2.09,296.30600000000004,-13.378199999999998,-108.03880000000001,175,75
2026-05-11 17:50:54.483,1,-0.7,-0.23,1.98,309.536,-18.498199999999997,-121.0288,175,75
2026-05-11 17:50:54.494,1,-0.78,-0.28,1.97,324.666,-18.7382,-131.3288,175,75
2026-05-11 17:50:54.504,1,-0.83,-0.35,1.95,338.50600000000003,-29.408199999999997,-137.9188,175,75
2026-05-11 17:50:54.512,1,-0.88,-0.48,1.89,343.076,-38.188199999999995,-144.49880000000002,175,75
2026-05-11 17:50:54.530,1,-0.97,-0.78,1.73,350.206,-50.078199999999995,-148.3988,175,75
2026-05-11 17:50:54.541,1,-1.03,-1.02,1.71,340.456,-80.3282,-152.4888,175,75
2026-05-11 17:50:54.553,1,-1.05,-1.29,1.61,312.166,-143.0082,-151.1488,175,75
2026-05-11 17:50:54.564,1,-1.31,-1.45,1.38,270.456,-189.7182,-151.8188,175,75
2026-05-11 17:50:54.575,1,-1.81,-1.23,1.13,225.33599999999998,-202.0982,-140.6588,175,75
2026-05-11 17:50:54.654,1,-2.72,-0.68,0.21,175.08599999999998,-85.9982,-88.0988,175,75
2026-05-11 17:50:54.654,1,-8.16,-0.74,-1.14,152.036,169.3118,121.41120000000001,175,75
2026-05-11 17:50:54.675,1,5.56,-5.22,0.54,64.116,-83.6782,238.3612,175,75
2026-05-11 17:50:54.699,1,2.36,-2.58,6.23,125.45599999999999,761.5618,26.111199999999997,175,75
2026-05-11 17:50:54.715,1,-1.95,-2.62,3.35,-90.46400000000001,-129.2282,42.2112,175,75
2026-05-11 17:50:54.737,1,-1.2,-0.99,1.06,-184.304,-139.5982,97.0812,175,75
2026-05-11 17:50:54.737,1,-1.32,-1.22,0.93,-135.94400000000002,-54.59819999999999,77.4512,175,75
2026-05-11 17:50:54.774,1,-1.46,-1.18,1.27,-9.054,29.2418,45.5612,175,75
2026-05-11 17:50:54.786,1,-1.7,-0.99,1.54,14.296,34.6118,3.491199999999999,175,75
2026-05-11 17:50:54.800,1,-1.37,-1.2,1.66,39.176,52.3518,-33.7688,175,75
2026-05-11 17:50:54.829,1,-1.24,-1.39,1.75,34.596,38.3318,-48.098800000000004,175,75
2026-05-11 17:50:54.841,1,-1.02,-1.54,2.32,56.616,98.7618,-54.988800000000005,175,75
2026-05-11 17:50:54.862,1,-0.62,-1.81,2.37,68.98599999999999,196.6218,-62.1788,175,75
2026-05-11 17:50:54.870,1,-0.4,-2.14,2.44,20.206,207.4218,-62.308800000000005,175,75
2026-05-11 17:50:54.883,1,-0.89,-1.13,2.12,-3.3240000000000016,239.55180000000001,14.771199999999999,175,75
2026-05-11 17:50:54.897,1,-1.44,-0.53,2.36,8.806,277.2918,36.231199999999994,175,75
2026-05-11 17:50:54.913,1,-1.46,-0.41,2.85,-1.3140000000000018,357.2918,74.71119999999999,175,75
2026-05-11 17:50:54.956,1,0.08,0.34,3.85,84.056,286.4418,45.011199999999995,175,75
2026-05-11 17:50:54.980,1,0.55,0.78,4.09,170.33599999999998,217.6018,-9.928800000000003,175,75
2026-05-11 17:50:55.019,1,0.51,0.12,3.69,297.586,41.1318,-109.25880000000001,175,75
2026-05-11 17:50:55.047,1,0.03,-1.0,2.6,356.856,39.311800000000005,-174.9888,175,75
2026-05-11 17:50:55.060,1,0.09,-1.53,2.48,349.596,-1.368199999999998,-175.2288,175,75
2026-05-11 17:50:55.063,1,-0.49,-2.18,2.05,296.73600000000005,-89.2282,-171.3888,175,75
2026-05-11 17:50:55.091,1,-1.82,-1.06,0.01,125.756,-248.3782,-34.6788,175,75
2026-05-11 17:50:55.134,1,-3.74,0.25,-0.5,79.23599999999999,-208.1882,23.4912,175,75
2026-05-11 17:50:55.187,1,-1.02,-1.4,-3.79,-134.484,-5.078199999999999,244.8312,175,75
2026-05-11 17:50:55.187,1,-0.65,-4.33,2.84,52.346000000000004,680.5318,78.9712,175,75
2026-05-11 17:50:55.212,1,-0.39,-1.84,2.88,-177.53400000000002,11.321800000000003,169.1012,175,75
2026-05-11 17:50:55.245,1,-1.07,-0.54,1.37,-217.594,-111.6082,139.5812,175,75
2026-05-11 17:50:55.284,1,-1.55,-1.18,1.85,-11.254,22.661800000000003,-31.208800000000004,175,75
2026-05-11 17:50:55.285,1,-1.58,-1.27,1.78,-0.7040000000000006,30.771800000000002,-52.72880000000001,175,75
2026-05-11 17:50:55.299,1,-1.46,-1.63,1.71,3.565999999999999,43.9418,-69.2588,175,75
2026-05-11 17:50:55.327,1,-0.8,-2.25,2.06,56.066,202.3518,-105.8388,175,75
2026-05-11 17:50:55.354,1,-0.39,-1.33,2.55,-51.924,208.27179999999998,16.6612,175,75
2026-05-11 17:50:55.366,1,-2.22,-1.12,2.25,-176.804,233.7618,133.06119999999999,175,75
2026-05-11 17:50:55.384,1,-2.65,-1.37,1.69,-229.544,187.7218,174.9512,175,75
2026-05-11 17:50:55.390,1,-2.91,-2.0,1.15,-284.12399999999997,175.4618,223.9712,175,75
2026-05-11 17:50:55.403,1,-2.89,-2.82,0.99,-324.854,193.6318,270.9912,175,75
2026-05-11 17:50:55.438,1,-0.54,-1.21,1.99,-330.274,107.7218,279.6512,175,75
2026-05-11 17:50:55.449,1,-0.62,-0.97,1.8,-298.144,96.6818,276.0512,175,75
2026-05-11 17:50:55.459,1,-0.51,-1.01,1.97,-261.13399999999996,99.0618,252.63119999999998,175,75
2026-05-11 17:50:55.470,1,-0.4,-0.89,2.23,-232.774,84.8518,230.3212,175,75
2026-05-11 17:50:55.470,1,-0.23,-0.65,2.48,-193.63400000000001,40.1618,205.6212,175,75
2026-05-11 17:50:55.484,1,-0.09,-0.35,2.63,-144.364,5.4018000000000015,178.4312,175,75
2026-05-11 17:50:55.510,1,0.34,0.68,2.82,31.305999999999997,-49.658199999999994,63.24119999999999,175,75
2026-05-11 17:50:55.524,1,0.34,0.94,2.65,108.446,-51.1182,-12.488800000000001,175,75
2026-05-11 17:50:55.534,1,0.3,0.97,2.54,160.27599999999998,-30.998199999999997,-49.9288,175,75
2026-05-11 17:50:55.545,1,0.32,0.72,2.52,238.686,2.8418000000000028,-94.7488,175,75
2026-05-11 17:50:55.545,1,0.31,0.4,2.57,287.956,7.051800000000004,-125.5988,175,75
2026-05-11 17:50:55.587,1,0.24,0.13,2.55,316.12600000000003,-5.018199999999998,-146.93880000000001,175,75
2026-05-11 17:50:55.612,1,0.03,-0.1,2.46,338.80600000000004,-25.5082,-167.6088,175,75
2026-05-11 17:50:55.630,1,-0.15,-0.23,2.36,350.336,-45.8182,-178.2788,175,75
2026-05-11 17:50:55.667,1,-0.64,-0.46,1.65,365.146,-121.6082,-244.0088,175,75
2026-05-11 17:50:55.671,1,-0.71,-0.51,1.58,370.336,-113.3782,-251.0888,175,75
2026-05-11 17:50:55.699,1,-0.99,-0.83,1.4,381.30600000000004,-111.9682,-272.4888,175,75
2026-05-11 17:50:55.713,1,-1.4,-1.23,1.28,341.18600000000004,-94.7182,-271.9988,175,75
2026-05-11 17:50:55.718,1,-1.48,-1.39,1.27,319.726,-103.9882,-262.6088,175,75
2026-05-11 17:50:55.762,1,-2.95,-1.98,0.2,172.346,-194.5982,-128.9488,175,75
2026-05-11 17:50:55.796,1,-3.75,-0.9,-0.02,127.40599999999999,-160.9382,-58.098800000000004,175,75
2026-05-11 17:50:55.841,1,2.74,-4.89,3.49,106.48599999999999,543.6318,77.0812,175,75
2026-05-11 17:50:55.908,1,-1.73,-0.11,0.05,-167.16400000000002,-233.7382,140.9312,175,75
2026-05-11 17:50:55.978,1,-1.61,-0.76,1.08,14.665999999999999,171.3818,99.71119999999999,175,75
2026-05-11 17:50:55.983,1,-1.39,-0.89,1.99,17.165999999999997,131.3218,76.8412,175,75
2026-05-11 17:50:55.998,1,-1.86,-1.02,1.37,-20.034,-5.998199999999999,26.291199999999996,175,75
2026-05-11 17:50:56.017,1,-1.75,-1.07,1.51,15.145999999999999,40.7718,-14.558800000000002,175,75
2026-05-11 17:50:56.055,1,-1.08,-2.0,1.88,57.166000000000004,62.84179999999999,-27.3688,175,75
2026-05-11 17:50:56.087,1,-1.47,-0.95,3.1,-34.974,376.2618,62.4512,175,75
2026-05-11 17:50:56.117,1,-0.79,-0.98,3.76,-51.434,314.1818,85.5612,175,75
2026-05-11 17:50:56.135,1,0.19,-0.4,4.18,-32.833999999999996,246.2018,67.7512,175,75
2026-05-11 17:50:56.232,1,0.37,0.43,3.47,245.636,87.2918,-96.56880000000001,175,75
2026-05-11 17:50:56.308,1,0.43,-0.79,3.3,299.11600000000004,-39.9582,-137.0588,175,75
2026-05-11 17:50:56.320,1,0.15,-1.13,3.03,295.336,-137.3382,-147.9788,175,75
2026-05-11 17:50:56.331,1,-0.6,-1.32,2.37,266.736,-251.0582,-159.43880000000001,175,75
2026-05-11 17:50:56.342,1,-1.03,-1.54,1.91,231.61599999999999,-307.33820000000003,-156.3888,175,75
2026-05-11 17:50:56.362,1,-14.16,-0.01,-6.8,107.64599999999999,-510.8182,178.3012,175,75
2026-05-11 17:50:56.474,1,-1.24,-2.13,2.41,20.945999999999998,74.98179999999999,-6.698800000000002,175,75
2026-05-11 17:50:56.518,1,0.12,-1.7,2.41,-0.8240000000000016,239.85180000000003,-5.108800000000001,175,75
2026-05-11 17:50:56.569,1,-0.95,-2.2,0.93,-260.76399999999995,344.0618,272.6912,175,75
2026-05-11 17:50:56.596,1,-0.43,-0.93,2.34,-215.94400000000002,201.5018,220.0712,175,75
2026-05-11 17:50:56.608,1,-0.28,-0.58,2.45,-188.144,64.3118,187.8212,175,75
2026-05-11 17:50:56.655,1,0.1,1.01,2.31,32.036,-119.4682,57.82119999999999,175,75
2026-05-11 17:50:56.665,1,0.21,0.98,2.57,148.86599999999999,-75.87819999999999,-52.3688,175,75
2026-05-11 17:50:56.678,1,0.1,0.92,2.42,203.74599999999998,-49.658199999999994,-81.50880000000001,175,75
2026-05-11 17:50:56.714,1,0.02,0.28,2.35,289.726,-22.888199999999998,-143.7688,175,75
2026-05-11 17:50:56.731,1,-0.07,0.18,2.3,300.026,-43.3782,-154.8088,175,75
2026-05-11 17:50:56.731,1,-0.16,0.07,2.2,306.976,-62.828199999999995,-164.3788,175,75
2026-05-11 17:50:56.782,1,-0.74,-0.42,1.3,331.55600000000004,-81.90820000000001,-266.4488,175,75
2026-05-11 17:50:56.800,1,-1.6,-1.25,1.68,333.62600000000003,-79.4682,-254.1388,175,75
2026-05-11 17:50:56.804,1,-1.56,-1.62,1.66,322.286,-108.9282,-255.2888,175,75
2026-05-11 17:50:56.827,1,-1.4,-2.18,1.5,289.29600000000005,-169.7182,-234.7388,175,75
2026-05-11 17:50:56.833,1,-1.87,-2.57,1.04,231.066,-248.9882,-208.8288,175,75
2026-05-11 17:50:56.853,1,-4.5,-1.15,0.18,157.46599999999998,-142.1582,-109.4988,175,75
2026-05-11 17:50:56.860,1,-7.81,-0.4,0.33,155.33599999999998,18.701800000000002,-36.5088,175,75
2026-05-11 17:50:56.882,1,-0.41,-2.96,-3.57,-290.644,-789.1082,469.4012,175,75
2026-05-11 17:50:56.882,1,0.74,-3.75,-2.04,9.235999999999999,197.4218,73.3012,175,75
2026-05-11 17:50:56.894,1,1.05,-1.0,2.64,109.53599999999999,714.3118,91.7212,175,75
2026-05-11 17:50:56.903,1,-1.63,-1.18,3.27,-20.764000000000003,297.7818,-69.4388,175,75
2026-05-11 17:50:56.911,1,0.01,-3.52,4.62,-177.104,226.5018,90.5612,175,75
2026-05-11 17:50:56.952,1,-2.11,0.57,0.31,-221.494,-268.7382,149.6512,175,75
2026-05-11 17:50:56.995,1,-1.57,-1.26,1.92,36.616,96.7418,55.99119999999999,175,75
2026-05-11 17:50:57.016,1,-1.48,-1.57,1.53,-0.6440000000000019,13.821800000000003,-34.988800000000005,175,75
2026-05-11 17:50:57.035,1,-1.25,-1.65,1.54,19.845999999999997,29.3118,-46.698800000000006,175,75
2026-05-11 17:50:57.057,1,-0.98,-2.07,2.15,31.796,79.3118,-25.348800000000004,175,75
2026-05-11 17:50:57.067,1,-0.72,-2.43,2.58,28.805999999999997,114.0618,2.0211999999999986,175,75
2026-05-11 17:50:57.089,1,-0.31,-2.42,2.8,34.236,192.6618,0.8011999999999979,175,75
2026-05-11 17:50:57.101,1,-0.23,-1.29,2.73,-32.653999999999996,268.5718,23.121199999999995,175,75
2026-05-11 17:50:57.111,1,-0.5,-0.82,2.75,-67.35400000000001,241.4418,68.6112,175,75
2026-05-11 17:50:57.133,1,-0.81,-0.75,3.2,-65.884,294.9818,106.5412,175,75
2026-05-11 17:50:57.182,1,0.76,-0.45,3.89,9.175999999999998,263.2118,46.541199999999996,175,75
2026-05-11 17:50:57.182,1,1.11,0.34,4.13,81.42599999999999,181.0118,-8.398800000000001,175,75
2026-05-11 17:50:57.203,1,1.31,0.59,3.89,148.74599999999998,66.1318,-60.1088,175,75
2026-05-11 17:50:57.216,1,0.54,0.35,3.07,202.406,23.271800000000002,-102.17880000000001,175,75
2026-05-11 17:50:57.242,1,0.44,-0.15,2.72,247.036,49.061800000000005,-134.8688,175,75
2026-05-11 17:50:57.242,1,0.31,-1.07,2.73,273.136,-123.8682,-189.1988,175,75
2026-05-11 17:50:57.254,1,-0.54,-1.59,2.04,240.206,-265.0182,-214.49880000000002,175,75
2026-05-11 17:50:57.306,1,-3.91,-0.39,0.22,34.116,-371.1182,-50.168800000000005,175,75
2026-05-11 17:50:57.313,1,-10.63,1.18,-4.11,41.856,-311.7282,205.4412,175,75
2026-05-11 17:50:57.347,1,-3.23,-3.66,3.03,152.46599999999998,712.1118,-18.338800000000003,175,75
2026-05-11 17:50:57.429,1,-0.15,-1.84,2.89,-71.494,-132.2182,66.4712,175,75
2026-05-11 17:50:57.448,1,-1.44,-1.3,0.82,7.225999999999999,104.2418,65.5612,175,75
2026-05-11 17:50:57.479,1,-1.1,-1.7,1.85,22.706,78.8218,42.151199999999996,175,75
2026-05-11 17:50:57.498,1,-1.46,-1.73,1.88,5.275999999999999,79.0618,6.9612,175,75
2026-05-11 17:50:57.533,1,-0.44,-2.38,2.43,14.475999999999999,178.7618,45.7412,175,75
2026-05-11 17:50:57.544,1,-0.13,-1.61,2.03,-44.854,200.4018,15.011199999999997,175,75
2026-05-11 17:50:57.552,1,-0.31,-1.71,2.27,-52.044,238.7018,39.831199999999995,175,75
2026-05-11 17:50:57.582,1,-2.36,-1.2,2.49,-172.354,294.4918,103.43119999999999,175,75
2026-05-11 17:50:57.592,1,-2.66,-2.62,1.64,-276.13399999999996,144.4318,251.2912,175,75
2026-05-11 17:50:57.602,1,-2.94,-2.79,0.98,-320.76399999999995,109.3118,275.7412,175,75
2026-05-11 17:50:57.657,1,-0.61,-1.56,1.85,-310.82399999999996,52.23179999999999,299.7712,175,75
2026-05-11 17:50:57.676,1,-0.72,-1.18,1.64,-301.74399999999997,38.8818,302.2112,175,75
2026-05-11 17:50:57.696,1,-0.58,-0.94,1.64,-271.01399999999995,47.421800000000005,299.9512,175,75
2026-05-11 17:50:57.729,1,-0.41,-0.83,1.83,-251.804,36.321799999999996,288.6712,175,75
2026-05-11 17:50:57.760,1,-0.12,-0.64,1.9,-216.314,-11.178199999999997,252.02120000000002,175,75
2026-05-11 17:50:57.825,1,-0.04,-0.06,1.99,-124.79400000000001,-4.2281999999999975,191.6612,175,75
2026-05-11 17:50:57.872,1,0.0,0.28,2.15,-78.87400000000001,11.201800000000002,163.9112,175,75
2026-05-11 17:50:57.926,1,0.36,1.22,2.4,41.796,33.9418,61.721199999999996,175,75
2026-05-11 17:50:57.975,1,0.36,1.05,2.18,229.05599999999998,85.2218,-98.7688,175,75
2026-05-11 17:50:58.021,1,-0.58,-0.39,1.96,383.31600000000003,-56.178200000000004,-207.3688,175,75
2026-05-11 17:50:58.048,1,-2.15,-1.42,0.06,243.86599999999999,59.5518,-114.7488,175,75
2026-05-11 17:50:58.068,1,-2.21,-0.88,0.32,202.226,41.3818,-63.708800000000004,175,75
2026-05-11 17:50:58.068,1,-7.74,0.09,0.8,164.536,136.9918,26.6012,175,75
2026-05-11 17:50:58.077,1,1.99,-1.68,-1.21,-277.104,-585.8182,582.1512,175,75
2026-05-11 17:50:58.090,1,-0.03,-5.77,2.03,33.866,208.27179999999998,10.011199999999997,175,75
2026-05-11 17:50:58.101,1,0.32,-0.88,2.76,-4.724000000000002,517.4218,58.301199999999994,175,75
2026-05-11 17:50:58.108,1,-1.73,-2.83,1.52,-105.274,-107.2782,19.651199999999996,175,75
2026-05-11 17:50:58.119,1,-0.83,-1.08,2.18,-241.554,53.151799999999994,142.0812,175,75
2026-05-11 17:50:58.133,1,-0.05,-0.41,1.03,-204.66400000000002,-58.798199999999994,155.1912,175,75
2026-05-11 17:50:58.148,1,-2.02,-0.42,0.72,-43.384,121.93180000000001,120.0112,175,75
2026-05-11 17:50:58.182,1,-1.19,-1.15,1.41,2.4659999999999993,95.7718,78.6712,175,75
2026-05-11 17:50:58.201,1,-1.35,-0.94,1.79,-5.154000000000002,49.12179999999999,61.7812,175,75
2026-05-11 17:50:58.223,1,-1.8,-0.9,1.61,6.555999999999999,28.331800000000005,29.221199999999996,175,75
2026-05-11 17:50:58.237,1,-1.69,-0.85,1.81,29.665999999999997,79.3718,4.341199999999999,175,75
2026-05-11 17:50:58.237,1,-1.53,-0.9,1.98,44.356,90.2218,-9.498800000000001,175,75
2026-05-11 17:50:58.270,1,-1.11,-1.56,1.97,33.385999999999996,59.0018,-28.7688,175,75
2026-05-11 17:50:58.270,1,-1.19,-1.62,1.98,27.345999999999997,71.2618,-26.7588,175,75
2026-05-11 17:50:58.285,1,-1.14,-1.61,2.06,31.006,88.6318,-21.0888,175,75
2026-05-11 17:50:58.386,1,-0.47,-1.32,2.06,-35.583999999999996,206.5618,23.121199999999995,175,75
2026-05-11 17:50:58.402,1,-1.2,-0.7,2.42,-8.754,280.3418,46.471199999999996,175,75
2026-05-11 17:50:58.467,1,-0.16,-1.07,1.91,279.05600000000004,11.741800000000001,-175.9588,175,75
2026-05-11 17:50:58.505,1,-6.01,-1.72,-1.54,-35.704,-360.0782,9.4612,175,75
2026-05-11 17:50:58.550,1,-1.45,-0.94,4.94,-41.924,180.4618,37.6312,175,75
2026-05-11 17:50:58.560,1,-0.42,-2.08,4.46,-54.724,-39.5382,26.7812,175,75
2026-05-11 17:50:58.571,1,-0.78,-1.88,1.74,-166.014,-261.1182,75.38119999999999,175,75
2026-05-11 17:50:58.571,1,-1.2,-1.29,0.24,-164.66400000000002,-244.9582,52.3912,175,75
2026-05-11 17:50:58.583,1,-1.84,-1.12,0.51,-0.5840000000000014,89.2418,24.1012,175,75
2026-05-11 17:50:58.612,1,-1.15,-1.33,2.34,11.245999999999999,111.93180000000001,-12.978800000000001,175,75
2026-05-11 17:50:58.612,1,-1.04,-1.67,2.21,-11.494000000000002,51.1318,-26.998800000000003,175,75
2026-05-11 17:50:58.622,1,-1.3,-1.72,1.99,-29.183999999999997,53.45179999999999,-28.458800000000004,175,75
2026-05-11 17:50:58.638,1,-1.42,-1.85,1.96,-28.933999999999997,95.8918,-11.208800000000002,175,75
2026-05-11 17:50:58.679,1,-0.16,-1.79,2.3,-63.264,304.6718,32.4512,175,75
2026-05-11 17:50:58.696,1,-0.5,-2.04,2.24,-76.494,318.3318,39.831199999999995,175,75
2026-05-11 17:50:58.749,1,-3.13,-2.11,0.92,-242.53400000000002,250.65179999999998,239.4012,175,75
2026-05-11 17:50:58.774,1,-0.81,-0.92,1.85,-279.304,92.9018,277.3312,175,75
2026-05-11 17:50:58.777,1,-0.6,-0.47,1.84,-274.664,41.9918,282.0212,175,75
2026-05-11 17:50:58.788,1,-0.79,-0.08,1.52,-241.434,4.431800000000003,268.3612,175,75
2026-05-11 17:50:58.801,1,-0.8,-0.05,1.55,-221.25400000000002,27.5418,258.1812,175,75
2026-05-11 17:50:58.845,1,-0.26,0.4,2.04,-126.01400000000001,-26.2382,191.7212,175,75
2026-05-11 17:50:58.857,1,-0.22,0.68,2.09,-78.51400000000001,-32.578199999999995,165.1312,175,75
2026-05-11 17:50:58.890,1,0.11,1.01,1.95,71.48599999999999,-23.1882,33.2412,175,75
2026-05-11 17:50:58.926,1,-0.06,0.79,2.13,185.576,33.821799999999996,-89.7488,175,75
2026-05-11 17:50:58.984,1,-0.36,-0.09,2.08,252.896,-105.3882,-175.1088,175,75
2026-05-11 17:50:58.998,1,-0.49,-0.2,1.88,261.676,-113.1882,-194.43880000000001,175,75
2026-05-11 17:50:59.021,1,-0.71,-0.38,1.71,281.67600000000004,-79.5382,-214.8688,175,75
2026-05-11 17:50:59.021,1,-0.74,-0.51,1.75,296.55600000000004,-63.12819999999999,-225.0488,175,75
2026-05-11 17:50:59.074,1,-0.98,-0.96,1.74,348.25600000000003,-19.8982,-221.5688,175,75
2026-05-11 17:50:59.086,1,-0.92,-1.23,1.84,344.416,-32.3382,-216.1488,175,75
2026-05-11 17:50:59.097,1,-1.07,-1.55,1.87,328.68600000000004,-80.1482,-220.5988,175,75
2026-05-11 17:50:59.120,1,-0.84,-1.72,1.87,307.166,-116.9682,-205.2888,175,75
2026-05-11 17:50:59.131,1,-1.62,-1.78,1.42,235.02599999999998,-317.0982,-159.49880000000002,175,75
2026-05-11 17:50:59.140,1,-1.41,-1.2,0.91,177.226,-199.5382,-206.0288,175,75
2026-05-11 17:50:59.149,1,-1.88,-0.76,0.83,160.516,-191.4282,-169.6788,175,75
2026-05-11 17:50:59.195,1,1.03,-7.0,-0.39,68.316,57.1118,35.621199999999995,175,75
2026-05-11 17:50:59.201,1,3.65,-1.23,3.51,147.58599999999998,735.2218,20.7412,175,75
2026-05-11 17:50:59.247,1,-0.68,-2.45,2.91,-160.274,-47.158199999999994,29.461199999999998,175,75
2026-05-11 17:50:59.247,1,0.16,-1.4,2.55,-234.364,-176.9682,88.18119999999999,175,75
2026-05-11 17:50:59.317,1,-1.59,-1.1,1.69,56.366,41.561800000000005,-0.47880000000000145,175,75
2026-05-11 17:50:59.330,1,-1.8,-0.9,1.76,57.466,36.26180000000001,-31.998800000000003,175,75
2026-05-11 17:50:59.345,1,-1.63,-0.85,1.79,69.596,39.181799999999996,-57.1188,175,75
2026-05-11 17:50:59.432,1,-1.58,-1.17,1.81,86.18599999999999,58.511799999999994,-107.17880000000001,175,75
2026-05-11 17:50:59.443,1,-0.89,-1.43,2.22,93.01599999999999,114.0618,-143.6488,175,75
2026-05-11 17:50:59.506,1,-1.36,-0.65,1.96,19.476,146.6218,-114.3788,175,75
2026-05-11 17:50:59.528,1,-0.99,-0.82,2.3,35.576,183.8818,-67.2388,175,75
2026-05-11 17:50:59.528,1,-1.05,-0.93,2.47,45.946,165.2818,-49.8688,175,75
2026-05-11 17:50:59.562,1,-1.89,-0.49,2.01,-27.714,265.9518,26.901199999999996,175,75
2026-05-11 17:50:59.617,1,0.71,1.56,2.82,-45.464,-169.1682,51.9612,175,75
2026-05-11 17:50:59.628,1,-0.41,1.71,1.89,6.7959999999999985,-287.3982,4.5211999999999986,175,75
2026-05-11 17:50:59.628,1,-1.29,0.74,0.15,0.5759999999999987,-239.4682,-10.478800000000001,175,75
2026-05-11 17:50:59.680,1,-0.42,-2.52,2.77,100.276,348.7018,20.1312,175,75
2026-05-11 17:50:59.680,1,-0.89,-0.93,1.8,-54.484,-135.2682,13.5512,175,75
2026-05-11 17:50:59.704,1,-0.96,-1.83,1.36,23.985999999999997,-4.168199999999999,-3.3388000000000018,175,75
2026-05-11 17:50:59.715,1,-0.77,-2.0,1.51,21.796,-15.818199999999997,-3.948800000000001,175,75
2026-05-11 17:50:59.751,1,-0.91,-1.97,1.98,8.685999999999998,68.1518,-36.7588,175,75
2026-05-11 17:50:59.770,1,-0.7,-2.45,2.2,23.805999999999997,251.9318,-73.8888,175,75
2026-05-11 17:50:59.793,1,-0.2,-1.23,2.65,-25.884,270.3418,5.1911999999999985,175,75
2026-05-11 17:50:59.840,1,-4.07,-1.05,1.3,-207.714,49.0018,152.5712,175,75
2026-05-11 17:50:59.840,1,-3.63,-2.22,-0.39,-333.144,34.37180000000001,248.5512,175,75
2026-05-11 17:50:59.875,1,-1.5,-1.73,1.79,-330.214,224.0018,291.7812,175,75
2026-05-11 17:50:59.875,1,-1.3,-1.24,1.59,-381.68399999999997,111.8118,289.1012,175,75
2026-05-11 17:50:59.887,1,-1.18,-0.84,1.32,-359.914,98.45179999999999,295.7412,175,75
2026-05-11 17:50:59.943,1,0.05,-0.05,2.57,-260.034,-43.7382,259.3412,175,75
2026-05-11 17:50:59.954,1,0.38,-0.03,2.8,-238.75400000000002,-25.7582,256.2312,175,75
2026-05-11 17:51:00.008,1,0.48,0.74,2.79,106.12599999999999,149.0018,-83.5888,175,75
2026-05-11 17:51:00.008,1,0.58,0.53,3.21,166.426,131.2618,-118.64880000000001,175,75
2026-05-11 17:51:00.043,1,0.62,0.53,3.33,214.666,-1.2981999999999978,-173.3988,175,75
2026-05-11 17:51:00.043,1,0.2,0.24,2.84,216.126,-65.9382,-215.5988,175,75
2026-05-11 17:51:00.164,1,-0.26,-0.05,1.93,246.796,-94.04820000000001,-268.6488,175,75
2026-05-11 17:51:00.224,1,-0.5,-0.22,1.72,271.42600000000004,-53.98819999999999,-279.4988,175,75
2026-05-11 17:51:00.224,1,-0.48,-0.43,1.72,294.726,-8.868199999999998,-288.0388,175,75
2026-05-11 17:51:00.224,1,-0.57,-0.51,2.07,324.11600000000004,-1.1781999999999968,-287.8488,175,75
2026-05-11 17:51:00.224,1,-0.61,-0.62,2.12,326.00600000000003,-22.8282,-282.3088,175,75
2026-05-11 17:51:00.235,1,-0.62,-0.77,2.11,325.696,-42.6482,-280.5388,175,75
2026-05-11 17:51:00.328,1,-0.82,-0.9,1.97,318.076,-80.62819999999999,-273.2188,175,75
2026-05-11 17:51:00.328,1,-0.76,-0.97,1.88,318.446,-99.4682,-273.8888,175,75
2026-05-11 17:51:00.372,1,-2.04,-1.53,1.55,188.686,-408.3182,-208.4588,175,75
2026-05-11 17:51:00.381,1,-2.8,-0.97,0.85,119.59599999999999,-403.6182,-144.1388,175,75
2026-05-11 17:51:00.473,1,-1.46,-0.77,0.98,28.506,168.6318,56.5412,175,75
2026-05-11 17:51:00.497,1,-1.78,-0.98,1.53,27.095999999999997,0.04180000000000206,-27.488800000000005,175,75
2026-05-11 17:51:00.539,1,-1.21,-0.73,1.72,78.446,108.2718,-157.7288,175,75
2026-05-11 17:51:00.630,1,-1.19,-1.15,2.18,22.036,5.4018000000000015,-48.768800000000006,175,75
2026-05-11 17:51:00.641,1,-1.49,-0.73,1.92,-15.404000000000002,20.1018,11.901199999999998,175,75
2026-05-11 17:51:00.653,1,-2.52,0.1,1.12,-43.634,31.441800000000004,45.3812,175,75
2026-05-11 17:51:00.676,1,-1.51,0.19,1.62,-53.99399999999999,101.3818,100.5012,175,75
2026-05-11 17:51:00.688,1,-0.6,-0.19,2.21,-57.654,16.621800000000004,92.2712,175,75
2026-05-11 17:51:00.699,1,-0.67,0.14,1.43,-74.974,-33.7382,71.35119999999999,175,75
2026-05-11 17:51:00.709,1,-0.76,0.51,1.27,-54.114,15.8918,71.60119999999999,175,75
2026-05-11 17:51:00.709,1,-0.49,0.55,1.42,-35.704,38.2118,66.8412,175,75
2026-05-11 17:51:00.719,1,-0.67,0.69,1.91,-4.544000000000002,71.8718,62.82119999999999,175,75
2026-05-11 17:51:00.730,1,2.12,-0.69,2.33,21.426,119.18180000000001,16.4112,175,75
2026-05-11 17:51:00.755,1,-1.12,-3.39,1.95,-60.943999999999996,-112.2782,43.911199999999994,175,75
2026-05-11 17:51:00.755,1,-1.03,-1.03,1.81,-49.184,-61.178200000000004,43.731199999999994,175,75
2026-05-11 17:51:00.765,1,-1.11,-0.67,1.77,-38.264,-77.5782,31.411199999999994,175,75
2026-05-11 17:51:00.765,1,-1.18,-1.15,1.77,-16.434000000000005,-76.3682,-21.568800000000003,175,75
2026-05-11 17:51:00.776,1,-1.13,-1.61,1.76,5.7559999999999985,-32.0982,-17.788800000000002,175,75
2026-05-11 17:51:00.804,1,-0.77,-2.11,1.37,-15.034,-56.548199999999994,-11.208800000000002,175,75
2026-05-11 17:51:00.817,1,-1.03,-1.91,1.07,-2.474000000000002,-26.8482,-3.2788000000000013,175,75
2026-05-11 17:51:00.817,1,-1.24,-1.38,1.31,26.485999999999997,19.4318,-16.7588,175,75
2026-05-11 17:51:00.827,1,-1.34,-1.47,1.61,35.946,47.48179999999999,-39.4388,175,75
2026-05-11 17:51:00.838,1,-1.18,-1.77,1.99,52.346000000000004,82.84179999999999,-52.668800000000005,175,75
2026-05-11 17:51:00.852,1,-0.49,-1.92,2.23,53.256,175.2818,-71.3288,175,75
2026-05-11 17:51:00.863,1,-0.57,-1.88,2.29,3.445999999999998,133.0918,-71.0888,175,75
2026-05-11 17:51:00.907,1,-0.73,-1.31,2.33,-38.324,224.9218,13.791199999999998,175,75
2026-05-11 17:51:00.931,1,-3.08,-1.73,0.18,-292.044,97.7818,211.78119999999998,175,75
2026-05-11 17:51:00.941,1,-3.7,-2.16,-0.7,-321.864,144.9818,234.4012,175,75
2026-05-11 17:51:00.966,1,-1.32,-1.59,1.72,-258.75399999999996,176.4418,266.7212,175,75
2026-05-11 17:51:00.978,1,-1.02,-1.2,1.77,-311.864,83.3318,255.38119999999998,175,75
2026-05-11 17:51:00.990,1,-1.03,-0.74,1.45,-332.354,32.9618,252.82119999999998,175,75
2026-05-11 17:51:01.008,1,-0.96,-0.39,1.24,-306.37399999999997,54.061800000000005,244.5212,175,75
2026-05-11 17:51:01.015,1,-0.78,-0.24,1.34,-289.24399999999997,87.48179999999999,232.0212,175,75
2026-05-11 17:51:01.051,1,-0.64,-0.24,1.55,-283.024,89.0018,215.3812,175,75
2026-05-11 17:51:01.051,1,-0.22,0.19,2.09,-228.264,-2.3381999999999987,188.6112,175,75
2026-05-11 17:51:01.062,1,-0.09,0.38,2.4,-188.874,-15.448199999999998,185.8012,175,75
2026-05-11 17:51:01.075,1,0.1,0.65,2.69,-155.334,-35.2082,164.5812,175,75
2026-05-11 17:51:01.087,1,0.28,1.06,2.92,-100.944,-77.3982,113.0612,175,75
2026-05-11 17:51:01.140,1,0.27,1.02,2.49,80.886,12.6018,-48.528800000000004,175,75
2026-05-11 17:51:01.140,1,0.21,0.91,2.51,127.64599999999999,33.51180000000001,-84.00880000000001,175,75
2026-05-11 17:51:01.149,1,0.11,0.75,2.43,161.24599999999998,42.0518,-112.17880000000001,175,75
2026-05-11 17:51:01.177,1,0.01,0.27,2.27,218.74599999999998,27.721800000000005,-169.8688,175,75
2026-05-11 17:51:01.178,1,-0.09,0.08,2.12,233.986,7.291800000000002,-195.2888,175,75
2026-05-11 17:51:01.207,1,-0.32,-0.26,1.88,254.906,-9.778199999999998,-226.2688,175,75
2026-05-11 17:51:01.225,1,-0.38,-0.46,1.82,262.466,-16.908199999999997,-242.9788,175,75
2026-05-11 17:51:01.268,1,-0.83,-0.53,1.95,279.786,-47.9482,-235.5988,175,75
2026-05-11 17:51:01.279,1,-0.75,-0.72,2.01,284.786,-83.9882,-227.0588,175,75
2026-05-11 17:51:01.303,1,-0.66,-1.37,2.02,272.836,-197.3982,-240.9588,175,75
2026-05-11 17:51:01.326,1,-0.97,-1.57,1.93,244.296,-236.2382,-238.8888,175,75
2026-05-11 17:51:01.338,1,-1.15,-1.61,1.98,221.486,-254.5982,-232.1788,175,75
2026-05-11 17:51:01.357,1,-6.24,-0.71,1.16,118.386,-525.8181999999999,-171.1488,175,75
2026-05-11 17:51:01.379,1,-3.44,-5.66,-4.49,-98.81400000000001,-802.5182,609.6512,175,75
2026-05-11 17:51:01.390,1,1.06,-5.85,1.53,259.906,311.6218,40.011199999999995,175,75
2026-05-11 17:51:01.417,1,-1.65,0.36,3.75,13.625999999999998,282.6018,-44.4388,175,75
2026-05-11 17:51:01.434,1,-0.85,-2.48,0.41,-202.964,-343.9882,6.171199999999997,175,75
2026-05-11 17:51:01.494,1,-1.05,-0.58,1.74,41.556,194.2418,54.221199999999996,175,75
2026-05-11 17:51:01.507,1,-1.09,-0.89,1.1,3.2559999999999985,-96.6082,15.681199999999999,175,75
2026-05-11 17:51:01.521,1,-1.56,-0.85,1.39,106.42599999999999,34.791799999999995,-37.1788,175,75
2026-05-11 17:51:01.532,1,-1.45,-0.77,1.76,103.92599999999999,15.341800000000003,-76.6388,175,75
2026-05-11 17:51:01.539,1,-1.45,-0.72,1.63,99.416,18.761800000000004,-96.0888,175,75
2026-05-11 17:51:01.572,1,-1.02,-1.22,2.02,92.95599999999999,35.951800000000006,-164.5588,175,75
2026-05-11 17:51:01.583,1,-1.07,-1.13,1.88,80.39599999999999,49.2418,-176.0888,175,75
2026-05-11 17:51:01.618,1,-0.9,-0.88,1.82,50.206,46.071799999999996,-102.36880000000001,175,75
2026-05-11 17:51:01.618,1,-0.82,-1.2,2.15,55.696,58.761799999999994,-117.9788,175,75
2026-05-11 17:51:01.648,1,-1.05,-1.4,2.36,32.036,40.65180000000001,-78.8288,175,75
2026-05-11 17:51:01.648,1,-2.06,-0.49,1.51,-14.604000000000001,54.6118,20.931199999999997,175,75
2026-05-11 17:51:01.660,1,-2.34,0.09,0.67,-35.214,70.1618,71.8412,175,75
2026-05-11 17:51:01.671,1,-2.2,0.12,0.46,-71.864,123.5718,94.71119999999999,175,75
2026-05-11 17:51:01.685,1,-0.94,-0.43,1.61,-65.40400000000001,235.5318,110.07119999999999,175,75
2026-05-11 17:51:01.697,1,-0.33,-0.4,2.34,-54.854000000000006,209.0618,108.7312,175,75
2026-05-11 17:51:01.713,1,0.11,-0.19,2.7,-80.82400000000001,46.071799999999996,100.6212,175,75
2026-05-11 17:51:01.724,1,0.03,0.1,2.28,-92.224,-64.6582,87.5112,175,75
2026-05-11 17:51:01.761,1,-0.92,0.64,1.75,-64.114,-92.6482,79.9512,175,75
2026-05-11 17:51:01.761,1,-0.01,0.95,1.97,-10.644,46.5018,62.82119999999999,175,75
2026-05-11 17:51:01.771,1,1.33,0.31,2.32,-0.5840000000000014,16.5618,18.2412,175,75
2026-05-11 17:51:01.791,1,-0.45,-0.02,2.54,23.506,-25.6882,24.401199999999996,175,75
2026-05-11 17:51:01.805,1,-3.36,-0.14,2.52,33.565999999999995,-42.3382,6.231199999999999,175,75
2026-05-11 17:51:01.805,1,-0.37,-1.7,2.55,20.576,-30.568199999999997,55.38119999999999,175,75
2026-05-11 17:51:01.816,1,-1.41,-2.8,2.31,34.966,-31.6682,27.761199999999995,175,75
2026-05-11 17:51:01.856,1,-0.87,-0.93,1.09,-35.583999999999996,-75.9982,-2.2388000000000012,175,75
2026-05-11 17:51:01.865,1,-0.91,-1.33,1.45,36.976,13.0318,-23.948800000000002,175,75
2026-05-11 17:51:01.877,1,-0.55,-2.33,1.55,6.425999999999998,-33.9282,-15.288800000000002,175,75
2026-05-11 17:51:01.913,1,-1.03,-2.19,1.66,7.705999999999999,-18.1282,-3.5888000000000018,175,75
2026-05-11 17:51:01.913,1,-1.04,-1.54,1.87,8.195999999999998,21.261800000000004,-5.898800000000001,175,75
2026-05-11 17:51:01.923,1,-1.03,-1.69,2.02,-8.264000000000001,36.26180000000001,-20.108800000000002,175,75
2026-05-11 17:51:01.927,1,-1.07,-1.78,2.21,-15.704000000000002,53.45179999999999,-23.888800000000003,175,75
2026-05-11 17:51:01.936,1,-0.93,-1.76,2.33,-31.744,63.45179999999999,-18.768800000000002,175,75
2026-05-11 17:51:01.948,1,-0.75,-2.0,2.39,-37.774,70.2218,-19.8088,175,75
2026-05-11 17:51:01.976,1,-0.58,-2.14,2.22,-44.184,304.2418,23.361199999999997,175,75
2026-05-11 17:51:01.993,1,-3.43,-1.44,0.75,-261.804,162.8418,196.6012,175,75
2026-05-11 17:51:02.002,1,-2.81,-2.35,-0.41,-331.68399999999997,142.2918,183.6112,175,75
2026-05-11 17:51:02.057,1,-1.24,-1.45,1.5,-244.244,178.7018,207.2712,175,75
2026-05-11 17:51:02.072,1,-0.93,-0.28,1.51,-309.364,-34.468199999999996,201.0512,175,75
2026-05-11 17:51:02.083,1,-0.95,0.02,1.19,-304.604,-49.8382,200.4412,175,75
2026-05-11 17:51:02.117,1,-0.66,0.22,1.37,-272.104,111.20179999999999,184.2212,175,75
2026-05-11 17:51:02.117,1,-0.3,0.35,1.86,-257.964,87.2918,171.1712,175,75
2026-05-11 17:51:02.129,1,-0.17,0.59,2.03,-244.054,42.6618,163.1212,175,75
2026-05-11 17:51:02.139,1,-0.14,0.64,2.15,-223.574,1.6218000000000004,158.6112,175,75
2026-05-11 17:51:02.207,1,0.49,1.23,2.69,-105.76400000000001,-112.8282,88.3612,175,75
2026-05-11 17:51:02.207,1,0.43,1.19,2.42,-59.24399999999999,-98.1282,42.27119999999999,175,75
2026-05-11 17:51:02.217,1,0.09,0.96,2.27,41.426,31.3218,-25.8388,175,75
2026-05-11 17:51:02.228,1,0.08,0.96,2.44,80.946,47.171800000000005,-48.708800000000004,175,75
2026-05-11 17:51:02.270,1,-0.05,0.65,2.38,136.556,-13.068199999999997,-103.7088,175,75
2026-05-11 17:51:02.270,1,-0.21,0.49,2.12,153.316,-40.5682,-132.0588,175,75
2026-05-11 17:51:02.296,1,-0.37,0.23,1.92,184.416,-53.798199999999994,-173.21880000000002,175,75
2026-05-11 17:51:02.319,1,-0.51,-0.21,1.79,221.36599999999999,-53.068200000000004,-209.49880000000002,175,75
2026-05-11 17:51:02.331,1,-0.57,-0.37,1.78,235.02599999999998,-46.6682,-226.2688,175,75
2026-05-11 17:51:02.361,1,-0.66,-0.67,1.81,251.066,-56.6082,-256.3288,175,75
2026-05-11 17:51:02.361,1,-0.63,-0.83,1.84,254.356,-61.3682,-265.8988,175,75
2026-05-11 17:51:02.383,1,-0.65,-0.89,1.9,255.636,-70.2082,-268.0988,175,75
2026-05-11 17:51:02.390,1,-0.94,-0.89,2.05,268.076,-92.2782,-260.2288,175,75
2026-05-11 17:51:02.401,1,-0.9,-1.04,2.29,280.396,-133.8682,-240.4788,175,75
2026-05-11 17:51:02.413,1,-0.82,-1.32,2.46,280.576,-201.0582,-237.3688,175,75
2026-05-11 17:51:02.413,1,-0.75,-1.6,2.44,270.946,-259.1682,-242.4888,175,75
2026-05-11 17:51:02.458,1,-0.88,-1.78,2.21,253.076,-298.7982,-256.3888,175,75
2026-05-11 17:51:02.458,1,-1.2,-1.85,1.93,239.416,-280.9982,-265.7188,175,75
2026-05-11 17:51:02.468,1,-3.5,-1.5,1.35,201.36599999999999,-364.7782,-180.4188,175,75
2026-05-11 17:51:02.491,1,7.16,-2.62,4.34,248.076,-95.9982,606.3512000000001,175,75
2026-05-11 17:51:02.504,1,-1.64,-0.99,4.14,2.525999999999998,418.9418,-6.388800000000002,175,75
2026-05-11 17:51:02.517,1,2.29,-3.49,4.83,58.016,18.8218,9.771199999999999,175,75
2026-05-11 17:51:02.537,1,-0.71,-1.92,2.19,-94.304,-428.6782,-3.8888000000000016,175,75
2026-05-11 17:51:02.542,1,-1.45,-1.23,0.3,-142.47400000000002,-371.4282,19.461199999999998,175,75
2026-05-11 17:51:02.593,1,-1.53,-1.74,0.25,60.146,51.20179999999999,-4.738800000000001,175,75
2026-05-11 17:51:02.603,1,-1.41,-1.62,1.5,98.806,165.77179999999998,-11.448800000000002,175,75
2026-05-11 17:51:02.622,1,-0.62,-1.55,2.0,90.20599999999999,93.1518,-26.0888,175,75
2026-05-11 17:51:02.646,1,-1.86,-1.02,1.15,90.276,3.0318000000000005,-82.9188,175,75
2026-05-11 17:51:02.646,1,-1.77,-0.9,1.52,113.98599999999999,57.84179999999999,-103.2788,175,75
2026-05-11 17:51:02.668,1,-1.2,-1.18,2.2,81.48599999999999,42.3518,-139.2588,175,75
2026-05-11 17:51:02.679,1,-1.02,-1.23,2.07,64.596,23.511800000000004,-174.49880000000002,175,75
2026-05-11 17:51:02.690,1,-0.98,-0.96,1.57,72.286,54.791799999999995,-200.5388,175,75
2026-05-11 17:51:02.702,1,-0.82,-0.7,1.68,69.726,81.5018,-146.8188,175,75
2026-05-11 17:51:02.721,1,-0.64,-0.9,1.92,80.026,70.8318,-85.4188,175,75
2026-05-11 17:51:02.751,1,-1.28,-0.56,1.64,25.336,91.20179999999999,-41.8188,175,75
2026-05-11 17:51:02.761,1,-2.02,-0.4,0.99,-94.054,124.61179999999999,46.661199999999994,175,75
2026-05-11 17:51:02.771,1,-1.85,-0.5,0.98,-126.744,131.3818,71.9012,175,75
2026-05-11 17:51:02.771,1,-1.68,-0.54,1.14,-140.274,141.8718,99.7712,175,75
2026-05-11 17:51:02.810,1,-0.14,-0.45,1.93,-127.774,60.7118,88.7912,175,75
2026-05-11 17:51:02.821,1,-0.26,-0.06,1.75,-116.98400000000001,21.5618,83.0612,175,75
2026-05-11 17:51:02.834,1,-0.38,0.16,1.66,-107.96400000000001,13.091800000000003,72.4512,175,75
2026-05-11 17:51:02.841,1,-0.28,0.47,1.78,-89.48400000000001,33.821799999999996,54.221199999999996,175,75
2026-05-11 17:51:02.918,1,-0.66,-0.66,1.71,-45.704,-75.5082,43.121199999999995,175,75
2026-05-11 17:51:02.962,1,-0.37,-1.68,0.99,8.015999999999998,-15.568199999999997,-17.9188,175,75
2026-05-11 17:51:02.994,1,-1.16,-1.45,1.53,25.025999999999996,25.0418,-39.808800000000005,175,75
2026-05-11 17:51:03.024,1,-1.12,-1.34,1.7,26.735999999999997,64.1218,-71.7588,175,75
2026-05-11 17:51:03.043,1,-0.99,-1.31,1.82,24.476,66.8118,-84.8088,175,75
2026-05-11 17:51:03.043,1,-1.19,-1.41,1.89,44.786,149.3118,-100.28880000000001,175,75
2026-05-11 17:51:03.065,1,-0.32,-1.38,1.67,63.686,146.2618,-87.7288,175,75
2026-05-11 17:51:03.111,1,-0.66,-0.68,1.38,0.815999999999999,163.27179999999998,-51.6388,175,75
2026-05-11 17:51:03.111,1,-0.79,-0.48,1.91,-14.794000000000002,219.7918,-24.7388,175,75
2026-05-11 17:51:03.122,1,-0.95,-0.52,2.24,-41.194,206.9918,-6.448800000000001,175,75
2026-05-11 17:51:03.140,1,-2.42,-0.6,1.78,-108.87400000000001,142.2318,39.2812,175,75
2026-05-11 17:51:03.140,1,-2.98,-0.96,0.9,-210.94400000000002,160.4618,125.0712,175,75
2026-05-11 17:51:03.152,1,-3.06,-1.39,0.4,-273.99399999999997,170.5318,178.7912,175,75
2026-05-11 17:51:03.164,1,-3.05,-1.76,-0.06,-306.984,207.6018,218.5512,175,75
2026-05-11 17:51:03.165,1,-2.9,-2.0,-0.16,-291.68399999999997,259.4918,240.9312,175,75
2026-05-11 17:51:03.177,1,-1.78,-2.36,0.45,-266.49399999999997,300.9518,242.8212,175,75
2026-05-11 17:51:03.189,1,-1.01,-1.71,1.48,-334.18399999999997,164.7318,235.7412,175,75
2026-05-11 17:51:03.215,1,-0.89,-0.92,1.45,-339.18399999999997,103.5118,210.0712,175,75
2026-05-11 17:51:03.235,1,-0.93,-0.74,1.55,-319.364,111.5618,198.7912,175,75
2026-05-11 17:51:03.250,1,-0.81,-0.39,1.86,-272.774,117.7218,158.1812,175,75
2026-05-11 17:51:03.277,1,-0.86,-0.14,2.23,-210.88400000000001,118.45179999999999,115.99119999999999,175,75
2026-05-11 17:51:03.288,1,-0.75,0.05,2.53,-181.864,105.4018,104.4012,175,75
2026-05-11 17:51:03.317,1,-0.72,0.45,2.57,-28.444000000000003,-22.338199999999997,23.301199999999994,175,75
2026-05-11 17:51:03.329,1,-0.75,0.39,2.51,24.665999999999997,-31.368199999999998,6.661199999999999,175,75
2026-05-11 17:51:03.329,1,-0.69,0.34,2.48,73.386,-37.4582,-16.208800000000004,175,75
2026-05-11 17:51:03.348,1,-0.64,0.28,2.38,121.67599999999999,-43.188199999999995,-44.0088,175,75
2026-05-11 17:51:03.360,1,-0.66,0.14,2.22,159.476,-37.7082,-68.5888,175,75
2026-05-11 17:51:03.393,1,-0.74,-0.03,2.12,219.786,-17.338199999999997,-94.9888,175,75
2026-05-11 17:51:03.393,1,-0.79,-0.19,2.15,253.566,-17.338199999999997,-107.36880000000001,175,75
2026-05-11 17:51:03.417,1,-0.84,-0.45,2.14,283.25600000000003,-39.048199999999994,-120.0488,175,75
2026-05-11 17:51:03.428,1,-0.93,-0.49,2.05,290.696,-52.458200000000005,-129.2588,175,75
2026-05-11 17:51:03.440,1,-0.84,-0.57,1.9,296.42600000000004,-64.2882,-134.9888,175,75
2026-05-11 17:51:03.464,1,-0.82,-0.6,1.61,296.55600000000004,-82.3982,-127.9188,175,75
2026-05-11 17:51:03.464,1,-0.8,-0.67,1.47,283.136,-103.79820000000001,-119.4388,175,75
2026-05-11 17:51:03.496,1,-0.89,-0.75,1.41,259.596,-129.4082,-106.4488,175,75
2026-05-11 17:51:03.496,1,-0.95,-0.79,1.34,231.186,-159.8382,-97.5488,175,75
2026-05-11 17:51:03.497,1,-1.02,-0.71,1.26,210.396,-194.5982,-95.4788,175,75
2026-05-11 17:51:03.538,1,-1.44,-0.53,0.82,160.756,-248.6182,-109.31880000000001,175,75
2026-05-11 17:51:03.550,1,-1.76,-0.46,0.72,153.926,-172.1582,-96.4488,175,75
2026-05-11 17:51:03.575,1,-1.86,-0.42,0.72,100.14599999999999,-183.3782,-41.8188,175,75
2026-05-11 17:51:03.591,1,-6.3,-0.01,-0.19,59.726,-177.0982,38.8512,175,75
2026-05-11 17:51:03.624,1,-4.64,-0.67,-3.21,-15.214,-248.9882,191.7212,175,75
2026-05-11 17:51:03.624,1,3.83,-3.63,-0.83,46.126,-62.76819999999999,119.1012,175,75
2026-05-11 17:51:03.624,1,1.89,-1.69,3.87,55.336,789.1218,111.2312,175,75
2026-05-11 17:51:03.657,1,0.12,-1.37,2.24,-216.554,-280.6882,90.32119999999999,175,75
2026-05-11 17:51:03.728,1,-1.81,-1.32,0.68,5.145999999999999,54.37179999999999,4.461199999999998,175,75
2026-05-11 17:51:03.738,1,-1.79,-1.68,1.09,18.316,101.3818,-36.6388,175,75
2026-05-11 17:51:03.738,1,-1.98,-1.61,1.56,19.595999999999997,94.5518,-79.00880000000001,175,75
2026-05-11 17:51:03.749,1,-1.82,-1.58,1.93,15.945999999999998,124.7918,-107.4888,175,75
2026-05-11 17:51:03.789,1,-1.19,-2.53,3.38,61.246,356.4418,-166.2088,175,75
2026-05-11 17:51:03.828,1,-2.58,-1.21,3.63,-84.914,390.0418,-18.338800000000003,175,75
2026-05-11 17:51:03.897,1,-2.25,-0.48,4.32,17.035999999999998,698.3318,126.5412,175,75
2026-05-11 17:51:03.897,1,-1.86,-0.14,4.97,-22.774,436.0718,189.6512,175,75
2026-05-11 17:51:03.897,1,-1.76,0.21,5.39,21.616,286.3218,228.4912,175,75
2026-05-11 17:51:03.899,1,-1.25,-0.2,4.84,154.236,19.731800000000003,205.7412,175,75
2026-05-11 17:51:03.918,1,-1.65,-0.61,3.33,201.55599999999998,-148.6782,199.7712,175,75
2026-05-11 17:51:03.933,1,-1.53,-0.42,2.62,208.986,-148.3182,215.8012,175,75
2026-05-11 17:51:03.960,1,-0.27,-0.91,1.98,216.61599999999999,-229.7182,162.5112,175,75
2026-05-11 17:51:03.970,1,-0.63,-0.92,0.87,182.58599999999998,-291.9682,133.06119999999999,175,75
2026-05-11 17:51:03.984,1,-1.0,-0.63,-0.13,164.666,-223.9282,114.5212,175,75
2026-05-11 17:51:03.996,1,-1.37,-0.08,-0.91,167.83599999999998,-62.578199999999995,116.7812,175,75
2026-05-11 17:51:04.029,1,0.93,-0.87,-0.75,160.33599999999998,529.9818,75.4412,175,75
2026-05-11 17:51:04.029,1,3.56,-1.32,-0.1,145.02599999999998,532.5418,29.891199999999998,175,75
2026-05-11 17:51:04.038,1,4.0,-2.63,-0.48,78.196,383.2118,-87.0588,175,75
2026-05-11 17:51:04.054,1,4.03,-4.12,0.34,81.856,189.3118,-71.0288,175,75
2026-05-11 17:51:04.068,1,0.5,-1.72,-0.67,-212.104,-241.9682,-72.0588,175,75
2026-05-11 17:51:04.088,1,-0.33,-1.7,-0.07,-136.19400000000002,-119.04820000000001,-57.058800000000005,175,75
2026-05-11 17:51:04.099,1,-1.48,-2.88,1.78,15.575999999999999,48.6318,-55.958800000000004,175,75
2026-05-11 17:51:04.109,1,-1.66,-2.82,3.29,34.056,110.89179999999999,-1.0288000000000022,175,75
2026-05-11 17:51:04.120,1,-0.66,-2.56,1.96,-44.724,34.671800000000005,-9.138800000000002,175,75
2026-05-11 17:51:04.120,1,-0.74,-1.86,0.88,-90.644,25.2818,-35.348800000000004,175,75
2026-05-11 17:51:04.133,1,-0.99,-2.22,1.27,-59.974,137.3518,-56.3288,175,75
2026-05-11 17:51:04.157,1,-0.02,-3.42,3.68,58.136,437.0518,-54.988800000000005,175,75
2026-05-11 17:51:04.170,1,-0.91,-3.24,3.82,-47.653999999999996,199.2418,11.291199999999998,175,75
2026-05-11 17:51:04.170,1,-1.14,-2.07,3.05,-59.544000000000004,196.5018,-5.718800000000002,175,75
2026-05-11 17:51:04.192,1,-1.48,-0.13,2.16,-34.724,127.23179999999999,-31.028800000000004,175,75
2026-05-11 17:51:04.202,1,-2.19,1.79,1.19,-5.644,89.5518,-68.6488,175,75
2026-05-11 17:51:04.228,1,-1.92,3.93,0.97,85.886,425.7718,-119.31880000000001,175,75
2026-05-11 17:51:04.262,1,-1.76,1.35,2.42,286.18600000000004,873.2718,-132.6088,175,75
2026-05-11 17:51:04.262,1,-1.25,0.62,3.63,307.286,908.0318,-150.7788,175,75
2026-05-11 17:51:04.279,1,-0.27,1.1,3.86,448.92600000000004,513.7018,-87.36880000000001,175,75
2026-05-11 17:51:04.293,1,0.17,0.16,2.82,462.836,282.3518,-135.59879999999998,175,75
2026-05-11 17:51:04.308,1,0.15,-0.32,1.51,440.456,209.9218,-170.1088,175,75
2026-05-11 17:51:04.384,1,-2.72,-2.55,-2.34,-300.034,-244.9582,-210.0488,175,75
2026-05-11 17:51:04.395,1,0.25,-1.4,2.17,-111.614,108.8818,-175.9588,175,75
2026-05-11 17:51:04.431,1,0.31,-1.3,0.9,-28.814,-363.5582,-227.9188,175,75
2026-05-11 17:51:04.448,1,-4.1,-1.6,-0.76,116.006,615.1018,-106.8788,175,75
2026-05-11 17:51:04.458,1,-2.33,-1.12,2.47,170.946,815.6518,-51.9988,175,75
2026-05-11 17:51:04.470,1,-1.13,-1.47,4.67,95.51599999999999,613.3318,3.3611999999999984,175,75
2026-05-11 17:51:04.481,1,-3.5,-2.31,2.43,-221.074,38.76180000000001,-26.3288,175,75
2026-05-11 17:51:04.495,1,-3.54,-1.48,0.36,-275.82399999999996,63.9418,76.1712,175,75
2026-05-11 17:51:04.509,1,-2.63,-1.23,0.6,-178.264,135.8318,159.0412,175,75
2026-05-11 17:51:04.509,1,-1.32,-1.78,2.07,-133.934,-19.7182,169.1612,175,75
2026-05-11 17:51:04.520,1,-1.57,-1.97,2.66,-227.104,-156.5482,184.4012,175,75
2026-05-11 17:51:04.522,1,-1.88,-1.71,2.28,-307.964,-230.9382,209.8312,175,75
2026-05-11 17:51:04.531,1,-2.02,-1.39,1.77,-302.354,-188.7982,240.3812,175,75
2026-05-11 17:51:04.552,1,-1.96,-1.37,1.69,-254.72400000000002,-115.3282,260.9912,175,75
2026-05-11 17:51:04.601,1,-1.52,-1.03,1.92,-188.144,10.651800000000001,295.6212,175,75
2026-05-11 17:51:04.611,1,-1.27,-0.92,1.94,-163.324,39.4918,297.8812,175,75
2026-05-11 17:51:04.626,1,-1.18,-0.83,1.89,-147.354,69.1218,293.2412,175,75
2026-05-11 17:51:04.685,1,-0.3,-0.55,1.91,-124.72400000000002,164.3718,284.4612,175,75
2026-05-11 17:51:04.685,1,-0.1,-0.34,2.18,-111.554,148.7618,263.1812,175,75
2026-05-11 17:51:04.695,1,0.42,-0.1,2.56,-97.224,110.83179999999999,231.5412,175,75
2026-05-11 17:51:04.762,1,-0.26,0.19,2.38,-40.764,-139.10819999999998,148.9712,175,75
2026-05-11 17:51:04.798,1,-0.06,-0.69,0.58,65.946,21.131800000000002,132.7612,175,75
2026-05-11 17:51:04.807,1,1.2,-2.82,0.77,50.396,453.5718,-29.6188,175,75
2026-05-11 17:51:04.829,1,1.92,-3.69,5.29,216.916,832.3518,-48.458800000000004,175,75
2026-05-11 17:51:04.867,1,4.88,-4.53,8.74,245.876,638.7618,143.3612,175,75
2026-05-11 17:51:04.867,1,-1.2,-1.29,-0.71,-108.20400000000001,28.2118,-48.458800000000004,175,75
2026-05-11 17:51:04.910,1,-1.67,-1.31,1.65,6.425999999999998,101.0718,-159.43880000000001,175,75
2026-05-11 17:51:04.952,1,-1.76,-1.31,1.7,128.986,172.9018,-346.6988,175,75
2026-05-11 17:51:04.964,1,-3.45,-0.96,2.33,67.036,295.6518,-176.2088,175,75
2026-05-11 17:51:04.998,1,-3.86,-0.57,1.9,64.536,342.1718,-43.6488,175,75
2026-05-11 17:51:05.019,1,-4.26,-0.51,0.89,18.746,403.0318,76.2912,175,75
2026-05-11 17:51:05.060,1,-3.87,-1.47,1.15,-37.354,355.16179999999997,170.50119999999998,175,75
2026-05-11 17:51:05.084,1,-2.54,-1.37,2.38,-96.68400000000001,153.7018,255.50119999999998,175,75
2026-05-11 17:51:05.111,1,-1.96,-1.15,2.29,-114.664,95.1018,271.6012,175,75
2026-05-11 17:51:05.172,1,-0.12,-0.71,1.84,-60.333999999999996,-42.578199999999995,292.8812,175,75
2026-05-11 17:51:05.182,1,0.52,-0.7,1.69,-43.204,-65.2082,262.3312,175,75
2026-05-11 17:51:05.210,1,1.17,-0.29,1.76,23.566,-55.87819999999999,194.1612,175,75
2026-05-11 17:51:05.210,1,0.92,0.03,1.8,61.306,-64.2282,142.8812,175,75
2026-05-11 17:51:05.226,1,-0.54,0.34,1.65,94.17599999999999,-68.37819999999999,123.8512,175,75
2026-05-11 17:51:05.261,1,-0.28,-3.07,0.79,71.48599999999999,-1.238199999999999,-61.448800000000006,175,75
2026-05-11 17:51:05.272,1,-0.5,-1.96,1.7,18.506,48.761799999999994,-42.308800000000005,175,75
2026-05-11 17:51:05.286,1,-1.05,-1.39,1.33,-3.7540000000000013,17.4218,-70.0488,175,75
2026-05-11 17:51:05.348,1,-0.92,-2.23,1.76,38.256,93.0318,-99.1388,175,75
2026-05-11 17:51:05.377,1,-0.88,-0.29,1.47,90.20599999999999,157.1718,-77.7288,175,75
2026-05-11 17:51:05.426,1,-1.56,0.69,1.34,100.576,119.37180000000001,-118.8288,175,75
2026-05-11 17:51:05.439,1,-0.64,0.83,1.24,206.24599999999998,403.8818,-215.8388,175,75
2026-05-11 17:51:05.449,1,-0.72,-0.54,1.96,330.636,250.8318,-225.7788,175,75
2026-05-11 17:51:05.470,1,-1.03,-2.0,0.79,245.816,41.01180000000001,-282.1188,175,75
2026-05-11 17:51:05.491,1,-2.24,-1.16,-0.22,114.84599999999999,54.5518,-167.0588,175,75
2026-05-11 17:51:05.520,1,-2.68,-1.13,-0.49,-71.43400000000001,37.23180000000001,-17.0588,175,75
2026-05-11 17:51:05.521,1,-0.32,-1.37,0.32,-80.09400000000001,239.79180000000002,0.32119999999999926,175,75
2026-05-11 17:51:05.554,1,-3.14,-2.25,-1.12,-211.19400000000002,4.671800000000001,106.5412,175,75
2026-05-11 17:51:05.566,1,-1.65,-2.1,1.2,-177.594,221.9918,102.5112,175,75
2026-05-11 17:51:05.594,1,-1.44,-1.14,2.3,-308.63399999999996,-423.7982,164.0412,175,75
2026-05-11 17:51:05.604,1,-1.75,-0.67,1.25,-268.63399999999996,-350.6882,193.5512,175,75
2026-05-11 17:51:05.631,1,-1.46,-0.89,1.07,-166.924,-18.4382,232.8812,175,75
2026-05-11 17:51:05.654,1,-1.19,-0.48,1.4,-178.264,52.541799999999995,236.2312,175,75
2026-05-11 17:51:05.668,1,-1.0,-0.06,1.56,-166.624,87.7218,233.7912,175,75
2026-05-11 17:51:05.678,1,-0.95,-0.03,1.74,-147.104,103.0318,232.1512,175,75
2026-05-11 17:51:05.705,1,-0.83,-0.35,1.89,-152.774,77.1718,228.9712,175,75
2026-05-11 17:51:05.739,1,-0.85,-0.46,1.89,-148.324,38.701800000000006,228.1812,175,75
2026-05-11 17:51:05.739,1,-0.47,-0.52,1.99,-135.274,49.311800000000005,213.6712,175,75
2026-05-11 17:51:05.765,1,-0.77,-0.47,2.11,-125.334,3.9418000000000006,210.8612,175,75
2026-05-11 17:51:05.766,1,-0.39,-0.51,1.91,-137.714,-25.3282,198.9712,175,75
2026-05-11 17:51:05.829,1,-0.51,-0.09,2.45,-88.81400000000001,-61.48819999999999,178.6112,175,75
2026-05-11 17:51:05.829,1,-1.25,0.12,2.26,-70.034,-121.1182,182.5712,175,75
2026-05-11 17:51:05.872,1,1.11,-0.5,2.25,2.525999999999998,7.481800000000003,141.7212,175,75
2026-05-11 17:51:05.917,1,1.11,-2.19,4.57,150.27599999999998,806.8118,-46.5088,175,75
2026-05-11 17:51:05.945,1,3.16,-4.01,7.91,215.396,655.6518,4.7711999999999986,175,75
2026-05-11 17:51:06.013,1,0.56,-2.06,-1.05,-32.044,-23.1282,-21.208800000000004,175,75
2026-05-11 17:51:06.024,1,-1.46,-0.98,1.34,10.815999999999999,32.171800000000005,-70.6588,175,75
2026-05-11 17:51:06.051,1,-2.26,-1.21,1.44,63.446,70.2818,-180.3488,175,75
2026-05-11 17:51:06.051,1,-2.23,-1.04,1.71,106.856,148.7018,-209.3188,175,75
2026-05-11 17:51:06.107,1,-3.26,-0.92,2.28,-50.884,93.09179999999999,183.2412,175,75
2026-05-11 17:51:06.134,1,-2.18,-1.45,0.97,-134.91400000000002,72.1118,279.1012,175,75
2026-05-11 17:51:06.145,1,-0.85,-1.25,1.71,-143.994,104.4918,306.3512,175,75
2026-05-11 17:51:06.158,1,0.11,-0.71,1.93,-130.764,19.371800000000004,301.6012,175,75
2026-05-11 17:51:06.210,1,0.6,-0.48,1.79,-71.134,-44.048199999999994,268.6712,175,75
2026-05-11 17:51:06.222,1,0.81,-0.46,1.78,-53.38399999999999,-49.408199999999994,235.56119999999999,175,75
2026-05-11 17:51:06.272,1,0.16,-0.13,1.87,-27.653999999999996,-55.328199999999995,199.7712,175,75
2026-05-11 17:51:06.277,1,0.62,-0.02,2.14,8.925999999999998,48.09179999999999,185.6812,175,75
2026-05-11 17:51:06.288,1,1.13,-0.26,2.32,22.165999999999997,-8.868199999999998,148.06119999999999,175,75
2026-05-11 17:51:06.328,1,0.96,-0.8,0.51,3.0159999999999982,63.2718,51.471199999999996,175,75
2026-05-11 17:51:06.353,1,1.81,-1.35,0.38,-2.474000000000002,241.2618,-23.528800000000004,175,75
2026-05-11 17:51:06.369,1,0.54,-4.65,1.75,-104.79400000000001,-535.8782,-130.8388,175,75
2026-05-11 17:51:06.381,1,-1.75,-1.53,0.75,-105.70400000000001,-258.8682,-100.28880000000001,175,75
2026-05-11 17:51:06.385,1,-0.28,-2.48,1.29,38.446,69.73179999999999,-56.448800000000006,175,75
2026-05-11 17:51:06.394,1,-0.37,-1.95,1.35,14.725999999999999,21.441800000000004,-55.348800000000004,175,75
2026-05-11 17:51:06.420,1,-1.2,-2.61,1.9,28.565999999999995,180.0418,-84.06880000000001,175,75
2026-05-11 17:51:06.420,1,-0.34,-2.74,2.31,126.246,360.5318,-73.7088,175,75
2026-05-11 17:51:06.457,1,-1.24,-1.67,1.87,-17.224000000000004,162.6018,-37.6088,175,75
2026-05-11 17:51:06.465,1,-1.34,-0.33,1.61,7.8359999999999985,82.1718,-54.378800000000005,175,75
2026-05-11 17:51:06.485,1,-1.6,0.89,1.22,29.665999999999997,5.7118,-104.1988,175,75
2026-05-11 17:51:06.509,1,-0.97,3.08,0.81,93.62599999999999,139.2418,-180.4788,175,75
2026-05-11 17:51:06.518,1,-1.25,3.68,1.26,237.096,374.5518,-227.4888,175,75
2026-05-11 17:51:06.546,1,-1.22,0.35,2.25,250.696,597.7218,-243.5888,175,75
2026-05-11 17:51:06.571,1,-1.05,0.03,2.92,245.396,559.0618,-272.6688,175,75
2026-05-11 17:51:06.593,1,-0.66,-1.07,1.28,373.076,328.2718,-256.6388,175,75
2026-05-11 17:51:06.605,1,-0.72,-1.55,1.04,351.856,283.4518,-245.2888,175,75
2026-05-11 17:51:06.617,1,-1.84,-1.8,0.19,114.84599999999999,-132.0982,-126.3288,175,75
2026-05-11 17:51:06.658,1,-0.69,-1.48,0.88,-61.614,125.71180000000001,-31.2688,175,75
2026-05-11 17:51:06.668,1,-1.92,-1.91,1.82,-123.51400000000001,181.7418,76.9012,175,75
2026-05-11 17:51:06.708,1,-1.4,-1.56,1.81,-222.47400000000002,-109.4682,158.1212,175,75
2026-05-11 17:51:06.718,1,-1.48,-1.6,1.75,-238.994,-118.1282,173.9712,175,75
2026-05-11 17:51:06.723,1,-1.43,-1.56,1.79,-239.184,-100.2082,196.7212,175,75
2026-05-11 17:51:06.772,1,-1.35,-1.45,1.87,-228.814,-91.6682,211.4712,175,75
2026-05-11 17:51:06.772,1,-1.27,-1.19,1.81,-211.13400000000001,-90.3282,220.50119999999998,175,75
2026-05-11 17:51:06.785,1,-1.18,-1.02,1.7,-194.66400000000002,-76.6082,223.2412,175,75
2026-05-11 17:51:06.798,1,-0.99,-0.76,1.54,-173.75400000000002,-55.4482,229.28119999999998,175,75
2026-05-11 17:51:06.798,1,-0.92,-0.54,1.48,-166.25400000000002,-27.7682,236.6012,175,75
2026-05-11 17:51:06.812,1,-0.67,-0.29,1.41,-158.814,10.1018,236.6012,175,75
2026-05-11 17:51:06.835,1,-0.35,-0.05,1.32,-146.19400000000002,36.7418,211.78119999999998,175,75
2026-05-11 17:51:06.835,1,-0.16,-0.17,1.3,-129.66400000000002,42.3518,200.8012,175,75
2026-05-11 17:51:06.859,1,-0.04,-0.4,1.49,-133.324,12.541800000000002,167.3312,175,75
2026-05-11 17:51:06.859,1,-0.07,-0.31,1.56,-132.22400000000002,-9.718199999999998,156.2312,175,75
2026-05-11 17:51:06.872,1,-0.16,-0.27,1.63,-125.70400000000001,-40.1482,141.6012,175,75
2026-05-11 17:51:06.921,1,-1.61,0.05,1.64,-100.09400000000001,-112.51820000000001,141.7212,175,75
2026-05-11 17:51:06.921,1,-0.46,-0.17,1.67,-84.054,-55.3882,152.5712,175,75
2026-05-11 17:51:06.932,1,0.88,-0.6,2.24,-62.654,-67.8282,124.7712,175,75
2026-05-11 17:51:06.944,1,0.18,-0.4,-0.09,-120.584,-30.208199999999998,55.13119999999999,175,75
2026-05-11 17:51:06.965,1,1.82,-2.33,3.82,17.345999999999997,588.7618,-20.8388,175,75
2026-05-11 17:51:06.968,1,1.45,-5.1,6.36,123.196,376.9318,27.691199999999995,175,75
2026-05-11 17:51:06.972,1,0.4,-4.96,3.24,-67.414,-355.2082,-80.6588,175,75
2026-05-11 17:51:06.999,1,-0.97,-1.62,0.24,-79.244,26.441800000000004,-21.698800000000002,175,75
2026-05-11 17:51:07.038,1,-0.74,-1.84,0.9,-44.974,29.981800000000003,-19.138800000000003,175,75
2026-05-11 17:51:07.048,1,-1.87,-1.55,1.09,-42.964,36.1318,-56.268800000000006,175,75
2026-05-11 17:51:07.048,1,-1.71,-1.42,1.22,-24.113999999999997,96.9918,-95.0488,175,75
2026-05-11 17:51:07.058,1,-1.38,-1.53,1.2,20.695999999999998,61.4418,-148.5288,175,75
2026-05-11 17:51:07.067,1,-1.4,-1.63,1.19,77.28599999999999,24.121800000000004,-178.0988,175,75
2026-05-11 17:51:07.080,1,-1.59,-1.64,1.13,108.386,54.6118,-195.3488,175,75
2026-05-11 17:51:07.101,1,-2.72,-1.69,2.01,153.74599999999998,424.7318,-296.3288,175,75
2026-05-11 17:51:07.137,1,-2.67,-1.03,4.44,54.356,304.3118,-114.4988,175,75
2026-05-11 17:51:07.137,1,-3.61,-0.3,2.88,55.946,101.6218,-148.1588,175,75
2026-05-11 17:51:07.168,1,-5.24,0.66,1.12,38.315999999999995,125.83179999999999,-14.738800000000001,175,75
2026-05-11 17:51:07.189,1,-3.56,-0.64,2.04,34.726,362.5418,155.2612,175,75
2026-05-11 17:51:07.189,1,-3.26,-1.6,2.85,13.376,90.2218,234.3412,175,75
2026-05-11 17:51:07.230,1,-1.68,-0.96,1.69,-42.294,175.5918,303.9712,175,75
2026-05-11 17:51:07.241,1,-1.04,-0.91,2.19,-44.184,143.8818,309.4012,175,75
2026-05-11 17:51:07.241,1,-0.23,-0.93,2.45,-40.884,81.5618,314.8312,175,75
2026-05-11 17:51:07.290,1,1.03,-0.23,2.06,14.535999999999998,-244.1682,241.6012,175,75
2026-05-11 17:51:07.308,1,1.02,0.11,1.49,62.526,-285.6282,182.3312,175,75
2026-05-11 17:51:07.308,1,0.22,0.54,0.96,95.276,-211.9082,145.0712,175,75
2026-05-11 17:51:07.325,1,1.12,-0.56,0.44,89.29599999999999,-34.8982,105.38119999999999,175,75
2026-05-11 17:51:07.363,1,1.2,-1.25,-0.37,60.636,-59.8382,38.791199999999996,175,75
2026-05-11 17:51:07.374,1,0.71,-1.5,-1.54,116.556,635.8918,-123.7688,175,75
2026-05-11 17:51:07.398,1,0.28,-2.18,1.63,-83.084,-227.9482,-82.7288,175,75
2026-05-11 17:51:07.408,1,0.47,-1.82,1.41,-39.114,-84.4682,-55.65880000000001,175,75
2026-05-11 17:51:07.408,1,-0.29,-2.71,1.29,-34.244,-187.6482,-75.4188,175,75
2026-05-11 17:51:07.420,1,-1.36,-2.69,1.5,-14.364000000000003,-62.158199999999994,-52.4288,175,75
2026-05-11 17:51:07.431,1,-1.05,-2.03,1.8,-6.074,36.561800000000005,-36.0888,175,75
2026-05-11 17:51:07.442,1,-1.06,-1.64,1.54,-6.4940000000000015,15.1018,-52.238800000000005,175,75
2026-05-11 17:51:07.486,1,-1.16,-1.97,1.52,-13.754,100.4618,-88.1588,175,75
2026-05-11 17:51:07.505,1,-0.71,-2.33,2.43,4.535999999999999,225.9518,-116.14880000000001,175,75
2026-05-11 17:51:07.505,1,-0.2,-2.95,2.5,-10.404000000000002,199.4918,-57.72880000000001,175,75
2026-05-11 17:51:07.519,1,-0.79,-2.02,2.3,-29.484,198.8818,-23.1588,175,75
2026-05-11 17:51:07.533,1,-0.86,-0.93,2.07,-28.814,130.7118,-34.808800000000005,175,75
2026-05-11 17:51:07.543,1,-2.06,1.56,1.01,18.566,-42.9482,-112.6088,175,75
2026-05-11 17:51:07.567,1,-1.62,1.38,2.27,190.876,442.7818,-179.49880000000002,175,75
2026-05-11 17:51:07.637,1,-1.34,0.39,2.77,254.96599999999998,462.9018,-220.7788,175,75
2026-05-11 17:51:07.685,1,-0.2,-1.07,1.38,362.466,492.9018,-274.1988,175,75
2026-05-11 17:51:07.714,1,-0.19,-2.93,3.15,286.55600000000004,-103.4982,-97.36880000000001,175,75
2026-05-11 17:51:07.725,1,-0.08,-2.92,1.22,129.116,-337.8882,-157.6688,175,75
2026-05-11 17:51:07.725,1,0.38,-1.1,0.34,51.366,-348.9282,-124.1388,175,75
2026-05-11 17:51:07.748,1,0.04,0.22,0.12,-28.024,-200.6882,-64.5588,175,75
2026-05-11 17:51:07.760,1,-0.05,-1.95,0.6,-124.304,288.1518,-21.698800000000002,175,75
2026-05-11 17:51:07.793,1,-1.35,-2.28,2.38,-183.814,290.1018,85.8012,175,75
2026-05-11 17:51:07.813,1,-0.93,-2.15,2.71,-188.994,145.2218,94.8312,175,75
2026-05-11 17:51:07.813,1,-0.78,-1.81,2.47,-238.44400000000002,-54.2282,96.2912,175,75
2026-05-11 17:51:07.851,1,-1.16,-1.42,2.01,-282.224,-151.1182,121.66120000000001,175,75
2026-05-11 17:51:07.851,1,-1.49,-1.11,1.82,-292.964,-184.6582,152.6312,175,75
2026-05-11 17:51:07.865,1,-1.19,-0.53,1.78,-242.964,-190.4482,207.3912,175,75
2026-05-11 17:51:07.876,1,-0.89,-0.28,1.62,-202.774,-181.9082,228.4912,175,75
2026-05-11 17:51:07.898,1,-0.6,-0.17,1.49,-181.804,-165.0782,234.3412,175,75
2026-05-11 17:51:07.920,1,-0.27,-0.19,1.03,-178.204,-113.0682,211.4112,175,75
2026-05-11 17:51:07.932,1,-0.2,-0.2,0.98,-165.154,-80.9382,200.6812,175,75
2026-05-11 17:51:07.932,1,-0.0,-0.28,1.09,-153.994,-51.968199999999996,184.4612,175,75
2026-05-11 17:51:07.953,1,0.01,-0.33,1.36,-136.554,-27.0982,151.4112,175,75
2026-05-11 17:51:07.967,1,-0.2,-0.18,1.71,-110.09400000000001,4.3718,148.9712,175,75
2026-05-11 17:51:07.979,1,-0.13,-0.21,2.02,-86.134,-14.228199999999998,135.0712,175,75
2026-05-11 17:51:08.000,1,-0.8,-0.04,2.12,-72.65400000000001,-132.6482,150.0112,175,75
2026-05-11 17:51:08.000,1,-0.51,-0.06,1.87,-64.54400000000001,-136.9682,141.4112,175,75
2026-05-11 17:51:08.024,1,0.84,-0.11,1.64,-25.823999999999998,-107.4582,91.96119999999999,175,75
2026-05-11 17:51:08.051,1,0.61,-2.65,3.36,22.586,577.8418,-51.3888,175,75
2026-05-11 17:51:08.064,1,2.27,-4.39,6.66,155.08599999999998,626.5018,71.2912,175,75
2026-05-11 17:51:08.110,1,0.2,-2.52,-0.47,-18.634,-17.708199999999998,-25.4188,175,75
2026-05-11 17:51:08.117,1,-0.42,-2.39,-0.0,-47.414,74.4318,-16.208800000000004,175,75
2026-05-11 17:51:08.130,1,-1.52,-1.41,1.35,4.355999999999999,62.6018,-23.6488,175,75
2026-05-11 17:51:08.142,1,-1.89,-1.75,1.69,16.796,113.45179999999999,-56.878800000000005,175,75
2026-05-11 17:51:08.189,1,-1.67,-1.45,1.63,45.026,79.73179999999999,-186.5088,175,75
2026-05-11 17:51:08.200,1,-1.66,-1.63,1.61,87.526,66.0718,-186.3888,175,75
2026-05-11 17:51:08.248,1,-3.39,-0.78,2.14,94.84599999999999,365.3418,-263.3388,175,75
2026-05-11 17:51:08.248,1,-3.7,-0.79,2.98,123.98599999999999,549.3118,-177.3688,175,75
2026-05-11 17:51:08.286,1,-3.32,-0.84,2.79,124.23599999999999,91.9918,-137.4888,175,75
2026-05-11 17:51:08.286,1,-4.78,-0.17,0.83,50.696,82.1718,-30.348800000000004,175,75
2026-05-11 17:51:08.296,1,-3.91,-0.13,0.3,61.306,349.4918,86.60119999999999,175,75
2026-05-11 17:51:08.310,1,-3.4,-0.66,2.36,36.006,338.7018,158.1212,175,75
2026-05-11 17:51:08.310,1,-3.11,-1.26,3.49,28.565999999999995,141.7418,220.4412,175,75
2026-05-11 17:51:08.348,1,-3.1,-1.58,2.76,-17.964,-26.368199999999998,221.8412,175,75
2026-05-11 17:51:08.358,1,-1.74,-1.12,1.29,-23.994,104.1218,285.0112,175,75
2026-05-11 17:51:08.369,1,-1.32,-1.26,1.57,-26.134,121.68180000000001,291.2312,175,75
2026-05-11 17:51:08.381,1,0.24,-1.17,1.99,-31.804000000000002,53.45179999999999,278.8512,175,75
2026-05-11 17:51:08.458,1,0.94,-0.95,1.87,-20.154000000000003,-10.018199999999998,260.8012,175,75
2026-05-11 17:51:08.458,1,1.3,-0.68,1.63,-3.694000000000001,-71.1782,238.8512,175,75
2026-05-11 17:51:08.458,1,1.3,-0.41,1.42,25.275999999999996,-94.1082,203.6712,175,75
2026-05-11 17:51:08.458,1,1.21,-0.25,1.42,54.476,-85.9382,157.8812,175,75
2026-05-11 17:51:08.458,1,-0.1,0.24,1.57,72.776,-96.1182,138.00119999999998,175,75
2026-05-11 17:51:08.469,1,0.22,-0.04,1.5,99.17599999999999,-9.108199999999998,117.94120000000001,175,75
2026-05-11 17:51:08.481,1,1.19,-0.97,0.82,79.416,-22.5782,51.7812,175,75
2026-05-11 17:51:08.494,1,1.43,-1.19,-0.24,52.776,33.51180000000001,14.1612,175,75
2026-05-11 17:51:08.522,1,2.08,-1.91,-1.16,4.535999999999999,167.3518,-66.1488,175,75
2026-05-11 17:51:08.530,1,0.93,-1.19,0.36,131.676,737.6618,-73.7088,175,75
2026-05-11 17:51:08.544,1,3.42,-1.39,3.86,246.976,978.6318,3.791199999999998,175,75
2026-05-11 17:51:08.556,1,4.83,-1.76,5.34,232.096,463.8218,-72.4888,175,75
2026-05-11 17:51:08.556,1,3.33,-3.21,2.63,88.446,-443.8682,-143.3388,175,75
2026-05-11 17:51:08.566,1,0.67,-3.54,0.69,-65.40400000000001,-472.1582,-75.28880000000001,175,75
2026-05-11 17:51:08.626,1,-0.03,-2.79,-0.42,-80.40400000000001,-201.9682,-58.15880000000001,175,75
2026-05-11 17:51:08.634,1,-1.61,-1.81,0.48,21.366,12.7818,-55.22880000000001,175,75
2026-05-11 17:51:08.653,1,-1.64,-1.83,2.89,96.916,168.7618,-33.8888,175,75
2026-05-11 17:51:08.664,1,-1.18,-1.73,3.32,59.296,139.7318,-60.958800000000004,175,75
2026-05-11 17:51:08.664,1,-0.61,-1.79,2.59,-9.854000000000001,17.721800000000005,-76.6988,175,75
2026-05-11 17:51:08.688,1,-1.21,-1.74,1.68,-61.314,-37.51819999999999,-109.5588,175,75
2026-05-11 17:51:08.699,1,-1.21,-1.55,1.69,13.075999999999999,179.1218,-124.31880000000001,175,75
2026-05-11 17:51:08.709,1,-0.8,-2.22,2.25,-48.634,133.8218,-77.42880000000001,175,75
2026-05-11 17:51:08.709,1,-0.85,-1.26,1.81,-8.994000000000002,100.5318,-69.6188,175,75
2026-05-11 17:51:08.720,1,-1.41,-0.0,1.34,27.095999999999997,10.771800000000002,-87.36880000000001,175,75
2026-05-11 17:51:08.732,1,-1.98,1.8,0.6,64.416,1.0718000000000032,-143.9488,175,75
2026-05-11 17:51:08.743,1,-1.85,2.52,0.75,217.77599999999998,312.8418,-163.9488,175,75
2026-05-11 17:51:08.743,1,-1.55,0.32,1.46,245.456,461.6218,-174.6188,175,75
2026-05-11 17:51:08.769,1,-1.2,-0.1,1.8,263.076,480.0418,-209.1988,175,75
2026-05-11 17:51:08.787,1,-0.61,-0.66,1.8,282.836,375.0418,-228.3988,175,75
2026-05-11 17:51:08.787,1,-0.48,-0.91,1.82,268.076,299.6118,-232.3088,175,75
2026-05-11 17:51:08.807,1,-1.03,-1.69,1.63,198.136,-4.468199999999998,-206.3288,175,75
2026-05-11 17:51:08.818,1,-0.78,-2.28,1.06,77.836,-0.8781999999999996,-124.4988,175,75
2026-05-11 17:51:08.839,1,-0.15,-0.73,2.7,60.456,-107.6482,-116.50880000000001,175,75
2026-05-11 17:51:08.845,1,-1.8,-0.75,1.08,-23.384,-211.2382,-92.9788,175,75
2026-05-11 17:51:08.856,1,-2.16,-1.72,-0.29,-113.87400000000001,222.5418,31.721199999999996,175,75
2026-05-11 17:51:08.912,1,-0.98,-1.76,3.59,-19.424,407.5418,91.4712,175,75
2026-05-11 17:51:08.932,1,-1.54,-1.45,2.72,-181.804,-90.6282,89.8312,175,75
2026-05-11 17:51:08.944,1,-2.17,-1.26,1.52,-201.074,-154.1682,127.8212,175,75
2026-05-11 17:51:08.944,1,-1.89,-1.42,1.36,-203.024,3.331800000000001,208.4912,175,75
2026-05-11 17:51:09.000,1,-1.17,-1.13,2.05,-201.984,-140.9982,240.56119999999999,175,75
2026-05-11 17:51:09.020,1,-1.15,-0.79,1.66,-196.684,-150.8182,259.2212,175,75
2026-05-11 17:51:09.020,1,-1.05,-0.63,1.43,-181.25400000000002,-125.2082,278.3612,175,75
2026-05-11 17:51:09.033,1,-0.38,-0.65,1.1,-161.684,-66.1782,273.0612,175,75
2026-05-11 17:51:09.059,1,-0.05,-0.5,0.88,-145.88400000000001,-6.118199999999998,258.9112,175,75
2026-05-11 17:51:09.070,1,0.16,-0.54,0.86,-137.22400000000002,39.5518,223.5512,175,75
2026-05-11 17:51:09.070,1,0.14,-0.5,1.01,-133.514,69.1218,194.9512,175,75
2026-05-11 17:51:09.080,1,-0.14,-0.31,1.38,-127.10400000000001,87.84179999999999,185.0712,175,75
2026-05-11 17:51:09.138,1,0.72,-0.12,0.74,-80.584,-55.7582,44.7112,175,75
2026-05-11 17:51:09.164,1,2.35,-2.99,5.38,66.006,516.7418,-63.338800000000006,175,75
2026-05-11 17:51:09.164,1,0.61,-5.03,4.64,160.33599999999998,450.4018,-28.888800000000003,175,75
2026-05-11 17:51:09.192,1,-1.28,-2.16,1.87,-190.03400000000002,-369.7782,-11.7588,175,75
2026-05-11 17:51:09.192,1,-1.51,-1.42,0.81,-99.664,90.59179999999999,-27.1188,175,75
2026-05-11 17:51:09.192,1,0.3,-2.0,0.62,-43.814,-50.26819999999999,-25.8988,175,75
2026-05-11 17:51:09.218,1,-1.09,-2.2,0.4,-49.794,-7.218199999999998,-2.3088000000000015,175,75
2026-05-11 17:51:09.245,1,-1.9,-1.14,0.78,7.955999999999999,73.2718,-90.53880000000001,175,75
2026-05-11 17:51:09.256,1,-1.79,-1.13,1.1,29.235999999999997,85.34179999999999,-128.3988,175,75
2026-05-11 17:51:09.291,1,-1.84,-1.62,1.72,118.746,75.95179999999999,-236.7588,175,75
2026-05-11 17:51:09.306,1,-1.82,-2.39,2.23,138.196,276.9318,-374.4988,175,75
2026-05-11 17:51:09.324,1,-2.3,-2.15,2.82,121.12599999999999,272.1718,-253.5288,175,75
2026-05-11 17:51:09.337,1,-3.06,-0.76,3.38,65.816,277.9018,-105.4188,175,75
2026-05-11 17:51:09.354,1,-4.16,0.06,2.27,81.306,148.5718,-114.1988,175,75
2026-05-11 17:51:09.387,1,-3.48,-0.72,0.82,-20.524,351.9918,132.9412,175,75
2026-05-11 17:51:09.387,1,-3.45,-0.63,2.26,-33.694,363.8218,158.06119999999999,175,75
2026-05-11 17:51:09.399,1,-3.32,-1.03,3.52,-23.994,217.1118,240.3212,175,75
2026-05-11 17:51:09.407,1,-3.17,-1.5,3.35,-44.424,52.541799999999995,258.1212,175,75
2026-05-11 17:51:09.439,1,-2.71,-1.47,2.62,-65.524,12.721800000000002,249.77120000000002,175,75
2026-05-11 17:51:09.449,1,-1.9,-1.19,1.78,-31.073999999999998,72.7818,287.5712,175,75
2026-05-11 17:51:09.462,1,-1.04,-1.21,2.29,-16.073999999999998,120.89179999999999,309.2812,175,75
2026-05-11 17:51:09.505,1,0.8,-1.06,2.4,22.345999999999997,-29.108199999999997,288.1212,175,75
2026-05-11 17:51:09.517,1,1.03,-0.88,1.82,43.076,-118.4982,243.06119999999999,175,75
2026-05-11 17:51:09.528,1,0.89,-0.27,1.1,94.29599999999999,-127.5782,177.2712,175,75
2026-05-11 17:51:09.540,1,0.06,0.03,1.05,113.866,-123.0082,151.9612,175,75
2026-05-11 17:51:09.540,1,-0.9,0.21,1.07,127.776,-21.788199999999996,148.1212,175,75
2026-05-11 17:51:09.561,1,0.84,-1.05,0.81,118.866,65.8318,100.1912,175,75
2026-05-11 17:51:09.571,1,0.58,-1.39,-0.7,76.48599999999999,260.2218,27.941199999999995,175,75
2026-05-11 17:51:09.649,1,2.3,-1.28,0.81,121.856,603.1518,0.19119999999999848,175,75
2026-05-11 17:51:09.655,1,5.06,-2.3,5.24,195.27599999999998,351.4418,-90.8388,175,75
2026-05-11 17:51:09.655,1,2.51,-1.72,3.42,162.83599999999998,-94.9582,-128.3388,175,75
2026-05-11 17:51:09.678,1,-1.87,-2.63,-0.03,-70.274,-75.0182,-102.9188,175,75
2026-05-11 17:51:09.688,1,-1.39,-1.55,1.54,85.39599999999999,82.5418,-20.7188,175,75
2026-05-11 17:51:09.709,1,-0.5,-1.9,2.51,1.7359999999999989,10.771800000000002,-81.0288,175,75
2026-05-11 17:51:09.719,1,-0.77,-1.63,1.35,-56.193999999999996,-65.3882,-102.5488,175,75
2026-05-11 17:51:09.723,1,-1.3,-1.31,1.05,-40.764,49.061800000000005,-124.86880000000001,175,75
2026-05-11 17:51:09.764,1,-0.91,-1.5,1.66,8.806,144.0618,-125.5988,175,75
2026-05-11 17:51:09.780,1,-0.68,-2.64,2.34,-4.544000000000002,103.3318,-143.0388,175,75
2026-05-11 17:51:09.798,1,-0.82,-2.67,2.11,1.9159999999999986,190.77179999999998,-142.8488,175,75
2026-05-11 17:51:09.798,1,-0.08,-2.19,2.0,15.875999999999998,171.0118,-121.75880000000001,175,75
2026-05-11 17:51:09.823,1,-1.24,-0.21,2.31,19.176,38.51180000000001,-80.1088,175,75
2026-05-11 17:51:09.823,1,-2.38,0.06,1.69,29.415999999999997,-5.818199999999997,-84.8088,175,75
2026-05-11 17:51:09.845,1,-1.06,1.21,1.49,156.126,266.9918,-140.8988,175,75
2026-05-11 17:51:09.855,1,-1.37,0.34,2.13,246.24599999999998,385.4618,-182.5488,175,75
2026-05-11 17:51:09.865,1,-1.59,0.46,1.99,271.67600000000004,417.0518,-207.2388,175,75
2026-05-11 17:51:09.865,1,-1.77,0.42,1.85,323.136,460.6518,-200.5388,175,75
2026-05-11 17:51:09.882,1,-0.92,-0.79,1.59,367.646,440.8318,-236.2088,175,75
2026-05-11 17:51:09.905,1,-0.89,-1.93,1.99,305.396,175.2818,-173.8888,175,75
2026-05-11 17:51:09.917,1,-1.13,-2.79,1.59,257.286,23.701800000000002,-140.1688,175,75
2026-05-11 17:51:09.931,1,-1.94,-2.8,0.69,159.846,-89.8382,-99.00880000000001,175,75
2026-05-11 17:51:09.943,1,-2.46,-0.03,-0.78,-55.943999999999996,-102.15820000000001,41.9612,175,75
2026-05-11 17:51:09.955,1,-2.61,-0.37,-0.43,-93.51400000000001,17.721800000000005,90.13119999999999,175,75
2026-05-11 17:51:09.967,1,-0.98,-1.45,0.54,-116.624,152.7218,108.49119999999999,175,75
2026-05-11 17:51:09.980,1,3.65,-3.93,4.09,22.836,719.1218,58.6112,175,75
2026-05-11 17:51:09.980,1,4.75,-3.56,8.99,44.666000000000004,445.8318,69.2212,175,75
2026-05-11 17:51:10.019,1,-0.31,-0.42,5.32,77.526,-339.1082,-78.03880000000001,175,75
2026-05-11 17:51:10.030,1,-1.86,-1.06,0.48,10.145999999999999,-405.5082,3.301199999999998,175,75
2026-05-11 17:51:10.064,1,-3.31,-1.57,-1.66,-237.41400000000002,144.4318,133.6712,175,75
2026-05-11 17:51:10.095,1,-0.48,-1.44,2.61,-166.984,427.7818,183.00119999999998,175,75
2026-05-11 17:51:10.095,1,0.22,-1.96,3.92,-200.214,95.8318,185.7412,175,75
2026-05-11 17:51:10.107,1,-0.99,-0.72,1.79,-276.804,-454.4082,192.2712,175,75
2026-05-11 17:51:10.148,1,-1.15,-0.45,0.99,-244.484,-403.1282,225.3212,175,75
2026-05-11 17:51:10.148,1,-0.83,-0.57,0.71,-226.624,-326.6082,233.6112,175,75
2026-05-11 17:51:10.160,1,-0.42,-0.54,0.82,-236.624,-238.3182,237.0812,175,75
2026-05-11 17:51:10.171,1,-0.17,-0.39,1.11,-239.72400000000002,-221.3682,239.28119999999998,175,75
2026-05-11 17:51:10.183,1,-0.1,-0.38,1.28,-235.094,-226.6082,235.50119999999998,175,75
2026-05-11 17:51:10.183,1,0.03,-0.39,1.21,-227.41400000000002,-247.7682,237.6912,175,75
2026-05-11 17:51:10.183,1,-0.22,-0.38,0.81,-213.75400000000002,-249.1682,230.1312,175,75
2026-05-11 17:51:10.196,1,-0.47,-0.4,0.42,-199.184,-178.1882,219.3412,175,75
2026-05-11 17:51:10.227,1,-0.68,-0.5,0.37,-180.94400000000002,-46.548199999999994,209.8912,175,75
2026-05-11 17:51:10.227,1,-0.77,-0.49,0.66,-166.014,43.76180000000001,207.3312,175,75
2026-05-11 17:51:10.309,1,-0.65,-0.51,1.28,-144.424,121.68180000000001,202.8812,175,75
2026-05-11 17:51:10.319,1,-1.01,-0.39,1.74,-132.22400000000002,91.8718,205.6212,175,75
2026-05-11 17:51:10.333,1,0.38,-0.65,2.12,-114.974,123.9418,187.0212,175,75
2026-05-11 17:51:10.357,1,0.64,0.26,2.1,-104.664,-18.1882,135.1312,175,75
2026-05-11 17:51:10.372,1,1.81,-0.02,1.95,-97.90400000000001,-25.6282,89.5212,175,75
2026-05-11 17:51:10.400,1,-1.39,-2.52,0.9,-94.664,-39.2882,-49.988800000000005,175,75
2026-05-11 17:51:10.444,1,-1.17,-1.05,0.06,-109.424,-52.158199999999994,-59.4988,175,75
2026-05-11 17:51:10.462,1,-1.25,-0.73,0.82,-0.0940000000000012,121.5018,-66.8788,175,75
2026-05-11 17:51:10.470,1,-1.19,-0.83,0.63,14.966,81.6818,-102.6688,175,75
2026-05-11 17:51:10.485,1,-1.27,-1.0,0.39,37.836,63.821799999999996,-134.7488,175,75
2026-05-11 17:51:10.487,1,-1.4,-1.29,0.42,66.79599999999999,82.9618,-175.2888,175,75
2026-05-11 17:51:10.503,1,-1.74,-1.28,0.93,124.78599999999999,114.3118,-210.1088,175,75
2026-05-11 17:51:10.562,1,-1.72,-1.74,1.61,203.016,173.6318,-260.2888,175,75
2026-05-11 17:51:10.580,1,-2.21,-2.31,2.46,222.52599999999998,236.1318,-292.6688,175,75
2026-05-11 17:51:10.593,1,-3.9,-2.13,4.01,8.745999999999999,181.5618,-216.93880000000001,175,75
2026-05-11 17:51:10.626,1,-4.83,0.2,1.73,61.306,45.281800000000004,-128.3988,175,75
2026-05-11 17:51:10.626,1,-4.82,0.26,1.08,65.51599999999999,211.5618,17.8812,175,75
2026-05-11 17:51:10.648,1,-2.06,-1.28,1.78,8.925999999999998,238.8818,272.8212,175,75
2026-05-11 17:51:10.731,1,0.89,-1.19,2.16,-51.434,-89.9582,251.7212,175,75
2026-05-11 17:51:10.731,1,1.39,-0.8,1.85,-31.924,-166.8482,221.2912,175,75
2026-05-11 17:51:10.761,1,1.45,0.09,1.78,36.306,-226.4282,146.1112,175,75
2026-05-11 17:51:10.778,1,1.22,0.5,1.75,60.516,-236.6682,103.24119999999999,175,75
2026-05-11 17:51:10.803,1,-0.33,-0.17,0.52,102.226,-122.76820000000001,86.2312,175,75
2026-05-11 17:51:10.866,1,-1.53,-2.65,-0.01,-78.384,-206.6682,-78.3388,175,75
2026-05-11 17:51:10.889,1,-1.4,-0.47,1.71,-40.704,101.2618,-108.4588,175,75
2026-05-11 17:51:10.911,1,-0.74,-1.23,2.36,-10.274000000000003,237.5418,-139.0688,175,75
2026-05-11 17:51:10.926,1,-0.73,-2.05,2.85,32.586,296.4418,-146.1488,175,75
2026-05-11 17:51:10.943,1,-0.16,-2.78,3.08,2.225999999999999,167.1118,-66.1488,175,75
2026-05-11 17:51:10.957,1,-0.91,-1.99,2.06,-40.524,28.2118,-83.5888,175,75
2026-05-11 17:51:10.957,1,-1.35,-0.24,1.17,-13.934000000000003,-49.408199999999994,-91.14880000000001,175,75
2026-05-11 17:51:10.963,1,-1.86,1.05,0.67,20.636,-4.8981999999999974,-121.8788,175,75
2026-05-11 17:51:10.996,1,-0.94,0.06,2.63,227.83599999999998,294.1218,-215.6588,175,75
2026-05-11 17:51:11.008,1,-1.19,-0.22,1.88,268.31600000000003,248.09179999999998,-231.93880000000001,175,75
2026-05-11 17:51:11.066,1,-1.39,-2.34,1.49,160.516,-57.2782,-119.3788,175,75
2026-05-11 17:51:11.066,1,-0.91,-2.68,0.6,73.866,-149.9582,-95.2288,175,75
2026-05-11 17:51:11.078,1,-0.48,-1.08,1.45,81.42599999999999,-46.908199999999994,-49.378800000000005,175,75
2026-05-11 17:51:11.102,1,-0.52,-1.67,0.94,-98.444,-193.7982,10.0712,175,75
2026-05-11 17:51:11.102,1,-1.13,-1.98,0.52,-136.804,-92.15820000000001,50.5012,175,75
2026-05-11 17:51:11.114,1,-1.21,-1.49,0.48,-117.594,28.941800000000004,91.35119999999999,175,75
2026-05-11 17:51:11.114,1,-1.36,-1.25,1.07,-69.244,109.1218,133.1212,175,75
2026-05-11 17:51:11.125,1,-1.91,-1.47,1.59,-98.994,128.1518,156.9612,175,75
2026-05-11 17:51:11.145,1,-1.72,-1.84,1.86,-145.094,194.3118,203.6712,175,75
2026-05-11 17:51:11.158,1,-1.32,-1.77,2.05,-134.604,168.27179999999998,214.7712,175,75
2026-05-11 17:51:11.241,1,-1.14,-1.2,1.76,-195.94400000000002,135.4018,225.3212,175,75
2026-05-11 17:51:11.256,1,-0.69,-0.9,2.03,-173.69400000000002,123.9418,242.2112,175,75
2026-05-11 17:51:11.267,1,-0.14,-0.66,1.88,-175.824,22.4218,212.5112,175,75
2026-05-11 17:51:11.295,1,0.18,-0.37,1.77,-183.204,0.8918000000000035,212.9412,175,75
2026-05-11 17:51:11.315,1,0.72,0.02,2.03,-140.764,-66.5482,177.5712,175,75
2026-05-11 17:51:11.345,1,0.68,0.24,2.0,-133.144,-128.4982,151.78119999999998,175,75
2026-05-11 17:51:11.368,1,0.27,0.65,1.86,-111.804,-149.5382,119.0412,175,75
2026-05-11 17:51:11.379,1,-0.01,0.44,1.8,-71.254,-158.0082,80.8012,175,75
2026-05-11 17:51:11.398,1,-2.43,0.79,1.53,-23.204,-199.6582,80.0112,175,75
2026-05-11 17:51:11.409,1,-0.57,0.7,-0.26,-5.944000000000001,-64.2282,85.1912,175,75
2026-05-11 17:51:11.454,1,0.26,-3.09,3.35,-160.334,-475.0182,-28.2188,175,75
2026-05-11 17:51:11.466,1,1.16,-2.25,0.52,-168.144,-185.8182,-47.918800000000005,175,75
2026-05-11 17:51:11.476,1,-1.0,-2.34,0.61,-204.244,-224.22820000000002,-38.098800000000004,175,75
2026-05-11 17:51:11.533,1,-0.82,-0.85,1.79,-126.494,-61.3682,-48.2188,175,75
2026-05-11 17:51:11.533,1,-1.64,-0.66,1.03,-142.834,53.2718,-35.8388,175,75
2026-05-11 17:51:11.533,1,-1.08,-0.87,0.79,-144.304,55.531800000000004,-48.8288,175,75
2026-05-11 17:51:11.561,1,-1.35,-0.95,1.27,-74.364,4.731800000000003,-63.338800000000006,175,75
2026-05-11 17:51:11.583,1,-1.39,-0.6,1.58,-42.903999999999996,-36.908199999999994,-79.7488,175,75
2026-05-11 17:51:11.583,1,-1.71,-0.26,1.58,-23.874000000000002,-11.728199999999998,-60.47880000000001,175,75
2026-05-11 17:51:11.591,1,-1.44,-0.16,1.4,-0.5840000000000014,0.8918000000000035,-47.4288,175,75
2026-05-11 17:51:11.608,1,-1.6,-0.27,1.22,21.366,8.091800000000003,-43.338800000000006,175,75
2026-05-11 17:51:11.608,1,-1.79,-0.5,0.88,52.836,58.3918,-14.068800000000001,175,75
2026-05-11 17:51:11.631,1,-1.55,-1.52,1.0,138.386,189.8518,37.2112,175,75
2026-05-11 17:51:11.644,1,-2.12,-0.72,1.24,116.976,141.3218,104.8312,175,75
2026-05-11 17:51:11.655,1,-1.83,-0.74,2.03,136.306,198.9418,130.56119999999999,175,75
2026-05-11 17:51:11.664,1,-1.58,-1.23,2.24,158.136,114.61179999999999,138.7312,175,75
2026-05-11 17:51:11.712,1,-1.66,-1.29,1.62,117.64599999999999,115.77179999999998,153.9712,175,75
2026-05-11 17:51:11.712,1,-1.55,-1.22,1.06,89.056,168.8218,166.6612,175,75
2026-05-11 17:51:11.733,1,-1.29,-0.88,0.85,103.98599999999999,259.6118,180.8612,175,75
2026-05-11 17:51:11.745,1,-0.78,-0.92,1.63,129.116,268.0318,200.8612,175,75
2026-05-11 17:51:11.791,1,-0.71,-0.69,1.54,69.416,96.5018,197.0212,175,75
2026-05-11 17:51:11.797,1,-0.68,-0.34,1.36,47.466,41.3818,192.8212,175,75
2026-05-11 17:51:11.814,1,-0.69,-0.06,1.3,34.596,5.8918000000000035,188.6112,175,75
2026-05-11 17:51:11.827,1,-0.68,0.12,1.38,28.506,-28.928199999999997,181.6612,175,75
2026-05-11 17:51:11.838,1,-0.6,0.3,1.64,22.406,-109.8982,173.6112,175,75
2026-05-11 17:51:11.864,1,-0.31,0.44,1.51,17.226,-145.7582,164.0412,175,75
2026-05-11 17:51:11.876,1,0.65,0.53,1.83,60.696,-157.2782,116.4712,175,75
2026-05-11 17:51:11.888,1,1.17,0.39,1.84,88.386,-170.9382,52.8812,175,75
2026-05-11 17:51:11.900,1,0.81,0.61,1.74,124.84599999999999,-186.2382,-5.048800000000002,175,75
2026-05-11 17:51:11.922,1,1.12,0.64,1.7,166.61599999999999,-183.8682,-41.208800000000004,175,75
2026-05-11 17:51:11.922,1,-3.44,0.68,1.19,167.896,-371.4882,21.471199999999996,175,75
2026-05-11 17:51:11.943,1,2.17,-11.17,-2.55,27.286,-666.0582,-43.588800000000006,175,75
2026-05-11 17:51:11.969,1,-1.22,-4.48,1.98,135.396,586.1318,-83.64880000000001,175,75
2026-05-11 17:51:11.969,1,-0.43,-1.21,3.23,15.575999999999999,372.0518,-74.0688,175,75
2026-05-11 17:51:12.001,1,-1.91,-1.6,5.89,-68.26400000000001,-106.2382,-39.3188,175,75
2026-05-11 17:51:12.001,1,0.26,-1.84,2.34,-183.38400000000001,-356.2382,46.3512,175,75
2026-05-11 17:51:12.024,1,-1.82,-0.5,-0.35,-103.87400000000001,-213.9882,52.151199999999996,175,75
2026-05-11 17:51:12.036,1,-1.58,-1.33,-0.21,7.525999999999999,40.281800000000004,40.5612,175,75
2026-05-11 17:51:12.046,1,-1.06,-0.69,2.31,44.536,179.7918,30.7412,175,75
2026-05-11 17:51:12.061,1,-1.04,-0.8,2.23,2.225999999999999,35.7118,24.521199999999993,175,75
2026-05-11 17:51:12.070,1,-1.3,-0.64,1.79,-16.253999999999998,-24.1682,29.711199999999998,175,75
2026-05-11 17:51:12.163,1,-1.32,-0.85,1.56,28.385999999999996,11.381800000000002,13.361199999999998,175,75
2026-05-11 17:51:12.177,1,-1.37,-0.99,1.66,38.565999999999995,58.151799999999994,12.271199999999999,175,75
2026-05-11 17:51:12.189,1,-1.37,-1.15,1.64,40.025999999999996,81.8718,13.001199999999999,175,75
2026-05-11 17:51:12.200,1,-1.35,-1.21,1.58,39.786,109.6118,19.041199999999996,175,75
2026-05-11 17:51:12.221,1,-0.62,-2.12,1.4,20.636,86.7418,30.011199999999995,175,75
2026-05-11 17:51:12.221,1,-0.93,-2.19,1.33,-5.214,77.9618,33.0612,175,75
2026-05-11 17:51:12.231,1,-1.05,-2.2,1.47,-14.184000000000003,142.1118,36.9612,175,75
2026-05-11 17:51:12.247,1,-0.49,-2.04,1.76,11.915999999999999,315.3418,39.77119999999999,175,75
2026-05-11 17:51:12.252,1,0.11,-1.87,2.1,-57.594,204.6718,61.2912,175,75
2026-05-11 17:51:12.272,1,-0.83,-1.37,1.89,-128.874,104.2418,76.7812,175,75
2026-05-11 17:51:12.284,1,-1.16,-1.13,1.63,-128.69400000000002,34.791799999999995,65.99119999999999,175,75
2026-05-11 17:51:12.292,1,-1.59,-0.88,1.37,-123.26400000000001,-9.108199999999998,66.7812,175,75
2026-05-11 17:51:12.352,1,-1.92,-0.43,1.36,-77.65400000000001,62.9618,69.5212,175,75
2026-05-11 17:51:12.365,1,-0.65,-0.6,1.35,-52.164,58.70179999999999,39.1012,175,75
2026-05-11 17:51:12.391,1,-0.66,0.04,0.9,-101.554,119.18180000000001,-26.9388,175,75
2026-05-11 17:51:12.391,1,-0.58,0.65,1.17,-66.68400000000001,175.4018,-49.4988,175,75
2026-05-11 17:51:12.426,1,0.14,0.82,2.14,-5.464,65.7118,-139.8088,175,75
2026-05-11 17:51:12.438,1,-0.0,0.95,2.06,7.525999999999999,29.6718,-177.6088,175,75
2026-05-11 17:51:12.449,1,-0.25,0.54,2.13,52.526,-21.368199999999998,-225.5388,175,75
2026-05-11 17:51:12.449,1,-0.34,0.38,2.24,68.01599999999999,-82.8282,-230.0488,175,75
2026-05-11 17:51:12.466,1,-0.4,0.07,2.33,73.316,-149.2882,-234.8688,175,75
2026-05-11 17:51:12.475,1,-0.58,-0.07,2.24,60.276,-255.5682,-236.6988,175,75
2026-05-11 17:51:12.492,1,-0.86,-0.13,1.92,36.796,-342.6482,-243.4588,175,75
2026-05-11 17:51:12.559,1,-14.05,1.17,-0.35,-378.93399999999997,-856.3682,-235.1088,175,75
2026-05-11 17:51:12.559,1,2.89,-1.03,-2.62,2.4659999999999993,-41.7882,374.2212,175,75
2026-05-11 17:51:12.582,1,1.53,-4.3,1.46,-124.66400000000002,-175.1482,89.8312,175,75
2026-05-11 17:51:12.592,1,-0.2,-1.78,-0.98,-216.864,-259.1082,38.3612,175,75
2026-05-11 17:51:12.603,1,-1.85,0.37,-0.73,-95.644,-143.7382,75.2512,175,75
2026-05-11 17:51:12.616,1,-1.66,-0.11,1.13,90.81599999999999,86.3218,72.21119999999999,175,75
2026-05-11 17:51:12.627,1,-0.95,-1.13,2.61,3.0159999999999982,16.6818,43.731199999999994,175,75
2026-05-11 17:51:12.659,1,-1.46,-0.09,0.94,-25.884,-64.9582,23.551199999999994,175,75
2026-05-11 17:51:12.691,1,-1.61,-0.31,1.62,17.465999999999998,-7.708199999999998,-14.2588,175,75
2026-05-11 17:51:12.697,1,-1.37,-0.58,1.51,13.015999999999998,-34.718199999999996,-42.488800000000005,175,75
2026-05-11 17:51:12.717,1,-1.26,-0.97,1.06,28.195999999999998,-7.708199999999998,-74.3788,175,75
2026-05-11 17:51:12.739,1,-1.21,-0.83,1.37,67.036,-19.3482,-86.6988,175,75
2026-05-11 17:51:12.769,1,-1.15,-0.91,1.21,86.48599999999999,-38.438199999999995,-91.2688,175,75
2026-05-11 17:51:12.769,1,-1.19,-0.97,1.08,110.886,-46.1782,-101.50880000000001,175,75
