Time,ID,Ax,Ay,Az,Gx,Gy,Gz,Height,Weight
2026-05-07 18:27:57.852,1,0.08,0.86,0.11,-29.3964,4.744400000000001,0.2699999999999996,175,75
2026-05-07 18:27:57.869,1,0.2,0.81,0.11,-27.206400000000002,4.744400000000001,5.1499999999999995,175,75
2026-05-07 18:27:57.883,1,0.27,0.79,0.12,-28.1164,0.9644000000000013,2.5299999999999994,175,75
2026-05-07 18:27:57.883,1,0.28,0.81,0.18,-28.726399999999998,-1.1755999999999993,2.4099999999999993,175,75
2026-05-07 18:27:57.905,1,0.24,0.86,0.09,-32.6364,-10.195599999999999,-1.4300000000000006,175,75
2026-05-07 18:27:57.922,1,0.35,0.84,0.12,-32.9364,-12.695599999999999,-1.0700000000000003,175,75
2026-05-07 18:27:57.939,1,0.08,0.82,0.11,-32.7564,-7.6356,-2.960000000000001,175,75
2026-05-07 18:27:57.960,1,0.04,0.79,0.1,-30.4364,-0.4955999999999996,0.20999999999999996,175,75
2026-05-07 18:27:57.981,1,0.05,0.76,0.1,-29.3964,2.3644,2.9599999999999995,175,75
2026-05-07 18:27:58.013,1,-0.01,0.73,0.21,-32.9964,-1.4155999999999977,6.069999999999999,175,75
2026-05-07 18:27:58.025,1,0.12,0.8,0.15,-35.9864,-2.695599999999999,4.6,175,75
2026-05-07 18:27:58.038,1,0.2,0.82,0.13,-36.5364,-4.825599999999998,2.2899999999999996,175,75
2026-05-07 18:27:58.062,1,0.18,0.82,0.11,-37.9964,-6.785599999999999,0.20999999999999996,175,75
2026-05-07 18:27:58.062,1,0.17,0.82,0.12,-38.9764,-7.0855999999999995,-1.37,175,75
2026-05-07 18:27:58.073,1,0.11,0.83,0.14,-40.0064,-8.855599999999999,-2.41,175,75
2026-05-07 18:27:58.093,1,0.09,0.85,0.13,-41.7764,-12.755599999999998,-3.5100000000000007,175,75
2026-05-07 18:27:58.104,1,0.07,0.9,0.15,-42.0864,-13.305599999999998,-4.300000000000001,175,75
2026-05-07 18:27:58.104,1,0.04,0.92,0.14,-43.8564,-10.255599999999998,-5.52,175,75
2026-05-07 18:27:58.117,1,-0.03,0.93,0.16,-44.0364,-4.645599999999998,-3.2,175,75
2026-05-07 18:27:58.149,1,0.08,0.95,0.08,-42.1464,11.694400000000002,2.3499999999999996,175,75
2026-05-07 18:27:58.197,1,0.22,0.84,0.08,-43.7264,4.684400000000002,-4.24,175,75
2026-05-07 18:27:58.209,1,0.08,0.87,0.17,-43.7264,-6.7155999999999985,-8.08,175,75
2026-05-07 18:27:58.221,1,0.11,0.9,0.14,-44.3964,-13.9756,-10.21,175,75
2026-05-07 18:27:58.221,1,0.07,0.98,0.1,-43.8564,-16.6556,-11.31,175,75
2026-05-07 18:27:58.249,1,0.02,1.04,0.15,-41.0464,-14.285599999999995,-10.88,175,75
2026-05-07 18:27:58.260,1,0.02,1.12,0.16,-39.4664,-12.9356,-9.42,175,75
2026-05-07 18:27:58.286,1,0.08,1.14,0.18,-37.266400000000004,-18.485599999999998,-5.58,175,75
2026-05-07 18:27:58.298,1,0.11,1.17,0.06,-37.5764,-18.855599999999995,-7.960000000000001,175,75
2026-05-07 18:27:58.308,1,0.08,1.16,0.05,-33.9764,-11.785599999999999,-6.130000000000001,175,75
2026-05-07 18:27:58.319,1,0.18,1.16,0.07,-32.266400000000004,-6.5955999999999975,-7.780000000000001,175,75
2026-05-07 18:27:58.332,1,0.18,1.2,0.07,-32.3864,-2.025599999999997,-8.690000000000001,175,75
2026-05-07 18:27:58.343,1,0.18,1.12,0.16,-32.1464,4.434400000000002,-8.63,175,75
2026-05-07 18:27:58.351,1,0.2,1.08,0.16,-32.266400000000004,-0.3155999999999999,-7.530000000000001,175,75
2026-05-07 18:27:58.360,1,0.21,1.12,0.05,-35.2564,-0.7455999999999996,-8.93,175,75
2026-05-07 18:27:58.372,1,0.17,1.08,0.06,-31.8964,1.8744000000000014,-8.450000000000001,175,75
2026-05-07 18:27:58.389,1,0.16,1.0,0.11,-30.0764,-2.145599999999998,-7.470000000000001,175,75
2026-05-07 18:27:58.389,1,0.12,1.01,0.1,-30.0064,-5.3156,-7.35,175,75
2026-05-07 18:27:58.409,1,0.01,1.07,0.08,-25.4364,-5.255599999999998,-4.42,175,75
2026-05-07 18:27:58.423,1,-0.04,1.07,0.16,-22.7564,-0.07559999999999789,-1.37,175,75
2026-05-07 18:27:58.435,1,-0.08,1.15,0.26,-24.586399999999998,-15.6856,6.31,175,75
2026-05-07 18:27:58.460,1,-0.1,1.15,0.29,-26.166400000000003,-19.955599999999997,10.579999999999998,175,75
2026-05-07 18:27:58.460,1,-0.07,1.17,0.28,-27.266400000000004,-25.135599999999997,11.739999999999998,175,75
2026-05-07 18:27:58.482,1,0.02,1.16,0.05,-26.5364,-23.605599999999995,14.36,175,75
2026-05-07 18:27:58.513,1,0.13,1.14,0.09,-18.4864,-19.285599999999995,12.04,175,75
2026-05-07 18:27:58.517,1,0.08,1.21,0.03,-17.5764,-13.605599999999995,11.309999999999999,175,75
2026-05-07 18:27:58.531,1,0.13,1.19,0.17,-14.706400000000002,-10.435599999999997,9.3,175,75
2026-05-07 18:27:58.591,1,0.08,1.18,0.14,-18.6664,-8.5456,4.239999999999999,175,75
2026-05-07 18:27:58.603,1,0.14,1.15,0.08,-17.026400000000002,-9.5856,2.4099999999999993,175,75
2026-05-07 18:27:58.618,1,0.01,1.14,0.13,-10.686400000000003,-0.13560000000000016,0.6999999999999997,175,75
2026-05-07 18:27:58.635,1,0.07,1.12,0.12,-8.186400000000003,1.9344000000000001,-1.9800000000000004,175,75
2026-05-07 18:27:58.645,1,-0.14,1.18,0.15,-8.366400000000002,7.734400000000001,-1.0100000000000007,175,75
2026-05-07 18:27:58.656,1,-0.03,1.14,0.3,-8.796400000000002,-4.035599999999999,-3.1400000000000006,175,75
2026-05-07 18:27:58.666,1,0.02,1.13,0.16,-7.5764,-7.935599999999997,-3.0200000000000005,175,75
2026-05-07 18:27:58.679,1,-0.09,1.17,0.08,-7.266400000000001,-1.5355999999999987,-3.5700000000000003,175,75
2026-05-07 18:27:58.690,1,-0.08,1.19,0.19,-7.5764,-3.0656,-5.58,175,75
2026-05-07 18:27:58.690,1,0.01,1.15,0.16,-6.596400000000003,-9.1556,-6.43,175,75
2026-05-07 18:27:58.701,1,-0.02,1.15,0.13,-2.506400000000001,-5.625599999999999,-4.85,175,75
2026-05-07 18:27:58.715,1,0.09,1.12,0.24,1.6335999999999995,-14.955599999999997,-5.09,175,75
2026-05-07 18:27:58.724,1,-0.01,1.22,0.04,-0.19640000000000057,-4.3455999999999975,-5.76,175,75
2026-05-07 18:27:58.749,1,-0.02,1.23,0.23,-3.2464000000000013,-6.7155999999999985,-6.49,175,75
2026-05-07 18:27:58.749,1,0.04,1.22,0.2,-3.426400000000001,-7.265599999999999,-5.950000000000001,175,75
2026-05-07 18:27:58.769,1,0.04,1.2,0.19,-4.886400000000002,-2.395599999999998,-5.280000000000001,175,75
2026-05-07 18:27:58.785,1,0.03,1.21,0.2,-5.436400000000003,-2.8755999999999986,-4.42,175,75
2026-05-07 18:27:58.789,1,-0.01,1.27,0.14,-5.0764,-1.0456000000000003,-3.99,175,75
2026-05-07 18:27:58.810,1,0.09,1.07,0.31,-2.5764000000000014,-4.2155999999999985,0.7599999999999998,175,75
2026-05-07 18:27:58.824,1,-0.03,1.19,0.36,-8.426400000000001,-2.515599999999999,-3.9299999999999997,175,75
2026-05-07 18:27:58.832,1,-0.04,1.16,0.15,-11.296400000000002,-8.485599999999998,-5.4,175,75
2026-05-07 18:27:58.850,1,-0.02,1.16,0.27,-6.106400000000001,-8.365599999999997,-4.540000000000001,175,75
2026-05-07 18:27:58.853,1,0.06,1.12,0.07,-7.206400000000002,-10.4956,-5.950000000000001,175,75
2026-05-07 18:27:58.867,1,0.03,1.16,0.13,-7.026400000000002,-1.7855999999999987,-5.76,175,75
2026-05-07 18:27:58.878,1,0.02,1.12,0.17,-4.6464,-5.7456,-7.470000000000001,175,75
2026-05-07 18:27:58.908,1,0.01,1.16,0.18,-2.506400000000001,-5.625599999999999,-7.710000000000001,175,75
2026-05-07 18:27:58.924,1,-0.0,1.17,0.16,-1.9664000000000001,-5.3156,-7.470000000000001,175,75
2026-05-07 18:27:58.924,1,0.01,1.19,0.17,-0.4964000000000013,-6.235599999999998,-7.470000000000001,175,75
2026-05-07 18:27:58.934,1,-0.02,1.19,0.17,1.2735999999999983,-5.015599999999999,-6.130000000000001,175,75
2026-05-07 18:27:58.957,1,-0.04,1.21,0.2,-1.1064000000000007,-1.5955999999999975,-5.460000000000001,175,75
2026-05-07 18:27:58.980,1,-0.05,1.21,0.16,0.17359999999999864,-4.645599999999998,-2.9000000000000004,175,75
2026-05-07 18:27:58.992,1,-0.02,1.21,0.22,-0.19640000000000057,-6.8455999999999975,-2.4700000000000006,175,75
2026-05-07 18:27:59.017,1,-0.03,1.21,0.19,1.3335999999999988,-6.9056,-1.1300000000000008,175,75
2026-05-07 18:27:59.048,1,0.1,1.18,0.11,2.0035999999999987,-20.6256,-0.8200000000000003,175,75
2026-05-07 18:27:59.048,1,-0.08,1.21,0.18,4.1335999999999995,-0.6855999999999973,0.5199999999999996,175,75
2026-05-07 18:27:59.063,1,-0.06,1.22,0.2,2.913599999999999,-11.1756,0.8199999999999994,175,75
2026-05-07 18:27:59.081,1,-0.02,1.19,0.18,6.753599999999999,-3.1255999999999986,3.4399999999999995,175,75
2026-05-07 18:27:59.111,1,-0.01,1.18,0.2,6.813599999999999,-3.485599999999998,3.6299999999999994,175,75
2026-05-07 18:27:59.112,1,-0.02,1.19,0.18,8.1036,-4.4655999999999985,4.539999999999999,175,75
2026-05-07 18:27:59.126,1,0.02,1.16,0.23,7.063599999999999,-5.5656,3.0199999999999996,175,75
2026-05-07 18:27:59.138,1,-0.02,1.17,0.18,7.973599999999999,-2.695599999999999,2.8999999999999995,175,75
2026-05-07 18:27:59.145,1,-0.01,1.16,0.2,7.183599999999999,-8.185599999999997,2.7099999999999995,175,75
2026-05-07 18:27:59.169,1,-0.0,1.16,0.18,7.793599999999999,-7.455599999999997,2.8299999999999996,175,75
2026-05-07 18:27:59.178,1,-0.0,1.16,0.18,8.343599999999999,-8.305599999999998,3.6899999999999995,175,75
2026-05-07 18:27:59.178,1,-0.01,1.17,0.16,9.863599999999998,-7.325599999999998,4.72,175,75
2026-05-07 18:27:59.192,1,-0.02,1.15,0.15,10.5336,-5.255599999999998,5.3999999999999995,175,75
2026-05-07 18:27:59.202,1,-0.0,1.15,0.19,11.6336,-4.1556,6.49,175,75
2026-05-07 18:27:59.219,1,-0.02,1.14,0.19,12.3036,-2.695599999999999,7.59,175,75
2026-05-07 18:27:59.230,1,-0.04,1.15,0.19,11.8136,-3.5456000000000003,7.039999999999999,175,75
2026-05-07 18:27:59.250,1,-0.06,1.15,0.19,11.6336,-3.365599999999997,6.74,175,75
2026-05-07 18:27:59.270,1,-0.07,1.13,0.21,9.3836,-2.9355999999999973,6.43,175,75
2026-05-07 18:27:59.284,1,-0.09,1.13,0.2,7.303599999999999,-2.515599999999999,5.27,175,75
2026-05-07 18:27:59.295,1,-0.09,1.13,0.19,6.753599999999999,-2.325599999999998,4.97,175,75
2026-05-07 18:27:59.316,1,-0.07,1.12,0.18,6.753599999999999,-1.5955999999999975,3.51,175,75
2026-05-07 18:27:59.339,1,-0.05,1.13,0.19,6.883599999999999,-0.4355999999999973,2.59,175,75
2026-05-07 18:27:59.351,1,-0.05,1.14,0.21,5.413599999999999,-0.9255999999999993,1.9799999999999995,175,75
2026-05-07 18:27:59.363,1,-0.06,1.15,0.21,4.6236,-1.235599999999998,2.0999999999999996,175,75
2026-05-07 18:27:59.385,1,-0.05,1.14,0.18,2.913599999999999,-1.7155999999999985,1.5499999999999994,175,75
2026-05-07 18:27:59.385,1,-0.05,1.15,0.18,3.583599999999999,0.8444000000000003,1.6799999999999997,175,75
2026-05-07 18:27:59.425,1,-0.04,1.15,0.21,0.6035999999999984,2.0644000000000027,0.8799999999999994,175,75
2026-05-07 18:27:59.436,1,-0.04,1.14,0.23,-1.8364000000000011,-0.07559999999999789,0.39999999999999947,175,75
2026-05-07 18:27:59.473,1,-0.03,1.14,0.2,-3.546400000000002,0.7844000000000015,-0.09000000000000075,175,75
2026-05-07 18:27:59.486,1,-0.05,1.14,0.2,-4.336400000000001,-0.8055999999999983,0.14999999999999947,175,75
2026-05-07 18:27:59.486,1,-0.05,1.15,0.19,-4.586400000000001,-0.7455999999999996,0.3299999999999996,175,75
2026-05-07 18:27:59.498,1,-0.04,1.15,0.17,-4.276400000000002,0.4744000000000028,0.8799999999999994,175,75
2026-05-07 18:27:59.509,1,-0.04,1.15,0.17,-3.2464000000000013,2.484400000000001,1.3699999999999997,175,75
2026-05-07 18:27:59.532,1,-0.04,1.15,0.19,-2.636400000000002,3.5844000000000023,1.6199999999999997,175,75
2026-05-07 18:27:59.532,1,-0.04,1.16,0.2,-3.3664000000000023,2.9144000000000005,2.0999999999999996,175,75
2026-05-07 18:27:59.549,1,-0.05,1.15,0.21,-3.4863999999999997,2.424400000000002,2.59,175,75
2026-05-07 18:27:59.560,1,-0.05,1.16,0.21,-4.156400000000001,1.634400000000003,3.0199999999999996,175,75
2026-05-07 18:27:59.570,1,-0.06,1.17,0.2,-5.136400000000002,0.7844000000000015,4.119999999999999,175,75
2026-05-07 18:27:59.586,1,-0.06,1.15,0.19,-3.796400000000002,3.0944000000000003,5.27,175,75
2026-05-07 18:27:59.609,1,-0.06,1.16,0.19,-3.546400000000002,4.074400000000001,6.01,175,75
2026-05-07 18:27:59.620,1,-0.05,1.16,0.19,-3.6064000000000007,3.1544000000000008,5.88,175,75
2026-05-07 18:27:59.620,1,-0.05,1.16,0.17,-3.2464000000000013,3.4044000000000008,6.01,175,75
2026-05-07 18:27:59.635,1,-0.05,1.14,0.15,-1.4764000000000017,4.374400000000001,5.209999999999999,175,75
2026-05-07 18:27:59.648,1,-0.05,1.14,0.15,-0.4364000000000008,5.044400000000001,4.789999999999999,175,75
2026-05-07 18:27:59.662,1,-0.05,1.14,0.15,1.2035999999999998,6.934400000000002,3.9299999999999997,175,75
2026-05-07 18:27:59.673,1,-0.05,1.14,0.15,2.493599999999999,7.9144000000000005,3.1399999999999997,175,75
2026-05-07 18:27:59.709,1,-0.03,1.16,0.2,4.993599999999999,11.7544,2.7099999999999995,175,75
2026-05-07 18:27:59.723,1,-0.05,1.17,0.26,2.9735999999999994,8.524400000000002,2.4099999999999993,175,75
2026-05-07 18:27:59.723,1,-0.04,1.19,0.22,0.9035999999999991,4.744400000000001,2.7699999999999996,175,75
2026-05-07 18:27:59.746,1,-0.02,1.18,0.17,0.053599999999999426,4.984400000000001,4.659999999999999,175,75
2026-05-07 18:27:59.764,1,-0.01,1.17,0.17,0.7235999999999994,6.144400000000001,5.27,175,75
2026-05-07 18:27:59.790,1,-0.02,1.16,0.17,1.2035999999999998,9.254400000000002,6.25,175,75
2026-05-07 18:27:59.790,1,0.01,1.16,0.18,-0.5564000000000018,5.904400000000001,6.069999999999999,175,75
2026-05-07 18:27:59.814,1,0.01,1.15,0.17,0.47359999999999935,8.284400000000002,6.859999999999999,175,75
2026-05-07 18:27:59.828,1,0.01,1.15,0.2,0.29359999999999964,9.504400000000002,7.77,175,75
2026-05-07 18:27:59.838,1,0.0,1.17,0.2,-0.6164000000000005,7.604400000000002,8.14,175,75
2026-05-07 18:27:59.858,1,0.0,1.17,0.18,-0.9864000000000015,4.254400000000002,8.08,175,75
2026-05-07 18:27:59.891,1,-0.01,1.14,0.16,1.3335999999999988,3.4044000000000008,8.989999999999998,175,75
2026-05-07 18:27:59.908,1,-0.01,1.14,0.15,2.6735999999999986,4.134400000000001,8.809999999999999,175,75
2026-05-07 18:27:59.918,1,-0.01,1.14,0.15,3.8935999999999993,4.864400000000002,8.51,175,75
2026-05-07 18:27:59.929,1,-0.0,1.15,0.15,5.233599999999999,6.934400000000002,7.41,175,75
2026-05-07 18:27:59.941,1,-0.01,1.15,0.16,5.113599999999999,7.364400000000002,6.31,175,75
2026-05-07 18:27:59.958,1,-0.02,1.16,0.18,4.743599999999999,7.9144000000000005,5.33,175,75
2026-05-07 18:27:59.979,1,-0.01,1.17,0.2,1.8835999999999995,3.344400000000002,3.1399999999999997,175,75
2026-05-07 18:27:59.991,1,-0.01,1.18,0.16,1.0235999999999983,2.3644,2.3499999999999996,175,75
2026-05-07 18:28:00.014,1,0.0,1.19,0.16,1.4535999999999998,0.4744000000000028,1.1899999999999995,175,75
2026-05-07 18:28:00.040,1,-0.0,1.2,0.16,2.913599999999999,-0.2555999999999976,-0.21000000000000085,175,75
2026-05-07 18:28:00.061,1,0.01,1.2,0.15,5.173599999999999,-0.3155999999999999,-1.3100000000000005,175,75
2026-05-07 18:28:00.072,1,0.01,1.21,0.15,6.273599999999999,-1.1755999999999993,-1.62,175,75
2026-05-07 18:28:00.079,1,0.0,1.19,0.15,6.883599999999999,-1.235599999999998,-1.9200000000000008,175,75
2026-05-07 18:28:00.096,1,0.0,1.2,0.17,7.183599999999999,-2.395599999999998,-1.8000000000000007,175,75
2026-05-07 18:28:00.107,1,0.0,1.19,0.18,7.553599999999999,-4.2155999999999985,-1.9800000000000004,175,75
2026-05-07 18:28:00.118,1,0.0,1.19,0.17,7.733599999999999,-4.3455999999999975,-1.7400000000000002,175,75
2026-05-07 18:28:00.122,1,-0.0,1.17,0.17,8.2836,-4.765599999999999,-1.1900000000000004,175,75
2026-05-07 18:28:00.140,1,-0.0,1.15,0.17,8.163599999999999,-5.015599999999999,-0.5800000000000001,175,75
2026-05-07 18:28:00.162,1,-0.01,1.13,0.17,8.343599999999999,-3.7956000000000003,0.3299999999999996,175,75
2026-05-07 18:28:00.172,1,-0.0,1.13,0.18,8.163599999999999,-3.1255999999999986,1.3099999999999996,175,75
2026-05-07 18:28:00.184,1,-0.01,1.12,0.19,8.0336,-3.2455999999999996,1.7999999999999994,175,75
2026-05-07 18:28:00.197,1,-0.01,1.12,0.19,7.363599999999999,-3.605599999999999,2.6499999999999995,175,75
2026-05-07 18:28:00.208,1,-0.01,1.11,0.19,6.813599999999999,-3.1855999999999973,2.59,175,75
2026-05-07 18:28:00.221,1,-0.02,1.12,0.18,5.723599999999999,-2.8755999999999986,2.4699999999999998,175,75
2026-05-07 18:28:00.237,1,-0.02,1.12,0.17,5.663599999999999,-2.7555999999999976,1.7999999999999994,175,75
2026-05-07 18:28:00.248,1,-0.01,1.13,0.19,5.173599999999999,-2.265599999999999,1.6799999999999997,175,75
2026-05-07 18:28:00.268,1,-0.01,1.13,0.17,3.6435999999999993,-3.365599999999997,0.4599999999999995,175,75
2026-05-07 18:28:00.299,1,-0.03,1.11,0.16,4.1335999999999995,-1.4756,-0.5800000000000001,175,75
2026-05-07 18:28:00.309,1,-0.04,1.11,0.16,4.683599999999998,0.23440000000000083,-0.21000000000000085,175,75
2026-05-07 18:28:00.324,1,-0.04,1.12,0.17,5.173599999999999,1.9344000000000001,-0.03000000000000025,175,75
2026-05-07 18:28:00.340,1,-0.04,1.15,0.2,3.8935999999999993,2.974400000000003,0.02999999999999936,175,75
2026-05-07 18:28:00.352,1,-0.04,1.15,0.18,3.403599999999999,2.484400000000001,0.08999999999999986,175,75
2026-05-07 18:28:00.363,1,-0.03,1.15,0.19,3.6435999999999993,2.794400000000003,0.02999999999999936,175,75
2026-05-07 18:28:00.380,1,-0.03,1.15,0.17,2.913599999999999,2.3644,-0.40000000000000036,175,75
2026-05-07 18:28:00.392,1,-0.03,1.15,0.17,2.9735999999999994,2.424400000000002,0.08999999999999986,175,75
2026-05-07 18:28:00.402,1,-0.03,1.16,0.15,3.8935999999999993,2.424400000000002,0.6999999999999997,175,75
2026-05-07 18:28:00.402,1,-0.03,1.15,0.15,5.533599999999999,3.5844000000000023,0.6399999999999997,175,75
2026-05-07 18:28:00.419,1,-0.02,1.15,0.16,6.573599999999999,3.5844000000000023,1.3699999999999997,175,75
2026-05-07 18:28:00.462,1,-0.0,1.13,0.16,10.5336,6.084400000000002,1.3099999999999996,175,75
2026-05-07 18:28:00.488,1,0.01,1.1,0.16,9.0136,2.734400000000001,-1.0100000000000007,175,75
2026-05-07 18:28:00.500,1,0.01,1.1,0.17,9.073599999999999,1.7544000000000004,-1.3100000000000005,175,75
2026-05-07 18:28:00.514,1,0.01,1.1,0.17,7.243599999999999,1.144400000000001,-1.8000000000000007,175,75
2026-05-07 18:28:00.528,1,0.01,1.09,0.15,5.603599999999999,0.8444000000000003,-2.170000000000001,175,75
2026-05-07 18:28:00.549,1,-0.01,1.09,0.18,4.313599999999999,1.9344000000000001,-1.4300000000000006,175,75
2026-05-07 18:28:00.569,1,-0.01,1.08,0.18,1.9435999999999982,0.7844000000000015,-1.25,175,75
2026-05-07 18:28:00.579,1,-0.02,1.09,0.17,1.6935999999999982,1.264400000000002,-1.4300000000000006,175,75
2026-05-07 18:28:00.597,1,-0.02,1.09,0.18,1.2735999999999983,2.1844,-1.25,175,75
2026-05-07 18:28:00.611,1,-0.01,1.09,0.17,0.9035999999999991,1.7544000000000004,-1.1300000000000008,175,75
2026-05-07 18:28:00.624,1,-0.02,1.09,0.18,0.17359999999999864,1.634400000000003,-1.5600000000000005,175,75
2026-05-07 18:28:00.627,1,-0.02,1.1,0.16,-0.4364000000000008,0.3544000000000018,-1.8600000000000003,175,75
2026-05-07 18:28:00.643,1,-0.01,1.11,0.14,-0.07640000000000136,1.3244000000000007,-2.41,175,75
2026-05-07 18:28:00.655,1,-0.01,1.11,0.15,0.29359999999999964,1.9344000000000001,-2.6500000000000004,175,75
2026-05-07 18:28:00.676,1,-0.01,1.12,0.16,1.3335999999999988,1.8744000000000014,-4.85,175,75
2026-05-07 18:28:00.688,1,-0.02,1.12,0.15,1.6935999999999982,2.3644,-5.09,175,75
2026-05-07 18:28:00.698,1,-0.02,1.13,0.16,2.0035999999999987,2.0644000000000027,-5.210000000000001,175,75
2026-05-07 18:28:00.725,1,-0.01,1.12,0.15,3.3435999999999986,5.174400000000002,-4.48,175,75
2026-05-07 18:28:00.746,1,-0.02,1.13,0.19,3.2235999999999994,5.964400000000001,-3.380000000000001,175,75
2026-05-07 18:28:00.772,1,-0.02,1.12,0.17,2.063599999999999,4.564400000000001,-2.8400000000000007,175,75
2026-05-07 18:28:00.796,1,-0.01,1.1,0.17,1.7535999999999987,4.374400000000001,-2.9000000000000004,175,75
2026-05-07 18:28:00.826,1,-0.0,1.1,0.15,1.8135999999999992,1.8144000000000027,-2.4700000000000006,175,75
2026-05-07 18:28:00.826,1,0.0,1.09,0.14,2.243599999999999,2.604400000000002,-2.29,175,75
2026-05-07 18:28:00.839,1,-0.01,1.1,0.15,3.3435999999999986,3.5244000000000018,-1.25,175,75
2026-05-07 18:28:00.863,1,0.0,1.1,0.13,4.923599999999999,5.044400000000001,-1.3100000000000005,175,75
2026-05-07 18:28:00.863,1,0.03,1.09,0.15,4.923599999999999,4.744400000000001,-0.7600000000000007,175,75
2026-05-07 18:28:00.875,1,0.02,1.08,0.15,4.683599999999998,5.044400000000001,-1.0100000000000007,175,75
2026-05-07 18:28:00.898,1,0.01,1.08,0.18,3.1035999999999984,2.604400000000002,-0.34000000000000075,175,75
2026-05-07 18:28:00.923,1,0.01,1.07,0.17,1.6335999999999995,2.304400000000001,0.20999999999999996,175,75
2026-05-07 18:28:00.932,1,0.02,1.07,0.15,1.3335999999999988,2.484400000000001,1.1299999999999994,175,75
2026-05-07 18:28:00.944,1,0.02,1.06,0.17,0.7235999999999994,2.734400000000001,1.9799999999999995,175,75
2026-05-07 18:28:00.959,1,0.02,1.07,0.17,-0.19640000000000057,2.794400000000003,2.7099999999999995,175,75
2026-05-07 18:28:00.971,1,0.01,1.08,0.17,-0.8064000000000018,2.1244000000000014,3.26,175,75
2026-05-07 18:28:01.000,1,0.01,1.08,0.16,-0.6864000000000008,2.0644000000000027,4.239999999999999,175,75
2026-05-07 18:28:01.000,1,0.01,1.09,0.15,-0.6164000000000005,2.0644000000000027,4.4799999999999995,175,75
2026-05-07 18:28:01.020,1,-0.01,1.09,0.15,-0.0064000000000010715,2.304400000000001,4.359999999999999,175,75
2026-05-07 18:28:01.020,1,-0.01,1.1,0.15,0.11359999999999815,2.484400000000001,4.18,175,75
2026-05-07 18:28:01.042,1,-0.0,1.1,0.15,0.5335999999999999,2.484400000000001,4.3,175,75
2026-05-07 18:28:01.086,1,-0.0,1.11,0.16,1.3935999999999993,-0.01559999999999917,2.9599999999999995,175,75
2026-05-07 18:28:01.104,1,-0.0,1.1,0.15,1.2735999999999983,-0.13560000000000016,2.8999999999999995,175,75
2026-05-07 18:28:01.114,1,0.0,1.11,0.16,1.8135999999999992,-0.3755999999999986,2.8999999999999995,175,75
2026-05-07 18:28:01.125,1,0.01,1.1,0.14,1.3335999999999988,-0.19559999999999889,3.3799999999999994,175,75
2026-05-07 18:28:01.133,1,0.01,1.09,0.14,1.8835999999999995,0.8444000000000003,3.9899999999999993,175,75
2026-05-07 18:28:01.148,1,0.01,1.09,0.15,2.063599999999999,1.6944000000000017,4.4799999999999995,175,75
2026-05-07 18:28:01.159,1,0.02,1.09,0.16,2.063599999999999,1.634400000000003,5.3999999999999995,175,75
2026-05-07 18:28:01.174,1,0.02,1.09,0.16,2.1235999999999997,1.514400000000002,5.3999999999999995,175,75
2026-05-07 18:28:01.174,1,0.02,1.09,0.16,2.243599999999999,1.5744000000000007,5.699999999999999,175,75
2026-05-07 18:28:01.185,1,0.02,1.08,0.16,1.573599999999999,1.144400000000001,5.76,175,75
2026-05-07 18:28:01.214,1,0.02,1.08,0.16,0.5335999999999999,1.2043999999999997,5.64,175,75
2026-05-07 18:28:01.228,1,0.02,1.07,0.16,0.47359999999999935,1.2043999999999997,6.13,175,75
2026-05-07 18:28:01.240,1,0.02,1.06,0.16,-0.07640000000000136,0.7144000000000013,5.52,175,75
2026-05-07 18:28:01.248,1,0.02,1.06,0.17,-0.926400000000001,-0.13560000000000016,5.09,175,75
2026-05-07 18:28:01.256,1,0.01,1.06,0.17,-2.5764000000000014,-1.5955999999999975,4.05,175,75
2026-05-07 18:28:01.280,1,0.02,1.07,0.15,-4.096400000000003,-2.0855999999999995,2.7699999999999996,175,75
2026-05-07 18:28:01.318,1,0.02,1.07,0.16,-6.296400000000002,-1.355599999999999,0.6399999999999997,175,75
2026-05-07 18:28:01.340,1,-0.0,1.11,0.16,-8.4864,-3.9155999999999977,0.3299999999999996,175,75
2026-05-07 18:28:01.361,1,-0.0,1.12,0.16,-8.9164,-4.895599999999998,0.8799999999999994,175,75
2026-05-07 18:28:01.361,1,0.0,1.12,0.15,-9.0364,-3.6755999999999993,1.3099999999999996,175,75
2026-05-07 18:28:01.387,1,-0.01,1.12,0.18,-8.6664,-3.4255999999999993,1.9799999999999995,175,75
2026-05-07 18:28:01.402,1,-0.01,1.13,0.17,-8.4864,-4.525599999999997,2.2199999999999998,175,75
2026-05-07 18:28:01.421,1,-0.01,1.12,0.15,-7.086400000000001,-3.7956000000000003,4.18,175,75
2026-05-07 18:28:01.438,1,-0.01,1.12,0.14,-5.8064,-2.575599999999998,4.85,175,75
2026-05-07 18:28:01.448,1,-0.0,1.1,0.15,-4.6464,-1.235599999999998,5.209999999999999,175,75
2026-05-07 18:28:01.460,1,-0.0,1.11,0.16,-4.156400000000001,-1.7155999999999985,5.209999999999999,175,75
2026-05-07 18:28:01.482,1,-0.02,1.11,0.15,-1.9664000000000001,1.394400000000001,5.76,175,75
2026-05-07 18:28:01.494,1,-0.02,1.11,0.16,-2.0264000000000006,3.2144000000000013,5.88,175,75
2026-05-07 18:28:01.504,1,-0.02,1.11,0.17,-2.386400000000002,3.764400000000002,5.76,175,75
2026-05-07 18:28:01.512,1,-0.02,1.11,0.18,-2.3264000000000014,3.344400000000002,5.459999999999999,175,75
2026-05-07 18:28:01.537,1,-0.02,1.13,0.17,-4.2164,2.1844,4.6,175,75
2026-05-07 18:28:01.553,1,-0.01,1.14,0.16,-4.6464,2.544400000000003,3.7499999999999996,175,75
2026-05-07 18:28:01.553,1,-0.01,1.14,0.15,-4.706400000000002,3.1544000000000008,3.3199999999999994,175,75
2026-05-07 18:28:01.564,1,-0.01,1.13,0.17,-4.586400000000001,3.4644000000000013,2.1599999999999997,175,75
2026-05-07 18:28:01.575,1,-0.0,1.14,0.17,-5.746400000000001,3.2844000000000015,1.5499999999999994,175,75
2026-05-07 18:28:01.612,1,-0.01,1.15,0.16,-5.436400000000003,4.504400000000002,-0.34000000000000075,175,75
2026-05-07 18:28:01.628,1,-0.01,1.15,0.16,-5.256399999999999,5.104400000000002,-1.4300000000000006,175,75
2026-05-07 18:28:01.639,1,-0.01,1.14,0.15,-5.136400000000002,5.964400000000001,-1.9800000000000004,175,75
2026-05-07 18:28:01.656,1,-0.01,1.15,0.18,-4.6464,5.354400000000002,-2.04,175,75
2026-05-07 18:28:01.667,1,-0.01,1.14,0.15,-3.4863999999999997,6.4544000000000015,-2.6500000000000004,175,75
2026-05-07 18:28:01.687,1,-0.0,1.14,0.17,-3.2464000000000013,6.324400000000001,-2.9000000000000004,175,75
2026-05-07 18:28:01.698,1,-0.01,1.14,0.16,-3.4863999999999997,3.7044000000000015,-3.380000000000001,175,75
2026-05-07 18:28:01.728,1,0.02,1.15,0.15,-2.6964000000000006,2.1244000000000014,-3.2,175,75
2026-05-07 18:28:01.749,1,0.02,1.15,0.14,-2.3264000000000014,2.544400000000003,-3.08,175,75
2026-05-07 18:28:01.749,1,0.03,1.14,0.16,-2.086400000000001,2.854400000000002,-2.7800000000000002,175,75
2026-05-07 18:28:01.758,1,0.03,1.13,0.16,-2.086400000000001,2.544400000000003,-2.5900000000000007,175,75
2026-05-07 18:28:01.776,1,0.02,1.13,0.16,-2.086400000000001,1.264400000000002,-2.3500000000000005,175,75
2026-05-07 18:28:01.776,1,0.03,1.14,0.15,-2.1464000000000016,1.144400000000001,-2.29,175,75
2026-05-07 18:28:01.796,1,0.02,1.14,0.15,-1.2964000000000002,1.4543999999999997,-2.170000000000001,175,75
2026-05-07 18:28:01.828,1,0.02,1.14,0.16,-1.2964000000000002,-0.865599999999997,-2.6500000000000004,175,75
2026-05-07 18:28:01.838,1,0.02,1.13,0.13,-0.6864000000000008,-0.8055999999999983,-2.8400000000000007,175,75
2026-05-07 18:28:01.854,1,0.01,1.15,0.15,0.17359999999999864,-0.865599999999997,-3.380000000000001,175,75
2026-05-07 18:28:01.861,1,0.01,1.15,0.15,0.5335999999999999,-1.7155999999999985,-3.9299999999999997,175,75
2026-05-07 18:28:01.874,1,0.01,1.15,0.15,0.8435999999999986,-1.9655999999999985,-4.300000000000001,175,75
2026-05-07 18:28:01.885,1,0.01,1.15,0.16,1.2735999999999983,-2.325599999999998,-4.91,175,75
2026-05-07 18:28:01.896,1,-0.01,1.16,0.17,1.5135999999999985,-2.8755999999999986,-5.58,175,75
2026-05-07 18:28:01.909,1,-0.0,1.16,0.16,1.8835999999999995,-2.6356,-5.58,175,75
2026-05-07 18:28:01.958,1,-0.01,1.15,0.15,3.583599999999999,-1.4155999999999977,-3.99,175,75
2026-05-07 18:28:01.969,1,-0.01,1.15,0.16,3.583599999999999,-1.4155999999999977,-4.24,175,75
2026-05-07 18:28:01.988,1,-0.01,1.13,0.16,3.9536,-0.8055999999999983,-4.42,175,75
2026-05-07 18:28:01.994,1,-0.01,1.13,0.17,3.9536,-1.355599999999999,-4.360000000000001,175,75
2026-05-07 18:28:02.008,1,-0.02,1.14,0.17,4.313599999999999,-0.9255999999999993,-4.73,175,75
2026-05-07 18:28:02.020,1,-0.01,1.13,0.18,3.7036,-1.235599999999998,-4.48,175,75
2026-05-07 18:28:02.047,1,-0.01,1.14,0.16,3.833599999999999,-1.5355999999999987,-3.9299999999999997,175,75
2026-05-07 18:28:02.055,1,-0.01,1.12,0.17,4.0135999999999985,-1.4155999999999977,-3.380000000000001,175,75
2026-05-07 18:28:02.066,1,-0.0,1.12,0.17,4.3835999999999995,-1.4756,-2.7800000000000002,175,75
2026-05-07 18:28:02.081,1,0.0,1.12,0.16,4.193599999999998,-1.5355999999999987,-2.6500000000000004,175,75
2026-05-07 18:28:02.093,1,0.0,1.12,0.17,4.3835999999999995,-1.5955999999999975,-2.5900000000000007,175,75
2026-05-07 18:28:02.105,1,0.02,1.13,0.14,4.503599999999999,-2.9955999999999996,-2.170000000000001,175,75
2026-05-07 18:28:02.127,1,0.02,1.12,0.16,5.173599999999999,-3.7956000000000003,-2.4700000000000006,175,75
2026-05-07 18:28:02.133,1,0.02,1.13,0.15,4.993599999999999,-4.285599999999999,-2.6500000000000004,175,75
2026-05-07 18:28:02.151,1,0.01,1.11,0.15,5.293599999999999,-4.0955999999999975,-2.4700000000000006,175,75
2026-05-07 18:28:02.172,1,0.01,1.12,0.17,5.603599999999999,-4.4655999999999985,-2.2300000000000004,175,75
2026-05-07 18:28:02.186,1,-0.0,1.12,0.18,4.683599999999998,-5.685599999999997,-2.3500000000000005,175,75
2026-05-07 18:28:02.198,1,-0.01,1.12,0.17,4.743599999999999,-6.235599999999998,-2.2300000000000004,175,75
2026-05-07 18:28:02.210,1,-0.01,1.11,0.15,4.863599999999998,-5.625599999999999,-1.8000000000000007,175,75
2026-05-07 18:28:02.234,1,-0.03,1.12,0.21,6.753599999999999,-5.255599999999998,-1.9200000000000008,175,75
2026-05-07 18:28:02.267,1,-0.02,1.11,0.2,4.923599999999999,-7.575599999999998,-3.08,175,75
2026-05-07 18:28:02.282,1,-0.05,1.11,0.17,5.603599999999999,-4.825599999999998,-3.08,175,75
2026-05-07 18:28:02.285,1,-0.05,1.1,0.17,5.353599999999999,-5.925599999999999,-3.1400000000000006,175,75
2026-05-07 18:28:02.298,1,-0.01,1.09,0.16,5.903599999999999,-5.685599999999997,-2.8400000000000007,175,75
2026-05-07 18:28:02.321,1,-0.05,1.11,0.16,6.083599999999999,-3.6755999999999993,-2.29,175,75
2026-05-07 18:28:02.333,1,-0.05,1.09,0.16,7.363599999999999,-0.13560000000000016,-1.4900000000000002,175,75
2026-05-07 18:28:02.345,1,-0.05,1.09,0.18,7.303599999999999,-0.07559999999999789,-1.37,175,75
2026-05-07 18:28:02.369,1,-0.03,1.08,0.21,5.293599999999999,0.7144000000000013,-0.9500000000000002,175,75
2026-05-07 18:28:02.383,1,-0.05,1.08,0.18,4.443599999999998,1.0244,-0.5200000000000005,175,75
2026-05-07 18:28:02.394,1,-0.05,1.07,0.2,2.9735999999999994,2.2444000000000024,-0.03000000000000025,175,75
2026-05-07 18:28:02.412,1,-0.07,1.06,0.18,1.2035999999999998,5.4144000000000005,0.2699999999999996,175,75
2026-05-07 18:28:02.424,1,-0.06,1.05,0.21,-0.4364000000000008,7.9144000000000005,0.2699999999999996,175,75
2026-05-07 18:28:02.438,1,-0.05,1.05,0.2,-2.636400000000002,7.674400000000002,-0.7000000000000002,175,75
2026-05-07 18:28:02.449,1,-0.05,1.04,0.18,-3.9764000000000017,9.684400000000002,-1.37,175,75
2026-05-07 18:28:02.450,1,-0.05,1.05,0.19,-5.196400000000001,10.2344,-3.1400000000000006,175,75
2026-05-07 18:28:02.480,1,-0.04,1.04,0.16,-7.026400000000002,13.034400000000002,-6.68,175,75
2026-05-07 18:28:02.491,1,-0.05,1.05,0.15,-7.446400000000001,14.744400000000002,-8.32,175,75
2026-05-07 18:28:02.501,1,-0.05,1.07,0.18,-8.6064,15.294400000000001,-10.030000000000001,175,75
2026-05-07 18:28:02.513,1,-0.05,1.09,0.19,-9.6464,15.354400000000002,-10.950000000000001,175,75
2026-05-07 18:28:02.531,1,-0.04,1.11,0.18,-11.046400000000002,13.954400000000001,-13.02,175,75
2026-05-07 18:28:02.531,1,-0.04,1.13,0.15,-10.5564,14.494400000000002,-12.780000000000001,175,75
2026-05-07 18:28:02.546,1,-0.04,1.13,0.14,-10.1964,17.244400000000002,-12.900000000000002,175,75
2026-05-07 18:28:02.558,1,-0.03,1.13,0.16,-8.546400000000002,17.974400000000003,-12.469999999999999,175,75
2026-05-07 18:28:02.570,1,0.0,1.13,0.18,-8.116400000000002,16.6344,-12.96,175,75
2026-05-07 18:28:02.581,1,-0.01,1.15,0.16,-7.386400000000002,15.534400000000002,-12.59,175,75
2026-05-07 18:28:02.594,1,0.03,1.16,0.1,-4.8264,15.594400000000002,-10.88,175,75
2026-05-07 18:28:02.621,1,0.03,1.17,0.14,-2.636400000000002,14.864400000000002,-8.99,175,75
2026-05-07 18:28:02.651,1,0.04,1.16,0.11,0.35359999999999836,13.8244,-5.460000000000001,175,75
2026-05-07 18:28:02.661,1,0.04,1.14,0.13,1.8135999999999992,15.474400000000001,-4.300000000000001,175,75
2026-05-07 18:28:02.706,1,0.03,1.12,0.13,2.613599999999998,10.044400000000001,-1.1300000000000008,175,75
2026-05-07 18:28:02.716,1,-0.0,1.12,0.1,4.1335999999999995,10.9044,-0.40000000000000036,175,75
2026-05-07 18:28:02.750,1,0.05,1.09,0.12,4.923599999999999,7.184400000000002,-1.0700000000000003,175,75
2026-05-07 18:28:02.765,1,0.02,1.09,0.12,6.943599999999999,11.084400000000002,-1.3100000000000005,175,75
2026-05-07 18:28:02.765,1,0.06,1.09,0.12,8.8936,6.694400000000002,-1.62,175,75
2026-05-07 18:28:02.791,1,0.05,1.09,0.19,11.083599999999999,5.904400000000001,-2.41,175,75
2026-05-07 18:28:02.808,1,0.07,1.09,0.08,17.5536,10.174400000000002,-3.1400000000000006,175,75
2026-05-07 18:28:02.819,1,0.06,1.08,0.12,19.6836,12.1844,-3.9299999999999997,175,75
2026-05-07 18:28:02.819,1,0.07,1.1,0.13,19.6236,7.124400000000001,-4.6,175,75
2026-05-07 18:28:02.829,1,0.08,1.1,0.12,19.383599999999998,6.874400000000001,-5.210000000000001,175,75
2026-05-07 18:28:02.839,1,0.08,1.1,0.15,18.953599999999998,3.764400000000002,-6.92,175,75
2026-05-07 18:28:02.854,1,0.04,1.1,0.09,19.6236,6.514400000000002,-6.98,175,75
2026-05-07 18:28:02.886,1,0.05,1.06,0.06,21.4536,9.0744,-8.38,175,75
2026-05-07 18:28:02.901,1,0.05,1.04,0.04,24.2536,16.5744,-9.67,175,75
2026-05-07 18:28:02.934,1,0.05,1.05,0.2,25.0536,5.7844000000000015,-18.32,175,75
2026-05-07 18:28:02.934,1,-0.03,1.04,0.0,30.7836,12.4844,-20.03,175,75
2026-05-07 18:28:02.973,1,0.0,1.08,0.02,35.2936,21.9344,-20.88,175,75
2026-05-07 18:28:02.973,1,0.06,1.09,0.21,35.4736,18.9544,-19.91,175,75
2026-05-07 18:28:03.008,1,0.12,1.08,0.21,28.9536,5.714400000000001,-18.81,175,75
2026-05-07 18:28:03.020,1,0.06,1.11,0.05,29.313599999999997,13.644400000000001,-19.54,175,75
2026-05-07 18:28:03.032,1,0.08,1.04,0.07,22.6736,8.704400000000001,-17.900000000000002,175,75
2026-05-07 18:28:03.032,1,0.19,0.93,0.29,20.6636,8.8244,-18.57,175,75
2026-05-07 18:28:03.044,1,0.09,0.93,0.19,8.163599999999999,-7.145599999999998,-18.990000000000002,175,75
2026-05-07 18:28:03.056,1,0.08,0.93,0.13,5.293599999999999,-0.5655999999999999,-20.21,175,75
2026-05-07 18:28:03.096,1,0.01,0.94,0.16,-2.266400000000001,8.464400000000001,-20.88,175,75
2026-05-07 18:28:03.096,1,0.02,0.93,0.13,-3.8564000000000007,20.044400000000003,-22.53,175,75
2026-05-07 18:28:03.101,1,0.02,0.89,0.29,-9.0364,19.744400000000002,-21.8,175,75
2026-05-07 18:28:03.131,1,0.06,0.91,0.27,-16.1664,4.014400000000002,-19.97,175,75
2026-05-07 18:28:03.131,1,-0.03,0.92,0.14,-19.6464,9.624400000000001,-17.96,175,75
2026-05-07 18:28:03.137,1,-0.01,0.9,0.16,-18.7264,18.9544,-16.86,175,75
2026-05-07 18:28:03.145,1,-0.01,0.85,0.2,-19.886400000000002,20.354400000000002,-15.46,175,75
2026-05-07 18:28:03.151,1,-0.01,0.83,0.2,-21.5364,19.8044,-15.400000000000002,175,75
2026-05-07 18:28:03.212,1,0.0,0.84,0.11,-25.806400000000004,20.104400000000002,-13.57,175,75
2026-05-07 18:28:03.234,1,0.1,0.9,0.17,-27.636400000000002,29.3144,-16.62,175,75
2026-05-07 18:28:03.259,1,0.16,0.96,0.1,-27.266400000000004,30.904400000000003,-18.93,175,75
2026-05-07 18:28:03.267,1,0.21,1.04,0.1,-24.156399999999998,39.3744,-18.32,175,75
2026-05-07 18:28:03.315,1,0.24,1.04,0.16,-25.136400000000002,39.9844,-17.650000000000002,175,75
2026-05-07 18:28:03.316,1,0.28,1.06,0.11,-27.7564,35.2344,-15.09,175,75
2026-05-07 18:28:03.326,1,0.27,1.06,0.11,-28.5464,36.3244,-14.3,175,75
2026-05-07 18:28:03.387,1,0.33,1.1,0.08,-29.336399999999998,26.994400000000002,-6.5600000000000005,175,75
2026-05-07 18:28:03.410,1,0.32,1.06,0.12,-25.2564,13.3444,-9.73,175,75
2026-05-07 18:28:03.430,1,0.29,1.11,0.09,-22.446400000000004,7.304400000000001,-8.63,175,75
2026-05-07 18:28:03.434,1,0.26,1.15,0.05,-20.4964,4.984400000000001,-7.84,175,75
2026-05-07 18:28:03.455,1,0.21,1.19,0.12,-14.4664,-3.1855999999999973,-3.630000000000001,175,75
2026-05-07 18:28:03.478,1,0.18,1.17,0.11,-11.5364,-10.195599999999999,0.8799999999999994,175,75
2026-05-07 18:28:03.488,1,0.21,1.15,0.07,-10.746400000000001,-10.9256,0.6999999999999997,175,75
2026-05-07 18:28:03.557,1,0.24,1.13,0.1,-8.726400000000002,-13.675599999999996,-2.41,175,75
2026-05-07 18:28:03.569,1,0.24,1.16,0.11,-8.426400000000001,-16.175599999999996,-3.8100000000000005,175,75
2026-05-07 18:28:03.584,1,0.19,1.19,0.09,-5.0764,-19.095599999999997,-4.91,175,75
2026-05-07 18:28:03.584,1,0.17,1.17,0.09,-4.0364,-18.485599999999998,-5.460000000000001,175,75
2026-05-07 18:28:03.596,1,0.15,1.17,0.12,-4.3964,-20.565599999999996,-4.91,175,75
2026-05-07 18:28:03.622,1,0.15,1.17,0.08,-4.2164,-20.1956,-1.7400000000000002,175,75
2026-05-07 18:28:03.632,1,0.19,1.15,0.13,-3.546400000000002,-21.715600000000002,-2.29,175,75
2026-05-07 18:28:03.643,1,0.18,1.14,0.13,-1.8364000000000011,-19.705599999999997,-1.6800000000000006,175,75
2026-05-07 18:28:03.725,1,0.18,1.09,0.19,1.0835999999999988,-24.215600000000002,2.1599999999999997,175,75
2026-05-07 18:28:03.725,1,0.1,1.12,0.07,0.6035999999999984,-21.2956,3.0199999999999996,175,75
2026-05-07 18:28:03.734,1,0.13,1.11,0.17,-0.31640000000000157,-24.8956,3.4399999999999995,175,75
2026-05-07 18:28:03.740,1,0.11,1.12,0.09,-0.31640000000000157,-24.8956,3.5699999999999994,175,75
2026-05-07 18:28:03.752,1,0.14,1.1,0.15,0.6635999999999989,-24.465600000000002,3.8099999999999996,175,75
2026-05-07 18:28:03.756,1,0.1,1.11,0.13,0.8435999999999986,-23.9756,4.239999999999999,175,75
2026-05-07 18:28:03.769,1,0.11,1.12,0.2,1.9435999999999982,-26.0456,5.209999999999999,175,75
2026-05-07 18:28:03.936,1,0.08,1.15,0.1,0.17359999999999864,-22.2656,6.74,175,75
2026-05-07 18:28:03.947,1,0.07,1.14,0.17,1.6335999999999995,-24.8256,6.799999999999999,175,75
2026-05-07 18:28:03.947,1,0.08,1.11,0.07,2.243599999999999,-24.1556,6.13,175,75
2026-05-07 18:28:03.947,1,0.03,1.12,0.12,2.7935999999999996,-19.285599999999995,6.43,175,75
2026-05-07 18:28:03.947,1,0.05,1.13,0.15,3.8935999999999993,-24.095599999999997,5.64,175,75
2026-05-07 18:28:03.947,1,0.07,1.12,0.07,5.663599999999999,-22.2656,4.6,175,75
2026-05-07 18:28:03.959,1,0.01,1.13,0.1,7.243599999999999,-14.035599999999995,3.51,175,75
2026-05-07 18:28:03.959,1,0.03,1.12,0.17,6.883599999999999,-17.9356,1.5499999999999994,175,75
2026-05-07 18:28:03.964,1,-0.02,1.14,0.18,8.1036,-17.3956,0.8199999999999994,175,75
2026-05-07 18:28:03.991,1,0.01,1.16,0.13,7.973599999999999,-15.925599999999996,0.39999999999999947,175,75
2026-05-07 18:28:04.025,1,-0.04,1.14,0.14,10.353599999999998,-9.095599999999997,0.7599999999999998,175,75
2026-05-07 18:28:04.037,1,-0.04,1.15,0.15,8.703599999999998,-11.845599999999997,1.8599999999999994,175,75
2026-05-07 18:28:04.037,1,0.01,1.13,0.18,8.703599999999998,-12.695599999999999,1.6799999999999997,175,75
2026-05-07 18:28:04.048,1,-0.04,1.12,0.12,9.503599999999999,-6.175599999999999,2.0999999999999996,175,75
2026-05-07 18:28:04.065,1,0.0,1.1,0.19,9.4436,-8.365599999999997,1.7399999999999998,175,75
2026-05-07 18:28:04.065,1,-0.01,1.09,0.15,8.583599999999999,-7.515599999999999,1.9799999999999995,175,75
2026-05-07 18:28:04.077,1,0.03,1.08,0.17,7.003599999999999,-10.625599999999999,1.6799999999999997,175,75
2026-05-07 18:28:04.111,1,0.01,1.07,0.13,7.063599999999999,-6.105599999999999,1.8599999999999994,175,75
2026-05-07 18:28:04.147,1,0.02,1.06,0.17,7.243599999999999,-3.3055999999999983,1.3099999999999996,175,75
2026-05-07 18:28:04.157,1,0.01,1.06,0.15,6.573599999999999,-5.075599999999998,1.4899999999999998,175,75
2026-05-07 18:28:04.171,1,0.01,1.09,0.17,5.053599999999999,-5.375599999999999,2.8299999999999996,175,75
2026-05-07 18:28:04.191,1,0.01,1.09,0.18,2.5535999999999994,-8.4256,3.4399999999999995,175,75
2026-05-07 18:28:04.203,1,0.01,1.08,0.17,1.7535999999999987,-9.035599999999999,3.8699999999999997,175,75
2026-05-07 18:28:04.235,1,0.02,1.08,0.12,2.913599999999999,-5.865599999999997,5.52,175,75
2026-05-07 18:28:04.235,1,0.02,1.08,0.18,2.733599999999999,-5.1356,6.799999999999999,175,75
2026-05-07 18:28:04.246,1,0.0,1.08,0.16,2.493599999999999,-5.4956,6.68,175,75
2026-05-07 18:28:04.257,1,0.01,1.09,0.17,2.0035999999999987,-6.6556,6.74,175,75
2026-05-07 18:28:04.275,1,0.0,1.08,0.13,2.6735999999999986,-5.865599999999997,6.25,175,75
2026-05-07 18:28:04.299,1,0.02,1.09,0.17,3.2235999999999994,-5.985599999999998,6.799999999999999,175,75
2026-05-07 18:28:04.311,1,0.0,1.09,0.15,3.0336,-7.9956,6.859999999999999,175,75
2026-05-07 18:28:04.344,1,0.0,1.1,0.13,5.843599999999999,-7.205599999999997,7.6499999999999995,175,75
2026-05-07 18:28:04.360,1,0.0,1.1,0.15,6.883599999999999,-8.5456,8.57,175,75
2026-05-07 18:28:04.420,1,-0.0,1.11,0.14,9.503599999999999,-5.255599999999998,9.6,175,75
2026-05-07 18:28:04.431,1,-0.0,1.1,0.14,10.0536,-5.3156,9.12,175,75
2026-05-07 18:28:04.441,1,-0.01,1.1,0.16,10.2936,-5.195599999999999,8.379999999999999,175,75
2026-05-07 18:28:04.484,1,-0.03,1.08,0.17,9.8036,-5.375599999999999,7.77,175,75
2026-05-07 18:28:04.494,1,-0.05,1.08,0.18,9.503599999999999,-6.2956,6.9799999999999995,175,75
2026-05-07 18:28:04.505,1,-0.06,1.08,0.18,8.703599999999998,-6.235599999999998,6.369999999999999,175,75
2026-05-07 18:28:04.513,1,-0.06,1.08,0.2,8.6436,-6.2956,4.359999999999999,175,75
2026-05-07 18:28:04.513,1,-0.07,1.09,0.19,7.423599999999999,-8.4256,3.1999999999999993,175,75
2026-05-07 18:28:04.523,1,-0.06,1.08,0.17,6.393599999999999,-9.285599999999999,1.5499999999999994,175,75
2026-05-07 18:28:04.564,1,-0.06,1.09,0.19,5.903599999999999,-7.755599999999998,0.39999999999999947,175,75
2026-05-07 18:28:04.564,1,-0.06,1.1,0.18,5.233599999999999,-8.915599999999998,-1.0700000000000003,175,75
2026-05-07 18:28:04.576,1,-0.03,1.08,0.16,4.443599999999998,-7.695599999999999,-3.08,175,75
2026-05-07 18:28:04.616,1,-0.04,1.08,0.15,2.8535999999999984,-8.485599999999998,-4.6,175,75
2026-05-07 18:28:04.679,1,-0.07,1.07,0.15,2.5535999999999994,-8.855599999999999,-2.6500000000000004,175,75
2026-05-07 18:28:04.679,1,-0.04,1.06,0.19,2.7935999999999996,-9.525599999999997,-1.9800000000000004,175,75
2026-05-07 18:28:04.682,1,-0.04,1.06,0.19,4.863599999999998,-7.8156,-0.5200000000000005,175,75
2026-05-07 18:28:04.703,1,-0.04,1.04,0.21,4.743599999999999,-6.5955999999999975,1.3099999999999996,175,75
2026-05-07 18:28:04.718,1,-0.06,1.04,0.15,5.173599999999999,-7.6356,3.0799999999999996,175,75
2026-05-07 18:28:04.736,1,-0.05,1.04,0.16,5.783599999999999,-7.145599999999998,3.6299999999999994,175,75
2026-05-07 18:28:04.796,1,-0.07,1.05,0.18,3.583599999999999,-7.875599999999999,6.01,175,75
2026-05-07 18:28:04.811,1,-0.06,1.03,0.18,4.1335999999999995,-5.625599999999999,6.13,175,75
2026-05-07 18:28:04.826,1,-0.06,1.02,0.19,3.2836,-4.4655999999999985,5.88,175,75
2026-05-07 18:28:04.826,1,-0.06,1.02,0.21,1.7535999999999987,-6.8455999999999975,5.52,175,75
2026-05-07 18:28:04.838,1,-0.07,1.02,0.18,-0.13640000000000185,-6.4756,4.4799999999999995,175,75
2026-05-07 18:28:04.870,1,-0.07,1.03,0.17,-0.4364000000000008,-4.4056,2.0999999999999996,175,75
2026-05-07 18:28:04.870,1,-0.08,1.04,0.18,-0.3764000000000003,-4.035599999999999,1.2499999999999996,175,75
2026-05-07 18:28:04.898,1,-0.09,1.06,0.19,-0.6864000000000008,-5.3156,0.2699999999999996,175,75
2026-05-07 18:28:04.992,1,-0.08,1.04,0.18,3.6435999999999993,-2.8156,4.4799999999999995,175,75
2026-05-07 18:28:04.992,1,-0.07,1.06,0.19,4.863599999999998,-2.145599999999998,4.3,175,75
2026-05-07 18:28:04.992,1,-0.08,1.07,0.17,4.193599999999998,-3.2455999999999996,4.119999999999999,175,75
2026-05-07 18:28:05.003,1,-0.08,1.06,0.2,4.563599999999999,-2.9955999999999996,3.51,175,75
2026-05-07 18:28:05.012,1,-0.1,1.06,0.2,4.1335999999999995,-3.6755999999999993,3.6899999999999995,175,75
2026-05-07 18:28:05.065,1,-0.1,1.04,0.17,4.563599999999999,-2.455599999999997,4.359999999999999,175,75
2026-05-07 18:28:05.065,1,-0.1,1.04,0.19,5.603599999999999,-0.6855999999999973,4.119999999999999,175,75
2026-05-07 18:28:05.065,1,-0.1,1.06,0.22,4.253599999999999,-2.8156,3.4399999999999995,175,75
2026-05-07 18:28:05.073,1,-0.09,1.07,0.23,2.4235999999999986,-5.375599999999999,3.0199999999999996,175,75
2026-05-07 18:28:05.112,1,-0.08,1.07,0.18,1.573599999999999,-5.435599999999997,2.4099999999999993,175,75
2026-05-07 18:28:05.123,1,-0.08,1.07,0.17,1.5135999999999985,-3.4255999999999993,2.7099999999999995,175,75
2026-05-07 18:28:05.123,1,-0.07,1.06,0.19,1.7535999999999987,-3.0656,2.59,175,75
2026-05-07 18:28:05.134,1,-0.09,1.05,0.17,1.6935999999999982,-2.9355999999999973,2.2199999999999998,175,75
2026-05-07 18:28:05.134,1,-0.08,1.05,0.16,2.6735999999999986,-1.7155999999999985,2.7699999999999996,175,75
2026-05-07 18:28:05.155,1,-0.09,1.05,0.17,3.2235999999999994,-0.19559999999999889,3.1399999999999997,175,75
2026-05-07 18:28:05.164,1,-0.08,1.03,0.17,4.3835999999999995,-0.13560000000000016,3.0799999999999996,175,75
2026-05-07 18:28:05.197,1,-0.09,1.04,0.18,6.513599999999999,3.2844000000000015,1.5499999999999994,175,75
2026-05-07 18:28:05.230,1,-0.1,1.04,0.21,6.273599999999999,1.634400000000003,1.2499999999999996,175,75
2026-05-07 18:28:05.230,1,-0.11,1.05,0.21,5.903599999999999,-0.13560000000000016,1.4899999999999998,175,75
2026-05-07 18:28:05.242,1,-0.12,1.05,0.21,5.053599999999999,-0.985599999999998,1.3699999999999997,175,75
2026-05-07 18:28:05.242,1,-0.12,1.06,0.2,5.173599999999999,-0.985599999999998,1.7999999999999994,175,75
2026-05-07 18:28:05.254,1,-0.12,1.05,0.2,5.113599999999999,-1.235599999999998,2.0399999999999996,175,75
2026-05-07 18:28:05.262,1,-0.11,1.06,0.19,4.443599999999998,-0.9255999999999993,2.3499999999999996,175,75
2026-05-07 18:28:05.274,1,-0.11,1.05,0.19,4.923599999999999,-0.13560000000000016,2.4099999999999993,175,75
2026-05-07 18:28:05.307,1,-0.11,1.03,0.18,4.743599999999999,1.3244000000000007,0.7599999999999998,175,75
2026-05-07 18:28:05.348,1,-0.11,1.04,0.17,5.413599999999999,3.7044000000000015,0.7599999999999998,175,75
2026-05-07 18:28:05.348,1,-0.11,1.02,0.15,7.553599999999999,7.124400000000001,0.3299999999999996,175,75
2026-05-07 18:28:05.414,1,-0.11,1.03,0.18,8.583599999999999,11.514400000000002,-1.5600000000000005,175,75
2026-05-07 18:28:05.424,1,-0.13,1.07,0.17,10.7836,14.374400000000001,-1.4300000000000006,175,75
2026-05-07 18:28:05.424,1,-0.13,1.03,0.23,11.1436,16.994400000000002,-0.9500000000000002,175,75
2026-05-07 18:28:05.440,1,-0.12,1.07,0.22,10.2936,11.9344,-0.5200000000000005,175,75
2026-05-07 18:28:05.453,1,-0.1,1.05,0.19,10.7836,17.3044,0.6399999999999997,175,75
2026-05-07 18:28:05.471,1,-0.08,1.05,0.17,11.023599999999998,18.404400000000003,2.2899999999999996,175,75
2026-05-07 18:28:05.480,1,-0.06,1.01,0.19,12.3036,25.104400000000002,4.239999999999999,175,75
2026-05-07 18:28:05.490,1,-0.04,1.02,0.25,8.523599999999998,18.8944,3.9299999999999997,175,75
2026-05-07 18:28:05.519,1,-0.07,0.97,0.24,3.2235999999999994,14.314400000000003,1.5499999999999994,175,75
2026-05-07 18:28:05.631,1,-0.02,1.07,0.13,23.1636,9.864400000000002,16.31,175,75
2026-05-07 18:28:05.685,1,-0.02,1.09,-0.03,45.4736,20.7844,28.08,175,75
2026-05-07 18:28:05.765,1,0.12,1.03,0.17,109.6836,38.3444,77.47,175,75
2026-05-07 18:28:05.825,1,0.08,1.05,0.07,112.7336,29.254400000000004,82.71,175,75
2026-05-07 18:28:05.832,1,0.13,0.97,0.05,132.55360000000002,32.3044,90.27,175,75
2026-05-07 18:28:05.857,1,0.09,1.0,-0.03,131.5136,10.9044,91.8,175,75
2026-05-07 18:28:05.878,1,0.27,1.07,-0.15,135.90359999999998,25.9644,84.24,175,75
2026-05-07 18:28:05.888,1,0.14,0.94,0.18,132.9136,19.1944,80.08999999999999,175,75
2026-05-07 18:28:05.888,1,0.08,0.97,0.21,126.14359999999999,8.954400000000001,81.13,175,75
2026-05-07 18:28:05.899,1,-0.02,0.99,0.24,114.6836,-3.605599999999999,82.53,175,75
2026-05-07 18:28:05.899,1,-0.21,1.11,0.16,113.5236,3.1544000000000008,83.38,175,75
2026-05-07 18:28:05.967,1,-0.46,1.13,0.24,147.0036,87.42439999999999,108.63,175,75
2026-05-07 18:28:05.995,1,-0.43,0.9,0.44,151.2736,141.0844,134.85000000000002,175,75
2026-05-07 18:28:05.999,1,-0.33,0.77,0.4,158.46359999999999,163.4044,141.62,175,75
2026-05-07 18:28:05.999,1,-0.2,0.62,0.45,168.2236,185.9644,152.96,175,75
2026-05-07 18:28:06.033,1,0.07,0.41,0.52,174.8036,190.2944,162.23000000000002,175,75
2026-05-07 18:28:06.044,1,0.15,0.28,0.55,181.3936,187.73440000000002,161.68,175,75
2026-05-07 18:28:06.044,1,0.25,0.07,0.6,180.7236,176.14440000000002,157.96,175,75
2026-05-07 18:28:06.087,1,0.23,0.27,0.49,162.7336,124.92439999999999,145.58,175,75
2026-05-07 18:28:06.087,1,0.23,0.39,0.51,154.9236,116.3244,141.13000000000002,175,75
2026-05-07 18:28:06.087,1,0.2,0.47,0.55,148.4036,112.4844,138.26000000000002,175,75
2026-05-07 18:28:06.104,1,0.17,0.5,0.61,140.4136,108.8244,132.47,175,75
2026-05-07 18:28:06.107,1,0.12,0.47,0.67,130.2936,102.0644,131.25,175,75
2026-05-07 18:28:06.123,1,-0.12,0.49,0.72,115.6036,78.2844,134.12,175,75
2026-05-07 18:28:06.138,1,-0.16,0.27,0.63,113.5236,75.2944,137.04000000000002,175,75
2026-05-07 18:28:06.180,1,-0.27,-0.26,0.62,118.4636,66.87440000000001,146.62,175,75
2026-05-07 18:28:06.180,1,-0.16,-0.78,0.59,126.0836,68.5244,148.38000000000002,175,75
2026-05-07 18:28:06.186,1,1.87,-2.62,0.17,115.4736,-9.095599999999997,103.92999999999999,175,75
2026-05-07 18:28:06.210,1,0.24,-0.14,1.1,54.0136,-149.2156,77.96,175,75
2026-05-07 18:28:06.221,1,-0.45,0.51,0.68,30.6036,-153.2456,59.72,175,75
2026-05-07 18:28:06.253,1,-0.79,0.83,0.11,64.9236,-105.25559999999999,61.06999999999999,175,75
2026-05-07 18:28:06.285,1,-0.16,-0.06,1.01,116.3336,-10.3156,61.129999999999995,175,75
2026-05-07 18:28:06.290,1,-0.19,0.09,0.74,105.6036,-1.0456000000000003,55.150000000000006,175,75
2026-05-07 18:28:06.301,1,-0.34,0.26,0.73,94.6836,25.4144,65.15,175,75
2026-05-07 18:28:06.311,1,-0.46,0.31,0.95,89.1936,45.3544,71.92,175,75
2026-05-07 18:28:06.332,1,-0.37,0.32,0.98,88.4036,40.8444,75.46,175,75
2026-05-07 18:28:06.384,1,0.61,-0.18,0.73,103.3436,-7.6356,58.56999999999999,175,75
2026-05-07 18:28:06.394,1,0.07,0.05,0.71,73.1036,-25.6256,57.16,175,75
2026-05-07 18:28:06.400,1,-0.16,0.09,0.82,69.4436,-20.315599999999996,50.459999999999994,175,75
2026-05-07 18:28:06.422,1,-0.43,0.14,0.88,77.4236,-17.1456,47.59,175,75
2026-05-07 18:28:06.432,1,-0.39,0.16,1.09,76.81360000000001,-7.325599999999998,45.269999999999996,175,75
2026-05-07 18:28:06.448,1,-0.22,0.11,0.92,63.5836,-30.0156,40.81999999999999,175,75
2026-05-07 18:28:06.472,1,-0.17,0.13,0.69,70.9636,-0.3155999999999999,32.769999999999996,175,75
2026-05-07 18:28:06.482,1,-0.22,0.12,0.79,77.4936,13.464400000000001,30.52,175,75
2026-05-07 18:28:06.498,1,-0.3,0.08,0.92,77.9136,25.294400000000003,27.16,175,75
2026-05-07 18:28:06.498,1,-0.37,0.1,1.19,74.1336,36.5744,28.2,175,75
2026-05-07 18:28:06.525,1,-0.27,0.03,0.98,53.9536,24.6844,15.459999999999999,175,75
2026-05-07 18:28:06.539,1,-0.28,0.07,0.95,51.5736,38.644400000000005,14.54,175,75
2026-05-07 18:28:06.551,1,-0.29,0.17,1.12,48.6436,36.8744,16.92,175,75
2026-05-07 18:28:06.551,1,-0.23,0.11,1.19,38.4036,17.424400000000002,18.38,175,75
2026-05-07 18:28:06.562,1,-0.18,0.11,0.99,31.0836,5.104400000000002,17.59,175,75
2026-05-07 18:28:06.596,1,-0.24,0.12,0.91,30.9636,12.064400000000003,19.36,175,75
2026-05-07 18:28:06.637,1,-0.21,0.02,1.07,31.9436,28.9544,27.349999999999998,175,75
2026-05-07 18:28:06.648,1,-0.27,0.1,1.2,21.693599999999996,22.1244,22.83,175,75
2026-05-07 18:28:06.659,1,-0.34,-0.04,1.26,17.4236,14.014400000000002,21.25,175,75
2026-05-07 18:28:06.679,1,-0.36,0.17,1.3,-1.2964000000000002,16.4544,30.7,175,75
2026-05-07 18:28:06.707,1,-0.23,0.08,0.92,-23.7964,13.8244,24.12,175,75
2026-05-07 18:28:06.731,1,-0.37,0.13,0.91,-16.776400000000002,33.284400000000005,17.65,175,75
2026-05-07 18:28:06.752,1,-0.35,0.14,0.99,-13.366400000000002,39.564400000000006,14.66,175,75
2026-05-07 18:28:06.761,1,-0.27,0.12,0.93,-17.386400000000002,38.8244,9.42,175,75
2026-05-07 18:28:06.761,1,-0.22,0.08,0.92,-15.1964,39.7444,8.26,175,75
2026-05-07 18:28:06.773,1,-0.24,0.16,0.92,-14.2164,39.3744,8.69,175,75
2026-05-07 18:28:06.785,1,-0.14,0.1,0.93,-16.596400000000003,34.1944,8.02,175,75
2026-05-07 18:28:06.800,1,-0.24,0.14,1.02,-17.386400000000002,33.1544,10.27,175,75
2026-05-07 18:28:06.812,1,-0.31,0.05,0.93,-26.3564,21.8744,1.4299999999999997,175,75
2026-05-07 18:28:06.815,1,-0.29,0.09,0.84,-24.156399999999998,28.0944,0.6999999999999997,175,75
2026-05-07 18:28:06.843,1,-0.17,0.12,0.79,-21.416400000000003,32.184400000000004,-4.48,175,75
2026-05-07 18:28:06.857,1,-0.0,0.09,0.58,-14.6464,32.7344,-13.57,175,75
2026-05-07 18:28:06.869,1,-0.07,0.12,0.58,-8.976400000000002,32.9744,-18.14,175,75
2026-05-07 18:28:06.870,1,-0.19,0.09,0.81,-9.586400000000001,37.4844,-22.47,175,75
2026-05-07 18:28:06.883,1,-0.24,0.1,0.87,-13.546400000000002,32.7944,-22.78,175,75
2026-05-07 18:28:06.896,1,-0.39,0.17,0.89,-16.776400000000002,40.174400000000006,-20.82,175,75
2026-05-07 18:28:06.909,1,-0.39,0.15,1.22,-14.706400000000002,47.2444,-20.21,175,75
2026-05-07 18:28:06.920,1,-0.35,0.15,1.3,-18.796400000000002,21.3944,-15.21,175,75
2026-05-07 18:28:06.938,1,-0.3,0.16,0.79,-27.026400000000002,4.434400000000002,-20.95,175,75
2026-05-07 18:28:06.938,1,-0.18,0.29,0.74,-21.7164,9.7444,-16.86,175,75
2026-05-07 18:28:06.961,1,-0.23,0.11,0.89,-17.2664,8.584400000000002,-17.17,175,75
2026-05-07 18:28:06.973,1,-0.3,0.09,0.86,-19.096400000000003,5.654400000000001,-21.740000000000002,175,75
2026-05-07 18:28:06.984,1,-0.33,0.09,0.88,-18.9164,11.634400000000001,-23.2,175,75
2026-05-07 18:28:06.988,1,-0.26,0.1,0.85,-19.2164,11.634400000000001,-25.400000000000002,175,75
2026-05-07 18:28:07.001,1,-0.15,0.1,0.75,-19.946400000000004,12.304400000000001,-29.12,175,75
2026-05-07 18:28:07.028,1,-0.2,0.12,0.76,-11.476400000000002,17.3644,-30.76,175,75
2026-05-07 18:28:07.040,1,-0.23,0.11,0.79,-3.9764000000000017,17.244400000000002,-26.31,175,75
2026-05-07 18:28:07.051,1,-0.21,0.13,0.75,-0.4964000000000013,18.0344,-24.97,175,75
2026-05-07 18:28:07.076,1,-0.18,0.16,0.72,7.243599999999999,18.9544,-23.87,175,75
2026-05-07 18:28:07.100,1,-0.22,0.09,0.83,16.333599999999997,15.104400000000002,-23.63,175,75
2026-05-07 18:28:07.123,1,-0.19,0.09,0.75,12.673599999999999,9.134400000000001,-33.57000000000001,175,75
2026-05-07 18:28:07.134,1,-0.16,0.2,0.71,14.073599999999999,6.514400000000002,-36.25,175,75
2026-05-07 18:28:07.142,1,-0.09,0.26,0.72,18.1036,6.934400000000002,-37.59,175,75
2026-05-07 18:28:07.166,1,-0.11,0.22,0.74,22.0636,7.854400000000002,-40.34,175,75
2026-05-07 18:28:07.179,1,-0.18,0.15,0.78,27.0636,7.974400000000001,-40.400000000000006,175,75
2026-05-07 18:28:07.212,1,-0.16,-0.01,0.85,27.0636,5.5344000000000015,-44.790000000000006,175,75
2026-05-07 18:28:07.246,1,-0.17,0.08,0.87,28.6436,3.4044000000000008,-41.43000000000001,175,75
2026-05-07 18:28:07.246,1,-0.13,0.03,0.87,30.6636,4.254400000000002,-40.95,175,75
2026-05-07 18:28:07.254,1,-0.07,-0.05,0.9,31.3936,13.214400000000001,-38.510000000000005,175,75
2026-05-07 18:28:07.266,1,-0.07,-0.08,0.95,33.4636,21.814400000000003,-33.2,175,75
2026-05-07 18:28:07.294,1,-0.12,-0.02,0.95,24.863599999999998,27.1244,-22.41,175,75
2026-05-07 18:28:07.316,1,-0.31,0.41,0.97,13.103599999999998,17.794400000000003,17.41,175,75
2026-05-07 18:28:07.377,1,-0.05,0.59,0.5,27.5536,116.5144,36.370000000000005,175,75
2026-05-07 18:28:07.408,1,0.15,0.7,0.98,25.6036,139.0744,37.290000000000006,175,75
2026-05-07 18:28:07.417,1,0.24,0.62,1.11,16.3936,116.08439999999999,31.19,175,75
2026-05-07 18:28:07.417,1,0.37,0.35,1.12,14.5636,93.2844,23.14,175,75
2026-05-07 18:28:07.452,1,0.7,-0.29,1.31,-10.616400000000002,8.524400000000002,13.57,175,75
2026-05-07 18:28:07.452,1,0.73,-0.69,1.16,-41.1064,-91.2356,-5.4,175,75
2026-05-07 18:28:07.467,1,-0.09,-0.49,0.89,-80.4364,-99.34559999999999,-5.34,175,75
2026-05-07 18:28:07.548,1,0.05,-0.21,0.61,-54.886399999999995,-8.6756,3.8099999999999996,175,75
2026-05-07 18:28:07.559,1,-0.12,0.05,0.69,-45.376400000000004,-7.265599999999999,5.9399999999999995,175,75
2026-05-07 18:28:07.559,1,-0.08,0.13,0.74,-35.7464,-10.5656,6.68,175,75
2026-05-07 18:28:07.619,1,-0.19,0.14,0.73,9.0136,-19.215600000000002,-24.54,175,75
2026-05-07 18:28:07.633,1,-0.2,0.09,0.75,13.6436,-19.1556,-29.24,175,75
2026-05-07 18:28:07.650,1,-0.15,0.05,0.72,20.1736,-14.215600000000002,-31.19,175,75
2026-05-07 18:28:07.660,1,-0.04,-0.03,0.72,28.2836,-8.185599999999997,-30.639999999999997,175,75
2026-05-07 18:28:07.670,1,0.03,-0.09,0.7,30.9636,-6.105599999999999,-32.290000000000006,175,75
2026-05-07 18:28:07.683,1,0.08,-0.07,0.74,31.3336,-7.395599999999998,-29.419999999999998,175,75
2026-05-07 18:28:07.694,1,0.13,-0.04,0.68,31.0236,-6.535599999999999,-26.490000000000002,175,75
2026-05-07 18:28:07.716,1,0.17,-0.02,0.55,40.1736,13.154400000000003,-20.82,175,75
2026-05-07 18:28:07.730,1,0.0,-0.05,0.73,46.0236,40.5944,-17.59,175,75
2026-05-07 18:28:07.764,1,-0.01,-0.04,1.19,27.3036,5.714400000000001,-15.46,175,75
2026-05-07 18:28:07.777,1,-0.15,0.07,1.1,11.453599999999998,-21.2956,-18.51,175,75
2026-05-07 18:28:07.784,1,-0.2,0.13,1.0,8.523599999999998,-31.785599999999995,-18.63,175,75
2026-05-07 18:28:07.802,1,-0.15,0.2,0.91,7.003599999999999,-36.105599999999995,-19.67,175,75
2026-05-07 18:28:07.839,1,0.01,0.15,0.79,11.573599999999999,-26.595599999999997,-16.92,175,75
2026-05-07 18:28:07.869,1,0.04,-0.0,0.93,14.013599999999999,-33.5456,-7.23,175,75
2026-05-07 18:28:07.880,1,0.02,-0.02,0.92,13.0336,-38.9756,-8.450000000000001,175,75
2026-05-07 18:28:07.890,1,0.05,-0.04,0.94,14.3836,-44.285599999999995,-7.960000000000001,175,75
2026-05-07 18:28:07.923,1,0.07,0.06,0.89,5.293599999999999,-25.925599999999996,-5.76,175,75
2026-05-07 18:28:07.923,1,0.08,0.1,0.9,1.7535999999999987,-23.5456,-3.0200000000000005,175,75
2026-05-07 18:28:07.938,1,0.03,0.15,0.92,-1.7164000000000001,-24.345599999999997,-2.170000000000001,175,75
2026-05-07 18:28:07.951,1,-0.04,0.08,0.95,-1.7764000000000006,-22.5756,-2.7800000000000002,175,75
2026-05-07 18:28:07.966,1,-0.02,-0.02,0.99,-1.596400000000001,-26.9056,-3.2600000000000007,175,75
2026-05-07 18:28:07.977,1,0.03,-0.09,0.94,-3.0564,-32.2656,-3.5100000000000007,175,75
2026-05-07 18:28:08.032,1,0.12,-0.14,0.91,-8.6664,-30.8656,-2.3500000000000005,175,75
2026-05-07 18:28:08.032,1,0.1,-0.13,0.99,-12.816400000000002,-32.815599999999996,-3.45,175,75
2026-05-07 18:28:08.076,1,-0.08,-0.0,1.03,-38.2464,-35.4356,-4.360000000000001,175,75
2026-05-07 18:28:08.100,1,-0.13,0.01,0.94,-40.6864,-30.3756,-4.91,175,75
2026-05-07 18:28:08.100,1,-0.11,0.02,0.9,-39.4664,-23.245599999999996,-4.0600000000000005,175,75
2026-05-07 18:28:08.113,1,-0.09,0.03,0.86,-38.5464,-17.025599999999997,-3.9299999999999997,175,75
2026-05-07 18:28:08.139,1,-0.08,0.02,0.83,-36.1664,-6.9655999999999985,-2.5300000000000002,175,75
2026-05-07 18:28:08.144,1,-0.01,0.02,0.84,-34.5264,0.41440000000000055,-0.28000000000000025,175,75
2026-05-07 18:28:08.159,1,0.02,0.01,0.83,-33.4864,5.294400000000001,1.8599999999999994,175,75
2026-05-07 18:28:08.189,1,0.07,0.01,0.83,-33.7264,7.124400000000001,2.8999999999999995,175,75
2026-05-07 18:28:08.201,1,0.08,-0.01,0.79,-34.3364,10.844400000000002,2.0399999999999996,175,75
2026-05-07 18:28:08.249,1,-0.08,0.1,0.82,-32.8164,5.4144000000000005,6.859999999999999,175,75
2026-05-07 18:28:08.262,1,-0.09,0.1,0.83,-32.9964,6.4544000000000015,6.43,175,75
2026-05-07 18:28:08.272,1,-0.12,0.09,0.81,-34.2764,9.374400000000001,4.539999999999999,175,75
2026-05-07 18:28:08.272,1,-0.12,0.09,0.8,-34.4664,15.9044,6.01,175,75
2026-05-07 18:28:08.299,1,-0.13,0.06,0.81,-35.376400000000004,23.2844,4.72,175,75
2026-05-07 18:28:08.299,1,-0.12,0.03,0.84,-35.6164,27.674400000000002,5.09,175,75
2026-05-07 18:28:08.299,1,-0.08,-0.01,0.83,-34.946400000000004,30.9644,5.699999999999999,175,75
2026-05-07 18:28:08.332,1,-0.02,-0.07,0.87,-46.5364,58.4044,9.18,175,75
2026-05-07 18:28:08.349,1,-0.03,-0.11,0.86,-49.5864,62.4244,8.08,175,75
2026-05-07 18:28:08.360,1,-0.01,-0.15,0.81,-52.996399999999994,69.68440000000001,7.959999999999999,175,75
2026-05-07 18:28:08.360,1,0.08,-0.19,0.7,-55.8064,81.3244,5.52,175,75
2026-05-07 18:28:08.382,1,0.26,-0.34,0.5,-52.876400000000004,113.40440000000001,-4.85,175,75
2026-05-07 18:28:08.395,1,0.43,-0.67,0.55,-42.5064,143.8244,-17.96,175,75
2026-05-07 18:28:08.405,1,0.13,-0.93,1.69,-44.7064,144.9844,25.27,175,75
2026-05-07 18:28:08.438,1,0.07,-0.27,1.8,-86.35640000000001,102.9744,19.85,175,75
2026-05-07 18:28:08.454,1,-0.05,-0.54,1.86,-95.5564,45.1044,22.96,175,75
2026-05-07 18:28:08.460,1,-0.09,-0.57,1.53,-127.38640000000001,-24.7656,35.519999999999996,175,75
2026-05-07 18:28:08.488,1,-0.13,-0.46,1.03,-149.8864,-58.7356,46.8,175,75
2026-05-07 18:28:08.526,1,-0.06,-0.33,0.42,-166.4764,-70.07560000000001,60.33,175,75
2026-05-07 18:28:08.526,1,0.11,-0.0,-0.07,-136.5964,46.754400000000004,62.650000000000006,175,75
2026-05-07 18:28:08.537,1,-0.03,0.09,0.18,-94.7064,55.6544,73.75,175,75
2026-05-07 18:28:08.537,1,0.06,0.19,0.6,-63.60640000000001,112.24440000000001,75.21,175,75
2026-05-07 18:28:08.548,1,0.27,0.42,1.0,-28.2464,120.4744,79.91,175,75
2026-05-07 18:28:08.591,1,0.43,0.47,1.38,17.793599999999998,138.9544,71.86,175,75
2026-05-07 18:28:08.591,1,0.47,0.57,1.45,41.8836,124.92439999999999,58.92999999999999,175,75
2026-05-07 18:28:08.604,1,0.56,0.53,1.63,130.84359999999998,132.6744,37.53,175,75
2026-05-07 18:28:08.629,1,0.55,0.43,1.26,189.4436,104.43440000000001,29.599999999999998,175,75
2026-05-07 18:28:08.639,1,0.54,0.36,1.15,210.8436,104.86439999999999,24.05,175,75
2026-05-07 18:28:08.655,1,0.56,0.22,1.11,244.9236,103.40440000000001,15.27,175,75
2026-05-07 18:28:08.665,1,0.56,0.14,1.12,261.0836,97.24440000000001,12.959999999999999,175,75
2026-05-07 18:28:08.676,1,0.58,0.0,1.07,278.2236,92.18440000000001,10.52,175,75
2026-05-07 18:28:08.701,1,0.53,-0.28,0.95,308.5236,81.1444,1.4899999999999998,175,75
2026-05-07 18:28:08.775,1,0.4,-0.69,0.94,326.8136,48.644400000000005,-12.04,175,75
2026-05-07 18:28:08.785,1,0.23,-0.94,0.68,325.5336,43.4644,-19.67,175,75
2026-05-07 18:28:08.785,1,0.26,-0.96,0.64,319.6236,49.6844,-19.06,175,75
2026-05-07 18:28:08.795,1,0.25,-1.05,0.62,313.2236,51.574400000000004,-24.240000000000002,175,75
2026-05-07 18:28:08.808,1,0.28,-1.18,0.62,302.4936,56.0844,-31.49,175,75
2026-05-07 18:28:08.915,1,0.27,-0.04,-0.3,34.4436,159.5044,-0.6400000000000006,175,75
2026-05-07 18:28:08.929,1,0.42,-0.32,0.81,-50.8664,112.0644,13.87,175,75
2026-05-07 18:28:08.944,1,0.49,-0.18,0.59,-86.6564,61.324400000000004,14.36,175,75
2026-05-07 18:28:08.957,1,0.54,-0.19,0.44,-105.7464,44.254400000000004,17.77,175,75
2026-05-07 18:28:08.967,1,0.5,-0.26,0.62,-122.44640000000001,32.184400000000004,17.41,175,75
2026-05-07 18:28:08.988,1,0.53,-0.37,1.0,-155.1364,-17.205599999999997,9.12,175,75
2026-05-07 18:28:08.999,1,0.54,-0.34,1.05,-168.9764,-51.415600000000005,6.25,175,75
2026-05-07 18:28:09.010,1,0.54,-0.29,0.99,-183.2464,-86.84559999999999,3.6899999999999995,175,75
2026-05-07 18:28:09.017,1,0.52,-0.26,0.87,-194.9464,-115.07559999999998,1.9199999999999995,175,75
2026-05-07 18:28:09.028,1,0.45,-0.26,0.78,-205.6164,-135.7456,-0.40000000000000036,175,75
2026-05-07 18:28:09.039,1,0.38,-0.21,0.74,-211.6564,-141.04559999999998,-0.9500000000000002,175,75
2026-05-07 18:28:09.051,1,0.34,-0.12,0.73,-212.9364,-136.8456,-0.5200000000000005,175,75
2026-05-07 18:28:09.061,1,0.32,-0.06,0.73,-213.7964,-130.2556,-0.8800000000000008,175,75
2026-05-07 18:28:09.085,1,0.31,0.02,0.79,-211.7764,-124.76559999999998,-2.3500000000000005,175,75
2026-05-07 18:28:09.085,1,0.3,0.05,0.86,-211.1064,-122.3956,-4.360000000000001,175,75
2026-05-07 18:28:09.085,1,0.27,0.08,0.94,-212.3864,-125.13559999999998,-4.85,175,75
2026-05-07 18:28:09.093,1,0.23,0.12,0.94,-211.8364,-132.2056,-5.34,175,75
2026-05-07 18:28:09.108,1,0.21,0.15,0.92,-211.1064,-139.9556,-6.370000000000001,175,75
2026-05-07 18:28:09.133,1,0.21,0.15,0.85,-208.4264,-145.6256,-6.3100000000000005,175,75
2026-05-07 18:28:09.147,1,0.19,0.17,0.79,-203.9164,-141.04559999999998,-6.01,175,75
2026-05-07 18:28:09.147,1,0.18,0.19,0.75,-195.1964,-127.81559999999999,-5.880000000000001,175,75
2026-05-07 18:28:09.159,1,0.18,0.24,0.83,-179.9464,-104.8956,-4.91,175,75
2026-05-07 18:28:09.169,1,0.21,0.29,0.98,-161.4764,-87.57560000000001,-4.48,175,75
2026-05-07 18:28:09.183,1,0.28,0.31,1.23,-132.5064,-71.78559999999999,-10.76,175,75
2026-05-07 18:28:09.199,1,0.35,0.37,1.39,-120.13640000000001,-73.1856,-15.82,175,75
2026-05-07 18:28:09.218,1,0.41,0.43,1.5,-103.3664,-82.32560000000001,-15.280000000000001,175,75
2026-05-07 18:28:09.230,1,2.66,-0.31,1.89,-62.026399999999995,-6.785599999999999,-43.379999999999995,175,75
2026-05-07 18:28:09.253,1,-0.9,0.54,3.52,84.3836,44.0744,-11.31,175,75
2026-05-07 18:28:09.273,1,-1.04,-1.83,1.47,75.7236,-93.60560000000001,14.85,175,75
2026-05-07 18:28:09.317,1,1.34,-0.11,0.84,102.0036,60.8444,34.72,175,75
2026-05-07 18:28:09.327,1,1.11,-0.52,0.97,73.89359999999999,44.8644,23.14,175,75
2026-05-07 18:28:09.367,1,0.33,-0.48,1.45,52.1836,5.904400000000001,32.9,175,75
2026-05-07 18:28:09.378,1,0.13,-0.28,1.48,37.7936,-32.8756,32.349999999999994,175,75
2026-05-07 18:28:09.378,1,-0.19,-0.03,1.23,18.8936,-56.7156,18.02,175,75
2026-05-07 18:28:09.378,1,-0.21,0.07,1.09,12.1236,-59.2156,13.51,175,75
2026-05-07 18:28:09.397,1,-0.06,-0.02,0.82,14.4436,-30.985599999999998,5.3999999999999995,175,75
2026-05-07 18:28:09.428,1,-0.03,-0.1,0.82,24.8036,1.8744000000000014,1.3699999999999997,175,75
2026-05-07 18:28:09.460,1,0.02,-0.06,0.78,29.4436,17.544400000000003,1.7399999999999998,175,75
2026-05-07 18:28:09.470,1,0.19,-0.09,1.12,30.113599999999998,26.084400000000002,5.029999999999999,175,75
2026-05-07 18:28:09.473,1,0.07,-0.07,1.27,19.6236,5.4144000000000005,8.26,175,75
2026-05-07 18:28:09.499,1,-0.01,0.07,1.18,1.0835999999999988,-40.8656,1.4299999999999997,175,75
2026-05-07 18:28:09.510,1,-0.02,0.08,1.05,-2.636400000000002,-43.675599999999996,-1.4900000000000002,175,75
2026-05-07 18:28:09.521,1,-0.01,0.06,0.97,-2.5764000000000014,-39.3456,-1.5600000000000005,175,75
2026-05-07 18:28:09.541,1,-0.0,0.0,0.99,0.7235999999999994,-27.7556,-0.7000000000000002,175,75
2026-05-07 18:28:09.547,1,0.03,-0.02,1.01,-0.13640000000000185,-25.2556,1.1899999999999995,175,75
2026-05-07 18:28:09.558,1,0.05,-0.02,1.01,-0.926400000000001,-23.3656,1.9799999999999995,175,75
2026-05-07 18:28:09.570,1,0.05,-0.03,1.03,-3.0564,-22.455599999999997,2.0999999999999996,175,75
2026-05-07 18:28:09.582,1,0.02,-0.02,1.07,-5.9864,-22.3956,1.3099999999999996,175,75
2026-05-07 18:28:09.593,1,0.03,-0.02,1.09,-9.8264,-26.0456,0.08999999999999986,175,75
2026-05-07 18:28:09.603,1,0.04,-0.03,1.08,-13.4864,-29.285599999999995,-1.25,175,75
2026-05-07 18:28:09.627,1,0.01,-0.02,1.03,-18.976399999999998,-36.535599999999995,-3.75,175,75
2026-05-07 18:28:09.638,1,0.01,-0.03,0.98,-18.6664,-36.9656,-4.970000000000001,175,75
2026-05-07 18:28:09.658,1,0.03,-0.05,0.92,-15.316400000000002,-30.315599999999996,-6.68,175,75
2026-05-07 18:28:09.670,1,0.04,-0.06,0.91,-13.976400000000002,-25.0756,-6.49,175,75
2026-05-07 18:28:09.681,1,0.07,-0.05,0.94,-11.656400000000001,-20.495599999999996,-5.280000000000001,175,75
2026-05-07 18:28:09.692,1,0.08,-0.05,0.95,-10.9864,-18.3656,-5.460000000000001,175,75
2026-05-07 18:28:09.704,1,0.06,-0.05,0.96,-10.316400000000002,-16.4756,-5.58,175,75
2026-05-07 18:28:09.704,1,0.04,-0.04,1.0,-10.9864,-17.3256,-6.190000000000001,175,75
2026-05-07 18:28:09.740,1,0.03,-0.04,1.02,-12.996400000000001,-20.6256,-7.65,175,75
2026-05-07 18:28:09.750,1,0.05,-0.05,0.99,-15.2564,-20.8056,-8.93,175,75
2026-05-07 18:28:09.752,1,0.07,-0.03,0.99,-17.3264,-17.635599999999997,-8.57,175,75
2026-05-07 18:28:09.765,1,0.07,-0.04,1.01,-18.116400000000002,-15.135599999999997,-8.32,175,75
2026-05-07 18:28:09.776,1,0.05,-0.04,1.04,-21.656399999999998,-13.485599999999998,-8.14,175,75
2026-05-07 18:28:09.788,1,0.06,-0.03,1.08,-23.8564,-18.065599999999996,-8.02,175,75
2026-05-07 18:28:09.801,1,0.06,-0.04,1.04,-29.586399999999998,-20.8056,-9.73,175,75
2026-05-07 18:28:09.812,1,0.07,-0.04,0.98,-32.266400000000004,-20.495599999999996,-8.99,175,75
2026-05-07 18:28:09.819,1,0.08,-0.04,0.97,-30.556400000000004,-20.985599999999998,-8.26,175,75
2026-05-07 18:28:09.832,1,0.06,-0.02,0.93,-35.4964,-18.7956,-9.120000000000001,175,75
2026-05-07 18:28:09.842,1,0.07,-0.02,0.94,-34.2764,-16.355599999999995,-7.59,175,75
2026-05-07 18:28:09.853,1,0.08,-0.01,0.94,-34.1564,-16.965600000000002,-7.23,175,75
2026-05-07 18:28:09.864,1,0.07,-0.0,0.91,-34.8264,-13.305599999999998,-7.040000000000001,175,75
2026-05-07 18:28:09.876,1,0.06,-0.0,0.92,-34.2764,-9.955599999999997,-6.98,175,75
2026-05-07 18:28:09.876,1,0.07,0.01,0.91,-36.1664,-5.7456,-6.5600000000000005,175,75
2026-05-07 18:28:09.900,1,0.07,-0.01,0.92,-36.7164,-5.4956,-7.470000000000001,175,75
2026-05-07 18:28:09.912,1,0.09,-0.02,0.9,-34.7064,-5.015599999999999,-7.59,175,75
2026-05-07 18:28:09.935,1,0.08,-0.02,0.9,-36.8364,-3.4255999999999993,-8.26,175,75
2026-05-07 18:28:09.948,1,0.06,-0.02,0.9,-38.4264,-3.0656,-8.81,175,75
2026-05-07 18:28:09.960,1,0.06,0.0,0.89,-39.766400000000004,-2.9955999999999996,-9.06,175,75
2026-05-07 18:28:09.970,1,0.06,0.01,0.87,-40.7464,-1.9055999999999997,-9.3,175,75
2026-05-07 18:28:09.982,1,0.06,0.01,0.86,-41.4764,0.7144000000000013,-10.21,175,75
2026-05-07 18:28:09.992,1,0.06,0.0,0.87,-41.6564,3.894400000000001,-11.68,175,75
2026-05-07 18:28:10.003,1,0.05,-0.03,0.88,-39.8864,4.864400000000002,-13.260000000000002,175,75
2026-05-07 18:28:10.012,1,0.1,-0.03,0.85,-43.9764,6.2044000000000015,-13.809999999999999,175,75
2026-05-07 18:28:10.025,1,0.09,-0.04,0.84,-45.0764,7.364400000000002,-15.760000000000002,175,75
2026-05-07 18:28:10.036,1,0.09,-0.06,0.81,-44.8264,7.064400000000001,-17.650000000000002,175,75
2026-05-07 18:28:10.049,1,0.13,-0.07,0.78,-44.3364,6.514400000000002,-18.38,175,75
2026-05-07 18:28:10.062,1,0.15,-0.08,0.78,-41.2964,9.134400000000001,-18.45,175,75
2026-05-07 18:28:10.073,1,0.13,-0.11,0.79,-41.8364,10.174400000000002,-19.6,175,75
2026-05-07 18:28:10.085,1,0.12,-0.14,0.81,-45.0064,11.7544,-21.37,175,75
2026-05-07 18:28:10.103,1,0.09,-0.17,0.85,-46.2964,12.974400000000001,-23.32,175,75
2026-05-07 18:28:10.103,1,0.01,-0.2,0.89,-49.2164,16.3944,-23.81,175,75
2026-05-07 18:28:10.137,1,0.01,-0.26,0.9,-58.7264,25.4144,-24.54,175,75
2026-05-07 18:28:10.149,1,0.01,-0.29,0.9,-63.60640000000001,28.154400000000003,-25.34,175,75
2026-05-07 18:28:10.169,1,0.28,-0.51,0.9,-67.4464,45.534400000000005,-25.150000000000002,175,75
2026-05-07 18:28:10.176,1,-0.06,-0.85,0.89,-69.46640000000001,37.7344,-43.2,175,75
2026-05-07 18:28:10.186,1,-0.06,-0.92,1.29,-81.4764,34.6244,-23.990000000000002,175,75
2026-05-07 18:28:10.206,1,0.22,-0.93,1.45,-93.60640000000001,3.5244000000000018,7.22,175,75
2026-05-07 18:28:10.206,1,0.21,-0.61,1.04,-104.3964,16.264400000000002,-16.13,175,75
2026-05-07 18:28:10.232,1,-0.1,-0.52,1.64,-118.60640000000001,70.90440000000001,-12.469999999999999,175,75
2026-05-07 18:28:10.271,1,0.05,-0.47,0.94,-161.0464,-52.4556,8.989999999999998,175,75
2026-05-07 18:28:10.281,1,-0.07,-0.35,0.63,-167.2664,-66.35560000000001,14.54,175,75
2026-05-07 18:28:10.292,1,-0.23,-0.51,0.08,-171.2964,-82.5156,37.709999999999994,175,75
2026-05-07 18:28:10.302,1,-0.19,-0.56,-0.26,-160.0064,-47.395599999999995,50.400000000000006,175,75
2026-05-07 18:28:10.321,1,-0.06,-0.44,-0.35,-140.6864,20.354400000000002,58.260000000000005,175,75
2026-05-07 18:28:10.321,1,0.07,-0.2,-0.18,-121.47640000000001,57.004400000000004,64.79,175,75
2026-05-07 18:28:10.359,1,-0.13,-0.11,-0.32,-110.0064,100.65440000000001,68.38,175,75
2026-05-07 18:28:10.376,1,-0.07,-0.04,-0.02,-91.1664,127.30440000000002,74.66,175,75
2026-05-07 18:28:10.391,1,0.03,0.11,0.51,-79.7064,98.09440000000001,76.97999999999999,175,75
2026-05-07 18:28:10.402,1,0.09,0.2,0.49,-80.3764,60.7844,73.25999999999999,175,75
2026-05-07 18:28:10.413,1,0.19,0.24,0.35,-84.21640000000001,37.3044,69.3,175,75
2026-05-07 18:28:10.424,1,0.22,0.28,0.14,-85.9864,31.8744,64.79,175,75
2026-05-07 18:28:10.438,1,0.25,0.33,0.01,-82.9364,41.394400000000005,60.209999999999994,175,75
2026-05-07 18:28:10.461,1,0.27,0.41,0.08,-71.71640000000001,51.934400000000004,55.760000000000005,175,75
2026-05-07 18:28:10.471,1,0.37,0.48,0.17,-62.8164,52.7944,49.120000000000005,175,75
2026-05-07 18:28:10.484,1,0.39,0.54,0.23,-57.2064,44.1944,42.769999999999996,175,75
2026-05-07 18:28:10.484,1,0.5,0.56,0.21,-53.246399999999994,37.4844,33.81,175,75
2026-05-07 18:28:10.499,1,0.51,0.56,0.18,-51.2264,25.5944,23.44,175,75
2026-05-07 18:28:10.529,1,0.52,0.62,0.24,-47.7564,6.264400000000002,4.85,175,75
2026-05-07 18:28:10.540,1,0.5,0.7,0.32,-46.1664,-6.535599999999999,-2.1000000000000005,175,75
2026-05-07 18:28:10.556,1,0.42,0.81,0.31,-40.556400000000004,-31.175599999999996,-17.78,175,75
2026-05-07 18:28:10.565,1,0.38,0.86,0.27,-42.696400000000004,-40.9856,-20.7,175,75
2026-05-07 18:28:10.580,1,0.32,0.91,0.23,-44.7064,-47.08559999999999,-23.75,175,75
2026-05-07 18:28:10.580,1,0.25,0.95,0.19,-47.446400000000004,-49.2156,-27.23,175,75
2026-05-07 18:28:10.602,1,0.23,0.99,0.17,-49.4664,-45.565599999999996,-30.639999999999997,175,75
2026-05-07 18:28:10.602,1,0.2,1.04,0.16,-51.166399999999996,-45.565599999999996,-32.040000000000006,175,75
2026-05-07 18:28:10.612,1,0.1,1.08,0.15,-52.7564,-42.6956,-33.45,175,75
2026-05-07 18:28:10.625,1,0.08,1.11,0.15,-54.3964,-35.3756,-33.260000000000005,175,75
2026-05-07 18:28:10.640,1,0.07,1.13,0.15,-56.776399999999995,-29.525599999999997,-30.52,175,75
2026-05-07 18:28:10.648,1,0.03,1.15,0.16,-59.82640000000001,-23.735599999999998,-30.09,175,75
2026-05-07 18:28:10.660,1,0.05,1.15,0.17,-62.5064,-15.135599999999997,-29.360000000000003,175,75
2026-05-07 18:28:10.670,1,0.05,1.14,0.15,-66.71640000000001,-3.0656,-28.320000000000004,175,75
2026-05-07 18:28:10.687,1,0.05,1.11,0.24,-74.46640000000001,28.2144,-26.86,175,75
2026-05-07 18:28:10.698,1,0.07,1.11,0.35,-76.8364,38.0944,-25.09,175,75
2026-05-07 18:28:10.709,1,0.11,1.1,0.51,-79.3364,43.4044,-21.86,175,75
2026-05-07 18:28:10.730,1,0.16,1.1,0.72,-83.9164,37.3044,-16.25,175,75
2026-05-07 18:28:10.744,1,0.17,1.11,0.8,-84.7664,32.004400000000004,-15.82,175,75
2026-05-07 18:28:10.744,1,0.21,1.11,0.89,-85.6164,23.4644,-12.900000000000002,175,75
2026-05-07 18:28:10.773,1,0.29,1.09,1.03,-85.6864,7.794400000000001,-10.09,175,75
2026-05-07 18:28:10.784,1,0.34,1.1,1.1,-83.85640000000001,-9.345599999999997,-7.84,175,75
2026-05-07 18:28:10.808,1,0.41,1.09,1.17,-77.4464,-21.6556,-13.870000000000001,175,75
2026-05-07 18:28:10.820,1,0.41,1.12,1.21,-74.0364,-21.4756,-16.25,175,75
2026-05-07 18:28:10.830,1,0.4,1.14,1.29,-68.1164,-22.2656,-18.14,175,75
2026-05-07 18:28:10.841,1,0.37,1.17,1.33,-59.7064,-29.525599999999997,-21.56,175,75
2026-05-07 18:28:10.862,1,0.28,1.24,1.26,-36.4164,-35.315599999999996,-33.379999999999995,175,75
2026-05-07 18:28:10.885,1,0.29,1.24,1.17,-5.746400000000001,-21.535599999999995,-43.45,175,75
2026-05-07 18:28:10.895,1,0.32,1.22,1.19,10.903599999999999,-12.6356,-49.42,175,75
2026-05-07 18:28:10.907,1,0.35,1.19,1.22,28.223599999999998,-7.395599999999998,-56.620000000000005,175,75
2026-05-07 18:28:10.925,1,0.37,1.15,1.25,47.4936,-5.685599999999997,-62.35000000000001,175,75
2026-05-07 18:28:10.925,1,0.37,1.13,1.25,62.1836,-7.935599999999997,-67.10000000000001,175,75
2026-05-07 18:28:10.950,1,0.41,1.05,1.25,81.4536,-11.715599999999998,-74.24000000000001,175,75
2026-05-07 18:28:10.964,1,0.4,0.94,1.25,92.5536,-20.495599999999996,-79.42,175,75
2026-05-07 18:28:10.974,1,0.38,0.78,1.26,110.2336,-33.425599999999996,-87.47,175,75
2026-05-07 18:28:10.974,1,0.39,0.66,1.26,125.0536,-49.035599999999995,-94.3,175,75
2026-05-07 18:28:10.988,1,0.29,0.56,1.27,141.2036,-72.1456,-100.46000000000001,175,75
2026-05-07 18:28:11.002,1,0.26,0.47,1.2,160.96359999999999,-85.9856,-105.76,175,75
2026-05-07 18:28:11.015,1,0.24,0.35,1.07,183.2836,-87.2056,-109.85000000000001,175,75
2026-05-07 18:28:11.015,1,0.21,0.24,0.98,201.9436,-80.56559999999999,-112.10000000000001,175,75
2026-05-07 18:28:11.026,1,0.24,0.07,0.91,226.2036,-71.04560000000001,-117.41000000000001,175,75
2026-05-07 18:28:11.038,1,0.15,-0.07,0.93,247.6136,-69.82560000000001,-119.12,175,75
2026-05-07 18:28:11.049,1,0.01,-0.31,1.0,275.1136,-63.1256,-123.38000000000001,175,75
2026-05-07 18:28:11.081,1,-0.2,-0.85,1.19,318.9536,-76.10560000000001,-118.08,175,75
2026-05-07 18:28:11.094,1,-0.21,-1.03,1.29,336.1436,-83.60560000000001,-109.79,175,75
2026-05-07 18:28:11.105,1,-0.18,-1.35,1.35,357.7936,-96.10560000000001,-100.76,175,75
2026-05-07 18:28:11.128,1,-0.25,-1.54,1.25,369.0136,-106.78559999999999,-94.73,175,75
2026-05-07 18:28:11.161,1,-0.43,-2.32,1.36,422.6136,-72.1456,-74.54,175,75
2026-05-07 18:28:11.171,1,-0.4,-2.54,1.38,426.3936,-82.87559999999999,-63.81,175,75
2026-05-07 18:28:11.188,1,-0.43,-2.71,1.33,420.6636,-86.84559999999999,-54.540000000000006,175,75
2026-05-07 18:28:11.208,1,-0.44,-2.73,1.14,403.8336,-60.565599999999996,-42.040000000000006,175,75
2026-05-07 18:28:11.221,1,-0.45,-2.49,1.16,390.5936,-37.2056,-27.900000000000002,175,75
2026-05-07 18:28:11.233,1,-0.44,-2.17,1.25,372.3036,-27.995599999999996,-11.8,175,75
2026-05-07 18:28:11.244,1,-0.41,-1.73,1.32,343.2836,-37.5756,0.8199999999999994,175,75
2026-05-07 18:28:11.255,1,-0.44,-1.49,1.37,311.7536,-51.2956,7.83,175,75
2026-05-07 18:28:11.265,1,-0.37,-1.23,1.23,269.5636,-71.10560000000001,14.66,175,75
2026-05-07 18:28:11.283,1,-0.33,-1.02,0.98,234.3136,-71.9656,19.18,175,75
2026-05-07 18:28:11.286,1,-0.15,-0.79,0.75,203.4036,-53.4856,24.24,175,75
2026-05-07 18:28:11.298,1,0.02,-0.71,0.65,180.3536,-37.6956,22.9,175,75
2026-05-07 18:28:11.322,1,0.06,-0.21,0.77,108.5236,-35.8056,26.62,175,75
2026-05-07 18:28:11.336,1,-0.01,-0.09,0.81,78.4036,-38.7956,28.509999999999998,175,75
2026-05-07 18:28:11.348,1,-0.09,-0.06,0.87,48.0336,-34.285599999999995,31.86,175,75
2026-05-07 18:28:11.365,1,-0.09,-0.06,0.95,32.6136,-38.3056,34.599999999999994,175,75
2026-05-07 18:28:11.376,1,-0.07,-0.05,1.03,10.843599999999999,-62.145599999999995,36.86,175,75
2026-05-07 18:28:11.388,1,-0.05,0.03,0.93,-6.656400000000001,-84.40559999999999,39.17999999999999,175,75
2026-05-07 18:28:11.399,1,-0.01,0.08,0.82,-19.336399999999998,-95.56559999999999,41.489999999999995,175,75
2026-05-07 18:28:11.417,1,0.0,0.19,0.62,-37.9964,-89.34559999999999,43.69,175,75
2026-05-07 18:28:11.445,1,0.04,0.31,0.68,-39.766400000000004,-62.815599999999996,45.7,175,75
2026-05-07 18:28:11.458,1,0.07,0.37,0.77,-37.9364,-54.4056,45.94,175,75
2026-05-07 18:28:11.464,1,0.09,0.42,0.82,-36.8964,-50.805600000000005,45.760000000000005,175,75
2026-05-07 18:28:11.474,1,0.11,0.44,0.81,-35.556400000000004,-46.9056,45.269999999999996,175,75
2026-05-07 18:28:11.515,1,0.17,0.51,0.78,-30.9264,-26.415599999999998,44.120000000000005,175,75
2026-05-07 18:28:11.524,1,0.17,0.51,0.78,-29.766400000000004,-19.465600000000002,42.769999999999996,175,75
2026-05-07 18:28:11.573,1,0.16,0.39,0.81,-31.596400000000003,-7.025599999999997,35.879999999999995,175,75
2026-05-07 18:28:11.584,1,0.15,0.35,0.83,-32.9364,-2.265599999999999,34.120000000000005,175,75
2026-05-07 18:28:11.589,1,0.17,0.3,0.86,-36.9664,-1.355599999999999,33.51,175,75
2026-05-07 18:28:11.630,1,0.15,0.14,0.91,-54.0364,-8.4256,30.15,175,75
2026-05-07 18:28:11.640,1,0.11,0.07,0.9,-59.5864,-6.105599999999999,29.599999999999998,175,75
2026-05-07 18:28:11.662,1,0.07,-0.02,0.9,-67.0264,-1.7155999999999985,30.94,175,75
2026-05-07 18:28:11.690,1,-0.01,-0.14,0.87,-78.1864,15.4144,38.08,175,75
2026-05-07 18:28:11.709,1,0.01,-0.37,0.9,-103.3664,28.9544,44.120000000000005,175,75
2026-05-07 18:28:11.725,1,0.01,-0.41,0.9,-113.9764,33.284400000000005,45.459999999999994,175,75
2026-05-07 18:28:11.736,1,0.02,-0.45,0.92,-124.5864,39.924400000000006,46.42999999999999,175,75
2026-05-07 18:28:11.749,1,0.01,-0.48,0.97,-138.3664,47.064400000000006,47.349999999999994,175,75
2026-05-07 18:28:11.771,1,0.02,-0.51,1.04,-157.7564,53.7044,46.489999999999995,175,75
2026-05-07 18:28:11.787,1,-0.11,-0.47,0.76,-179.3364,28.7044,58.56999999999999,175,75
2026-05-07 18:28:11.825,1,2.41,-1.78,6.92,5.903599999999999,322.7344,73.99,175,75
2026-05-07 18:28:11.836,1,0.16,-2.48,9.49,0.053599999999999426,279.9844,-118.14,175,75
2026-05-07 18:28:11.852,1,2.76,-1.95,8.9,-82.8764,43.1544,-30.88,175,75
2026-05-07 18:28:11.863,1,-2.4,0.23,-1.16,-189.4064,-525.7456,21.98,175,75
2026-05-07 18:28:11.889,1,0.12,0.23,-1.73,-168.6664,-325.3156,-31.250000000000004,175,75
2026-05-07 18:28:11.889,1,-0.31,0.37,-0.23,-151.3564,-26.535599999999995,11.98,175,75
2026-05-07 18:28:11.904,1,-0.38,1.09,1.16,-33.3664,34.9844,42.16,175,75
2026-05-07 18:28:11.921,1,-0.34,0.05,1.42,-61.4764,-82.2056,-8.38,175,75
2026-05-07 18:28:11.945,1,-0.11,-0.0,1.38,-50.806400000000004,-85.4356,-6.190000000000001,175,75
2026-05-07 18:28:11.946,1,0.03,-0.21,0.83,-57.5064,-78.79560000000001,-12.71,175,75
2026-05-07 18:28:11.957,1,0.11,-0.13,0.59,-56.5964,-47.8756,-16.43,175,75
2026-05-07 18:28:11.966,1,0.14,-0.19,0.63,-44.8864,-14.215600000000002,-12.29,175,75
2026-05-07 18:28:11.986,1,0.15,-0.24,0.9,-39.1564,5.4144000000000005,-1.3100000000000005,175,75
2026-05-07 18:28:11.986,1,0.19,-0.22,1.08,-35.0064,9.564400000000001,4.4799999999999995,175,75
2026-05-07 18:28:11.998,1,0.33,-0.12,1.15,-42.0864,-9.4056,13.139999999999999,175,75
2026-05-07 18:28:12.009,1,0.12,0.05,1.13,-40.806400000000004,-22.995599999999996,10.879999999999999,175,75
2026-05-07 18:28:12.022,1,0.07,0.11,1.13,-41.7164,-25.135599999999997,14.18,175,75
2026-05-07 18:28:12.053,1,-0.14,0.0,0.94,-30.986400000000003,-23.3656,4.97,175,75
2026-05-07 18:28:12.093,1,0.11,-0.02,0.92,4.993599999999999,9.434400000000002,11.739999999999998,175,75
2026-05-07 18:28:12.144,1,-0.03,0.02,1.06,10.113599999999998,0.9044000000000025,8.32,175,75
2026-05-07 18:28:12.144,1,0.01,0.01,0.92,15.903599999999999,8.8244,7.289999999999999,175,75
2026-05-07 18:28:12.160,1,0.03,0.01,0.87,21.2736,20.7844,9.48,175,75
2026-05-07 18:28:12.171,1,-0.01,-0.0,1.02,28.4636,35.2944,13.02,175,75
2026-05-07 18:28:12.200,1,0.0,-0.03,1.06,29.9936,34.0144,8.629999999999999,175,75
2026-05-07 18:28:12.200,1,-0.01,-0.05,1.09,28.1636,33.9544,5.88,175,75
2026-05-07 18:28:12.249,1,0.02,-0.04,1.12,17.2436,31.264400000000002,-7.65,175,75
2026-05-07 18:28:12.261,1,0.05,-0.06,1.06,15.173599999999999,35.2344,-6.3100000000000005,175,75
2026-05-07 18:28:12.272,1,-0.02,-0.06,1.12,13.583599999999999,43.4044,-5.210000000000001,175,75
2026-05-07 18:28:12.286,1,-0.02,-0.04,1.22,11.6336,46.144400000000005,-1.1900000000000004,175,75
2026-05-07 18:28:12.296,1,0.04,-0.06,1.13,10.4736,42.3644,-2.5900000000000007,175,75
2026-05-07 18:28:12.308,1,0.03,-0.05,1.06,8.403599999999999,49.564400000000006,-3.630000000000001,175,75
2026-05-07 18:28:12.323,1,-0.12,0.02,1.47,2.913599999999999,67.6044,-0.28000000000000025,175,75
2026-05-07 18:28:12.349,1,0.01,-0.02,1.2,-18.4864,16.5744,-9.42,175,75
2026-05-07 18:28:12.360,1,-0.03,-0.01,1.1,-19.6464,18.7044,-8.51,175,75
2026-05-07 18:28:12.378,1,0.01,0.02,1.14,-19.886400000000002,23.8244,-5.34,175,75
2026-05-07 18:28:12.384,1,0.06,0.03,1.12,-21.8964,19.314400000000003,-1.8000000000000007,175,75
2026-05-07 18:28:12.399,1,0.09,0.0,1.1,-20.986400000000003,13.284400000000002,-0.46000000000000085,175,75
2026-05-07 18:28:12.410,1,0.05,0.0,1.07,-22.206400000000002,7.734400000000001,-0.5200000000000005,175,75
2026-05-07 18:28:12.414,1,0.05,0.0,1.07,-24.8264,5.654400000000001,-1.6800000000000006,175,75
2026-05-07 18:28:12.429,1,0.0,0.01,1.1,-26.3564,-0.3155999999999999,-0.6400000000000006,175,75
2026-05-07 18:28:12.433,1,-0.01,0.03,1.13,-24.096400000000003,-2.6356,3.26,175,75
2026-05-07 18:28:12.448,1,-0.0,0.04,1.09,-25.2564,-8.735599999999998,1.7999999999999994,175,75
2026-05-07 18:28:12.473,1,0.01,0.02,1.02,-26.5364,-11.6556,0.6399999999999997,175,75
2026-05-07 18:28:12.514,1,0.13,0.0,0.97,-25.9264,-4.3455999999999975,6.069999999999999,175,75
2026-05-07 18:28:12.530,1,0.1,-0.01,1.02,-26.596400000000003,-3.1855999999999973,7.83,175,75
2026-05-07 18:28:12.541,1,0.09,-0.03,1.1,-28.916400000000003,-6.415599999999998,8.57,175,75
2026-05-07 18:28:12.556,1,0.04,-0.08,1.09,-30.6864,-11.715599999999998,6.74,175,75
2026-05-07 18:28:12.582,1,0.02,-0.09,0.99,-31.226399999999998,-13.125599999999999,5.58,175,75
2026-05-07 18:28:12.582,1,0.05,-0.07,0.88,-29.6464,-6.9056,7.1,175,75
2026-05-07 18:28:12.582,1,0.09,-0.05,0.82,-24.8264,6.934400000000002,8.809999999999999,175,75
2026-05-07 18:28:12.606,1,0.08,-0.03,0.89,-18.3064,15.844400000000002,13.809999999999999,175,75
2026-05-07 18:28:12.627,1,0.02,0.05,0.9,-11.8964,24.924400000000002,16.07,175,75
2026-05-07 18:28:12.662,1,-0.19,0.03,1.23,-17.1464,13.704400000000001,10.879999999999999,175,75
2026-05-07 18:28:12.684,1,0.04,0.03,1.0,-23.2464,1.2043999999999997,8.69,175,75
2026-05-07 18:28:12.742,1,-0.0,-0.01,0.93,-24.3964,-14.825600000000001,6.74,175,75
2026-05-07 18:28:12.777,1,0.04,0.01,0.86,-23.4264,-15.375599999999999,7.8999999999999995,175,75
2026-05-07 18:28:12.777,1,0.02,0.0,0.87,-21.596400000000003,-12.575599999999998,7.6499999999999995,175,75
2026-05-07 18:28:12.787,1,-0.08,0.01,0.97,-17.8164,-12.8156,4.789999999999999,175,75
2026-05-07 18:28:12.807,1,-0.07,0.02,0.87,-14.3964,-11.715599999999998,1.7999999999999994,175,75
2026-05-07 18:28:12.831,1,-0.07,0.02,0.86,-5.866400000000002,-6.105599999999999,0.6399999999999997,175,75
2026-05-07 18:28:12.850,1,-0.06,0.03,0.85,-2.506400000000001,-4.035599999999999,0.20999999999999996,175,75
2026-05-07 18:28:12.875,1,-0.08,0.01,0.92,4.863599999999998,0.7144000000000013,-4.48,175,75
2026-05-07 18:28:12.914,1,-0.05,-0.02,0.89,8.773599999999998,11.874400000000001,-9.3,175,75
2026-05-07 18:28:12.926,1,-0.06,-0.04,0.93,9.863599999999998,18.584400000000002,-10.46,175,75
2026-05-07 18:28:12.936,1,-0.07,-0.03,0.95,9.073599999999999,20.8444,-10.4,175,75
2026-05-07 18:28:12.948,1,-0.07,-0.01,0.97,7.613599999999999,21.3244,-10.88,175,75
2026-05-07 18:28:12.959,1,-0.01,0.02,0.95,6.143599999999999,18.0344,-10.280000000000001,175,75
2026-05-07 18:28:12.959,1,0.01,0.02,0.94,5.723599999999999,16.6344,-10.700000000000001,175,75
2026-05-07 18:28:12.975,1,0.01,0.01,0.96,5.843599999999999,14.9844,-10.950000000000001,175,75
2026-05-07 18:28:12.985,1,0.02,-0.01,0.96,5.293599999999999,11.814400000000003,-10.4,175,75
2026-05-07 18:28:13.010,1,0.02,-0.02,0.92,4.6236,9.924400000000002,-10.21,175,75
2026-05-07 18:28:13.020,1,0.01,-0.01,0.92,4.443599999999998,10.594400000000002,-8.57,175,75
2026-05-07 18:28:13.020,1,0.02,0.02,0.94,4.1335999999999995,12.424400000000002,-7.1,175,75
2026-05-07 18:28:13.048,1,0.0,0.03,0.97,1.3335999999999988,10.174400000000002,-6.190000000000001,175,75
2026-05-07 18:28:13.087,1,-0.01,0.03,0.97,-8.9164,7.674400000000002,-7.040000000000001,175,75
2026-05-07 18:28:13.104,1,-0.01,0.03,0.97,-10.746400000000001,11.634400000000001,-5.950000000000001,175,75
2026-05-07 18:28:13.126,1,-0.0,0.0,1.04,-19.336399999999998,13.154400000000003,-6.130000000000001,175,75
2026-05-07 18:28:13.126,1,0.01,0.0,1.01,-22.9364,8.894400000000001,-5.4,175,75
2026-05-07 18:28:13.138,1,0.05,-0.02,0.96,-27.1464,7.604400000000002,-5.280000000000001,175,75
2026-05-07 18:28:13.160,1,0.05,-0.02,0.94,-29.706400000000002,9.374400000000001,-5.030000000000001,175,75
2026-05-07 18:28:13.160,1,0.04,-0.04,0.92,-31.476399999999998,10.4144,-4.67,175,75
2026-05-07 18:28:13.187,1,0.03,-0.02,0.95,-37.0864,11.9344,-3.5100000000000007,175,75
2026-05-07 18:28:13.206,1,0.03,-0.0,0.91,-39.8864,10.2344,-4.24,175,75
2026-05-07 18:28:13.211,1,0.06,0.01,0.89,-41.2964,11.264400000000002,-4.24,175,75
2026-05-07 18:28:13.225,1,0.04,0.0,0.87,-42.7564,10.844400000000002,-4.540000000000001,175,75
2026-05-07 18:28:13.238,1,0.04,0.0,0.86,-44.8264,13.214400000000001,-4.24,175,75
2026-05-07 18:28:13.261,1,0.03,0.02,0.89,-50.0764,11.874400000000001,-4.18,175,75
2026-05-07 18:28:13.290,1,0.05,0.02,0.79,-51.96640000000001,8.284400000000002,-4.540000000000001,175,75
2026-05-07 18:28:13.325,1,0.07,-0.01,0.72,-50.806400000000004,18.764400000000002,-4.73,175,75
2026-05-07 18:28:13.349,1,0.05,-0.05,0.66,-47.266400000000004,33.4644,-4.42,175,75
2026-05-07 18:28:13.360,1,0.02,-0.04,0.83,-47.446400000000004,43.0944,-3.2600000000000007,175,75
2026-05-07 18:28:13.382,1,0.02,-0.0,0.81,-52.636399999999995,29.684400000000004,-7.960000000000001,175,75
2026-05-07 18:28:13.407,1,0.02,-0.01,0.71,-54.46640000000001,31.3244,-11.25,175,75
2026-05-07 18:28:13.419,1,0.06,-0.09,0.64,-53.186400000000006,38.4044,-14.120000000000001,175,75
2026-05-07 18:28:13.427,1,0.08,-0.12,0.69,-52.1464,41.394400000000005,-13.080000000000002,175,75
2026-05-07 18:28:13.455,1,0.08,-0.15,0.68,-53.3664,40.3544,-13.260000000000002,175,75
2026-05-07 18:28:13.455,1,0.07,-0.16,0.69,-54.5864,43.4644,-14.670000000000002,175,75
2026-05-07 18:28:13.462,1,0.08,-0.21,0.73,-56.416399999999996,44.504400000000004,-14.36,175,75
2026-05-07 18:28:13.471,1,0.07,-0.23,0.75,-59.46640000000001,45.0444,-14.600000000000001,175,75
2026-05-07 18:28:13.483,1,0.14,-0.27,0.77,-62.5064,45.1044,-14.670000000000002,175,75
2026-05-07 18:28:13.494,1,0.13,-0.41,0.76,-66.2264,43.9544,-20.76,175,75
2026-05-07 18:28:13.508,1,0.03,-0.59,0.8,-68.9164,38.9544,-31.31,175,75
2026-05-07 18:28:13.523,1,0.08,-0.5,1.02,-75.2564,25.044400000000003,-18.69,175,75
2026-05-07 18:28:13.536,1,0.28,-0.5,0.95,-80.5564,15.9044,-20.46,175,75
2026-05-07 18:28:13.552,1,0.25,-0.39,0.97,-87.8164,22.424400000000002,-23.14,175,75
2026-05-07 18:28:13.577,1,0.12,-0.32,1.12,-92.5764,26.5744,-23.87,175,75
2026-05-07 18:28:13.577,1,0.08,-0.31,1.16,-94.46640000000001,30.7844,-23.14,175,75
2026-05-07 18:28:13.585,1,0.08,-0.29,1.15,-92.2064,31.084400000000002,-21.490000000000002,175,75
2026-05-07 18:28:13.622,1,0.01,-0.19,0.95,-74.6464,18.764400000000002,-7.1,175,75
2026-05-07 18:28:13.633,1,0.01,-0.25,0.9,-67.8764,-0.2555999999999976,0.39999999999999947,175,75
2026-05-07 18:28:13.658,1,-0.14,-0.27,0.51,-100.6864,-27.3256,11.309999999999999,175,75
2026-05-07 18:28:13.683,1,-0.37,-0.55,0.2,-157.8764,-42.0856,50.400000000000006,175,75
2026-05-07 18:28:13.699,1,-0.43,-0.54,0.29,-166.7764,-10.625599999999999,65.64,175,75
2026-05-07 18:28:13.756,1,0.19,-0.01,-0.21,-137.8164,-70.25559999999999,57.709999999999994,175,75
2026-05-07 18:28:13.756,1,-0.69,-0.14,-1.13,-137.9964,-6.7155999999999985,76.19,175,75
2026-05-07 18:28:13.794,1,0.08,0.29,0.05,-45.1364,169.0144,92.41,175,75
2026-05-07 18:28:13.808,1,0.13,0.35,0.28,-40.6864,157.9744,82.64999999999999,175,75
2026-05-07 18:28:13.821,1,0.33,0.4,0.4,-38.8564,138.8244,78.2,175,75
2026-05-07 18:28:13.838,1,0.15,0.45,0.46,-35.9264,104.1344,78.2,175,75
2026-05-07 18:28:13.848,1,0.41,0.34,0.46,-32.696400000000004,79.1344,68.75,175,75
2026-05-07 18:28:13.848,1,0.47,0.3,0.24,-35.2564,52.4844,62.099999999999994,175,75
2026-05-07 18:28:13.876,1,0.61,0.42,-0.07,-29.946400000000004,38.5844,42.709999999999994,175,75
2026-05-07 18:28:13.891,1,0.64,0.43,-0.1,-26.3564,39.504400000000004,29.54,175,75
2026-05-07 18:28:13.891,1,0.62,0.5,-0.12,-22.5064,29.3744,19.299999999999997,175,75
2026-05-07 18:28:13.902,1,0.56,0.52,-0.11,-20.0764,20.4144,2.3499999999999996,175,75
2026-05-07 18:28:13.918,1,0.56,0.6,-0.12,-20.986400000000003,7.9144000000000005,-8.450000000000001,175,75
2026-05-07 18:28:13.936,1,0.48,0.69,-0.11,-23.1864,-17.455599999999997,-29.73,175,75
2026-05-07 18:28:13.948,1,0.4,0.8,-0.1,-25.556400000000004,-31.6556,-37.47,175,75
2026-05-07 18:28:13.972,1,0.36,0.95,-0.19,-30.6864,-48.7356,-58.08,175,75
2026-05-07 18:28:13.972,1,0.34,1.02,-0.26,-34.8864,-50.0156,-66.31,175,75
2026-05-07 18:28:13.998,1,0.29,1.14,-0.36,-42.0264,-29.6456,-79.60000000000001,175,75
2026-05-07 18:28:14.028,1,0.16,1.22,-0.34,-50.806400000000004,-3.2455999999999996,-89.85000000000001,175,75
2026-05-07 18:28:14.039,1,0.13,1.33,-0.14,-59.0964,26.814400000000003,-94.12,175,75
2026-05-07 18:28:14.053,1,0.17,1.37,-0.03,-62.57640000000001,36.6944,-97.10000000000001,175,75
2026-05-07 18:28:14.070,1,0.15,1.38,0.33,-70.2564,63.5244,-96.74000000000001,175,75
2026-05-07 18:28:14.082,1,0.09,1.41,0.57,-74.3364,69.0744,-97.29,175,75
2026-05-07 18:28:14.102,1,0.1,1.52,0.8,-79.5264,70.2344,-94.06,175,75
2026-05-07 18:28:14.102,1,0.11,1.58,1.04,-82.7564,64.5644,-88.38000000000001,175,75
2026-05-07 18:28:14.122,1,0.16,1.58,1.22,-85.4964,53.0944,-82.84,175,75
2026-05-07 18:28:14.135,1,0.23,1.52,1.32,-87.2664,38.0944,-79.36,175,75
2026-05-07 18:28:14.135,1,0.21,1.5,1.37,-90.6164,14.564400000000003,-78.69,175,75
2026-05-07 18:28:14.135,1,0.26,1.49,1.37,-93.1164,-1.5355999999999987,-71.8,175,75
2026-05-07 18:28:14.148,1,0.27,1.46,1.3,-90.7464,-1.105599999999999,-74.36,175,75
2026-05-07 18:28:14.161,1,0.28,1.41,1.31,-86.71640000000001,7.124400000000001,-70.09,175,75
2026-05-07 18:28:14.180,1,0.38,1.31,1.39,-79.5264,21.994400000000002,-66.86,175,75
2026-05-07 18:28:14.203,1,0.44,1.21,1.52,-71.2264,27.4844,-66.25,175,75
2026-05-07 18:28:14.213,1,0.49,1.1,1.71,-51.96640000000001,16.6944,-70.88000000000001,175,75
2026-05-07 18:28:14.225,1,0.47,1.1,1.71,-43.9764,7.734400000000001,-73.63000000000001,175,75
2026-05-07 18:28:14.236,1,0.48,1.11,1.64,-37.8164,3.344400000000002,-75.52000000000001,175,75
2026-05-07 18:28:14.236,1,0.57,1.17,1.55,-30.0064,-1.4155999999999977,-78.51,175,75
2026-05-07 18:28:14.247,1,0.59,1.23,1.53,-16.596400000000003,-10.685599999999997,-92.47,175,75
2026-05-07 18:28:14.257,1,0.47,1.16,1.54,2.9735999999999994,-13.7956,-103.63000000000001,175,75
2026-05-07 18:28:14.278,1,0.49,1.05,1.5,19.1936,-9.215599999999998,-118.38000000000001,175,75
2026-05-07 18:28:14.278,1,0.48,1.0,1.49,29.1936,-18.245599999999996,-126.07000000000001,175,75
2026-05-07 18:28:14.316,1,0.34,0.78,1.69,52.303599999999996,-50.3756,-147.47,175,75
2026-05-07 18:28:14.337,1,0.18,0.7,1.79,74.3836,-123.6756,-160.82,175,75
2026-05-07 18:28:14.337,1,0.06,0.82,1.67,91.39359999999999,-154.5256,-162.35,175,75
2026-05-07 18:28:14.348,1,0.07,0.76,1.46,118.1636,-155.4356,-171.48999999999998,175,75
2026-05-07 18:28:14.360,1,0.01,0.64,1.29,150.5936,-152.9956,-183.45,175,75
2026-05-07 18:28:14.370,1,-0.14,0.45,1.21,186.6936,-146.5956,-197.89999999999998,175,75
2026-05-07 18:28:14.386,1,-0.36,0.07,1.04,253.6436,-116.53559999999999,-218.14,175,75
2026-05-07 18:28:14.403,1,-0.5,-0.24,0.93,301.0236,-85.8656,-223.14,175,75
2026-05-07 18:28:14.425,1,-0.58,-0.55,0.93,344.1336,-53.1256,-220.09,175,75
2026-05-07 18:28:14.446,1,-0.48,-1.28,1.12,394.6236,-82.69559999999998,-163.26,175,75
2026-05-07 18:28:14.456,1,-0.75,-1.56,1.04,411.5136,-89.15559999999999,-140.76,175,75
2026-05-07 18:28:14.478,1,-0.73,-1.68,0.88,414.2536,-83.91560000000001,-122.35000000000001,175,75
2026-05-07 18:28:14.488,1,-0.91,-1.89,0.78,437.7336,-93.4856,-98.14,175,75
2026-05-07 18:28:14.502,1,-1.07,-2.16,0.73,447.5536,-89.82560000000001,-91.49000000000001,175,75
2026-05-07 18:28:14.524,1,-1.06,-2.43,0.8,438.7736,-91.47559999999999,-43.57000000000001,175,75
2026-05-07 18:28:14.543,1,-1.08,-2.3,1.06,416.0236,-147.26559999999998,-17.53,175,75
2026-05-07 18:28:14.565,1,-1.12,-2.73,0.84,373.0936,-231.6556,0.8799999999999994,175,75
2026-05-07 18:28:14.587,1,-1.04,-2.42,0.64,359.1936,-236.7156,10.579999999999998,175,75
2026-05-07 18:28:14.615,1,-1.21,-1.94,1.12,299.5036,-241.1756,33.75,175,75
2026-05-07 18:28:14.627,1,-1.36,-1.32,0.75,255.1736,-229.5856,63.08,175,75
2026-05-07 18:28:14.649,1,-1.08,-0.98,0.44,226.6936,-137.8156,96.67999999999999,175,75
2026-05-07 18:28:14.698,1,-0.5,-0.53,0.58,121.3336,-42.995599999999996,103.14,175,75
2026-05-07 18:28:14.719,1,-0.5,-0.42,0.75,99.4436,-50.0756,105.7,175,75
2026-05-07 18:28:14.719,1,-0.55,-0.3,0.87,75.6636,-85.56559999999999,111.42999999999999,175,75
2026-05-07 18:28:14.740,1,-0.42,-0.27,0.71,37.4936,-131.35559999999998,114.42,175,75
2026-05-07 18:28:14.751,1,-0.38,-0.21,0.53,23.1036,-140.3756,116.00999999999999,175,75
2026-05-07 18:28:14.761,1,-0.33,-0.14,0.42,14.4436,-134.0356,116.19,175,75
2026-05-07 18:28:14.776,1,-0.3,-0.07,0.38,8.8936,-122.9956,116.61999999999999,175,75
2026-05-07 18:28:14.799,1,-0.27,-0.04,0.37,5.053599999999999,-110.01559999999998,116.97999999999999,175,75
2026-05-07 18:28:14.809,1,-0.22,0.03,0.4,2.0035999999999987,-94.8956,117.35,175,75
2026-05-07 18:28:14.809,1,-0.17,0.05,0.43,2.1835999999999984,-92.0856,118.57,175,75
2026-05-07 18:28:14.832,1,-0.1,0.11,0.46,0.9635999999999996,-95.31559999999999,117.58999999999999,175,75
2026-05-07 18:28:14.855,1,-0.05,0.21,0.54,-11.656400000000001,-141.5956,104.78999999999999,175,75
2026-05-07 18:28:14.865,1,-0.05,0.22,0.55,-14.586400000000001,-150.4356,103.50999999999999,175,75
2026-05-07 18:28:14.907,1,-0.05,0.27,0.47,-29.886400000000002,-170.13559999999998,102.1,175,75
2026-05-07 18:28:14.924,1,-0.02,0.28,0.41,-36.9664,-145.8656,104.78999999999999,175,75
2026-05-07 18:28:14.938,1,-0.0,0.27,0.45,-38.3664,-124.6456,105.64,175,75
2026-05-07 18:28:14.979,1,0.07,0.23,0.51,-44.766400000000004,-57.8756,107.96,175,75
2026-05-07 18:28:15.000,1,-0.01,0.15,0.64,-55.746399999999994,-22.6956,107.03999999999999,175,75
2026-05-07 18:28:15.011,1,-0.05,0.0,0.73,-66.1664,-14.215600000000002,108.14,175,75
2026-05-07 18:28:15.032,1,-0.05,-0.15,0.77,-77.4464,-11.595599999999997,108.86999999999999,175,75
2026-05-07 18:28:15.062,1,0.11,-0.39,0.8,-101.6564,28.6444,111.55,175,75
2026-05-07 18:28:15.083,1,0.21,-0.41,0.87,-106.8964,49.4344,107.53,175,75
2026-05-07 18:28:15.139,1,0.12,-0.93,1.27,-166.1664,10.044400000000001,87.71,175,75
2026-05-07 18:28:15.197,1,0.99,-0.92,1.04,-214.4064,46.2644,61.129999999999995,175,75
2026-05-07 18:28:15.214,1,-2.83,0.05,2.57,-133.9764,171.14440000000002,66.19,175,75
2026-05-07 18:28:15.225,1,-1.22,-1.39,9.45,104.6836,802.2444,185.82000000000002,175,75
2026-05-07 18:28:15.240,1,1.52,-0.53,12.58,-24.766400000000004,149.4344,-72.71000000000001,175,75
2026-05-07 18:28:15.240,1,1.39,-2.06,4.41,-94.7064,-894.3456,-129.54,175,75
2026-05-07 18:28:15.253,1,-1.38,-1.98,-0.91,-280.0064,-861.4756,-176.73999999999998,175,75
2026-05-07 18:28:15.263,1,0.73,-1.24,-4.11,-266.1064,-498.1256,-77.53,175,75
2026-05-07 18:28:15.282,1,-0.18,-1.72,-1.13,-171.7164,128.3444,20.46,175,75
2026-05-07 18:28:15.292,1,-0.32,1.08,1.7,-101.4764,156.3244,4.6,175,75
2026-05-07 18:28:15.302,1,-0.46,0.71,1.94,-105.4364,-38.855599999999995,-27.84,175,75
2026-05-07 18:28:15.315,1,-0.61,0.13,1.38,-87.3264,-77.57560000000001,-40.28,175,75
2026-05-07 18:28:15.326,1,-0.08,0.18,0.93,-83.3664,-82.57560000000001,-49.599999999999994,175,75
2026-05-07 18:28:15.338,1,-0.26,0.17,0.49,-71.96640000000001,-43.4856,-51.739999999999995,175,75
2026-05-07 18:28:15.352,1,-0.05,-0.05,0.63,-39.6464,8.094400000000002,-36.370000000000005,175,75
2026-05-07 18:28:15.362,1,0.01,-0.16,0.83,-26.7164,26.2044,-27.17,175,75
2026-05-07 18:28:15.382,1,0.23,-0.14,1.12,-23.486400000000003,21.084400000000002,-23.87,175,75
2026-05-07 18:28:15.394,1,0.16,-0.04,1.19,-27.636400000000002,-3.2455999999999996,-18.51,175,75
2026-05-07 18:28:15.409,1,0.08,-0.07,1.1,-27.446400000000004,-12.875599999999999,-21.19,175,75
2026-05-07 18:28:15.420,1,0.13,-0.05,1.13,-31.226399999999998,-31.845599999999997,-16.19,175,75
2026-05-07 18:28:15.420,1,0.08,0.02,1.03,-29.6464,-34.2156,-11.49,175,75
2026-05-07 18:28:15.432,1,0.08,0.07,0.96,-25.9264,-34.4056,-10.21,175,75
2026-05-07 18:28:15.443,1,-0.03,0.05,0.89,-15.866400000000002,-25.925599999999996,-7.84,175,75
2026-05-07 18:28:15.463,1,0.01,0.0,0.93,-8.0564,-15.315599999999996,-6.3100000000000005,175,75
2026-05-07 18:28:15.463,1,-0.01,-0.01,0.92,0.7835999999999999,-2.7555999999999976,-1.9800000000000004,175,75
2026-05-07 18:28:15.505,1,0.01,-0.01,1.18,7.913599999999999,11.264400000000002,-0.46000000000000085,175,75
2026-05-07 18:28:15.505,1,-0.02,-0.0,1.17,5.903599999999999,5.714400000000001,-1.62,175,75
2026-05-07 18:28:15.532,1,0.03,-0.0,1.1,2.6735999999999986,-6.235599999999998,-2.5300000000000002,175,75
2026-05-07 18:28:15.567,1,-0.0,0.0,1.15,-3.796400000000002,-5.925599999999999,0.6399999999999997,175,75
2026-05-07 18:28:15.580,1,-0.02,0.01,1.09,-4.8264,-1.8455999999999975,1.5499999999999994,175,75
2026-05-07 18:28:15.608,1,-0.05,-0.01,1.19,-11.046400000000002,9.684400000000002,0.20999999999999996,175,75
2026-05-07 18:28:15.617,1,-0.06,0.03,1.11,-12.2664,6.694400000000002,-0.5800000000000001,175,75
2026-05-07 18:28:15.643,1,-0.04,0.03,1.02,-11.296400000000002,7.424400000000002,-1.1300000000000008,175,75
2026-05-07 18:28:15.643,1,-0.01,0.03,1.03,-9.4664,10.714400000000001,-0.28000000000000025,175,75
2026-05-07 18:28:15.661,1,-0.01,0.0,1.11,-7.936400000000003,10.104400000000002,-0.21000000000000085,175,75
2026-05-07 18:28:15.661,1,0.01,-0.01,1.13,-8.426400000000001,0.8444000000000003,-0.8200000000000003,175,75
2026-05-07 18:28:15.693,1,-0.01,0.0,1.08,-10.136400000000002,-9.525599999999997,1.3099999999999996,175,75
2026-05-07 18:28:15.696,1,-0.04,0.01,1.14,-10.436400000000003,-15.745599999999996,2.3499999999999996,175,75
2026-05-07 18:28:15.715,1,-0.05,0.02,1.02,-8.4864,-18.1856,0.14999999999999947,175,75
2026-05-07 18:28:15.738,1,-0.01,0.01,0.98,-4.3964,-12.995599999999996,0.20999999999999996,175,75
2026-05-07 18:28:15.759,1,0.04,-0.01,1.06,1.573599999999999,-7.695599999999999,2.9599999999999995,175,75
2026-05-07 18:28:15.763,1,0.03,-0.01,1.05,2.613599999999998,-7.755599999999998,3.5699999999999994,175,75
2026-05-07 18:28:15.816,1,-0.05,0.01,1.12,4.313599999999999,0.4744000000000028,4.239999999999999,175,75
2026-05-07 18:28:15.849,1,-0.04,0.02,1.05,7.063599999999999,1.0244,3.26,175,75
2026-05-07 18:28:15.859,1,-0.02,0.02,1.04,8.953599999999998,1.264400000000002,4.539999999999999,175,75
2026-05-07 18:28:15.870,1,-0.02,-0.0,1.05,10.903599999999999,3.4644000000000013,5.209999999999999,175,75
2026-05-07 18:28:15.916,1,-0.01,0.02,1.03,15.9636,5.654400000000001,8.57,175,75
2026-05-07 18:28:15.916,1,-0.01,0.02,1.02,19.6836,10.964400000000001,12.04,175,75
2026-05-07 18:28:15.923,1,-0.02,0.01,1.03,22.3036,17.1844,14.48,175,75
2026-05-07 18:28:15.939,1,-0.06,0.02,1.01,26.1436,25.474400000000003,17.35,175,75
2026-05-07 18:28:15.951,1,0.01,0.07,1.02,31.6936,45.9644,26.009999999999998,175,75
2026-05-07 18:28:15.964,1,0.07,0.04,0.98,37.4936,58.3444,31.86,175,75
2026-05-07 18:28:15.976,1,0.03,-0.04,0.96,43.2236,68.46440000000001,33.81,175,75
2026-05-07 18:28:15.976,1,-0.07,-0.07,1.01,49.443599999999996,77.6044,36.129999999999995,175,75
2026-05-07 18:28:15.996,1,-0.1,-0.02,1.07,54.0136,87.24440000000001,42.349999999999994,175,75
2026-05-07 18:28:16.015,1,0.09,-0.09,1.01,62.0636,104.80440000000002,46.739999999999995,175,75
2026-05-07 18:28:16.026,1,0.16,-0.25,1.1,63.3436,117.36439999999999,47.47,175,75
2026-05-07 18:28:16.038,1,0.2,-0.51,1.23,67.6736,127.6044,47.769999999999996,175,75
2026-05-07 18:28:16.052,1,0.29,-0.75,1.35,45.0536,163.7644,52.53,175,75
2026-05-07 18:28:16.065,1,0.49,-1.0,1.49,37.2436,184.4344,58.92999999999999,175,75
2026-05-07 18:28:16.072,1,0.68,-1.19,1.27,29.1936,190.1044,65.4,175,75
2026-05-07 18:28:16.088,1,0.65,-1.13,1.34,29.383599999999998,196.6344,71.00999999999999,175,75
2026-05-07 18:28:16.100,1,0.91,-1.0,1.65,35.6036,165.2944,83.50999999999999,175,75
2026-05-07 18:28:16.114,1,0.93,-0.75,1.67,38.343599999999995,102.8544,73.92999999999999,175,75
2026-05-07 18:28:16.114,1,0.89,-0.41,1.3,35.6036,57.7344,53.989999999999995,175,75
2026-05-07 18:28:16.138,1,0.55,0.04,0.73,31.6936,77.0644,3.8699999999999997,175,75
2026-05-07 18:28:16.161,1,0.31,0.11,0.84,55.5336,73.5244,-12.170000000000002,175,75
2026-05-07 18:28:16.224,1,0.47,0.13,1.12,155.7236,147.9744,-44.97,175,75
2026-05-07 18:28:16.254,1,0.17,0.04,1.16,189.3136,182.6044,-61.07000000000001,175,75
2026-05-07 18:28:16.254,1,0.15,-0.04,1.34,203.6436,191.39440000000002,-65.46000000000001,175,75
2026-05-07 18:28:16.284,1,0.04,-0.23,1.47,216.0236,157.36440000000002,-83.75,175,75
2026-05-07 18:28:16.284,1,0.01,-0.29,1.35,213.0936,141.2644,-86.92,175,75
2026-05-07 18:28:16.295,1,-0.04,-0.31,1.21,210.5336,134.9244,-87.65,175,75
2026-05-07 18:28:16.302,1,-0.1,-0.29,1.12,210.8436,136.9344,-84.54,175,75
2026-05-07 18:28:16.315,1,-0.15,-0.26,1.09,210.5336,142.4844,-80.46000000000001,175,75
2026-05-07 18:28:16.332,1,-0.21,-0.28,1.17,209.1936,138.5244,-67.41000000000001,175,75
2026-05-07 18:28:16.347,1,-0.19,-0.28,1.2,204.8636,127.0644,-62.290000000000006,175,75
2026-05-07 18:28:16.355,1,-0.13,-0.27,1.2,195.8436,106.87440000000001,-56.739999999999995,175,75
2026-05-07 18:28:16.367,1,-0.07,-0.26,1.18,184.0136,80.0444,-54.06,175,75
2026-05-07 18:28:16.380,1,0.01,-0.24,1.12,172.4936,58.7644,-53.379999999999995,175,75
2026-05-07 18:28:16.391,1,0.04,-0.23,1.0,158.2836,41.5744,-56.489999999999995,175,75
2026-05-07 18:28:16.403,1,0.05,-0.18,0.87,146.5136,33.1544,-60.34,175,75
2026-05-07 18:28:16.419,1,-0.03,-0.0,0.7,125.53359999999999,48.7644,-61.620000000000005,175,75
2026-05-07 18:28:16.431,1,-0.06,0.11,0.75,116.0836,53.4044,-59.239999999999995,175,75
2026-05-07 18:28:16.546,1,-0.09,0.41,0.94,5.113599999999999,12.1844,-48.45,175,75
2026-05-07 18:28:16.558,1,-0.08,0.48,1.1,3.583599999999999,14.6844,-47.099999999999994,175,75
2026-05-07 18:28:16.582,1,-0.07,0.5,1.17,5.233599999999999,12.604400000000002,-47.349999999999994,175,75
2026-05-07 18:28:16.592,1,-0.06,0.5,1.23,6.203599999999999,10.964400000000001,-48.989999999999995,175,75
2026-05-07 18:28:16.613,1,-0.06,0.53,1.3,8.703599999999998,3.2144000000000013,-51.980000000000004,175,75
2026-05-07 18:28:16.628,1,-0.14,0.53,1.27,7.913599999999999,0.41440000000000055,-51.370000000000005,175,75
2026-05-07 18:28:16.636,1,-0.13,0.51,1.22,8.773599999999998,4.134400000000001,-48.81,175,75
2026-05-07 18:28:16.648,1,-0.19,0.44,1.23,11.1436,16.4544,-45.34,175,75
2026-05-07 18:28:16.663,1,-0.17,0.4,1.27,13.583599999999999,24.1944,-41.07000000000001,175,75
2026-05-07 18:28:16.675,1,-0.19,0.38,1.27,14.683599999999998,34.254400000000004,-36.129999999999995,175,75
2026-05-07 18:28:16.706,1,-0.28,0.35,1.23,8.403599999999999,76.20439999999999,-22.84,175,75
2026-05-07 18:28:16.706,1,-0.29,0.28,1.27,2.733599999999999,86.08439999999999,-18.87,175,75
2026-05-07 18:28:16.731,1,-0.29,0.25,1.26,-6.106400000000001,87.0044,-16.25,175,75
2026-05-07 18:28:16.731,1,-0.29,0.21,1.23,-18.6064,84.68440000000001,-13.080000000000002,175,75
2026-05-07 18:28:16.767,1,-0.27,0.02,1.27,-65.3164,78.34440000000001,-3.75,175,75
2026-05-07 18:28:16.776,1,-0.3,0.01,1.19,-86.7764,71.7544,1.3699999999999997,175,75
2026-05-07 18:28:16.818,1,-1.29,-0.23,2.76,-99.2764,199.6244,32.53,175,75
2026-05-07 18:28:16.831,1,-2.23,-1.03,7.21,35.1736,635.8444000000001,67.35,175,75
2026-05-07 18:28:16.848,1,1.8,0.07,6.67,82.4936,94.1944,39.599999999999994,175,75
2026-05-07 18:28:16.858,1,-0.35,-0.26,1.8,-31.2964,-373.91560000000004,39.3,175,75
2026-05-07 18:28:16.870,1,-0.03,-1.0,-1.18,-132.1464,-53.4856,-49.480000000000004,175,75
2026-05-07 18:28:16.882,1,-0.15,-1.07,-0.01,-169.7064,75.2344,-4.790000000000001,175,75
2026-05-07 18:28:16.903,1,-0.32,-0.72,0.37,-180.1364,67.7944,37.16,175,75
2026-05-07 18:28:16.918,1,0.29,0.28,1.8,-139.0964,82.5444,44.3,175,75
2026-05-07 18:28:16.927,1,0.0,0.52,1.5,-136.8364,30.7144,35.7,175,75
2026-05-07 18:28:16.934,1,-0.29,0.54,1.03,-138.9164,38.5844,26.62,175,75
2026-05-07 18:28:16.966,1,-0.43,0.28,0.66,-113.5464,32.6044,24.36,175,75
2026-05-07 18:28:16.978,1,-0.15,0.05,0.7,-100.0764,69.8644,8.87,175,75
2026-05-07 18:28:16.994,1,-0.1,0.11,0.94,-81.7764,70.4744,8.57,175,75
2026-05-07 18:28:16.994,1,-0.3,0.14,0.99,-66.96640000000001,68.8944,9.91,175,75
2026-05-07 18:28:17.020,1,-0.12,-0.1,0.82,-41.9664,91.39439999999999,7.709999999999999,175,75
2026-05-07 18:28:17.045,1,-0.04,-0.01,1.25,-35.0064,61.8744,7.83,175,75
2026-05-07 18:28:17.045,1,-0.02,-0.02,0.99,-47.9964,35.9644,1.4899999999999998,175,75
2026-05-07 18:28:17.076,1,-0.01,0.03,0.73,-48.7264,10.474400000000001,4.659999999999999,175,75
2026-05-07 18:28:17.091,1,-0.09,0.09,0.89,-28.486400000000003,12.1844,5.699999999999999,175,75
2026-05-07 18:28:17.114,1,-0.1,0.09,0.79,-10.0764,9.564400000000001,1.5499999999999994,175,75
2026-05-07 18:28:17.138,1,-0.1,0.02,0.9,11.753599999999999,20.654400000000003,4.05,175,75
2026-05-07 18:28:17.152,1,-0.09,-0.01,0.91,17.6736,26.1444,2.6499999999999995,175,75
2026-05-07 18:28:17.164,1,-0.08,0.02,0.92,21.693599999999996,24.014400000000002,4.909999999999999,175,75
2026-05-07 18:28:17.175,1,-0.07,0.01,0.81,35.2936,36.5744,5.699999999999999,175,75
2026-05-07 18:28:17.200,1,-0.07,-0.04,0.99,40.5336,44.314400000000006,4.3,175,75
2026-05-07 18:28:17.211,1,-0.15,-0.0,1.0,35.9636,39.9844,1.6199999999999997,175,75
2026-05-07 18:28:17.221,1,-0.18,0.02,1.0,31.1436,38.4044,-0.5200000000000005,175,75
2026-05-07 18:28:17.232,1,-0.29,0.09,1.15,27.613599999999998,36.5744,-8.450000000000001,175,75
2026-05-07 18:28:17.257,1,-0.27,0.09,1.22,26.513599999999997,30.5944,-14.059999999999999,175,75
2026-05-07 18:28:17.268,1,-0.24,0.09,1.18,24.1336,20.044400000000003,-14.670000000000002,175,75
2026-05-07 18:28:17.280,1,-0.17,0.09,0.99,24.3136,22.3044,-19.18,175,75
2026-05-07 18:28:17.295,1,-0.09,0.04,0.97,27.1836,27.7344,-19.79,175,75
2026-05-07 18:28:17.295,1,-0.08,0.02,0.95,27.9136,30.654400000000003,-20.150000000000002,175,75
2026-05-07 18:28:17.305,1,-0.08,-0.01,1.06,30.903599999999997,38.4644,-18.32,175,75
2026-05-07 18:28:17.338,1,-0.11,-0.09,1.02,26.943599999999996,35.174400000000006,-22.96,175,75
2026-05-07 18:28:17.354,1,-0.05,-0.01,1.03,21.513599999999997,38.2144,-21.56,175,75
2026-05-07 18:28:17.372,1,-0.05,0.04,1.09,19.383599999999998,31.514400000000002,-20.03,175,75
2026-05-07 18:28:17.388,1,0.04,0.04,0.94,14.8036,17.244400000000002,-24.36,175,75
2026-05-07 18:28:17.416,1,0.01,-0.04,0.97,20.5336,32.0644,-25.03,175,75
2026-05-07 18:28:17.431,1,-0.04,-0.01,1.01,21.3936,35.1044,-23.32,175,75
2026-05-07 18:28:17.442,1,-0.02,0.01,1.02,21.693599999999996,36.814400000000006,-21.01,175,75
2026-05-07 18:28:17.454,1,-0.01,-0.01,1.06,19.1936,39.6844,-19.18,175,75
2026-05-07 18:28:17.482,1,-0.12,0.13,1.23,7.553599999999999,12.244400000000002,-15.46,175,75
2026-05-07 18:28:17.495,1,-0.15,0.09,1.19,3.4635999999999996,2.854400000000002,-17.84,175,75
2026-05-07 18:28:17.508,1,-0.11,0.1,1.09,-3.426400000000001,-0.2555999999999976,-18.69,175,75
2026-05-07 18:28:17.519,1,-0.1,0.14,1.1,-5.006399999999999,-3.1255999999999986,-16.98,175,75
2026-05-07 18:28:17.530,1,-0.05,0.16,1.08,-7.386400000000002,-7.695599999999999,-15.400000000000002,175,75
2026-05-07 18:28:17.559,1,-0.05,0.14,1.22,-18.7264,-11.845599999999997,-7.35,175,75
2026-05-07 18:28:17.570,1,-0.09,0.17,1.32,-24.8264,-26.535599999999995,1.7999999999999994,175,75
2026-05-07 18:28:17.570,1,-0.15,0.19,1.34,-34.0964,-46.2956,7.59,175,75
2026-05-07 18:28:17.583,1,-0.11,0.15,1.25,-46.5364,-65.31559999999999,0.8799999999999994,175,75
2026-05-07 18:28:17.595,1,-0.03,0.09,1.08,-59.9464,-76.2356,-6.370000000000001,175,75
2026-05-07 18:28:17.608,1,0.18,-0.05,1.05,-59.6464,-77.5156,-9.48,175,75
2026-05-07 18:28:17.619,1,0.3,-0.19,0.92,-66.7764,-79.7656,-12.96,175,75
2026-05-07 18:28:17.632,1,0.25,-0.19,0.99,-67.1464,-65.7456,-7.65,175,75
2026-05-07 18:28:17.648,1,0.15,-0.14,1.05,-65.4964,-58.7956,-1.37,175,75
2026-05-07 18:28:17.673,1,0.03,-0.18,1.03,-73.4864,-58.1256,-1.37,175,75
2026-05-07 18:28:17.682,1,-0.01,-0.05,0.8,-73.2464,-36.105599999999995,2.0999999999999996,175,75
2026-05-07 18:28:17.690,1,0.06,0.01,0.84,-65.3764,-20.0156,3.1999999999999993,175,75
2026-05-07 18:28:17.705,1,-0.03,0.01,0.84,-60.6164,-14.285599999999995,5.88,175,75
2026-05-07 18:28:17.716,1,0.07,-0.01,0.72,-42.9964,-9.5856,5.3999999999999995,175,75
2026-05-07 18:28:17.735,1,0.05,0.02,0.66,-31.7164,2.424400000000002,20.52,175,75
2026-05-07 18:28:17.746,1,0.03,0.11,0.84,-24.276400000000002,-5.685599999999997,23.75,175,75
2026-05-07 18:28:17.769,1,0.03,0.07,0.72,-14.586400000000001,-3.1255999999999986,27.04,175,75
2026-05-07 18:28:17.769,1,0.02,0.05,0.72,-14.8264,6.264400000000002,24.849999999999998,175,75
2026-05-07 18:28:17.780,1,-0.09,0.06,0.75,-11.656400000000001,18.8244,24.849999999999998,175,75
2026-05-07 18:28:17.804,1,0.03,-0.05,0.76,-11.596400000000003,21.9344,18.63,175,75
2026-05-07 18:28:17.815,1,0.03,-0.02,0.74,-12.636400000000002,29.3744,21.86,175,75
2026-05-07 18:28:17.828,1,0.03,-0.02,0.97,-11.836400000000001,36.5144,24.599999999999998,175,75
2026-05-07 18:28:17.837,1,-0.14,-0.06,1.09,-14.156400000000001,32.6044,20.03,175,75
2026-05-07 18:28:17.847,1,-0.08,0.04,1.04,-20.0764,20.7844,23.2,175,75
2026-05-07 18:28:17.858,1,-0.12,0.06,0.96,-27.266400000000004,19.4344,18.02,175,75
2026-05-07 18:28:17.896,1,-0.14,0.07,0.9,-37.0864,13.764400000000002,10.879999999999999,175,75
2026-05-07 18:28:17.918,1,-0.12,0.03,0.83,-40.4964,8.954400000000001,6.74,175,75
2026-05-07 18:28:17.932,1,-0.12,0.0,0.73,-36.2964,15.044400000000001,2.5299999999999994,175,75
2026-05-07 18:28:17.950,1,-0.06,0.05,0.76,-29.706400000000002,20.174400000000002,4.909999999999999,175,75
2026-05-07 18:28:17.962,1,-0.04,0.03,0.75,-23.666400000000003,20.654400000000003,3.1399999999999997,175,75
2026-05-07 18:28:17.962,1,-0.03,0.04,0.7,-19.586399999999998,19.6844,1.1299999999999994,175,75
2026-05-07 18:28:17.977,1,-0.04,0.07,0.67,-13.726400000000002,20.8444,-1.0700000000000003,175,75
2026-05-07 18:28:17.998,1,-0.03,0.05,0.66,4.1335999999999995,25.4144,-8.99,175,75
2026-05-07 18:28:18.007,1,-0.07,0.05,0.73,12.0636,27.424400000000002,-13.260000000000002,175,75
2026-05-07 18:28:18.031,1,-0.09,0.03,0.73,16.883599999999998,29.1944,-16.740000000000002,175,75
2026-05-07 18:28:18.043,1,-0.08,0.0,0.72,21.2036,34.7444,-19.54,175,75
2026-05-07 18:28:18.053,1,-0.06,0.01,0.78,23.0336,39.3744,-15.64,175,75
2026-05-07 18:28:18.053,1,-0.08,-0.02,0.8,23.833599999999997,39.564400000000006,-14.36,175,75
2026-05-07 18:28:18.068,1,-0.06,-0.04,0.81,22.363599999999998,37.9744,-13.45,175,75
2026-05-07 18:28:18.079,1,-0.07,-0.04,0.78,21.6336,36.2044,-13.629999999999999,175,75
2026-05-07 18:28:18.101,1,-0.02,-0.03,0.77,22.0036,39.504400000000004,-12.29,175,75
2026-05-07 18:28:18.124,1,0.04,0.0,0.77,23.3436,42.674400000000006,-11.01,175,75
2026-05-07 18:28:18.133,1,0.05,-0.02,0.81,24.5036,44.254400000000004,-9.790000000000001,175,75
2026-05-07 18:28:18.148,1,0.04,-0.04,0.84,23.1636,42.6044,-9.540000000000001,175,75
2026-05-07 18:28:18.159,1,0.02,-0.05,0.87,20.7836,42.7344,-9.42,175,75
2026-05-07 18:28:18.159,1,0.01,-0.03,0.92,17.363599999999998,42.2444,-9.18,175,75
2026-05-07 18:28:18.181,1,0.01,0.01,0.96,13.4636,37.9744,-7.530000000000001,175,75
2026-05-07 18:28:18.205,1,-0.04,0.09,0.97,-3.3664000000000023,22.544400000000003,-3.8100000000000005,175,75
2026-05-07 18:28:18.213,1,-0.03,0.12,0.99,-9.8264,17.3644,-0.9500000000000002,175,75
2026-05-07 18:28:18.227,1,-0.0,0.13,1.0,-16.8964,9.254400000000002,-1.0100000000000007,175,75
2026-05-07 18:28:18.238,1,-0.02,0.1,1.0,-24.336399999999998,2.544400000000003,0.14999999999999947,175,75
2026-05-07 18:28:18.257,1,0.02,0.11,0.9,-42.5064,-10.805599999999998,0.4599999999999995,175,75
2026-05-07 18:28:18.270,1,-0.0,0.16,0.93,-51.5364,-13.245599999999996,1.2499999999999996,175,75
2026-05-07 18:28:18.281,1,-0.06,0.16,0.99,-58.7264,-12.2656,3.5699999999999994,175,75
2026-05-07 18:28:18.291,1,-0.06,0.18,1.07,-68.4264,-22.205599999999997,9.12,175,75
2026-05-07 18:28:18.304,1,-0.05,0.19,0.83,-87.2664,-42.3956,3.0799999999999996,175,75
2026-05-07 18:28:18.320,1,0.01,0.3,0.74,-94.1564,-34.4056,6.069999999999999,175,75
2026-05-07 18:28:18.326,1,0.1,0.29,0.71,-92.1464,-30.315599999999996,7.6499999999999995,175,75
2026-05-07 18:28:18.349,1,0.12,0.18,0.62,-89.5264,-33.4856,5.88,175,75
2026-05-07 18:28:18.379,1,0.06,0.03,0.61,-91.5964,-17.7556,6.74,175,75
2026-05-07 18:28:18.418,1,-0.05,0.0,0.63,-102.0864,-7.265599999999999,13.75,175,75
2026-05-07 18:28:18.429,1,-0.08,-0.02,0.59,-102.0264,2.1844,13.75,175,75
2026-05-07 18:28:18.442,1,-0.06,-0.04,0.54,-101.5364,4.314400000000001,13.2,175,75
2026-05-07 18:28:18.453,1,-0.03,-0.02,0.51,-101.8364,8.464400000000001,13.379999999999999,175,75
2026-05-07 18:28:18.463,1,-0.04,0.03,0.5,-97.7564,12.304400000000001,14.48,175,75
2026-05-07 18:28:18.478,1,-0.08,0.07,0.41,-92.3264,14.0744,9.719999999999999,175,75
2026-05-07 18:28:18.490,1,-0.08,0.1,0.42,-83.3664,20.174400000000002,8.2,175,75
2026-05-07 18:28:18.500,1,-0.1,0.05,0.37,-74.21640000000001,20.7144,0.9399999999999995,175,75
2026-05-07 18:28:18.511,1,-0.1,-0.01,0.34,-66.71640000000001,26.0244,-3.45,175,75
2026-05-07 18:28:18.532,1,-0.09,-0.09,0.37,-60.3164,31.934400000000004,-4.120000000000001,175,75
2026-05-07 18:28:18.552,1,0.11,-0.56,0.33,-50.1364,48.4644,-16.86,175,75
2026-05-07 18:28:18.561,1,0.14,-0.85,0.42,-45.6864,54.8044,-28.570000000000004,175,75
2026-05-07 18:28:18.572,1,0.03,-1.04,0.59,-51.71640000000001,58.0944,-36.43000000000001,175,75
2026-05-07 18:28:18.572,1,0.11,-1.04,0.88,-61.166399999999996,55.7844,-28.080000000000002,175,75
2026-05-07 18:28:18.584,1,0.17,-0.94,1.11,-64.9464,42.4844,-28.26,175,75
2026-05-07 18:28:18.608,1,0.08,-0.89,1.31,-62.8164,45.534400000000005,-40.760000000000005,175,75
2026-05-07 18:28:18.636,1,0.45,-0.42,1.35,-61.5964,30.2344,-31.8,175,75
2026-05-07 18:28:18.648,1,0.47,-0.19,1.07,-53.7264,-15.805599999999998,-31.01,175,75
2026-05-07 18:28:18.658,1,0.39,-0.12,0.58,-55.496399999999994,-64.40559999999999,-33.629999999999995,175,75
2026-05-07 18:28:18.669,1,0.29,-0.05,0.45,-50.556400000000004,-57.5156,-36.010000000000005,175,75
2026-05-07 18:28:18.680,1,0.13,-0.06,0.4,-58.916399999999996,-77.75559999999999,-28.45,175,75
2026-05-07 18:28:18.695,1,-0.16,-0.4,0.32,-90.6864,-78.3056,-24.73,175,75
2026-05-07 18:28:18.704,1,0.06,-0.41,0.38,-112.2664,-66.78559999999999,-23.2,175,75
2026-05-07 18:28:18.740,1,0.19,0.13,0.97,-107.6964,-36.2356,-34.67,175,75
2026-05-07 18:28:18.758,1,0.09,0.55,1.17,-93.6664,-55.4356,-52.47,175,75
2026-05-07 18:28:18.766,1,0.07,0.02,0.35,-106.4164,-74.7656,-52.47,175,75
2026-05-07 18:28:18.781,1,-0.37,0.16,0.36,-81.8364,47.064400000000006,-53.08,175,75
2026-05-07 18:28:18.791,1,-0.01,0.19,0.92,-45.4364,92.24440000000001,-57.84,175,75
2026-05-07 18:28:18.840,1,0.05,0.35,1.19,54.7436,3.764400000000002,-84.06,175,75
2026-05-07 18:28:18.846,1,0.1,0.37,0.99,74.9236,15.784400000000002,-95.21000000000001,175,75
2026-05-07 18:28:18.853,1,0.08,0.4,0.88,101.6336,36.5744,-103.14,175,75
2026-05-07 18:28:18.881,1,-0.01,0.35,0.95,134.1936,60.714400000000005,-110.58,175,75
2026-05-07 18:28:18.881,1,-0.09,0.29,1.08,159.8036,71.45439999999999,-114.06,175,75
2026-05-07 18:28:18.898,1,-0.13,0.25,1.11,178.1636,63.7044,-119.48,175,75
2026-05-07 18:28:18.908,1,-0.22,0.2,1.15,189.8036,54.9844,-122.71000000000001,175,75
2026-05-07 18:28:18.919,1,-0.3,0.14,1.16,200.9036,44.6244,-126.56000000000002,175,75
2026-05-07 18:28:18.934,1,-0.47,-0.02,1.17,224.1336,20.044400000000003,-128.57,175,75
2026-05-07 18:28:18.950,1,-0.52,-0.09,1.16,232.0636,3.9544000000000015,-125.7,175,75
2026-05-07 18:28:18.950,1,-0.58,-0.16,1.13,238.46359999999999,-14.955599999999997,-122.10000000000001,175,75
2026-05-07 18:28:18.956,1,-0.64,-0.24,1.09,244.9236,-37.2656,-119.12,175,75
2026-05-07 18:28:18.969,1,-0.71,-0.33,0.99,250.96359999999999,-54.035599999999995,-117.65,175,75
2026-05-07 18:28:18.988,1,-0.75,-0.42,0.84,258.34360000000004,-64.82560000000001,-117.77000000000001,175,75
2026-05-07 18:28:18.999,1,-0.83,-0.45,0.78,263.7036,-78.91560000000001,-112.17,175,75
2026-05-07 18:28:19.003,1,-0.96,-0.47,0.81,265.59360000000004,-99.03559999999999,-102.04,175,75
2026-05-07 18:28:19.019,1,-1.11,-0.5,0.82,268.6436,-123.60559999999998,-90.58,175,75
2026-05-07 18:28:19.045,1,-1.38,-0.47,0.64,264.5636,-171.9656,-53.989999999999995,175,75
2026-05-07 18:28:19.055,1,-1.48,-0.41,0.57,262.4936,-182.4556,-38.870000000000005,175,75
2026-05-07 18:28:19.067,1,-1.56,-0.38,0.45,263.09360000000004,-182.8156,-21.490000000000002,175,75
2026-05-07 18:28:19.078,1,-1.54,-0.42,0.28,266.9436,-168.60559999999998,-9.790000000000001,175,75
2026-05-07 18:28:19.086,1,-1.46,-0.46,0.06,269.0736,-144.5856,1.6799999999999997,175,75
2026-05-07 18:28:19.115,1,-1.19,-0.37,-0.13,263.34360000000004,-59.285599999999995,44.36,175,75
2026-05-07 18:28:19.131,1,-0.95,-0.36,0.39,244.1936,-39.6456,77.58999999999999,175,75
2026-05-07 18:28:19.143,1,-0.83,-0.46,0.57,232.7936,-60.925599999999996,86.86,175,75
2026-05-07 18:28:19.157,1,-0.7,-0.55,0.68,217.6136,-94.4656,92.28999999999999,175,75
2026-05-07 18:28:19.175,1,-0.53,-0.5,0.6,180.8436,-177.9956,93.92999999999999,175,75
2026-05-07 18:28:19.240,1,-0.27,-0.26,0.09,126.6936,-177.32559999999998,88.86999999999999,175,75
2026-05-07 18:28:19.262,1,-0.27,0.01,-0.16,104.5036,-91.59559999999999,86.92,175,75
2026-05-07 18:28:19.273,1,-0.32,0.17,-0.05,84.1336,-53.5456,96.42999999999999,175,75
2026-05-07 18:28:19.281,1,-0.32,0.12,0.09,54.623599999999996,-24.095599999999997,100.03,175,75
2026-05-07 18:28:19.297,1,-0.19,-0.01,0.25,22.9136,-24.5856,102.16,175,75
2026-05-07 18:28:19.310,1,-0.12,-0.04,0.32,-0.19640000000000057,-33.5456,104.53999999999999,175,75
2026-05-07 18:28:19.323,1,-0.05,-0.05,0.46,-30.6164,-43.425599999999996,108.57,175,75
2026-05-07 18:28:19.323,1,0.06,-0.04,0.45,-58.186400000000006,-63.065599999999996,112.1,175,75
2026-05-07 18:28:19.345,1,0.21,-0.11,0.45,-84.21640000000001,-76.29560000000001,113.81,175,75
2026-05-07 18:28:19.365,1,0.29,-0.15,0.48,-98.1164,-83.54560000000001,112.64999999999999,175,75
2026-05-07 18:28:19.390,1,0.4,-0.29,0.58,-125.6164,-122.69559999999998,106.74,175,75
2026-05-07 18:28:19.408,1,0.49,-0.32,0.39,-156.0464,-156.7856,101.13,175,75
