Time,ID,Ax,Ay,Az,Gx,Gy,Gz,Height,Weight
2026-05-09 14:50:08.637,1,0.39,-0.34,1.3,1.1424000000000003,-0.2711999999999999,-1.3066000000000013,175,75
2026-05-09 14:50:08.647,1,0.38,-0.35,1.31,1.2623999999999995,0.6988000000000001,-1.3066000000000013,175,75
2026-05-09 14:50:08.663,1,0.39,-0.35,1.32,1.0223999999999993,-0.5211999999999999,-1.3066000000000013,175,75
2026-05-09 14:50:08.681,1,0.39,-0.34,1.3,0.8323999999999998,-1.3712,-1.606600000000002,175,75
2026-05-09 14:50:08.696,1,0.39,-0.33,1.3,0.7723999999999993,-1.6111999999999997,-1.0566000000000013,175,75
2026-05-09 14:50:08.710,1,0.39,-0.34,1.3,0.7723999999999993,-1.3712,-1.1166000000000018,175,75
2026-05-09 14:50:08.746,1,0.39,-0.34,1.3,0.8323999999999998,-1.0011999999999999,-0.3866000000000014,175,75
2026-05-09 14:50:08.774,1,0.39,-0.34,1.31,0.7723999999999993,-0.33119999999999994,-0.20660000000000167,175,75
2026-05-09 14:50:08.788,1,0.38,-0.34,1.3,0.8924000000000003,-0.6412,-0.026600000000001955,175,75
2026-05-09 14:50:08.815,1,0.38,-0.34,1.29,0.8924000000000003,-0.46119999999999983,-0.26660000000000217,175,75
2026-05-09 14:50:08.827,1,0.39,-0.33,1.3,1.7523999999999997,-0.031199999999999894,-0.6966000000000019,175,75
2026-05-09 14:50:08.835,1,0.39,-0.34,1.31,1.5023999999999997,-0.21119999999999983,-0.4466000000000019,175,75
2026-05-09 14:50:08.856,1,0.39,-0.34,1.3,1.6923999999999992,-0.4012,-0.14660000000000117,175,75
2026-05-09 14:50:08.857,1,0.39,-0.34,1.3,1.5624000000000002,-0.4012,-0.26660000000000217,175,75
2026-05-09 14:50:08.871,1,0.39,-0.34,1.31,1.5624000000000002,-0.8811999999999998,-0.20660000000000167,175,75
2026-05-09 14:50:08.909,1,0.39,-0.35,1.31,1.6324000000000005,-0.7612000000000001,-0.20660000000000167,175,75
2026-05-09 14:50:08.962,1,0.39,-0.34,1.31,2.6023999999999994,0.9488000000000001,-0.20660000000000167,175,75
2026-05-09 14:50:08.980,1,0.39,-0.34,1.31,2.0524000000000004,0.5188,-0.14660000000000117,175,75
2026-05-09 14:50:08.987,1,0.39,-0.35,1.32,1.8724000000000007,0.3388,-0.4466000000000019,175,75
2026-05-09 14:50:09.001,1,0.38,-0.35,1.32,1.9924,0.27880000000000016,-0.5066000000000024,175,75
2026-05-09 14:50:09.027,1,0.39,-0.35,1.3,1.8724000000000007,-0.5211999999999999,-0.3266000000000009,175,75
2026-05-09 14:50:09.034,1,0.38,-0.35,1.3,2.1723999999999997,-0.8212000000000002,-0.5666000000000011,175,75
2026-05-09 14:50:09.044,1,0.38,-0.34,1.31,1.9924,-0.2711999999999999,-0.3866000000000014,175,75
2026-05-09 14:50:09.076,1,0.38,-0.35,1.32,1.8124000000000002,-0.21119999999999983,-0.26660000000000217,175,75
2026-05-09 14:50:09.089,1,0.38,-0.35,1.31,1.2623999999999995,0.08879999999999999,-0.3866000000000014,175,75
2026-05-09 14:50:09.105,1,0.38,-0.34,1.31,1.5023999999999997,0.2088000000000001,-0.3866000000000014,175,75
2026-05-09 14:50:09.123,1,0.38,-0.34,1.31,1.7523999999999997,0.4588000000000001,-0.3266000000000009,175,75
2026-05-09 14:50:09.137,1,0.38,-0.34,1.3,1.8124000000000002,0.02880000000000016,-0.5666000000000011,175,75
2026-05-09 14:50:09.149,1,0.38,-0.34,1.3,2.2324,0.02880000000000016,-0.8766000000000016,175,75
2026-05-09 14:50:09.159,1,0.39,-0.34,1.31,2.4223999999999997,0.27880000000000016,-0.7566000000000024,175,75
2026-05-09 14:50:09.176,1,0.39,-0.34,1.31,1.7523999999999997,0.08879999999999999,-0.9366000000000021,175,75
2026-05-09 14:50:09.187,1,0.39,-0.34,1.31,2.4223999999999997,0.39880000000000004,-0.9366000000000021,175,75
2026-05-09 14:50:09.187,1,0.4,-0.34,1.32,1.5023999999999997,-0.6412,-0.3866000000000014,175,75
2026-05-09 14:50:09.219,1,0.38,-0.34,1.31,1.5624000000000002,-1.1911999999999998,-0.026600000000001955,175,75
2026-05-09 14:50:09.241,1,0.39,-0.34,1.32,1.8124000000000002,-0.1512,0.10339999999999883,175,75
2026-05-09 14:50:09.254,1,0.38,-0.34,1.31,1.2623999999999995,0.02880000000000016,0.10339999999999883,175,75
2026-05-09 14:50:09.295,1,0.39,-0.35,1.32,1.6324000000000005,-0.21119999999999983,-0.26660000000000217,175,75
2026-05-09 14:50:09.307,1,0.38,-0.35,1.32,1.1424000000000003,-0.6412,-0.14660000000000117,175,75
2026-05-09 14:50:09.318,1,0.38,-0.35,1.3,1.4423999999999992,-0.1512,-0.3866000000000014,175,75
2026-05-09 14:50:09.347,1,0.37,-0.35,1.31,2.5424000000000007,-0.031199999999999894,-0.5666000000000011,175,75
2026-05-09 14:50:09.347,1,0.37,-0.35,1.31,2.362399999999999,0.6388,-0.8766000000000016,175,75
2026-05-09 14:50:09.427,1,0.39,-0.34,1.32,4.0624,1.8588,-1.1166000000000018,175,75
2026-05-09 14:50:09.432,1,0.39,-0.34,1.32,3.6424000000000003,1.1888,-1.1766000000000023,175,75
2026-05-09 14:50:09.454,1,0.38,-0.34,1.34,3.3924000000000003,0.02880000000000016,-1.1166000000000018,175,75
2026-05-09 14:50:09.479,1,0.39,-0.35,1.33,2.9724000000000004,-0.46119999999999983,-1.486600000000001,175,75
2026-05-09 14:50:09.515,1,0.39,-0.34,1.32,2.6624,1.0688,-1.2466000000000008,175,75
2026-05-09 14:50:09.525,1,0.38,-0.35,1.33,2.782399999999999,1.6788,-1.1766000000000023,175,75
2026-05-09 14:50:09.525,1,0.38,-0.35,1.33,2.7224000000000004,1.6788,-0.9366000000000021,175,75
2026-05-09 14:50:09.549,1,0.38,-0.35,1.33,3.0923999999999996,1.4988000000000001,-0.9966000000000008,175,75
2026-05-09 14:50:09.557,1,0.38,-0.34,1.32,2.6624,1.9188,-1.1766000000000023,175,75
2026-05-09 14:50:09.573,1,0.39,-0.34,1.31,2.6023999999999994,2.9588,-0.9966000000000008,175,75
2026-05-09 14:50:09.596,1,0.39,-0.35,1.34,2.1723999999999997,1.9788000000000001,-0.9966000000000008,175,75
2026-05-09 14:50:09.622,1,0.39,-0.34,1.33,1.9323999999999995,0.9488000000000001,-0.6366000000000014,175,75
2026-05-09 14:50:09.637,1,0.39,-0.34,1.34,1.3224,0.7588,-0.9366000000000021,175,75
2026-05-09 14:50:09.637,1,0.38,-0.34,1.34,1.0223999999999993,0.3388,-0.6966000000000019,175,75
2026-05-09 14:50:09.655,1,0.39,-0.35,1.34,1.0823999999999998,0.3388,-0.5066000000000024,175,75
2026-05-09 14:50:09.666,1,0.38,-0.35,1.33,0.8323999999999998,-0.33119999999999994,-0.7566000000000024,175,75
2026-05-09 14:50:09.682,1,0.38,-0.35,1.32,0.5923999999999996,0.39880000000000004,-0.8166000000000011,175,75
2026-05-09 14:50:09.696,1,0.38,-0.35,1.32,0.8924000000000003,1.0688,-0.6366000000000014,175,75
2026-05-09 14:50:09.730,1,0.39,-0.34,1.33,0.9524000000000008,0.6388,-0.5666000000000011,175,75
2026-05-09 14:50:09.735,1,0.39,-0.35,1.33,0.8924000000000003,-0.2711999999999999,-0.5666000000000011,175,75
2026-05-09 14:50:09.761,1,0.38,-0.35,1.32,0.8924000000000003,-0.031199999999999894,-0.8766000000000016,175,75
2026-05-09 14:50:09.761,1,0.38,-0.35,1.32,1.1424000000000003,0.4588000000000001,-0.7566000000000024,175,75
2026-05-09 14:50:09.772,1,0.39,-0.34,1.32,1.0823999999999998,0.5788000000000001,-1.0566000000000013,175,75
2026-05-09 14:50:09.784,1,0.38,-0.34,1.34,0.7723999999999993,0.5188,-0.6966000000000019,175,75
2026-05-09 14:50:09.815,1,0.39,-0.35,1.33,1.0223999999999993,0.4588000000000001,-0.7566000000000024,175,75
2026-05-09 14:50:09.815,1,0.39,-0.35,1.34,0.9524000000000008,0.5788000000000001,-0.8166000000000011,175,75
2026-05-09 14:50:09.839,1,0.38,-0.34,1.33,0.5923999999999996,0.5188,-0.9366000000000021,175,75
2026-05-09 14:50:09.839,1,0.38,-0.35,1.34,1.2024000000000008,0.7588,-0.5666000000000011,175,75
2026-05-09 14:50:09.882,1,0.39,-0.34,1.32,0.7124000000000006,0.6388,-1.2466000000000008,175,75
2026-05-09 14:50:09.892,1,0.39,-0.34,1.33,1.2024000000000008,0.6988000000000001,-1.2466000000000008,175,75
2026-05-09 14:50:09.903,1,0.39,-0.35,1.34,0.7723999999999993,0.6988000000000001,-1.2466000000000008,175,75
2026-05-09 14:50:09.917,1,0.39,-0.35,1.34,0.16239999999999988,-0.2711999999999999,-1.0566000000000013,175,75
2026-05-09 14:50:09.921,1,0.39,-0.34,1.33,-0.017599999999999838,-0.33119999999999994,-0.9366000000000021,175,75
2026-05-09 14:50:09.934,1,0.39,-0.34,1.33,0.2823999999999991,0.02880000000000016,-1.0566000000000013,175,75
2026-05-09 14:50:09.978,1,0.39,-0.35,1.34,-0.32760000000000034,1.0688,-0.5066000000000024,175,75
2026-05-09 14:50:09.978,1,0.39,-0.35,1.34,-0.017599999999999838,0.8188000000000001,-0.4466000000000019,175,75
2026-05-09 14:50:09.992,1,0.38,-0.34,1.33,-0.13759999999999994,0.08879999999999999,-0.14660000000000117,175,75
2026-05-09 14:50:10.029,1,0.38,-0.34,1.33,-0.32760000000000034,0.39880000000000004,-0.26660000000000217,175,75
2026-05-09 14:50:10.029,1,0.39,-0.34,1.32,-0.32760000000000034,0.14880000000000004,-0.3866000000000014,175,75
2026-05-09 14:50:10.044,1,0.39,-0.34,1.32,-0.017599999999999838,1.0688,-0.26660000000000217,175,75
2026-05-09 14:50:10.074,1,0.39,-0.35,1.33,-0.44760000000000044,-0.5811999999999999,-0.20660000000000167,175,75
2026-05-09 14:50:10.101,1,0.39,-0.35,1.34,-0.5076,-2.0412,-0.14660000000000117,175,75
2026-05-09 14:50:10.133,1,0.38,-0.35,1.33,-0.13759999999999994,-0.5811999999999999,0.16339999999999755,175,75
2026-05-09 14:50:10.144,1,0.38,-0.35,1.32,0.2823999999999991,-0.6412,-0.026600000000001955,175,75
2026-05-09 14:50:10.187,1,0.39,-0.34,1.33,-0.017599999999999838,-0.5811999999999999,0.16339999999999755,175,75
2026-05-09 14:50:10.209,1,0.39,-0.35,1.32,-0.19760000000000044,-0.46119999999999983,0.46339999999999826,175,75
2026-05-09 14:50:10.219,1,0.39,-0.34,1.32,-0.32760000000000034,-0.5811999999999999,0.7133999999999983,175,75
2026-05-09 14:50:10.274,1,0.38,-0.34,1.32,0.4123999999999999,0.14880000000000004,0.46339999999999826,175,75
2026-05-09 14:50:10.284,1,0.38,-0.34,1.33,0.8924000000000003,-0.1512,0.7133999999999983,175,75
2026-05-09 14:50:10.318,1,0.39,-0.34,1.32,0.4123999999999999,-0.46119999999999983,0.34339999999999904,175,75
2026-05-09 14:50:10.334,1,0.38,-0.35,1.33,0.4724000000000004,0.2088000000000001,0.5233999999999988,175,75
2026-05-09 14:50:10.334,1,0.39,-0.34,1.34,0.4724000000000004,0.14880000000000004,0.9533999999999985,175,75
2026-05-09 14:50:10.344,1,0.38,-0.35,1.33,0.4724000000000004,-0.2711999999999999,0.6533999999999978,175,75
2026-05-09 14:50:10.354,1,0.38,-0.35,1.32,0.3423999999999996,0.14880000000000004,0.8333999999999993,175,75
2026-05-09 14:50:10.366,1,0.38,-0.35,1.33,0.8323999999999998,-0.09119999999999995,0.6533999999999978,175,75
2026-05-09 14:50:10.375,1,0.38,-0.35,1.31,0.2823999999999991,0.08879999999999999,0.5233999999999988,175,75
2026-05-09 14:50:10.392,1,0.37,-0.35,1.32,0.6524000000000001,0.6988000000000001,0.10339999999999883,175,75
2026-05-09 14:50:10.403,1,0.38,-0.35,1.32,1.0223999999999993,0.7588,0.5833999999999993,175,75
2026-05-09 14:50:10.425,1,0.38,-0.35,1.33,1.0223999999999993,0.3388,0.04339999999999833,175,75
2026-05-09 14:50:10.435,1,0.38,-0.34,1.32,1.6324000000000005,1.6188,-0.14660000000000117,175,75
2026-05-09 14:50:10.439,1,0.39,-0.34,1.33,1.9323999999999995,1.4288,0.16339999999999755,175,75
2026-05-09 14:50:10.452,1,0.38,-0.34,1.33,1.6324000000000005,0.8188000000000001,-0.08660000000000245,175,75
2026-05-09 14:50:10.463,1,0.38,-0.34,1.32,1.7523999999999997,0.08879999999999999,-0.4466000000000019,175,75
2026-05-09 14:50:10.505,1,0.38,-0.34,1.33,1.8124000000000002,0.2088000000000001,-0.5066000000000024,175,75
2026-05-09 14:50:10.516,1,0.38,-0.34,1.33,1.5624000000000002,0.5188,-0.5066000000000024,175,75
2026-05-09 14:50:10.524,1,0.38,-0.33,1.34,0.9524000000000008,-0.09119999999999995,-0.3866000000000014,175,75
2026-05-09 14:50:10.535,1,0.38,-0.33,1.34,0.8924000000000003,-0.46119999999999983,0.04339999999999833,175,75
2026-05-09 14:50:10.539,1,0.38,-0.34,1.34,0.4724000000000004,-0.7012,-0.3266000000000009,175,75
2026-05-09 14:50:10.567,1,0.38,-0.35,1.34,0.16239999999999988,0.02880000000000016,0.16339999999999755,175,75
2026-05-09 14:50:10.579,1,0.38,-0.36,1.32,-0.13759999999999994,1.4988000000000001,0.34339999999999904,175,75
2026-05-09 14:50:10.579,1,0.37,-0.35,1.31,-0.6276000000000002,3.6888,0.5233999999999988,175,75
2026-05-09 14:50:10.613,1,0.4,-0.36,1.38,-3.5576,10.088799999999999,2.353399999999999,175,75
2026-05-09 14:50:10.636,1,0.38,-0.33,1.4,-5.3876,6.6788,3.0833999999999993,175,75
2026-05-09 14:50:10.672,1,0.36,-0.35,1.24,-3.2476000000000003,-0.9411999999999998,1.013399999999999,175,75
2026-05-09 14:50:10.684,1,0.35,-0.34,1.18,-1.8476,2.7788000000000004,0.34339999999999904,175,75
2026-05-09 14:50:10.697,1,0.36,-0.35,1.2,-0.07760000000000034,10.6388,0.7133999999999983,175,75
2026-05-09 14:50:10.707,1,0.39,-0.36,1.29,1.6324000000000005,11.0088,0.28339999999999854,175,75
2026-05-09 14:50:10.742,1,0.38,-0.35,1.35,0.9524000000000008,-2.5312,-1.4266000000000023,175,75
2026-05-09 14:50:10.751,1,0.37,-0.35,1.31,0.9524000000000008,-4.7912,-1.9766000000000012,175,75
2026-05-09 14:50:10.751,1,0.37,-0.33,1.29,1.9924,-3.9912,-1.8466000000000022,175,75
2026-05-09 14:50:10.764,1,0.36,-0.33,1.28,2.9124,-2.4712,-2.276600000000002,175,75
2026-05-09 14:50:10.781,1,0.37,-0.34,1.3,4.8024000000000004,2.7788000000000004,-1.9766000000000012,175,75
2026-05-09 14:50:10.814,1,0.38,-0.35,1.34,4.8024000000000004,1.6788,-2.276600000000002,175,75
2026-05-09 14:50:10.818,1,0.37,-0.35,1.34,3.8824000000000005,0.27880000000000016,-2.276600000000002,175,75
2026-05-09 14:50:10.834,1,0.38,-0.34,1.35,3.452400000000001,0.08879999999999999,-2.2166000000000015,175,75
2026-05-09 14:50:10.852,1,0.4,-0.35,1.35,2.112399999999999,-1.0712000000000002,-1.2466000000000008,175,75
2026-05-09 14:50:10.863,1,0.39,-0.35,1.36,1.0823999999999998,-1.4912,-0.5666000000000011,175,75
2026-05-09 14:50:10.875,1,0.39,-0.35,1.34,0.16239999999999988,-1.6111999999999997,-0.26660000000000217,175,75
2026-05-09 14:50:10.902,1,0.38,-0.34,1.35,-0.6875999999999998,0.14880000000000004,1.3233999999999977,175,75
2026-05-09 14:50:10.916,1,0.36,-0.34,1.33,-1.1176000000000004,1.3088,1.3833999999999982,175,75
2026-05-09 14:50:10.972,1,0.38,-0.35,1.34,-1.9076000000000004,0.8888,0.7733999999999988,175,75
2026-05-09 14:50:10.995,1,0.39,-0.34,1.33,-1.7876000000000003,0.39880000000000004,1.013399999999999,175,75
2026-05-09 14:50:11.011,1,0.39,-0.34,1.35,-2.1576000000000004,-1.7412,1.8033999999999981,175,75
2026-05-09 14:50:11.036,1,0.36,-0.34,1.31,-2.0876,-4.3012,0.04339999999999833,175,75
2026-05-09 14:50:11.063,1,0.36,-0.35,1.31,-1.7275999999999998,-2.8312,-0.026600000000001955,175,75
2026-05-09 14:50:11.063,1,0.36,-0.35,1.32,-1.5476,-2.0412,0.04339999999999833,175,75
2026-05-09 14:50:11.093,1,0.37,-0.35,1.32,-0.6875999999999998,-3.0812,-0.4466000000000019,175,75
2026-05-09 14:50:11.105,1,0.36,-0.35,1.3,-1.0575999999999999,-3.4412000000000003,-0.6366000000000014,175,75
2026-05-09 14:50:11.115,1,0.36,-0.34,1.3,-0.5675999999999997,-2.2912,-0.6366000000000014,175,75
2026-05-09 14:50:11.153,1,0.37,-0.34,1.31,-0.32760000000000034,-0.8212000000000002,-0.4466000000000019,175,75
2026-05-09 14:50:11.165,1,0.37,-0.34,1.31,-0.8676000000000004,-1.5512000000000001,-0.7566000000000024,175,75
2026-05-09 14:50:11.165,1,0.37,-0.33,1.29,-0.26759999999999984,-0.8212000000000002,-0.7566000000000024,175,75
2026-05-09 14:50:11.189,1,0.37,-0.33,1.3,-0.19760000000000044,0.6988000000000001,-0.6966000000000019,175,75
2026-05-09 14:50:11.197,1,0.38,-0.33,1.31,0.7124000000000006,1.3088,-0.5066000000000024,175,75
2026-05-09 14:50:11.197,1,0.38,-0.35,1.34,0.6524000000000001,0.6388,-0.4466000000000019,175,75
2026-05-09 14:50:11.211,1,0.37,-0.34,1.34,0.8323999999999998,-1.5512000000000001,-0.26660000000000217,175,75
2026-05-09 14:50:11.223,1,0.37,-0.34,1.31,-0.07760000000000034,-2.1012,-1.0566000000000013,175,75
2026-05-09 14:50:11.268,1,0.36,-0.34,1.31,0.22240000000000038,0.27880000000000016,-0.9966000000000008,175,75
2026-05-09 14:50:11.278,1,0.37,-0.34,1.31,0.5323999999999991,0.4588000000000001,-0.8766000000000016,175,75
2026-05-09 14:50:11.299,1,0.37,-0.35,1.31,0.5323999999999991,0.6388,-0.9366000000000021,175,75
2026-05-09 14:50:11.325,1,0.37,-0.35,1.33,-0.38759999999999994,-0.7012,-0.8166000000000011,175,75
2026-05-09 14:50:11.325,1,0.37,-0.34,1.32,-0.07760000000000034,-0.5811999999999999,-0.6966000000000019,175,75
2026-05-09 14:50:11.352,1,0.36,-0.34,1.31,0.22240000000000038,0.14880000000000004,-0.26660000000000217,175,75
2026-05-09 14:50:11.363,1,0.36,-0.34,1.31,-0.13759999999999994,1.1888,-0.6366000000000014,175,75
2026-05-09 14:50:11.386,1,0.37,-0.34,1.31,0.2823999999999991,0.4588000000000001,-0.8766000000000016,175,75
2026-05-09 14:50:11.398,1,0.37,-0.34,1.32,-0.07760000000000034,0.6388,-0.7566000000000024,175,75
2026-05-09 14:50:11.412,1,0.37,-0.34,1.32,0.10240000000000027,-0.1512,-0.6966000000000019,175,75
2026-05-09 14:50:11.426,1,0.37,-0.34,1.32,-0.26759999999999984,-0.8212000000000002,-0.9966000000000008,175,75
2026-05-09 14:50:11.446,1,0.37,-0.34,1.32,-0.6875999999999998,0.3388,-0.6966000000000019,175,75
2026-05-09 14:50:11.470,1,0.36,-0.34,1.32,-0.13759999999999994,-1.2511999999999999,-1.1166000000000018,175,75
2026-05-09 14:50:11.481,1,0.38,-0.34,1.31,0.04239999999999977,-1.3712,-1.0566000000000013,175,75
2026-05-09 14:50:11.491,1,0.37,-0.35,1.31,-0.13759999999999994,-1.0011999999999999,-0.5666000000000011,175,75
2026-05-09 14:50:11.507,1,0.37,-0.35,1.32,0.10240000000000027,-1.3112,-0.8766000000000016,175,75
2026-05-09 14:50:11.519,1,0.36,-0.35,1.32,0.22240000000000038,-0.9411999999999998,-1.1766000000000023,175,75
2026-05-09 14:50:11.545,1,0.37,-0.34,1.32,-0.26759999999999984,-1.3712,-0.8766000000000016,175,75
2026-05-09 14:50:11.559,1,0.37,-0.34,1.31,0.4123999999999999,0.4588000000000001,-0.7566000000000024,175,75
2026-05-09 14:50:11.582,1,0.38,-0.34,1.31,0.7723999999999993,0.3388,-0.8166000000000011,175,75
2026-05-09 14:50:11.618,1,0.37,-0.34,1.3,0.10240000000000027,-2.0412,-0.9966000000000008,175,75
2026-05-09 14:50:11.630,1,0.38,-0.33,1.29,-0.017599999999999838,-1.2511999999999999,-0.6366000000000014,175,75
2026-05-09 14:50:11.633,1,0.37,-0.34,1.31,0.2823999999999991,-1.3712,-0.3866000000000014,175,75
2026-05-09 14:50:11.645,1,0.37,-0.34,1.31,0.4123999999999999,-1.8012000000000001,-0.7566000000000024,175,75
2026-05-09 14:50:11.670,1,0.37,-0.32,1.32,0.2823999999999991,-0.4012,-0.4466000000000019,175,75
2026-05-09 14:50:11.683,1,0.37,-0.33,1.32,0.5323999999999991,-0.1512,-0.20660000000000167,175,75
2026-05-09 14:50:11.706,1,0.37,-0.34,1.31,0.22240000000000038,-0.8212000000000002,-0.08660000000000245,175,75
2026-05-09 14:50:11.706,1,0.38,-0.34,1.31,0.3423999999999996,-0.7612000000000001,-0.08660000000000245,175,75
2026-05-09 14:50:11.735,1,0.38,-0.35,1.32,-0.13759999999999994,-1.0712000000000002,0.28339999999999854,175,75
2026-05-09 14:50:11.748,1,0.37,-0.34,1.3,-0.8075999999999999,-1.5512000000000001,0.34339999999999904,175,75
2026-05-09 14:50:11.760,1,0.37,-0.34,1.31,-0.38759999999999994,-0.46119999999999983,0.46339999999999826,175,75
2026-05-09 14:50:11.785,1,0.37,-0.34,1.31,0.2823999999999991,0.3388,0.5233999999999988,175,75
2026-05-09 14:50:11.785,1,0.37,-0.33,1.31,-0.07760000000000034,0.8888,0.7733999999999988,175,75
2026-05-09 14:50:11.809,1,0.36,-0.34,1.32,-0.26759999999999984,0.4588000000000001,0.9533999999999985,175,75
2026-05-09 14:50:11.817,1,0.37,-0.34,1.31,0.2823999999999991,0.39880000000000004,0.893399999999998,175,75
2026-05-09 14:50:11.830,1,0.36,-0.34,1.3,0.22240000000000038,1.3688,0.7733999999999988,175,75
2026-05-09 14:50:11.857,1,0.36,-0.34,1.32,1.0223999999999993,1.3088,0.893399999999998,175,75
2026-05-09 14:50:11.880,1,0.36,-0.34,1.3,0.8323999999999998,-0.1512,-0.5066000000000024,175,75
2026-05-09 14:50:11.912,1,0.37,-0.34,1.31,1.8724000000000007,0.6388,-0.26660000000000217,175,75
2026-05-09 14:50:11.939,1,0.37,-0.34,1.3,2.0524000000000004,0.39880000000000004,-0.8766000000000016,175,75
2026-05-09 14:50:11.953,1,0.37,-0.34,1.31,1.9924,0.6388,-0.4466000000000019,175,75
2026-05-09 14:50:11.982,1,0.36,-0.35,1.31,1.9924,-1.9811999999999999,-0.8766000000000016,175,75
2026-05-09 14:50:12.014,1,0.36,-0.34,1.31,1.9323999999999995,-1.2511999999999999,-1.2466000000000008,175,75
2026-05-09 14:50:12.023,1,0.36,-0.33,1.32,2.0524000000000004,-1.0011999999999999,-0.9966000000000008,175,75
2026-05-09 14:50:12.023,1,0.37,-0.34,1.32,1.8724000000000007,-1.0712000000000002,-1.4266000000000023,175,75
2026-05-09 14:50:12.037,1,0.37,-0.34,1.32,2.0524000000000004,-0.9411999999999998,-1.1166000000000018,175,75
2026-05-09 14:50:12.052,1,0.37,-0.34,1.33,1.9924,-0.9411999999999998,-1.3066000000000013,175,75
2026-05-09 14:50:12.063,1,0.36,-0.34,1.31,1.6923999999999992,-1.3112,-1.1766000000000023,175,75
2026-05-09 14:50:12.073,1,0.36,-0.35,1.31,1.9924,-0.09119999999999995,-0.8766000000000016,175,75
2026-05-09 14:50:12.081,1,0.36,-0.34,1.31,1.9323999999999995,0.2088000000000001,-0.7566000000000024,175,75
2026-05-09 14:50:12.089,1,0.36,-0.34,1.31,2.0524000000000004,1.2488000000000001,-0.6966000000000019,175,75
2026-05-09 14:50:12.102,1,0.37,-0.34,1.31,1.9323999999999995,2.2888,-0.3266000000000009,175,75
2026-05-09 14:50:12.129,1,0.36,-0.34,1.32,2.2324,2.4688,-0.6966000000000019,175,75
2026-05-09 14:50:12.146,1,0.37,-0.34,1.32,2.112399999999999,1.9788000000000001,-0.6966000000000019,175,75
2026-05-09 14:50:12.172,1,0.36,-0.34,1.32,2.4824,0.4588000000000001,-1.3066000000000013,175,75
2026-05-09 14:50:12.174,1,0.36,-0.34,1.31,2.4223999999999997,1.3688,-1.2466000000000008,175,75
2026-05-09 14:50:12.181,1,0.36,-0.34,1.3,2.112399999999999,1.7988,-1.5466000000000015,175,75
2026-05-09 14:50:12.196,1,0.36,-0.34,1.32,2.6624,2.3488,-1.0566000000000013,175,75
2026-05-09 14:50:12.208,1,0.36,-0.35,1.31,2.6023999999999994,2.5288000000000004,-1.5466000000000015,175,75
2026-05-09 14:50:12.253,1,0.36,-0.34,1.31,1.8124000000000002,-0.21119999999999983,-2.156600000000001,175,75
2026-05-09 14:50:12.277,1,0.37,-0.34,1.32,2.9124,0.02880000000000016,-2.276600000000002,175,75
2026-05-09 14:50:12.299,1,0.36,-0.34,1.33,2.0524000000000004,0.02880000000000016,-2.156600000000001,175,75
2026-05-09 14:50:12.299,1,0.37,-0.35,1.34,2.112399999999999,-0.46119999999999983,-2.2166000000000015,175,75
2026-05-09 14:50:12.324,1,0.37,-0.34,1.32,1.7523999999999997,-0.5211999999999999,-2.156600000000001,175,75
2026-05-09 14:50:12.344,1,0.37,-0.34,1.32,1.8724000000000007,-0.2711999999999999,-2.0966000000000022,175,75
2026-05-09 14:50:12.344,1,0.37,-0.34,1.33,1.8724000000000007,0.4588000000000001,-2.0366000000000017,175,75
2026-05-09 14:50:12.379,1,0.37,-0.35,1.33,1.7523999999999997,-0.21119999999999983,-2.2166000000000015,175,75
2026-05-09 14:50:12.398,1,0.37,-0.34,1.33,1.6324000000000005,-0.4012,-2.0966000000000022,175,75
2026-05-09 14:50:12.409,1,0.37,-0.34,1.34,1.2623999999999995,-0.09119999999999995,-1.9766000000000012,175,75
2026-05-09 14:50:12.439,1,0.37,-0.35,1.33,1.5023999999999997,-0.7012,-2.0366000000000017,175,75
2026-05-09 14:50:12.451,1,0.38,-0.35,1.33,1.0223999999999993,-0.5211999999999999,-1.7866000000000017,175,75
2026-05-09 14:50:12.456,1,0.37,-0.34,1.32,1.0823999999999998,-0.1512,-1.9766000000000012,175,75
2026-05-09 14:50:12.519,1,0.37,-0.35,1.33,0.5923999999999996,-0.21119999999999983,-1.8466000000000022,175,75
2026-05-09 14:50:12.529,1,0.37,-0.35,1.33,0.2823999999999991,-0.5211999999999999,-1.7866000000000017,175,75
2026-05-09 14:50:12.541,1,0.37,-0.34,1.32,0.2823999999999991,0.08879999999999999,-1.4266000000000023,175,75
2026-05-09 14:50:12.554,1,0.37,-0.34,1.32,0.04239999999999977,0.7588,-1.486600000000001,175,75
2026-05-09 14:50:12.594,1,0.37,-0.34,1.33,0.6524000000000001,2.2288,-1.606600000000002,175,75
2026-05-09 14:50:12.616,1,0.37,-0.34,1.33,0.8924000000000003,2.8388,-1.4266000000000023,175,75
2026-05-09 14:50:12.616,1,0.37,-0.34,1.31,0.7124000000000006,1.7988,-1.8466000000000022,175,75
2026-05-09 14:50:12.627,1,0.37,-0.34,1.31,1.0823999999999998,2.2888,-1.9766000000000012,175,75
2026-05-09 14:50:12.638,1,0.37,-0.34,1.31,1.3224,2.4688,-2.276600000000002,175,75
2026-05-09 14:50:12.648,1,0.37,-0.34,1.32,1.7523999999999997,2.1688,-2.2166000000000015,175,75
2026-05-09 14:50:12.648,1,0.37,-0.35,1.32,1.6324000000000005,2.2288,-2.276600000000002,175,75
2026-05-09 14:50:12.659,1,0.37,-0.34,1.33,1.8724000000000007,1.3088,-2.396600000000001,175,75
2026-05-09 14:50:12.671,1,0.37,-0.35,1.32,2.112399999999999,2.0388,-2.526600000000002,175,75
2026-05-09 14:50:12.693,1,0.37,-0.34,1.32,2.362399999999999,2.6488,-2.526600000000002,175,75
2026-05-09 14:50:12.706,1,0.37,-0.34,1.32,2.782399999999999,3.1988000000000003,-2.946600000000002,175,75
2026-05-09 14:50:12.716,1,0.37,-0.34,1.31,2.9724000000000004,4.7288,-2.7666000000000013,175,75
2026-05-09 14:50:12.735,1,0.37,-0.34,1.31,3.6424000000000003,6.7388,-2.7666000000000013,175,75
2026-05-09 14:50:12.765,1,0.37,-0.35,1.31,4.2524,9.538799999999998,-2.7066000000000017,175,75
2026-05-09 14:50:12.765,1,0.38,-0.34,1.33,4.4323999999999995,9.418800000000001,-3.1366000000000014,175,75
2026-05-09 14:50:12.807,1,0.38,-0.35,1.33,4.4924,6.0688,-3.316600000000002,175,75
2026-05-09 14:50:12.821,1,0.38,-0.34,1.33,4.372400000000001,6.9788,-3.5566000000000013,175,75
2026-05-09 14:50:12.835,1,0.38,-0.35,1.34,4.862399999999999,6.9188,-3.6766000000000014,175,75
2026-05-09 14:50:12.846,1,0.38,-0.34,1.35,4.372400000000001,6.5588,-3.986600000000002,175,75
2026-05-09 14:50:12.846,1,0.39,-0.35,1.34,4.372400000000001,5.6388,-4.166600000000002,175,75
2026-05-09 14:50:12.878,1,0.38,-0.34,1.34,3.7623999999999995,4.598800000000001,-4.286600000000002,175,75
2026-05-09 14:50:12.896,1,0.38,-0.34,1.33,3.702400000000001,5.0888,-4.346600000000001,175,75
2026-05-09 14:50:12.896,1,0.39,-0.34,1.33,4.372400000000001,5.8188,-4.596600000000001,175,75
2026-05-09 14:50:12.919,1,0.39,-0.35,1.33,4.1324000000000005,6.1288,-4.536600000000002,175,75
2026-05-09 14:50:12.931,1,0.39,-0.34,1.35,3.9423999999999992,5.1488,-4.836600000000002,175,75
2026-05-09 14:50:12.985,1,0.39,-0.36,1.34,3.2124000000000006,4.4188,-4.7166000000000015,175,75
2026-05-09 14:50:12.988,1,0.38,-0.36,1.34,3.0923999999999996,4.5388,-5.026600000000002,175,75
2026-05-09 14:50:13.016,1,0.4,-0.35,1.35,3.3924000000000003,5.6388,-4.7166000000000015,175,75
2026-05-09 14:50:13.016,1,0.39,-0.34,1.35,2.9124,5.1488,-4.896600000000001,175,75
2026-05-09 14:50:13.069,1,0.4,-0.35,1.34,2.5424000000000007,4.1188,-5.326600000000002,175,75
2026-05-09 14:50:13.080,1,0.4,-0.35,1.35,2.9124,4.2387999999999995,-5.636600000000001,175,75
2026-05-09 14:50:13.090,1,0.4,-0.35,1.35,2.5424000000000007,2.8988,-5.816600000000002,175,75
2026-05-09 14:50:13.100,1,0.41,-0.34,1.36,2.5424000000000007,1.6788,-6.246600000000002,175,75
2026-05-09 14:50:13.123,1,0.4,-0.35,1.35,2.1723999999999997,0.5188,-6.366600000000002,175,75
2026-05-09 14:50:13.134,1,0.4,-0.35,1.34,2.3024000000000004,0.6388,-6.606600000000002,175,75
2026-05-09 14:50:13.155,1,0.41,-0.35,1.34,2.782399999999999,0.2088000000000001,-6.666600000000002,175,75
2026-05-09 14:50:13.181,1,0.4,-0.36,1.35,2.4824,-2.1012,-7.2166000000000015,175,75
2026-05-09 14:50:13.191,1,0.4,-0.35,1.34,2.782399999999999,-2.0412,-6.976600000000001,175,75
2026-05-09 14:50:13.199,1,0.41,-0.35,1.33,3.702400000000001,-1.4312,-7.276600000000002,175,75
2026-05-09 14:50:13.211,1,0.41,-0.35,1.33,4.2524,-0.2711999999999999,-7.646600000000001,175,75
2026-05-09 14:50:13.224,1,0.41,-0.35,1.33,4.3124,0.7588,-7.826600000000002,175,75
2026-05-09 14:50:13.224,1,0.41,-0.35,1.34,4.8024000000000004,0.5188,-7.946600000000002,175,75
2026-05-09 14:50:13.241,1,0.41,-0.35,1.34,4.9224,0.5188,-8.436600000000002,175,75
2026-05-09 14:50:13.266,1,0.42,-0.35,1.33,4.9824,1.3088,-8.616600000000002,175,75
2026-05-09 14:50:13.317,1,0.43,-0.37,1.33,7.9724,8.988800000000001,-7.946600000000002,175,75
2026-05-09 14:50:13.342,1,0.43,-0.36,1.35,8.522400000000001,8.928799999999999,-7.886600000000001,175,75
2026-05-09 14:50:13.352,1,0.43,-0.36,1.35,8.272400000000001,9.7288,-7.706600000000002,175,75
2026-05-09 14:50:13.366,1,0.43,-0.37,1.35,8.3324,10.8188,-7.336600000000002,175,75
2026-05-09 14:50:13.392,1,0.43,-0.38,1.34,8.8824,13.078800000000001,-5.876600000000002,175,75
2026-05-09 14:50:13.429,1,0.45,-0.39,1.32,2.2324,24.538800000000002,-0.8166000000000011,175,75
2026-05-09 14:50:13.442,1,0.49,-0.38,1.36,-2.2176,29.6688,1.5033999999999992,175,75
2026-05-09 14:50:13.476,1,0.53,-0.39,1.47,-15.2676,19.2388,8.393399999999998,175,75
2026-05-09 14:50:13.487,1,0.5,-0.38,1.41,-21.2976,13.928799999999999,10.163399999999998,175,75
2026-05-09 14:50:13.532,1,0.24,-0.3,1.14,-47.5176,-2.6512000000000002,26.2534,175,75
2026-05-09 14:50:13.540,1,0.22,-0.28,1.11,-53.7976,3.2588,29.243399999999994,175,75
2026-05-09 14:50:13.556,1,0.23,-0.28,1.13,-55.867599999999996,8.1988,30.833399999999997,175,75
2026-05-09 14:50:13.581,1,0.36,-0.28,1.23,-50.197599999999994,35.9488,29.303399999999996,175,75
2026-05-09 14:50:13.592,1,0.49,-0.29,1.36,-45.6876,33.8088,24.1834,175,75
2026-05-09 14:50:13.626,1,0.6,-0.25,1.73,-27.8876,-14.481200000000001,5.523399999999997,175,75
2026-05-09 14:50:13.662,1,0.45,-0.32,1.34,4.8024000000000004,-39.0512,-8.256600000000002,175,75
2026-05-09 14:50:13.673,1,0.18,-0.29,1.09,-0.07760000000000034,-45.0912,-8.066600000000001,175,75
2026-05-09 14:50:13.698,1,0.21,-0.29,0.92,-10.9376,-10.761199999999999,-2.8866000000000014,175,75
2026-05-09 14:50:13.710,1,0.38,-0.31,1.17,-1.6676000000000002,10.8188,-1.9166000000000007,175,75
2026-05-09 14:50:13.710,1,0.43,-0.31,1.33,3.7623999999999995,8.018799999999999,-2.396600000000001,175,75
2026-05-09 14:50:13.720,1,0.35,-0.31,1.35,4.372400000000001,3.5688,-2.156600000000001,175,75
2026-05-09 14:50:13.733,1,0.33,-0.34,1.29,3.7623999999999995,-0.2711999999999999,-2.0966000000000022,175,75
2026-05-09 14:50:13.746,1,0.33,-0.38,1.26,2.782399999999999,-3.2012,-2.7666000000000013,175,75
2026-05-09 14:50:13.757,1,0.37,-0.39,1.24,1.9323999999999995,-3.5111999999999997,-3.6766000000000014,175,75
2026-05-09 14:50:13.783,1,0.42,-0.38,1.24,2.112399999999999,-4.4212,-5.086600000000002,175,75
2026-05-09 14:50:13.800,1,0.43,-0.38,1.25,1.6923999999999992,-5.2112,-5.086600000000002,175,75
2026-05-09 14:50:13.819,1,0.41,-0.35,1.25,-1.6676000000000002,-9.051200000000001,-4.416600000000002,175,75
2026-05-09 14:50:13.831,1,0.4,-0.34,1.25,-1.6676000000000002,-9.851199999999999,-4.0466000000000015,175,75
2026-05-09 14:50:13.841,1,0.39,-0.33,1.25,-2.0275999999999996,-8.6312,-3.3766000000000016,175,75
2026-05-09 14:50:13.865,1,0.38,-0.34,1.27,-2.6976000000000004,-4.4212,-1.2466000000000008,175,75
2026-05-09 14:50:13.879,1,0.39,-0.34,1.25,-3.4375999999999998,-3.6311999999999998,-0.9366000000000021,175,75
2026-05-09 14:50:13.903,1,0.41,-0.35,1.23,-3.4375999999999998,1.6188,1.1333999999999982,175,75
2026-05-09 14:50:13.916,1,0.41,-0.34,1.23,-4.227600000000001,0.6988000000000001,1.1933999999999987,175,75
2026-05-09 14:50:13.927,1,0.41,-0.33,1.23,-4.3476,-0.5211999999999999,1.2533999999999992,175,75
2026-05-09 14:50:13.939,1,0.41,-0.33,1.24,-5.3276,-1.8611999999999997,1.6233999999999984,175,75
2026-05-09 14:50:13.949,1,0.4,-0.33,1.25,-5.9976,-3.4412000000000003,1.6233999999999984,175,75
2026-05-09 14:50:13.962,1,0.39,-0.33,1.25,-6.1176,-4.9112,1.563399999999998,175,75
2026-05-09 14:50:13.973,1,0.37,-0.34,1.25,-6.0576,-6.2512,1.5033999999999992,175,75
2026-05-09 14:50:13.983,1,0.37,-0.35,1.23,-5.8676,-5.6411999999999995,1.7433999999999976,175,75
2026-05-09 14:50:14.001,1,0.36,-0.33,1.2,-5.0776,-2.3512,1.563399999999998,175,75
2026-05-09 14:50:14.025,1,0.36,-0.34,1.2,-5.3876,-0.7012,1.4433999999999987,175,75
2026-05-09 14:50:14.036,1,0.38,-0.33,1.22,-4.7176,-0.7012,1.5033999999999992,175,75
2026-05-09 14:50:14.058,1,0.39,-0.32,1.21,-4.8376,-3.2012,1.1933999999999987,175,75
2026-05-09 14:50:14.070,1,0.38,-0.33,1.21,-5.1376,-3.9912,1.2533999999999992,175,75
2026-05-09 14:50:14.093,1,0.38,-0.34,1.21,-3.9776000000000002,-3.5111999999999997,1.1333999999999982,175,75
2026-05-09 14:50:14.138,1,0.37,-0.33,1.2,-2.3975999999999997,-0.5211999999999999,0.893399999999998,175,75
2026-05-09 14:50:14.166,1,0.37,-0.32,1.21,-2.0876,-2.1612,0.04339999999999833,175,75
2026-05-09 14:50:14.178,1,0.37,-0.32,1.21,-1.9676,-2.4112,0.16339999999999755,175,75
2026-05-09 14:50:14.199,1,0.36,-0.33,1.2,-1.2376000000000005,-2.8312,0.16339999999999755,175,75
2026-05-09 14:50:14.211,1,0.37,-0.33,1.2,-0.7476000000000003,-1.7412,0.28339999999999854,175,75
2026-05-09 14:50:14.235,1,0.37,-0.33,1.21,-0.9375999999999998,-1.2511999999999999,0.40339999999999776,175,75
2026-05-09 14:50:14.256,1,0.37,-0.32,1.2,-0.32760000000000034,-0.4012,0.5233999999999988,175,75
2026-05-09 14:50:14.266,1,0.38,-0.32,1.2,-0.07760000000000034,-0.5811999999999999,0.6533999999999978,175,75
2026-05-09 14:50:14.309,1,0.36,-0.32,1.2,-0.19760000000000044,0.27880000000000016,0.40339999999999776,175,75
2026-05-09 14:50:14.337,1,0.37,-0.32,1.21,0.2823999999999991,0.8888,0.46339999999999826,175,75
2026-05-09 14:50:14.363,1,0.37,-0.33,1.22,-0.13759999999999994,0.8188000000000001,0.6533999999999978,175,75
2026-05-09 14:50:14.373,1,0.38,-0.33,1.21,-0.19760000000000044,-0.1512,0.46339999999999826,175,75
2026-05-09 14:50:14.399,1,0.37,-0.33,1.2,-0.38759999999999994,-0.5211999999999999,0.16339999999999755,175,75
2026-05-09 14:50:14.411,1,0.37,-0.32,1.21,-0.07760000000000034,-0.4012,0.22339999999999804,175,75
2026-05-09 14:50:14.437,1,0.36,-0.32,1.2,0.22240000000000038,-0.8811999999999998,-0.3266000000000009,175,75
2026-05-09 14:50:14.437,1,0.37,-0.32,1.2,0.04239999999999977,-0.2711999999999999,-0.26660000000000217,175,75
2026-05-09 14:50:14.509,1,0.37,-0.33,1.22,0.10240000000000027,-2.6512000000000002,-0.3266000000000009,175,75
2026-05-09 14:50:14.523,1,0.37,-0.33,1.2,0.16239999999999988,-2.1012,-0.26660000000000217,175,75
2026-05-09 14:50:14.545,1,0.37,-0.33,1.21,0.2823999999999991,-1.0712000000000002,-0.3266000000000009,175,75
2026-05-09 14:50:14.557,1,0.37,-0.33,1.2,0.4724000000000004,-1.1911999999999998,-0.5666000000000011,175,75
2026-05-09 14:50:14.568,1,0.36,-0.33,1.19,0.4724000000000004,-0.7612000000000001,-0.6366000000000014,175,75
2026-05-09 14:50:14.582,1,0.37,-0.32,1.21,0.5323999999999991,-0.8212000000000002,-0.08660000000000245,175,75
2026-05-09 14:50:14.597,1,0.37,-0.32,1.21,-0.19760000000000044,-1.0011999999999999,-0.026600000000001955,175,75
2026-05-09 14:50:14.609,1,0.36,-0.32,1.21,0.4724000000000004,-1.8012000000000001,-0.3266000000000009,175,75
2026-05-09 14:50:14.624,1,0.36,-0.32,1.2,0.6524000000000001,-1.3712,-0.5666000000000011,175,75
2026-05-09 14:50:14.624,1,0.36,-0.32,1.2,0.8924000000000003,-0.46119999999999983,-0.20660000000000167,175,75
2026-05-09 14:50:14.648,1,0.36,-0.32,1.2,1.0823999999999998,-0.09119999999999995,-0.3266000000000009,175,75
2026-05-09 14:50:14.665,1,0.36,-0.32,1.2,1.3824000000000005,0.08879999999999999,-0.20660000000000167,175,75
2026-05-09 14:50:14.665,1,0.36,-0.32,1.21,1.2623999999999995,0.3388,-0.3266000000000009,175,75
2026-05-09 14:50:14.702,1,0.36,-0.32,1.21,1.1424000000000003,0.4588000000000001,-0.26660000000000217,175,75
2026-05-09 14:50:14.707,1,0.37,-0.32,1.22,0.7723999999999993,0.4588000000000001,-0.4466000000000019,175,75
2026-05-09 14:50:14.720,1,0.36,-0.33,1.22,0.4123999999999999,0.5188,-0.5666000000000011,175,75
2026-05-09 14:50:14.746,1,0.36,-0.33,1.21,1.3824000000000005,0.9488000000000001,-0.5066000000000024,175,75
2026-05-09 14:50:14.786,1,0.37,-0.31,1.2,1.3824000000000005,2.4088000000000003,-0.7566000000000024,175,75
2026-05-09 14:50:14.798,1,0.36,-0.31,1.21,1.3824000000000005,1.9188,-0.9966000000000008,175,75
2026-05-09 14:50:14.810,1,0.37,-0.32,1.22,1.7523999999999997,1.6188,-1.2466000000000008,175,75
2026-05-09 14:50:14.835,1,0.37,-0.33,1.24,1.3824000000000005,0.14880000000000004,-1.1766000000000023,175,75
2026-05-09 14:50:14.848,1,0.35,-0.34,1.22,1.3224,-0.5211999999999999,-1.2466000000000008,175,75
2026-05-09 14:50:14.861,1,0.36,-0.34,1.2,1.5023999999999997,1.7988,-2.4566000000000017,175,75
2026-05-09 14:50:14.883,1,0.37,-0.32,1.2,1.4423999999999992,1.7388000000000001,-1.7866000000000017,175,75
2026-05-09 14:50:14.915,1,0.36,-0.33,1.21,2.0524000000000004,2.2888,-2.0366000000000017,175,75
2026-05-09 14:50:14.937,1,0.36,-0.34,1.21,1.7523999999999997,2.1688,-1.7266000000000012,175,75
2026-05-09 14:50:14.971,1,0.33,-0.39,1.2,1.8724000000000007,0.8188000000000001,-2.156600000000001,175,75
2026-05-09 14:50:14.986,1,0.3,-0.44,1.16,4.6724,0.4588000000000001,1.6233999999999984,175,75
2026-05-09 14:50:15.008,1,0.34,-0.45,1.16,9.002400000000002,13.7488,0.8333999999999993,175,75
2026-05-09 14:50:15.008,1,0.4,-0.21,1.22,-1.4775999999999998,18.628800000000002,4.673399999999999,175,75
2026-05-09 14:50:15.038,1,0.5,-0.24,1.28,-9.467600000000001,8.018799999999999,6.863399999999997,175,75
2026-05-09 14:50:15.060,1,0.42,-0.35,1.33,-21.607599999999998,-20.9412,11.3834,175,75
2026-05-09 14:50:15.060,1,0.28,-0.26,1.23,-26.4776,-27.6512,19.0034,175,75
2026-05-09 14:50:15.093,1,0.15,-0.27,1.04,-41.1776,4.1188,38.5134,175,75
2026-05-09 14:50:15.108,1,0.2,-0.23,1.13,-43.557599999999994,5.1488,40.4634,175,75
2026-05-09 14:50:15.134,1,0.29,-0.2,1.17,-38.0076,7.5288,33.023399999999995,175,75
2026-05-09 14:50:15.144,1,0.42,-0.21,1.22,-29.2876,13.808800000000002,28.2134,175,75
2026-05-09 14:50:15.169,1,0.58,-0.23,1.43,-3.9176,23.198800000000002,12.173399999999999,175,75
2026-05-09 14:50:15.171,1,0.72,-0.3,1.42,14.982399999999998,33.318799999999996,1.563399999999998,175,75
2026-05-09 14:50:15.206,1,0.14,-0.29,0.84,-3.1875999999999998,-1.6812,2.603399999999999,175,75
2026-05-09 14:50:15.230,1,0.35,-0.35,0.98,-1.2976,14.358799999999999,2.5433999999999983,175,75
2026-05-09 14:50:15.260,1,0.28,-0.44,1.31,4.4323999999999995,-14.661199999999997,-0.6966000000000019,175,75
2026-05-09 14:50:15.277,1,0.22,-0.47,1.23,-1.3575999999999997,-17.711199999999998,-1.4266000000000023,175,75
2026-05-09 14:50:15.277,1,0.29,-0.44,1.13,-3.5576,-18.9912,-2.646600000000001,175,75
2026-05-09 14:50:15.328,1,0.29,-0.26,1.14,-1.1176000000000004,-5.2712,-3.1366000000000014,175,75
2026-05-09 14:50:15.355,1,0.29,-0.29,1.16,0.16239999999999988,-14.601199999999999,-4.536600000000002,175,75
2026-05-09 14:50:15.367,1,0.3,-0.3,1.17,0.5323999999999991,-15.331199999999999,-4.226600000000001,175,75
2026-05-09 14:50:15.378,1,0.29,-0.33,1.18,0.5323999999999991,-18.8112,-4.536600000000002,175,75
2026-05-09 14:50:15.393,1,0.29,-0.32,1.14,-1.0575999999999999,-21.071199999999997,-5.386600000000001,175,75
2026-05-09 14:50:15.403,1,0.28,-0.32,1.11,0.04239999999999977,-13.571200000000001,-4.896600000000001,175,75
2026-05-09 14:50:15.415,1,0.33,-0.32,1.12,-0.32760000000000034,-14.1112,-4.896600000000001,175,75
2026-05-09 14:50:15.427,1,0.3,-0.28,1.08,0.5323999999999991,-11.2512,-4.476600000000001,175,75
2026-05-09 14:50:15.438,1,0.32,-0.28,1.07,1.2024000000000008,-8.9312,-4.286600000000002,175,75
2026-05-09 14:50:15.443,1,0.32,-0.28,1.08,2.112399999999999,-6.0112,-3.6766000000000014,175,75
2026-05-09 14:50:15.486,1,0.3,-0.29,1.12,5.6524,-6.6812,-2.646600000000001,175,75
2026-05-09 14:50:15.496,1,0.3,-0.28,1.1,6.6324000000000005,-5.1512,-2.276600000000002,175,75
2026-05-09 14:50:15.521,1,0.3,-0.28,1.17,7.8424,-1.7412,-1.6666000000000007,175,75
2026-05-09 14:50:15.616,1,0.32,-0.3,1.17,8.272400000000001,-7.1612,-3.066600000000002,175,75
2026-05-09 14:50:15.638,1,0.29,-0.3,1.15,7.9124,-6.4312,-4.0466000000000015,175,75
2026-05-09 14:50:15.656,1,0.29,-0.31,1.17,8.822399999999998,-7.4712000000000005,-4.0466000000000015,175,75
2026-05-09 14:50:15.656,1,0.29,-0.31,1.18,8.822399999999998,-6.2512,-4.536600000000002,175,75
2026-05-09 14:50:15.699,1,0.31,-0.32,1.2,8.1524,-7.771199999999999,-4.7166000000000015,175,75
2026-05-09 14:50:15.699,1,0.32,-0.32,1.19,8.032399999999999,-7.8312,-4.286600000000002,175,75
2026-05-09 14:50:15.711,1,0.32,-0.32,1.18,7.1724,-4.1112,-3.4966000000000017,175,75
2026-05-09 14:50:15.732,1,0.33,-0.35,1.28,5.4724,-7.711200000000001,-2.156600000000001,175,75
2026-05-09 14:50:15.763,1,0.31,-0.34,1.22,1.9924,-10.821200000000001,-2.0966000000000022,175,75
2026-05-09 14:50:15.771,1,0.3,-0.32,1.21,1.3824000000000005,-8.7512,-1.2466000000000008,175,75
2026-05-09 14:50:15.782,1,0.3,-0.32,1.2,0.5923999999999996,-4.7912,-0.026600000000001955,175,75
2026-05-09 14:50:15.817,1,0.31,-0.31,1.22,-1.0575999999999999,3.3188,2.603399999999999,175,75
2026-05-09 14:50:15.841,1,0.33,-0.28,1.18,-0.26759999999999984,7.9588,5.833399999999999,175,75
2026-05-09 14:50:15.858,1,0.32,-0.26,1.19,-2.5776000000000003,11.2488,5.713399999999998,175,75
2026-05-09 14:50:15.875,1,0.34,-0.29,1.16,-6.3576,20.8188,7.053399999999998,175,75
2026-05-09 14:50:15.887,1,0.35,-0.35,1.21,-8.4976,25.1488,9.183399999999997,175,75
2026-05-09 14:50:15.898,1,0.38,-0.36,1.31,-11.7276,25.7588,10.953399999999997,175,75
2026-05-09 14:50:15.909,1,0.4,-0.37,1.38,-16.9676,19.4788,13.393399999999998,175,75
2026-05-09 14:50:15.922,1,0.38,-0.37,1.39,-23.0676,9.3588,17.6034,175,75
2026-05-09 14:50:15.929,1,0.37,-0.36,1.36,-27.2776,6.5588,18.6334,175,75
2026-05-09 14:50:15.945,1,0.4,-0.33,1.39,-32.4576,2.5888,21.743399999999994,175,75
2026-05-09 14:50:15.945,1,0.35,-0.3,1.41,-37.0276,-5.4012,22.233399999999996,175,75
2026-05-09 14:50:15.960,1,0.28,-0.3,1.34,-43.977599999999995,-10.4012,25.283399999999993,175,75
2026-05-09 14:50:15.968,1,0.28,-0.33,1.29,-48.857600000000005,-3.6311999999999998,28.7534,175,75
2026-05-09 14:50:15.984,1,0.32,-0.39,1.29,-52.217600000000004,12.4088,34.063399999999994,175,75
2026-05-09 14:50:15.999,1,0.4,-0.37,1.29,-55.5676,14.7288,42.663399999999996,175,75
2026-05-09 14:50:16.011,1,0.28,-0.36,1.12,-54.587599999999995,13.2588,44.7934,175,75
2026-05-09 14:50:16.024,1,0.37,-0.43,0.95,-55.867599999999996,35.638799999999996,54.4934,175,75
2026-05-09 14:50:16.035,1,0.3,-0.49,0.92,-51.2976,48.318799999999996,59.673399999999994,175,75
2026-05-09 14:50:16.047,1,0.36,-0.61,0.94,-49.837599999999995,72.03880000000001,65.3434,175,75
2026-05-09 14:50:16.076,1,0.33,-0.78,0.96,-42.217600000000004,62.648799999999994,62.47339999999999,175,75
2026-05-09 14:50:16.091,1,0.24,-0.75,0.99,-41.607600000000005,71.36880000000001,53.39339999999999,175,75
2026-05-09 14:50:16.127,1,0.17,-0.7,0.96,-23.2476,60.578799999999994,43.633399999999995,175,75
2026-05-09 14:50:16.150,1,0.1,-0.66,0.84,-8.9176,72.4088,38.883399999999995,175,75
2026-05-09 14:50:16.161,1,0.09,-0.51,0.98,-1.1776,76.5588,35.2234,175,75
2026-05-09 14:50:16.172,1,0.04,-0.33,1.1,3.452400000000001,66.9788,34.733399999999996,175,75
2026-05-09 14:50:16.178,1,0.01,-0.28,1.15,5.4724,58.078799999999994,36.803399999999996,175,75
2026-05-09 14:50:16.194,1,-0.05,-0.26,1.14,6.5024,53.138799999999996,35.343399999999995,175,75
2026-05-09 14:50:16.207,1,-0.01,-0.17,1.06,6.9924,45.888799999999996,34.1834,175,75
2026-05-09 14:50:16.216,1,0.05,-0.05,0.91,7.0524000000000004,47.038799999999995,35.0434,175,75
2026-05-09 14:50:16.228,1,0.05,0.06,0.82,5.8324,48.8088,34.913399999999996,175,75
2026-05-09 14:50:16.265,1,0.27,0.33,1.16,19.9824,74.2988,27.233399999999996,175,75
2026-05-09 14:50:16.275,1,0.29,0.35,1.17,19.4924,43.1988,14.4934,175,75
2026-05-09 14:50:16.286,1,0.3,0.33,1.2,16.0224,47.3488,5.953399999999997,175,75
2026-05-09 14:50:16.297,1,0.53,0.33,1.39,16.8724,30.518800000000002,-9.776600000000002,175,75
2026-05-09 14:50:16.311,1,0.5,0.44,1.47,14.612400000000001,8.5688,-20.2066,175,75
2026-05-09 14:50:16.321,1,0.54,0.51,1.51,14.4924,-2.5312,-28.2566,175,75
2026-05-09 14:50:16.321,1,0.59,0.58,1.53,14.1324,-24.6012,-37.336600000000004,175,75
2026-05-09 14:50:16.336,1,0.57,0.68,1.52,16.3224,-47.2912,-43.1366,175,75
2026-05-09 14:50:16.358,1,0.45,0.8,1.46,22.9124,-91.9812,-53.3166,175,75
2026-05-09 14:50:16.380,1,0.36,0.74,1.32,30.2824,-125.7612,-59.476600000000005,175,75
2026-05-09 14:50:16.391,1,0.42,0.69,1.25,32.662400000000005,-115.0312,-60.446600000000004,175,75
2026-05-09 14:50:16.403,1,0.45,0.66,1.24,36.8124,-84.54119999999999,-57.946600000000004,175,75
2026-05-09 14:50:16.418,1,0.6,0.6,1.35,38.4524,-52.351200000000006,-53.436600000000006,175,75
2026-05-09 14:50:16.418,1,0.48,0.55,1.31,30.8924,-108.32119999999999,-37.156600000000005,175,75
2026-05-09 14:50:16.432,1,-2.4,0.96,0.07,-19.587600000000002,-327.6512,4.493399999999998,175,75
2026-05-09 14:50:16.454,1,1.41,-1.28,-0.42,-272.5176,241.9188,262.1134,175,75
2026-05-09 14:50:16.466,1,0.93,-1.13,2.78,-78.5576,-195.8812,18.6334,175,75
2026-05-09 14:50:16.477,1,-2.16,-0.24,0.29,107.0524,0.5788000000000001,61.9934,175,75
2026-05-09 14:50:16.488,1,1.06,-1.34,0.73,-71.2376,15.948799999999999,101.13340000000001,175,75
2026-05-09 14:50:16.533,1,0.16,-2.31,0.36,-70.0176,-99.0512,31.563399999999994,175,75
2026-05-09 14:50:16.559,1,-0.57,-0.36,-0.09,-24.8976,47.9588,16.7434,175,75
2026-05-09 14:50:16.576,1,-0.78,-0.28,0.43,-1.2976,58.568799999999996,-5.996600000000002,175,75
2026-05-09 14:50:16.576,1,-0.78,-0.69,0.51,14.9224,71.00880000000001,-16.846600000000002,175,75
2026-05-09 14:50:16.596,1,-0.62,-1.13,0.64,33.522400000000005,97.95880000000001,-27.586600000000004,175,75
2026-05-09 14:50:16.619,1,-0.3,-1.52,0.91,41.632400000000004,121.9788,-28.9266,175,75
2026-05-09 14:50:16.658,1,0.74,-1.38,2.38,43.032399999999996,190.3988,-6.606600000000002,175,75
2026-05-09 14:50:16.681,1,0.52,-0.23,2.9,9.612400000000001,113.0788,34.493399999999994,175,75
2026-05-09 14:50:16.705,1,-0.2,0.13,0.69,-112.1576,-60.7012,55.953399999999995,175,75
2026-05-09 14:50:16.719,1,0.06,0.28,1.12,-95.0176,8.4488,55.58339999999999,175,75
2026-05-09 14:50:16.732,1,0.63,0.52,1.59,-40.747600000000006,47.038799999999995,42.60339999999999,175,75
2026-05-09 14:50:16.748,1,0.94,1.02,1.91,75.53240000000001,-2.5312,-19.6566,175,75
2026-05-09 14:50:16.761,1,0.85,0.85,1.74,114.61240000000001,12.468800000000002,-40.086600000000004,175,75
2026-05-09 14:50:16.778,1,0.89,0.6,1.76,153.82240000000002,29.358800000000002,-61.116600000000005,175,75
2026-05-09 14:50:16.778,1,0.86,0.43,1.77,178.3324,28.448800000000002,-75.08659999999999,175,75
2026-05-09 14:50:16.807,1,0.79,-0.06,1.85,191.7524,-24.7212,-84.5966,175,75
2026-05-09 14:50:16.844,1,0.9,0.06,1.3,155.8324,-70.82119999999999,-68.3166,175,75
2026-05-09 14:50:16.857,1,0.82,0.06,1.17,144.3724,-61.5512,-61.2466,175,75
2026-05-09 14:50:16.872,1,0.65,0.17,0.94,124.2524,-61.5512,-66.8466,175,75
2026-05-09 14:50:16.884,1,-3.35,1.13,0.03,54.9824,-431.25120000000004,-23.9266,175,75
2026-05-09 14:50:16.895,1,-5.93,1.88,-0.59,16.3824,-640.9412,-21.1766,175,75
2026-05-09 14:50:16.895,1,-1.92,1.5,-5.01,-33.0076,0.27880000000000016,396.0734,175,75
2026-05-09 14:50:16.915,1,-3.41,-1.95,-4.16,-360.1376,-176.6112,151.2534,175,75
2026-05-09 14:50:16.918,1,3.08,-1.58,-0.83,-223.0676,656.0688,151.8034,175,75
2026-05-09 14:50:16.940,1,1.64,-2.31,2.5,-105.6276,75.6388,97.2934,175,75
2026-05-09 14:50:16.958,1,0.09,-0.82,1.11,-110.2576,-243.1412,2.053399999999998,175,75
2026-05-09 14:50:16.981,1,-0.08,-0.12,-0.46,-126.8476,-172.53119999999998,50.8934,175,75
2026-05-09 14:50:16.991,1,-0.92,-0.04,-0.57,-129.7776,-56.431200000000004,58.94339999999999,175,75
2026-05-09 14:50:16.991,1,-0.48,-0.14,-0.07,-89.9576,96.00880000000001,68.63340000000001,175,75
2026-05-09 14:50:17.011,1,-0.44,-0.22,0.64,-45.0176,104.11880000000001,42.7234,175,75
2026-05-09 14:50:17.018,1,-0.3,-0.01,0.5,-33.2476,80.0888,19.4334,175,75
2026-05-09 14:50:17.029,1,-0.44,0.21,0.23,-7.4576,56.1288,-2.526600000000002,175,75
2026-05-09 14:50:17.043,1,-0.5,0.23,0.06,18.9424,57.898799999999994,-22.096600000000002,175,75
2026-05-09 14:50:17.094,1,-0.42,-1.26,0.57,98.5824,96.9788,-56.546600000000005,175,75
2026-05-09 14:50:17.104,1,-0.34,-1.79,0.73,113.3324,121.67880000000001,-57.0366,175,75
2026-05-09 14:50:17.116,1,-0.09,-1.82,1.02,125.16239999999999,149.2388,-53.866600000000005,175,75
2026-05-09 14:50:17.132,1,0.44,-0.52,2.94,100.53240000000001,221.3088,-28.806600000000003,175,75
2026-05-09 14:50:17.161,1,-0.4,0.42,1.37,-102.82759999999999,101.00880000000001,59.3034,175,75
2026-05-09 14:50:17.176,1,-0.89,0.05,-0.61,-220.7476,42.8388,105.2834,175,75
2026-05-09 14:50:17.176,1,-1.51,-0.7,-2.12,-366.66760000000005,114.2388,178.2134,175,75
2026-05-09 14:50:17.189,1,-1.19,-2.19,-1.31,-455.80760000000004,288.19879999999995,261.1934,175,75
2026-05-09 14:50:17.221,1,-0.88,-2.88,0.2,-578.9176,-93.8112,173.3934,175,75
2026-05-09 14:50:17.232,1,-0.28,-1.53,-0.73,-583.3076,79.53880000000001,152.4734,175,75
2026-05-09 14:50:17.238,1,0.36,-0.82,0.59,-532.5176,116.36880000000001,175.5834,175,75
2026-05-09 14:50:17.252,1,0.56,-0.68,1.58,-518.0676,96.1888,168.0834,175,75
2026-05-09 14:50:17.265,1,0.87,-0.56,2.27,-500.0176,35.2788,148.0234,175,75
2026-05-09 14:50:17.276,1,0.65,-0.44,2.37,-484.4676,-40.7612,147.9634,175,75
2026-05-09 14:50:17.294,1,0.55,-0.24,2.26,-455.0176,-71.0112,137.2934,175,75
2026-05-09 14:50:17.306,1,0.71,0.13,2.14,-429.9576,-76.49119999999999,138.45340000000002,175,75
2026-05-09 14:50:17.306,1,0.7,0.2,2.04,-401.29760000000005,-95.0312,152.9034,175,75
2026-05-09 14:50:17.361,1,0.43,0.33,1.28,-220.5076,-32.9012,115.4034,175,75
2026-05-09 14:50:17.362,1,0.5,0.36,1.36,-185.2676,13.018799999999999,92.4734,175,75
2026-05-09 14:50:17.372,1,0.61,0.44,1.53,-145.8676,37.4088,69.91340000000001,175,75
2026-05-09 14:50:17.383,1,0.66,0.49,1.69,-97.9476,39.968799999999995,45.163399999999996,175,75
2026-05-09 14:50:17.403,1,0.68,0.57,1.74,-66.9676,35.9488,23.273399999999995,175,75
2026-05-09 14:50:17.403,1,0.7,0.82,1.73,-27.0876,26.5588,-3.5566000000000013,175,75
2026-05-09 14:50:17.414,1,0.74,0.98,1.58,15.2224,13.1388,-26.486600000000003,175,75
2026-05-09 14:50:17.429,1,0.7,0.96,1.36,68.7624,8.1388,-54.656600000000005,175,75
2026-05-09 14:50:17.442,1,0.61,0.83,1.19,111.75240000000001,19.538800000000002,-80.5666,175,75
2026-05-09 14:50:17.453,1,0.55,0.75,1.17,150.1624,38.568799999999996,-103.1366,175,75
2026-05-09 14:50:17.464,1,0.53,0.74,1.25,178.2124,41.0088,-115.9966,175,75
2026-05-09 14:50:17.475,1,0.48,0.71,1.38,208.2724,34.9088,-130.2666,175,75
2026-05-09 14:50:17.485,1,0.46,0.68,1.48,235.7724,21.9788,-141.7866,175,75
2026-05-09 14:50:17.506,1,0.45,0.6,1.54,262.5424,2.5888,-153.0666,175,75
2026-05-09 14:50:17.506,1,0.44,0.49,1.55,286.32239999999996,-19.2412,-162.5266,175,75
2026-05-09 14:50:17.518,1,0.4,0.36,1.53,307.0524,-40.7012,-171.6066,175,75
2026-05-09 14:50:17.565,1,0.28,0.06,1.37,346.9324,-78.0212,-196.4866,175,75
2026-05-09 14:50:17.575,1,0.2,-0.18,1.2,371.44239999999996,-73.8112,-218.8666,175,75
2026-05-09 14:50:17.595,1,0.16,-0.4,1.19,384.5524,-62.101200000000006,-219.7766,175,75
2026-05-09 14:50:17.617,1,0.14,-0.46,1.17,386.63239999999996,-67.65119999999999,-219.04659999999998,175,75
2026-05-09 14:50:17.617,1,0.08,-0.61,1.18,390.5924,-65.7012,-220.7566,175,75
2026-05-09 14:50:17.640,1,0.11,-0.76,1.23,390.3424,-76.49119999999999,-239.2266,175,75
2026-05-09 14:50:17.648,1,0.22,-0.74,1.24,391.26239999999996,-100.40119999999999,-249.6566,175,75
2026-05-09 14:50:17.663,1,0.2,-0.77,1.3,387.4224,-136.1912,-251.6066,175,75
2026-05-09 14:50:17.685,1,0.04,-1.37,0.6,371.20239999999995,-121.8012,-245.6366,175,75
2026-05-09 14:50:17.696,1,-0.0,-1.46,0.21,355.6524,-81.8012,-257.64660000000003,175,75
2026-05-09 14:50:17.696,1,0.04,-1.35,0.37,337.9724,-47.5912,-224.1066,175,75
2026-05-09 14:50:17.733,1,-9.11,0.41,-1.24,110.7724,-930.0312,-220.6366,175,75
2026-05-09 14:50:17.754,1,-6.02,2.29,-5.45,82.72240000000001,-277.4712,284.3634,175,75
2026-05-09 14:50:17.755,1,-6.26,1.2,-6.88,-120.4476,-564.1812,501.7434,175,75
2026-05-09 14:50:17.766,1,1.82,-2.46,-1.59,-103.5576,715.5788,-35.7566,175,75
2026-05-09 14:50:17.778,1,-2.94,-0.19,1.79,-171.5476,640.4588,82.60340000000001,175,75
2026-05-09 14:50:17.791,1,2.54,-2.17,2.79,-41.357600000000005,344.5388,180.95340000000002,175,75
2026-05-09 14:50:17.803,1,1.43,-3.72,2.59,-17.087600000000002,-185.7012,22.173399999999994,175,75
2026-05-09 14:50:17.822,1,-1.4,0.04,-0.4,-48.91759999999999,-140.5212,-3.4966000000000017,175,75
2026-05-09 14:50:17.839,1,-0.95,0.37,-0.37,-23.4976,38.0188,25.653399999999998,175,75
2026-05-09 14:50:17.857,1,-0.43,-1.13,1.02,25.3424,189.2988,-9.896600000000001,175,75
2026-05-09 14:50:17.869,1,-0.28,-1.26,1.43,26.6324,165.0888,-26.366600000000002,175,75
2026-05-09 14:50:17.897,1,0.24,-1.12,1.61,42.97239999999999,132.2288,-34.1666,175,75
2026-05-09 14:50:17.908,1,0.12,-0.99,1.63,34.672399999999996,120.9488,-28.7466,175,75
2026-05-09 14:50:17.908,1,0.58,-0.94,2.04,32.172399999999996,154.9088,-25.2066,175,75
2026-05-09 14:50:17.931,1,0.5,-0.75,2.42,32.782399999999996,145.1488,-13.6766,175,75
2026-05-09 14:50:17.932,1,0.59,-0.58,2.66,3.2124000000000006,164.2988,7.603399999999999,175,75
2026-05-09 14:50:17.948,1,0.47,-0.16,2.46,-34.0476,116.7388,41.2534,175,75
2026-05-09 14:50:17.962,1,0.1,0.19,2.08,-62.7676,61.9188,45.8934,175,75
2026-05-09 14:50:17.972,1,-0.09,0.42,1.65,-90.8676,26.5588,57.6634,175,75
2026-05-09 14:50:18.025,1,0.77,1.05,1.47,33.4524,8.6288,8.753399999999997,175,75
2026-05-09 14:50:18.025,1,1.21,0.87,1.58,68.4524,-2.4712,-19.416600000000003,175,75
2026-05-09 14:50:18.074,1,0.97,0.39,1.91,117.2424,-85.7612,-72.8866,175,75
2026-05-09 14:50:18.127,1,-3.98,2.97,-5.91,-35.327600000000004,-30.7612,506.5034,175,75
2026-05-09 14:50:18.153,1,-1.45,0.71,0.69,-109.4076,475.81879999999995,130.0434,175,75
2026-05-09 14:50:18.182,1,1.25,-2.98,3.34,-64.9576,-5.5212,61.7434,175,75
2026-05-09 14:50:18.198,1,0.43,-2.12,1.72,-55.077600000000004,-179.1812,13.6334,175,75
2026-05-09 14:50:18.209,1,0.49,-1.39,0.22,-86.2976,-236.4912,14.9734,175,75
2026-05-09 14:50:18.221,1,-0.47,-0.71,-0.58,-75.32759999999999,-100.46119999999999,19.4934,175,75
2026-05-09 14:50:18.233,1,-0.89,-0.43,-0.11,0.6524000000000001,98.8088,7.173399999999999,175,75
2026-05-09 14:50:18.239,1,-0.66,-0.71,0.47,25.4124,81.61880000000001,-12.766600000000002,175,75
2026-05-09 14:50:18.265,1,-0.77,-0.93,0.12,91.2624,46.6188,-71.4266,175,75
2026-05-09 14:50:18.275,1,-0.55,-1.28,0.34,128.4524,74.9688,-78.9266,175,75
2026-05-09 14:50:18.287,1,0.1,-1.64,0.61,167.6624,115.5188,-65.3266,175,75
2026-05-09 14:50:18.298,1,0.22,-1.31,1.45,195.3424,202.0988,-53.866600000000005,175,75
2026-05-09 14:50:18.329,1,0.73,0.0,3.5,19.3724,316.06879999999995,10.5834,175,75
2026-05-09 14:50:18.340,1,-1.12,0.32,-0.06,-270.80760000000004,97.28880000000001,160.3434,175,75
2026-05-09 14:50:18.355,1,-1.79,-0.79,-1.37,-373.91760000000005,115.0888,214.67340000000002,175,75
2026-05-09 14:50:18.375,1,-1.34,-3.64,-0.77,-499.22760000000005,365.0288,323.0234,175,75
2026-05-09 14:50:18.385,1,-0.14,-3.51,0.39,-490.80760000000004,186.3688,305.1634,175,75
2026-05-09 14:50:18.401,1,0.27,-1.84,-0.08,-543.1276,189.6688,227.9634,175,75
2026-05-09 14:50:18.432,1,0.72,-0.62,1.44,-492.5776,101.1888,225.1634,175,75
2026-05-09 14:50:18.442,1,0.86,-0.8,1.71,-482.6976,38.388799999999996,212.9034,175,75
2026-05-09 14:50:18.469,1,0.84,-0.48,2.07,-425.5076,30.0288,162.5434,175,75
2026-05-09 14:50:18.476,1,1.02,0.0,2.47,-396.11760000000004,16.0088,167.0534,175,75
2026-05-09 14:50:18.510,1,0.95,0.26,2.0,-291.17760000000004,-111.68119999999999,174.0034,175,75
2026-05-09 14:50:18.518,1,0.73,0.4,1.56,-258.49760000000003,-113.2612,168.1534,175,75
2026-05-09 14:50:18.535,1,0.52,0.38,1.48,-201.9676,-69.6612,142.4134,175,75
2026-05-09 14:50:18.545,1,0.53,0.36,1.75,-156.6076,-24.6012,109.7334,175,75
2026-05-09 14:50:18.556,1,0.8,0.63,2.14,-98.1276,-15.941199999999998,65.6534,175,75
2026-05-09 14:50:18.556,1,0.91,0.89,2.22,-40.5076,-47.4712,36.1934,175,75
2026-05-09 14:50:18.577,1,0.86,0.94,2.06,14.4924,-56.681200000000004,7.353399999999999,175,75
2026-05-09 14:50:18.588,1,0.84,0.95,1.91,52.172399999999996,-55.8812,-22.8266,175,75
2026-05-09 14:50:18.588,1,0.81,0.97,1.78,90.7124,-50.5212,-53.866600000000005,175,75
2026-05-09 14:50:18.611,1,0.76,0.77,1.66,191.8724,-20.461199999999998,-118.3766,175,75
2026-05-09 14:50:18.645,1,0.63,0.56,1.62,261.44239999999996,1.6188,-161.8466,175,75
2026-05-09 14:50:18.645,1,0.55,0.46,1.61,296.63239999999996,9.178799999999999,-181.1766,175,75
2026-05-09 14:50:18.656,1,0.51,0.37,1.64,319.37239999999997,10.148800000000001,-194.2866,175,75
2026-05-09 14:50:18.672,1,0.49,0.25,1.66,342.1724,3.5688,-208.6166,175,75
2026-05-09 14:50:18.683,1,0.48,0.17,1.65,355.83239999999995,-6.5512,-217.5266,175,75
2026-05-09 14:50:18.700,1,0.47,-0.02,1.55,378.0924,-21.8612,-233.1366,175,75
2026-05-09 14:50:18.714,1,0.42,-0.17,1.34,383.70239999999995,-33.931200000000004,-237.2766,175,75
2026-05-09 14:50:18.737,1,0.34,-0.27,1.21,386.87239999999997,-31.921200000000002,-239.2866,175,75
2026-05-09 14:50:18.750,1,0.34,-0.4,1.21,398.64239999999995,-21.4912,-247.0366,175,75
2026-05-09 14:50:18.760,1,0.24,-0.5,1.38,398.2124,-47.0412,-248.4966,175,75
2026-05-09 14:50:18.771,1,0.07,-0.66,1.51,389.19239999999996,-97.4712,-258.9266,175,75
2026-05-09 14:50:18.787,1,0.06,-0.86,1.47,381.20239999999995,-120.21119999999999,-270.3266,175,75
2026-05-09 14:50:18.801,1,0.14,-1.09,1.45,372.3024,-143.3212,-287.3966,175,75
2026-05-09 14:50:18.827,1,-0.52,-1.54,0.21,333.27239999999995,-197.9612,-292.3366,175,75
2026-05-09 14:50:18.836,1,-0.37,-1.7,0.36,288.70239999999995,-184.97119999999998,-277.5266,175,75
2026-05-09 14:50:18.845,1,-1.95,-1.15,0.15,229.1324,-325.0912,-210.1466,175,75
2026-05-09 14:50:18.864,1,-6.13,-0.37,-1.95,130.3424,-772.1612,-212.9466,175,75
2026-05-09 14:50:18.874,1,-11.54,-0.38,-4.76,-52.4576,-667.0412,28.633399999999995,175,75
2026-05-09 14:50:18.885,1,4.79,2.23,-3.67,-258.18760000000003,42.3488,983.6934,175,75
2026-05-09 14:50:18.913,1,-7.84,0.92,1.51,-115.4476,907.2888,68.0834,175,75
2026-05-09 14:50:18.924,1,-0.14,-2.38,2.71,-39.107600000000005,209.5388,124.61340000000001,175,75
2026-05-09 14:50:18.939,1,1.5,-2.11,2.37,34.612399999999994,-41.8012,68.88340000000001,175,75
2026-05-09 14:50:18.957,1,-0.98,-2.11,0.48,-56.967600000000004,-214.4812,-22.526600000000002,175,75
2026-05-09 14:50:18.968,1,0.24,-1.32,0.17,-3.7376000000000005,-66.43119999999999,35.953399999999995,175,75
2026-05-09 14:50:18.982,1,0.05,-1.63,-0.64,37.112399999999994,23.5688,18.8234,175,75
2026-05-09 14:50:19.018,1,-0.28,-0.57,1.45,71.2624,102.5888,-29.596600000000002,175,75
2026-05-09 14:50:19.034,1,-0.19,-0.76,1.3,67.5424,110.6388,-29.2866,175,75
2026-05-09 14:50:19.038,1,0.15,-0.72,1.47,76.8724,157.4088,-35.9366,175,75
2026-05-09 14:50:19.059,1,0.19,-0.67,1.83,77.42240000000001,174.1788,-34.8966,175,75
2026-05-09 14:50:19.093,1,0.43,0.02,2.08,32.172399999999996,129.0588,-2.3366000000000025,175,75
2026-05-09 14:50:19.116,1,0.03,0.37,1.46,-33.7976,35.3388,26.623399999999997,175,75
2026-05-09 14:50:19.121,1,-0.13,0.36,1.04,-63.617599999999996,-4.1812,42.1134,175,75
2026-05-09 14:50:19.143,1,0.49,0.43,1.12,-38.367599999999996,17.7788,29.063399999999994,175,75
2026-05-09 14:50:19.164,1,0.58,0.58,1.25,-26.9676,-24.7212,13.943399999999999,175,75
2026-05-09 14:50:19.175,1,0.79,0.57,1.37,-20.0776,-64.9112,-7.456600000000002,175,75
2026-05-09 14:50:19.196,1,0.92,0.51,1.62,-15.197600000000001,-184.7912,-55.6366,175,75
2026-05-09 14:50:19.214,1,0.81,0.68,1.69,-9.4076,-221.25119999999998,-64.7766,175,75
2026-05-09 14:50:19.238,1,0.65,0.66,1.87,2.0524000000000004,-255.5812,-46.7866,175,75
2026-05-09 14:50:19.249,1,0.15,0.66,1.11,-5.1975999999999996,-271.9812,-48.3166,175,75
2026-05-09 14:50:19.274,1,0.4,0.07,-1.94,-142.5176,47.0988,313.2134,175,75
2026-05-09 14:50:19.279,1,0.69,-2.17,1.31,-187.3376,124.9088,-17.5866,175,75
2026-05-09 14:50:19.296,1,-2.07,-0.89,0.97,44.612399999999994,240.02880000000002,66.13340000000001,175,75
2026-05-09 14:50:19.309,1,1.4,-1.28,1.15,70.6524,205.6988,104.91340000000001,175,75
2026-05-09 14:50:19.336,1,1.18,-1.73,2.13,-66.5476,35.818799999999996,48.3334,175,75
2026-05-09 14:50:19.351,1,0.55,-1.49,1.1,-38.0076,-99.85119999999999,28.693399999999997,175,75
2026-05-09 14:50:19.373,1,-0.27,-0.85,-0.24,-36.5476,-7.771199999999999,14.363399999999997,175,75
2026-05-09 14:50:19.410,1,-0.69,-0.67,0.15,98.7024,13.5688,-83.6766,175,75
2026-05-09 14:50:19.410,1,-0.69,-0.8,0.21,123.39240000000001,21.428800000000003,-104.7766,175,75
2026-05-09 14:50:19.439,1,-0.48,-1.13,0.84,206.0824,119.78880000000001,-114.47659999999999,175,75
2026-05-09 14:50:19.469,1,0.11,0.44,2.82,-6.8476,260.0288,19.123399999999997,175,75
2026-05-09 14:50:19.470,1,-0.94,1.14,1.61,-128.9776,138.68880000000001,51.383399999999995,175,75
2026-05-09 14:50:19.482,1,-1.02,0.61,-0.23,-261.5476,196.5588,165.5834,175,75
2026-05-09 14:50:19.503,1,-1.1,-0.95,-0.62,-349.04760000000005,246.6188,211.9934,175,75
2026-05-09 14:50:19.505,1,-1.57,-1.99,-0.96,-425.0776,268.44879999999995,267.3534,175,75
2026-05-09 14:50:19.529,1,-0.89,-3.01,0.12,-462.5776,360.2088,301.3834,175,75
2026-05-09 14:50:19.529,1,-0.1,-3.0,0.88,-472.1576,168.8088,283.2734,175,75
2026-05-09 14:50:19.553,1,0.23,-1.46,-0.27,-506.7876,178.6288,226.6834,175,75
2026-05-09 14:50:19.563,1,0.66,-1.26,0.77,-473.24760000000003,210.9488,223.8234,175,75
2026-05-09 14:50:19.581,1,1.08,-0.71,1.67,-450.0776,87.8388,177.6634,175,75
2026-05-09 14:50:19.592,1,0.75,-0.59,1.59,-448.79760000000005,28.9988,161.5034,175,75
2026-05-09 14:50:19.607,1,0.66,-0.46,1.7,-424.8976,8.6288,143.6934,175,75
2026-05-09 14:50:19.645,1,0.74,0.29,2.14,-354.22760000000005,-127.59119999999999,156.6834,175,75
2026-05-09 14:50:19.658,1,0.65,0.63,1.61,-325.0176,-177.7712,170.5234,175,75
2026-05-09 14:50:19.658,1,0.59,0.62,1.3,-297.0276,-165.8812,171.6834,175,75
2026-05-09 14:50:19.671,1,0.62,0.47,1.19,-250.8676,-122.8312,151.9934,175,75
2026-05-09 14:50:19.691,1,0.59,0.47,1.31,-211.9076,-82.90119999999999,125.46340000000001,175,75
2026-05-09 14:50:19.691,1,0.64,0.65,1.55,-147.5176,-41.7412,91.5034,175,75
2026-05-09 14:50:19.707,1,0.74,0.78,1.8,-79.0476,-3.2611999999999997,53.453399999999995,175,75
2026-05-09 14:50:19.719,1,0.89,0.91,1.92,-31.3576,17.2288,24.243399999999994,175,75
2026-05-09 14:50:19.733,1,0.97,1.02,2.02,6.8124,18.928800000000003,1.3833999999999982,175,75
2026-05-09 14:50:19.733,1,0.98,1.02,2.08,46.382400000000004,13.3888,-22.586600000000004,175,75
2026-05-09 14:50:19.763,1,0.88,0.78,1.98,135.04240000000001,-7.4112,-81.11659999999999,175,75
2026-05-09 14:50:19.815,1,0.62,0.41,1.56,276.9924,31.428800000000003,-172.3366,175,75
2026-05-09 14:50:19.826,1,0.62,0.28,1.59,306.9324,34.7288,-195.5066,175,75
2026-05-09 14:50:19.847,1,0.57,0.14,1.6,342.9124,8.988800000000001,-215.2066,175,75
2026-05-09 14:50:19.863,1,0.47,-0.09,1.42,362.9124,-24.8512,-233.0066,175,75
2026-05-09 14:50:19.894,1,0.23,-0.22,1.32,374.9224,-46.1912,-233.8066,175,75
2026-05-09 14:50:19.911,1,0.17,-0.69,1.44,390.4124,-94.0512,-243.9866,175,75
2026-05-09 14:50:19.932,1,0.04,-1.22,1.5,373.1524,-95.15119999999999,-275.8766,175,75
2026-05-09 14:50:19.966,1,-0.02,-1.78,1.03,359.06239999999997,-160.03119999999998,-267.0366,175,75
2026-05-09 14:50:19.982,1,-1.02,-1.56,0.21,297.1724,-339.6012,-241.3066,175,75
2026-05-09 14:50:19.994,1,-8.2,-0.44,-3.97,189.6724,-1185.1512,-336.2466,175,75
2026-05-09 14:50:20.034,1,0.34,-0.33,0.42,-122.5176,393.19879999999995,-171.1166,175,75
2026-05-09 14:50:20.034,1,-3.3,2.09,1.87,-105.0176,535.5188,43.273399999999995,175,75
2026-05-09 14:50:20.083,1,0.73,-1.6,0.6,25.8924,-147.4112,-1.606600000000002,175,75
2026-05-09 14:50:20.090,1,0.63,-1.18,-0.19,6.9924,-78.6912,-12.276600000000002,175,75
2026-05-09 14:50:20.114,1,0.01,-1.48,0.49,14.9224,-6.9812,-7.826600000000002,175,75
2026-05-09 14:50:20.126,1,0.09,-1.48,0.59,48.392399999999995,37.7788,-12.456600000000002,175,75
2026-05-09 14:50:20.137,1,0.04,-1.28,0.74,28.2124,64.4788,-26.366600000000002,175,75
2026-05-09 14:50:20.150,1,-0.12,-0.8,0.89,47.4824,80.45880000000001,-29.836600000000004,175,75
2026-05-09 14:50:20.163,1,-0.11,-0.53,1.11,60.53240000000001,101.00880000000001,-31.726600000000005,175,75
2026-05-09 14:50:20.174,1,-0.09,-0.49,1.27,54.9824,125.14880000000001,-29.776600000000002,175,75
2026-05-09 14:50:20.199,1,0.32,-0.54,2.01,58.272400000000005,161.6188,-23.0666,175,75
2026-05-09 14:50:20.199,1,0.33,-0.56,2.3,45.1024,147.0988,-22.0366,175,75
2026-05-09 14:50:20.209,1,0.38,-0.34,2.38,23.2724,110.0888,-11.916600000000003,175,75
2026-05-09 14:50:20.226,1,0.27,-0.17,2.08,-2.0275999999999996,83.1988,10.4034,175,75
2026-05-09 14:50:20.237,1,-0.01,-0.01,1.75,-26.6676,52.8388,27.173399999999994,175,75
2026-05-09 14:50:20.253,1,-0.07,0.02,1.12,-61.7876,-9.481200000000001,49.4334,175,75
2026-05-09 14:50:20.265,1,-0.26,0.16,0.63,-78.4376,-39.4812,43.8234,175,75
2026-05-09 14:50:20.278,1,0.02,0.41,0.55,-77.7576,48.0188,47.843399999999995,175,75
2026-05-09 14:50:20.310,1,1.22,0.46,1.53,-28.9776,-41.431200000000004,-21.306600000000003,175,75
2026-05-09 14:50:20.325,1,1.26,0.63,1.69,-17.5176,-123.8112,-52.336600000000004,175,75
2026-05-09 14:50:20.325,1,1.18,0.84,1.79,-10.3276,-187.5912,-72.0966,175,75
2026-05-09 14:50:20.335,1,0.86,0.99,1.89,-2.5776000000000003,-227.3512,-86.3066,175,75
2026-05-09 14:50:20.347,1,0.56,1.0,1.98,6.9924,-255.0912,-105.3266,175,75
2026-05-09 14:50:20.362,1,0.79,0.73,2.06,29.6724,-281.13120000000004,-96.4866,175,75
2026-05-09 14:50:20.367,1,0.53,0.4,1.82,29.6724,-287.0412,-98.86659999999999,175,75
2026-05-09 14:50:20.377,1,0.55,0.27,1.37,22.3624,-301.25120000000004,-102.39659999999999,175,75
2026-05-09 14:50:20.397,1,-2.08,1.01,-0.2,-7.2776,-520.6411999999999,-66.0566,175,75
2026-05-09 14:50:20.413,1,3.03,-1.28,-0.43,-198.8576,195.5788,299.2434,175,75
2026-05-09 14:50:20.425,1,-0.08,-1.89,2.16,-99.71759999999999,53.078799999999994,-65.3866,175,75
2026-05-09 14:50:20.438,1,-1.61,-0.35,0.71,87.2424,284.17879999999997,90.5834,175,75
2026-05-09 14:50:20.449,1,1.1,-1.64,1.97,-12.217600000000001,156.3088,128.8234,175,75
2026-05-09 14:50:20.460,1,0.79,-2.33,2.12,-52.087599999999995,109.84880000000001,46.0734,175,75
2026-05-09 14:50:20.483,1,0.58,-1.15,0.69,-47.827600000000004,-50.821200000000005,41.8634,175,75
2026-05-09 14:50:20.511,1,-0.88,-0.25,0.11,0.2823999999999991,24.9088,-7.156600000000001,175,75
2026-05-09 14:50:20.524,1,-0.91,-0.03,0.28,22.9724,40.0288,-21.5466,175,75
2026-05-09 14:50:20.534,1,-0.76,-0.22,0.21,63.8224,15.698799999999999,-46.6666,175,75
2026-05-09 14:50:20.568,1,-0.58,-0.86,0.13,128.9424,66.3088,-94.83659999999999,175,75
2026-05-09 14:50:20.568,1,-0.66,-1.13,0.51,154.1324,73.31880000000001,-111.78659999999999,175,75
2026-05-09 14:50:20.612,1,0.38,0.06,2.82,45.772400000000005,241.6788,-14.956600000000002,175,75
2026-05-09 14:50:20.626,1,-0.79,1.15,1.6,-91.8476,123.1988,37.35339999999999,175,75
2026-05-09 14:50:20.637,1,-1.03,0.8,-0.23,-218.7376,137.0388,136.1334,175,75
2026-05-09 14:50:20.649,1,-1.33,-0.72,-1.08,-353.0076,240.1488,218.6334,175,75
2026-05-09 14:50:20.677,1,-0.08,-2.88,0.66,-439.7176,263.1388,288.5734,175,75
2026-05-09 14:50:20.690,1,-0.59,-2.66,0.48,-481.8476,86.5588,277.1734,175,75
2026-05-09 14:50:20.707,1,0.31,-1.23,0.09,-461.54760000000005,218.3888,230.1634,175,75
2026-05-09 14:50:20.724,1,0.55,-0.94,1.19,-447.5176,214.3588,216.6834,175,75
2026-05-09 14:50:20.735,1,0.98,-0.7,1.94,-424.7776,158.9288,177.4134,175,75
2026-05-09 14:50:20.742,1,1.0,-0.63,2.17,-414.22760000000005,88.6288,163.5134,175,75
2026-05-09 14:50:20.778,1,1.03,0.61,2.58,-343.79760000000005,-46.1312,140.8934,175,75
2026-05-09 14:50:20.790,1,0.89,0.62,2.4,-289.10760000000005,-94.18119999999999,140.1634,175,75
2026-05-09 14:50:20.805,1,0.84,0.64,1.98,-249.89759999999998,-134.3612,133.2734,175,75
2026-05-09 14:50:20.815,1,0.66,0.54,1.56,-204.0476,-137.4112,127.17340000000002,175,75
2026-05-09 14:50:20.827,1,0.51,0.45,1.47,-166.4176,-121.9212,102.96340000000001,175,75
2026-05-09 14:50:20.831,1,0.45,0.47,1.59,-121.4176,-63.51120000000001,61.25339999999999,175,75
2026-05-09 14:50:20.842,1,0.72,0.64,1.75,-82.02759999999999,-34.851200000000006,29.243399999999994,175,75
2026-05-09 14:50:20.870,1,0.84,0.95,1.78,4.2524,-61.5512,-8.7466,175,75
2026-05-09 14:50:20.906,1,0.65,0.83,1.5,125.5324,-16.4312,-92.94659999999999,175,75
2026-05-09 14:50:20.909,1,0.59,0.75,1.51,163.4524,-13.691199999999998,-115.8166,175,75
2026-05-09 14:50:20.922,1,0.53,0.64,1.46,190.04240000000001,-12.2212,-132.5266,175,75
2026-05-09 14:50:20.956,1,0.42,0.34,1.24,264.31239999999997,16.3088,-175.9366,175,75
2026-05-09 14:50:20.987,1,0.33,0.26,1.19,293.1524,13.6888,-190.9966,175,75
2026-05-09 14:50:20.995,1,0.25,0.11,1.22,320.3424,5.8888,-199.1666,175,75
2026-05-09 14:50:21.023,1,0.29,-0.16,1.24,341.9324,-4.9712,-211.4866,175,75
2026-05-09 14:50:21.034,1,0.34,-0.35,1.28,351.75239999999997,-17.961199999999998,-218.8066,175,75
2026-05-09 14:50:21.047,1,0.26,-0.72,1.4,358.1524,-51.5512,-225.9966,175,75
2026-05-09 14:50:21.082,1,0.22,-1.05,1.53,335.83239999999995,-158.0212,-259.1666,175,75
2026-05-09 14:50:21.082,1,0.26,-1.1,1.55,324.4324,-179.5412,-258.2566,175,75
2026-05-09 14:50:21.092,1,0.4,-1.12,1.54,311.56239999999997,-186.3712,-249.1666,175,75
2026-05-09 14:50:21.105,1,0.11,-1.08,1.36,298.88239999999996,-196.31119999999999,-226.4266,175,75
2026-05-09 14:50:21.115,1,-0.44,-1.01,0.74,259.37239999999997,-306.25120000000004,-201.7266,175,75
2026-05-09 14:50:21.142,1,-11.01,-0.35,-5.54,26.502399999999998,-724.3012,-75.14659999999999,175,75
2026-05-09 14:50:21.153,1,5.56,0.72,-3.79,-161.7876,119.4788,876.6833999999999,175,75
2026-05-09 14:50:21.164,1,-0.75,-1.32,0.64,-92.3376,290.5788,-218.3766,175,75
2026-05-09 14:50:21.176,1,-4.21,1.94,1.63,-69.3476,696.5588,59.5534,175,75
2026-05-09 14:50:21.187,1,1.16,1.04,3.14,19.8624,300.1488,101.8634,175,75
2026-05-09 14:50:21.187,1,0.71,-2.17,3.99,13.822399999999998,339.29879999999997,128.6934,175,75
2026-05-09 14:50:21.202,1,-0.37,-2.45,1.98,68.7024,-232.8312,1.1333999999999982,175,75
2026-05-09 14:50:21.225,1,0.47,-1.55,0.13,5.5924,-153.1412,13.573399999999998,175,75
2026-05-09 14:50:21.249,1,-0.18,-1.45,0.43,18.9424,24.1188,-1.5466000000000015,175,75
2026-05-09 14:50:21.286,1,-0.18,-0.83,0.94,42.6024,81.06880000000001,-37.586600000000004,175,75
2026-05-09 14:50:21.297,1,-0.07,-0.49,1.2,56.9924,109.4188,-32.3966,175,75
2026-05-09 14:50:21.310,1,0.05,-0.56,1.24,59.86240000000001,142.7088,-28.7466,175,75
2026-05-09 14:50:21.323,1,0.46,-0.68,1.74,50.7124,186.7988,-30.696600000000004,175,75
2026-05-09 14:50:21.334,1,0.4,-0.56,2.29,51.08240000000001,161.1288,-23.616600000000002,175,75
2026-05-09 14:50:21.347,1,0.33,-0.38,2.3,40.47239999999999,143.0188,-15.9966,175,75
2026-05-09 14:50:21.368,1,0.27,-0.29,2.18,8.642399999999999,112.7788,6.013399999999999,175,75
2026-05-09 14:50:21.378,1,0.07,-0.11,1.93,-16.0576,71.9788,22.663399999999996,175,75
2026-05-09 14:50:21.405,1,-0.05,0.17,0.66,-68.3676,-18.571199999999997,41.133399999999995,175,75
2026-05-09 14:50:21.416,1,0.04,0.43,0.88,-50.2676,25.698800000000002,41.383399999999995,175,75
2026-05-09 14:50:21.440,1,0.84,0.53,1.11,-10.9976,53.0188,10.523399999999997,175,75
2026-05-09 14:50:21.475,1,1.05,0.63,1.89,27.302400000000002,-101.07119999999999,-69.7166,175,75
2026-05-09 14:50:21.490,1,0.83,0.65,2.21,32.97239999999999,-150.7612,-77.58659999999999,175,75
2026-05-09 14:50:21.519,1,0.3,0.49,1.56,22.7824,-292.6512,-91.97659999999999,175,75
2026-05-09 14:50:21.606,1,0.73,-1.63,2.23,-29.7176,-82.10119999999999,31.193399999999997,175,75
2026-05-09 14:50:21.616,1,0.82,-1.12,0.68,-41.1776,-101.3112,27.843399999999995,175,75
2026-05-09 14:50:21.645,1,-0.31,-0.92,-0.18,-15.567599999999999,-13.9312,4.243399999999998,175,75
2026-05-09 14:50:21.660,1,-0.65,-0.52,0.25,53.392399999999995,25.7588,-33.8066,175,75
2026-05-09 14:50:21.671,1,-0.52,-0.72,0.18,80.7724,5.5788,-63.436600000000006,175,75
2026-05-09 14:50:21.690,1,-0.5,-0.82,0.33,126.0224,9.3588,-101.2466,175,75
2026-05-09 14:50:21.705,1,-0.66,-1.17,0.6,151.2024,21.7388,-114.53659999999999,175,75
2026-05-09 14:50:21.726,1,0.49,-0.53,1.86,178.6424,197.2888,-54.7766,175,75
2026-05-09 14:50:21.807,1,-0.72,-1.8,-0.56,-399.16760000000005,226.7388,290.8934,175,75
2026-05-09 14:50:21.807,1,-0.68,-2.53,0.13,-415.4476,253.9288,302.1734,175,75
2026-05-09 14:50:21.820,1,0.18,-2.55,0.28,-449.16760000000005,71.3088,293.6934,175,75
2026-05-09 14:50:21.839,1,-0.08,-1.36,-0.51,-431.29760000000005,187.2288,269.4934,175,75
2026-05-09 14:50:21.855,1,0.33,-0.91,0.73,-423.85760000000005,150.8188,245.3434,175,75
2026-05-09 14:50:21.869,1,0.47,-0.19,1.84,-377.5176,49.2988,213.0834,175,75
2026-05-09 14:50:21.889,1,0.53,-0.05,1.9,-375.0176,9.178799999999999,202.4734,175,75
2026-05-09 14:50:21.889,1,0.6,0.1,1.86,-367.4576,-29.5412,196.8634,175,75
2026-05-09 14:50:21.900,1,0.67,0.53,1.65,-328.55760000000004,-48.751200000000004,193.9434,175,75
2026-05-09 14:50:21.921,1,0.8,0.59,1.59,-278.43760000000003,-34.5412,189.3634,175,75
2026-05-09 14:50:21.956,1,0.79,0.55,1.78,-141.3576,10.948799999999999,105.5834,175,75
2026-05-09 14:50:21.970,1,0.59,0.59,1.77,-105.5076,15.398800000000001,72.1734,175,75
2026-05-09 14:50:21.981,1,0.64,0.63,1.86,-72.1576,33.2588,37.9634,175,75
2026-05-09 14:50:21.992,1,0.8,0.69,1.98,-42.087599999999995,27.7088,13.573399999999998,175,75
2026-05-09 14:50:22.009,1,0.92,0.65,1.94,43.522400000000005,-11.7412,-34.836600000000004,175,75
2026-05-09 14:50:22.018,1,0.86,0.62,1.75,76.6324,-14.481200000000001,-53.436600000000006,175,75
2026-05-09 14:50:22.028,1,0.8,0.55,1.56,115.89240000000001,-9.421199999999999,-78.7466,175,75
2026-05-09 14:50:22.044,1,0.74,0.5,1.48,154.2524,2.5888,-102.03659999999999,175,75
2026-05-09 14:50:22.057,1,0.71,0.44,1.48,181.9924,10.088799999999999,-115.9366,175,75
2026-05-09 14:50:22.069,1,0.68,0.4,1.49,208.3324,12.898800000000001,-126.72659999999999,175,75
2026-05-09 14:50:22.080,1,0.63,0.31,1.46,239.0624,8.018799999999999,-137.9466,175,75
2026-05-09 14:50:22.090,1,0.57,0.22,1.43,262.3624,3.1388,-146.3666,175,75
2026-05-09 14:50:22.103,1,0.5,0.14,1.37,284.37239999999997,0.7588,-155.0266,175,75
2026-05-09 14:50:22.103,1,0.43,0.09,1.34,297.7224,-5.5812,-162.2166,175,75
2026-05-09 14:50:22.118,1,0.35,-0.01,1.33,316.63239999999996,-16.801199999999998,-168.8066,175,75
2026-05-09 14:50:22.141,1,0.24,-0.24,1.4,338.76239999999996,-44.851200000000006,-187.5866,175,75
2026-05-09 14:50:22.185,1,0.17,-0.86,1.46,357.6024,-121.9212,-226.2466,175,75
2026-05-09 14:50:22.185,1,0.17,-1.05,1.55,356.87239999999997,-130.6412,-246.3666,175,75
2026-05-09 14:50:22.203,1,0.44,-1.09,1.59,352.7824,-137.2912,-263.0666,175,75
2026-05-09 14:50:22.227,1,0.14,-1.05,1.4,333.58239999999995,-197.9612,-254.1666,175,75
2026-05-09 14:50:22.237,1,-0.21,-1.08,0.84,322.3024,-151.6112,-252.0966,175,75
2026-05-09 14:50:22.237,1,-0.85,-0.85,0.19,290.1624,-252.9612,-217.1566,175,75
2026-05-09 14:50:22.270,1,-5.65,0.31,-8.15,-6.4176,-170.4012,580.8933999999999,175,75
2026-05-09 14:50:22.292,1,0.39,-3.6,-0.24,-134.4076,210.3988,-237.1566,175,75
2026-05-09 14:50:22.292,1,-2.06,1.49,1.05,-177.8876,453.99879999999996,21.623399999999997,175,75
2026-05-09 14:50:22.327,1,0.2,-3.11,3.21,97.4824,-14.2412,59.9134,175,75
2026-05-09 14:50:22.338,1,1.23,-2.58,1.13,28.762400000000003,-113.6912,-10.206600000000002,175,75
2026-05-09 14:50:22.355,1,0.49,-0.83,0.25,10.1024,-75.21119999999999,-20.696600000000004,175,75
2026-05-09 14:50:22.370,1,0.14,-1.09,0.24,26.752399999999998,-48.8112,-13.616600000000002,175,75
2026-05-09 14:50:22.395,1,0.23,-1.77,0.84,36.08240000000001,56.858799999999995,-15.446600000000002,175,75
2026-05-09 14:50:22.405,1,0.18,-1.09,0.97,41.08240000000001,97.4088,-18.006600000000002,175,75
2026-05-09 14:50:22.418,1,0.2,-0.67,1.23,43.33240000000001,137.46880000000002,-15.446600000000002,175,75
2026-05-09 14:50:22.432,1,0.3,-0.54,1.59,42.662400000000005,164.2388,-3.866600000000002,175,75
2026-05-09 14:50:22.448,1,0.29,-0.54,1.84,25.1024,191.18880000000001,-4.416600000000002,175,75
2026-05-09 14:50:22.475,1,0.22,-0.22,2.31,-32.5176,108.6288,39.0034,175,75
2026-05-09 14:50:22.485,1,0.02,-0.16,2.08,-55.327600000000004,61.3688,50.10339999999999,175,75
2026-05-09 14:50:22.510,1,0.06,-0.08,1.74,-78.1876,-13.261199999999999,53.94339999999999,175,75
2026-05-09 14:50:22.522,1,0.07,0.04,1.3,-81.6676,-82.2212,46.133399999999995,175,75
2026-05-09 14:50:22.544,1,0.95,0.88,1.54,63.4524,27.7788,-10.0866,175,75
2026-05-09 14:50:22.555,1,0.91,0.95,1.69,94.5524,-2.7112,-32.766600000000004,175,75
2026-05-09 14:50:22.568,1,1.2,0.78,1.64,114.4924,6.0088,-61.2466,175,75
2026-05-09 14:50:22.596,1,1.3,0.45,1.84,136.8724,-48.0212,-90.2666,175,75
2026-05-09 14:50:22.639,1,0.73,-0.14,2.35,133.2724,-128.2012,-96.5466,175,75
2026-05-09 14:50:22.639,1,1.09,-0.04,1.79,123.39240000000001,-186.0712,-98.9866,175,75
2026-05-09 14:50:22.655,1,-4.9,0.82,-0.38,42.72239999999999,-890.9412,-152.76659999999998,175,75
2026-05-09 14:50:22.655,1,-3.25,2.0,-4.68,28.0924,-235.5212,304.8534,175,75
2026-05-09 14:50:22.666,1,1.24,-1.73,-3.26,-258.0676,-365.94120000000004,305.7134,175,75
2026-05-09 14:50:22.676,1,0.34,-1.21,-0.09,-189.7776,427.6488,-48.7466,175,75
2026-05-09 14:50:22.699,1,0.48,-0.77,2.38,35.5924,225.4588,112.60340000000001,175,75
2026-05-09 14:50:22.711,1,0.49,-1.98,2.9,-1.7876000000000003,52.5888,32.5434,175,75
2026-05-09 14:50:22.724,1,0.5,-1.57,1.71,-20.0776,-103.7512,20.773399999999995,175,75
2026-05-09 14:50:22.735,1,0.22,-1.18,0.08,-34.8976,-137.7112,-1.2466000000000008,175,75
2026-05-09 14:50:22.763,1,-0.54,-0.85,0.68,20.4724,73.9888,-16.846600000000002,175,75
2026-05-09 14:50:22.773,1,-0.38,-0.93,0.83,36.752399999999994,58.138799999999996,-28.3166,175,75
2026-05-09 14:50:22.788,1,-0.32,-0.92,0.55,53.58240000000001,30.948800000000002,-48.006600000000006,175,75
2026-05-09 14:50:22.793,1,-0.25,-0.79,0.45,80.8324,55.2088,-63.006600000000006,175,75
2026-05-09 14:50:22.806,1,-0.4,-0.91,0.77,109.67240000000001,80.81880000000001,-74.1666,175,75
2026-05-09 14:50:22.829,1,0.19,-0.61,1.96,133.0924,188.1988,-21.4266,175,75
2026-05-09 14:50:22.841,1,0.39,0.23,2.45,88.2724,218.3888,-14.896600000000001,175,75
2026-05-09 14:50:22.852,1,-0.12,1.07,3.06,-16.357599999999998,225.5788,13.573399999999998,175,75
2026-05-09 14:50:22.862,1,-0.64,1.22,2.38,-121.60759999999999,176.0088,84.6134,175,75
2026-05-09 14:50:22.875,1,-0.63,0.37,0.72,-159.4076,154.7288,139.2434,175,75
2026-05-09 14:50:22.886,1,-0.95,-0.77,-0.92,-298.61760000000004,228.9288,181.9934,175,75
2026-05-09 14:50:22.898,1,-1.22,-1.41,-1.16,-349.4076,328.62879999999996,263.8834,175,75
2026-05-09 14:50:22.937,1,-0.18,-2.02,-0.6,-480.86760000000004,145.7588,233.1534,175,75
2026-05-09 14:50:22.949,1,0.54,-1.37,-0.29,-433.0076,150.2088,223.8834,175,75
2026-05-09 14:50:22.964,1,0.5,-0.8,0.44,-442.0876,133.5688,221.6834,175,75
2026-05-09 14:50:22.987,1,0.95,-0.37,1.83,-394.04760000000005,99.4188,169.0634,175,75
2026-05-09 14:50:23.008,1,0.57,0.12,2.05,-351.41760000000005,-77.8312,166.6234,175,75
2026-05-09 14:50:23.031,1,0.52,0.46,1.31,-289.4676,-130.7012,154.2434,175,75
2026-05-09 14:50:23.060,1,0.47,0.42,1.31,-257.2776,-131.31119999999999,151.7434,175,75
2026-05-09 14:50:23.063,1,0.41,0.21,1.39,-210.9376,-106.6112,124.73340000000002,175,75
2026-05-09 14:50:23.076,1,0.51,0.24,1.53,-143.9776,-49.111200000000004,85.52340000000001,175,75
2026-05-09 14:50:23.087,1,0.74,0.48,1.71,-86.35759999999999,-17.5312,55.58339999999999,175,75
2026-05-09 14:50:23.114,1,0.81,0.59,1.78,-28.7976,0.8188000000000001,28.693399999999997,175,75
2026-05-09 14:50:23.125,1,0.82,0.65,1.81,23.2124,18.448800000000002,-0.5666000000000011,175,75
2026-05-09 14:50:23.125,1,0.85,0.73,1.85,58.7024,30.088800000000003,-22.6466,175,75
2026-05-09 14:50:23.147,1,0.82,0.68,1.87,148.3924,26.3688,-54.71660000000001,175,75
2026-05-09 14:50:23.155,1,0.75,0.6,1.78,188.0324,27.5288,-74.2266,175,75
2026-05-09 14:50:23.168,1,0.69,0.5,1.7,224.6724,31.9188,-93.00659999999999,175,75
2026-05-09 14:50:23.168,1,0.66,0.39,1.68,251.4424,33.0188,-108.3766,175,75
2026-05-09 14:50:23.180,1,0.64,0.31,1.71,276.56239999999997,29.4788,-120.6366,175,75
2026-05-09 14:50:23.190,1,0.6,0.24,1.71,297.9724,3.6288,-129.10660000000001,175,75
2026-05-09 14:50:23.213,1,0.52,0.13,1.67,314.6124,-22.411199999999997,-136.3666,175,75
2026-05-09 14:50:23.226,1,0.39,-0.15,1.51,344.4324,-65.7012,-156.1166,175,75
2026-05-09 14:50:23.256,1,0.37,-0.29,1.46,363.2124,-80.2712,-165.5666,175,75
2026-05-09 14:50:23.256,1,0.36,-0.39,1.44,375.5924,-89.4212,-173.0066,175,75
2026-05-09 14:50:23.267,1,0.34,-0.54,1.4,386.81239999999997,-101.13119999999999,-181.6666,175,75
2026-05-09 14:50:23.308,1,0.21,-1.21,1.3,383.58239999999995,-161.1312,-239.8366,175,75
2026-05-09 14:50:23.319,1,0.47,-1.27,1.38,379.06239999999997,-152.1612,-247.5866,175,75
2026-05-09 14:50:23.371,1,-3.48,0.63,-7.84,20.5324,-463.44120000000004,668.2733999999999,175,75
2026-05-09 14:50:23.393,1,4.34,-2.88,-4.2,-236.17759999999998,-67.5312,59.4934,175,75
2026-05-09 14:50:23.520,1,-0.84,-3.23,3.15,71.50240000000001,74.7288,69.24340000000001,175,75
2026-05-09 14:50:23.534,1,1.36,-3.95,2.06,42.172399999999996,-158.2012,-16.6066,175,75
2026-05-09 14:50:23.556,1,-0.25,-0.57,0.49,4.0024,33.1988,9.553399999999998,175,75
2026-05-09 14:50:23.601,1,0.13,-0.77,1.83,-1.7275999999999998,143.1388,3.753399999999999,175,75
2026-05-09 14:50:23.601,1,0.54,-1.0,2.43,-6.8476,217.46880000000002,8.8834,175,75
2026-05-09 14:50:23.621,1,0.35,-0.78,2.7,-4.3476,149.1788,23.083399999999997,175,75
2026-05-09 14:50:23.633,1,0.13,-0.64,2.75,-23.3076,177.1688,45.0434,175,75
2026-05-09 14:50:23.669,1,-0.23,0.12,1.32,-79.2876,7.8988000000000005,93.21340000000001,175,75
2026-05-09 14:50:23.682,1,-0.23,0.28,1.2,-51.2376,60.398799999999994,98.3334,175,75
2026-05-09 14:50:23.694,1,0.22,0.42,1.45,-9.8376,112.4688,77.7234,175,75
2026-05-09 14:50:23.704,1,0.77,0.67,1.91,38.392399999999995,141.6788,54.00339999999999,175,75
2026-05-09 14:50:23.704,1,1.14,0.98,2.26,84.5524,99.9688,33.883399999999995,175,75
2026-05-09 14:50:23.738,1,1.08,0.81,2.01,171.9324,-59.6612,-54.4166,175,75
2026-05-09 14:50:23.738,1,1.05,0.49,2.01,188.82240000000002,-77.04119999999999,-64.8366,175,75
2026-05-09 14:50:23.749,1,1.11,0.0,2.21,197.7824,-91.9812,-73.7466,175,75
2026-05-09 14:50:23.759,1,0.79,-0.57,2.42,199.5524,-127.90119999999999,-102.2766,175,75
2026-05-09 14:50:23.770,1,-1.02,-0.05,1.82,145.2824,-414.4812,-91.72659999999999,175,75
2026-05-09 14:50:23.781,1,-7.42,0.76,0.36,37.72239999999999,-804.7212,-84.3466,175,75
2026-05-09 14:50:23.804,1,-3.57,-1.22,-6.2,-298.91760000000005,-581.0011999999999,190.8334,175,75
2026-05-09 14:50:23.804,1,1.29,-0.12,-2.04,-168.3676,558.8688000000001,28.083399999999997,175,75
2026-05-09 14:50:23.820,1,1.84,0.39,2.27,-18.6176,286.9788,91.13340000000001,175,75
2026-05-09 14:50:23.841,1,-1.16,-1.46,3.07,-33.0676,120.3388,68.21340000000001,175,75
2026-05-09 14:50:23.841,1,0.09,-2.05,3.08,-11.5476,11.2488,63.2134,175,75
2026-05-09 14:50:23.852,1,-0.23,-1.64,1.27,4.9224,-156.31119999999999,25.8934,175,75
2026-05-09 14:50:23.866,1,-0.62,-0.28,-0.66,8.7624,99.0588,13.6334,175,75
2026-05-09 14:50:23.888,1,-0.52,-0.82,1.02,52.362399999999994,136.9788,-4.896600000000001,175,75
2026-05-09 14:50:23.909,1,-0.54,-1.02,0.55,81.2024,52.5288,-50.14660000000001,175,75
2026-05-09 14:50:23.920,1,-0.76,-1.01,0.45,102.0524,73.25880000000001,-65.3866,175,75
2026-05-09 14:50:23.935,1,-0.51,-1.09,1.34,159.9824,223.2588,-64.7766,175,75
2026-05-09 14:50:23.947,1,0.05,-0.56,1.79,164.6724,266.06879999999995,-30.3866,175,75
2026-05-09 14:50:23.947,1,0.13,-0.02,2.17,131.0824,320.1488,-1.2466000000000008,175,75
2026-05-09 14:50:23.959,1,-0.3,0.58,2.68,38.7624,347.2288,31.743399999999994,175,75
2026-05-09 14:50:23.971,1,-0.7,1.02,2.82,-75.6876,355.2088,62.9034,175,75
2026-05-09 14:50:23.982,1,-0.52,1.03,1.53,-158.7976,263.74879999999996,119.79339999999999,175,75
2026-05-09 14:50:24.023,1,-0.15,-2.16,0.65,-385.3276,326.42879999999997,241.5634,175,75
2026-05-09 14:50:24.034,1,0.32,-2.35,1.13,-408.18760000000003,201.18880000000001,224.9134,175,75
2026-05-09 14:50:24.049,1,0.29,-1.91,0.67,-447.5776,62.2288,208.0234,175,75
2026-05-09 14:50:24.061,1,-0.1,-1.38,0.01,-470.0176,165.3388,195.95340000000002,175,75
2026-05-09 14:50:24.071,1,0.78,-1.16,0.74,-433.73760000000004,169.2988,186.0734,175,75
2026-05-09 14:50:24.071,1,0.56,-0.96,1.44,-417.4576,137.8988,172.9634,175,75
2026-05-09 14:50:24.083,1,0.84,-0.5,1.83,-398.12760000000003,83.1988,144.9734,175,75
2026-05-09 14:50:24.110,1,0.45,-0.09,1.72,-360.1376,-77.35119999999999,141.0734,175,75
2026-05-09 14:50:24.120,1,0.28,0.05,1.54,-344.22760000000005,-102.4712,143.5134,175,75
2026-05-09 14:50:24.133,1,0.23,0.25,1.44,-317.3376,-117.1612,151.7434,175,75
2026-05-09 14:50:24.147,1,0.32,0.33,1.22,-283.55760000000004,-148.75119999999998,159.67340000000002,175,75
2026-05-09 14:50:24.158,1,0.2,0.37,0.99,-266.7876,-149.97119999999998,155.3434,175,75
2026-05-09 14:50:24.158,1,0.2,0.4,0.76,-236.4776,-116.13119999999999,140.8334,175,75
2026-05-09 14:50:24.170,1,0.27,0.4,0.72,-200.6876,-71.68119999999999,122.4734,175,75
2026-05-09 14:50:24.204,1,0.75,0.47,1.72,-29.7776,31.0688,37.173399999999994,175,75
2026-05-09 14:50:24.218,1,0.77,0.56,1.72,8.642399999999999,4.598800000000001,15.713399999999998,175,75
2026-05-09 14:50:24.229,1,0.77,0.61,1.6,42.8424,-10.1512,-0.4466000000000019,175,75
2026-05-09 14:50:24.274,1,0.83,0.36,1.37,164.6724,1.1288,-51.9166,175,75
2026-05-09 14:50:24.285,1,0.71,0.23,1.41,243.7024,23.8688,-75.5666,175,75
2026-05-09 14:50:24.322,1,0.65,0.0,1.81,335.1024,13.808800000000002,-92.7666,175,75
2026-05-09 14:50:24.343,1,0.55,-0.18,1.84,359.31239999999997,-40.8812,-97.8866,175,75
2026-05-09 14:50:24.354,1,0.48,-0.28,1.76,370.5924,-65.7012,-103.9266,175,75
2026-05-09 14:50:24.411,1,0.46,-0.43,1.57,398.82239999999996,-95.2712,-125.2666,175,75
2026-05-09 14:50:24.411,1,0.41,-0.52,1.51,405.7124,-104.18119999999999,-135.2666,175,75
2026-05-09 14:50:24.436,1,0.31,-0.68,1.49,409.9224,-116.13119999999999,-164.4766,175,75
2026-05-09 14:50:24.482,1,0.37,-0.67,1.43,409.9824,-137.1612,-190.8166,175,75
2026-05-09 14:50:24.515,1,0.46,-0.87,1.33,420.0424,-150.2112,-226.2466,175,75
2026-05-09 14:50:24.527,1,0.54,-1.16,1.0,421.08239999999995,-114.3612,-234.4766,175,75
2026-05-09 14:50:24.571,1,0.13,-1.44,0.31,416.14239999999995,-55.7012,-256.1166,175,75
2026-05-09 14:50:24.625,1,-5.28,-0.23,-5.61,-51.2976,-833.1411999999999,453.7534,175,75
2026-05-09 14:50:24.625,1,1.86,-0.22,-6.26,-291.9076,-161.1312,293.2734,175,75
2026-05-09 14:50:24.775,1,-0.36,0.41,0.29,-3.6176000000000004,25.338800000000003,48.8234,175,75
2026-05-09 14:50:24.816,1,-0.04,0.18,1.49,16.2024,215.27880000000002,132.6634,175,75
2026-05-09 14:50:24.830,1,0.27,0.4,1.66,52.362399999999994,226.8588,129.73340000000002,175,75
2026-05-09 14:50:24.841,1,0.03,0.47,1.72,80.47240000000001,237.5888,122.6034,175,75
2026-05-09 14:50:24.852,1,0.6,0.33,2.41,117.0524,235.7588,100.5834,175,75
2026-05-09 14:50:24.874,1,0.65,0.75,2.2,176.0824,128.9288,85.3434,175,75
2026-05-09 14:50:24.885,1,0.59,0.72,1.81,199.8024,116.7988,78.63340000000001,175,75
2026-05-09 14:50:24.924,1,0.7,0.25,1.74,248.0924,171.9788,56.7434,175,75
2026-05-09 14:50:24.994,1,-2.72,0.71,0.09,188.6424,-260.94120000000004,52.2934,175,75
2026-05-09 14:50:24.994,1,-6.89,1.47,0.22,107.42240000000001,-339.18120000000005,115.46340000000001,175,75
2026-05-09 14:50:25.044,1,3.9,-4.27,-6.19,-136.6676,-373.26120000000003,224.9134,175,75
2026-05-09 14:50:25.095,1,1.67,0.07,1.16,-3.1875999999999998,321.42879999999997,56.6234,175,75
2026-05-09 14:50:25.145,1,-0.58,0.08,-0.08,71.75240000000001,42.0988,5.893399999999998,175,75
2026-05-09 14:50:25.209,1,-1.04,-0.28,0.26,126.26240000000001,161.1288,-43.256600000000006,175,75
2026-05-09 14:50:25.309,1,-0.74,-0.96,0.5,213.82240000000002,197.1688,-130.2066,175,75
2026-05-09 14:50:25.330,1,-1.98,0.73,-0.16,-380.86760000000004,727.5288,289.3034,175,75
2026-05-09 14:50:25.400,1,-1.06,-0.1,1.8,-119.6576,-219.6612,222.8434,175,75
2026-05-09 14:50:25.421,1,-0.62,-0.35,1.42,44.192400000000006,-108.1412,194.4334,175,75
2026-05-09 14:50:25.424,1,-0.57,-0.27,1.28,82.5424,-8.321200000000001,169.3634,175,75
2026-05-09 14:50:25.532,1,-0.18,0.16,1.47,220.7724,259.11879999999996,81.4434,175,75
2026-05-09 14:50:25.668,1,-1.0,0.43,-0.59,81.9924,-42.2212,12.963399999999998,175,75
2026-05-09 14:50:25.680,1,-1.12,0.74,-1.0,19.8024,6.3688,53.8834,175,75
2026-05-09 14:50:25.680,1,-2.93,1.19,-2.4,-26.2976,-257.4712,96.5634,175,75
2026-05-09 14:50:25.707,1,1.68,-0.88,-0.06,142.9724,125.39880000000001,-48.5566,175,75
2026-05-09 14:50:25.725,1,0.18,-0.61,1.35,-104.5876,-160.1512,-95.0266,175,75
2026-05-09 14:50:25.752,1,0.13,-3.27,-1.76,9.552399999999999,118.86880000000001,-32.0366,175,75
2026-05-09 14:50:25.785,1,-1.11,-0.25,0.68,53.0924,137.46880000000002,-104.89659999999999,175,75
2026-05-09 14:50:25.796,1,-0.55,-1.2,0.39,61.632400000000004,88.6888,-127.0966,175,75
2026-05-09 14:50:25.810,1,-1.03,-1.85,0.48,86.6324,101.7388,-173.2566,175,75
2026-05-09 14:50:25.833,1,-1.57,-1.35,2.31,112.0524,144.6688,-162.6466,175,75
2026-05-09 14:50:25.846,1,-2.45,-0.64,3.37,108.03240000000001,153.68880000000001,-125.6366,175,75
2026-05-09 14:50:25.857,1,-2.18,0.45,3.85,75.9524,221.7388,-49.71660000000001,175,75
2026-05-09 14:50:25.875,1,-2.02,1.1,2.1,108.7624,225.02880000000002,23.2134,175,75
2026-05-09 14:50:25.897,1,-2.38,0.07,0.4,10.412400000000002,561.1288000000001,234.1234,175,75
2026-05-09 14:50:25.908,1,-1.67,-0.4,0.53,4.9824,546.5588,227.4734,175,75
2026-05-09 14:50:25.956,1,0.33,0.37,1.89,-123.3676,-214.97119999999998,257.1734,175,75
2026-05-09 14:50:25.987,1,0.28,0.36,0.35,-31.7276,-82.10119999999999,241.9934,175,75
2026-05-09 14:50:25.998,1,1.41,0.46,0.35,-1.6676000000000002,13.018799999999999,216.9334,175,75
2026-05-09 14:50:26.012,1,1.11,0.76,1.03,12.052399999999999,46.068799999999996,249.4334,175,75
2026-05-09 14:50:26.073,1,1.82,1.4,-0.21,100.7724,203.9888,130.1034,175,75
2026-05-09 14:50:26.086,1,2.5,-0.61,-0.56,68.8824,491.67879999999997,60.7134,175,75
2026-05-09 14:50:26.100,1,2.46,-4.21,5.32,340.77239999999995,599.4788,103.21340000000001,175,75
2026-05-09 14:50:26.124,1,2.09,-1.42,2.98,8.9424,-187.3512,-65.9966,175,75
2026-05-09 14:50:26.153,1,-0.26,-1.27,-0.38,90.47240000000001,-215.8812,-97.7066,175,75
2026-05-09 14:50:26.153,1,0.89,-2.95,-2.03,34.4924,-114.54119999999999,-88.4366,175,75
2026-05-09 14:50:26.193,1,0.61,-1.09,2.91,101.75240000000001,270.0288,-111.1766,175,75
2026-05-09 14:50:26.203,1,-0.58,0.45,0.3,48.522400000000005,54.538799999999995,-73.4366,175,75
2026-05-09 14:50:26.226,1,-0.98,0.11,-0.26,146.9924,88.3888,-163.1966,175,75
2026-05-09 14:50:26.238,1,-1.25,0.32,-0.22,223.1524,132.8988,-223.9866,175,75
2026-05-09 14:50:26.272,1,-1.12,0.41,-2.11,240.9524,536.3688000000001,-195.1466,175,75
2026-05-09 14:50:26.304,1,0.25,0.26,1.99,290.2824,1078.2587999999998,5.773399999999997,175,75
2026-05-09 14:50:26.352,1,-0.14,-0.7,0.44,-247.3376,-65.5212,-56.0566,175,75
2026-05-09 14:50:26.364,1,-0.41,-1.24,0.65,-312.2176,-263.26120000000003,-74.7766,175,75
2026-05-09 14:50:26.405,1,-1.91,-0.55,0.43,-340.0176,-401.6112,60.0434,175,75
2026-05-09 14:50:26.415,1,-1.93,-0.81,0.07,-290.0776,-246.9212,132.9634,175,75
2026-05-09 14:50:26.445,1,-1.52,-1.67,0.91,-195.3276,32.2888,213.3934,175,75
2026-05-09 14:50:26.448,1,-1.19,-1.82,0.72,-187.39759999999998,102.34880000000001,215.1034,175,75
2026-05-09 14:50:26.460,1,-0.99,-1.75,0.76,-168.8576,177.9588,221.3834,175,75
2026-05-09 14:50:26.469,1,-0.77,-1.78,1.0,-158.3076,225.8188,220.3434,175,75
2026-05-09 14:50:26.493,1,-0.52,-1.83,1.47,-147.39759999999998,231.1288,212.6634,175,75
2026-05-09 14:50:26.551,1,1.39,-0.14,2.41,-148.67759999999998,-106.74119999999999,116.80340000000001,175,75
2026-05-09 14:50:26.562,1,1.76,0.24,2.36,-134.6576,-166.3712,124.4334,175,75
2026-05-09 14:50:26.572,1,1.67,0.25,2.08,-117.9476,-211.5512,110.71340000000001,175,75
2026-05-09 14:50:26.583,1,1.77,0.17,1.84,-98.3676,-209.5412,93.27340000000001,175,75
2026-05-09 14:50:26.623,1,1.56,0.05,2.53,-58.497600000000006,-218.5712,73.6934,175,75
2026-05-09 14:50:26.623,1,1.3,0.21,2.48,-54.8976,-257.2912,59.97339999999999,175,75
2026-05-09 14:50:26.634,1,1.46,0.29,1.98,-47.4576,-309.18120000000005,30.773399999999995,175,75
2026-05-09 14:50:26.645,1,1.39,0.42,1.45,-37.6976,-313.1412,22.5434,175,75
2026-05-09 14:50:26.663,1,1.19,0.51,1.03,-29.7776,-260.94120000000004,18.513399999999997,175,75
2026-05-09 14:50:26.675,1,0.88,0.73,1.07,1.9323999999999995,-180.03119999999998,19.973399999999998,175,75
2026-05-09 14:50:26.688,1,0.96,0.69,1.34,37.052400000000006,-119.79119999999999,17.843399999999995,175,75
2026-05-09 14:50:26.706,1,0.76,0.73,0.78,96.9324,-75.46119999999999,-9.656600000000001,175,75
2026-05-09 14:50:26.731,1,0.62,0.85,0.71,138.5224,239.1188,30.4634,175,75
2026-05-09 14:50:26.749,1,2.78,-8.22,-7.1,-111.8476,737.3488,169.73340000000002,175,75
2026-05-09 14:50:26.761,1,0.3,-2.52,4.59,120.4724,678.5688,25.0434,175,75
2026-05-09 14:50:26.879,1,-1.3,-0.09,-0.33,99.1924,89.2388,-182.4566,175,75
2026-05-09 14:50:26.919,1,-1.93,-1.0,2.3,241.4424,176.0088,-193.6766,175,75
2026-05-09 14:50:26.934,1,-2.38,-0.18,3.13,251.6924,139.2988,-171.2466,175,75
2026-05-09 14:50:26.969,1,-3.45,1.01,-1.62,139.4924,195.8888,58.5134,175,75
2026-05-09 14:50:27.019,1,-1.07,-0.96,2.35,-130.3276,138.9888,259.2434,175,75
2026-05-09 14:50:27.062,1,0.01,0.09,1.07,-226.1176,-172.22119999999998,262.84340000000003,175,75
2026-05-09 14:50:27.094,1,0.87,0.03,0.8,-132.8276,-61.921200000000006,236.8634,175,75
2026-05-09 14:50:27.105,1,1.34,-0.03,0.8,-110.5076,10.948799999999999,218.5134,175,75
2026-05-09 14:50:27.128,1,1.42,0.32,2.0,-54.4076,62.288799999999995,199.9134,175,75
2026-05-09 14:50:27.141,1,1.9,0.41,2.38,-23.0676,-21.551199999999998,167.1134,175,75
2026-05-09 14:50:27.164,1,1.68,0.59,0.76,70.0424,81.7988,124.8534,175,75
2026-05-09 14:50:27.204,1,3.0,0.41,0.78,218.4524,397.6488,112.2934,175,75
2026-05-09 14:50:27.204,1,1.76,-0.33,-2.8,131.9924,-450.4012,17.413399999999996,175,75
2026-05-09 14:50:27.220,1,0.04,-5.97,-0.67,-30.0776,1185.7587999999998,74.1234,175,75
2026-05-09 14:50:27.236,1,4.08,-4.04,6.78,219.0624,811.3688000000001,172.0534,175,75
2026-05-09 14:50:27.249,1,2.68,-2.9,6.85,235.4124,473.56879999999995,44.4334,175,75
2026-05-09 14:50:27.261,1,1.79,-2.79,5.61,52.72239999999999,-177.47119999999998,2.2933999999999983,175,75
2026-05-09 14:50:27.272,1,0.89,-2.9,3.08,6.7524,-247.1612,-38.0066,175,75
2026-05-09 14:50:27.307,1,-0.21,-4.55,-2.19,-44.467600000000004,35.0888,-54.836600000000004,175,75
2026-05-09 14:50:27.318,1,-0.59,-1.64,0.15,3.7623999999999995,213.5688,-104.89659999999999,175,75
2026-05-09 14:50:27.340,1,-1.12,0.65,-0.53,81.0224,41.9188,-115.3866,175,75
2026-05-09 14:50:27.352,1,-0.99,0.56,-0.91,95.7124,67.1688,-163.9266,175,75
2026-05-09 14:50:27.364,1,-1.15,0.29,-0.76,202.3024,165.3388,-203.1966,175,75
2026-05-09 14:50:27.364,1,-1.39,0.16,-0.28,259.00239999999997,204.1188,-237.5866,175,75
2026-05-09 14:50:27.376,1,-1.57,-0.06,0.16,270.77239999999995,251.6788,-227.0366,175,75
2026-05-09 14:50:27.386,1,-2.23,-0.36,0.83,301.63239999999996,250.2088,-234.2266,175,75
2026-05-09 14:50:27.402,1,-1.14,-0.06,-0.23,326.87239999999997,419.17879999999997,-208.0666,175,75
2026-05-09 14:50:27.416,1,-0.61,0.05,-2.72,276.38239999999996,458.99879999999996,-190.4466,175,75
2026-05-09 14:50:27.427,1,-1.2,0.19,-2.93,165.1624,971.7388000000001,-59.1666,175,75
2026-05-09 14:50:27.438,1,-0.51,0.76,1.75,201.9324,1157.4687999999999,57.4134,175,75
2026-05-09 14:50:27.469,1,-0.81,-0.07,0.7,-206.6676,481.79879999999997,26.743399999999994,175,75
2026-05-09 14:50:27.482,1,0.04,-0.77,1.3,-222.2176,308.99879999999996,49.063399999999994,175,75
2026-05-09 14:50:27.493,1,0.61,-1.72,1.47,-268.43760000000003,91.9788,13.0834,175,75
2026-05-09 14:50:27.504,1,0.24,-1.52,1.58,-331.9676,-174.1112,-10.026600000000002,175,75
2026-05-09 14:50:27.516,1,-0.53,-1.1,1.21,-377.9476,-275.76120000000003,2.473399999999998,175,75
2026-05-09 14:50:27.527,1,-0.67,-0.94,0.98,-383.43760000000003,-272.9012,29.673399999999994,175,75
2026-05-09 14:50:27.527,1,-0.61,-1.07,0.99,-363.61760000000004,-269.18120000000005,53.023399999999995,175,75
2026-05-09 14:50:27.552,1,-0.75,-1.23,1.38,-337.0876,-261.68120000000005,89.0634,175,75
2026-05-09 14:50:27.595,1,-1.17,-1.34,0.25,-234.6576,-86.9812,180.3434,175,75
2026-05-09 14:50:27.607,1,-1.02,-1.42,0.18,-197.8876,53.2588,194.9734,175,75
2026-05-09 14:50:27.623,1,-0.78,-1.49,0.44,-169.7176,147.46880000000002,192.1134,175,75
2026-05-09 14:50:27.633,1,-0.44,-1.44,1.07,-158.1276,216.7388,185.5834,175,75
2026-05-09 14:50:27.932,1,1.15,-0.02,2.15,-161.3576,-33.8112,107.9034,175,75
2026-05-09 14:50:27.932,1,1.65,-0.04,2.53,-144.2276,-92.5312,93.0834,175,75
2026-05-09 14:50:27.932,1,1.74,0.1,2.73,-125.74759999999999,-151.9812,92.2934,175,75
2026-05-09 14:50:27.932,1,1.68,0.27,1.73,-88.85759999999999,-251.4312,61.50339999999999,175,75
2026-05-09 14:50:27.932,1,1.16,0.51,2.43,-43.367599999999996,-199.1812,68.6934,175,75
2026-05-09 14:50:27.932,1,0.96,0.63,2.2,8.822399999999998,-320.3312,28.273399999999995,175,75
2026-05-09 14:50:27.932,1,1.01,0.44,1.44,19.9224,-305.6412,15.2234,175,75
2026-05-09 14:50:27.933,1,1.11,0.28,1.33,40.83240000000001,-261.9812,5.343399999999999,175,75
2026-05-09 14:50:27.933,1,0.08,0.79,-0.36,105.7724,-50.1512,-42.4566,175,75
2026-05-09 14:50:27.933,1,-3.15,1.11,-4.8,100.7724,-853.2611999999999,-115.44659999999999,175,75
2026-05-09 14:50:27.933,1,6.19,-0.29,4.13,175.5324,563.2588000000001,39.85339999999999,175,75
2026-05-09 14:50:27.933,1,1.19,-3.91,4.87,31.8124,239.8488,-0.6366000000000014,175,75
2026-05-09 14:50:27.934,1,-0.99,-2.71,-1.1,20.4724,-291.80120000000005,-12.706600000000002,175,75
2026-05-09 14:50:27.963,1,-0.56,-2.52,-1.5,9.1324,223.8688,-94.0466,175,75
2026-05-09 14:50:28.005,1,-1.32,-0.65,0.44,44.3124,243.0188,-93.3766,175,75
2026-05-09 14:50:28.042,1,-0.96,-0.27,0.53,56.5624,175.4588,-84.4166,175,75
2026-05-09 14:50:28.042,1,-1.18,-0.53,0.02,74.00240000000001,147.8988,-148.9866,175,75
2026-05-09 14:50:28.042,1,-1.33,-0.56,-0.31,100.1624,124.4788,-182.5266,175,75
2026-05-09 14:50:28.042,1,-1.3,-1.26,-0.06,144.2524,162.6488,-223.2566,175,75
2026-05-09 14:50:28.075,1,-1.39,-1.84,0.77,162.60240000000002,181.7388,-248.0666,175,75
2026-05-09 14:50:28.075,1,-1.86,-2.0,2.17,185.4124,170.8888,-256.1166,175,75
2026-05-09 14:50:28.075,1,-1.91,-1.23,2.94,208.0324,122.34880000000001,-204.4166,175,75
2026-05-09 14:50:28.306,1,-2.51,0.15,3.38,210.5324,161.8588,-126.6666,175,75
2026-05-09 14:50:28.306,1,-4.11,1.05,-1.6,113.2124,360.1488,84.6734,175,75
2026-05-09 14:50:28.306,1,-3.09,0.59,-0.78,-60.5676,581.1288000000001,233.2734,175,75
2026-05-09 14:50:28.307,1,-1.76,-0.24,0.83,-166.4176,588.5088000000001,294.2434,175,75
2026-05-09 14:50:28.307,1,-1.39,-0.86,2.48,-161.1176,299.8488,274.7334,175,75
2026-05-09 14:50:28.307,1,-0.95,-1.51,2.71,-178.3076,-11.981200000000001,276.8034,175,75
2026-05-09 14:50:28.307,1,-0.44,-0.64,1.76,-275.5076,-213.8712,239.3634,175,75
2026-05-09 14:50:28.308,1,0.14,0.58,0.28,-206.7276,-175.1512,308.6334,175,75
2026-05-09 14:50:28.308,1,0.34,0.19,0.34,-164.4076,-92.90119999999999,302.4734,175,75
2026-05-09 14:50:28.308,1,1.58,0.18,1.09,-65.0176,84.11880000000001,245.2234,175,75
2026-05-09 14:50:28.308,1,1.72,0.38,2.39,-45.807599999999994,74.6688,200.6534,175,75
2026-05-09 14:50:28.308,1,1.56,0.47,2.66,-24.2276,11.738800000000001,187.9634,175,75
2026-05-09 14:50:28.308,1,1.77,0.46,2.62,0.7124000000000006,-37.2912,162.8434,175,75
2026-05-09 14:50:28.308,1,1.8,0.64,2.35,24.432399999999998,-41.1912,143.8234,175,75
2026-05-09 14:50:28.308,1,2.01,0.84,1.9,75.7124,0.5788000000000001,127.7234,175,75
2026-05-09 14:50:28.900,1,1.48,1.09,1.14,172.4224,140.3388,78.21340000000001,175,75
2026-05-09 14:50:28.900,1,-0.39,1.2,-3.65,233.5224,-759.8512,-70.2066,175,75
2026-05-09 14:50:28.900,1,7.87,-2.43,6.52,276.56239999999997,266.9788,116.0734,175,75
2026-05-09 14:50:28.900,1,0.73,-5.53,4.83,141.2624,-51.071200000000005,-102.2166,175,75
2026-05-09 14:50:28.900,1,-2.99,-5.46,1.49,-160.6276,-305.6412,-140.9966,175,75
2026-05-09 14:50:28.900,1,-0.58,-0.34,-0.68,-48.4376,-135.7012,-84.5966,175,75
2026-05-09 14:50:28.901,1,-1.6,-1.25,0.72,312.8424,309.05879999999996,-259.89660000000003,175,75
2026-05-09 14:50:28.901,1,-1.08,-0.45,-1.68,306.81239999999997,393.74879999999996,-237.2766,175,75
2026-05-09 14:50:28.901,1,-0.7,0.19,-3.65,269.6724,539.7288,-180.6366,175,75
2026-05-09 14:50:28.901,1,-0.84,0.81,-1.17,204.6124,1050.6988,-10.446600000000002,175,75
2026-05-09 14:50:28.901,1,0.41,1.09,1.4,239.3724,1131.2487999999998,56.0734,175,75
2026-05-09 14:50:28.901,1,0.17,0.21,1.76,244.7324,812.2288,-13.4966,175,75
2026-05-09 14:50:28.901,1,-0.48,-0.06,0.83,-183.1276,523.9988000000001,-35.9366,175,75
2026-05-09 14:50:28.902,1,0.65,-2.07,1.3,-290.0776,-32.1612,-42.946600000000004,175,75
2026-05-09 14:50:28.902,1,0.44,-1.85,1.09,-336.9676,-201.5512,-51.1766,175,75
2026-05-09 14:50:28.902,1,-0.73,-1.24,0.8,-370.5676,-335.82120000000003,-44.89660000000001,175,75
2026-05-09 14:50:28.902,1,-1.39,-1.32,0.75,-296.9076,-182.22119999999998,103.3934,175,75
2026-05-09 14:50:28.902,1,-1.61,-1.36,0.41,-258.43760000000003,-88.38119999999999,121.3834,175,75
2026-05-09 14:50:28.902,1,-1.34,-1.2,0.44,-190.5076,116.1888,179.0634,175,75
2026-05-09 14:50:28.902,1,-1.08,-1.44,0.73,-171.5476,180.5188,191.1934,175,75
2026-05-09 14:50:28.902,1,-0.66,-1.45,1.12,-157.45759999999999,210.8888,184.2434,175,75
2026-05-09 14:50:28.902,1,-0.38,-1.42,1.49,-159.6576,223.5088,175.2234,175,75
2026-05-09 14:50:28.902,1,0.01,-1.31,1.88,-171.8476,208.68880000000001,156.9934,175,75
2026-05-09 14:50:28.902,1,0.45,-1.1,2.3,-192.8276,157.1688,134.3634,175,75
2026-05-09 14:50:28.906,1,0.98,-1.02,2.47,-218.8576,50.0288,88.8234,175,75
2026-05-09 14:50:28.906,1,0.77,-0.83,2.61,-233.5576,-17.3512,60.1634,175,75
2026-05-09 14:50:28.906,1,1.45,-0.46,2.96,-233.9176,-49.6612,46.8634,175,75
2026-05-09 14:50:28.906,1,1.54,0.08,3.2,-246.9076,-200.6412,39.553399999999996,175,75
2026-05-09 14:50:28.906,1,1.33,0.48,2.99,-239.3476,-260.3312,53.94339999999999,175,75
2026-05-09 14:50:28.906,1,0.5,1.01,1.6,-199.2276,-436.55120000000005,60.22339999999999,175,75
2026-05-09 14:50:28.906,1,0.88,0.52,0.65,-123.7376,-244.7912,76.0134,175,75
2026-05-09 14:50:28.906,1,1.02,0.68,1.47,68.8224,-232.7112,-19.8966,175,75
2026-05-09 14:50:28.906,1,0.91,0.93,0.77,95.8324,-252.22119999999998,-39.5966,175,75
2026-05-09 14:50:28.924,1,0.68,0.69,-0.16,135.2824,220.3388,-26.976600000000005,175,75
2026-05-09 14:50:28.977,1,8.05,-5.95,-8.37,77.78240000000001,-209.2412,199.4934,175,75
2026-05-09 14:50:28.977,1,-3.07,-5.67,-1.07,246.2624,1818.0187999999998,123.45340000000002,175,75
2026-05-09 14:50:29.029,1,1.17,-0.9,9.95,59.3724,1043.9288,47.4734,175,75
2026-05-09 14:50:29.029,1,2.92,-2.04,7.59,24.982400000000002,395.0288,147.1134,175,75
2026-05-09 14:50:29.034,1,2.0,-3.99,6.81,183.82240000000002,-99.1112,11.5634,175,75
2026-05-09 14:50:29.048,1,0.4,-4.15,1.18,100.53240000000001,-466.13120000000004,-7.586600000000002,175,75
2026-05-09 14:50:29.339,1,-3.44,-3.19,-2.02,-197.5776,81.1888,-143.4966,175,75
2026-05-09 14:50:29.339,1,-1.29,0.84,-0.83,72.11240000000001,164.4188,-71.9166,175,75
2026-05-09 14:50:29.339,1,-1.73,-2.3,1.76,242.0524,274.5988,-205.5666,175,75
2026-05-09 14:50:29.339,1,-2.09,-2.68,3.14,302.9724,194.7888,-207.0966,175,75
2026-05-09 14:50:29.339,1,-1.84,-1.06,3.55,309.37239999999997,7.3488,-192.76659999999998,175,75
2026-05-09 14:50:29.339,1,-2.37,0.33,2.51,265.5324,-72.8312,-127.5266,175,75
2026-05-09 14:50:29.339,1,-3.36,1.2,-2.2,197.9124,-27.411199999999997,13.6334,175,75
2026-05-09 14:50:29.339,1,-2.26,-0.11,-1.62,-88.7376,630.6388000000001,278.7534,175,75
2026-05-09 14:50:29.340,1,-1.2,-0.78,2.9,-200.5076,305.94879999999995,315.5234,175,75
2026-05-09 14:50:29.340,1,0.3,0.55,0.11,-245.2676,-205.7612,275.1034,175,75
2026-05-09 14:50:29.340,1,1.09,0.04,-0.17,-153.3676,31.0688,267.7234,175,75
2026-05-09 14:50:29.340,1,2.21,1.1,2.77,-26.8476,-146.7412,91.5034,175,75
2026-05-09 14:50:29.344,1,1.26,1.15,1.25,7.0524000000000004,-194.6612,65.77340000000001,175,75
2026-05-09 14:50:29.429,1,0.4,1.24,-1.26,156.8724,66.1288,110.46340000000001,175,75
2026-05-09 14:50:29.523,1,1.87,-1.98,3.91,39.192400000000006,-148.1412,18.273399999999995,175,75
2026-05-09 14:50:29.523,1,1.28,-2.73,1.32,52.97239999999999,-280.4012,-39.836600000000004,175,75
2026-05-09 14:50:29.523,1,-0.36,-0.77,0.5,-13.3676,113.0788,-117.8866,175,75
2026-05-09 14:50:29.523,1,-1.7,1.11,-1.11,72.97240000000001,99.59880000000001,-110.9366,175,75
2026-05-09 14:50:29.546,1,-0.87,1.21,-0.72,91.0824,105.0888,-148.1366,175,75
2026-05-09 14:50:29.546,1,-1.56,0.56,-0.17,263.58239999999995,214.0588,-211.7866,175,75
2026-05-09 14:50:29.581,1,-1.4,0.04,-2.39,330.2224,520.0888,-205.6966,175,75
2026-05-09 14:50:29.632,1,0.31,0.51,2.46,238.2724,898.3888000000001,25.953399999999995,175,75
2026-05-09 14:50:29.776,1,0.93,-1.46,2.62,-216.6076,171.6188,12.843399999999997,175,75
2026-05-09 14:50:29.776,1,0.32,-1.24,2.18,-141.6676,-50.031200000000005,-33.0066,175,75
2026-05-09 14:50:29.776,1,-0.06,-1.07,0.99,-184.4676,-30.7612,-31.056600000000003,175,75
2026-05-09 14:50:29.925,1,-0.96,-1.25,-0.01,-190.4476,-10.641200000000001,135.4634,175,75
2026-05-09 14:50:29.925,1,-0.59,-1.17,0.57,-176.2976,88.0788,141.6234,175,75
2026-05-09 14:50:29.925,1,-0.04,-1.04,1.32,-177.8876,128.8688,139.3634,175,75
2026-05-09 14:50:29.925,1,0.26,-0.85,2.02,-213.4976,48.138799999999996,103.5134,175,75
2026-05-09 14:50:29.925,1,1.52,-0.2,2.31,-233.0676,-68.99119999999999,61.0134,175,75
2026-05-09 14:50:29.977,1,1.24,0.58,1.75,-52.02760000000001,-173.75119999999998,32.173399999999994,175,75
2026-05-09 14:50:30.004,1,0.73,0.46,1.77,-0.19760000000000044,-184.7912,8.393399999999998,175,75
2026-05-09 14:50:30.061,1,-0.51,1.03,-0.0,51.08240000000001,-239.9112,-26.846600000000002,175,75
2026-05-09 14:50:30.080,1,-1.41,-0.84,-3.68,-36.2976,-441.43120000000005,-92.94659999999999,175,75
2026-05-09 14:50:30.092,1,2.22,-5.0,-1.34,-50.5676,1136.1288,104.24340000000001,175,75
2026-05-09 14:50:30.103,1,0.86,-3.23,5.74,236.9924,710.6388000000001,97.66340000000001,175,75
2026-05-09 14:50:30.116,1,4.32,-2.31,4.56,240.4124,345.2088,13.513399999999999,175,75
2026-05-09 14:50:30.116,1,1.0,-3.48,4.72,63.272400000000005,224.2988,7.353399999999999,175,75
2026-05-09 14:50:30.131,1,4.01,-6.0,-1.27,72.4824,-228.3812,-26.486600000000003,175,75
2026-05-09 14:50:30.149,1,-1.27,-6.83,-2.2,-102.1576,-198.3812,-39.226600000000005,175,75
2026-05-09 14:50:30.160,1,-0.88,-0.82,-0.22,-19.837600000000002,152.1688,-82.2166,175,75
2026-05-09 14:50:30.171,1,-1.3,0.39,-0.57,63.64240000000001,90.6388,-47.0366,175,75
2026-05-09 14:50:30.183,1,-1.53,0.22,-0.75,69.3124,120.14880000000001,-165.3866,175,75
2026-05-09 14:50:30.194,1,-1.87,0.31,-0.58,109.3724,90.5788,-221.54659999999998,175,75
2026-05-09 14:50:30.217,1,-2.07,-0.75,0.81,227.1124,101.2488,-294.9566,175,75
2026-05-09 14:50:30.228,1,-2.07,-1.48,1.98,270.77239999999995,142.2288,-258.2566,175,75
2026-05-09 14:50:30.240,1,-2.76,-1.45,3.12,304.37239999999997,56.9188,-228.6766,175,75
2026-05-09 14:50:30.250,1,-2.77,-0.86,3.06,286.20239999999995,45.818799999999996,-184.4766,175,75
2026-05-09 14:50:30.250,1,-2.21,0.06,1.21,265.89239999999995,15.4588,-115.50659999999999,175,75
2026-05-09 14:50:30.276,1,-3.51,1.0,-2.0,234.0624,19.0588,-49.3466,175,75
2026-05-09 14:50:30.290,1,-3.72,0.94,-2.64,78.3324,547.0388,161.5034,175,75
2026-05-09 14:50:30.310,1,-1.62,-1.24,2.44,-163.4376,352.2888,310.28340000000003,175,75
2026-05-09 14:50:30.354,1,-0.29,-0.07,0.74,-295.62760000000003,-182.1612,270.4034,175,75
2026-05-09 14:50:30.367,1,0.6,-0.1,1.13,-250.6276,-100.6412,295.7734,175,75
2026-05-09 14:50:30.377,1,0.92,0.03,0.9,-199.7176,-87.04119999999999,282.1134,175,75
2026-05-09 14:50:30.388,1,1.2,-0.07,0.74,-163.4376,-48.2612,246.1934,175,75
2026-05-09 14:50:30.416,1,1.76,0.05,1.7,-112.0876,131.5588,209.9734,175,75
2026-05-09 14:50:30.427,1,1.7,0.32,2.17,-100.6876,133.3888,204.5534,175,75
2026-05-09 14:50:30.427,1,1.36,0.45,2.48,-83.24759999999999,91.06880000000001,194.1234,175,75
2026-05-09 14:50:30.466,1,1.15,0.72,1.6,-42.217600000000004,-88.2612,150.95340000000002,175,75
2026-05-09 14:50:30.471,1,1.75,0.6,1.33,-9.1676,-1.9811999999999999,137.4734,175,75
2026-05-09 14:50:30.486,1,1.79,0.55,1.37,41.502399999999994,86.2488,103.9434,175,75
2026-05-09 14:50:30.486,1,1.6,1.12,1.49,111.3224,122.5288,86.38340000000001,175,75
2026-05-09 14:50:30.516,1,2.14,0.7,0.3,189.0024,162.3488,85.2234,175,75
2026-05-09 14:50:30.526,1,2.07,-1.99,-1.58,77.3024,-246.0112,-62.8866,175,75
2026-05-09 14:50:30.545,1,2.2,-6.79,6.76,382.1124,502.5288,65.3434,175,75
2026-05-09 14:50:30.551,1,3.66,-2.36,6.84,217.3024,247.77880000000002,-46.546600000000005,175,75
2026-05-09 14:50:30.560,1,-1.01,-1.05,4.26,74.4324,-192.9012,-16.366600000000002,175,75
2026-05-09 14:50:30.602,1,-3.64,-6.23,0.46,-113.4376,135.2088,-180.4466,175,75
2026-05-09 14:50:30.624,1,-0.39,1.42,-1.11,149.0024,-69.54119999999999,-37.4566,175,75
2026-05-09 14:50:30.635,1,-1.94,1.19,-1.9,136.9924,33.6888,-171.0566,175,75
2026-05-09 14:50:30.683,1,-1.07,1.44,-0.42,342.3624,204.7288,-209.8966,175,75
2026-05-09 14:50:30.696,1,-1.91,0.11,0.26,277.0524,358.68879999999996,-216.3666,175,75
2026-05-09 14:50:30.707,1,-1.23,-0.66,0.37,310.5924,456.06879999999995,-188.3766,175,75
2026-05-09 14:50:30.718,1,-1.17,-0.75,-2.12,311.75239999999997,483.50879999999995,-214.5966,175,75
2026-05-09 14:50:30.742,1,0.28,0.76,2.24,246.4424,1099.1788,65.71340000000001,175,75
2026-05-09 14:50:30.753,1,1.11,-0.07,2.42,177.4824,758.0788,-19.416600000000003,175,75
2026-05-09 14:50:30.753,1,0.38,-0.13,0.91,-75.8676,477.8388,-41.1166,175,75
2026-05-09 14:50:30.766,1,0.31,-0.21,0.45,-211.2976,332.8388,-53.9866,175,75
2026-05-09 14:50:30.776,1,0.34,-0.62,0.83,-304.04760000000005,146.18880000000001,-34.1066,175,75
2026-05-09 14:50:30.790,1,-0.22,-1.74,1.76,-369.7176,-226.1912,-8.806600000000001,175,75
2026-05-09 14:50:30.834,1,-0.86,-0.98,-0.37,-341.60760000000005,-62.7712,45.953399999999995,175,75
2026-05-09 14:50:30.834,1,-0.85,-0.86,0.53,-295.5076,-30.701199999999996,49.6134,175,75
2026-05-09 14:50:30.847,1,-0.84,-0.93,1.12,-272.8276,-35.4012,74.49340000000001,175,75
2026-05-09 14:50:30.858,1,-0.99,-0.92,1.3,-257.8876,-70.82119999999999,80.2834,175,75
2026-05-09 14:50:30.870,1,-1.09,-0.74,1.0,-218.9776,-65.0912,80.6534,175,75
2026-05-09 14:50:30.878,1,-0.85,-0.58,0.43,-180.1976,-12.2912,92.1134,175,75
2026-05-09 14:50:30.888,1,-0.81,-0.68,0.29,-158.8576,41.248799999999996,103.88340000000001,175,75
2026-05-09 14:50:30.903,1,-0.58,-0.9,0.54,-130.0776,135.1488,108.7534,175,75
2026-05-09 14:50:30.914,1,-0.22,-0.91,1.01,-111.96759999999999,154.96880000000002,101.6234,175,75
2026-05-09 14:50:30.935,1,0.19,-0.96,1.61,-129.2276,89.6688,74.24340000000001,175,75
2026-05-09 14:50:30.948,1,0.32,-0.99,1.79,-151.2376,33.4488,50.343399999999995,175,75
2026-05-09 14:50:30.965,1,0.69,-0.71,2.31,-193.0676,-98.32119999999999,14.003399999999997,175,75
2026-05-09 14:50:30.983,1,1.01,-0.38,2.6,-206.1176,-205.03119999999998,-6.5466000000000015,175,75
2026-05-09 14:50:30.994,1,1.07,0.0,2.6,-213.2476,-289.05120000000005,-11.2466,175,75
2026-05-09 14:50:31.004,1,1.12,0.33,2.47,-216.7276,-342.5912,7.843399999999997,175,75
2026-05-09 14:50:31.037,1,1.19,0.38,1.39,-143.0076,-297.1012,40.0434,175,75
2026-05-09 14:50:31.050,1,1.19,0.44,1.34,-108.9176,-240.5812,45.2234,175,75
2026-05-09 14:50:31.062,1,1.22,0.38,1.33,-84.8976,-198.3812,42.843399999999995,175,75
2026-05-09 14:50:31.069,1,1.1,0.4,1.47,-70.3276,-154.3012,44.303399999999996,175,75
2026-05-09 14:50:31.082,1,1.13,0.51,1.76,-53.617599999999996,-110.5212,38.5734,175,75
2026-05-09 14:50:31.113,1,1.12,0.9,2.68,8.822399999999998,-128.0812,19.1834,175,75
2026-05-09 14:50:31.145,1,1.29,0.96,1.82,72.9124,-219.8512,-48.866600000000005,175,75
2026-05-09 14:50:31.145,1,0.05,1.51,0.78,85.8324,-225.7012,-67.1566,175,75
2026-05-09 14:50:31.167,1,-4.26,3.5,-4.06,132.4824,-263.50120000000004,77.7834,175,75
2026-05-09 14:50:31.177,1,7.63,-6.19,-10.35,-41.357600000000005,611.1888,311.1934,175,75
2026-05-09 14:50:31.198,1,5.8,-0.82,6.17,114.86240000000001,730.8188,53.94339999999999,175,75
2026-05-09 14:50:31.212,1,1.15,-4.03,5.74,136.8124,272.6488,32.413399999999996,175,75
2026-05-09 14:50:31.222,1,0.62,-4.41,1.6,115.1024,-376.25120000000004,-47.826600000000006,175,75
2026-05-09 14:50:31.238,1,-1.57,-0.78,-0.92,-106.8476,84.53880000000001,-134.2266,175,75
2026-05-09 14:50:31.264,1,-0.43,1.07,-0.82,53.7624,14.418800000000001,-18.436600000000002,175,75
2026-05-09 14:50:31.274,1,-1.37,0.32,-1.24,94.7424,175.5188,-109.3466,175,75
2026-05-09 14:50:31.277,1,-1.31,0.45,-1.07,145.3424,173.0188,-168.2566,175,75
2026-05-09 14:50:31.293,1,-1.53,0.41,-0.39,211.2024,225.02880000000002,-208.0066,175,75
2026-05-09 14:50:31.304,1,-1.52,-0.23,0.41,234.6724,222.7088,-258.3166,175,75
2026-05-09 14:50:31.315,1,-1.49,-1.53,1.74,231.8724,257.8388,-245.2066,175,75
2026-05-09 14:50:31.326,1,-1.59,-2.3,2.92,258.33239999999995,160.6988,-246.9766,175,75
2026-05-09 14:50:31.337,1,-1.45,-1.39,3.29,281.81239999999997,15.7588,-231.1766,175,75
2026-05-09 14:50:31.354,1,-2.75,0.34,2.47,264.00239999999997,0.2088000000000001,-142.8866,175,75
2026-05-09 14:50:31.366,1,-2.93,1.04,-1.0,198.8824,1.7988,-19.2866,175,75
2026-05-09 14:50:31.378,1,-3.65,1.2,-2.69,116.0824,170.4588,87.8434,175,75
2026-05-09 14:50:31.392,1,-2.64,0.02,-1.89,-92.3376,646.9788,242.9034,175,75
2026-05-09 14:50:31.404,1,-1.93,-0.55,0.13,-190.7476,695.9488,256.5634,175,75
2026-05-09 14:50:31.404,1,-1.86,-0.75,1.63,-203.9176,547.0388,282.3534,175,75
2026-05-09 14:50:31.462,1,0.05,0.34,-0.05,-265.3876,-228.1412,275.9534,175,75
2026-05-09 14:50:31.473,1,0.44,0.08,0.01,-227.8276,-109.4812,282.2934,175,75
2026-05-09 14:50:31.475,1,0.96,0.07,0.19,-173.9176,-10.581199999999999,264.7334,175,75
2026-05-09 14:50:31.490,1,1.53,0.21,0.64,-141.5476,37.038799999999995,239.0634,175,75
2026-05-09 14:50:31.546,1,1.39,0.33,2.35,-86.2976,42.2288,156.1334,175,75
2026-05-09 14:50:31.560,1,1.48,0.48,2.14,-69.2276,-70.82119999999999,133.8834,175,75
2026-05-09 14:50:31.573,1,1.45,0.77,1.31,-70.1976,-123.2612,117.35340000000001,175,75
2026-05-09 14:50:31.590,1,1.38,0.84,0.78,-45.867599999999996,-38.2012,113.3334,175,75
2026-05-09 14:50:31.615,1,1.18,1.1,1.44,84.86240000000001,151.6188,104.0034,175,75
2026-05-09 14:50:31.626,1,2.03,0.37,3.16,213.3924,346.73879999999997,100.46340000000001,175,75
2026-05-09 14:50:31.638,1,-1.79,-2.35,-3.17,119.5524,-450.88120000000004,-39.1066,175,75
2026-05-09 14:50:31.659,1,1.84,-7.34,2.7,142.60240000000002,1269.9088,160.6534,175,75
2026-05-09 14:50:31.682,1,3.46,-2.14,5.02,141.8724,119.53880000000001,50.10339999999999,175,75
2026-05-09 14:50:31.682,1,0.23,-3.3,4.45,50.5924,-78.63119999999999,-7.586600000000002,175,75
2026-05-09 14:50:31.707,1,1.49,-3.34,0.78,70.7124,-311.68120000000005,-31.546600000000005,175,75
2026-05-09 14:50:31.719,1,-1.74,-7.64,-1.83,-122.4576,-154.6012,-34.9566,175,75
2026-05-09 14:50:31.770,1,-1.1,1.63,-1.39,135.1624,63.8688,-143.4966,175,75
2026-05-09 14:50:31.792,1,-1.31,0.46,0.27,291.20239999999995,184.8488,-188.2566,175,75
2026-05-09 14:50:31.792,1,-1.61,-0.57,0.15,308.64239999999995,236.4888,-197.5266,175,75
2026-05-09 14:50:31.805,1,-1.48,-1.2,0.48,312.3024,254.4188,-257.45660000000004,175,75
2026-05-09 14:50:31.824,1,-2.28,-0.58,0.17,307.6624,251.3088,-305.1466,175,75
2026-05-09 14:50:31.835,1,-1.06,0.44,-2.63,313.52239999999995,457.8988,-216.54659999999998,175,75
2026-05-09 14:50:31.867,1,0.11,0.39,2.45,256.26239999999996,1095.3988,52.60339999999999,175,75
2026-05-09 14:50:31.904,1,-0.21,-0.2,0.93,-274.9576,421.30879999999996,12.7234,175,75
2026-05-09 14:50:31.916,1,0.27,-1.69,1.1,-288.12760000000003,159.6688,21.8634,175,75
2026-05-09 14:50:31.932,1,0.45,-2.18,1.0,-339.22760000000005,-47.0412,-8.256600000000002,175,75
2026-05-09 14:50:31.932,1,-0.55,-1.5,1.1,-388.0076,-241.3712,8.1534,175,75
2026-05-09 14:50:31.952,1,-0.75,-0.98,0.86,-393.91760000000005,-249.7912,29.243399999999994,175,75
2026-05-09 14:50:31.954,1,-0.76,-1.06,0.88,-367.0276,-249.5412,73.3934,175,75
2026-05-09 14:50:31.972,1,-0.76,-1.4,1.05,-332.7676,-220.03119999999998,97.1734,175,75
2026-05-09 14:50:32.001,1,-1.01,-1.27,1.31,-283.49760000000003,-192.0412,101.4434,175,75
2026-05-09 14:50:32.001,1,-0.84,-1.22,1.42,-258.61760000000004,-177.22119999999998,109.9734,175,75
2026-05-09 14:50:32.021,1,-0.66,-1.09,1.37,-225.3276,-165.5212,116.80340000000001,175,75
2026-05-09 14:50:32.021,1,-0.62,-1.07,1.11,-194.2276,-142.9012,111.5034,175,75
2026-05-09 14:50:32.034,1,-0.39,-1.03,1.09,-184.7176,-96.6112,107.5434,175,75
2026-05-09 14:50:32.047,1,0.27,-1.0,1.44,-171.8476,-37.4112,105.71340000000001,175,75
2026-05-09 14:50:32.060,1,0.55,-1.06,2.15,-174.1076,-60.461200000000005,68.0834,175,75
2026-05-09 14:50:32.072,1,1.06,-0.84,2.42,-178.7976,-85.82119999999999,45.4034,175,75
2026-05-09 14:50:32.087,1,1.37,-0.35,2.23,-191.4776,-214.4212,24.733399999999996,175,75
2026-05-09 14:50:32.097,1,1.15,0.08,1.89,-196.2976,-261.49120000000005,30.953399999999995,175,75
2026-05-09 14:50:32.108,1,1.29,0.34,1.59,-175.5676,-242.4112,32.35339999999999,175,75
2026-05-09 14:50:32.119,1,1.73,0.51,1.5,-129.3476,-195.9412,37.663399999999996,175,75
2026-05-09 14:50:32.130,1,1.92,0.56,1.61,-39.8976,-99.0512,58.1534,175,75
2026-05-09 14:50:32.142,1,1.81,0.52,1.73,-20.0776,-87.71119999999999,63.8234,175,75
2026-05-09 14:50:32.163,1,1.38,0.47,1.82,-1.4176000000000002,-101.13119999999999,62.6034,175,75
2026-05-09 14:50:32.200,1,1.11,0.15,1.61,15.412400000000002,-134.0512,40.8334,175,75
2026-05-09 14:50:32.245,1,0.83,0.6,0.93,8.822399999999998,-32.531200000000005,24.973399999999998,175,75
2026-05-09 14:50:32.245,1,1.06,0.56,1.37,27.302400000000002,30.088800000000003,20.2834,175,75
2026-05-09 14:50:32.256,1,1.2,0.62,1.51,51.2624,29.7288,6.743399999999999,175,75
2026-05-09 14:50:32.266,1,-0.02,1.19,0.97,55.47239999999999,-3.8112000000000004,16.2534,175,75
2026-05-09 14:50:32.294,1,1.05,1.26,0.54,81.8124,181.24880000000002,84.0034,175,75
2026-05-09 14:50:32.294,1,0.24,-0.5,-2.26,-36.117599999999996,-487.5912,-78.9266,175,75
2026-05-09 14:50:32.332,1,0.45,-3.71,5.12,241.6324,499.7888,14.673399999999999,175,75
2026-05-09 14:50:32.340,1,1.57,-1.56,3.38,67.6024,-5.8212,-13.136600000000001,175,75
2026-05-09 14:50:32.350,1,1.33,-2.33,2.69,-19.587600000000002,18.198800000000002,-18.376600000000003,175,75
2026-05-09 14:50:32.361,1,0.01,-3.26,0.53,49.4324,-269.18120000000005,-31.916600000000003,175,75
2026-05-09 14:50:32.383,1,-1.04,-2.28,-1.11,-119.5876,167.8388,-134.6566,175,75
2026-05-09 14:50:32.395,1,-0.58,0.66,-0.08,-0.8075999999999999,138.6288,-46.4866,175,75
2026-05-09 14:50:32.407,1,-1.06,0.97,-0.82,38.882400000000004,123.4488,-34.5366,175,75
2026-05-09 14:50:32.407,1,-0.97,1.0,-0.96,76.2624,93.1388,-126.8466,175,75
2026-05-09 14:50:32.426,1,-1.34,0.66,-0.9,133.6424,125.0288,-139.2866,175,75
2026-05-09 14:50:32.436,1,-1.39,0.07,-0.7,211.4424,183.1388,-221.3666,175,75
2026-05-09 14:50:32.447,1,-1.77,-1.14,0.09,223.2724,248.5688,-244.04659999999998,175,75
2026-05-09 14:50:32.462,1,-1.85,-2.33,1.56,245.5324,266.30879999999996,-272.0366,175,75
2026-05-09 14:50:32.473,1,-2.06,-1.84,3.02,325.77239999999995,139.1788,-262.1566,175,75
2026-05-09 14:50:32.484,1,-2.42,-0.84,3.67,296.9324,24.4788,-251.9166,175,75
2026-05-09 14:50:32.495,1,-2.57,0.31,2.82,220.4124,-95.5212,-203.8666,175,75
2026-05-09 14:50:32.529,1,-2.26,0.34,-1.8,-13.3676,575.9488,298.2134,175,75
2026-05-09 14:50:32.541,1,-2.33,-0.03,0.74,-97.1576,611.6188000000001,231.2534,175,75
2026-05-09 14:50:32.549,1,-1.88,-0.22,2.47,-143.3676,455.1488,275.7134,175,75
2026-05-09 14:50:32.566,1,-0.82,-1.03,2.69,-131.54760000000002,232.77880000000002,295.4634,175,75
2026-05-09 14:50:32.574,1,-0.47,-1.73,2.23,-212.0276,-43.4412,214.9734,175,75
2026-05-09 14:50:32.580,1,-0.39,-0.59,1.1,-256.05760000000004,-167.1012,220.3434,175,75
2026-05-09 14:50:32.590,1,-0.3,-0.13,0.63,-243.1276,-153.6912,251.7434,175,75
2026-05-09 14:50:32.599,1,-0.03,-0.1,0.66,-229.95759999999999,-115.0312,261.1934,175,75
2026-05-09 14:50:32.614,1,0.43,-0.09,0.86,-209.2876,-66.0112,264.4334,175,75
2026-05-09 14:50:32.626,1,1.21,-0.03,0.93,-176.2976,-12.9012,254.79340000000002,175,75
2026-05-09 14:50:32.649,1,1.85,0.1,1.68,-112.82759999999999,94.7288,180.7134,175,75
2026-05-09 14:50:32.684,1,1.68,0.6,2.14,-57.27760000000001,-8.3812,150.6534,175,75
2026-05-09 14:50:32.694,1,1.2,0.71,1.71,-48.6776,-80.88119999999999,140.8934,175,75
2026-05-09 14:50:32.725,1,1.7,0.3,1.08,29.1324,127.7788,119.8534,175,75
2026-05-09 14:50:32.725,1,2.2,0.38,1.49,53.7624,181.6188,106.1934,175,75
2026-05-09 14:50:32.739,1,2.57,0.66,1.24,54.4324,107.5288,109.3634,175,75
2026-05-09 14:50:32.764,1,1.81,-0.32,0.75,15.9524,291.55879999999996,52.173399999999994,175,75
2026-05-09 14:50:32.774,1,4.92,-5.37,5.4,343.0924,417.4088,59.9134,175,75
2026-05-09 14:50:32.784,1,2.66,-3.5,4.78,205.7724,-49.9112,-53.256600000000006,175,75
2026-05-09 14:50:32.797,1,1.41,-2.25,2.17,42.422399999999996,-301.8612,-145.5066,175,75
2026-05-09 14:50:32.809,1,0.21,-2.87,0.17,95.1024,-244.8512,-71.6066,175,75
2026-05-09 14:50:32.820,1,0.47,-12.81,-0.54,4.192399999999999,-124.9712,-5.696600000000002,175,75
