Time,ID,Ax,Ay,Az,Gx,Gy,Gz,Height,Weight
2026-05-11 17:56:47.918,1,-0.3,-0.6,1.98,-23.309800000000003,219.6236,19.581199999999995,175,75
2026-05-11 17:56:47.918,1,-3.06,1.04,-0.68,52.1202,-311.1664,-14.8688,175,75
2026-05-11 17:56:47.918,1,-5.82,1.59,-2.0,47.3602,-277.56640000000004,44.0912,175,75
2026-05-11 17:56:47.918,1,0.51,-1.98,3.18,-66.3598,19.3836,45.9212,175,75
2026-05-11 17:56:47.918,1,0.16,-1.97,1.32,-169.5898,-193.9064,40.8612,175,75
2026-05-11 17:56:47.918,1,-0.31,-1.72,2.21,53.1502,95.8436,-106.6988,175,75
2026-05-11 17:56:47.918,1,0.62,-0.22,2.61,-146.9098,197.1236,241.2212,175,75
2026-05-11 17:56:47.918,1,-0.61,-0.1,2.53,-185.1998,205.7236,71.35119999999999,175,75
2026-05-11 17:56:47.918,1,-1.49,-0.48,1.34,-217.2698,136.76360000000003,102.1412,175,75
2026-05-11 17:56:47.919,1,-0.67,-3.97,2.1,-337.6998,268.04359999999997,319.45120000000003,175,75
2026-05-11 17:56:47.919,1,-0.12,-3.06,2.24,-522.3298,61.333600000000004,294.1512,175,75
2026-05-11 17:56:47.919,1,-0.26,-2.27,1.5,-589.0998,13.343600000000002,305.61120000000005,175,75
2026-05-11 17:56:47.919,1,0.2,-1.57,1.28,-549.7698,7.4936,317.69120000000004,175,75
2026-05-11 17:56:47.919,1,1.37,0.34,2.59,-278.3098,-18.9064,255.74120000000002,175,75
2026-05-11 17:56:47.920,1,3.38,1.72,4.15,-148.9798,110.11359999999999,178.8512,175,75
2026-05-11 17:56:47.920,1,2.22,0.76,5.93,391.5702,217.0636,-84.0188,175,75
2026-05-11 17:56:47.920,1,1.29,0.08,3.15,368.0302,-49.696400000000004,-192.5588,175,75
2026-05-11 17:56:47.920,1,0.62,0.06,1.61,482.4802,17.433600000000002,-213.9588,175,75
2026-05-11 17:56:47.928,1,0.47,0.04,1.71,470.7102,45.233599999999996,-205.2388,175,75
2026-05-11 17:56:47.932,1,0.38,0.21,1.86,454.6202,36.5836,-194.0188,175,75
2026-05-11 17:56:47.985,1,0.27,0.3,2.2,425.0402,-115.7964,-177.8588,175,75
2026-05-11 17:56:48.056,1,0.23,0.07,1.83,411.6302,-166.9564,-197.6188,175,75
2026-05-11 17:56:48.056,1,-1.09,-1.12,0.52,359.9202,-83.7864,-223.7788,175,75
2026-05-11 17:56:48.085,1,-0.73,-2.04,0.22,339.6802,-110.85640000000001,-182.9188,175,75
2026-05-11 17:56:48.085,1,-0.82,-2.92,-0.36,287.7902,-203.23639999999997,-177.4988,175,75
2026-05-11 17:56:48.141,1,-1.42,0.58,0.06,80.5902,57.67359999999999,-10.6088,175,75
2026-05-11 17:56:48.424,1,1.32,-4.12,-1.9,-325.6898,-258.7264,16.5312,175,75
2026-05-11 17:56:48.424,1,-0.43,-1.48,-1.32,-202.8198,-47.3864,60.6112,175,75
2026-05-11 17:56:48.424,1,-1.08,-0.65,0.9,-93.1298,183.7136,104.5212,175,75
2026-05-11 17:56:48.424,1,0.31,0.85,2.19,-112.5798,74.3836,95.49119999999999,175,75
2026-05-11 17:56:48.424,1,0.47,-0.74,0.6,-108.1898,-64.4564,79.2712,175,75
2026-05-11 17:56:48.424,1,-0.53,-0.34,-0.2,-59.5298,-72.9364,37.691199999999995,175,75
2026-05-11 17:56:48.424,1,-1.09,0.09,0.88,39.980199999999996,58.89359999999999,30.4912,175,75
2026-05-11 17:56:48.424,1,-0.22,-0.49,1.39,48.7602,27.5536,2.6311999999999998,175,75
2026-05-11 17:56:48.426,1,-0.36,-0.69,0.97,62.420199999999994,40.053599999999996,-44.3888,175,75
2026-05-11 17:56:48.426,1,0.16,-1.38,1.71,80.6502,111.0936,-28.0488,175,75
2026-05-11 17:56:48.426,1,0.59,-1.35,1.74,112.1202,176.1536,-55.6088,175,75
2026-05-11 17:56:48.426,1,0.47,-0.38,2.04,-30.1998,153.7136,121.8912,175,75
2026-05-11 17:56:48.427,1,0.09,0.23,2.36,-61.7198,87.4936,34.0912,175,75
2026-05-11 17:56:48.427,1,0.55,0.86,2.88,-42.939800000000005,64.4436,-1.3388000000000009,175,75
2026-05-11 17:56:48.822,1,0.79,2.0,3.25,17.0602,-0.7964000000000002,-35.1188,175,75
2026-05-11 17:56:48.822,1,0.83,1.12,2.8,127.8502,-124.88640000000001,-53.4688,175,75
2026-05-11 17:56:48.822,1,0.02,0.12,1.35,150.0402,-212.8764,-132.6188,175,75
2026-05-11 17:56:48.822,1,-3.54,1.14,-1.77,-17.6398,-256.2264,88.60119999999999,175,75
2026-05-11 17:56:48.823,1,-4.61,1.01,-1.02,-41.049800000000005,31.033600000000003,198.3612,175,75
2026-05-11 17:56:48.823,1,-2.25,-0.63,5.54,55.170199999999994,402.1936,95.3112,175,75
2026-05-11 17:56:48.823,1,0.63,0.71,3.77,-132.5198,-95.4364,73.24119999999999,175,75
2026-05-11 17:56:48.823,1,-0.12,-0.9,1.05,-154.7698,-280.1264,61.9512,175,75
2026-05-11 17:56:48.823,1,-0.13,-0.55,-0.44,-100.8698,-74.63640000000001,11.651200000000001,175,75
2026-05-11 17:56:48.823,1,0.52,-1.01,-0.31,-61.9098,-17.7464,-16.0888,175,75
2026-05-11 17:56:48.823,1,-0.07,-2.15,0.93,-21.299799999999998,100.0536,-17.5588,175,75
2026-05-11 17:56:48.823,1,0.04,-1.14,0.73,-72.0298,-33.9064,29.581199999999995,175,75
2026-05-11 17:56:48.823,1,-0.24,-1.08,0.65,-30.2598,-6.4064,12.811200000000001,175,75
2026-05-11 17:56:48.823,1,2.17,-3.64,2.74,-21.419800000000002,269.2636,83.1712,175,75
2026-05-11 17:56:48.824,1,-0.06,-1.35,1.14,-229.3498,228.3436,220.4312,175,75
2026-05-11 17:56:48.824,1,0.19,-0.8,1.51,-321.1098,98.7136,175.31119999999999,175,75
2026-05-11 17:56:48.908,1,0.19,0.02,1.27,-339.2198,46.883599999999994,168.4812,175,75
2026-05-11 17:56:48.908,1,0.28,0.5,1.06,-321.4798,33.593599999999995,167.0812,175,75
2026-05-11 17:56:48.908,1,0.31,0.72,0.89,-293.4298,33.7136,159.03119999999998,175,75
2026-05-11 17:56:48.909,1,0.53,0.83,1.19,-277.2698,48.7136,156.3512,175,75
2026-05-11 17:56:48.909,1,0.73,0.97,1.5,-268.7998,45.1736,146.1012,175,75
2026-05-11 17:56:48.923,1,0.98,1.43,2.13,-193.2498,-42.446400000000004,98.85119999999999,175,75
2026-05-11 17:56:48.923,1,1.13,1.73,2.57,-179.2898,-39.156400000000005,96.0412,175,75
2026-05-11 17:56:48.934,1,1.3,1.77,2.78,-155.3798,-32.5664,75.0012,175,75
2026-05-11 17:56:48.998,1,0.47,1.44,1.96,163.3402,90.97359999999999,-37.9788,175,75
2026-05-11 17:56:49.024,1,0.71,1.35,2.3,217.4202,33.8336,-49.1388,175,75
2026-05-11 17:56:49.032,1,0.61,1.16,2.11,234.5002,-13.6664,-67.4988,175,75
2026-05-11 17:56:49.041,1,0.5,1.02,1.86,235.9002,-38.906400000000005,-85.6088,175,75
2026-05-11 17:56:49.052,1,0.36,0.93,1.67,243.2102,-43.906400000000005,-103.4088,175,75
2026-05-11 17:56:49.064,1,0.27,0.88,1.74,261.9902,-57.5064,-110.5488,175,75
2026-05-11 17:56:49.064,1,0.28,0.75,1.67,269.9802,-67.2664,-121.6388,175,75
2026-05-11 17:56:49.074,1,0.31,0.53,1.54,282.6702,-57.5664,-150.4788,175,75
2026-05-11 17:56:49.120,1,0.19,0.02,1.15,296.0202,-44.0964,-169.5688,175,75
2026-05-11 17:56:49.120,1,0.1,-0.32,1.01,301.4502,-36.2864,-204.93880000000001,175,75
2026-05-11 17:56:49.131,1,-0.23,-0.44,1.0,293.1502,-72.13640000000001,-198.46880000000002,175,75
2026-05-11 17:56:49.142,1,-0.48,-0.74,0.97,278.2802,-104.02640000000001,-170.4788,175,75
2026-05-11 17:56:49.142,1,-0.53,-1.37,1.12,269.3102,-164.0264,-151.1488,175,75
2026-05-11 17:56:49.152,1,-0.58,-1.87,1.29,256.2002,-240.6764,-147.1288,175,75
2026-05-11 17:56:49.191,1,-0.7,-0.44,1.07,162.2402,-472.7464,-143.6488,175,75
2026-05-11 17:56:49.202,1,-0.72,-0.2,1.04,116.1402,-489.3964,-134.2588,175,75
2026-05-11 17:56:49.219,1,-7.61,-0.65,-0.9,-53.3098,-793.3564,-46.7588,175,75
2026-05-11 17:56:49.242,1,1.89,-2.34,-0.91,213.8902,53.773599999999995,477.81120000000004,175,75
2026-05-11 17:56:49.256,1,3.88,-0.07,4.99,16.2602,1118.5336000000002,-54.3288,175,75
2026-05-11 17:56:49.270,1,-1.26,0.39,4.26,-122.0298,151.58360000000002,-48.0488,175,75
2026-05-11 17:56:49.280,1,1.44,-2.09,3.51,-34.4698,112.5536,123.66120000000001,175,75
2026-05-11 17:56:49.292,1,1.75,-3.12,2.25,-33.9798,-163.72639999999998,117.75120000000001,175,75
2026-05-11 17:56:49.303,1,0.9,-2.09,-0.78,-153.4298,-192.44639999999998,65.9212,175,75
2026-05-11 17:56:49.314,1,-0.98,-1.43,0.1,-30.6298,40.7236,78.4212,175,75
2026-05-11 17:56:49.327,1,-0.27,-0.34,1.67,14.8002,110.36359999999999,81.0412,175,75
2026-05-11 17:56:49.340,1,0.05,-0.25,1.46,-17.5798,-7.3864,63.661199999999994,175,75
2026-05-11 17:56:49.355,1,-0.67,-0.11,0.43,-4.409800000000001,-47.876400000000004,22.871199999999995,175,75
2026-05-11 17:56:49.355,1,-0.77,-0.03,0.49,68.5802,10.543600000000001,-5.178800000000001,175,75
2026-05-11 17:56:49.367,1,-0.66,-0.37,1.06,112.3602,43.8336,-35.2388,175,75
2026-05-11 17:56:49.380,1,-0.49,-0.63,1.4,113.7602,38.773599999999995,-59.448800000000006,175,75
2026-05-11 17:56:49.390,1,-0.47,-0.68,1.37,106.5102,25.9736,-78.0488,175,75
2026-05-11 17:56:49.401,1,-0.36,-0.64,1.16,111.1402,41.0336,-91.9488,175,75
2026-05-11 17:56:49.414,1,-0.23,-0.75,1.06,133.4002,65.0536,-100.11880000000001,175,75
2026-05-11 17:56:49.439,1,0.54,-1.57,1.37,157.3002,141.51360000000003,-91.0888,175,75
2026-05-11 17:56:49.451,1,0.69,-1.6,1.72,145.9002,168.4036,-77.61880000000001,175,75
2026-05-11 17:56:49.462,1,1.04,-1.09,2.3,110.9002,165.36360000000002,-54.3888,175,75
2026-05-11 17:56:49.472,1,0.74,-1.0,2.78,142.3602,258.2236,-163.9588,175,75
2026-05-11 17:56:49.484,1,0.06,-0.13,2.54,84.3702,167.1236,-118.2288,175,75
2026-05-11 17:56:49.499,1,-0.91,1.01,1.53,-41.909800000000004,61.39359999999999,-42.4988,175,75
2026-05-11 17:56:49.510,1,-1.08,0.79,0.71,-100.9298,13.953600000000002,20.431199999999997,175,75
2026-05-11 17:56:49.521,1,-1.07,0.82,0.62,-106.1098,103.7736,30.801199999999994,175,75
2026-05-11 17:56:49.537,1,-0.73,0.99,1.16,-83.1298,174.26360000000003,46.3512,175,75
2026-05-11 17:56:49.562,1,-0.42,0.84,1.69,-60.019800000000004,157.2536,62.8112,175,75
2026-05-11 17:56:49.574,1,0.46,0.86,1.61,-39.409800000000004,-28.6064,27.0212,175,75
2026-05-11 17:56:49.581,1,0.62,1.04,1.18,-25.1998,-91.71640000000001,12.6912,175,75
2026-05-11 17:56:49.592,1,0.47,1.21,0.99,0.9001999999999999,-98.35640000000001,-14.328800000000001,175,75
2026-05-11 17:56:49.633,1,0.42,0.71,1.49,-13.0698,-169.1564,-44.4488,175,75
2026-05-11 17:56:49.644,1,-0.07,0.86,0.98,-39.2198,-204.69639999999998,-39.4488,175,75
2026-05-11 17:56:49.654,1,-0.69,1.04,0.43,-61.5998,-202.26639999999998,-26.3388,175,75
2026-05-11 17:56:49.684,1,-3.65,0.77,-0.6,-80.0198,-287.8764,31.5312,175,75
2026-05-11 17:56:49.694,1,-3.27,0.25,-1.39,-120.3798,-298.8464,127.99119999999999,175,75
2026-05-11 17:56:49.715,1,-1.01,-1.19,6.08,21.510199999999998,199.01360000000003,38.3612,175,75
2026-05-11 17:56:49.725,1,0.82,-0.13,4.1,-67.5198,-115.6164,45.4312,175,75
2026-05-11 17:56:49.749,1,0.5,-0.54,-0.72,-62.0898,-153.9064,8.7812,175,75
2026-05-11 17:56:49.763,1,0.24,-2.71,0.85,56.39019999999999,127.98360000000001,-7.9188,175,75
2026-05-11 17:56:49.763,1,0.24,-2.27,1.93,46.3902,38.0436,9.3912,175,75
2026-05-11 17:56:49.812,1,-0.2,-1.36,1.55,25.9602,-31.5964,6.651200000000001,175,75
2026-05-11 17:56:49.826,1,-0.39,-1.03,0.49,60.0402,-10.7364,-66.6388,175,75
2026-05-11 17:56:49.835,1,-0.63,-1.45,1.14,106.0802,76.39359999999999,-95.7288,175,75
2026-05-11 17:56:49.852,1,1.03,-1.88,2.96,99.0702,162.3136,-26.2788,175,75
2026-05-11 17:56:49.865,1,0.85,-0.32,2.36,-0.6297999999999995,81.39359999999999,-0.9687999999999999,175,75
2026-05-11 17:56:49.904,1,-2.28,0.33,-0.12,-146.5998,171.27360000000002,39.3912,175,75
2026-05-11 17:56:49.931,1,-3.5,-2.29,-1.55,-424.2198,274.5636,212.3212,175,75
2026-05-11 17:56:49.942,1,-2.85,-4.32,-0.16,-375.0798,354.7536,282.69120000000004,175,75
2026-05-11 17:56:49.964,1,-0.08,-1.2,1.6,-502.1498,15.543600000000001,301.0412,175,75
2026-05-11 17:56:49.978,1,-0.27,-0.9,1.04,-498.0098,5.8435999999999995,309.5812,175,75
2026-05-11 17:56:49.989,1,0.15,-0.52,1.48,-440.0198,120.8436,309.45120000000003,175,75
2026-05-11 17:56:49.999,1,0.39,-0.8,1.97,-460.0798,99.9336,292.1412,175,75
2026-05-11 17:56:50.025,1,0.44,-0.9,2.02,-458.4898,40.9036,265.31120000000004,175,75
2026-05-11 17:56:50.025,1,0.4,-0.83,1.88,-440.1998,4.9936,248.42119999999997,175,75
2026-05-11 17:56:50.036,1,0.47,-0.62,1.9,-416.5398,-15.9864,248.78119999999998,175,75
2026-05-11 17:56:50.047,1,0.58,-0.4,2.21,-370.5698,-12.996400000000001,242.3212,175,75
2026-05-11 17:56:50.058,1,0.8,-0.24,2.65,-328.4898,10.363600000000002,233.6012,175,75
2026-05-11 17:56:50.067,1,1.5,0.32,3.47,-263.6798,14.753600000000002,216.9512,175,75
2026-05-11 17:56:50.079,1,2.0,1.17,4.03,-245.4998,14.2636,197.4412,175,75
2026-05-11 17:56:50.090,1,2.68,2.35,4.23,-165.1398,-28.3564,109.5812,175,75
2026-05-11 17:56:50.091,1,1.69,2.86,3.18,-12.4598,-29.5164,-8.1088,175,75
2026-05-11 17:56:50.113,1,1.21,1.46,3.58,194.2502,121.1536,-86.0888,175,75
2026-05-11 17:56:50.126,1,1.4,0.49,4.15,290.5902,48.773599999999995,-100.1788,175,75
2026-05-11 17:56:50.136,1,1.34,-0.07,3.95,308.7002,-84.27640000000001,-131.5788,175,75
2026-05-11 17:56:50.147,1,1.17,0.19,3.13,274.8602,-145.73639999999997,-176.21880000000002,175,75
2026-05-11 17:56:50.158,1,1.0,0.23,1.68,277.4802,-169.0264,-227.8588,175,75
2026-05-11 17:56:50.158,1,0.47,0.33,1.0,351.0202,-100.24640000000001,-233.5288,175,75
2026-05-11 17:56:50.196,1,0.33,0.03,0.99,408.5802,47.9236,-223.8988,175,75
2026-05-11 17:56:50.219,1,0.42,-0.02,1.95,403.7002,65.9036,-211.6988,175,75
2026-05-11 17:56:50.230,1,0.39,-0.1,2.09,390.5302,21.3336,-212.9788,175,75
2026-05-11 17:56:50.230,1,0.28,-0.19,1.94,375.1002,-36.9564,-222.1288,175,75
2026-05-11 17:56:50.241,1,0.35,-0.34,1.59,369.4902,-70.6764,-228.5888,175,75
2026-05-11 17:56:50.257,1,0.12,-0.53,1.05,374.6202,-43.6064,-234.4488,175,75
2026-05-11 17:56:50.281,1,0.23,-0.53,1.22,379.3702,-23.726399999999998,-208.9588,175,75
2026-05-11 17:56:50.292,1,0.02,-0.71,1.58,358.4002,-103.0564,-179.68880000000001,175,75
2026-05-11 17:56:50.303,1,-0.17,-1.02,1.96,346.3202,-195.4964,-158.9588,175,75
2026-05-11 17:56:50.315,1,-0.53,-1.57,2.25,324.4902,-399.0264,-136.8888,175,75
2026-05-11 17:56:50.315,1,-1.17,-1.93,1.67,266.8702,-539.7664,-141.0288,175,75
2026-05-11 17:56:50.336,1,-1.55,-1.76,0.44,166.3902,-531.8964,-166.2788,175,75
2026-05-11 17:56:50.396,1,-1.54,-1.22,-0.2,90.0402,-451.5964,-184.3288,175,75
2026-05-11 17:56:50.410,1,-7.53,-3.3,-2.62,-91.2398,-555.6764000000001,-40.1788,175,75
2026-05-11 17:56:50.410,1,-9.33,-0.69,-5.33,-170.1398,-569.6364,-173.1088,175,75
2026-05-11 17:56:50.420,1,0.91,-4.15,3.53,406.7502,1216.6436,143.6612,175,75
2026-05-11 17:56:50.448,1,0.62,-2.45,2.62,-151.4198,-166.22639999999998,81.6512,175,75
2026-05-11 17:56:50.473,1,0.59,-0.31,1.27,-15.8098,13.7136,69.88119999999999,175,75
2026-05-11 17:56:50.528,1,-0.44,-0.52,1.42,93.9502,34.1436,-50.4788,175,75
2026-05-11 17:56:50.543,1,-0.43,-0.51,1.32,82.0002,31.643600000000003,-65.0588,175,75
2026-05-11 17:56:50.543,1,-0.31,-0.53,1.15,91.6902,42.803599999999996,-75.2988,175,75
2026-05-11 17:56:50.562,1,-0.08,-0.72,1.11,103.5802,68.0436,-82.36880000000001,175,75
2026-05-11 17:56:50.562,1,0.08,-0.99,1.22,105.2902,82.9236,-93.5888,175,75
2026-05-11 17:56:50.575,1,0.13,-1.23,1.48,108.9502,115.6636,-125.6088,175,75
2026-05-11 17:56:50.590,1,0.0,-1.33,1.61,94.1902,134.99360000000001,-132.3088,175,75
2026-05-11 17:56:50.601,1,-0.28,-0.61,1.83,25.4702,110.4836,29.5212,175,75
2026-05-11 17:56:50.611,1,0.27,0.08,2.57,16.9302,167.0636,-26.5188,175,75
2026-05-11 17:56:50.623,1,0.04,0.44,2.45,2.7902000000000005,-92.74640000000001,-73.58879999999999,175,75
2026-05-11 17:56:50.636,1,-0.59,0.73,1.36,-20.2598,-137.44639999999998,-6.758800000000001,175,75
2026-05-11 17:56:50.656,1,-0.93,0.52,-0.03,-94.7098,-69.57639999999999,25.431199999999997,175,75
2026-05-11 17:56:50.669,1,-0.83,0.67,0.42,-89.2198,43.6536,55.0012,175,75
2026-05-11 17:56:50.673,1,-0.46,0.69,1.04,-80.9898,40.303599999999996,60.9212,175,75
2026-05-11 17:56:50.698,1,0.25,0.82,1.84,-67.93979999999999,-30.5564,59.331199999999995,175,75
2026-05-11 17:56:50.735,1,0.52,1.29,0.8,-27.8198,-120.5564,2.8111999999999995,175,75
2026-05-11 17:56:50.770,1,-0.9,1.46,1.37,2.7902000000000005,16.273600000000002,41.041199999999996,175,75
2026-05-11 17:56:50.770,1,-2.61,0.52,0.92,-65.0798,-206.7164,95.13119999999999,175,75
2026-05-11 17:56:50.792,1,-0.39,-2.21,0.62,-102.2098,-155.6164,74.7012,175,75
2026-05-11 17:56:50.803,1,-0.19,-1.62,2.22,97.2402,237.55360000000002,62.02119999999999,175,75
2026-05-11 17:56:50.816,1,0.44,0.12,2.54,-53.7998,-27.3864,29.2712,175,75
2026-05-11 17:56:50.838,1,-0.62,-0.72,0.64,-10.0198,-71.46640000000001,-47.918800000000005,175,75
2026-05-11 17:56:50.844,1,-0.29,-1.14,1.03,48.3402,1.2736,-36.0888,175,75
2026-05-11 17:56:50.857,1,0.24,-1.87,1.47,60.230199999999996,10.4236,-54.2588,175,75
2026-05-11 17:56:50.885,1,0.53,-2.25,1.34,45.3502,-10.8564,-54.6888,175,75
2026-05-11 17:56:50.895,1,0.18,-2.12,1.03,16.3902,-41.5964,-53.8988,175,75
2026-05-11 17:56:50.906,1,0.17,-1.61,0.83,28.090200000000003,-40.7364,-43.778800000000004,175,75
2026-05-11 17:56:50.929,1,0.4,-1.57,1.8,73.8902,70.72359999999999,-43.8988,175,75
2026-05-11 17:56:50.929,1,0.5,-1.47,2.15,43.1502,89.4436,-35.9088,175,75
2026-05-11 17:56:50.937,1,0.66,-1.26,2.27,-12.1498,109.4436,-15.4788,175,75
2026-05-11 17:56:50.946,1,0.46,-1.01,2.27,31.7502,252.9236,-46.028800000000004,175,75
2026-05-11 17:56:50.979,1,-1.28,-0.71,1.43,-108.2498,142.3736,5.8012,175,75
2026-05-11 17:56:50.991,1,-3.62,-1.39,-0.45,-298.6098,-71.52640000000001,127.87119999999999,175,75
2026-05-11 17:56:50.995,1,-2.82,-2.44,-2.22,-491.3598,-35.6164,310.37120000000004,175,75
2026-05-11 17:56:51.032,1,-1.53,-3.22,-0.3,-365.8698,493.5336,288.7212,175,75
2026-05-11 17:56:51.032,1,-0.65,-2.7,1.72,-382.4598,400.29359999999997,270.61120000000005,175,75
2026-05-11 17:56:51.076,1,0.03,-1.89,2.48,-455.0198,201.76360000000003,233.6012,175,75
2026-05-11 17:56:51.084,1,0.27,-0.85,2.07,-475.2598,35.3636,256.8312,175,75
2026-05-11 17:56:51.096,1,0.21,-0.44,1.52,-455.7498,-17.3264,266.7712,175,75
2026-05-11 17:56:51.106,1,0.1,-0.13,1.1,-438.0098,-1.5964,261.2212,175,75
2026-05-11 17:56:51.119,1,0.3,-0.41,1.49,-426.8498,56.5136,262.99120000000005,175,75
2026-05-11 17:56:51.150,1,0.47,-0.52,1.82,-415.3798,31.883599999999998,256.6512,175,75
2026-05-11 17:56:51.161,1,0.7,-0.38,2.17,-398.3698,-24.9464,244.7012,175,75
2026-05-11 17:56:51.174,1,0.76,-0.08,2.32,-366.2998,-53.4864,234.6412,175,75
2026-05-11 17:56:51.227,1,0.84,0.14,2.49,-317.6998,-33.6064,228.0512,175,75
2026-05-11 17:56:51.238,1,0.9,-0.08,2.63,-255.1998,26.883599999999998,237.3212,175,75
2026-05-11 17:56:51.238,1,1.46,0.68,3.5,-209.8298,89.5636,214.2112,175,75
2026-05-11 17:56:51.250,1,2.06,3.19,4.16,-152.0298,133.2236,97.5612,175,75
2026-05-11 17:56:51.260,1,1.84,2.45,4.25,100.5902,205.42360000000002,28.301199999999994,175,75
2026-05-11 17:56:51.282,1,1.04,0.69,2.29,284.4902,-116.6564,-174.8688,175,75
2026-05-11 17:56:51.303,1,0.39,0.34,1.85,373.2802,-49.8264,-184.8088,175,75
2026-05-11 17:56:51.325,1,0.14,0.32,2.29,359.2502,-103.5464,-199.5688,175,75
2026-05-11 17:56:51.337,1,0.08,0.2,2.14,350.3502,-179.0264,-209.0788,175,75
2026-05-11 17:56:51.355,1,0.01,0.06,1.9,340.7802,-194.63639999999998,-212.5588,175,75
2026-05-11 17:56:51.380,1,-0.03,-0.14,1.44,329.9202,-181.04639999999998,-231.8888,175,75
2026-05-11 17:56:51.408,1,-0.21,-0.18,0.82,351.2002,-73.60640000000001,-251.2788,175,75
2026-05-11 17:56:51.408,1,-0.3,-0.35,0.9,358.5202,-41.7164,-237.1288,175,75
2026-05-11 17:56:51.419,1,-0.24,-0.82,1.27,360.0402,-55.6764,-216.3988,175,75
2026-05-11 17:56:51.440,1,-0.52,-2.01,1.93,359.6802,-190.79639999999998,-174.93880000000001,175,75
2026-05-11 17:56:51.460,1,-0.89,-2.42,1.73,294.6202,-367.26640000000003,-142.6188,175,75
2026-05-11 17:56:51.476,1,-1.18,-1.9,0.98,238.7002,-422.20640000000003,-155.4788,175,75
2026-05-11 17:56:51.504,1,-2.4,-0.32,-0.11,202.5402,-298.1764,-91.39880000000001,175,75
2026-05-11 17:56:51.504,1,-9.85,-0.07,-2.39,114.3702,-419.0264,-141.3988,175,75
2026-05-11 17:56:51.526,1,-6.0,-3.88,-5.15,-37.0898,-933.6064,286.8312,175,75
2026-05-11 17:56:51.539,1,0.23,-7.06,3.07,323.3402,916.3936,57.2612,175,75
2026-05-11 17:56:51.539,1,5.72,0.91,4.04,-177.3998,519.3235999999999,102.0812,175,75
2026-05-11 17:56:51.555,1,0.33,-2.01,0.25,-206.3598,-161.22639999999998,43.9112,175,75
2026-05-11 17:56:51.574,1,-0.3,-2.16,0.18,-161.5398,-44.696400000000004,58.721199999999996,175,75
2026-05-11 17:56:51.574,1,-0.7,-0.83,0.69,-104.7698,34.9936,91.0412,175,75
2026-05-11 17:56:51.578,1,0.0,0.41,1.43,-57.7598,70.4236,107.7512,175,75
2026-05-11 17:56:51.606,1,-0.83,-0.25,1.34,104.8002,67.9236,-0.11880000000000024,175,75
2026-05-11 17:56:51.606,1,-0.53,-0.59,1.69,103.8902,47.123599999999996,-23.4088,175,75
2026-05-11 17:56:51.617,1,-0.33,-0.57,1.31,73.7602,17.433600000000002,-45.9688,175,75
2026-05-11 17:56:51.641,1,-0.42,-0.49,1.03,77.4202,21.7636,-67.7988,175,75
2026-05-11 17:56:51.671,1,-0.22,-0.8,1.47,88.1502,96.1536,-91.75880000000001,175,75
2026-05-11 17:56:51.671,1,0.16,-0.61,1.62,74.7402,104.8736,-95.78880000000001,175,75
2026-05-11 17:56:51.694,1,0.34,-0.72,1.61,78.7602,93.8336,-130.7288,175,75
2026-05-11 17:56:51.730,1,-0.09,0.23,2.4,-2.0298,69.3236,-64.0188,175,75
2026-05-11 17:56:51.740,1,-0.77,0.59,2.06,-9.2198,-100.85640000000001,-52.0688,175,75
2026-05-11 17:56:51.751,1,-0.9,0.42,0.98,-32.7598,-119.0964,4.0312,175,75
2026-05-11 17:56:51.765,1,-1.32,0.44,0.25,-69.46979999999999,-112.5064,22.6312,175,75
2026-05-11 17:56:51.775,1,-1.47,0.77,0.03,-93.8598,-27.746399999999998,48.971199999999996,175,75
2026-05-11 17:56:51.775,1,-0.46,0.87,0.63,-80.4998,72.3136,68.6612,175,75
2026-05-11 17:56:51.790,1,0.39,0.94,1.72,-49.8998,95.78359999999999,68.0512,175,75
2026-05-11 17:56:51.811,1,0.94,1.29,2.22,-19.0398,-80.0664,21.711199999999998,175,75
2026-05-11 17:56:51.824,1,1.06,1.22,1.99,-0.6297999999999995,-87.6264,1.5312000000000001,175,75
2026-05-11 17:56:51.835,1,0.52,0.99,1.38,6.3902,-104.63640000000001,-13.9588,175,75
2026-05-11 17:56:51.845,1,0.27,0.95,1.17,13.2102,-104.88640000000001,-10.6088,175,75
2026-05-11 17:56:51.855,1,0.06,0.84,0.88,11.6902,-58.8464,-12.0088,175,75
2026-05-11 17:56:51.876,1,-1.61,0.88,0.17,-5.3198,-119.7664,2.0212000000000003,175,75
2026-05-11 17:56:51.876,1,-0.53,-1.11,-1.08,-25.689799999999998,-37.9364,53.1112,175,75
2026-05-11 17:56:51.887,1,-0.77,-1.62,0.12,15.170200000000001,104.2036,41.651199999999996,175,75
2026-05-11 17:56:51.898,1,1.57,-1.17,3.36,113.8902,226.8836,84.3912,175,75
2026-05-11 17:56:51.921,1,-0.15,-0.78,1.96,-100.6298,-213.41639999999998,70.3712,175,75
2026-05-11 17:56:51.992,1,-0.8,-0.96,1.09,-57.0898,-113.60640000000001,26.5312,175,75
2026-05-11 17:56:51.992,1,-0.29,-0.85,0.8,1.0801999999999996,-42.0764,7.751199999999999,175,75
2026-05-11 17:56:52.004,1,0.06,-1.27,0.98,38.8202,22.003600000000002,-2.3688000000000002,175,75
2026-05-11 17:56:52.004,1,0.65,-2.1,1.29,28.150199999999998,24.4436,-11.2188,175,75
2026-05-11 17:56:52.015,1,0.15,-2.13,1.4,1.020199999999999,-8.2364,-11.398800000000001,175,75
2026-05-11 17:56:52.051,1,-0.37,-1.24,1.06,7.9102,22.433600000000002,-21.7588,175,75
2026-05-11 17:56:52.077,1,0.52,-1.97,2.23,12.670200000000001,162.67360000000002,-47.3688,175,75
2026-05-11 17:56:52.111,1,0.06,-1.67,1.57,-124.7098,223.5336,23.4812,175,75
2026-05-11 17:56:52.111,1,-3.13,-1.43,0.75,-198.8598,151.0336,89.5212,175,75
2026-05-11 17:56:52.121,1,-3.43,-2.41,-0.6,-359.4698,129.5636,264.45120000000003,175,75
2026-05-11 17:56:52.132,1,-4.28,-4.3,-1.69,-406.4198,178.6536,235.9212,175,75
2026-05-11 17:56:52.155,1,-1.13,-2.25,-0.06,-214.4698,219.8136,260.49120000000005,175,75
2026-05-11 17:56:52.166,1,-0.91,-1.67,1.07,-265.9298,152.98360000000002,293.9712,175,75
2026-05-11 17:56:52.176,1,-0.41,-0.66,0.65,-444.2198,152.0636,276.6512,175,75
2026-05-11 17:56:52.187,1,-0.17,-0.2,0.74,-398.6798,184.3236,287.20120000000003,175,75
2026-05-11 17:56:52.204,1,0.27,-0.04,1.26,-355.0798,191.27360000000002,281.5912,175,75
2026-05-11 17:56:52.215,1,0.75,-0.08,1.7,-379.2898,78.47359999999999,252.7512,175,75
2026-05-11 17:56:52.236,1,1.18,1.0,2.21,-313.1898,-122.4464,264.45120000000003,175,75
2026-05-11 17:56:52.259,1,3.29,0.99,3.85,-225.2598,-29.156399999999998,210.31119999999999,175,75
2026-05-11 17:56:52.259,1,1.94,2.89,3.75,-98.7398,-12.0764,89.4512,175,75
2026-05-11 17:56:52.272,1,1.05,1.89,3.15,3.6402,273.7136,-29.2588,175,75
2026-05-11 17:56:52.284,1,2.51,1.47,4.18,61.450199999999995,215.42360000000002,-24.3888,175,75
2026-05-11 17:56:52.311,1,1.35,1.14,2.57,246.5702,-26.0464,-143.4088,175,75
2026-05-11 17:56:52.324,1,0.99,0.87,2.01,275.1002,-45.796400000000006,-163.8388,175,75
2026-05-11 17:56:52.335,1,0.68,0.65,1.74,282.1802,-27.2664,-182.9788,175,75
2026-05-11 17:56:52.364,1,0.31,0.42,2.02,288.8902,-44.766400000000004,-192.5588,175,75
2026-05-11 17:56:52.390,1,0.25,0.21,1.98,292.5402,-110.3764,-210.8488,175,75
2026-05-11 17:56:52.465,1,-0.02,-0.02,1.47,318.2802,-96.4064,-236.5788,175,75
2026-05-11 17:56:52.480,1,0.04,-0.41,1.13,324.1302,-61.226400000000005,-228.9588,175,75
2026-05-11 17:56:52.495,1,0.0,-0.65,0.88,322.7302,-60.2464,-244.0788,175,75
2026-05-11 17:56:52.506,1,-0.35,-0.72,0.75,315.1702,-79.3964,-223.46880000000002,175,75
2026-05-11 17:56:52.551,1,-0.57,-1.64,1.52,323.1502,-88.6664,-177.6788,175,75
2026-05-11 17:56:52.575,1,-1.13,-0.93,1.46,227.0602,-390.6164,-104.0788,175,75
2026-05-11 17:56:52.585,1,-1.69,-0.66,0.37,147.7902,-387.20640000000003,-60.3588,175,75
2026-05-11 17:56:52.599,1,-4.03,-0.27,-0.27,65.4702,-280.6764,5.981199999999999,175,75
2026-05-11 17:56:52.612,1,-8.42,0.01,-3.05,-2.3298000000000005,-256.7764,53.1112,175,75
2026-05-11 17:56:52.623,1,-4.77,-3.55,-3.64,-107.1498,-410.4364,291.2812,175,75
2026-05-11 17:56:52.623,1,2.34,-4.84,3.15,560.7102,617.6136,201.9512,175,75
2026-05-11 17:56:52.657,1,0.16,-2.21,-2.04,-364.0998,-410.4964,48.971199999999996,175,75
2026-05-11 17:56:52.670,1,-1.24,-0.35,0.77,-14.8998,217.80360000000002,81.9512,175,75
2026-05-11 17:56:52.680,1,0.53,0.41,2.03,-35.0798,124.32359999999998,80.9812,175,75
2026-05-11 17:56:52.693,1,0.45,0.12,1.52,-74.0398,-63.7864,71.10119999999999,175,75
2026-05-11 17:56:52.706,1,-1.15,-0.17,0.26,19.9202,2.9836,4.821199999999999,175,75
2026-05-11 17:56:52.718,1,-1.0,-0.08,1.0,69.0702,52.553599999999996,-23.7188,175,75
2026-05-11 17:56:52.719,1,-0.56,-0.16,1.41,81.5702,53.8936,-49.5088,175,75
2026-05-11 17:56:52.734,1,-0.25,-0.31,1.35,82.3002,28.5936,-64.5688,175,75
2026-05-11 17:56:52.745,1,-0.23,-0.68,0.97,91.2602,9.4436,-99.3888,175,75
2026-05-11 17:56:52.761,1,-0.18,-0.78,1.23,118.7002,45.053599999999996,-100.11880000000001,175,75
2026-05-11 17:56:52.772,1,0.07,-0.75,1.29,134.5602,65.6636,-104.7488,175,75
2026-05-11 17:56:52.783,1,0.22,-0.78,1.15,132.5402,84.3236,-126.0888,175,75
2026-05-11 17:56:52.814,1,-0.02,-0.62,2.24,67.0602,52.063599999999994,-98.0488,175,75
2026-05-11 17:56:52.824,1,-0.16,-0.32,2.13,54.920199999999994,-79.8264,-78.4688,175,75
2026-05-11 17:56:52.870,1,-1.55,0.85,-0.17,-78.2498,1.7635999999999994,42.8112,175,75
2026-05-11 17:56:52.877,1,-1.03,0.51,0.42,-93.0698,94.2636,73.1712,175,75
2026-05-11 17:56:52.899,1,0.49,0.43,1.69,-116.9698,52.553599999999996,85.2512,175,75
2026-05-11 17:56:52.915,1,0.81,0.7,1.79,-141.4198,-97.8064,78.9112,175,75
2026-05-11 17:56:52.937,1,0.3,0.77,0.82,-147.9398,-134.2164,66.9512,175,75
2026-05-11 17:56:52.947,1,0.29,0.86,0.88,-140.7498,-58.7864,49.5212,175,75
2026-05-11 17:56:52.947,1,0.71,1.06,1.5,-115.9898,-6.2264,38.9112,175,75
2026-05-11 17:56:52.975,1,2.33,1.05,2.36,-56.9098,-98.0564,5.251199999999999,175,75
2026-05-11 17:56:52.986,1,0.58,0.01,2.1,-97.1498,-288.6064,55.0612,175,75
2026-05-11 17:56:52.998,1,-2.45,0.83,2.04,-84.7698,-109.02640000000001,33.6612,175,75
2026-05-11 17:56:53.005,1,0.47,-2.75,2.5,-32.1498,-50.8564,60.74119999999999,175,75
2026-05-11 17:56:53.032,1,0.45,-0.02,2.18,-8.549800000000001,31.5136,57.931200000000004,175,75
2026-05-11 17:56:53.054,1,0.14,-1.16,0.66,26.7502,-22.746399999999998,-30.058799999999998,175,75
2026-05-11 17:56:53.069,1,0.33,-1.98,1.06,37.9102,15.6036,-39.3288,175,75
2026-05-11 17:56:53.080,1,0.32,-1.89,1.44,36.6302,71.39359999999999,-60.1188,175,75
2026-05-11 17:56:53.090,1,0.44,-2.44,1.52,11.630199999999999,32.2536,-34.1988,175,75
2026-05-11 17:56:53.104,1,0.32,-2.28,1.42,-20.7498,12.8036,-19.8088,175,75
2026-05-11 17:56:53.114,1,0.35,-2.17,1.66,-26.419800000000002,69.2036,-7.0688,175,75
2026-05-11 17:56:53.125,1,0.6,-2.56,2.22,-29.5298,117.86359999999999,-1.578800000000001,175,75
2026-05-11 17:56:53.137,1,0.92,-3.7,2.82,-55.1998,189.4436,23.721199999999996,175,75
2026-05-11 17:56:53.150,1,2.52,-3.99,2.87,-53.6098,315.36359999999996,52.02119999999999,175,75
2026-05-11 17:56:53.162,1,-1.05,-1.46,2.81,-34.5898,347.67359999999996,-19.2588,175,75
2026-05-11 17:56:53.174,1,-3.7,-0.29,1.51,-165.9298,58.953599999999994,87.2612,175,75
2026-05-11 17:56:53.186,1,-2.86,-2.13,-1.55,-374.8998,57.063599999999994,190.8612,175,75
2026-05-11 17:56:53.205,1,-0.96,-1.65,-1.19,-175.6898,411.6436,158.9112,175,75
2026-05-11 17:56:53.216,1,-0.54,-1.27,0.86,-183.4898,352.73359999999997,208.1112,175,75
2026-05-11 17:56:53.226,1,-0.23,-0.7,1.38,-286.8498,129.5036,159.3312,175,75
2026-05-11 17:56:53.240,1,-0.1,0.43,0.83,-315.6898,0.9736000000000002,157.6312,175,75
2026-05-11 17:56:53.262,1,0.22,1.28,0.58,-267.26980000000003,-14.2164,172.56119999999999,175,75
2026-05-11 17:56:53.272,1,0.35,1.35,0.9,-264.8298,-15.246400000000001,178.6612,175,75
2026-05-11 17:56:53.284,1,0.64,1.52,1.43,-282.6398,-43.906400000000005,185.4312,175,75
2026-05-11 17:56:53.296,1,0.78,1.84,1.74,-288.1898,-90.6164,174.3912,175,75
2026-05-11 17:56:53.307,1,0.83,2.22,1.85,-263.1898,-110.4364,159.8812,175,75
2026-05-11 17:56:53.320,1,1.15,1.71,2.12,-151.2998,-33.7264,150.5512,175,75
2026-05-11 17:56:53.331,1,1.65,1.65,2.67,-148.6798,42.4336,136.0412,175,75
2026-05-11 17:56:53.353,1,2.26,2.38,3.48,-136.1798,121.6436,113.85119999999999,175,75
2026-05-11 17:56:53.353,1,1.68,1.88,4.23,-45.5098,101.0936,24.7012,175,75
2026-05-11 17:56:53.374,1,1.98,1.42,3.06,-7.1498,192.3736,-42.7388,175,75
2026-05-11 17:56:53.393,1,1.85,1.99,3.0,19.2502,96.3336,-24.6888,175,75
2026-05-11 17:56:53.405,1,1.45,1.46,2.47,81.4502,6.5836,-27.6188,175,75
2026-05-11 17:56:53.427,1,1.02,1.69,2.34,85.2302,-76.52640000000001,-26.0888,175,75
2026-05-11 17:56:53.439,1,1.03,1.62,2.21,109.2502,-132.3264,-36.7588,175,75
2026-05-11 17:56:53.439,1,0.85,1.36,1.66,129.1302,-163.9664,-83.9588,175,75
2026-05-11 17:56:53.449,1,0.59,1.12,1.21,142.9102,-118.7264,-129.9988,175,75
2026-05-11 17:56:53.455,1,0.47,0.95,1.21,169.0102,-51.656400000000005,-144.8088,175,75
2026-05-11 17:56:53.508,1,0.18,0.28,1.73,233.4602,-32.5664,-175.4788,175,75
2026-05-11 17:56:53.520,1,-0.06,0.02,1.52,261.2002,-15.3064,-214.3888,175,75
2026-05-11 17:56:53.530,1,0.01,0.07,1.28,284.3702,19.753600000000002,-202.8588,175,75
2026-05-11 17:56:53.541,1,0.08,-0.09,1.19,298.7002,44.0136,-190.3588,175,75
2026-05-11 17:56:53.552,1,0.09,-0.34,1.15,295.4702,42.4936,-183.8988,175,75
2026-05-11 17:56:53.564,1,-0.13,-0.51,1.2,285.4702,38.2836,-174.3288,175,75
2026-05-11 17:56:53.568,1,-0.07,-0.88,1.2,284.3102,33.773599999999995,-183.4088,175,75
2026-05-11 17:56:53.590,1,-0.64,-1.5,1.49,262.7902,-156.7764,-137.2488,175,75
2026-05-11 17:56:53.612,1,-0.67,-1.39,1.74,213.2802,-363.4164,-148.4088,175,75
2026-05-11 17:56:53.624,1,-0.78,-0.98,1.68,192.1202,-393.2964,-147.4988,175,75
2026-05-11 17:56:53.624,1,-0.96,-0.63,1.75,174.9202,-388.2964,-125.7288,175,75
2026-05-11 17:56:53.639,1,-1.99,-0.36,1.58,135.6502,-463.6664,-89.0188,175,75
2026-05-11 17:56:53.664,1,-6.27,-4.5,-5.78,-119.5898,-1174.1563999999998,196.1612,175,75
2026-05-11 17:56:53.677,1,1.39,-5.64,0.86,319.6802,820.6036,167.8712,175,75
2026-05-11 17:56:53.688,1,5.14,0.26,5.72,38.1502,1199.7536,-164.2588,175,75
2026-05-11 17:56:53.720,1,0.38,-2.22,0.36,-171.1098,-227.6864,68.1712,175,75
2026-05-11 17:56:53.732,1,0.61,-1.27,-0.49,-147.2098,-102.5664,75.13119999999999,175,75
2026-05-11 17:56:53.743,1,-0.31,-1.8,0.29,-65.7498,-7.9364,75.4312,175,75
2026-05-11 17:56:53.753,1,-0.57,-0.65,1.97,-4.7097999999999995,112.0636,100.5512,175,75
2026-05-11 17:56:53.764,1,0.14,-0.14,1.52,-57.9398,0.11359999999999992,92.2612,175,75
2026-05-11 17:56:53.796,1,-0.66,-0.27,0.76,89.3702,35.233599999999996,-2.3688000000000002,175,75
2026-05-11 17:56:53.812,1,-0.62,-0.43,1.49,95.9002,26.393600000000003,-37.1288,175,75
2026-05-11 17:56:53.812,1,-0.67,-0.34,1.5,83.5802,19.6236,-59.2588,175,75
2026-05-11 17:56:53.848,1,-0.3,-0.38,1.04,102.3602,17.253600000000002,-94.1388,175,75
2026-05-11 17:56:53.848,1,-0.12,-0.62,1.09,113.2802,36.093599999999995,-95.6088,175,75
2026-05-11 17:56:53.857,1,0.04,-0.83,1.21,112.9702,38.4736,-96.4588,175,75
2026-05-11 17:56:53.871,1,-0.08,-1.27,1.51,124.5002,72.0636,-135.84879999999998,175,75
2026-05-11 17:56:53.893,1,-0.22,-1.47,2.2,94.0702,116.8236,-104.3888,175,75
2026-05-11 17:56:53.904,1,0.12,-0.29,2.49,9.860199999999999,86.2136,47.691199999999995,175,75
2026-05-11 17:56:53.916,1,-0.1,-0.01,2.18,42.3602,60.42359999999999,-63.8388,175,75
2026-05-11 17:56:53.939,1,-0.97,0.93,1.25,12.1202,-39.2764,-31.028800000000004,175,75
2026-05-11 17:56:53.939,1,-0.96,0.8,0.75,11.450199999999999,27.433600000000002,9.881199999999998,175,75
2026-05-11 17:56:54.018,1,-0.87,0.61,0.46,-37.2098,16.4536,42.0212,175,75
2026-05-11 17:56:54.093,1,-0.13,0.66,1.21,-53.2498,42.373599999999996,73.4212,175,75
2026-05-11 17:56:54.104,1,0.35,0.65,1.74,-47.3298,0.48360000000000003,66.5312,175,75
2026-05-11 17:56:54.124,1,0.68,0.57,1.85,-51.7898,-137.32639999999998,61.2812,175,75
2026-05-11 17:56:54.147,1,-1.51,0.09,0.27,-82.8198,-126.2864,67.6912,175,75
2026-05-11 17:56:54.157,1,-0.74,-1.34,0.69,-91.9098,22.6136,57.7512,175,75
2026-05-11 17:56:54.183,1,0.6,-0.17,1.9,-100.9298,-159.0264,83.9712,175,75
2026-05-11 17:56:54.197,1,-0.25,-0.35,0.65,-91.9698,-182.44639999999998,46.8912,175,75
2026-05-11 17:56:54.208,1,-0.35,-0.57,0.0,29.130200000000002,-15.496400000000001,-5.4188,175,75
2026-05-11 17:56:54.208,1,-0.12,-1.56,0.67,75.1002,72.4936,-33.1688,175,75
2026-05-11 17:56:54.218,1,0.39,-2.19,1.55,60.530199999999994,119.3236,-86.8288,175,75
2026-05-11 17:56:54.250,1,-0.16,-1.62,0.95,18.7002,-82.6864,-23.7188,175,75
2026-05-11 17:56:54.250,1,-0.49,-0.89,0.6,46.8102,-6.8364,-42.9188,175,75
2026-05-11 17:56:54.261,1,-0.04,-1.01,0.97,112.1202,64.0836,-72.0688,175,75
2026-05-11 17:56:54.274,1,-0.01,-1.55,1.49,122.7302,106.8236,-87.3088,175,75
2026-05-11 17:56:54.274,1,0.39,-1.85,1.91,89.0702,142.55360000000002,-70.3588,175,75
2026-05-11 17:56:54.287,1,0.64,-1.54,2.17,43.2802,105.11359999999999,-14.8088,175,75
2026-05-11 17:56:54.298,1,-0.8,0.13,1.2,-2.5198,288.04359999999997,-34.5688,175,75
2026-05-11 17:56:54.352,1,-0.93,-3.23,0.08,-372.8798,300.7836,239.7012,175,75
2026-05-11 17:56:54.364,1,-0.12,-2.19,1.14,-405.8698,193.2236,260.13120000000004,175,75
2026-05-11 17:56:54.364,1,-0.13,-1.29,1.37,-444.8298,56.6436,238.78119999999998,175,75
2026-05-11 17:56:54.376,1,-0.09,-1.0,1.25,-436.5998,25.1136,251.47119999999998,175,75
2026-05-11 17:56:54.386,1,-0.13,-0.88,1.21,-424.8298,40.233599999999996,260.19120000000004,175,75
2026-05-11 17:56:54.414,1,-0.13,-0.57,1.3,-414.7098,70.78359999999999,259.2712,175,75
2026-05-11 17:56:54.432,1,0.1,-0.21,1.65,-422.4598,93.3436,254.6412,175,75
2026-05-11 17:56:54.490,1,1.14,0.5,3.26,-262.08979999999997,22.6136,215.2512,175,75
2026-05-11 17:56:54.531,1,2.48,2.12,4.73,-210.7498,-21.5964,139.6412,175,75
2026-05-11 17:56:54.531,1,2.22,3.02,4.5,-113.2498,-19.2764,67.5612,175,75
2026-05-11 17:56:54.588,1,1.97,1.88,3.82,77.8502,12.003600000000002,-38.2888,175,75
2026-05-11 17:56:54.602,1,1.61,1.36,3.85,253.7002,91.9436,-108.1688,175,75
2026-05-11 17:56:54.613,1,1.4,0.87,4.11,271.6902,6.703600000000001,-127.7388,175,75
2026-05-11 17:56:54.613,1,1.16,0.38,3.71,261.7502,-68.1764,-161.0888,175,75
2026-05-11 17:56:54.624,1,1.13,0.39,2.61,273.4002,-146.6564,-208.2288,175,75
2026-05-11 17:56:54.624,1,0.61,0.39,1.81,318.1502,-136.5264,-219.9988,175,75
2026-05-11 17:56:54.645,1,0.42,0.15,1.6,350.7802,-43.6664,-221.3388,175,75
2026-05-11 17:56:54.658,1,0.38,0.21,1.9,346.7502,-70.9164,-224.5088,175,75
2026-05-11 17:56:54.658,1,0.34,0.23,1.86,341.0202,-99.0964,-228.5288,175,75
2026-05-11 17:56:54.669,1,0.25,0.04,1.63,331.1402,-97.6264,-249.4488,175,75
2026-05-11 17:56:54.692,1,0.1,0.03,1.26,326.6302,-55.9164,-260.9088,175,75
2026-05-11 17:56:54.704,1,-0.06,0.01,1.14,336.6302,-47.1364,-255.4788,175,75
2026-05-11 17:56:54.704,1,-0.09,0.04,1.1,338.7602,-77.2664,-226.5188,175,75
2026-05-11 17:56:54.715,1,-0.19,-0.43,1.07,317.6002,-153.35639999999998,-208.0488,175,75
2026-05-11 17:56:54.736,1,-0.5,-1.45,0.98,267.4802,-220.6764,-213.8388,175,75
2026-05-11 17:56:54.736,1,-0.58,-1.63,1.18,251.9302,-249.4564,-188.6488,175,75
2026-05-11 17:56:54.748,1,-0.74,-1.55,1.54,230.0402,-318.1764,-155.6688,175,75
2026-05-11 17:56:54.780,1,-12.69,-0.69,-5.48,13.8902,-926.2864000000001,-195.1788,175,75
2026-05-11 17:56:54.788,1,5.69,-3.06,-6.45,77.6002,-985.8564,841.7112000000001,175,75
2026-05-11 17:56:54.820,1,3.3,-0.42,3.64,-193.1298,522.8036,-8.5888,175,75
2026-05-11 17:56:54.831,1,-2.13,0.32,3.48,-296.8498,336.7636,-1.6988000000000003,175,75
2026-05-11 17:56:54.831,1,3.39,-2.88,3.83,-101.7898,126.51360000000001,112.6912,175,75
2026-05-11 17:56:54.855,1,2.57,-2.13,1.62,-164.3498,-358.7264,88.4212,175,75
2026-05-11 17:56:54.951,1,-1.06,-0.14,0.54,-5.869800000000001,106.7036,78.3612,175,75
2026-05-11 17:56:54.965,1,0.39,-0.09,1.46,-7.8198,61.9436,65.4312,175,75
2026-05-11 17:56:54.970,1,-0.38,-0.33,0.91,-15.5098,-61.5264,37.6312,175,75
2026-05-11 17:56:54.980,1,-0.71,-0.36,0.67,32.9702,-0.1264000000000003,-0.35880000000000045,175,75
2026-05-11 17:56:54.992,1,-0.69,-0.34,1.12,72.2402,8.343599999999999,-37.2488,175,75
2026-05-11 17:56:55.003,1,-0.47,-0.38,1.2,89.5002,0.17359999999999953,-108.1088,175,75
2026-05-11 17:56:55.026,1,-0.03,-0.76,1.24,118.28020000000001,36.883599999999994,-136.4588,175,75
2026-05-11 17:56:55.036,1,-0.25,-1.09,1.38,128.4002,116.4536,-125.6088,175,75
2026-05-11 17:56:55.059,1,-0.07,-1.46,1.82,111.5102,159.6236,-88.3488,175,75
2026-05-11 17:56:55.064,1,0.85,0.08,2.69,-33.0698,47.8636,0.8612000000000002,175,75
2026-05-11 17:56:55.074,1,-0.68,0.48,1.57,-29.1598,-154.51639999999998,-18.5288,175,75
2026-05-11 17:56:55.086,1,-1.61,0.73,0.18,-49.7098,-142.7464,58.60119999999999,175,75
2026-05-11 17:56:55.093,1,-1.21,0.58,-0.5,-97.3298,-45.796400000000006,72.5012,175,75
2026-05-11 17:56:55.104,1,-1.08,0.76,0.09,-108.6798,121.94359999999999,92.5612,175,75
2026-05-11 17:56:55.110,1,-0.04,0.51,1.41,-86.7898,186.1536,103.4812,175,75
2026-05-11 17:56:55.143,1,0.74,0.57,2.03,-104.7098,-69.4564,74.0312,175,75
2026-05-11 17:56:55.153,1,0.43,0.72,1.25,-125.1398,-105.0664,58.4812,175,75
2026-05-11 17:56:55.153,1,0.29,0.89,0.91,-106.7898,-33.7264,51.8912,175,75
2026-05-11 17:56:55.163,1,0.36,0.99,1.1,-87.0898,43.4036,48.4212,175,75
2026-05-11 17:56:55.175,1,0.75,1.0,1.45,-65.7498,74.14359999999999,24.581199999999995,175,75
2026-05-11 17:56:55.203,1,0.5,1.28,1.46,-41.299800000000005,57.4336,7.381199999999998,175,75
2026-05-11 17:56:55.237,1,0.68,1.23,1.49,-17.6398,20.7836,12.6912,175,75
2026-05-11 17:56:55.248,1,-1.51,0.3,1.19,-53.4898,-192.01639999999998,28.4812,175,75
2026-05-11 17:56:55.261,1,0.75,-2.16,1.26,-63.2498,-27.6264,78.85119999999999,175,75
2026-05-11 17:56:55.272,1,-0.14,-2.52,2.46,-25.1398,0.48360000000000003,34.0912,175,75
2026-05-11 17:56:55.272,1,-1.09,0.18,2.77,-53.1898,-44.8864,54.52119999999999,175,75
2026-05-11 17:56:55.283,1,0.28,0.47,2.6,-66.65979999999999,-119.3964,94.7612,175,75
2026-05-11 17:56:55.283,1,-0.74,-0.56,1.63,-11.8498,-159.3964,0.9211999999999989,175,75
2026-05-11 17:56:55.319,1,-0.38,-1.01,1.03,43.7602,-55.436400000000006,4.6411999999999995,175,75
2026-05-11 17:56:55.331,1,0.12,-1.91,0.87,46.8102,-11.4064,-16.5188,175,75
2026-05-11 17:56:55.423,1,-0.13,-1.3,1.11,18.0302,19.0136,-40.5488,175,75
2026-05-11 17:56:55.423,1,-0.14,-1.36,1.44,29.620199999999997,47.733599999999996,-48.2888,175,75
2026-05-11 17:56:55.423,1,-0.33,-1.62,1.9,22.060200000000002,83.1636,-52.918800000000005,175,75
2026-05-11 17:56:55.435,1,-0.36,-1.78,2.33,31.510199999999998,180.23360000000002,-32.3088,175,75
2026-05-11 17:56:55.435,1,0.88,-2.16,2.72,26.200200000000002,183.5936,-46.3988,175,75
2026-05-11 17:56:55.461,1,-0.62,-1.36,1.65,-100.2598,200.05360000000002,1.9512,175,75
2026-05-11 17:56:55.483,1,-3.45,-2.86,-2.51,-349.3498,253.95360000000002,206.3512,175,75
2026-05-11 17:56:55.493,1,-0.49,-1.78,0.92,-160.2598,253.83360000000002,273.11120000000005,175,75
2026-05-11 17:56:55.514,1,-0.33,-0.35,0.51,-397.6998,101.7036,253.30120000000002,175,75
2026-05-11 17:56:55.514,1,-0.24,0.02,0.44,-373.1298,137.0036,254.3312,175,75
2026-05-11 17:56:55.521,1,-0.02,0.18,0.68,-346.8498,172.4336,253.54119999999998,175,75
2026-05-11 17:56:55.532,1,0.21,0.09,1.12,-332.6998,183.1036,252.6912,175,75
2026-05-11 17:56:55.558,1,0.59,0.03,1.71,-344.3498,92.1936,247.2612,175,75
2026-05-11 17:56:55.571,1,0.7,0.19,1.77,-340.8698,29.563599999999997,253.05120000000002,175,75
2026-05-11 17:56:55.571,1,0.89,0.37,1.96,-318.1898,-40.7364,260.31120000000004,175,75
2026-05-11 17:56:55.582,1,1.06,0.47,2.21,-289.8998,-72.99640000000001,268.24120000000005,175,75
2026-05-11 17:56:55.592,1,1.36,0.14,2.57,-262.75980000000004,-74.3364,272.38120000000004,175,75
2026-05-11 17:56:55.604,1,2.64,1.26,3.67,-209.8298,-62.936400000000006,229.3912,175,75
2026-05-11 17:56:55.615,1,2.87,2.24,3.87,-133.1298,-54.2764,186.8912,175,75
2026-05-11 17:56:55.615,1,2.28,1.09,3.7,11.630199999999999,-3.0564,30.0612,175,75
2026-05-11 17:56:55.627,1,1.88,0.75,2.64,106.1402,96.7036,-3.8987999999999996,175,75
2026-05-11 17:56:55.642,1,1.46,0.89,2.96,210.2302,59.6936,-5.6688,175,75
2026-05-11 17:56:55.651,1,0.99,0.77,3.02,260.5302,42.6736,-24.2588,175,75
2026-05-11 17:56:55.658,1,0.88,0.47,3.04,287.4802,-1.2264,-49.628800000000005,175,75
2026-05-11 17:56:55.705,1,0.61,0.56,2.35,316.5102,-46.046400000000006,-71.2788,175,75
2026-05-11 17:56:55.716,1,0.06,0.26,1.57,394.8002,52.9236,-95.6088,175,75
2026-05-11 17:56:55.727,1,-0.14,0.19,1.57,405.2902,104.2636,-99.25880000000001,175,75
2026-05-11 17:56:55.739,1,-0.24,0.44,1.82,426.0202,137.0036,-69.8688,175,75
2026-05-11 17:56:55.749,1,-0.19,0.35,2.1,442.9102,101.3336,-46.3388,175,75
2026-05-11 17:56:55.761,1,-0.04,0.21,2.18,439.9202,62.373599999999996,-38.8988,175,75
2026-05-11 17:56:55.778,1,-0.07,0.09,2.02,421.3202,1.8836000000000004,-28.8988,175,75
2026-05-11 17:56:55.791,1,0.02,-0.22,1.64,416.5102,-22.0164,-39.3888,175,75
2026-05-11 17:56:55.791,1,-0.18,-0.46,1.31,406.6902,-24.5764,-71.33879999999999,175,75
2026-05-11 17:56:55.802,1,-0.2,-0.56,1.18,402.4802,-35.4364,-87.1288,175,75
2026-05-11 17:56:55.812,1,-0.53,-1.14,1.08,360.5902,-118.7264,-107.6788,175,75
2026-05-11 17:56:55.823,1,-0.7,-1.24,1.05,318.8902,-165.0664,-90.4788,175,75
2026-05-11 17:56:55.854,1,-1.5,-0.71,-0.09,255.84019999999998,-204.0964,-119.3888,175,75
2026-05-11 17:56:55.871,1,-1.72,-0.71,-0.19,241.0802,-106.6564,-99.7488,175,75
2026-05-11 17:56:55.881,1,-1.57,-0.62,0.11,182.6702,-37.5664,-52.128800000000005,175,75
2026-05-11 17:56:55.892,1,-2.13,-0.15,0.11,103.2802,-89.1564,-2.008800000000001,175,75
2026-05-11 17:56:55.902,1,-7.22,0.41,-0.33,73.8902,-83.7864,34.8812,175,75
2026-05-11 17:56:55.907,1,-2.43,-1.83,-2.5,6.5702,-115.85640000000001,210.31119999999999,175,75
2026-05-11 17:56:55.920,1,4.79,-2.71,0.34,179.0702,-4.5764,202.3212,175,75
2026-05-11 17:56:55.930,1,2.71,-0.33,6.59,31.7502,744.3836,-12.738800000000001,175,75
2026-05-11 17:56:55.971,1,-0.44,-6.07,2.68,-335.5098,-216.7164,23.7812,175,75
2026-05-11 17:56:56.002,1,1.49,-1.33,0.03,-370.3798,-197.8764,74.3312,175,75
2026-05-11 17:56:56.033,1,-0.61,-0.71,0.41,-194.0998,-126.8964,69.21119999999999,175,75
2026-05-11 17:56:56.033,1,0.11,-1.05,1.17,-138.7398,153.1036,135.2512,175,75
2026-05-11 17:56:56.045,1,0.65,-0.53,0.97,-152.4598,47.313599999999994,126.53119999999998,175,75
2026-05-11 17:56:56.071,1,-0.07,0.71,0.39,-113.4898,-89.5164,116.1012,175,75
2026-05-11 17:56:56.085,1,-0.91,0.03,0.06,-12.1498,42.6136,122.93119999999999,175,75
2026-05-11 17:56:56.140,1,-0.73,-0.47,1.24,66.2602,65.9036,-9.998800000000001,175,75
2026-05-11 17:56:56.140,1,-0.5,-0.71,1.1,72.9702,61.1536,-32.7988,175,75
2026-05-11 17:56:56.178,1,-0.61,-0.9,1.61,93.4002,115.2336,-51.6388,175,75
2026-05-11 17:56:56.178,1,-0.44,-1.17,1.89,84.1302,137.3736,-38.6488,175,75
2026-05-11 17:56:56.203,1,-0.2,-1.42,2.06,64.3102,174.9336,-11.148800000000001,175,75
2026-05-11 17:56:56.203,1,0.05,-1.6,2.1,65.4102,270.23359999999997,-24.3888,175,75
2026-05-11 17:56:56.229,1,-0.84,-0.06,2.76,-26.7898,554.3836,84.9412,175,75
2026-05-11 17:56:56.241,1,-0.84,-0.33,3.12,-6.0498,461.0336,91.1612,175,75
2026-05-11 17:56:56.241,1,-0.94,-0.22,3.54,-1.1098,392.3136,139.9412,175,75
2026-05-11 17:56:56.262,1,0.81,0.96,4.13,-0.01980000000000004,199.20360000000002,107.2612,175,75
2026-05-11 17:56:56.262,1,1.0,1.48,3.36,176.1402,60.11359999999999,52.7512,175,75
2026-05-11 17:56:56.294,1,1.63,0.29,2.75,255.29020000000003,-169.1564,-45.7288,175,75
2026-05-11 17:56:56.305,1,0.94,-0.11,1.77,239.8602,-273.1164,-88.28880000000001,175,75
2026-05-11 17:56:56.305,1,0.41,-0.31,0.89,197.9702,-320.1264,-115.9088,175,75
2026-05-11 17:56:56.316,1,-0.47,-0.09,0.57,199.1902,-365.1864,-90.0588,175,75
2026-05-11 17:56:56.324,1,-3.24,-0.17,0.35,170.7102,-433.9064,-4.8688,175,75
2026-05-11 17:56:58.645,1,-9.31,2.79,-8.29,121.58019999999999,-801.3464,-122.5288,175,75
2026-05-11 17:56:58.673,1,5.85,-4.82,-1.56,123.8902,411.4536,267.7212,175,75
2026-05-11 17:57:00.949,1,0.08,-1.04,1.78,-45.9898,41.233599999999996,-64.9888,175,75
2026-05-11 17:57:00.972,1,0.14,-1.16,2.18,-62.9398,95.0736,-53.6488,175,75
2026-05-11 17:57:00.984,1,0.23,-0.27,1.17,-88.4298,167.6936,-20.2288,175,75
2026-05-11 17:57:00.997,1,0.39,-0.45,1.34,-74.3498,210.5036,-18.8888,175,75
2026-05-11 17:57:00.997,1,-3.06,-0.82,0.62,-204.8998,186.9036,44.4612,175,75
2026-05-11 17:57:01.008,1,-3.07,-1.16,-0.4,-354.5298,153.24360000000001,162.2012,175,75
2026-05-11 17:57:01.021,1,-2.01,-2.11,-1.3,-483.0698,134.52360000000002,198.7912,175,75
2026-05-11 17:57:01.069,1,0.04,-0.6,1.0,-493.9798,-23.156399999999998,184.9512,175,75
2026-05-11 17:57:01.083,1,0.09,-0.15,0.6,-478.7398,-49.2564,192.4512,175,75
2026-05-11 17:57:01.094,1,0.09,0.09,0.53,-455.7498,-13.526399999999999,195.5012,175,75
2026-05-11 17:57:01.153,1,0.92,0.66,1.45,-388.4298,-101.7564,184.8312,175,75
2026-05-11 17:57:01.157,1,0.92,0.92,1.61,-360.4998,-114.3164,174.8312,175,75
2026-05-11 17:57:01.174,1,1.02,0.99,1.99,-325.6298,-88.9464,169.5812,175,75
2026-05-11 17:57:01.184,1,1.36,1.29,2.54,-306.5398,-67.6064,148.3012,175,75
2026-05-11 17:57:01.199,1,1.8,2.19,2.92,-265.4998,-58.766400000000004,97.3312,175,75
2026-05-11 17:57:01.210,1,1.91,2.83,2.97,-214.2198,-36.6364,49.7712,175,75
2026-05-11 17:57:01.220,1,1.54,2.61,2.38,-95.1998,31.8436,-17.2488,175,75
2026-05-11 17:57:01.226,1,1.27,2.02,2.38,-17.3298,102.6336,-39.4988,175,75
2026-05-11 17:57:01.239,1,1.09,1.73,2.54,33.2802,128.67360000000002,-59.0088,175,75
2026-05-11 17:57:01.247,1,1.23,1.73,2.9,76.3902,54.953599999999994,-67.0588,175,75
2026-05-11 17:57:01.261,1,1.17,1.44,2.87,83.7002,-33.0964,-82.3088,175,75
2026-05-11 17:57:01.279,1,1.0,1.2,2.43,89.5002,-117.9764,-116.2088,175,75
2026-05-11 17:57:01.299,1,0.55,0.92,1.24,180.1702,-135.5364,-179.8688,175,75
2026-05-11 17:57:01.330,1,0.37,0.46,1.36,198.0302,-126.7564,-221.93880000000001,175,75
2026-05-11 17:57:01.341,1,0.31,0.39,1.43,203.7602,-134.4964,-227.6688,175,75
2026-05-11 17:57:01.356,1,0.27,0.12,1.39,211.9302,-158.1564,-245.71880000000002,175,75
2026-05-11 17:57:01.371,1,0.12,0.09,1.33,207.3002,-159.5564,-250.3588,175,75
2026-05-11 17:57:01.401,1,0.2,0.0,1.14,209.3102,-159.3764,-240.8388,175,75
2026-05-11 17:57:01.441,1,0.3,-0.2,1.08,243.8202,-114.6164,-235.1688,175,75
2026-05-11 17:57:01.457,1,0.26,-0.38,1.19,257.9102,-104.8664,-237.8588,175,75
2026-05-11 17:57:01.480,1,-1.39,-1.12,0.86,250.41019999999997,-345.0464,-164.0088,175,75
2026-05-11 17:57:03.797,1,-1.05,0.53,3.9,-258.4798,593.9736,55.4212,175,75
2026-05-11 17:57:03.809,1,3.83,-3.58,3.63,-64.44980000000001,-117.4264,-5.3188,175,75
2026-05-11 17:57:03.831,1,-0.62,-0.36,-1.3,-232.4398,-245.04639999999998,3.7711999999999986,175,75
2026-05-11 17:57:03.854,1,-0.7,0.23,-0.74,-62.3198,4.8336,36.2712,175,75
2026-05-11 17:57:03.868,1,-0.55,0.02,1.13,45.5502,158.1836,58.8912,175,75
2026-05-11 17:57:03.910,1,-0.05,-0.04,0.29,-27.3198,-87.0564,-0.3788,175,75
2026-05-11 17:57:03.939,1,-0.43,0.07,-0.12,21.1002,-24.1364,-22.4488,175,75
2026-05-11 17:57:03.939,1,-0.51,0.06,0.26,70.7302,6.9636000000000005,-45.6788,175,75
2026-05-11 17:57:03.961,1,-0.44,-0.1,0.92,90.8502,12.5136,-90.9288,175,75
2026-05-11 17:57:03.973,1,-0.39,0.01,0.86,81.8302,-4.1364,-109.5788,175,75
2026-05-11 17:57:04.006,1,-0.31,0.04,0.76,85.3002,-5.9664,-127.3888,175,75
2026-05-11 17:57:04.006,1,-0.23,-0.11,0.68,94.5102,-3.6464,-141.3488,175,75
2026-05-11 17:57:04.019,1,-0.13,-0.24,0.69,98.6602,3.9736000000000002,-149.5188,175,75
2026-05-11 17:57:04.030,1,-0.01,-0.26,0.81,108.4102,23.5536,-163.1788,175,75
2026-05-11 17:57:04.041,1,0.05,-0.37,0.85,118.84020000000001,43.1836,-183.9088,175,75
2026-05-11 17:57:04.053,1,0.2,-0.21,0.77,111.1002,35.6836,-161.6588,175,75
2026-05-11 17:57:04.053,1,0.09,0.08,0.62,100.1802,-8.2164,-116.0488,175,75
2026-05-11 17:57:04.091,1,-0.17,-0.03,0.99,1.3401999999999994,10.503600000000002,-5.1288,175,75
2026-05-11 17:57:04.091,1,-0.67,0.05,0.56,-93.1098,-88.7664,10.7812,175,75
2026-05-11 17:57:04.104,1,-1.45,0.05,-0.34,-176.9498,-73.5864,29.011199999999995,175,75
2026-05-11 17:57:04.110,1,-1.62,0.41,-0.37,-184.8798,64.64359999999999,91.6412,175,75
2026-05-11 17:57:04.139,1,0.41,0.3,0.95,-129.6298,181.4136,121.4512,175,75
2026-05-11 17:57:04.150,1,0.45,0.5,1.07,-168.1098,165.1936,77.7912,175,75
2026-05-11 17:57:04.160,1,0.25,0.88,1.06,-132.4398,183.67360000000002,67.49119999999999,175,75
2026-05-11 17:57:04.184,1,0.6,0.98,1.93,-120.6698,76.0536,116.8812,175,75
2026-05-11 17:57:04.195,1,0.9,1.32,1.67,-129.69979999999998,-22.4264,100.0512,175,75
2026-05-11 17:57:04.206,1,2.22,0.5,2.44,-33.7198,125.6836,18.651200000000003,175,75
2026-05-11 17:57:04.226,1,-0.12,-0.73,1.37,-77.6198,-85.35640000000001,36.8212,175,75
2026-05-11 17:57:04.248,1,0.24,-0.37,0.57,-34.9998,-48.3964,-20.7988,175,75
2026-05-11 17:57:04.248,1,-0.12,-0.83,0.42,-4.2698,-14.746400000000001,-50.8588,175,75
2026-05-11 17:57:04.259,1,0.13,-0.63,0.49,6.520199999999999,14.523600000000002,-31.778800000000004,175,75
2026-05-11 17:57:04.269,1,0.3,-0.74,0.28,16.9502,-21.9964,-47.448800000000006,175,75
2026-05-11 17:57:04.282,1,0.18,-0.79,0.23,28.1102,-11.5764,-41.4688,175,75
2026-05-11 17:57:04.300,1,-0.1,-0.7,0.52,54.39019999999999,5.193599999999999,-55.988800000000005,175,75
2026-05-11 17:57:04.314,1,-0.1,-0.67,0.5,58.050200000000004,9.343599999999999,-69.2788,175,75
2026-05-11 17:57:04.324,1,-0.1,-0.63,0.48,60.4902,14.8336,-83.7288,175,75
2026-05-11 17:57:04.350,1,-0.16,-0.53,0.9,80.9802,58.2436,-102.3888,175,75
2026-05-11 17:57:04.365,1,0.82,-0.64,1.36,112.9902,52.943599999999996,-150.18880000000001,175,75
2026-05-11 17:57:04.401,1,0.07,0.71,0.6,21.340200000000003,101.6036,-17.9988,175,75
2026-05-11 17:57:04.412,1,-0.21,0.66,1.22,-7.9898,112.6336,-57.628800000000005,175,75
2026-05-11 17:57:04.423,1,-1.86,0.62,0.18,-88.2298,69.64359999999999,26.641199999999998,175,75
2026-05-11 17:57:04.438,1,-2.22,0.39,-1.33,-181.9498,93.61359999999999,88.8312,175,75
2026-05-11 17:57:04.448,1,-2.85,-0.05,-2.33,-266.7098,269.5836,144.5012,175,75
2026-05-11 17:57:04.448,1,-3.11,-1.89,-2.95,-384.6998,443.55359999999996,193.28119999999998,175,75
2026-05-11 17:57:04.471,1,-3.17,-4.01,-2.12,-427.0698,608.8536,298.8912,175,75
2026-05-11 17:57:04.483,1,-0.73,-4.69,0.47,-296.6498,508.2436,308.3412,175,75
2026-05-11 17:57:04.520,1,-0.58,-1.53,0.43,-580.3098,43.6736,289.01120000000003,175,75
2026-05-11 17:57:04.520,1,-0.64,-1.4,0.5,-548.9598,76.6036,305.5412,175,75
2026-05-11 17:57:04.543,1,-0.43,-1.23,0.74,-537.6198,113.00359999999999,315.5412,175,75
2026-05-11 17:57:04.564,1,-0.24,-1.05,1.01,-524.4498,124.16359999999999,312.6712,175,75
2026-05-11 17:57:04.564,1,-0.11,-0.98,1.36,-510.2398,105.6236,303.1612,175,75
2026-05-11 17:57:04.587,1,0.07,-0.39,1.83,-469.9398,-8.7664,313.2812,175,75
2026-05-11 17:57:04.587,1,0.13,-0.15,2.01,-435.4298,-48.766400000000004,322.9812,175,75
2026-05-11 17:57:04.608,1,0.17,0.22,2.26,-384.8198,-68.8864,328.6512,175,75
2026-05-11 17:57:04.619,1,0.46,0.94,2.7,-331.3398,-55.9664,318.8312,175,75
2026-05-11 17:57:04.640,1,0.74,1.37,3.3,-246.1598,-27.246399999999998,294.93120000000005,175,75
2026-05-11 17:57:04.655,1,1.79,2.08,4.02,-34.8198,10.7436,174.2612,175,75
2026-05-11 17:57:04.667,1,2.15,1.68,3.87,178.6602,-32.5464,50.9612,175,75
2026-05-11 17:57:04.678,1,1.92,0.98,3.8,246.28019999999998,-102.0564,2.5511999999999997,175,75
2026-05-11 17:57:04.693,1,1.78,0.7,3.26,277.0102,-183.94639999999998,-42.6888,175,75
2026-05-11 17:57:04.745,1,1.13,0.2,2.01,312.6802,-225.35639999999998,-126.5988,175,75
2026-05-11 17:57:04.778,1,0.38,0.17,1.37,378.9002,-108.6464,-195.3788,175,75
2026-05-11 17:57:04.788,1,0.13,0.25,1.64,390.5502,-88.6464,-186.0488,175,75
2026-05-11 17:57:04.798,1,0.13,0.1,1.78,384.5102,-123.5864,-172.8188,175,75
2026-05-11 17:57:04.807,1,0.05,-0.1,1.55,369.9402,-153.2764,-192.8788,175,75
2026-05-11 17:57:04.819,1,0.02,-0.07,1.22,357.9902,-147.85639999999998,-202.6288,175,75
2026-05-11 17:57:04.819,1,-0.08,0.08,0.85,357.5602,-108.3364,-209.8288,175,75
2026-05-11 17:57:04.832,1,-0.17,0.24,0.57,363.6602,-41.086400000000005,-202.3288,175,75
2026-05-11 17:57:04.843,1,-0.22,0.23,0.64,372.8702,23.5536,-187.8188,175,75
2026-05-11 17:57:04.853,1,-0.1,0.05,0.81,359.1502,22.3936,-174.5188,175,75
2026-05-11 17:57:04.864,1,-0.4,-0.16,0.89,329.9402,-28.2764,-167.1488,175,75
2026-05-11 17:57:04.878,1,-0.22,-0.43,0.83,311.1002,-73.46640000000001,-157.3288,175,75
2026-05-11 17:57:04.881,1,-0.31,-0.44,0.91,306.0402,-148.76639999999998,-143.4288,175,75
2026-05-11 17:57:04.892,1,-0.4,-0.21,1.08,310.3702,-255.2864,-125.1288,175,75
2026-05-11 17:57:04.903,1,-0.91,-0.11,1.03,308.1102,-378.2764,-127.4488,175,75
2026-05-11 17:57:04.920,1,-1.33,-0.49,0.53,286.5902,-443.4664,-153.1188,175,75
2026-05-11 17:57:04.920,1,-1.72,-0.87,-0.05,253.05020000000002,-427.9164,-161.9588,175,75
2026-05-11 17:57:04.937,1,-1.81,-0.86,-0.64,210.4302,-364.3764,-139.3388,175,75
2026-05-11 17:57:04.953,1,-4.02,-0.52,-1.04,144.2702,-333.2764,-69.7688,175,75
2026-05-11 17:57:04.956,1,-10.18,-3.02,-6.33,38.9002,-400.9664,-29.8288,175,75
2026-05-11 17:57:04.987,1,3.58,1.55,1.55,-132.19979999999998,380.3836,78.10119999999999,175,75
2026-05-11 17:57:04.999,1,-0.97,-0.05,4.55,-61.2198,99.4636,55.1112,175,75
2026-05-11 17:57:04.999,1,0.59,-1.25,3.06,-205.4898,-143.3964,-25.248800000000003,175,75
2026-05-11 17:57:05.031,1,0.53,-2.12,-0.33,-105.4298,-2.9764,-33.9688,175,75
2026-05-11 17:57:05.045,1,0.02,-1.91,-0.41,-93.5398,23.4236,-37.208800000000004,175,75
2026-05-11 17:57:05.056,1,-0.5,-0.48,0.18,-26.7098,34.4036,-47.208800000000004,175,75
2026-05-11 17:57:05.091,1,-0.88,-1.0,1.1,26.4602,123.42360000000001,-143.4888,175,75
2026-05-11 17:57:05.099,1,-0.99,-0.88,1.4,5.4902000000000015,163.0036,-139.5188,175,75
2026-05-11 17:57:05.110,1,-0.76,-0.93,1.96,21.650199999999998,212.45360000000002,-151.1088,175,75
2026-05-11 17:57:05.140,1,-0.65,-1.05,2.55,56.7702,310.3236,-182.2088,175,75
2026-05-11 17:57:05.140,1,-0.68,-2.09,2.98,-86.2798,218.0036,-161.8988,175,75
2026-05-11 17:57:05.152,1,-1.78,-1.66,2.3,-173.4798,334.0336,-92.9988,175,75
2026-05-11 17:57:05.158,1,-2.99,-1.13,2.22,-214.8198,481.4736,44.9312,175,75
2026-05-11 17:57:05.181,1,-1.36,0.46,2.26,-93.2898,890.1936,155.9012,175,75
2026-05-11 17:57:05.217,1,-1.89,-0.28,3.29,44.5102,479.2836,139.9312,175,75
2026-05-11 17:57:05.217,1,-1.02,0.56,3.56,-30.1198,297.5136,204.7512,175,75
2026-05-11 17:57:05.228,1,-1.38,1.38,3.25,-25.6098,-11.1464,304.01120000000003,175,75
2026-05-11 17:57:05.240,1,-1.12,0.76,3.0,84.0202,-68.3364,325.05120000000005,175,75
2026-05-11 17:57:05.250,1,-0.62,0.8,2.75,138.6002,-105.4164,311.1512,175,75
2026-05-11 17:57:05.272,1,0.24,0.68,2.13,196.6502,-132.3664,276.70120000000003,175,75
2026-05-11 17:57:05.272,1,-1.69,1.19,1.75,233.4802,-59.9864,239.81119999999999,175,75
2026-05-11 17:57:05.284,1,0.9,-0.02,0.7,227.2602,-129.8064,196.0912,175,75
2026-05-11 17:57:05.304,1,0.4,0.42,-1.1,254.5702,103.9136,161.1512,175,75
2026-05-11 17:57:05.316,1,-0.45,0.23,-1.11,270.7902,294.4036,173.8912,175,75
2026-05-11 17:57:05.328,1,1.38,-0.52,-0.82,276.6502,465.99359999999996,157.6712,175,75
2026-05-11 17:57:05.338,1,2.33,-0.86,-0.45,235.2402,492.7536,126.09119999999999,175,75
2026-05-11 17:57:05.350,1,2.93,-0.99,-0.37,212.4402,533.4236,95.35119999999999,175,75
2026-05-11 17:57:05.363,1,6.41,-2.48,0.29,127.3802,711.7236,-79.9488,175,75
2026-05-11 17:57:05.377,1,4.44,-0.16,3.57,209.6902,521.7236,-22.568800000000003,175,75
2026-05-11 17:57:05.377,1,6.19,-3.15,3.43,161.8902,73.2436,-155.18880000000001,175,75
2026-05-11 17:57:05.388,1,3.09,-3.94,-0.36,-185.8498,-278.6464,-180.9888,175,75
2026-05-11 17:57:05.400,1,1.78,-1.18,-0.93,-189.1498,-226.9964,-130.4388,175,75
2026-05-11 17:57:05.417,1,-0.62,-1.81,0.6,-10.1198,-149.7464,-106.28880000000001,175,75
2026-05-11 17:57:05.426,1,-1.02,-1.96,2.3,31.400199999999998,49.4636,-48.668800000000005,175,75
2026-05-11 17:57:05.439,1,0.74,-1.6,0.4,-45.1798,39.1036,-29.458800000000004,175,75
2026-05-11 17:57:05.466,1,-0.3,0.07,-0.13,22.380200000000002,111.0536,-116.1688,175,75
2026-05-11 17:57:05.466,1,-0.67,-0.2,0.45,59.2102,147.02360000000002,-108.5488,175,75
2026-05-11 17:57:05.488,1,-0.49,-0.58,2.53,60.610200000000006,168.7936,-111.9588,175,75
2026-05-11 17:57:05.517,1,-0.51,-0.25,1.49,-18.599800000000002,85.6236,-112.9988,175,75
2026-05-11 17:57:05.529,1,-0.9,0.79,0.36,-37.1298,65.9236,-103.6688,175,75
2026-05-11 17:57:05.540,1,-0.85,1.93,-0.56,-1.9497999999999998,128.24360000000001,-146.6588,175,75
2026-05-11 17:57:05.573,1,-0.07,1.06,1.55,294.4502,733.1836,-209.7088,175,75
2026-05-11 17:57:05.587,1,0.51,0.0,1.56,397.7402,580.2536,-195.8588,175,75
2026-05-11 17:57:05.599,1,2.92,-1.34,0.69,320.8502,-9.3764,-168.9088,175,75
2026-05-11 17:57:05.631,1,-1.45,-1.7,-1.54,-28.2898,-312.1764,-256.5988,175,75
2026-05-11 17:57:05.648,1,0.05,0.14,0.03,42.9902,0.1936,-121.9588,175,75
2026-05-11 17:57:05.688,1,-0.55,-1.0,0.93,-130.1198,-315.8364,-235.9288,175,75
2026-05-11 17:57:05.718,1,-2.82,-0.2,-1.54,-33.3498,191.3536,66.6412,175,75
2026-05-11 17:57:05.748,1,-0.24,-1.08,2.13,39.2102,374.2236,176.5112,175,75
2026-05-11 17:57:05.782,1,-0.18,-1.17,1.11,-225.9798,74.8336,104.38119999999999,175,75
2026-05-11 17:57:05.782,1,-0.76,-0.19,0.29,-256.3998,167.39360000000002,107.0012,175,75
2026-05-11 17:57:05.800,1,-1.32,-0.45,0.99,-145.5498,409.4636,201.8212,175,75
2026-05-11 17:57:05.800,1,-0.92,-1.13,1.94,-104.5098,365.80359999999996,221.3912,175,75
2026-05-11 17:57:05.823,1,-0.49,-1.27,2.11,-175.1198,217.33360000000002,218.8312,175,75
2026-05-11 17:57:05.823,1,-0.43,-0.86,1.71,-218.3498,162.14360000000002,232.7912,175,75
2026-05-11 17:57:05.841,1,-0.33,-0.49,1.45,-228.0498,135.3236,246.5112,175,75
2026-05-11 17:57:05.841,1,-0.15,-0.19,1.3,-215.9798,116.78359999999999,264.38120000000004,175,75
2026-05-11 17:57:05.852,1,-0.05,-0.19,1.3,-212.2598,104.8336,262.43120000000005,175,75
2026-05-11 17:57:05.875,1,0.73,0.33,1.77,-179.3298,23.6736,258.1012,175,75
2026-05-11 17:57:05.875,1,0.85,0.59,1.85,-153.2898,-7.6664,238.53119999999998,175,75
2026-05-11 17:57:05.889,1,0.84,0.66,1.62,-139.0198,-38.5864,222.3712,175,75
2026-05-11 17:57:05.902,1,0.84,0.76,1.45,-108.6598,-53.2164,193.1612,175,75
2026-05-11 17:57:05.914,1,0.78,0.87,1.26,-94.7598,-52.7864,177.9212,175,75
2026-05-11 17:57:05.916,1,0.74,1.03,1.07,-73.4798,-30.1064,158.7712,175,75
2026-05-11 17:57:05.932,1,0.58,1.12,1.11,-52.7398,-5.5964,144.9912,175,75
2026-05-11 17:57:05.973,1,0.13,0.68,0.78,0.00019999999999953388,68.0636,147.1812,175,75
2026-05-11 17:57:05.995,1,0.39,-0.65,-0.92,-55.7298,236.3536,3.8911999999999995,175,75
2026-05-11 17:57:06.007,1,3.59,-2.78,6.37,192.5002,543.9136,55.96119999999999,175,75
2026-05-11 17:57:06.054,1,-0.04,-2.89,-0.11,-159.5698,-147.0564,-0.8588000000000005,175,75
2026-05-11 17:57:06.054,1,-0.18,-1.32,-0.25,-97.5598,-4.3764,6.451199999999998,175,75
2026-05-11 17:57:06.077,1,1.27,-1.95,-0.01,-34.5098,32.5136,15.6012,175,75
2026-05-11 17:57:06.088,1,0.78,-1.33,-0.13,-71.21979999999999,-32.1764,4.071199999999999,175,75
2026-05-11 17:57:06.088,1,-0.5,-0.05,-0.13,-26.2798,-17.9764,-10.248800000000001,175,75
2026-05-11 17:57:06.111,1,-0.8,-0.03,-0.08,5.4902000000000015,64.5836,-54.278800000000004,175,75
2026-05-11 17:57:06.135,1,-0.75,-0.15,0.12,16.0402,57.0836,-113.11880000000001,175,75
2026-05-11 17:57:06.201,1,-0.88,-0.64,1.04,37.2602,102.8236,-185.18880000000001,175,75
2026-05-11 17:57:06.224,1,-1.2,0.06,1.22,68.9002,91.0536,-258.7888,175,75
2026-05-11 17:57:06.224,1,-0.97,0.01,1.4,136.5802,176.9636,-275.67879999999997,175,75
2026-05-11 17:57:06.247,1,-0.11,-0.84,1.45,180.5502,120.1336,-254.0388,175,75
2026-05-11 17:57:06.261,1,-1.7,-1.48,1.16,82.9302,103.3036,-227.7488,175,75
2026-05-11 17:57:06.285,1,-3.51,-0.42,1.21,24.2102,293.73359999999997,-100.7988,175,75
2026-05-11 17:57:06.307,1,-3.18,1.04,0.38,-1.1598000000000006,319.6436,-31.108800000000002,175,75
2026-05-11 17:57:06.318,1,-3.58,0.69,0.0,-29.5698,418.36359999999996,66.7012,175,75
2026-05-11 17:57:06.330,1,-3.22,-0.09,0.8,-63.7798,497.3936,150.0512,175,75
2026-05-11 17:57:06.341,1,-3.45,-0.34,1.55,-50.3098,499.1036,179.9312,175,75
2026-05-11 17:57:06.351,1,-1.73,-0.77,1.55,-161.7098,316.4736,283.7112,175,75
2026-05-11 17:57:06.366,1,-1.03,-0.24,1.87,-166.3398,233.42360000000002,322.6712,175,75
2026-05-11 17:57:06.366,1,-0.5,-0.17,2.09,-168.2298,114.03359999999999,340.7812,175,75
2026-05-11 17:57:06.379,1,-0.26,-0.28,2.05,-165.9198,22.9436,355.11120000000005,175,75
2026-05-11 17:57:06.390,1,0.22,0.11,1.71,-111.3398,-68.3364,380.1712,175,75
2026-05-11 17:57:06.407,1,0.57,0.33,1.67,-69.38980000000001,-89.4364,375.4812,175,75
2026-05-11 17:57:06.442,1,0.92,0.78,0.91,76.7102,-52.366400000000006,229.56119999999999,175,75
2026-05-11 17:57:06.453,1,1.75,-0.15,0.26,81.6502,65.50359999999999,157.3712,175,75
2026-05-11 17:57:06.475,1,2.85,-1.88,0.43,88.7202,432.6336,-36.1688,175,75
2026-05-11 17:57:06.488,1,4.2,-4.75,6.42,307.8702,645.0136,-7.2088,175,75
2026-05-11 17:57:06.500,1,3.9,-3.58,6.71,77.5602,-99.6764,-65.9288,175,75
2026-05-11 17:57:06.511,1,2.05,-3.23,1.52,-220.3098,-404.07640000000004,-161.7788,175,75
2026-05-11 17:57:06.524,1,1.59,-1.91,-0.49,-231.8898,-314.19640000000004,-126.0488,175,75
2026-05-11 17:57:06.534,1,0.03,-1.5,-1.28,-112.4998,-114.1964,-106.28880000000001,175,75
2026-05-11 17:57:06.534,1,0.76,-1.51,-1.13,-4.6998,-12.8564,-66.4088,175,75
2026-05-11 17:57:06.557,1,-0.12,-1.01,0.29,-7.7398,-13.276399999999999,-64.0988,175,75
2026-05-11 17:57:06.581,1,-0.08,-0.91,0.26,33.7202,83.97359999999999,-91.0488,175,75
2026-05-11 17:57:06.619,1,-0.96,-0.76,1.3,80.6102,162.7536,-147.68880000000001,175,75
2026-05-11 17:57:06.635,1,0.37,-0.75,1.78,124.7602,233.73360000000002,-107.6288,175,75
2026-05-11 17:57:06.659,1,-0.41,0.28,0.7,1.8301999999999996,106.47359999999999,-47.9988,175,75
2026-05-11 17:57:06.682,1,-0.63,2.6,-0.3,128.6602,371.29359999999997,-129.9488,175,75
2026-05-11 17:57:06.682,1,-0.18,2.21,0.29,210.0002,564.9535999999999,-128.9688,175,75
2026-05-11 17:57:06.732,1,0.59,0.26,0.74,352.5602,349.4036,-148.8488,175,75
2026-05-11 17:57:06.775,1,0.34,0.2,0.45,332.2602,201.6036,-149.4588,175,75
2026-05-11 17:57:06.809,1,-0.29,-1.08,0.44,134.2102,-205.04639999999998,-80.7988,175,75
2026-05-11 17:57:06.820,1,0.57,-1.53,0.97,140.3002,-250.35639999999998,-61.8388,175,75
2026-05-11 17:57:06.854,1,1.1,-0.29,-0.38,2.1302000000000003,129.1636,18.891199999999998,175,75
2026-05-11 17:57:06.866,1,1.13,-0.81,0.18,-65.66980000000001,248.8536,25.291199999999996,175,75
2026-05-11 17:57:06.877,1,0.83,-0.67,0.84,-127.8098,260.1936,32.2512,175,75
2026-05-11 17:57:06.898,1,0.04,-0.67,1.11,-214.9398,198.0636,32.8512,175,75
2026-05-11 17:57:06.898,1,-0.43,-1.03,1.0,-284.8198,138.1236,29.871199999999995,175,75
2026-05-11 17:57:06.936,1,-0.6,-0.79,1.28,-246.8298,-12.0564,128.7712,175,75
2026-05-11 17:57:06.948,1,-0.67,-0.29,0.6,-283.7198,2.273599999999999,136.3912,175,75
2026-05-11 17:57:06.957,1,-0.86,-0.02,0.31,-294.7598,79.9536,138.28119999999998,175,75
2026-05-11 17:57:06.969,1,-0.97,0.03,0.49,-260.1198,161.9636,159.4412,175,75
2026-05-11 17:57:06.986,1,-0.86,-0.07,0.88,-230.8498,188.9136,173.28119999999998,175,75
2026-05-11 17:57:06.998,1,-0.58,-0.05,1.26,-227.1998,178.1236,189.2612,175,75
2026-05-11 17:57:07.010,1,-0.29,0.05,1.39,-243.1698,140.0736,193.4612,175,75
2026-05-11 17:57:07.015,1,-0.02,0.3,1.31,-243.7798,71.3536,198.4012,175,75
2026-05-11 17:57:07.030,1,0.01,0.44,1.21,-233.0498,17.8836,196.3312,175,75
2026-05-11 17:57:07.050,1,0.1,0.5,1.41,-218.1098,-10.4164,206.3912,175,75
2026-05-11 17:57:07.063,1,0.18,0.55,1.49,-202.5598,-22.5464,204.5012,175,75
2026-05-11 17:57:07.076,1,0.34,0.6,1.38,-177.6798,-49.866400000000006,197.1812,175,75
2026-05-11 17:57:07.084,1,0.27,0.67,1.25,-151.3398,-47.8564,187.7312,175,75
2026-05-11 17:57:07.096,1,0.32,0.73,1.18,-126.4598,-24.6164,181.8812,175,75
2026-05-11 17:57:07.131,1,-0.7,0.54,0.64,-71.5898,-1.1463999999999999,157.1212,175,75
2026-05-11 17:57:07.152,1,1.33,-0.16,1.92,35.7902,360.4436,147.9812,175,75
2026-05-11 17:57:07.163,1,1.29,-0.25,1.16,-31.8898,260.1336,114.8112,175,75
2026-05-11 17:57:07.177,1,1.79,-1.35,1.98,-25.6098,328.55359999999996,68.7712,175,75
2026-05-11 17:57:07.203,1,5.16,-2.38,7.46,140.9802,519.3436,101.0312,175,75
2026-05-11 17:57:07.203,1,0.9,-2.93,6.04,88.5402,-110.4164,-2.328800000000001,175,75
2026-05-11 17:57:07.215,1,1.61,-4.33,0.5,-174.7598,-365.0464,-47.0788,175,75
2026-05-11 17:57:07.226,1,-0.2,-2.32,-0.81,-203.1698,-201.50639999999999,45.1712,175,75
2026-05-11 17:57:07.236,1,0.81,-1.22,-1.31,-82.8098,71.6636,40.1112,175,75
2026-05-11 17:57:07.246,1,0.49,-1.73,0.04,-43.049800000000005,-51.1464,42.6112,175,75
2026-05-11 17:57:07.257,1,-1.29,-0.81,0.85,-13.6598,16.413600000000002,37.9812,175,75
2026-05-11 17:57:07.269,1,-0.11,-0.59,0.57,-34.5098,79.8336,13.8312,175,75
2026-05-11 17:57:07.281,1,-0.24,-0.03,-0.25,-59.019800000000004,12.0836,-43.6688,175,75
2026-05-11 17:57:07.306,1,-1.04,0.38,-0.25,21.830199999999998,74.7736,-135.2488,175,75
2026-05-11 17:57:07.306,1,-1.14,0.06,0.3,52.190200000000004,119.22359999999999,-175.9288,175,75
2026-05-11 17:57:07.319,1,-1.28,-0.0,0.9,62.1302,122.1436,-216.3488,175,75
2026-05-11 17:57:07.332,1,-1.41,0.18,1.37,75.3002,140.5036,-238.1188,175,75
2026-05-11 17:57:07.345,1,-0.93,0.25,1.44,86.5202,133.9136,-263.29879999999997,175,75
2026-05-11 17:57:07.359,1,-0.51,-0.78,1.23,141.4002,100.25359999999999,-282.74879999999996,175,75
2026-05-11 17:57:07.367,1,-0.78,-1.39,0.89,142.1902,178.9136,-315.92879999999997,175,75
2026-05-11 17:57:07.390,1,-2.2,0.14,0.89,130.6102,358.9736,-102.0788,175,75
2026-05-11 17:57:07.419,1,-2.7,0.29,0.24,82.1302,243.30360000000002,-49.8888,175,75
2026-05-11 17:57:07.429,1,-3.39,-0.32,-0.28,18.7202,293.79359999999997,66.7012,175,75
2026-05-11 17:57:07.441,1,-3.06,-0.26,0.13,-30.6698,265.4436,131.2712,175,75
2026-05-11 17:57:07.461,1,-3.07,-0.43,1.13,-77.6798,195.92360000000002,247.49120000000002,175,75
2026-05-11 17:57:07.476,1,-2.67,-0.8,0.74,-118.4198,263.42359999999996,279.75120000000004,175,75
2026-05-11 17:57:07.483,1,-1.97,-0.8,0.94,-120.9798,313.0636,310.9612,175,75
2026-05-11 17:57:07.513,1,-0.81,-0.57,1.64,-132.0698,299.8336,352.12120000000004,175,75
2026-05-11 17:57:07.530,1,0.31,-0.03,2.12,-136.2798,170.86360000000002,384.56120000000004,175,75
2026-05-11 17:57:07.544,1,1.18,-0.08,2.11,-96.3398,76.4136,367.7912,175,75
2026-05-11 17:57:07.570,1,1.5,-0.4,0.98,-25.669800000000002,71.2336,257.61120000000005,175,75
2026-05-11 17:57:07.587,1,1.4,0.08,1.38,-7.1298,118.2436,253.28119999999998,175,75
2026-05-11 17:57:07.587,1,1.85,-0.32,1.81,18.2302,202.9436,227.5512,175,75
2026-05-11 17:57:07.600,1,3.77,-1.21,2.03,0.18019999999999925,144.89360000000002,169.0112,175,75
2026-05-11 17:57:07.614,1,2.48,-0.87,0.61,-31.7698,176.7236,98.4012,175,75
2026-05-11 17:57:07.625,1,2.92,-0.46,1.81,43.9002,476.9036,51.7012,175,75
2026-05-11 17:57:07.636,1,3.57,-0.29,4.22,144.5702,508.0036,27.7312,175,75
2026-05-11 17:57:07.666,1,2.94,-1.23,7.58,299.8202,138.67360000000002,-55.7988,175,75
2026-05-11 17:57:07.666,1,-0.05,-4.41,1.57,149.3302,-306.1464,-131.8388,175,75
2026-05-11 17:57:07.691,1,2.41,-6.06,0.84,19.450200000000002,-179.07639999999998,-62.0788,175,75
2026-05-11 17:57:07.701,1,-0.2,-3.24,1.28,-10.7898,-65.3564,-37.1488,175,75
2026-05-11 17:57:07.712,1,0.89,-1.2,0.73,-15.2398,-66.2064,2.6112,175,75
2026-05-11 17:57:07.712,1,0.69,0.07,-0.08,7.0702,-107.4264,-3.7888,175,75
2026-05-11 17:57:07.724,1,0.31,0.8,-0.45,62.50020000000001,-123.88640000000001,-55.9288,175,75
2026-05-11 17:57:07.746,1,-0.74,0.3,-0.64,91.4002,15.133600000000001,-120.4388,175,75
2026-05-11 17:57:07.761,1,-0.7,-0.05,0.13,111.2202,128.1236,-130.9288,175,75
2026-05-11 17:57:07.761,1,-0.52,-0.27,1.37,139.6302,154.0336,-149.8288,175,75
2026-05-11 17:57:07.771,1,-0.47,-0.53,2.06,152.5602,247.2136,-156.2888,175,75
2026-05-11 17:57:07.783,1,0.48,-0.72,2.08,83.7202,47.633599999999994,-141.46880000000002,175,75
2026-05-11 17:57:07.795,1,-0.74,0.44,0.74,33.480199999999996,-1.7564000000000002,-141.1688,175,75
2026-05-11 17:57:07.817,1,-0.64,1.36,0.04,52.0702,-36.3864,-141.5388,175,75
2026-05-11 17:57:07.830,1,-0.47,2.04,-0.4,91.5202,16.5336,-176.5388,175,75
2026-05-11 17:57:07.831,1,-0.27,1.8,0.02,181.5802,217.5736,-186.0488,175,75
2026-05-11 17:57:07.851,1,-0.86,1.01,1.02,231.5202,313.9736,-184.8888,175,75
2026-05-11 17:57:07.857,1,-0.37,0.36,0.83,210.9102,306.9636,-184.5788,175,75
2026-05-11 17:57:07.869,1,1.5,-0.55,0.63,182.1902,143.55360000000002,-203.96880000000002,175,75
2026-05-11 17:57:07.878,1,1.12,-0.79,-0.14,101.7702,-49.7464,-208.6688,175,75
2026-05-11 17:57:07.889,1,0.3,-1.12,-0.59,54.450199999999995,46.1736,-212.93880000000001,175,75
2026-05-11 17:57:07.901,1,1.03,-0.87,0.72,169.7602,211.5336,-187.8788,175,75
2026-05-11 17:57:07.916,1,0.64,-0.85,2.28,188.1102,152.7536,-158.8488,175,75
2026-05-11 17:57:07.937,1,-0.02,-0.7,0.83,42.1902,-9.1964,-180.7388,175,75
2026-05-11 17:57:07.945,1,-0.83,-0.77,-0.1,49.2102,31.8436,-186.71880000000002,175,75
2026-05-11 17:57:07.967,1,-1.95,-0.78,-0.53,-9.2698,124.95360000000001,-27.3888,175,75
2026-05-11 17:57:07.980,1,-1.92,0.06,-0.86,-98.0498,135.1936,13.8912,175,75
2026-05-11 17:57:07.990,1,-1.89,0.22,-0.36,-148.0498,185.86360000000002,74.1412,175,75
2026-05-11 17:57:08.001,1,-1.39,-0.41,0.37,-189.0198,174.77360000000002,123.8912,175,75
2026-05-11 17:57:08.041,1,-0.64,-0.45,1.03,-313.9598,-45.9664,177.1812,175,75
2026-05-11 17:57:08.052,1,-0.74,-0.52,0.83,-301.3998,-42.1764,187.4312,175,75
2026-05-11 17:57:08.062,1,-0.71,-0.86,0.88,-280.3098,-38.8264,213.9512,175,75
2026-05-11 17:57:08.102,1,-0.19,-0.47,1.26,-256.09979999999996,-19.6164,249.2012,175,75
2026-05-11 17:57:08.102,1,-0.08,-0.34,1.26,-252.8098,-29.8064,255.42119999999997,175,75
2026-05-11 17:57:08.120,1,0.07,-0.15,1.22,-234.6298,-29.316399999999998,267.31120000000004,175,75
2026-05-11 17:57:08.132,1,0.25,0.1,1.19,-218.5998,-20.3564,279.50120000000004,175,75
2026-05-11 17:57:08.146,1,0.53,0.24,1.22,-194.5098,7.8836,284.87120000000004,175,75
2026-05-11 17:57:08.153,1,0.97,0.31,1.28,-167.5598,40.5036,276.51120000000003,175,75
2026-05-11 17:57:08.153,1,1.3,0.43,1.49,-135.1198,57.9436,243.16119999999998,175,75
2026-05-11 17:57:08.175,1,1.3,0.76,1.78,-119.2698,68.3036,219.56119999999999,175,75
2026-05-11 17:57:08.182,1,1.41,1.09,2.08,-100.7898,75.4436,189.8712,175,75
2026-05-11 17:57:08.193,1,1.26,1.54,2.43,-65.1198,31.7236,158.3412,175,75
2026-05-11 17:57:08.195,1,1.06,1.62,2.43,-38.7198,-10.836400000000001,138.8912,175,75
2026-05-11 17:57:08.218,1,0.02,1.22,1.57,-19.6298,-126.2664,137.8512,175,75
2026-05-11 17:57:08.229,1,0.15,0.97,0.87,24.880200000000002,35.5036,120.78119999999998,175,75
2026-05-11 17:57:08.241,1,1.48,0.68,0.61,91.8302,237.6936,99.6812,175,75
2026-05-11 17:57:08.263,1,0.71,-3.19,1.98,178.1702,580.2536,26.0912,175,75
2026-05-11 17:57:08.268,1,2.6,-3.91,4.47,221.2802,542.1436,63.77119999999999,175,75
2026-05-11 17:57:08.280,1,4.03,-2.64,5.02,108.2302,138.0636,19.501199999999997,175,75
2026-05-11 17:57:08.296,1,1.19,-2.65,2.54,-1.8298000000000005,-139.19639999999998,-61.348800000000004,175,75
2026-05-11 17:57:08.310,1,0.79,-3.39,0.37,-98.1098,-163.3364,-0.9288000000000007,175,75
2026-05-11 17:57:08.321,1,-0.28,-1.89,0.77,-79.0898,36.663599999999995,39.6812,175,75
2026-05-11 17:57:08.336,1,0.89,-1.8,1.13,-123.2298,-43.946400000000004,47.2512,175,75
2026-05-11 17:57:08.361,1,0.09,0.45,-0.41,-116.3998,-34.806400000000004,-1.168800000000001,175,75
2026-05-11 17:57:08.368,1,-0.42,0.43,-0.33,-62.5598,8.4936,-40.3188,175,75
2026-05-11 17:57:08.379,1,-0.54,0.65,-0.08,-30.9198,7.3936,-93.7288,175,75
2026-05-11 17:57:08.403,1,-1.1,0.51,0.45,14.450199999999999,37.3336,-151.46880000000002,175,75
2026-05-11 17:57:08.414,1,-0.87,0.55,0.54,44.4502,46.663599999999995,-179.7688,175,75
2026-05-11 17:57:08.440,1,-0.71,-0.21,0.85,97.8702,114.22359999999999,-222.68880000000001,175,75
2026-05-11 17:57:08.453,1,-0.22,-0.63,0.9,113.1702,113.2436,-231.5988,175,75
2026-05-11 17:57:08.463,1,0.06,-0.94,0.84,128.9602,85.0736,-241.3488,175,75
2026-05-11 17:57:08.473,1,-0.01,-1.44,0.67,161.4002,124.6436,-260.0688,175,75
2026-05-11 17:57:08.485,1,-1.07,-1.84,0.73,179.5702,197.02360000000002,-275.31879999999995,175,75
2026-05-11 17:57:08.494,1,-1.83,-1.25,1.04,157.8702,235.86360000000002,-195.8588,175,75
2026-05-11 17:57:08.509,1,-2.82,0.75,1.47,120.6702,347.8836,-82.5688,175,75
2026-05-11 17:57:08.524,1,-3.69,0.86,0.36,41.2202,219.3436,-48.3588,175,75
2026-05-11 17:57:08.536,1,-4.57,0.43,-0.75,13.290199999999999,290.0736,96.4512,175,75
2026-05-11 17:57:08.536,1,-3.67,0.05,-0.6,5.3002,414.1036,169.6812,175,75
2026-05-11 17:57:08.558,1,-3.31,-0.64,1.07,-60.4898,402.4536,262.31120000000004,175,75
2026-05-11 17:57:08.576,1,-2.02,-1.54,1.28,-187.4998,265.3236,297.55120000000005,175,75
2026-05-11 17:57:08.590,1,-1.35,-1.23,1.35,-205.9198,194.4036,316.45120000000003,175,75
2026-05-11 17:57:08.601,1,-0.62,-0.81,1.35,-204.5698,94.8336,330.7812,175,75
2026-05-11 17:57:08.625,1,0.07,-0.25,1.54,-182.9298,-1.3864,350.7212,175,75
2026-05-11 17:57:08.636,1,0.8,-0.1,1.64,-151.3998,17.2136,358.4012,175,75
2026-05-11 17:57:08.650,1,1.84,0.31,1.32,-104.2698,-25.7764,307.8512,175,75
2026-05-11 17:57:08.667,1,1.75,0.65,1.15,-66.7098,0.8036000000000003,248.5912,175,75
2026-05-11 17:57:08.677,1,1.7,1.13,1.52,-26.0398,59.4036,231.5712,175,75
2026-05-11 17:57:08.689,1,1.37,1.13,2.13,7.010200000000001,11.0536,195.4812,175,75
2026-05-11 17:57:08.701,1,2.62,0.34,1.64,37.0702,9.4036,134.0112,175,75
2026-05-11 17:57:08.728,1,3.09,-1.64,0.62,119.5102,627.1436,-97.6288,175,75
2026-05-11 17:57:08.760,1,4.94,-3.93,5.93,362.0102,669.5835999999999,-95.00880000000001,175,75
2026-05-11 17:57:08.760,1,2.76,-3.88,6.73,324.5102,215.1336,-128.1188,175,75
2026-05-11 17:57:08.768,1,2.72,-3.5,2.26,-37.4998,-407.7264,-159.4588,175,75
2026-05-11 17:57:08.790,1,-0.25,-1.05,0.41,-56.7098,-281.57640000000004,-112.50880000000001,175,75
2026-05-11 17:57:08.801,1,1.19,-2.42,0.06,106.2802,-65.4764,-67.5088,175,75
2026-05-11 17:57:08.837,1,0.06,-0.66,0.85,11.4602,15.6236,-111.28880000000001,175,75
2026-05-11 17:57:08.849,1,-1.49,-0.49,1.74,64.9402,181.11360000000002,-110.61880000000001,175,75
2026-05-11 17:57:08.872,1,-0.78,-1.35,2.21,-30.6698,78.6736,-141.71880000000002,175,75
2026-05-11 17:57:08.939,1,-0.38,-1.35,1.79,-64.69980000000001,116.6636,-55.6188,175,75
2026-05-11 17:57:08.963,1,-0.6,-0.73,1.03,-37.0698,152.02360000000002,-26.8388,175,75
2026-05-11 17:57:08.974,1,-0.36,0.71,0.51,21.8902,180.3236,-21.7788,175,75
2026-05-11 17:57:11.230,1,-0.62,1.59,2.73,459.4802,275.4436,-198.2788,175,75
2026-05-11 17:57:11.241,1,-0.45,0.29,1.55,518.8002,146.7236,-229.6188,175,75
2026-05-11 17:57:11.241,1,1.0,-1.28,0.46,538.8702,202.52360000000002,-288.63879999999995,175,75
2026-05-11 17:57:11.254,1,2.57,-3.19,-0.46,318.6802,-652.1764000000001,-185.1688,175,75
2026-05-11 17:57:11.265,1,-3.68,-2.58,-2.78,-20.6498,-837.3564,-281.56879999999995,175,75
2026-05-11 17:57:11.276,1,-3.69,-0.46,-1.81,-23.5698,-399.1864,-180.2288,175,75
2026-05-11 17:57:11.294,1,-0.43,0.68,0.66,112.5802,-119.24640000000001,-82.7288,175,75
2026-05-11 17:57:11.305,1,1.25,-0.24,-1.15,-101.0698,-475.1664,-180.2888,175,75
2026-05-11 17:57:11.315,1,-0.25,1.22,-1.97,-30.4598,-81.9364,-103.6388,175,75
2026-05-11 17:57:11.349,1,0.52,-0.38,1.06,-95.0998,82.0936,34.4112,175,75
2026-05-11 17:57:11.365,1,-0.53,-0.37,0.75,-136.19979999999998,82.5236,35.5712,175,75
2026-05-11 17:57:11.401,1,-1.32,0.23,1.05,-237.2298,236.36360000000002,103.6812,175,75
2026-05-11 17:57:11.413,1,-1.0,-0.27,1.67,-154.7898,152.45360000000002,139.53119999999998,175,75
2026-05-11 17:57:11.436,1,-0.74,-0.3,1.47,-191.1998,-24.066399999999998,149.4712,175,75
2026-05-11 17:57:11.451,1,-0.72,0.07,1.06,-206.2598,-34.0064,158.4312,175,75
2026-05-11 17:57:11.451,1,-0.65,0.31,0.93,-192.2898,-20.0464,172.0912,175,75
2026-05-11 17:57:11.463,1,-0.52,0.39,1.1,-162.4198,-3.6364,179.9612,175,75
2026-05-11 17:57:11.473,1,-0.29,0.43,1.46,-148.1498,-2.9664,186.9712,175,75
2026-05-11 17:57:11.486,1,0.04,0.62,1.72,-143.9998,-30.4664,195.6912,175,75
2026-05-11 17:57:11.496,1,0.55,0.83,1.65,-138.8198,-83.02640000000001,194.7712,175,75
2026-05-11 17:57:11.508,1,0.92,1.09,1.21,-111.4398,-142.60639999999998,168.4312,175,75
2026-05-11 17:57:11.518,1,1.11,1.26,0.83,-99.0598,-149.6164,140.7512,175,75
2026-05-11 17:57:11.529,1,1.26,1.42,0.57,-91.7398,-141.07639999999998,118.1312,175,75
2026-05-11 17:57:11.543,1,1.07,1.21,0.62,-87.8398,-108.7664,78.9812,175,75
2026-05-11 17:57:11.557,1,0.87,1.16,0.99,-91.7398,-125.77640000000001,64.8312,175,75
2026-05-11 17:57:11.581,1,0.79,1.1,0.83,-98.4498,-230.9564,46.721199999999996,175,75
2026-05-11 17:57:11.593,1,0.84,1.18,0.45,-89.8498,-251.19639999999998,33.551199999999994,175,75
2026-05-11 17:57:11.603,1,-0.15,1.5,0.19,-88.3298,-272.6064,48.1312,175,75
2026-05-11 17:57:11.631,1,2.58,0.06,-0.64,-65.3998,10.813600000000001,-4.3688,175,75
2026-05-11 17:57:11.663,1,2.02,-1.71,6.35,126.8502,94.9536,-80.5888,175,75
2026-05-11 17:57:11.673,1,1.0,-3.83,1.05,-112.2898,-441.9364,-183.0288,175,75
2026-05-11 17:57:11.746,1,-0.58,-0.61,-0.19,-188.0198,-177.35639999999998,-91.86880000000001,175,75
2026-05-11 17:57:11.747,1,0.62,-0.3,-0.38,-69.4298,-76.99640000000001,-95.4088,175,75
2026-05-11 17:57:11.747,1,0.5,-0.78,-0.17,-42.1098,-131.1364,-117.4788,175,75
2026-05-11 17:57:11.759,1,-0.22,-0.39,0.21,-35.949799999999996,-50.406400000000005,-98.5188,175,75
2026-05-11 17:57:11.783,1,-0.02,0.47,-0.18,-18.6298,-120.46640000000001,-137.4788,175,75
2026-05-11 17:57:11.783,1,-0.45,0.31,-0.24,12.580200000000001,-98.0864,-169.9788,175,75
2026-05-11 17:57:11.828,1,-0.3,-1.06,0.8,173.3802,-33.8264,-263.5188,175,75
2026-05-11 17:57:11.844,1,-0.97,-1.66,0.99,136.6702,14.473600000000001,-279.06879999999995,175,75
2026-05-11 17:57:11.855,1,-1.33,0.79,2.63,131.4902,150.4436,-202.1188,175,75
2026-05-11 17:57:11.866,1,-5.03,0.59,-0.15,32.7702,-21.8064,-110.89880000000001,175,75
2026-05-11 17:57:11.878,1,-4.23,1.14,-0.73,16.6702,256.42359999999996,1.3612000000000002,175,75
2026-05-11 17:57:11.889,1,-2.74,0.77,0.24,10.150199999999998,318.43359999999996,63.8612,175,75
2026-05-11 17:57:11.920,1,-2.88,0.23,1.87,-13.3298,64.1636,169.6512,175,75
2026-05-11 17:57:11.931,1,-2.3,0.18,1.31,-45.4598,58.25359999999999,171.6612,175,75
2026-05-11 17:57:11.943,1,-1.67,0.1,0.93,-52.1698,60.623599999999996,188.0712,175,75
2026-05-11 17:57:11.943,1,-1.26,-0.1,0.78,-42.169799999999995,77.03359999999999,204.5912,175,75
2026-05-11 17:57:11.954,1,-0.87,-0.18,0.94,-56.7398,54.773599999999995,217.4612,175,75
2026-05-11 17:57:11.981,1,0.1,-0.14,1.25,-101.0698,-39.6764,238.1312,175,75
2026-05-11 17:57:11.986,1,0.57,-0.05,1.43,-98.9398,-130.22639999999998,254.5912,175,75
2026-05-11 17:57:12.010,1,1.06,0.11,1.51,-97.3498,-263.3364,248.86120000000003,175,75
2026-05-11 17:57:12.022,1,1.1,0.54,1.2,-80.5898,-342.3564,243.1312,175,75
2026-05-11 17:57:12.032,1,2.32,0.23,-0.09,-31.6798,-190.2864,177.9412,175,75
2026-05-11 17:57:12.062,1,2.01,0.35,-1.22,-44.4298,4.3435999999999995,112.0312,175,75
2026-05-11 17:57:12.073,1,2.39,0.58,-1.19,-1.6798000000000002,255.56360000000004,79.2812,175,75
2026-05-11 17:57:12.073,1,3.29,0.51,-0.34,79.8402,502.3936,43.9212,175,75
2026-05-11 17:57:12.083,1,5.17,-0.66,2.74,201.7902,788.4336,-62.5388,175,75
2026-05-11 17:57:12.093,1,5.43,-1.09,6.45,352.9502,724.8335999999999,-103.5188,175,75
2026-05-11 17:57:12.116,1,6.99,-2.76,3.66,274.7802,-235.22639999999998,-163.6988,175,75
2026-05-11 17:57:12.127,1,0.68,-1.28,0.07,-113.0198,-384.2464,-163.9488,175,75
2026-05-11 17:57:12.173,1,-1.22,-0.74,1.64,-34.669799999999995,-34.8564,-68.0288,175,75
2026-05-11 17:57:12.187,1,1.02,0.02,0.57,-27.8398,-24.246399999999998,-28.888800000000003,175,75
2026-05-11 17:57:12.196,1,1.15,0.46,-0.14,18.2602,-136.32639999999998,-64.0088,175,75
2026-05-11 17:57:12.215,1,0.17,0.61,-0.9,28.620199999999997,-209.6764,-116.0188,175,75
2026-05-11 17:57:12.238,1,-0.28,0.55,-1.18,79.1702,-122.1164,-119.8588,175,75
2026-05-11 17:57:12.238,1,-0.54,0.28,-0.32,135.3302,24.9536,-141.6288,175,75
2026-05-11 17:57:12.296,1,-1.08,0.27,1.77,164.1702,229.2836,-185.2288,175,75
2026-05-11 17:57:12.321,1,-0.19,0.21,2.06,90.6302,4.773599999999999,-162.4788,175,75
2026-05-11 17:57:12.346,1,-1.08,0.97,0.91,24.050199999999997,-136.9964,-222.5388,175,75
2026-05-11 17:57:12.427,1,-1.37,1.83,0.32,57.1602,-65.2864,-241.4488,175,75
2026-05-11 17:57:12.427,1,-0.37,1.76,1.06,124.96019999999999,23.4936,-292.29879999999997,175,75
2026-05-11 17:57:12.437,1,-1.03,1.62,0.29,163.3202,202.1536,-261.3188,175,75
2026-05-11 17:57:12.459,1,-0.84,0.96,0.85,231.6102,285.0836,-283.2788,175,75
2026-05-11 17:57:12.459,1,-0.8,0.35,1.41,292.1002,308.1236,-271.0788,175,75
2026-05-11 17:57:12.513,1,-0.08,-0.24,1.08,-155.8298,-52.6064,70.9312,175,75
2026-05-11 17:57:12.524,1,-0.97,-0.28,0.52,-216.0698,-58.4564,76.1812,175,75
2026-05-11 17:57:12.539,1,-1.23,0.08,0.12,-239.6098,40.693599999999996,79.8912,175,75
2026-05-11 17:57:12.551,1,-1.08,-0.15,1.17,-114.7298,215.3236,174.0412,175,75
2026-05-11 17:57:12.572,1,-0.38,-0.38,1.07,-150.3998,127.6436,163.8012,175,75
2026-05-11 17:57:12.572,1,-0.25,0.03,0.49,-186.8098,165.20360000000002,151.1112,175,75
2026-05-11 17:57:12.594,1,0.2,0.26,1.13,-156.1298,152.58360000000002,163.1312,175,75
2026-05-11 17:57:12.609,1,0.92,0.48,1.38,-198.9398,-43.5764,144.1012,175,75
2026-05-11 17:57:12.609,1,1.01,0.65,1.17,-214.1198,-133.3964,135.1412,175,75
2026-05-11 17:57:12.633,1,0.91,0.91,1.04,-229.7898,-255.6564,105.2612,175,75
2026-05-11 17:57:12.645,1,1.0,1.07,1.28,-216.0098,-294.1264,94.5912,175,75
2026-05-11 17:57:12.662,1,0.98,1.78,1.37,-169.1798,-398.3964,68.1912,175,75
2026-05-11 17:57:12.673,1,0.96,2.12,1.31,-130.09980000000002,-371.7464,47.331199999999995,175,75
2026-05-11 17:57:12.685,1,1.02,2.15,1.6,-83.9998,-310.1064,24.041199999999996,175,75
2026-05-11 17:57:12.693,1,0.14,2.56,2.26,8.010200000000001,-301.7464,-21.1388,175,75
2026-05-11 17:57:12.707,1,4.13,-1.13,-2.83,20.330199999999998,-352.8464,-74.3088,175,75
2026-05-11 17:57:12.729,1,-2.76,-6.24,-4.98,-88.0198,141.8436,-185.5288,175,75
2026-05-11 17:57:12.742,1,2.79,-0.86,3.8,-11.8098,138.80360000000002,-149.8588,175,75
2026-05-11 17:57:12.767,1,0.43,-1.43,3.81,-203.6998,-459.6764,-211.5088,175,75
2026-05-11 17:57:12.779,1,0.06,-0.18,-0.43,-245.0398,-207.7864,-122.3588,175,75
2026-05-11 17:57:12.792,1,-0.02,0.13,-0.8,-134.9798,-150.5264,-101.1988,175,75
2026-05-11 17:57:12.802,1,0.6,-0.2,-0.61,-129.9198,-75.10640000000001,-82.11880000000001,175,75
2026-05-11 17:57:12.813,1,-0.11,-0.2,-0.36,-88.2098,-121.8064,-93.8888,175,75
2026-05-11 17:57:12.825,1,-0.35,0.22,-0.3,-67.4798,-85.77640000000001,-95.28880000000001,175,75
2026-05-11 17:57:12.849,1,-0.36,0.26,0.32,-41.559799999999996,-56.0764,-87.6088,175,75
2026-05-11 17:57:12.860,1,-0.3,0.16,0.49,-39.1798,-74.0664,-88.5188,175,75
2026-05-11 17:57:12.873,1,-0.26,0.21,0.44,-36.0698,-77.8464,-91.1988,175,75
2026-05-11 17:57:12.873,1,-0.47,0.29,0.46,-6.0098,-52.476400000000005,-82.4188,175,75
2026-05-11 17:57:12.884,1,-0.02,0.29,0.38,21.4902,-21.7464,-77.6088,175,75
2026-05-11 17:57:12.905,1,-0.33,0.39,0.72,4.4802,-88.02640000000001,-104.61880000000001,175,75
2026-05-11 17:57:12.905,1,-0.43,0.47,0.86,0.1501999999999999,-33.0864,-84.0688,175,75
2026-05-11 17:57:12.923,1,-0.52,0.21,0.98,-28.4498,-45.656400000000005,-94.4988,175,75
2026-05-11 17:57:12.931,1,-0.64,0.37,0.9,-65.88980000000001,-37.056400000000004,-78.0888,175,75
2026-05-11 17:57:12.949,1,-0.68,0.49,0.93,-87.2898,-30.0464,-75.58879999999999,175,75
2026-05-11 17:57:12.959,1,-0.8,0.2,0.8,-84.3098,-57.296400000000006,-92.2388,175,75
2026-05-11 17:57:12.972,1,-1.03,-0.44,0.5,-94.4298,-122.35640000000001,-106.3188,175,75
2026-05-11 17:57:12.985,1,-0.88,0.37,0.63,-74.1198,-155.16639999999998,-75.22879999999999,175,75
2026-05-11 17:57:13.011,1,-0.99,0.58,0.53,-147.9598,-131.44639999999998,-37.6088,175,75
2026-05-11 17:57:13.021,1,-0.96,0.55,0.73,-132.59980000000002,-97.2364,-32.7888,175,75
2026-05-11 17:57:13.032,1,-0.79,0.65,1.16,-79.7898,-99.4364,-7.968800000000001,175,75
2026-05-11 17:57:13.044,1,-0.68,0.8,1.4,-46.4998,-142.1764,7.6411999999999995,175,75
2026-05-11 17:57:13.054,1,-0.63,0.94,1.39,-33.939800000000005,-163.76639999999998,18.9212,175,75
2026-05-11 17:57:13.054,1,-0.54,1.06,1.31,-7.4198,-175.04639999999998,34.9612,175,75
2026-05-11 17:57:13.067,1,-0.41,1.32,1.34,33.6202,-172.1164,47.5212,175,75
2026-05-11 17:57:13.080,1,-0.22,1.63,1.4,76.4902,-165.8964,57.46119999999999,175,75
2026-05-11 17:57:13.091,1,0.05,1.81,1.4,126.7302,-158.1564,62.941199999999995,175,75
2026-05-11 17:57:13.102,1,0.31,1.81,1.24,168.9902,-143.2164,49.8912,175,75
2026-05-11 17:57:13.117,1,0.68,1.92,1.27,220.5702,-124.85640000000001,38.7412,175,75
2026-05-11 17:57:13.117,1,0.92,1.88,1.34,272.4002,-116.1964,17.211199999999998,175,75
2026-05-11 17:57:13.139,1,1.31,1.76,1.64,318.5602,-104.9164,-0.8987999999999996,175,75
2026-05-11 17:57:13.139,1,1.42,1.53,1.65,344.1102,-126.5664,-33.9488,175,75
2026-05-11 17:57:13.184,1,1.15,1.37,1.24,365.2702,-156.9964,-69.4288,175,75
2026-05-11 17:57:13.206,1,1.28,0.68,1.04,415.2102,-184.97639999999998,-125.5288,175,75
2026-05-11 17:57:13.239,1,-4.93,-1.91,-1.19,317.0402,-575.2864000000001,-165.1688,175,75
2026-05-11 17:57:13.239,1,-7.6,-4.02,-6.38,-141.3798,-630.4664,-330.7788,175,75
2026-05-11 17:57:13.250,1,2.25,4.85,-12.89,136.0002,-241.9364,71.7212,175,75
2026-05-11 17:57:13.357,1,1.36,1.95,-1.51,344.1102,1050.3836000000001,79.10119999999999,175,75
2026-05-11 17:57:13.381,1,2.47,-1.52,3.44,28.010199999999998,-338.82640000000004,-146.5688,175,75
2026-05-11 17:57:13.393,1,-0.11,-0.52,1.38,-93.3898,-478.76640000000003,-177.1788,175,75
2026-05-11 17:57:13.393,1,-0.48,0.6,0.09,-127.2298,-351.07640000000004,-133.2188,175,75
2026-05-11 17:57:13.444,1,0.06,-0.16,0.71,-30.6498,-35.1064,-42.7888,175,75
2026-05-11 17:57:13.444,1,0.22,-0.5,0.98,-48.1498,-17.7264,-34.0088,175,75
2026-05-11 17:57:13.455,1,0.02,-0.88,1.12,-59.4898,21.913600000000002,-34.3688,175,75
2026-05-11 17:57:13.455,1,0.43,-1.15,1.06,-69.1798,47.5836,-39.7988,175,75
2026-05-11 17:57:13.466,1,0.35,-1.32,1.31,-94.3698,-7.6664,-37.6688,175,75
2026-05-11 17:57:13.478,1,0.35,-1.16,1.29,-125.5198,-32.6064,-2.9688,175,75
2026-05-11 17:57:13.489,1,-0.3,-0.8,1.18,-179.0598,-90.2264,10.811200000000001,175,75
2026-05-11 17:57:13.499,1,-1.06,-0.13,-0.61,-182.8398,-244.2464,19.041199999999996,175,75
2026-05-11 17:57:13.511,1,-1.47,-0.06,-1.36,-206.1298,-148.3364,24.041199999999996,175,75
2026-05-11 17:57:13.522,1,-0.64,0.29,-0.85,-108.9998,4.4736,49.7112,175,75
2026-05-11 17:57:13.522,1,-0.55,0.43,-0.09,-67.2298,-4.6764,61.661199999999994,175,75
2026-05-11 17:57:13.532,1,-0.51,0.51,0.3,-94.4298,-32.4164,53.3712,175,75
2026-05-11 17:57:13.551,1,0.1,1.58,0.41,-78.6298,-59.976400000000005,24.651199999999996,175,75
2026-05-11 17:57:13.573,1,0.23,1.69,0.55,-67.71979999999999,-61.016400000000004,16.721199999999996,175,75
2026-05-11 17:57:13.604,1,0.28,1.77,0.62,-59.8498,-64.9764,5.931199999999999,175,75
2026-05-11 17:57:13.615,1,0.32,1.87,0.63,-51.5598,-65.8364,-4.1888000000000005,175,75
2026-05-11 17:57:13.615,1,0.38,1.95,0.71,-37.5398,-60.586400000000005,-11.2588,175,75
2026-05-11 17:57:13.682,1,0.47,2.0,0.91,-19.669800000000002,-56.806400000000004,-25.288800000000002,175,75
2026-05-11 17:57:13.682,1,0.57,2.1,1.12,-3.3298000000000005,-61.876400000000004,-39.0088,175,75
2026-05-11 17:57:13.694,1,0.63,2.24,1.33,13.3202,-75.1664,-48.2188,175,75
2026-05-11 17:57:13.706,1,0.65,2.24,1.44,27.580199999999998,-88.5764,-53.698800000000006,175,75
2026-05-11 17:57:13.720,1,0.53,2.29,1.49,55.2702,-108.5164,-69.7988,175,75
2026-05-11 17:57:13.739,1,0.33,2.19,1.36,113.6202,-128.2764,-100.03880000000001,175,75
2026-05-11 17:57:13.752,1,0.24,2.14,1.35,134.6002,-121.5064,-105.9588,175,75
2026-05-11 17:57:13.764,1,0.17,2.0,1.32,155.5702,-121.6264,-113.0288,175,75
2026-05-11 17:57:13.765,1,0.06,1.89,1.26,168.5002,-123.63640000000001,-120.7188,175,75
2026-05-11 17:57:13.850,1,0.11,1.23,1.28,242.3402,-185.7764,-177.5388,175,75
2026-05-11 17:57:13.861,1,0.17,0.73,1.39,267.5202,-295.0464,-196.5088,175,75
2026-05-11 17:57:13.874,1,0.21,0.54,1.32,258.4402,-335.4064,-214.5588,175,75
2026-05-11 17:57:13.886,1,-0.11,-0.04,1.23,217.8302,-343.82640000000004,-231.68880000000001,175,75
2026-05-11 17:57:13.897,1,-9.08,-4.93,-4.33,120.08019999999999,-881.0164,-314.42879999999997,175,75
2026-05-11 17:57:13.920,1,1.43,0.83,2.97,-194.5498,-44.2464,-8.398800000000001,175,75
2026-05-11 17:57:13.955,1,0.84,-1.19,0.99,-246.3798,-398.94640000000004,-7.178800000000001,175,75
2026-05-11 17:57:13.955,1,-0.93,0.7,-0.57,-263.08979999999997,-374.4964,-39.0688,175,75
2026-05-11 17:57:13.983,1,-0.14,0.63,1.08,-13.8798,-97.9064,-12.4788,175,75
2026-05-11 17:57:14.021,1,-0.63,0.99,0.26,-11.6798,-125.2864,-30.8988,175,75
2026-05-11 17:57:14.031,1,-0.6,1.08,0.45,21.1802,-104.3764,-44.7388,175,75
2026-05-11 17:57:14.056,1,-0.43,0.86,0.45,47.5202,-116.9364,-68.33879999999999,175,75
2026-05-11 17:57:14.068,1,-0.45,0.78,0.39,58.50020000000001,-119.9164,-79.36880000000001,175,75
2026-05-11 17:57:14.084,1,-0.39,0.23,0.57,83.3202,-97.1164,-108.6988,175,75
2026-05-11 17:57:14.095,1,-0.39,0.32,0.7,93.6802,-108.3964,-120.2288,175,75
2026-05-11 17:57:14.106,1,-0.27,0.43,0.55,98.9302,-119.9764,-123.14880000000001,175,75
2026-05-11 17:57:14.119,1,-0.2,0.38,0.42,110.0802,-128.2164,-128.1488,175,75
2026-05-11 17:57:14.131,1,-0.25,0.31,0.37,131.7302,-130.6564,-132.84879999999998,175,75
2026-05-11 17:57:14.131,1,-0.31,0.24,0.45,151.5502,-125.52640000000001,-133.6988,175,75
2026-05-11 17:57:14.172,1,-0.11,-0.18,0.64,149.9002,-86.99640000000001,-139.7388,175,75
2026-05-11 17:57:14.172,1,-0.15,-0.42,0.87,115.5702,-27.476399999999998,-139.3688,175,75
2026-05-11 17:57:14.172,1,0.11,-0.15,1.15,102.2202,39.5336,-136.1388,175,75
2026-05-11 17:57:14.183,1,0.41,-0.22,1.24,88.1302,47.943599999999996,-157.2388,175,75
2026-05-11 17:57:14.189,1,-0.08,0.23,1.18,39.6002,-10.0464,-105.4088,175,75
2026-05-11 17:57:14.204,1,0.03,0.72,1.31,9.0502,-12.9064,-16.8088,175,75
2026-05-11 17:57:14.215,1,-0.16,1.04,1.29,-30.8898,-41.5064,68.4312,175,75
2026-05-11 17:57:14.228,1,0.25,0.96,1.41,-25.2198,-48.086400000000005,-41.9988,175,75
2026-05-11 17:57:14.240,1,0.27,1.09,1.29,-19.2398,-83.5164,-49.6788,175,75
2026-05-11 17:57:14.276,1,1.0,1.38,1.71,20.330199999999998,-135.2864,-86.6288,175,75
2026-05-11 17:57:14.296,1,0.81,1.41,1.54,34.7202,-171.07639999999998,-102.0588,175,75
2026-05-11 17:57:14.351,1,-1.04,1.16,0.89,83.0102,-220.9564,-88.6988,175,75
2026-05-11 17:57:14.361,1,-3.37,-0.08,-0.42,-33.019800000000004,-353.0864,-73.9488,175,75
2026-05-11 17:57:14.373,1,-4.84,0.64,-1.91,-220.9498,-426.9964,-26.8688,175,75
2026-05-11 17:57:14.385,1,-0.8,1.47,-2.14,-234.2398,-176.5664,105.99119999999999,175,75
2026-05-11 17:57:14.395,1,0.44,0.39,2.83,167.7702,382.2136,169.9612,175,75
2026-05-11 17:57:14.420,1,-1.13,0.69,3.45,-2.7798,-8.0264,23.9812,175,75
2026-05-11 17:57:14.430,1,-0.41,-0.14,2.04,-97.7198,-169.79639999999998,41.541199999999996,175,75
2026-05-11 17:57:14.453,1,-0.13,0.81,-0.03,-87.5998,-118.02640000000001,8.3712,175,75
2026-05-11 17:57:14.453,1,-0.16,0.62,-0.06,-47.6598,-73.7664,-13.578800000000001,175,75
2026-05-11 17:57:14.470,1,-0.39,-0.01,0.2,-19.9798,-45.046400000000006,-41.3888,175,75
2026-05-11 17:57:14.482,1,-0.41,-0.2,0.63,-23.6998,-14.3064,-32.1788,175,75
2026-05-11 17:57:14.492,1,-0.32,-0.24,0.9,-38.2098,-90.71640000000001,-28.5788,175,75
2026-05-11 17:57:14.492,1,-0.45,-0.16,0.56,-44.6098,-109.1864,-28.5788,175,75
2026-05-11 17:57:14.515,1,-0.37,0.11,0.41,-23.6298,-86.38640000000001,-43.9488,175,75
2026-05-11 17:57:14.515,1,-0.42,-0.04,0.44,-1.9898000000000007,-67.7264,-51.448800000000006,175,75
2026-05-11 17:57:14.534,1,-0.15,-0.2,0.54,11.490200000000002,-53.8864,-47.5388,175,75
2026-05-11 17:57:14.547,1,0.37,-0.72,0.66,11.9102,-48.946400000000004,-40.528800000000004,175,75
2026-05-11 17:57:14.572,1,0.63,-1.35,0.81,-3.389800000000001,-19.7964,-31.808799999999998,175,75
2026-05-11 17:57:14.572,1,0.6,-1.77,0.76,-39.059799999999996,17.8836,-25.2288,175,75
2026-05-11 17:57:14.635,1,0.57,-0.53,0.8,-107.4798,72.3336,43.3112,175,75
2026-05-11 17:57:14.635,1,-0.49,0.4,0.83,-112.7198,122.88359999999999,-39.1288,175,75
2026-05-11 17:57:14.648,1,-0.65,0.66,0.24,-164.6098,-193.63639999999998,-78.39880000000001,175,75
2026-05-11 17:57:14.679,1,-0.63,0.5,-0.03,-160.9498,-119.7364,-75.6488,175,75
2026-05-11 17:57:14.693,1,-0.12,0.85,0.71,-178.0898,-187.1164,-90.28880000000001,175,75
2026-05-11 17:57:14.706,1,-0.06,1.19,0.87,-189.5498,-223.88639999999998,-104.5588,175,75
2026-05-11 17:57:14.790,1,0.01,1.22,1.23,-195.2198,-239.85639999999998,-101.7488,175,75
2026-05-11 17:57:14.790,1,0.07,1.41,1.38,-204.1198,-246.13639999999998,-106.0788,175,75
2026-05-11 17:57:14.834,1,-0.05,1.5,1.41,-170.1598,-202.60639999999998,-118.0288,175,75
2026-05-11 17:57:14.845,1,0.14,1.64,1.43,-122.8398,-170.4064,-129.9188,175,75
2026-05-11 17:57:14.871,1,0.21,1.64,1.31,-80.2798,-127.35640000000001,-146.8688,175,75
2026-05-11 17:57:14.882,1,0.17,1.64,1.29,-58.9398,-107.1764,-150.8988,175,75
2026-05-11 17:57:14.894,1,0.14,1.62,1.24,-40.0398,-93.8264,-156.5688,175,75
2026-05-11 17:57:14.894,1,0.14,1.65,1.27,-18.939799999999998,-76.8064,-162.1788,175,75
2026-05-11 17:57:14.904,1,0.22,1.65,1.4,9.2302,-68.2164,-163.8888,175,75
2026-05-11 17:57:14.929,1,0.73,1.68,1.91,53.2602,-97.8464,-190.9588,175,75
2026-05-11 17:57:14.940,1,0.93,1.74,2.25,70.4502,-117.96640000000001,-204.8588,175,75
2026-05-11 17:57:14.954,1,1.09,1.87,2.56,87.0402,-145.7164,-212.96880000000002,175,75
2026-05-11 17:57:14.954,1,1.23,1.86,2.87,106.9102,-169.73639999999997,-229.7388,175,75
2026-05-11 17:57:17.300,1,0.51,1.25,0.78,-121.1798,45.1436,113.9512,175,75
2026-05-11 17:57:17.318,1,0.04,2.81,1.87,-193.4998,24.9036,106.63119999999999,175,75
2026-05-11 17:57:17.328,1,-0.08,3.78,1.71,-202.2798,-40.0964,120.2312,175,75
2026-05-11 17:57:17.339,1,0.2,2.13,0.94,-181.6698,-136.3164,157.4912,175,75
2026-05-11 17:57:17.352,1,0.24,0.55,0.23,-191.2498,-106.3764,117.7312,175,75
2026-05-11 17:57:17.440,1,-0.41,0.39,-0.75,-134.8398,-105.0964,170.2912,175,75
2026-05-11 17:57:17.450,1,-0.67,0.65,0.39,-70.3298,-27.476399999999998,150.8412,175,75
2026-05-11 17:57:17.474,1,-1.01,0.43,0.19,-90.7598,-2.8964,44.871199999999995,175,75
2026-05-11 17:57:17.500,1,-0.44,0.56,0.91,14.670200000000001,39.9036,-99.5188,175,75
2026-05-11 17:57:17.511,1,-0.53,0.9,0.93,9.790199999999999,52.1036,-83.11880000000001,175,75
2026-05-11 17:57:17.511,1,-0.32,1.02,1.0,13.2102,60.2736,-70.0088,175,75
2026-05-11 17:57:17.522,1,-0.2,0.75,0.85,19.4902,25.273600000000002,-60.128800000000005,175,75
2026-05-11 17:57:17.522,1,-0.11,0.66,0.76,21.190199999999997,29.9036,-50.378800000000005,175,75
2026-05-11 17:57:17.533,1,-0.05,0.18,0.59,26.130200000000002,31.6136,-55.0088,175,75
2026-05-11 17:57:17.560,1,0.01,-0.61,0.56,65.2202,26.5536,-60.558800000000005,175,75
2026-05-11 17:57:17.560,1,-0.06,-0.94,0.52,56.6802,1.3636,-58.2988,175,75
2026-05-11 17:57:17.576,1,-0.28,-0.97,0.41,36.5602,-8.6364,-42.3288,175,75
2026-05-11 17:57:17.579,1,-0.32,-0.53,0.45,35.2802,1.4935999999999998,-17.6888,175,75
2026-05-11 17:57:17.594,1,-0.06,-0.32,0.56,46.5002,12.5836,-37.8788,175,75
2026-05-11 17:57:17.594,1,-0.04,0.22,0.67,26.620199999999997,-11.1964,9.0712,175,75
2026-05-11 17:57:17.605,1,-0.01,0.16,0.68,9.970199999999998,-68.9964,-7.0788,175,75
2026-05-11 17:57:17.640,1,-0.35,0.59,0.4,-32.0398,-137.47639999999998,-19.8888,175,75
2026-05-11 17:57:17.640,1,0.08,0.26,1.21,13.8202,-122.3464,2.0611999999999995,175,75
2026-05-11 17:57:17.652,1,-0.3,0.1,1.3,-1.1798000000000002,-99.60640000000001,-8.7288,175,75
2026-05-11 17:57:17.655,1,-0.26,0.76,0.93,-90.8198,-64.4264,-0.8688000000000002,175,75
2026-05-11 17:57:17.701,1,-0.34,1.02,0.85,-92.4598,-1.9264000000000001,11.021199999999999,175,75
2026-05-11 17:57:17.701,1,0.15,0.89,1.12,-41.919799999999995,34.1736,20.051199999999994,175,75
2026-05-11 17:57:17.714,1,0.58,0.79,1.73,9.5502,-13.8764,31.571199999999997,175,75
2026-05-11 17:57:17.725,1,0.8,0.77,1.96,-19.419800000000002,-106.8664,23.831199999999995,175,75
2026-05-11 17:57:17.751,1,0.62,1.06,1.33,-48.0098,-137.5364,-5.1288,175,75
2026-05-11 17:57:17.761,1,0.74,1.08,1.5,-27.4598,-107.8364,-17.6888,175,75
2026-05-11 17:57:17.772,1,0.81,1.19,1.9,-14.3598,-92.8364,-27.2688,175,75
2026-05-11 17:57:17.783,1,0.97,1.09,2.19,-5.7598,-81.1964,-42.5688,175,75
2026-05-11 17:57:17.783,1,1.27,1.23,2.26,19.4302,-65.1564,-70.6188,175,75
2026-05-11 17:57:17.815,1,-3.37,2.03,0.28,-75.38980000000001,-364.7264,0.5411999999999999,175,75
2026-05-11 17:57:17.815,1,1.93,-1.54,-6.64,124.30019999999999,-241.98639999999997,603.7712,175,75
2026-05-11 17:57:17.826,1,-1.89,-3.62,1.61,63.14019999999999,618.8636,-97.50880000000001,175,75
2026-05-11 17:57:17.826,1,-1.42,1.15,0.44,-148.9898,653.7436,-20.0688,175,75
2026-05-11 17:57:17.838,1,1.42,-1.32,3.23,-211.2498,267.4636,61.63119999999999,175,75
2026-05-11 17:57:17.850,1,0.64,-1.74,2.93,-121.9798,-79.9164,58.8912,175,75
2026-05-11 17:57:17.860,1,0.01,-0.46,1.21,-233.8698,-51.6764,50.291199999999996,175,75
2026-05-11 17:57:17.871,1,0.05,0.25,0.83,-232.3998,-98.38640000000001,46.4512,175,75
2026-05-11 17:57:17.881,1,-0.01,1.02,-0.22,-126.1198,-61.7464,80.2912,175,75
2026-05-11 17:57:17.893,1,-0.07,0.91,0.23,-61.4898,-41.376400000000004,102.4312,175,75
2026-05-11 17:57:17.929,1,-0.07,0.65,0.52,-33.8698,-41.2564,113.8312,175,75
2026-05-11 17:57:17.929,1,-0.56,0.4,0.69,-41.7298,-18.8764,116.5712,175,75
2026-05-11 17:57:17.938,1,-0.66,0.73,0.53,-63.3198,-3.5064,93.9512,175,75
2026-05-11 17:57:17.961,1,-1.01,0.8,0.29,-56.0598,10.2136,58.46119999999999,175,75
2026-05-11 17:57:17.972,1,-1.12,0.63,0.7,-21.1198,65.75359999999999,3.9511999999999983,175,75
2026-05-11 17:57:17.979,1,-0.96,0.38,0.9,-16.7298,77.28359999999999,-20.7388,175,75
2026-05-11 17:57:17.984,1,-0.75,0.22,0.83,-15.7598,77.1636,-39.8888,175,75
2026-05-11 17:57:17.988,1,-0.64,0.14,0.6,-6.369800000000001,79.9036,-45.4988,175,75
2026-05-11 17:57:18.020,1,-0.4,0.07,0.42,9.670200000000001,87.28359999999999,-43.2988,175,75
2026-05-11 17:57:18.031,1,-0.07,0.08,0.38,3.8202,62.833600000000004,-22.9388,175,75
2026-05-11 17:57:18.031,1,0.13,0.33,0.48,-6.6098,62.6536,-29.8288,175,75
2026-05-11 17:57:18.043,1,0.05,0.43,0.46,-13.2598,79.11359999999999,-36.4088,175,75
2026-05-11 17:57:18.056,1,-0.04,0.76,0.72,-33.0698,51.3636,-26.538800000000002,175,75
2026-05-11 17:57:18.072,1,-0.17,0.84,0.8,-42.2198,20.573600000000003,-24.2788,175,75
2026-05-11 17:57:18.108,1,-0.36,0.65,0.75,-20.8198,11.433600000000002,-23.5488,175,75
2026-05-11 17:57:18.119,1,-0.38,0.49,0.68,-7.8898,24.843600000000002,-19.0988,175,75
2026-05-11 17:57:18.144,1,-0.16,-0.05,0.57,30.1002,45.5736,-20.7988,175,75
2026-05-11 17:57:18.157,1,-0.04,-0.62,0.56,53.6302,31.853600000000004,-30.1888,175,75
2026-05-11 17:57:18.167,1,0.07,-1.13,0.55,63.75020000000001,-2.1664000000000003,-35.2588,175,75
2026-05-11 17:57:18.167,1,-0.11,-1.61,0.35,45.8902,-18.2064,-27.998800000000003,175,75
2026-05-11 17:57:18.179,1,-0.23,-1.15,0.3,19.0002,4.4136,-4.2788,175,75
2026-05-11 17:57:18.207,1,-0.19,0.12,0.56,7.600200000000001,0.14360000000000017,39.2012,175,75
2026-05-11 17:57:18.207,1,-0.6,0.08,0.51,29.730199999999996,-4.6064,-34.9488,175,75
2026-05-11 17:57:18.217,1,-0.93,0.66,0.34,38.9402,-25.2164,-70.3188,175,75
2026-05-11 17:57:18.231,1,-0.59,1.12,0.36,17.4102,-36.9864,-33.2988,175,75
2026-05-11 17:57:18.242,1,-0.77,1.75,0.71,-1.5497999999999994,-5.8864,-12.4488,175,75
2026-05-11 17:57:18.292,1,0.91,1.68,2.35,15.100200000000001,-78.7564,-17.1488,175,75
2026-05-11 17:57:18.292,1,1.38,3.0,2.17,54.00020000000001,-40.336400000000005,-23.3688,175,75
2026-05-11 17:57:18.303,1,2.07,2.72,2.78,127.4102,-29.426399999999997,-44.0988,175,75
2026-05-11 17:57:18.354,1,-2.27,0.77,-8.2,228.2102,-154.1164,528.1612,175,75
2026-05-11 17:57:18.365,1,-2.29,-2.85,-0.04,297.2302,395.3336,-101.2288,175,75
2026-05-11 17:57:18.390,1,0.89,-2.34,4.6,56.190200000000004,-69.9764,-42.3288,175,75
2026-05-11 17:57:18.411,1,0.52,-1.55,0.85,-130.9998,-46.7464,-47.208800000000004,175,75
2026-05-11 17:57:18.421,1,0.07,-0.58,0.48,-85.0298,-73.5664,-47.208800000000004,175,75
2026-05-11 17:57:18.421,1,0.14,0.12,0.84,-45.4498,-93.02640000000001,-16.3488,175,75
2026-05-11 17:57:18.434,1,-0.1,0.75,0.77,-40.3298,-79.5464,7.731199999999999,175,75
2026-05-11 17:57:18.445,1,-0.15,0.79,0.52,-27.5898,-73.63640000000001,4.681199999999999,175,75
2026-05-11 17:57:18.460,1,-0.16,0.64,0.4,-2.8298000000000005,-54.116400000000006,-2.1487999999999996,175,75
2026-05-11 17:57:18.479,1,-0.18,-0.07,0.7,44.3002,-23.6964,-28.3688,175,75
2026-05-11 17:57:18.490,1,-0.12,-0.18,0.94,57.720200000000006,-21.5564,-32.5688,175,75
2026-05-11 17:57:18.501,1,-0.22,-0.22,1.3,59.1202,-22.4164,-34.3988,175,75
2026-05-11 17:57:18.515,1,-0.27,0.04,1.37,43.2102,-24.5464,-34.3988,175,75
2026-05-11 17:57:18.530,1,-0.17,0.13,1.1,27.840200000000003,-30.0364,-40.2588,175,75
2026-05-11 17:57:18.541,1,-0.11,0.05,0.95,29.1802,-36.9864,-42.5688,175,75
2026-05-11 17:57:18.546,1,-0.09,-0.08,0.89,33.2702,-36.7464,-47.878800000000005,175,75
2026-05-11 17:57:18.558,1,-0.13,-0.08,0.87,54.730199999999996,-27.2864,-49.278800000000004,175,75
2026-05-11 17:57:18.570,1,-0.1,-0.1,0.95,71.0702,-21.4964,-49.098800000000004,175,75
2026-05-11 17:57:18.580,1,0.05,-0.18,0.95,82.6002,-18.0864,-50.8688,175,75
2026-05-11 17:57:18.587,1,0.02,-0.28,0.83,89.6102,-19.9764,-45.738800000000005,175,75
2026-05-11 17:57:18.600,1,0.01,-0.3,0.81,98.1402,-6.6164,-43.0588,175,75
2026-05-11 17:57:18.613,1,0.0,-0.27,0.87,107.1702,2.5835999999999997,-42.5688,175,75
2026-05-11 17:57:18.629,1,-0.05,-0.29,1.0,108.3902,8.933599999999998,-44.8888,175,75
2026-05-11 17:57:18.641,1,0.06,-0.39,1.11,99.9702,11.1236,-46.598800000000004,175,75
2026-05-11 17:57:18.653,1,0.13,-0.52,1.15,82.8402,-0.15639999999999965,-47.208800000000004,175,75
2026-05-11 17:57:18.653,1,0.1,-0.62,1.16,56.0702,-4.0564,-43.4888,175,75
2026-05-11 17:57:18.664,1,0.3,-0.81,1.21,51.1302,65.8836,-66.7188,175,75
2026-05-11 17:57:18.679,1,0.74,-1.02,1.15,31.5002,80.0836,-86.2288,175,75
2026-05-11 17:57:18.690,1,0.53,-0.74,1.39,-13.3198,5.1436,-35.4988,175,75
2026-05-11 17:57:18.701,1,0.72,0.07,1.5,-83.8098,-163.8164,66.0212,175,75
2026-05-11 17:57:18.714,1,0.53,0.45,1.56,-120.3898,-204.3064,91.2712,175,75
2026-05-11 17:57:18.726,1,0.37,0.46,1.4,-186.7898,-256.1364,94.2612,175,75
2026-05-11 17:57:18.726,1,0.31,0.49,1.2,-231.9798,-221.7464,73.6512,175,75
2026-05-11 17:57:18.737,1,0.35,0.4,1.36,-245.4498,-151.6164,64.2612,175,75
2026-05-11 17:57:18.749,1,0.33,0.6,1.92,-164.3598,-57.7164,57.6712,175,75
2026-05-11 17:57:18.760,1,1.5,0.86,2.2,-109.2298,-30.0364,20.4812,175,75
2026-05-11 17:57:18.784,1,1.7,1.78,1.46,-79.8398,39.053599999999996,-42.0788,175,75
2026-05-11 17:57:18.784,1,1.39,2.22,1.37,58.940200000000004,164.6636,-99.8888,175,75
2026-05-11 17:57:18.812,1,-0.5,-0.5,0.48,34.1202,82.7136,-161.2888,175,75
2026-05-11 17:57:18.824,1,-8.45,1.92,0.87,71.1302,-28.566399999999998,-251.4088,175,75
2026-05-11 17:57:18.824,1,-7.94,-1.01,0.95,-93.8698,-55.3964,68.8312,175,75
2026-05-11 17:57:18.842,1,8.51,-9.8,3.11,132.2902,592.2836,7.671200000000001,175,75
2026-05-11 17:57:18.853,1,1.12,0.85,2.99,-159.9598,-181.98639999999997,100.6612,175,75
2026-05-11 17:57:18.868,1,0.39,0.34,0.8,-136.1198,-81.0664,83.0412,175,75
2026-05-11 17:57:18.881,1,0.49,0.11,0.68,-45.8198,-4.3664000000000005,88.10119999999999,175,75
2026-05-11 17:57:18.899,1,-0.19,-0.38,1.0,-41.2498,20.1536,74.6812,175,75
2026-05-11 17:57:18.910,1,-0.13,-0.04,1.2,-45.6998,26.063599999999997,72.24119999999999,175,75
2026-05-11 17:57:18.910,1,-0.42,-0.05,1.01,-53.0098,-12.2864,55.35119999999999,175,75
2026-05-11 17:57:18.931,1,-0.39,-0.05,0.97,-37.769800000000004,31.3036,35.7812,175,75
2026-05-11 17:57:18.931,1,-0.16,-0.23,1.32,-33.199799999999996,62.5236,31.8812,175,75
2026-05-11 17:57:18.954,1,0.06,-0.41,1.59,-85.9398,51.553599999999996,26.4512,175,75
2026-05-11 17:57:18.969,1,0.0,-0.57,1.43,-108.0098,56.2436,39.8112,175,75
2026-05-11 17:57:18.992,1,0.34,-1.35,1.28,-134.4798,117.7136,48.041199999999996,175,75
2026-05-11 17:57:19.014,1,1.07,-2.03,1.54,-153.0698,145.5736,68.71119999999999,175,75
2026-05-11 17:57:19.023,1,1.05,-2.41,1.78,-200.7598,109.2336,31.0912,175,75
2026-05-11 17:57:19.034,1,0.44,-2.59,1.64,-264.5398,106.3036,53.5912,175,75
2026-05-11 17:57:19.056,1,0.2,-1.21,1.36,-252.3398,64.72359999999999,78.5212,175,75
2026-05-11 17:57:19.081,1,-0.61,-0.61,0.09,-263.6798,-172.7164,97.5512,175,75
2026-05-11 17:57:19.094,1,-0.46,-0.65,-0.2,-228.8698,-48.446400000000004,95.9012,175,75
2026-05-11 17:57:19.104,1,-0.26,-0.01,0.44,-179.7198,1.5536000000000003,97.1812,175,75
2026-05-11 17:57:19.114,1,-0.27,0.11,0.66,-183.1398,-11.436399999999999,91.3912,175,75
2026-05-11 17:57:19.125,1,-0.23,0.45,0.69,-191.7298,-18.5064,82.85119999999999,175,75
2026-05-11 17:57:19.142,1,-0.08,0.85,0.77,-188.6198,-10.6464,74.0112,175,75
2026-05-11 17:57:19.153,1,0.11,1.22,0.86,-172.7698,-10.8264,52.3712,175,75
2026-05-11 17:57:19.165,1,0.18,1.39,0.95,-157.3998,-1.4364,35.6612,175,75
2026-05-11 17:57:19.186,1,0.72,1.93,1.48,-103.9898,3.0135999999999994,4.4412,175,75
2026-05-11 17:57:19.197,1,0.89,2.2,1.79,-80.5098,12.523600000000002,-55.9288,175,75
2026-05-11 17:57:19.216,1,1.13,1.78,1.98,-39.169799999999995,-31.926399999999997,-102.2688,175,75
2026-05-11 17:57:19.230,1,1.17,1.72,2.0,-20.939799999999998,-18.0264,-133.2388,175,75
2026-05-11 17:57:19.249,1,1.26,1.52,2.05,31.190199999999997,-28.7564,-177.93880000000001,175,75
2026-05-11 17:57:19.269,1,1.17,1.32,1.94,59.2402,-50.3964,-199.7088,175,75
2026-05-11 17:57:19.283,1,1.08,1.16,1.88,86.6802,-67.8964,-215.7988,175,75
2026-05-11 17:57:19.295,1,1.02,1.02,1.84,106.4402,-88.6964,-224.5188,175,75
2026-05-11 17:57:19.295,1,0.87,0.93,1.75,120.8902,-113.2664,-235.7988,175,75
2026-05-11 17:57:19.307,1,0.75,0.73,1.6,131.6202,-130.6464,-243.6688,175,75
2026-05-11 17:57:19.316,1,0.61,0.53,1.5,155.6402,-141.8064,-252.3888,175,75
2026-05-11 17:57:19.330,1,0.52,0.35,1.49,174.0002,-155.7064,-257.6888,175,75
2026-05-11 17:57:19.342,1,0.5,0.22,1.53,191.8002,-182.16639999999998,-262.99879999999996,175,75
2026-05-11 17:57:19.353,1,0.47,0.07,1.68,216.8002,-233.44639999999998,-260.98879999999997,175,75
2026-05-11 17:57:19.364,1,0.37,-0.13,1.86,243.3302,-300.3364,-266.9588,175,75
2026-05-11 17:57:19.383,1,0.19,-0.45,2.11,278.8202,-379.1764,-269.94879999999995,175,75
2026-05-11 17:57:19.404,1,-6.39,-1.31,1.7,213.9402,-712.7764,-283.23879999999997,175,75
2026-05-11 17:57:19.421,1,8.14,1.11,-6.1,466.8602,455.2736,1531.6312,175,75
2026-05-11 17:57:19.435,1,5.43,3.68,-1.32,13.7502,651.3036,-186.4088,175,75
2026-05-11 17:57:19.455,1,0.76,0.02,3.53,0.7701999999999991,70.0836,144.0112,175,75
2026-05-11 17:57:19.469,1,-0.99,0.22,0.75,-138.9898,-73.8764,134.4412,175,75
2026-05-11 17:57:21.801,1,0.48,0.85,4.21,-16.7898,207.27360000000002,-18.2088,175,75
2026-05-11 17:57:21.801,1,0.06,-0.23,3.11,-0.8797999999999995,38.2436,22.891199999999998,175,75
2026-05-11 17:57:21.813,1,0.42,-1.68,1.68,2.900199999999998,-208.82639999999998,-35.1588,175,75
2026-05-11 17:57:21.830,1,1.62,-1.81,-1.04,-134.65980000000002,-20.8364,-5.3988000000000005,175,75
2026-05-11 17:57:21.890,1,-0.78,0.11,0.3,37.480199999999996,-25.656399999999998,27.651199999999996,175,75
2026-05-11 17:57:21.890,1,-0.28,-0.1,1.38,71.9902,160.86360000000002,62.77119999999999,175,75
2026-05-11 17:57:21.910,1,0.08,-0.15,1.62,1.8102,76.4136,46.551199999999994,175,75
2026-05-11 17:57:21.910,1,-0.03,0.27,0.94,-29.049799999999998,-28.0964,45.151199999999996,175,75
2026-05-11 17:57:21.924,1,-0.23,0.39,0.17,-21.549799999999998,-36.3864,31.791199999999996,175,75
2026-05-11 17:57:21.934,1,-0.36,0.41,-0.08,15.5902,1.9036,21.121199999999995,175,75
2026-05-11 17:57:21.945,1,-0.61,0.18,1.1,59.550200000000004,36.3536,-16.0688,175,75
2026-05-11 17:57:21.957,1,-0.46,-0.02,1.17,43.3302,26.4136,-28.1388,175,75
2026-05-11 17:57:21.967,1,-0.24,0.05,0.6,39.9202,11.9636,-51.8588,175,75
2026-05-11 17:57:21.978,1,-0.26,-0.04,0.74,57.2902,21.3536,-56.1888,175,75
2026-05-11 17:57:22.005,1,-0.16,-0.1,0.85,61.0102,19.9536,-58.6888,175,75
2026-05-11 17:57:22.016,1,-0.1,-0.08,0.65,81.3802,2.273599999999999,-61.4388,175,75
2026-05-11 17:57:22.027,1,-0.11,-0.08,0.68,93.4502,0.013600000000000279,-61.378800000000005,175,75
2026-05-11 17:57:22.072,1,-0.09,-0.12,0.85,111.0102,0.3836000000000004,-65.6388,175,75
2026-05-11 17:57:22.082,1,-0.1,-0.14,0.85,114.1202,2.3335999999999997,-65.8888,175,75
2026-05-11 17:57:22.093,1,-0.07,-0.17,0.85,116.3802,8.8536,-60.7688,175,75
2026-05-11 17:57:22.093,1,-0.02,-0.2,0.87,112.7202,12.3336,-53.628800000000005,175,75
2026-05-11 17:57:22.131,1,0.06,-0.14,0.91,111.6202,19.9536,-49.058800000000005,175,75
2026-05-11 17:57:22.143,1,0.09,-0.03,1.15,96.2602,32.453599999999994,-26.1288,175,75
2026-05-11 17:57:22.158,1,0.13,0.06,1.3,84.7902,27.753600000000002,-20.6388,175,75
2026-05-11 17:57:22.166,1,0.05,0.17,1.3,62.9602,15.933600000000002,-11.3188,175,75
2026-05-11 17:57:22.178,1,-0.01,0.24,1.33,59.2402,19.773600000000002,-8.2088,175,75
2026-05-11 17:57:22.191,1,-0.01,0.21,1.31,51.3802,15.503600000000002,-2.7788000000000004,175,75
2026-05-11 17:57:22.245,1,-0.03,0.08,1.25,27.2902,27.573600000000003,2.6511999999999993,175,75
2026-05-11 17:57:22.255,1,0.05,-0.13,1.28,21.130200000000002,35.803599999999996,1.1212,175,75
2026-05-11 17:57:22.255,1,0.1,-0.4,1.16,12.110199999999999,24.773600000000002,8.3212,175,75
2026-05-11 17:57:22.279,1,-0.03,-0.31,1.0,13.5702,23.3636,13.8712,175,75
2026-05-11 17:57:22.295,1,0.01,-0.27,1.23,12.8402,38.3636,12.8912,175,75
2026-05-11 17:57:22.303,1,-0.02,-0.17,1.22,3.940200000000001,29.2236,10.5112,175,75
2026-05-11 17:57:22.360,1,-0.11,-0.23,1.23,-1.3697999999999997,33.063599999999994,3.8712,175,75
2026-05-11 17:57:22.360,1,-0.11,-0.26,1.27,-9.8398,36.843599999999995,-3.2088,175,75
2026-05-11 17:57:22.373,1,-0.04,-0.29,1.29,-23.1298,39.523599999999995,-9.6088,175,75
2026-05-11 17:57:22.401,1,-0.03,-0.35,1.32,-37.3998,48.063599999999994,-10.9488,175,75
2026-05-11 17:57:22.413,1,0.13,-0.4,1.34,-57.4598,56.843599999999995,-6.9888,175,75
2026-05-11 17:57:22.414,1,0.19,-0.64,1.41,-95.6898,64.8336,3.0111999999999988,175,75
2026-05-11 17:57:22.439,1,0.37,-1.36,1.76,-123.1298,96.4136,8.381199999999998,175,75
2026-05-11 17:57:22.439,1,0.28,-1.89,1.85,-132.5798,168.1836,-41.8588,175,75
2026-05-11 17:57:22.470,1,0.55,-0.21,2.5,-204.1098,-49.4964,102.0412,175,75
2026-05-11 17:57:22.481,1,-0.15,0.12,1.72,-166.6098,-90.71640000000001,41.1812,175,75
2026-05-11 17:57:22.485,1,0.46,0.61,1.12,-113.5598,-91.7564,19.2312,175,75
2026-05-11 17:57:22.526,1,1.42,0.7,1.7,7.290199999999999,91.6636,-3.8788,175,75
2026-05-11 17:57:22.526,1,1.44,0.76,4.02,127.3502,165.74360000000001,-49.418800000000005,175,75
2026-05-11 17:57:22.539,1,1.42,0.9,4.89,145.0402,57.8836,-100.9488,175,75
2026-05-11 17:57:22.543,1,1.01,-0.43,3.47,326.4402,-106.9364,-200.2788,175,75
2026-05-11 17:57:22.561,1,0.38,-1.6,2.13,404.4302,-62.6064,-264.54879999999997,175,75
2026-05-11 17:57:22.645,1,-0.9,-3.53,1.34,502.6002,-37.306400000000004,-216.7388,175,75
2026-05-11 17:57:22.661,1,-0.97,-3.26,1.6,497.8402,-76.1464,-167.5288,175,75
2026-05-11 17:57:22.661,1,-0.82,-2.99,1.47,468.6302,-119.9864,-135.2188,175,75
2026-05-11 17:57:22.672,1,-0.58,-2.98,0.78,406.8702,-128.4564,-148.1388,175,75
2026-05-11 17:57:22.682,1,-0.07,-2.05,0.3,323.0902,-142.60639999999998,-147.1088,175,75
2026-05-11 17:57:22.705,1,-1.73,-0.71,-0.69,201.3802,-156.50639999999999,-117.6588,175,75
2026-05-11 17:57:22.719,1,-1.85,0.72,-1.44,129.4902,-27.3664,-41.6788,175,75
2026-05-11 17:57:22.731,1,-1.56,0.9,-1.42,67.0502,78.8536,0.8211999999999993,175,75
2026-05-11 17:57:22.764,1,-1.48,0.52,-1.15,26.010199999999998,139.4036,19.541199999999996,175,75
2026-05-11 17:57:22.764,1,-1.4,0.41,-0.83,9.1202,123.3636,28.5612,175,75
2026-05-11 17:57:22.775,1,-1.27,0.66,-0.65,-1.5497999999999994,84.3436,43.7512,175,75
2026-05-11 17:57:22.786,1,-1.13,0.78,-0.73,-55.1498,2.8236,79.6612,175,75
2026-05-11 17:57:22.797,1,-1.03,0.7,-0.71,-60.3898,1.6635999999999997,93.6812,175,75
2026-05-11 17:57:22.807,1,-0.86,0.61,-0.5,-80.1498,1.4736000000000002,105.0312,175,75
2026-05-11 17:57:22.836,1,-0.71,0.57,-0.32,-98.3198,-7.3064,118.56119999999999,175,75
2026-05-11 17:57:22.852,1,-0.47,0.41,-0.1,-123.6198,-22.6064,138.5012,175,75
2026-05-11 17:57:22.882,1,-0.19,-0.14,0.48,-162.7698,27.453599999999998,162.8912,175,75
2026-05-11 17:57:22.893,1,-0.23,-0.49,0.52,-183.7998,50.0736,156.9212,175,75
2026-05-11 17:57:22.905,1,-0.34,-1.56,0.43,-191.5498,76.11359999999999,160.7612,175,75
2026-05-11 17:57:22.916,1,-0.39,-1.74,0.6,-191.0598,118.9136,165.8212,175,75
2026-05-11 17:57:22.934,1,-0.31,-2.07,0.91,-195.4498,147.8836,177.2212,175,75
2026-05-11 17:57:22.934,1,-0.65,-1.32,2.01,-124.8398,171.9636,161.0012,175,75
2026-05-11 17:57:22.978,1,-7.14,-1.83,17.15,-335.7598,1179.5236,-108.5688,175,75
2026-05-11 17:57:22.989,1,11.55,2.42,9.84,-256.4298,-356.44640000000004,364.2312,175,75
2026-05-11 17:57:23.010,1,-2.86,-0.92,-0.25,147.7802,-1868.8863999999999,-434.6688,175,75
2026-05-11 17:57:23.021,1,-5.06,-2.19,-5.01,-211.6098,-58.336400000000005,66.49119999999999,175,75
2026-05-11 17:57:23.035,1,1.52,0.41,-1.46,-199.4098,808.2436,301.61120000000005,175,75
2026-05-11 17:57:23.046,1,-1.06,-2.59,1.63,-198.3798,0.6836000000000002,-26.498800000000003,175,75
2026-05-11 17:57:23.057,1,-1.36,-0.09,1.45,-165.0798,54.0436,56.2512,175,75
2026-05-11 17:57:23.057,1,-0.95,-0.54,0.55,-136.3698,-37.8464,58.931200000000004,175,75
2026-05-11 17:57:23.104,1,-1.08,0.02,-0.72,-158.9898,-20.0464,53.2612,175,75
2026-05-11 17:57:23.115,1,-1.09,0.55,-1.27,-193.0698,184.6536,94.2912,175,75
2026-05-11 17:57:23.125,1,-0.82,0.49,-0.87,-185.1498,305.0736,123.75120000000001,175,75
2026-05-11 17:57:23.125,1,-0.49,0.15,-0.12,-148.1298,271.4136,147.5912,175,75
2026-05-11 17:57:23.138,1,0.33,0.42,0.6,-166.0598,50.7436,97.7712,175,75
2026-05-11 17:57:23.148,1,0.46,0.93,0.04,-216.6098,2.5135999999999994,61.3112,175,75
2026-05-11 17:57:23.169,1,0.29,0.66,0.65,-232.2798,-19.0064,70.0312,175,75
2026-05-11 17:57:23.186,1,0.46,0.62,1.02,-218.3198,-52.116400000000006,62.10119999999999,175,75
2026-05-11 17:57:23.211,1,0.13,0.63,0.99,-184.0498,-121.99640000000001,48.5612,175,75
2026-05-11 17:57:23.238,1,-0.69,0.85,0.2,-193.3198,-211.9364,73.9312,175,75
2026-05-11 17:57:23.274,1,-2.58,-0.68,9.11,109.7302,182.5736,15.3312,175,75
2026-05-11 17:57:23.298,1,-0.15,-4.7,2.67,26.200200000000002,-703.8864,-78.6288,175,75
2026-05-11 17:57:23.298,1,-2.59,-4.83,-1.56,-155.9998,-266.26640000000003,-88.0788,175,75
2026-05-11 17:57:23.322,1,0.03,-0.07,-1.2,-67.7698,194.6536,33.261199999999995,175,75
2026-05-11 17:57:23.330,1,2.27,-0.62,-0.25,53.7602,118.0636,29.4812,175,75
2026-05-11 17:57:23.330,1,1.18,-1.74,0.99,59.920199999999994,63.97359999999999,-17.4688,175,75
2026-05-11 17:57:23.351,1,0.65,-1.59,1.09,-17.5798,41.1136,28.321199999999997,175,75
2026-05-11 17:57:23.376,1,0.14,-2.03,0.8,-68.2598,51.843599999999995,14.6012,175,75
2026-05-11 17:57:23.408,1,0.56,-2.21,2.96,-82.2198,114.7736,76.6112,175,75
2026-05-11 17:57:23.422,1,0.38,-0.72,2.64,-43.799800000000005,81.6636,75.4512,175,75
2026-05-11 17:57:23.498,1,1.61,-0.84,3.0,525.0402,-47.056400000000004,-144.6688,175,75
2026-05-11 17:57:23.498,1,1.68,-1.56,1.98,598.5702,6.5436000000000005,-184.1188,175,75
2026-05-11 17:57:23.522,1,0.66,-2.79,1.41,637.9002,14.4036,-244.3588,175,75
2026-05-11 17:57:23.553,1,-0.16,-7.01,1.66,660.1002,-53.586400000000005,-206.7388,175,75
2026-05-11 17:57:23.564,1,-0.67,-7.17,0.31,573.7002,-130.16639999999998,-252.4088,175,75
2026-05-11 17:57:23.564,1,-0.47,-4.56,-0.08,526.3802,-63.5264,-255.7088,175,75
2026-05-11 17:57:23.576,1,-0.43,-3.84,-0.21,555.0402,13.8536,-196.2488,175,75
2026-05-11 17:57:23.619,1,-0.66,-4.06,-0.47,510.3402,31.4736,-197.6588,175,75
2026-05-11 17:57:23.619,1,-0.93,-3.03,-0.89,453.6302,57.3936,-205.2788,175,75
2026-05-11 17:57:23.631,1,-0.83,-1.19,-1.67,370.5202,13.433600000000002,-165.7088,175,75
2026-05-11 17:57:23.631,1,-1.26,-0.57,-2.65,322.2302,20.503600000000002,-135.2188,175,75
2026-05-11 17:57:23.644,1,-1.75,-0.45,-2.42,202.4202,169.58360000000002,-99.9088,175,75
2026-05-11 17:57:23.654,1,-1.28,0.33,-0.96,39.3102,361.11359999999996,25.391199999999998,175,75
2026-05-11 17:57:23.654,1,-0.5,-0.11,-0.1,-13.4998,291.9636,67.8912,175,75
2026-05-11 17:57:23.707,1,-0.27,0.52,-0.88,-96.9798,-106.5664,26.251199999999997,175,75
2026-05-11 17:57:23.727,1,-0.27,0.51,-0.45,-90.6898,-75.4164,33.3212,175,75
2026-05-11 17:57:23.738,1,-0.15,0.54,0.1,-82.4598,-93.5864,46.791199999999996,175,75
2026-05-11 17:57:23.761,1,-0.15,0.52,0.38,-80.9998,-154.8064,39.2312,175,75
2026-05-11 17:57:23.773,1,-0.24,0.75,0.15,-90.6898,-200.16639999999998,24.8412,175,75
2026-05-11 17:57:23.773,1,-0.51,0.82,-0.15,-96.9098,-181.9364,37.7112,175,75
2026-05-11 17:57:23.784,1,-0.61,0.77,-0.29,-101.7898,-119.49640000000001,62.9512,175,75
2026-05-11 17:57:23.818,1,-0.33,0.47,0.2,-122.2798,61.843599999999995,109.3612,175,75
2026-05-11 17:57:23.828,1,-0.2,0.42,0.46,-131.0598,76.1736,116.12119999999999,175,75
2026-05-11 17:57:23.839,1,-0.07,0.31,0.6,-136.7298,79.5836,117.65119999999999,175,75
2026-05-11 17:57:23.839,1,-0.02,0.22,0.67,-142.2198,72.2736,118.2012,175,75
2026-05-11 17:57:23.861,1,0.05,-0.02,0.55,-156.8498,73.61359999999999,119.0512,175,75
2026-05-11 17:57:23.901,1,0.38,-0.05,0.65,-166.9098,105.1936,107.8912,175,75
2026-05-11 17:57:23.926,1,0.3,-1.6,0.83,-183.1298,62.6336,76.0012,175,75
2026-05-11 17:57:23.932,1,-0.5,-0.57,1.92,-141.7898,68.6736,73.2012,175,75
2026-05-11 17:57:23.947,1,5.16,-9.22,16.7,-122.0398,2020.2536,550.0312,175,75
2026-05-11 17:57:23.955,1,-8.41,-4.86,17.15,151.6802,968.1236,96.3112,175,75
2026-05-11 17:57:23.968,1,14.13,-0.94,15.0,27.230199999999996,809.1036,574.4812000000001,175,75
2026-05-11 17:57:24.032,1,-11.69,-0.56,0.85,413.3902,-1158.0364,-575.3987999999999,175,75
2026-05-11 17:57:24.044,1,-2.03,-4.02,-4.14,-410.0198,43.553599999999996,-122.9588,175,75
2026-05-11 17:57:24.056,1,-0.55,-0.69,-0.11,-151.3698,472.7636,61.9812,175,75
2026-05-11 17:57:24.066,1,0.24,-1.19,2.99,-71.90979999999999,547.2135999999999,110.3912,175,75
2026-05-11 17:57:24.100,1,-0.73,0.54,-0.79,-192.7698,-131.50639999999999,-0.7088000000000001,175,75
2026-05-11 17:57:24.111,1,-0.64,0.95,-1.12,-181.4298,5.623600000000001,35.8812,175,75
2026-05-11 17:57:26.406,1,0.11,1.57,1.1,-167.1798,-38.016400000000004,36.0712,175,75
2026-05-11 17:57:26.423,1,0.11,1.55,1.13,-157.2998,-68.7564,33.081199999999995,175,75
2026-05-11 17:57:26.433,1,0.13,1.58,1.09,-150.2898,-89.3064,35.2712,175,75
2026-05-11 17:57:26.458,1,0.29,1.58,1.06,-137.4798,-90.5164,46.4912,175,75
2026-05-11 17:57:26.478,1,-0.07,1.62,0.74,-139.1298,-126.8064,53.571200000000005,175,75
2026-05-11 17:57:26.489,1,-0.69,1.72,-0.15,-139.9798,-138.8164,58.7512,175,75
2026-05-11 17:57:26.512,1,-2.08,-0.56,5.14,41.4202,11.3736,-93.3188,175,75
2026-05-11 17:57:26.527,1,-1.7,-3.31,1.32,-59.3098,-385.94640000000004,-22.9588,175,75
2026-05-11 17:57:26.540,1,-1.33,-1.33,-0.19,-136.9298,-123.7564,-25.0288,175,75
2026-05-11 17:57:26.594,1,0.95,0.28,0.39,56.300200000000004,10.3936,-0.7588000000000008,175,75
