Time,ID,Ax,Ay,Az,Gx,Gy,Gz,Height,Weight
2026-05-09 16:31:47.793,1,0.03,-0.29,1.57,-2.1159999999999997,-1.1209999999999987,-0.21960000000000335,175,75
2026-05-09 16:31:47.817,1,0.03,-0.3,1.57,-1.936,-0.7510000000000012,0.02039999999999864,175,75
2026-05-09 16:31:47.833,1,0.03,-0.29,1.57,-2.666000000000004,-0.7510000000000012,0.14039999999999964,175,75
2026-05-09 16:31:47.839,1,0.03,-0.29,1.57,-2.7860000000000014,-1.0010000000000012,-0.21960000000000335,175,75
2026-05-09 16:31:47.852,1,0.03,-0.29,1.56,-3.0960000000000036,-1.1209999999999987,-0.3396000000000008,175,75
2026-05-09 16:31:47.875,1,0.03,-0.29,1.57,-2.7860000000000014,-0.940999999999999,-0.03960000000000008,175,75
2026-05-09 16:31:47.916,1,0.03,-0.29,1.56,-2.486000000000004,-1.0010000000000012,0.02039999999999864,175,75
2026-05-09 16:31:47.943,1,0.03,-0.3,1.56,-2.6060000000000016,-0.6310000000000002,-0.15960000000000107,175,75
2026-05-09 16:31:47.943,1,0.03,-0.29,1.56,-2.5459999999999994,-0.570999999999998,0.20039999999999836,175,75
2026-05-09 16:31:47.953,1,0.03,-0.29,1.56,-2.486000000000004,-0.7510000000000012,-0.3396000000000008,175,75
2026-05-09 16:31:47.975,1,0.04,-0.29,1.57,-2.7860000000000014,-0.820999999999998,-0.03960000000000008,175,75
2026-05-09 16:31:48.040,1,0.03,-0.3,1.56,-1.8160000000000025,-0.940999999999999,-0.27960000000000207,175,75
2026-05-09 16:31:48.060,1,0.03,-0.29,1.57,-2.0560000000000045,-0.940999999999999,-0.27960000000000207,175,75
2026-05-09 16:31:48.060,1,0.03,-0.29,1.56,-1.9960000000000022,-1.181000000000001,-0.09960000000000235,175,75
2026-05-09 16:31:48.085,1,0.03,-0.3,1.57,-2.1159999999999997,-0.690999999999999,-0.21960000000000335,175,75
2026-05-09 16:31:48.134,1,0.03,-0.3,1.56,-2.5459999999999994,-0.8810000000000002,-0.21960000000000335,175,75
2026-05-09 16:31:48.134,1,0.03,-0.29,1.57,-3.0260000000000034,-1.1209999999999987,-0.39960000000000306,175,75
2026-05-09 16:31:48.165,1,0.04,-0.3,1.57,-3.3359999999999985,-1.2409999999999997,-0.27960000000000207,175,75
2026-05-09 16:31:48.165,1,0.03,-0.3,1.56,-3.636000000000003,-1.850999999999999,-0.09960000000000235,175,75
2026-05-09 16:31:48.176,1,0.03,-0.29,1.56,-4.006,-2.160999999999998,-0.15960000000000107,175,75
2026-05-09 16:31:48.205,1,0.03,-0.3,1.58,-4.856000000000002,-2.771000000000001,-0.39960000000000306,175,75
2026-05-09 16:31:48.265,1,0.02,-0.3,1.57,-9.926000000000002,-5.881,-1.989600000000003,175,75
2026-05-09 16:31:48.265,1,0.03,-0.3,1.59,-10.956,-6.611000000000001,-2.1696000000000026,175,75
2026-05-09 16:31:48.281,1,0.02,-0.3,1.58,-12.666,-6.300999999999998,-2.839600000000001,175,75
2026-05-09 16:31:48.292,1,0.03,-0.3,1.59,-14.246000000000002,-6.550999999999998,-3.089600000000001,175,75
2026-05-09 16:31:48.303,1,0.03,-0.31,1.59,-16.016000000000002,-6.971,-3.7596000000000025,175,75
2026-05-09 16:31:48.313,1,0.03,-0.3,1.57,-17.906000000000002,-8.251000000000001,-4.119600000000002,175,75
2026-05-09 16:31:48.363,1,0.03,-0.31,1.55,-23.336,-8.620999999999999,-6.439600000000002,175,75
2026-05-09 16:31:48.374,1,0.02,-0.3,1.55,-25.596000000000004,-8.070999999999998,-7.229600000000001,175,75
2026-05-09 16:31:48.406,1,0.02,-0.29,1.55,-29.796,-3.9209999999999994,-10.529600000000002,175,75
2026-05-09 16:31:48.414,1,0.01,-0.29,1.52,-30.406000000000002,-2.4609999999999985,-11.619600000000002,175,75
2026-05-09 16:31:48.463,1,0.03,-0.3,1.52,-32.606,1.1990000000000016,-15.649600000000001,175,75
2026-05-09 16:31:48.472,1,0.05,-0.33,1.5,-37.966,0.6490000000000009,-18.029600000000002,175,75
2026-05-09 16:31:48.508,1,0.07,-0.31,1.47,-43.826,1.8689999999999998,-21.619600000000002,175,75
2026-05-09 16:31:48.537,1,0.05,-0.31,1.46,-46.996,4.309000000000001,-24.489600000000003,175,75
2026-05-09 16:31:48.563,1,0.06,-0.29,1.42,-47.726,7.779,-26.079600000000003,175,75
2026-05-09 16:31:48.582,1,0.06,-0.29,1.44,-47.846000000000004,7.108999999999998,-28.029600000000002,175,75
2026-05-09 16:31:48.593,1,0.08,-0.27,1.43,-48.156,6.748999999999999,-28.0896,175,75
2026-05-09 16:31:48.617,1,0.12,-0.24,1.29,-42.606,5.279,-27.0496,175,75
2026-05-09 16:31:48.636,1,0.13,-0.25,1.26,-37.116,8.389,-26.559600000000003,175,75
2026-05-09 16:31:48.689,1,0.12,-0.33,1.32,-12.236,10.159000000000002,-23.3896,175,75
2026-05-09 16:31:48.693,1,0.12,-0.31,1.31,-8.156000000000002,12.538999999999998,-21.7496,175,75
2026-05-09 16:31:48.714,1,0.11,-0.32,1.32,-4.246000000000002,15.529,-19.059600000000003,175,75
2026-05-09 16:31:48.750,1,0.29,-0.36,1.25,2.763999999999996,13.939000000000004,-7.049600000000002,175,75
2026-05-09 16:31:48.774,1,0.02,-0.32,1.26,22.034,40.15899999999999,-7.479600000000001,175,75
2026-05-09 16:31:48.774,1,-0.15,-0.37,1.2,24.714,57.479,-1.749600000000001,175,75
2026-05-09 16:31:48.792,1,-0.28,-0.38,1.0,22.274,99.119,11.730399999999996,175,75
2026-05-09 16:31:48.807,1,-0.32,-0.55,0.79,6.543999999999997,157.899,12.8904,175,75
2026-05-09 16:31:48.854,1,-0.44,-1.22,-0.19,-142.056,196.49900000000002,28.3804,175,75
2026-05-09 16:31:48.854,1,-0.38,-1.12,0.35,-155.346,237.77900000000002,58.920399999999994,175,75
2026-05-09 16:31:48.896,1,0.02,-1.45,0.51,-289.316,69.729,63.560399999999994,175,75
2026-05-09 16:31:48.949,1,0.02,-1.39,0.41,-320.656,30.159000000000002,66.2404,175,75
2026-05-09 16:31:48.949,1,0.06,-1.32,0.4,-329.06600000000003,23.639,71.00039999999998,175,75
2026-05-09 16:31:48.971,1,0.27,-0.95,0.68,-347.356,7.839000000000002,82.03039999999999,175,75
2026-05-09 16:31:49.006,1,0.4,-0.47,1.06,-331.326,-9.350999999999999,91.4904,175,75
2026-05-09 16:31:49.030,1,0.43,-0.15,1.44,-307.846,-45.691,85.5704,175,75
2026-05-09 16:31:49.083,1,0.41,-0.1,1.46,-299.676,-49.781,83.38040000000001,175,75
2026-05-09 16:31:49.112,1,0.33,0.2,1.63,-218.51600000000002,-33.191,70.1404,175,75
2026-05-09 16:31:49.135,1,0.31,0.38,1.65,-173.82600000000002,-1.5509999999999984,66.18039999999999,175,75
2026-05-09 16:31:49.157,1,0.39,0.59,1.93,-98.156,46.07899999999999,54.720400000000005,175,75
2026-05-09 16:31:49.168,1,0.41,0.66,2.03,-66.936,55.218999999999994,47.64039999999999,175,75
2026-05-09 16:31:49.195,1,0.44,0.75,2.14,13.183999999999997,47.479,21.910399999999996,175,75
2026-05-09 16:31:49.216,1,0.42,0.74,2.08,44.224,37.419,10.200399999999995,175,75
2026-05-09 16:31:49.242,1,0.35,0.63,1.89,122.57399999999998,29.119000000000003,-13.389600000000002,175,75
2026-05-09 16:31:49.294,1,0.26,0.42,1.67,195.32399999999998,15.279,-32.5996,175,75
2026-05-09 16:31:49.306,1,0.22,0.39,1.61,212.034,22.419,-35.949600000000004,175,75
2026-05-09 16:31:49.306,1,0.21,0.35,1.61,223.86399999999998,28.328999999999997,-37.4196,175,75
2026-05-09 16:31:49.360,1,0.22,0.09,1.65,275.074,22.479000000000003,-36.1396,175,75
2026-05-09 16:31:49.370,1,0.24,0.04,1.66,285.074,16.379,-37.659600000000005,175,75
2026-05-09 16:31:49.404,1,0.25,-0.29,1.6,322.514,-9.410999999999998,-52.5996,175,75
2026-05-09 16:31:49.414,1,0.23,-0.45,1.6,348.924,0.2190000000000012,-59.6696,175,75
2026-05-09 16:31:49.447,1,0.17,-0.53,1.62,362.574,-1.2409999999999997,-57.839600000000004,175,75
2026-05-09 16:31:49.457,1,0.14,-0.67,1.77,376.174,-47.101,-49.119600000000005,175,75
2026-05-09 16:31:49.468,1,0.07,-0.82,1.87,383.254,-72.711,-53.8196,175,75
2026-05-09 16:31:49.476,1,0.06,-1.13,1.87,398.734,-100.51100000000001,-68.2096,175,75
2026-05-09 16:31:49.501,1,-0.0,-1.44,1.91,418.734,-141.851,-79.7296,175,75
2026-05-09 16:31:49.502,1,-0.16,-1.76,1.71,425.93399999999997,-199.47099999999998,-80.8896,175,75
2026-05-09 16:31:49.512,1,-2.07,-5.28,-7.57,276.174,-825.511,-541.3196,175,75
2026-05-09 16:31:49.543,1,-5.49,-1.7,-3.8,85.01400000000001,637.779,-24.8596,175,75
2026-05-09 16:31:49.557,1,0.55,-0.8,0.86,47.764,8.759000000000004,68.9204,175,75
2026-05-09 16:31:49.606,1,0.38,-0.05,0.29,-41.076,35.649,69.78039999999999,175,75
2026-05-09 16:31:49.655,1,-0.07,-0.08,1.19,1.4840000000000018,0.6490000000000009,29.1104,175,75
2026-05-09 16:31:49.682,1,-0.18,-0.16,1.43,9.893999999999998,19.608999999999998,25.020399999999995,175,75
2026-05-09 16:31:49.689,1,-0.13,-0.2,1.46,6.723999999999997,13.389,20.6304,175,75
2026-05-09 16:31:49.733,1,0.02,-0.39,1.5,-5.106000000000002,-0.8810000000000002,10.750399999999999,175,75
2026-05-09 16:31:49.739,1,0.07,-0.44,1.44,-10.046,-6.670999999999999,7.2804,175,75
2026-05-09 16:31:49.761,1,0.14,-0.39,1.39,-14.676000000000002,-7.890999999999998,5.810400000000001,175,75
2026-05-09 16:31:49.772,1,0.13,-0.33,1.37,-16.996000000000002,-8.800999999999998,5.080399999999997,175,75
2026-05-09 16:31:49.783,1,0.1,-0.28,1.37,-19.066000000000003,-9.901,5.200399999999995,175,75
2026-05-09 16:31:49.794,1,0.09,-0.26,1.39,-22.116,-8.921,5.200399999999995,175,75
2026-05-09 16:31:49.805,1,0.12,-0.27,1.43,-21.936,-7.8309999999999995,4.470399999999998,175,75
2026-05-09 16:31:49.816,1,0.15,-0.32,1.42,-23.886000000000003,-12.100999999999999,1.3003999999999998,175,75
2026-05-09 16:31:49.835,1,0.16,-0.36,1.37,-26.076,-15.571,0.8103999999999978,175,75
2026-05-09 16:31:49.845,1,0.16,-0.35,1.32,-27.666,-13.620999999999999,1.1203999999999965,175,75
2026-05-09 16:31:49.845,1,0.14,-0.31,1.3,-28.216,-12.641,1.6103999999999985,175,75
2026-05-09 16:31:49.879,1,0.03,-0.17,1.27,-24.186,-6.550999999999998,7.6404,175,75
2026-05-09 16:31:49.916,1,0.05,-0.21,1.35,-15.776,-3.070999999999998,9.5304,175,75
2026-05-09 16:31:50.029,1,0.02,-0.22,1.24,-27.786,-8.070999999999998,4.290399999999998,175,75
2026-05-09 16:31:50.052,1,0.05,-0.25,1.24,-23.156,-6.420999999999999,2.8903999999999996,175,75
2026-05-09 16:31:50.099,1,0.05,-0.25,1.22,-19.066000000000003,-6.491,4.170400000000001,175,75
2026-05-09 16:31:50.110,1,0.05,-0.24,1.25,-18.156000000000002,-6.361000000000001,5.080399999999997,175,75
2026-05-09 16:31:50.142,1,0.02,-0.26,1.23,-18.156000000000002,-7.401,2.8303999999999974,175,75
2026-05-09 16:31:50.142,1,0.03,-0.25,1.23,-18.096,-6.730999999999998,2.4003999999999976,175,75
2026-05-09 16:31:50.177,1,-0.01,-0.2,1.23,-11.566000000000003,-5.2109999999999985,1.3603999999999985,175,75
2026-05-09 16:31:50.210,1,0.0,-0.21,1.19,-6.4460000000000015,-5.690999999999999,-0.21960000000000335,175,75
2026-05-09 16:31:50.249,1,0.06,-0.27,1.17,0.013999999999995794,-5.0809999999999995,-2.4796000000000014,175,75
2026-05-09 16:31:50.260,1,0.07,-0.27,1.17,1.2340000000000018,-4.841000000000001,-1.989600000000003,175,75
2026-05-09 16:31:50.260,1,0.1,-0.27,1.19,1.4840000000000018,-5.4510000000000005,-2.3596000000000004,175,75
2026-05-09 16:31:50.295,1,0.01,-0.27,1.24,-0.8359999999999985,-7.640999999999998,-6.929600000000001,175,75
2026-05-09 16:31:50.308,1,0.01,-0.27,1.22,-1.0760000000000005,-7.8309999999999995,-8.149600000000003,175,75
2026-05-09 16:31:50.323,1,0.02,-0.26,1.21,-0.9560000000000031,-6.611000000000001,-9.059600000000003,175,75
2026-05-09 16:31:50.323,1,0.04,-0.26,1.22,-0.4660000000000011,-5.820999999999998,-9.489600000000003,175,75
2026-05-09 16:31:50.395,1,0.03,-0.24,1.27,-2.1159999999999997,-6.670999999999999,-14.859600000000002,175,75
2026-05-09 16:31:50.405,1,0.0,-0.25,1.23,-3.706000000000003,-7.030999999999999,-17.779600000000002,175,75
2026-05-09 16:31:50.405,1,0.01,-0.25,1.24,-3.886000000000003,-5.940999999999999,-18.269600000000004,175,75
2026-05-09 16:31:50.414,1,0.03,-0.24,1.25,-4.376000000000001,-5.510999999999999,-18.9996,175,75
2026-05-09 16:31:50.454,1,0.06,-0.25,1.19,-0.045999999999999375,-8.011,-23.879600000000003,175,75
2026-05-09 16:31:50.466,1,0.08,-0.25,1.21,1.054000000000002,-7.401,-23.699600000000004,175,75
2026-05-09 16:31:50.466,1,0.08,-0.26,1.19,1.9039999999999964,-7.280999999999999,-23.879600000000003,175,75
2026-05-09 16:31:50.486,1,0.1,-0.25,1.2,3.554000000000002,-7.4609999999999985,-23.2696,175,75
2026-05-09 16:31:50.496,1,0.1,-0.25,1.2,4.223999999999997,-8.381,-23.2696,175,75
2026-05-09 16:31:50.507,1,0.1,-0.24,1.22,4.653999999999996,-8.131,-22.599600000000002,175,75
2026-05-09 16:31:50.518,1,0.11,-0.27,1.22,5.323999999999998,-7.5809999999999995,-23.0896,175,75
2026-05-09 16:31:50.518,1,0.12,-0.28,1.21,5.384,-7.160999999999998,-23.9996,175,75
2026-05-09 16:31:50.547,1,0.14,-0.28,1.23,5.814,-9.050999999999998,-22.7196,175,75
2026-05-09 16:31:50.562,1,0.12,-0.28,1.22,5.9339999999999975,-9.960999999999999,-23.209600000000002,175,75
2026-05-09 16:31:50.574,1,0.06,-0.3,1.21,8.064,-7.221,-21.009600000000002,175,75
2026-05-09 16:31:50.585,1,-0.03,-0.33,1.25,12.454,2.719000000000001,-17.0496,175,75
2026-05-09 16:31:50.596,1,-0.11,-0.35,1.31,16.844,7.358999999999998,-7.659600000000001,175,75
2026-05-09 16:31:50.608,1,0.38,-0.4,1.29,12.704,17.538999999999998,14.110399999999998,175,75
2026-05-09 16:31:50.619,1,0.27,-0.51,1.2,10.384,-2.160999999999998,-15.709600000000002,175,75
2026-05-09 16:31:50.619,1,0.16,-0.41,1.24,13.253999999999998,12.288999999999998,-18.3896,175,75
2026-05-09 16:31:50.630,1,0.23,-0.56,1.33,8.924,15.589000000000002,-19.189600000000002,175,75
2026-05-09 16:31:50.646,1,0.18,-0.65,1.47,4.344000000000001,8.818999999999999,-25.4696,175,75
2026-05-09 16:31:50.675,1,0.14,-0.56,1.54,-17.966,-6.550999999999998,-22.599600000000002,175,75
2026-05-09 16:31:50.675,1,0.17,-0.48,1.54,-24.376,-18.621,-23.209600000000002,175,75
2026-05-09 16:31:50.699,1,0.16,-0.47,1.43,-28.216,-41.611,-21.3196,175,75
2026-05-09 16:31:50.699,1,0.21,-0.54,1.27,-30.406000000000002,-49.661,-24.309600000000003,175,75
2026-05-09 16:31:50.727,1,-0.0,-0.67,0.86,-50.346000000000004,-64.411,-24.309600000000003,175,75
2026-05-09 16:31:50.755,1,-0.15,-0.72,0.37,-81.26599999999999,-96.551,-23.939600000000002,175,75
2026-05-09 16:31:50.764,1,-0.34,-0.98,-0.26,-136.266,-127.34100000000001,-27.6596,175,75
2026-05-09 16:31:50.764,1,-0.64,-1.14,-0.54,-155.226,-45.451,3.680399999999999,175,75
2026-05-09 16:31:50.788,1,-0.16,-1.13,0.12,-193.276,9.788999999999998,38.6204,175,75
2026-05-09 16:31:50.799,1,-0.05,-0.94,0.17,-230.776,14.919,36.5504,175,75
2026-05-09 16:31:50.799,1,0.02,-0.72,0.22,-244.376,44.54899999999999,42.03039999999999,175,75
2026-05-09 16:31:50.835,1,0.16,-0.62,0.51,-238.82600000000002,59.669,47.580400000000004,175,75
2026-05-09 16:31:50.867,1,0.45,-0.12,1.38,-230.04600000000002,9.489,29.6004,175,75
2026-05-09 16:31:50.880,1,0.44,0.06,1.49,-221.01600000000002,0.4690000000000012,24.5304,175,75
2026-05-09 16:31:50.892,1,0.43,0.17,1.61,-209.73600000000002,-1.181000000000001,21.120399999999997,175,75
2026-05-09 16:31:50.905,1,0.44,0.31,1.87,-183.57600000000002,-2.160999999999998,17.2804,175,75
2026-05-09 16:31:50.917,1,0.47,0.44,2.06,-151.076,-5.510999999999999,12.1004,175,75
2026-05-09 16:31:50.928,1,0.49,0.49,2.15,-127.606,-4.050999999999998,9.230399999999996,175,75
2026-05-09 16:31:50.938,1,0.49,0.61,2.34,-76.136,-3.1310000000000002,5.450399999999995,175,75
2026-05-09 16:31:50.962,1,0.48,0.76,2.44,-2.7860000000000014,-1.6110000000000007,-2.1696000000000026,175,75
2026-05-09 16:31:50.974,1,0.47,0.79,2.43,33.374,0.2789999999999999,-4.799600000000002,175,75
2026-05-09 16:31:51.042,1,0.36,0.78,2.32,99.04399999999998,-0.021000000000000796,-8.639600000000002,175,75
2026-05-09 16:31:51.042,1,0.33,0.75,2.31,129.894,-3.681000000000001,-9.799600000000002,175,75
2026-05-09 16:31:51.087,1,0.22,0.52,2.02,230.074,-41.001,-19.119600000000002,175,75
2026-05-09 16:31:51.103,1,0.27,0.51,1.92,241.54399999999998,-55.271,-22.169600000000003,175,75
2026-05-09 16:31:51.151,1,-3.06,-1.17,-3.31,245.93399999999997,-671.851,-289.7296,175,75
2026-05-09 16:31:51.165,1,-3.82,-10.29,-8.94,265.56399999999996,-188.62099999999998,440.81039999999996,175,75
2026-05-09 16:31:51.182,1,-2.16,0.59,4.34,-221.746,702.359,12.830399999999997,175,75
2026-05-09 16:31:51.200,1,1.53,-1.02,5.45,-376.746,322.359,77.28039999999999,175,75
2026-05-09 16:31:51.251,1,0.05,0.16,-0.79,-64.436,-18.320999999999998,36.5504,175,75
2026-05-09 16:31:51.302,1,0.12,-0.03,0.88,-46.386,-6.791,15.880400000000002,175,75
2026-05-09 16:31:51.314,1,0.13,-0.01,0.88,-43.456,-14.291,11.6704,175,75
2026-05-09 16:31:51.325,1,-0.0,0.03,0.88,-41.136,-20.570999999999998,8.440399999999997,175,75
2026-05-09 16:31:51.356,1,-0.25,-0.06,1.04,-31.626,-10.751,8.620399999999997,175,75
2026-05-09 16:31:51.365,1,-0.16,-0.27,1.1,-32.486000000000004,-2.341000000000001,7.950399999999995,175,75
2026-05-09 16:31:51.377,1,-0.05,-0.36,1.02,-34.926,-4.901,5.330399999999997,175,75
2026-05-09 16:31:51.388,1,0.02,-0.36,0.95,-35.716,-8.991,1.7303999999999995,175,75
2026-05-09 16:31:51.399,1,0.01,-0.34,1.02,-34.736000000000004,-11.181,0.02039999999999864,175,75
2026-05-09 16:31:51.408,1,-0.05,-0.28,1.03,-38.576,-13.741,-4.059600000000003,175,75
2026-05-09 16:31:51.428,1,-0.07,-0.19,1.0,-43.336,-15.141,-6.869600000000002,175,75
2026-05-09 16:31:51.439,1,-0.06,-0.12,0.96,-43.396,-15.940999999999999,-9.059600000000003,175,75
2026-05-09 16:31:51.439,1,-0.07,-0.05,0.94,-42.666000000000004,-16.360999999999997,-10.649600000000003,175,75
2026-05-09 16:31:51.464,1,-0.05,-0.04,0.93,-41.076,-17.711,-14.059600000000001,175,75
2026-05-09 16:31:51.478,1,-0.05,-0.04,0.94,-40.286,-18.381,-15.889600000000002,175,75
2026-05-09 16:31:51.489,1,-0.04,-0.06,0.92,-41.326,-21.851,-20.1596,175,75
2026-05-09 16:31:51.511,1,0.0,-0.09,0.94,-41.386,-27.891,-26.379600000000003,175,75
2026-05-09 16:31:51.511,1,-0.0,-0.09,0.93,-41.936,-32.771,-29.8596,175,75
2026-05-09 16:31:51.532,1,0.03,-0.05,0.92,-41.626000000000005,-39.531,-34.7996,175,75
2026-05-09 16:31:51.542,1,0.03,-0.02,0.92,-42.606,-45.821,-38.8796,175,75
2026-05-09 16:31:51.587,1,-0.03,0.01,0.89,-43.946,-63.191,-48.8196,175,75
2026-05-09 16:31:51.587,1,-0.06,0.0,0.88,-44.616,-65.271,-50.8296,175,75
2026-05-09 16:31:51.612,1,-0.07,-0.04,0.9,-44.676,-64.721,-54.0596,175,75
2026-05-09 16:31:51.615,1,-0.06,-0.04,0.88,-45.956,-65.571,-56.259600000000006,175,75
2026-05-09 16:31:51.628,1,-0.05,-0.06,0.88,-45.776,-65.271,-57.7796,175,75
2026-05-09 16:31:51.668,1,-0.05,-0.08,0.9,-46.076,-66.06099999999999,-58.449600000000004,175,75
2026-05-09 16:31:51.668,1,-0.05,-0.07,0.89,-46.746,-68.381,-59.7996,175,75
2026-05-09 16:31:51.674,1,-0.1,-0.08,0.88,-47.116,-68.741,-60.339600000000004,175,75
2026-05-09 16:31:51.685,1,-0.1,-0.08,0.88,-46.996,-68.741,-60.5296,175,75
2026-05-09 16:31:51.685,1,-0.11,-0.07,0.89,-47.356,-68.191,-61.1396,175,75
2026-05-09 16:31:51.696,1,-0.13,-0.03,0.84,-47.846000000000004,-66.121,-62.7196,175,75
2026-05-09 16:31:51.727,1,-0.13,-0.01,0.83,-45.106,-59.17100000000001,-62.7196,175,75
2026-05-09 16:31:51.748,1,-0.04,0.07,0.76,-38.026,-46.181,-64.5496,175,75
2026-05-09 16:31:51.770,1,0.0,0.04,0.83,-36.936,-43.561,-63.3896,175,75
2026-05-09 16:31:51.793,1,-0.11,0.04,0.83,-40.896,-56.241,-58.9996,175,75
2026-05-09 16:31:51.806,1,-0.16,0.03,0.83,-41.686,-54.230999999999995,-57.7796,175,75
2026-05-09 16:31:51.814,1,-0.15,0.01,0.82,-42.236000000000004,-52.461,-56.0796,175,75
2026-05-09 16:31:51.834,1,-0.16,-0.01,0.81,-41.686,-48.501000000000005,-54.8596,175,75
2026-05-09 16:31:51.852,1,-0.14,-0.05,0.81,-41.326,-43.921,-54.1896,175,75
2026-05-09 16:31:51.852,1,-0.12,-0.06,0.81,-41.266,-41.551,-52.229600000000005,175,75
2026-05-09 16:31:51.871,1,-0.08,-0.04,0.81,-44.736000000000004,-40.881,-48.5796,175,75
2026-05-09 16:31:51.904,1,-0.06,0.05,0.8,-45.836,-38.381,-44.8596,175,75
2026-05-09 16:31:51.933,1,-0.06,0.1,0.78,-47.176,-40.211,-43.6396,175,75
2026-05-09 16:31:51.933,1,-0.09,0.1,0.76,-47.486000000000004,-40.631,-42.1096,175,75
2026-05-09 16:31:51.988,1,-0.08,0.09,0.7,-49.856,-30.941,-37.4196,175,75
2026-05-09 16:31:52.000,1,0.01,0.07,0.71,-46.626000000000005,-27.581,-39.0596,175,75
2026-05-09 16:31:52.011,1,0.01,0.09,0.71,-46.746,-28.500999999999998,-39.369600000000005,175,75
2026-05-09 16:31:52.033,1,0.01,0.15,0.73,-46.136,-30.820999999999998,-39.2496,175,75
2026-05-09 16:31:52.090,1,-0.15,0.2,0.65,-34.316,-21.911,-32.229600000000005,175,75
2026-05-09 16:31:52.091,1,-0.13,0.2,0.65,-32.296,-17.581,-30.219600000000003,175,75
2026-05-09 16:31:52.102,1,-0.11,0.19,0.67,-31.076,-15.391,-27.419600000000003,175,75
2026-05-09 16:31:52.114,1,-0.08,0.17,0.68,-30.166,-14.600999999999999,-25.2196,175,75
2026-05-09 16:31:52.125,1,-0.06,0.17,0.67,-29.496000000000002,-14.411,-23.449600000000004,175,75
2026-05-09 16:31:52.125,1,-0.05,0.16,0.68,-28.886000000000003,-13.860999999999999,-21.809600000000003,175,75
2026-05-09 16:31:52.137,1,-0.07,0.16,0.68,-28.826,-15.391,-20.769600000000004,175,75
2026-05-09 16:31:52.159,1,-0.1,0.2,0.68,-27.546,-12.950999999999999,-17.2996,175,75
2026-05-09 16:31:52.170,1,-0.12,0.18,0.67,-27.116,-12.581,-15.529600000000002,175,75
2026-05-09 16:31:52.242,1,-0.08,0.19,0.65,-26.936,-6.491,-9.249600000000001,175,75
2026-05-09 16:31:52.242,1,-0.08,0.22,0.65,-25.956000000000003,-6.241,-9.249600000000001,175,75
2026-05-09 16:31:52.254,1,-0.09,0.22,0.64,-25.836,-4.660999999999998,-9.799600000000002,175,75
2026-05-09 16:31:52.264,1,-0.08,0.24,0.67,-25.046,0.6490000000000009,-7.779600000000002,175,75
2026-05-09 16:31:52.282,1,-0.05,0.23,0.67,-25.526000000000003,1.3790000000000013,-6.439600000000002,175,75
2026-05-09 16:31:52.294,1,-0.05,0.24,0.63,-26.816000000000003,-0.2710000000000008,-6.689600000000002,175,75
2026-05-09 16:31:52.294,1,-0.05,0.23,0.63,-26.386000000000003,0.3390000000000022,-6.869600000000002,175,75
2026-05-09 16:31:52.323,1,-0.07,0.23,0.66,-26.816000000000003,0.8889999999999993,-5.589600000000001,175,75
2026-05-09 16:31:52.347,1,-0.07,0.22,0.66,-26.746000000000002,1.559000000000001,-4.489600000000003,175,75
2026-05-09 16:31:52.357,1,-0.09,0.23,0.63,-27.356,0.03900000000000148,-2.899600000000003,175,75
2026-05-09 16:31:52.369,1,-0.1,0.21,0.64,-27.846000000000004,1.679000000000002,-1.749600000000001,175,75
2026-05-09 16:31:52.380,1,-0.08,0.21,0.64,-26.876,2.2890000000000015,-0.9496000000000002,175,75
2026-05-09 16:31:52.391,1,-0.05,0.21,0.62,-26.626,1.4989999999999988,-1.8096000000000032,175,75
2026-05-09 16:31:52.391,1,-0.02,0.24,0.65,-28.026,-0.3309999999999995,-3.089600000000001,175,75
2026-05-09 16:31:52.405,1,-0.03,0.26,0.64,-29.986,-2.7109999999999985,-4.369600000000002,175,75
2026-05-09 16:31:52.415,1,-0.04,0.29,0.64,-30.836000000000002,-3.561,-3.149600000000003,175,75
2026-05-09 16:31:52.428,1,-0.02,0.33,0.64,-31.566000000000003,-5.3309999999999995,-3.329600000000003,175,75
2026-05-09 16:31:52.442,1,-0.02,0.33,0.63,-32.356,-5.271000000000001,-3.089600000000001,175,75
2026-05-09 16:31:52.444,1,-0.03,0.34,0.61,-33.026,-5.271000000000001,-3.5096000000000025,175,75
2026-05-09 16:31:52.454,1,-0.03,0.32,0.62,-33.636,-6.420999999999999,-3.939600000000002,175,75
2026-05-09 16:31:52.472,1,-0.01,0.3,0.63,-34.186,-7.7109999999999985,-4.489600000000003,175,75
2026-05-09 16:31:52.493,1,0.02,0.27,0.62,-35.286,-11.360999999999999,-5.8896000000000015,175,75
2026-05-09 16:31:52.511,1,0.03,0.29,0.59,-35.716,-14.231,-5.9496,175,75
2026-05-09 16:31:52.511,1,0.01,0.29,0.6,-35.466,-15.940999999999999,-4.249600000000001,175,75
2026-05-09 16:31:52.525,1,-0.01,0.3,0.61,-35.956,-17.771,-2.4796000000000014,175,75
2026-05-09 16:31:52.538,1,-0.06,0.34,0.6,-35.896,-19.231,-1.2596000000000025,175,75
2026-05-09 16:31:52.550,1,-0.09,0.38,0.6,-36.076,-19.411,-0.27960000000000207,175,75
2026-05-09 16:31:52.561,1,-0.19,0.41,0.6,-34.616,-15.081,1.5503999999999998,175,75
2026-05-09 16:31:52.595,1,-0.15,0.49,0.64,-35.046,-2.771000000000001,10.810400000000001,175,75
2026-05-09 16:31:52.635,1,-0.06,0.47,0.58,-34.556000000000004,-1.3009999999999984,9.110399999999998,175,75
2026-05-09 16:31:52.635,1,0.03,0.44,0.58,-33.886,-1.1209999999999987,8.310400000000001,175,75
2026-05-09 16:31:52.681,1,0.06,0.41,0.57,-34.796,-19.291,2.2804,175,75
2026-05-09 16:31:52.692,1,0.01,0.42,0.57,-35.716,-23.921,2.5803999999999974,175,75
2026-05-09 16:31:52.692,1,-0.11,0.48,0.55,-36.076,-27.521,2.1004000000000005,175,75
2026-05-09 16:31:52.695,1,-0.16,0.51,0.59,-35.226,-23.320999999999998,2.700399999999995,175,75
2026-05-09 16:31:52.745,1,-0.25,0.56,0.61,-34.316,-18.991,9.1704,175,75
2026-05-09 16:31:52.793,1,-0.02,0.53,0.54,-29.066000000000003,-6.361000000000001,24.290399999999998,175,75
2026-05-09 16:31:52.793,1,-0.0,0.51,0.53,-28.636000000000003,-10.331,22.400399999999998,175,75
2026-05-09 16:31:53.048,1,-0.11,0.48,0.53,-28.096,-15.331,20.8804,175,75
2026-05-09 16:31:53.048,1,-0.14,0.56,0.56,-24.066000000000003,-22.031,33.0704,175,75
2026-05-09 16:31:53.048,1,-0.17,0.56,0.56,-24.676000000000002,-22.951,33.0704,175,75
2026-05-09 16:31:53.048,1,-0.17,0.56,0.56,-24.186,-21.241,32.5804,175,75
2026-05-09 16:31:53.048,1,-0.12,0.57,0.55,-19.126,-22.401,32.6404,175,75
2026-05-09 16:31:53.048,1,-0.15,0.58,0.55,-19.066000000000003,-25.751,31.1804,175,75
2026-05-09 16:31:53.141,1,-0.33,0.62,0.58,-20.226,-24.471,28.0704,175,75
2026-05-09 16:31:53.141,1,-0.29,0.62,0.54,-18.026,-19.781,27.1004,175,75
2026-05-09 16:31:53.141,1,-0.24,0.63,0.52,-15.656000000000002,-15.450999999999999,27.1004,175,75
2026-05-09 16:31:53.282,1,-0.26,0.65,0.58,-16.076,-18.621,12.220399999999998,175,75
2026-05-09 16:31:53.283,1,-0.27,0.65,0.58,-16.816000000000003,-18.191,9.720399999999998,175,75
2026-05-09 16:31:53.283,1,-0.31,0.66,0.56,-16.016000000000002,-10.140999999999998,5.510399999999997,175,75
2026-05-09 16:31:53.283,1,-0.3,0.67,0.57,-15.046,-8.741,4.6004000000000005,175,75
2026-05-09 16:31:53.288,1,-0.25,0.66,0.53,-10.896,-5.021000000000001,-4.6096,175,75
2026-05-09 16:31:53.288,1,-0.24,0.67,0.53,-9.496000000000002,-4.660999999999998,-6.2596000000000025,175,75
2026-05-09 16:31:53.356,1,-0.27,0.69,0.57,-6.686,-6.420999999999999,-8.939600000000002,175,75
2026-05-09 16:31:53.426,1,-0.27,0.67,0.56,-1.8160000000000025,-6.910999999999998,-3.209600000000002,175,75
2026-05-09 16:31:53.426,1,-0.28,0.67,0.58,-0.8359999999999985,-6.611000000000001,-2.3596000000000004,175,75
2026-05-09 16:31:53.426,1,-0.29,0.67,0.58,-0.4059999999999988,-6.791,-2.1096000000000004,175,75
2026-05-09 16:31:53.465,1,-0.27,0.65,0.57,1.543999999999997,-2.9510000000000005,-0.7096000000000018,175,75
2026-05-09 16:31:53.485,1,-0.27,0.65,0.57,1.7239999999999966,-3.440999999999999,-1.4396000000000022,175,75
2026-05-09 16:31:53.748,1,-0.28,0.66,0.57,1.1139999999999972,-4.410999999999998,-1.8096000000000032,175,75
2026-05-09 16:31:53.748,1,-0.31,0.66,0.59,0.6839999999999975,-2.7109999999999985,-0.6496000000000031,175,75
2026-05-09 16:31:53.748,1,-0.31,0.66,0.58,0.8740000000000023,-1.5509999999999984,0.02039999999999864,175,75
2026-05-09 16:31:53.748,1,-0.3,0.65,0.59,0.6839999999999975,-0.6310000000000002,0.8103999999999978,175,75
2026-05-09 16:31:53.748,1,-0.3,0.66,0.59,0.9939999999999998,0.2190000000000012,1.1203999999999965,175,75
2026-05-09 16:31:53.749,1,-0.29,0.65,0.58,1.054000000000002,0.2190000000000012,2.220399999999998,175,75
2026-05-09 16:31:53.749,1,-0.29,0.65,0.57,1.1739999999999995,-0.4510000000000005,2.770399999999995,175,75
2026-05-09 16:31:53.749,1,-0.29,0.65,0.57,1.1739999999999995,-0.4510000000000005,2.700399999999995,175,75
2026-05-09 16:31:53.749,1,-0.29,0.65,0.59,1.293999999999997,-0.39099999999999824,3.010399999999997,175,75
2026-05-09 16:31:53.749,1,-0.27,0.65,0.57,2.033999999999999,0.2190000000000012,3.9204000000000008,175,75
2026-05-09 16:31:53.749,1,-0.26,0.65,0.57,2.4540000000000006,0.2789999999999999,3.990400000000001,175,75
2026-05-09 16:31:53.749,1,-0.26,0.65,0.57,2.3939999999999984,-0.5109999999999992,3.740400000000001,175,75
2026-05-09 16:31:53.825,1,-0.28,0.65,0.59,1.7239999999999966,-2.771000000000001,3.3104000000000013,175,75
2026-05-09 16:31:53.825,1,-0.29,0.66,0.59,1.4840000000000018,-2.771000000000001,3.8003999999999962,175,75
2026-05-09 16:31:53.825,1,-0.3,0.66,0.59,1.3639999999999972,-3.190999999999999,3.440399999999997,175,75
2026-05-09 16:31:53.825,1,-0.29,0.65,0.58,2.6439999999999984,-4.600999999999999,3.3804000000000016,175,75
2026-05-09 16:31:53.891,1,-0.29,0.64,0.57,2.274000000000001,-4.780999999999999,3.010399999999997,175,75
2026-05-09 16:31:53.891,1,-0.3,0.63,0.57,3.9239999999999995,-4.170999999999999,2.4003999999999976,175,75
2026-05-09 16:31:53.928,1,-0.3,0.63,0.58,4.774000000000001,-3.8610000000000007,1.970399999999998,175,75
2026-05-09 16:31:53.961,1,-0.31,0.64,0.58,4.833999999999996,-3.440999999999999,1.6703999999999972,175,75
2026-05-09 16:31:54.162,1,-0.31,0.63,0.58,5.323999999999998,-2.8309999999999995,2.4003999999999976,175,75
2026-05-09 16:31:54.162,1,-0.31,0.62,0.59,5.4439999999999955,-2.280999999999999,2.2804,175,75
2026-05-09 16:31:54.162,1,-0.31,0.63,0.59,4.893999999999998,-1.5509999999999984,1.850399999999997,175,75
2026-05-09 16:31:54.162,1,-0.32,0.63,0.59,5.143999999999998,0.0990000000000002,1.970399999999998,175,75
2026-05-09 16:31:54.162,1,-0.32,0.62,0.6,3.863999999999997,0.7690000000000019,2.220399999999998,175,75
2026-05-09 16:31:54.162,1,-0.32,0.63,0.6,3.3740000000000023,1.439,2.1004000000000005,175,75
2026-05-09 16:31:54.162,1,-0.32,0.63,0.6,2.7040000000000006,1.4989999999999988,1.970399999999998,175,75
2026-05-09 16:31:54.162,1,-0.31,0.62,0.59,0.6240000000000023,4.5489999999999995,1.4903999999999975,175,75
2026-05-09 16:31:54.162,1,-0.3,0.62,0.58,0.20400000000000063,4.309000000000001,1.4203999999999972,175,75
2026-05-09 16:31:54.319,1,-0.28,0.62,0.58,0.2639999999999958,4.609000000000002,-0.15960000000000107,175,75
2026-05-09 16:31:54.319,1,-0.28,0.62,0.57,-0.045999999999999375,4.248999999999999,-0.15960000000000107,175,75
2026-05-09 16:31:54.319,1,-0.28,0.63,0.57,1.293999999999997,1.929000000000002,1.000399999999999,175,75
2026-05-09 16:31:54.319,1,-0.27,0.62,0.58,1.543999999999997,1.7489999999999988,1.5503999999999998,175,75
2026-05-09 16:31:54.319,1,-0.28,0.62,0.57,1.9039999999999964,1.2590000000000003,1.7903999999999982,175,75
2026-05-09 16:31:54.319,1,-0.27,0.61,0.58,1.9739999999999966,1.4989999999999988,2.520399999999995,175,75
2026-05-09 16:31:54.320,1,-0.27,0.61,0.59,2.2139999999999986,1.1389999999999993,3.6203999999999965,175,75
2026-05-09 16:31:54.320,1,-0.28,0.6,0.57,2.573999999999998,0.5890000000000022,3.440399999999997,175,75
2026-05-09 16:31:54.400,1,-0.27,0.6,0.58,0.9939999999999998,-1.2409999999999997,3.440399999999997,175,75
2026-05-09 16:31:54.400,1,-0.27,0.59,0.58,-0.10600000000000165,-1.850999999999999,3.9204000000000008,175,75
2026-05-09 16:31:54.529,1,-0.27,0.61,0.58,-1.1360000000000028,-3.320999999999998,5.020399999999995,175,75
2026-05-09 16:31:54.529,1,-0.28,0.61,0.58,-1.3260000000000005,-3.7409999999999997,5.080399999999997,175,75
2026-05-09 16:31:54.529,1,-0.27,0.61,0.59,-1.5660000000000025,-3.7409999999999997,5.630400000000002,175,75
2026-05-09 16:31:54.530,1,-0.27,0.62,0.58,-1.9960000000000022,-3.9209999999999994,5.630400000000002,175,75
2026-05-09 16:31:54.530,1,-0.27,0.61,0.58,-1.936,-4.111000000000001,5.810400000000001,175,75
2026-05-09 16:31:54.530,1,-0.28,0.61,0.58,-1.445999999999998,-4.721,5.810400000000001,175,75
2026-05-09 16:31:54.580,1,-0.3,0.62,0.58,-0.7160000000000011,-4.721,4.900399999999998,175,75
2026-05-09 16:31:54.580,1,-0.31,0.62,0.59,-0.10600000000000165,-4.721,4.900399999999998,175,75
2026-05-09 16:31:54.709,1,-0.32,0.61,0.6,1.4239999999999995,-0.5109999999999992,2.4003999999999976,175,75
2026-05-09 16:31:54.730,1,-0.32,0.61,0.59,1.1139999999999972,-0.08099999999999952,1.3603999999999985,175,75
2026-05-09 16:31:54.740,1,-0.31,0.6,0.58,1.054000000000002,0.3390000000000022,1.5503999999999998,175,75
2026-05-09 16:31:54.757,1,-0.3,0.6,0.59,0.5640000000000001,0.9490000000000016,0.9403999999999968,175,75
2026-05-09 16:31:54.774,1,-0.29,0.6,0.58,0.7539999999999978,1.1389999999999993,0.8103999999999978,175,75
2026-05-09 16:31:54.812,1,-0.29,0.6,0.59,0.8740000000000023,1.318999999999999,0.20039999999999836,175,75
2026-05-09 16:31:54.854,1,-0.28,0.61,0.58,0.5039999999999978,0.8889999999999993,-0.27960000000000207,175,75
2026-05-09 16:31:54.878,1,-0.29,0.61,0.58,0.2639999999999958,0.3390000000000022,-0.7696000000000005,175,75
2026-05-09 16:31:54.889,1,-0.29,0.6,0.59,0.7539999999999978,-0.08099999999999952,-0.9496000000000002,175,75
2026-05-09 16:31:54.899,1,-0.29,0.6,0.58,0.5039999999999978,-0.2710000000000008,-0.8296000000000028,175,75
2026-05-09 16:31:54.899,1,-0.29,0.6,0.58,0.8140000000000001,-0.6310000000000002,-0.7696000000000005,175,75
2026-05-09 16:31:54.952,1,-0.28,0.6,0.59,1.9039999999999964,-0.6310000000000002,0.39039999999999964,175,75
2026-05-09 16:31:54.989,1,-0.29,0.6,0.59,1.3639999999999972,-1.181000000000001,0.8803999999999981,175,75
2026-05-09 16:31:54.999,1,-0.29,0.59,0.58,1.6039999999999992,-1.3009999999999984,1.0603999999999978,175,75
2026-05-09 16:31:54.999,1,-0.29,0.59,0.58,1.293999999999997,-1.0010000000000012,1.3003999999999998,175,75
2026-05-09 16:31:55.041,1,-0.29,0.59,0.58,1.3639999999999972,-1.7910000000000004,1.0603999999999978,175,75
2026-05-09 16:31:55.056,1,-0.29,0.58,0.59,1.2340000000000018,-2.521000000000001,0.33039999999999736,175,75
2026-05-09 16:31:55.067,1,-0.29,0.59,0.59,0.9339999999999975,-2.771000000000001,-0.15960000000000107,175,75
2026-05-09 16:31:55.077,1,-0.29,0.58,0.58,0.38400000000000034,-2.6409999999999982,-0.9496000000000002,175,75
2026-05-09 16:31:55.090,1,-0.29,0.58,0.58,0.8740000000000023,-2.521000000000001,-0.9496000000000002,175,75
2026-05-09 16:31:55.101,1,-0.3,0.58,0.58,0.4439999999999955,-2.9510000000000005,-1.499600000000001,175,75
2026-05-09 16:31:55.101,1,-0.29,0.58,0.59,0.5039999999999978,-2.6409999999999982,-1.989600000000003,175,75
2026-05-09 16:31:55.113,1,-0.3,0.57,0.59,0.4439999999999955,-3.0109999999999992,-1.9296000000000006,175,75
2026-05-09 16:31:55.123,1,-0.29,0.58,0.59,-0.5260000000000034,-2.9510000000000005,-2.3596000000000004,175,75
2026-05-09 16:31:55.123,1,-0.29,0.57,0.59,-0.045999999999999375,-2.401,-2.779600000000002,175,75
2026-05-09 16:31:55.145,1,-0.29,0.57,0.58,-0.5260000000000034,-2.4609999999999985,-3.329600000000003,175,75
2026-05-09 16:31:55.167,1,-0.29,0.58,0.59,-0.8960000000000008,-2.160999999999998,-3.5096000000000025,175,75
2026-05-09 16:31:55.179,1,-0.29,0.58,0.59,-1.3260000000000005,-2.7109999999999985,-3.939600000000002,175,75
2026-05-09 16:31:55.179,1,-0.3,0.58,0.6,-1.7460000000000022,-2.8909999999999982,-4.549600000000002,175,75
2026-05-09 16:31:55.190,1,-0.3,0.58,0.59,-2.236000000000004,-3.1310000000000002,-5.0396,175,75
2026-05-09 16:31:55.202,1,-0.29,0.59,0.58,-2.176000000000002,-3.0109999999999992,-5.8896000000000015,175,75
2026-05-09 16:31:55.210,1,-0.29,0.59,0.6,-2.6060000000000016,-3.3810000000000002,-5.8896000000000015,175,75
2026-05-09 16:31:55.226,1,-0.29,0.59,0.59,-2.1159999999999997,-3.9909999999999997,-5.7696000000000005,175,75
2026-05-09 16:31:55.257,1,-0.29,0.59,0.6,-2.905999999999999,-5.751000000000001,-4.729600000000001,175,75
2026-05-09 16:31:55.263,1,-0.31,0.59,0.61,-3.886000000000003,-6.550999999999998,-3.6396000000000015,175,75
2026-05-09 16:31:55.279,1,-0.31,0.59,0.6,-5.045999999999999,-6.241,-3.209600000000002,175,75
2026-05-09 16:31:55.293,1,-0.31,0.59,0.6,-5.836000000000002,-5.690999999999999,-1.9296000000000006,175,75
2026-05-09 16:31:55.307,1,-0.3,0.59,0.59,-5.836000000000002,-5.2109999999999985,-0.6496000000000031,175,75
2026-05-09 16:31:55.334,1,-0.28,0.57,0.59,-6.136000000000003,-5.3309999999999995,-0.5296000000000021,175,75
2026-05-09 16:31:55.363,1,-0.29,0.57,0.58,-6.4460000000000015,-6.670999999999999,-0.8896000000000015,175,75
2026-05-09 16:31:55.377,1,-0.3,0.57,0.58,-5.896000000000001,-6.550999999999998,-1.2596000000000025,175,75
2026-05-09 16:31:55.403,1,-0.3,0.57,0.6,-5.836000000000002,-6.910999999999998,-0.5296000000000021,175,75
2026-05-09 16:31:55.412,1,-0.3,0.57,0.59,-5.9559999999999995,-6.550999999999998,-0.27960000000000207,175,75
2026-05-09 16:31:55.436,1,-0.3,0.59,0.59,-5.896000000000001,-7.160999999999998,0.14039999999999964,175,75
2026-05-09 16:31:55.447,1,-0.31,0.6,0.58,-5.656000000000002,-6.550999999999998,0.08039999999999736,175,75
2026-05-09 16:31:55.473,1,-0.32,0.61,0.6,-5.286000000000001,-6.611000000000001,0.8803999999999981,175,75
2026-05-09 16:31:55.478,1,-0.33,0.61,0.6,-4.926000000000002,-6.420999999999999,1.7303999999999995,175,75
2026-05-09 16:31:55.489,1,-0.33,0.61,0.6,-4.436,-6.971,2.0303999999999967,175,75
2026-05-09 16:31:55.498,1,-0.33,0.61,0.59,-4.186,-6.300999999999998,2.8903999999999996,175,75
2026-05-09 16:31:55.534,1,-0.34,0.61,0.6,-2.8460000000000036,-5.3309999999999995,4.410399999999996,175,75
2026-05-09 16:31:55.545,1,-0.34,0.61,0.59,-1.936,-4.660999999999998,4.660399999999996,175,75
2026-05-09 16:31:55.556,1,-0.34,0.6,0.59,-1.6259999999999977,-3.6209999999999987,5.270399999999995,175,75
2026-05-09 16:31:55.572,1,-0.34,0.6,0.59,-0.10600000000000165,-3.6209999999999987,5.570399999999999,175,75
2026-05-09 16:31:55.585,1,-0.34,0.59,0.59,-0.10600000000000165,-3.6209999999999987,5.810400000000001,175,75
2026-05-09 16:31:55.608,1,-0.34,0.59,0.59,1.1739999999999995,-3.190999999999999,5.080399999999997,175,75
2026-05-09 16:31:55.626,1,-0.34,0.59,0.6,1.783999999999999,-2.341000000000001,4.290399999999998,175,75
2026-05-09 16:31:55.636,1,-0.34,0.59,0.6,1.783999999999999,-2.280999999999999,3.9204000000000008,175,75
2026-05-09 16:31:55.663,1,-0.33,0.59,0.6,1.1139999999999972,-2.521000000000001,2.700399999999995,175,75
2026-05-09 16:31:55.678,1,-0.32,0.58,0.6,0.6240000000000023,-2.401,1.970399999999998,175,75
2026-05-09 16:31:55.690,1,-0.32,0.59,0.6,0.2639999999999958,-2.521000000000001,1.4903999999999975,175,75
2026-05-09 16:31:55.700,1,-0.31,0.59,0.6,-0.16600000000000392,-2.7109999999999985,1.1803999999999988,175,75
2026-05-09 16:31:55.709,1,-0.32,0.58,0.61,-0.9560000000000031,-2.9510000000000005,0.8103999999999978,175,75
2026-05-09 16:31:55.722,1,-0.33,0.58,0.62,-1.9960000000000022,-3.681000000000001,0.5703999999999994,175,75
2026-05-09 16:31:55.732,1,-0.33,0.58,0.61,-2.7860000000000014,-4.230999999999998,0.45039999999999836,175,75
2026-05-09 16:31:55.744,1,-0.34,0.59,0.6,-3.216000000000001,-3.9909999999999997,0.14039999999999964,175,75
2026-05-09 16:31:55.757,1,-0.34,0.6,0.61,-4.006,-4.471,0.5103999999999971,175,75
2026-05-09 16:31:55.769,1,-0.34,0.59,0.62,-4.856000000000002,-5.4510000000000005,0.02039999999999864,175,75
2026-05-09 16:31:55.780,1,-0.34,0.61,0.6,-5.596,-6.120999999999999,-0.21960000000000335,175,75
2026-05-09 16:31:55.792,1,-0.33,0.61,0.59,-6.016000000000002,-5.690999999999999,-0.8896000000000015,175,75
2026-05-09 16:31:55.813,1,-0.32,0.6,0.59,-4.986000000000001,-5.3309999999999995,-1.6896000000000022,175,75
2026-05-09 16:31:55.835,1,-0.32,0.6,0.59,-4.006,-4.9609999999999985,-2.7196000000000033,175,75
2026-05-09 16:31:55.850,1,-0.32,0.59,0.58,-3.2760000000000034,-4.291,-2.9696000000000033,175,75
2026-05-09 16:31:55.873,1,-0.34,0.59,0.6,-2.8460000000000036,-6.120999999999999,-3.5096000000000025,175,75
2026-05-09 16:31:55.884,1,-0.36,0.6,0.61,-3.0260000000000034,-6.001000000000001,-3.8796000000000035,175,75
2026-05-09 16:31:55.901,1,-0.36,0.6,0.61,-2.7860000000000014,-5.631,-3.819600000000001,175,75
2026-05-09 16:31:55.922,1,-0.34,0.61,0.6,-2.0560000000000045,-4.410999999999998,-3.209600000000002,175,75
2026-05-09 16:31:55.932,1,-0.34,0.61,0.61,-1.936,-4.721,-2.779600000000002,175,75
2026-05-09 16:31:55.937,1,-0.34,0.6,0.61,-1.445999999999998,-4.841000000000001,-2.4196000000000026,175,75
2026-05-09 16:31:55.977,1,-0.36,0.61,0.62,-2.426000000000002,-5.940999999999999,-1.9296000000000006,175,75
2026-05-09 16:31:55.998,1,-0.36,0.6,0.61,-2.666000000000004,-6.241,-1.4396000000000022,175,75
2026-05-09 16:31:55.998,1,-0.34,0.6,0.59,-3.0260000000000034,-6.120999999999999,-1.8096000000000032,175,75
2026-05-09 16:31:56.025,1,-0.35,0.59,0.6,-1.8759999999999977,-5.2109999999999985,-1.499600000000001,175,75
2026-05-09 16:31:56.035,1,-0.35,0.6,0.62,-1.936,-5.2109999999999985,-1.499600000000001,175,75
2026-05-09 16:31:56.073,1,-0.35,0.59,0.62,-0.9560000000000031,-4.9609999999999985,-1.2596000000000025,175,75
2026-05-09 16:31:56.084,1,-0.35,0.59,0.61,-0.9560000000000031,-4.530999999999999,-1.5596000000000032,175,75
2026-05-09 16:31:56.095,1,-0.36,0.59,0.61,-0.7760000000000034,-5.0809999999999995,-1.9296000000000006,175,75
2026-05-09 16:31:56.106,1,-0.36,0.59,0.61,-1.6259999999999977,-4.600999999999999,-1.4396000000000022,175,75
2026-05-09 16:31:56.116,1,-0.36,0.59,0.61,-1.0159999999999982,-4.410999999999998,-1.3196000000000012,175,75
2026-05-09 16:31:56.116,1,-0.36,0.59,0.61,-1.2659999999999982,-4.530999999999999,-1.619600000000002,175,75
2026-05-09 16:31:56.157,1,-0.37,0.59,0.62,-1.3860000000000028,-2.341000000000001,-1.1396000000000015,175,75
2026-05-09 16:31:56.180,1,-0.37,0.59,0.63,-1.686,-0.6310000000000002,0.02039999999999864,175,75
2026-05-09 16:31:56.191,1,-0.38,0.59,0.62,-1.6259999999999977,0.7089999999999996,0.39039999999999964,175,75
2026-05-09 16:31:56.202,1,-0.38,0.58,0.62,-2.0560000000000045,3.4490000000000016,1.7303999999999995,175,75
2026-05-09 16:31:56.214,1,-0.38,0.58,0.64,-2.6060000000000016,3.939,3.0703999999999994,175,75
2026-05-09 16:31:56.230,1,-0.39,0.58,0.64,-3.636000000000003,4.429000000000002,3.250399999999999,175,75
2026-05-09 16:31:56.242,1,-0.39,0.58,0.63,-4.496000000000002,5.648999999999997,4.410399999999996,175,75
2026-05-09 16:31:56.252,1,-0.38,0.57,0.62,-4.736000000000001,6.498999999999999,5.020399999999995,175,75
2026-05-09 16:31:56.262,1,-0.38,0.58,0.62,-5.656000000000002,7.229000000000003,5.330399999999997,175,75
2026-05-09 16:31:56.274,1,-0.36,0.58,0.62,-6.5660000000000025,8.148999999999997,5.270399999999995,175,75
2026-05-09 16:31:56.286,1,-0.36,0.58,0.6,-7.116,8.998999999999999,5.200399999999995,175,75
2026-05-09 16:31:56.298,1,-0.35,0.58,0.62,-7.545999999999999,10.099,5.080399999999997,175,75
2026-05-09 16:31:56.309,1,-0.34,0.57,0.61,-8.396,11.139,5.020399999999995,175,75
2026-05-09 16:31:56.319,1,-0.33,0.58,0.61,-8.576,11.318999999999999,4.290399999999998,175,75
2026-05-09 16:31:56.335,1,-0.33,0.57,0.61,-8.886000000000003,11.989,3.8603999999999985,175,75
2026-05-09 16:31:56.347,1,-0.33,0.58,0.61,-9.616,12.049000000000003,3.0703999999999994,175,75
2026-05-09 16:31:56.358,1,-0.34,0.57,0.61,-9.926000000000002,12.538999999999998,3.190399999999997,175,75
2026-05-09 16:31:56.397,1,-0.33,0.59,0.62,-12.236,13.148999999999997,4.3504000000000005,175,75
2026-05-09 16:31:56.401,1,-0.33,0.59,0.61,-13.576,13.699000000000002,4.3504000000000005,175,75
2026-05-09 16:31:56.413,1,-0.33,0.6,0.61,-14.376000000000001,13.759000000000004,5.200399999999995,175,75
2026-05-09 16:31:56.425,1,-0.32,0.61,0.61,-15.226000000000003,14.309000000000001,6.240400000000001,175,75
2026-05-09 16:31:56.445,1,-0.28,0.61,0.59,-17.056,13.939000000000004,7.830399999999997,175,75
2026-05-09 16:31:56.472,1,-0.27,0.62,0.58,-19.676000000000002,11.078999999999997,8.990400000000001,175,75
2026-05-09 16:31:56.479,1,-0.27,0.62,0.59,-19.496000000000002,10.828999999999997,9.110399999999998,175,75
2026-05-09 16:31:56.492,1,-0.27,0.62,0.58,-19.316000000000003,10.218999999999998,9.410399999999996,175,75
2026-05-09 16:31:56.498,1,-0.27,0.63,0.58,-19.186,10.159000000000002,9.050399999999996,175,75
2026-05-09 16:31:56.529,1,-0.28,0.63,0.56,-18.636000000000003,8.578999999999997,7.6404,175,75
2026-05-09 16:31:56.548,1,-0.28,0.64,0.57,-18.336000000000002,7.4190000000000005,6.970399999999998,175,75
2026-05-09 16:31:56.548,1,-0.29,0.64,0.58,-18.636000000000003,6.619000000000003,6.180399999999999,175,75
2026-05-09 16:31:56.611,1,-0.3,0.66,0.58,-18.276,5.709,5.020399999999995,175,75
2026-05-09 16:31:56.632,1,-0.32,0.71,0.58,-18.516000000000002,4.9190000000000005,2.1603999999999957,175,75
2026-05-09 16:31:56.659,1,-0.33,0.72,0.57,-17.236,6.199000000000002,2.3403999999999954,175,75
2026-05-09 16:31:56.665,1,-0.32,0.72,0.58,-16.206,6.619000000000003,2.8303999999999974,175,75
2026-05-09 16:31:56.678,1,-0.31,0.72,0.58,-15.286000000000001,7.108999999999998,2.5803999999999974,175,75
2026-05-09 16:31:56.685,1,-0.31,0.72,0.57,-14.856000000000002,8.029,2.3403999999999954,175,75
2026-05-09 16:31:56.691,1,-0.31,0.72,0.57,-13.946000000000002,8.998999999999999,2.4003999999999976,175,75
2026-05-09 16:31:56.708,1,-0.3,0.73,0.57,-12.786000000000001,9.428999999999998,2.520399999999995,175,75
2026-05-09 16:31:56.722,1,-0.31,0.73,0.57,-12.116,9.919,2.520399999999995,175,75
2026-05-09 16:31:56.722,1,-0.3,0.73,0.58,-11.996000000000002,9.309000000000001,2.6403999999999996,175,75
2026-05-09 16:31:56.733,1,-0.29,0.74,0.58,-11.386000000000003,9.549000000000003,1.850399999999997,175,75
2026-05-09 16:31:56.739,1,-0.29,0.74,0.55,-10.716000000000001,9.669,0.6903999999999968,175,75
2026-05-09 16:31:56.804,1,-0.25,0.72,0.56,-5.9559999999999995,9.369000000000003,-3.4496,175,75
2026-05-09 16:31:56.804,1,-0.25,0.72,0.56,-5.656000000000002,9.178999999999998,-3.999600000000001,175,75
2026-05-09 16:31:56.815,1,-0.25,0.72,0.56,-5.286000000000001,8.389,-4.489600000000003,175,75
2026-05-09 16:31:56.827,1,-0.25,0.72,0.55,-4.616,7.898999999999997,-5.0396,175,75
2026-05-09 16:31:56.842,1,-0.24,0.72,0.56,-4.246000000000002,6.199000000000002,-5.649600000000003,175,75
2026-05-09 16:31:56.869,1,-0.24,0.72,0.56,-2.666000000000004,5.099,-5.589600000000001,175,75
2026-05-09 16:31:56.882,1,-0.24,0.73,0.55,-2.3560000000000016,4.609000000000002,-5.709600000000002,175,75
2026-05-09 16:31:56.895,1,-0.23,0.74,0.55,-1.445999999999998,4.5489999999999995,-5.469600000000003,175,75
2026-05-09 16:31:56.907,1,-0.24,0.73,0.55,-0.5960000000000036,3.939,-5.7696000000000005,175,75
2026-05-09 16:31:56.918,1,-0.24,0.74,0.54,0.20400000000000063,3.818999999999999,-5.339600000000001,175,75
2026-05-09 16:31:56.930,1,-0.25,0.74,0.55,1.9739999999999966,3.5090000000000003,-4.8596,175,75
2026-05-09 16:31:56.942,1,-0.25,0.74,0.55,3.003999999999998,3.269000000000002,-4.669600000000003,175,75
2026-05-09 16:31:56.953,1,-0.26,0.74,0.55,4.223999999999997,2.719000000000001,-4.369600000000002,175,75
2026-05-09 16:31:56.966,1,-0.25,0.74,0.56,6.234000000000002,2.658999999999999,-3.6396000000000015,175,75
2026-05-09 16:31:56.978,1,-0.25,0.72,0.54,7.704000000000001,2.779,-3.029600000000002,175,75
2026-05-09 16:31:56.988,1,-0.24,0.74,0.54,9.713999999999999,3.089000000000002,-2.2996000000000016,175,75
2026-05-09 16:31:57.000,1,-0.24,0.74,0.54,12.153999999999996,3.149000000000001,-1.619600000000002,175,75
2026-05-09 16:31:57.009,1,-0.24,0.75,0.53,14.594000000000001,3.2089999999999996,-1.0096000000000025,175,75
2026-05-09 16:31:57.020,1,-0.24,0.74,0.54,17.333999999999996,2.899000000000001,-0.46960000000000335,175,75
2026-05-09 16:31:57.032,1,-0.25,0.75,0.53,19.164,2.1090000000000018,-0.09960000000000235,175,75
2026-05-09 16:31:57.043,1,-0.25,0.75,0.53,21.054000000000002,1.8689999999999998,0.08039999999999736,175,75
2026-05-09 16:31:57.072,1,-0.27,0.75,0.54,28.124000000000002,1.809000000000001,1.0603999999999978,175,75
2026-05-09 16:31:57.105,1,-0.28,0.74,0.54,34.10399999999999,2.969000000000001,1.4203999999999972,175,75
2026-05-09 16:31:57.117,1,-0.26,0.71,0.52,40.624,10.038999999999998,0.5703999999999994,175,75
2026-05-09 16:31:57.130,1,-0.22,0.7,0.53,44.163999999999994,14.428999999999998,-0.09960000000000235,175,75
2026-05-09 16:31:57.130,1,-0.2,0.66,0.54,46.784,15.468999999999998,-2.779600000000002,175,75
2026-05-09 16:31:57.141,1,-0.17,0.65,0.5,50.144,16.869000000000003,-7.659600000000001,175,75
2026-05-09 16:31:57.163,1,-0.16,0.62,0.47,54.954,18.639,-13.329600000000003,175,75
2026-05-09 16:31:57.175,1,-0.13,0.6,0.48,58.734,18.449,-18.3896,175,75
2026-05-09 16:31:57.205,1,-0.13,0.59,0.49,62.094,17.288999999999998,-23.9996,175,75
2026-05-09 16:31:57.205,1,-0.16,0.57,0.48,65.564,16.679,-28.6996,175,75
2026-05-09 16:31:57.216,1,-0.18,0.57,0.48,69.22399999999999,15.589000000000002,-36.5596,175,75
2026-05-09 16:31:57.253,1,-0.24,0.57,0.4,78.73400000000001,31.078999999999997,-50.8896,175,75
2026-05-09 16:31:57.264,1,-0.23,0.52,0.46,82.76400000000001,39.179,-53.8796,175,75
2026-05-09 16:31:57.276,1,-0.26,0.44,0.64,75.75399999999999,30.398999999999997,-60.949600000000004,175,75
2026-05-09 16:31:57.276,1,-0.29,0.48,0.62,69.04400000000001,23.089000000000002,-62.8996,175,75
2026-05-09 16:31:57.297,1,-0.35,0.51,0.58,68.864,26.259000000000004,-61.9896,175,75
2026-05-09 16:31:57.321,1,-0.28,0.52,0.65,72.76400000000001,40.468999999999994,-58.509600000000006,175,75
2026-05-09 16:31:57.344,1,-0.14,0.4,0.68,70.50399999999999,36.259,-58.089600000000004,175,75
2026-05-09 16:31:57.385,1,0.01,0.3,0.65,67.94399999999999,24.309,-56.6896,175,75
2026-05-09 16:31:57.395,1,0.05,0.25,0.64,65.01400000000001,19.549000000000003,-56.7496,175,75
2026-05-09 16:31:57.403,1,0.1,0.23,0.64,63.794000000000004,15.529,-58.089600000000004,175,75
2026-05-09 16:31:57.417,1,0.04,0.28,0.63,58.374,12.419,-62.7196,175,75
2026-05-09 16:31:57.440,1,-0.07,0.32,0.73,51.364,19.489,-54.2496,175,75
2026-05-09 16:31:57.451,1,-0.07,0.31,0.74,48.674,18.209,-50.2196,175,75
2026-05-09 16:31:57.462,1,-0.08,0.24,0.74,44.954,13.269000000000002,-38.269600000000004,175,75
2026-05-09 16:31:57.468,1,-0.03,0.24,0.72,43.064,12.538999999999998,-33.089600000000004,175,75
2026-05-09 16:31:57.557,1,0.11,0.17,0.71,38.674,9.979000000000003,-22.9696,175,75
2026-05-09 16:31:57.566,1,0.11,0.16,0.72,36.844,7.839000000000002,-21.619600000000002,175,75
2026-05-09 16:31:57.566,1,0.09,0.16,0.71,34.044000000000004,4.248999999999999,-20.589600000000004,175,75
2026-05-09 16:31:57.578,1,0.06,0.16,0.73,32.394,3.5790000000000006,-18.3296,175,75
2026-05-09 16:31:57.578,1,0.05,0.17,0.74,30.074000000000005,2.0489999999999995,-16.009600000000002,175,75
2026-05-09 16:31:57.587,1,0.02,0.15,0.75,27.274,0.2190000000000012,-13.149600000000003,175,75
2026-05-09 16:31:57.596,1,0.01,0.15,0.73,24.774,-0.39099999999999824,-11.1996,175,75
2026-05-09 16:31:57.606,1,0.01,0.14,0.72,24.164,0.7690000000000019,-9.729600000000001,175,75
2026-05-09 16:31:57.615,1,0.03,0.12,0.71,23.314,1.1389999999999993,-8.509600000000002,175,75
2026-05-09 16:31:57.625,1,0.05,0.1,0.72,23.253999999999998,0.03900000000000148,-8.149600000000003,175,75
2026-05-09 16:31:57.648,1,0.06,0.07,0.72,21.543999999999997,1.318999999999999,-7.3596,175,75
2026-05-09 16:31:57.648,1,0.07,0.07,0.75,20.073999999999998,-0.5109999999999992,-6.689600000000002,175,75
2026-05-09 16:31:57.667,1,0.06,0.05,0.75,19.653999999999996,-2.7109999999999985,-5.8896000000000015,175,75
2026-05-09 16:31:57.685,1,0.04,0.07,0.73,18.924,-3.1310000000000002,-3.329600000000003,175,75
2026-05-09 16:31:57.685,1,0.04,0.07,0.73,18.494,-2.5809999999999995,-1.1396000000000015,175,75
2026-05-09 16:31:57.698,1,0.04,0.09,0.75,17.704,-2.160999999999998,1.970399999999998,175,75
2026-05-09 16:31:57.698,1,0.04,0.09,0.75,16.543999999999997,-1.850999999999999,3.8003999999999962,175,75
2026-05-09 16:31:57.724,1,0.05,0.09,0.74,13.734000000000002,-1.4909999999999997,10.1404,175,75
2026-05-09 16:31:57.737,1,0.07,0.07,0.74,12.823999999999998,-1.1209999999999987,11.790399999999998,175,75
2026-05-09 16:31:57.759,1,0.08,0.04,0.73,11.664000000000001,-1.9109999999999978,13.800399999999996,175,75
2026-05-09 16:31:57.759,1,0.07,0.02,0.74,11.543999999999997,-1.850999999999999,14.050399999999996,175,75
2026-05-09 16:31:57.798,1,0.04,0.05,0.74,10.013999999999996,-2.160999999999998,16.550399999999996,175,75
2026-05-09 16:31:57.798,1,0.02,0.08,0.76,9.164000000000001,-1.971,17.770399999999995,175,75
2026-05-09 16:31:57.823,1,0.01,0.1,0.75,8.433999999999997,-1.971,18.190399999999997,175,75
2026-05-09 16:31:57.876,1,-0.02,0.08,0.76,2.513999999999996,2.599,16.1804,175,75
2026-05-09 16:31:57.880,1,-0.01,0.06,0.75,1.8440000000000012,0.5890000000000022,14.900399999999998,175,75
2026-05-09 16:31:57.902,1,-0.02,0.03,0.74,0.8740000000000023,0.8889999999999993,13.130400000000002,175,75
2026-05-09 16:31:57.914,1,-0.02,0.02,0.76,0.4439999999999955,1.4989999999999988,11.730399999999996,175,75
2026-05-09 16:31:57.925,1,-0.02,0.04,0.76,0.013999999999995794,1.439,10.510399999999997,175,75
2026-05-09 16:31:57.935,1,-0.03,0.05,0.74,-1.2659999999999982,1.929000000000002,8.740400000000001,175,75
2026-05-09 16:31:57.935,1,-0.03,0.05,0.76,-2.1159999999999997,0.7690000000000019,8.010399999999997,175,75
2026-05-09 16:31:57.977,1,-0.03,0.1,0.74,-3.886000000000003,-0.4510000000000005,3.990400000000001,175,75
2026-05-09 16:31:57.988,1,-0.02,0.1,0.74,-4.795999999999999,-0.5109999999999992,2.4604,175,75
2026-05-09 16:31:58.010,1,-0.0,0.08,0.73,-5.106000000000002,-1.971,0.6903999999999968,175,75
2026-05-09 16:31:58.023,1,-0.01,0.07,0.74,-4.795999999999999,-2.401,0.08039999999999736,175,75
2026-05-09 16:31:58.032,1,-0.02,0.07,0.74,-5.045999999999999,-2.521000000000001,-0.46960000000000335,175,75
2026-05-09 16:31:58.043,1,-0.02,0.08,0.74,-5.526,-2.401,-0.7696000000000005,175,75
2026-05-09 16:31:58.054,1,-0.03,0.1,0.73,-5.106000000000002,-2.100999999999999,-1.0096000000000025,175,75
2026-05-09 16:31:58.065,1,-0.03,0.1,0.73,-4.556000000000001,-2.030999999999999,-1.499600000000001,175,75
2026-05-09 16:31:58.076,1,-0.03,0.1,0.74,-4.186,-2.771000000000001,-1.9296000000000006,175,75
2026-05-09 16:31:58.087,1,-0.03,0.12,0.73,-4.496000000000002,-2.8309999999999995,-2.0496000000000016,175,75
2026-05-09 16:31:58.097,1,-0.02,0.12,0.72,-3.5760000000000005,-3.2510000000000012,-2.3596000000000004,175,75
2026-05-09 16:31:58.109,1,-0.02,0.1,0.74,-3.5760000000000005,-3.5010000000000012,-2.2296000000000014,175,75
2026-05-09 16:31:58.121,1,-0.02,0.09,0.74,-3.8260000000000005,-3.5010000000000012,-2.4196000000000026,175,75
2026-05-09 16:31:58.149,1,-0.02,0.1,0.72,-3.0260000000000034,-3.0109999999999992,-2.779600000000002,175,75
2026-05-09 16:31:58.176,1,-0.03,0.1,0.72,-1.5660000000000025,-1.6709999999999994,-1.3796000000000035,175,75
2026-05-09 16:31:58.188,1,-0.01,0.1,0.75,-1.0159999999999982,-1.730999999999998,-0.8296000000000028,175,75
2026-05-09 16:31:58.203,1,-0.01,0.07,0.72,-0.8960000000000008,-2.521000000000001,-1.1996000000000002,175,75
2026-05-09 16:31:58.215,1,-0.0,0.08,0.73,-0.34600000000000364,-2.401,-0.7096000000000018,175,75
2026-05-09 16:31:58.224,1,-0.01,0.08,0.74,-0.6559999999999988,-2.7109999999999985,-0.21960000000000335,175,75
2026-05-09 16:31:58.249,1,-0.01,0.08,0.74,-0.2259999999999991,-2.521000000000001,0.8803999999999981,175,75
2026-05-09 16:31:58.249,1,-0.01,0.09,0.74,-0.10600000000000165,-2.8309999999999995,1.4903999999999975,175,75
2026-05-09 16:31:58.264,1,-0.01,0.1,0.75,0.38400000000000034,-2.521000000000001,2.2804,175,75
2026-05-09 16:31:58.264,1,-0.01,0.11,0.74,0.4439999999999955,-3.070999999999998,2.5803999999999974,175,75
2026-05-09 16:31:58.275,1,-0.02,0.12,0.74,0.4439999999999955,-3.2510000000000012,3.5604000000000013,175,75
2026-05-09 16:31:58.286,1,-0.02,0.11,0.74,0.9339999999999975,-3.8009999999999984,3.990400000000001,175,75
2026-05-09 16:31:58.299,1,-0.02,0.11,0.74,0.9339999999999975,-3.7409999999999997,4.3504000000000005,175,75
2026-05-09 16:31:58.310,1,-0.02,0.11,0.73,0.9939999999999998,-3.1310000000000002,4.720399999999998,175,75
2026-05-09 16:31:58.323,1,-0.02,0.1,0.73,0.9339999999999975,-3.561,4.9604,175,75
2026-05-09 16:31:58.336,1,-0.02,0.09,0.74,1.6640000000000015,-3.190999999999999,5.200399999999995,175,75
2026-05-09 16:31:58.336,1,-0.02,0.07,0.74,1.6039999999999992,-3.1310000000000002,5.630400000000002,175,75
2026-05-09 16:31:58.348,1,-0.03,0.07,0.74,1.8440000000000012,-2.8909999999999982,5.940399999999997,175,75
2026-05-09 16:31:58.378,1,-0.03,0.07,0.76,1.054000000000002,-2.521000000000001,5.880400000000002,175,75
2026-05-09 16:31:58.391,1,-0.03,0.06,0.76,0.6839999999999975,-2.8909999999999982,5.810400000000001,175,75
2026-05-09 16:31:58.391,1,-0.02,0.06,0.75,0.2639999999999958,-2.4609999999999985,5.510399999999997,175,75
2026-05-09 16:31:58.402,1,-0.02,0.06,0.74,-0.4059999999999988,-2.771000000000001,5.270399999999995,175,75
2026-05-09 16:31:58.402,1,-0.02,0.05,0.75,-0.2259999999999991,-2.8309999999999995,4.720399999999998,175,75
2026-05-09 16:31:58.438,1,-0.04,0.07,0.76,-1.686,-4.111000000000001,4.5304,175,75
2026-05-09 16:31:58.438,1,-0.05,0.08,0.76,-2.176000000000002,-3.8009999999999984,4.6004000000000005,175,75
2026-05-09 16:31:58.450,1,-0.05,0.09,0.75,-2.236000000000004,-3.681000000000001,4.720399999999998,175,75
2026-05-09 16:31:58.457,1,-0.04,0.09,0.75,-2.5459999999999994,-3.681000000000001,4.230399999999996,175,75
2026-05-09 16:31:58.474,1,-0.04,0.08,0.76,-4.006,-3.561,4.170400000000001,175,75
2026-05-09 16:31:58.486,1,-0.04,0.08,0.77,-4.676000000000002,-4.111000000000001,4.290399999999998,175,75
2026-05-09 16:31:58.538,1,-0.05,0.07,0.77,-7.236000000000001,-3.8009999999999984,2.8903999999999996,175,75
2026-05-09 16:31:58.538,1,-0.06,0.08,0.76,-7.606000000000002,-3.2510000000000012,1.970399999999998,175,75
2026-05-09 16:31:58.550,1,-0.06,0.09,0.75,-8.456,-3.070999999999998,1.6103999999999985,175,75
2026-05-09 16:31:58.565,1,-0.06,0.08,0.75,-9.006,-2.771000000000001,0.9403999999999968,175,75
2026-05-09 16:31:58.582,1,-0.05,0.08,0.75,-10.656000000000002,-2.401,0.08039999999999736,175,75
2026-05-09 16:31:58.589,1,-0.04,0.07,0.75,-10.956,-2.030999999999999,-0.21960000000000335,175,75
2026-05-09 16:31:58.598,1,-0.04,0.07,0.73,-11.626000000000001,-2.160999999999998,-1.749600000000001,175,75
2026-05-09 16:31:58.612,1,-0.04,0.07,0.74,-11.996000000000002,-2.341000000000001,-1.6896000000000022,175,75
2026-05-09 16:31:58.625,1,-0.05,0.07,0.75,-12.726000000000003,-2.7109999999999985,-2.2996000000000016,175,75
2026-05-09 16:31:58.636,1,-0.06,0.09,0.75,-13.456,-2.341000000000001,-2.4196000000000026,175,75
2026-05-09 16:31:58.647,1,-0.05,0.09,0.74,-13.826,-1.850999999999999,-2.4796000000000014,175,75
2026-05-09 16:31:58.656,1,-0.05,0.09,0.73,-14.186,-1.7910000000000004,-2.2996000000000016,175,75
2026-05-09 16:31:58.670,1,-0.05,0.1,0.73,-13.636000000000003,-1.730999999999998,-2.1696000000000026,175,75
2026-05-09 16:31:58.698,1,-0.03,0.11,0.73,-13.396,-1.6709999999999994,-0.6496000000000031,175,75
2026-05-09 16:31:58.708,1,-0.03,0.11,0.72,-13.576,-1.850999999999999,-0.09960000000000235,175,75
2026-05-09 16:31:58.732,1,-0.04,0.12,0.73,-13.636000000000003,-2.5809999999999995,0.33039999999999736,175,75
2026-05-09 16:31:58.758,1,-0.05,0.11,0.73,-14.246000000000002,-2.4609999999999985,1.0603999999999978,175,75
2026-05-09 16:31:58.772,1,-0.05,0.11,0.74,-14.926000000000002,-2.6409999999999982,1.9103999999999992,175,75
2026-05-09 16:31:58.783,1,-0.05,0.12,0.73,-15.596,-2.6409999999999982,2.4003999999999976,175,75
2026-05-09 16:31:58.783,1,-0.05,0.12,0.72,-15.896,-2.7109999999999985,2.6403999999999996,175,75
2026-05-09 16:31:58.789,1,-0.04,0.11,0.71,-16.076,-2.160999999999998,2.4604,175,75
2026-05-09 16:31:58.797,1,-0.03,0.11,0.71,-16.016000000000002,-2.160999999999998,2.1004000000000005,175,75
2026-05-09 16:31:58.808,1,-0.04,0.09,0.72,-16.266000000000002,-1.7910000000000004,2.3403999999999954,175,75
2026-05-09 16:31:58.820,1,-0.05,0.08,0.73,-16.876,-2.030999999999999,2.520399999999995,175,75
2026-05-09 16:31:58.821,1,-0.07,0.08,0.72,-18.276,-2.521000000000001,2.520399999999995,175,75
2026-05-09 16:31:58.881,1,-0.07,0.1,0.73,-19.736,-3.190999999999999,3.5604000000000013,175,75
2026-05-09 16:31:58.881,1,-0.06,0.12,0.72,-20.836,-2.221,2.770399999999995,175,75
2026-05-09 16:31:58.898,1,-0.01,0.13,0.71,-21.206000000000003,-3.440999999999999,1.000399999999999,175,75
2026-05-09 16:31:58.908,1,0.02,0.12,0.68,-21.746000000000002,-3.0109999999999992,-1.499600000000001,175,75
2026-05-09 16:31:58.935,1,-0.04,0.12,0.69,-21.136000000000003,-6.120999999999999,-2.4796000000000014,175,75
2026-05-09 16:31:58.946,1,-0.08,0.12,0.73,-21.686,-5.631,-0.5296000000000021,175,75
2026-05-09 16:31:58.957,1,-0.12,0.16,0.73,-23.456000000000003,-4.9609999999999985,1.1803999999999988,175,75
2026-05-09 16:31:58.967,1,-0.15,0.19,0.72,-24.126,-3.6209999999999987,3.250399999999999,175,75
2026-05-09 16:31:59.030,1,-0.04,0.23,0.68,-25.776000000000003,7.1690000000000005,10.200399999999995,175,75
2026-05-09 16:31:59.041,1,-0.01,0.2,0.66,-25.286,5.888999999999999,11.300399999999996,175,75
2026-05-09 16:31:59.052,1,-0.02,0.2,0.68,-25.526000000000003,3.6389999999999993,11.610399999999998,175,75
2026-05-09 16:31:59.074,1,-0.04,0.19,0.69,-25.526000000000003,3.3889999999999993,12.6404,175,75
2026-05-09 16:31:59.092,1,-0.06,0.19,0.68,-25.466,6.078999999999997,14.470399999999998,175,75
2026-05-09 16:31:59.128,1,-0.1,0.2,0.66,-30.166,5.828999999999997,19.290399999999998,175,75
2026-05-09 16:31:59.140,1,-0.06,0.2,0.68,-31.266000000000002,6.379000000000001,19.720399999999998,175,75
2026-05-09 16:31:59.176,1,-0.05,0.2,0.68,-32.176,4.489000000000001,19.290399999999998,175,75
2026-05-09 16:31:59.198,1,-0.07,0.22,0.65,-35.836,1.559000000000001,16.790399999999998,175,75
2026-05-09 16:31:59.222,1,-0.1,0.25,0.66,-39.676,0.5890000000000022,15.510399999999997,175,75
2026-05-09 16:31:59.222,1,-0.1,0.25,0.65,-40.596000000000004,1.3790000000000013,14.290399999999998,175,75
2026-05-09 16:31:59.251,1,-0.06,0.28,0.64,-44.556,-0.021000000000000796,12.950399999999995,175,75
2026-05-09 16:31:59.291,1,-0.05,0.29,0.65,-45.226,-1.1209999999999987,12.950399999999995,175,75
2026-05-09 16:31:59.299,1,-0.02,0.32,0.62,-46.446,-4.050999999999998,12.220399999999998,175,75
2026-05-09 16:31:59.310,1,-0.02,0.34,0.59,-47.296,-6.730999999999998,10.630400000000002,175,75
2026-05-09 16:31:59.321,1,0.02,0.36,0.58,-47.356,-8.131,7.520399999999995,175,75
2026-05-09 16:31:59.336,1,0.01,0.34,0.61,-47.426,-10.570999999999998,5.630400000000002,175,75
2026-05-09 16:31:59.336,1,-0.03,0.35,0.61,-48.336,-14.231,4.170400000000001,175,75
2026-05-09 16:31:59.383,1,-0.13,0.41,0.59,-48.336,-14.530999999999999,3.1304000000000016,175,75
2026-05-09 16:31:59.383,1,-0.11,0.43,0.6,-48.026,-13.801,3.0703999999999994,175,75
2026-05-09 16:31:59.420,1,-0.08,0.45,0.57,-46.506,-16.791,-0.8896000000000015,175,75
2026-05-09 16:31:59.432,1,-0.08,0.45,0.58,-45.956,-17.771,-2.2996000000000016,175,75
2026-05-09 16:31:59.432,1,-0.08,0.45,0.57,-45.836,-19.051,-3.089600000000001,175,75
2026-05-09 16:31:59.443,1,-0.06,0.46,0.58,-44.926,-21.121,-4.549600000000002,175,75
2026-05-09 16:31:59.454,1,-0.16,0.47,0.54,-44.986000000000004,-22.891,-4.429600000000001,175,75
2026-05-09 16:31:59.454,1,-0.17,0.5,0.58,-42.426,-20.211,-2.9696000000000033,175,75
2026-05-09 16:31:59.467,1,-0.19,0.48,0.56,-42.786,-21.551,-2.659600000000001,175,75
2026-05-09 16:31:59.489,1,-0.16,0.49,0.54,-41.936,-19.411,-1.1396000000000015,175,75
2026-05-09 16:31:59.515,1,-0.11,0.48,0.56,-39.986000000000004,-20.941,-3.329600000000003,175,75
2026-05-09 16:31:59.536,1,-0.13,0.48,0.58,-39.436,-22.161,-2.2296000000000014,175,75
2026-05-09 16:31:59.536,1,-0.13,0.49,0.57,-39.496,-22.641,-0.39960000000000306,175,75
2026-05-09 16:31:59.565,1,-0.1,0.5,0.56,-39.856,-24.171,1.850399999999997,175,75
2026-05-09 16:31:59.579,1,-0.1,0.54,0.51,-38.576,-25.511,1.7903999999999982,175,75
2026-05-09 16:31:59.605,1,-0.14,0.54,0.57,-33.576,-23.741,6.790399999999998,175,75
2026-05-09 16:31:59.627,1,-0.21,0.58,0.58,-34.126,-21.731,13.010399999999997,175,75
2026-05-09 16:31:59.638,1,-0.21,0.59,0.56,-33.946,-21.911,14.660399999999996,175,75
2026-05-09 16:31:59.649,1,-0.21,0.59,0.57,-33.216,-20.331,16.6104,175,75
2026-05-09 16:31:59.664,1,-0.21,0.61,0.55,-31.876,-20.511,19.470399999999998,175,75
2026-05-09 16:31:59.700,1,-0.2,0.63,0.57,-30.656000000000002,-20.391,22.6404,175,75
2026-05-09 16:31:59.716,1,-0.2,0.65,0.55,-30.286,-20.691,23.620399999999997,175,75
2026-05-09 16:31:59.741,1,-0.22,0.67,0.55,-28.636000000000003,-19.051,23.9904,175,75
2026-05-09 16:31:59.757,1,-0.26,0.68,0.56,-26.996000000000002,-18.011,25.8804,175,75
2026-05-09 16:31:59.757,1,-0.29,0.67,0.57,-25.466,-15.690999999999999,28.5604,175,75
2026-05-09 16:31:59.785,1,-0.28,0.69,0.58,-25.526000000000003,-16.301000000000002,31.6104,175,75
2026-05-09 16:31:59.817,1,-0.28,0.7,0.59,-26.016000000000002,-17.831,34.230399999999996,175,75
2026-05-09 16:31:59.849,1,-0.18,0.72,0.53,-24.376,-17.161,33.2504,175,75
2026-05-09 16:31:59.859,1,-0.19,0.71,0.51,-20.656,-16.551000000000002,31.6104,175,75
2026-05-09 16:31:59.860,1,-0.25,0.71,0.53,-17.176000000000002,-14.600999999999999,31.3604,175,75
2026-05-09 16:31:59.909,1,-0.32,0.72,0.54,-10.286000000000001,-13.071,25.5704,175,75
2026-05-09 16:31:59.950,1,-0.32,0.73,0.55,-8.156000000000002,-10.271,26.0604,175,75
2026-05-09 16:31:59.970,1,-0.27,0.73,0.54,-6.5660000000000025,-6.910999999999998,23.010399999999997,175,75
2026-05-09 16:31:59.977,1,-0.23,0.71,0.46,-2.176000000000002,-2.4609999999999985,17.4604,175,75
2026-05-09 16:31:59.992,1,-0.21,0.69,0.44,2.1539999999999964,1.318999999999999,17.580399999999997,175,75
2026-05-09 16:32:00.002,1,-0.22,0.67,0.5,5.624000000000002,1.1389999999999993,16.550399999999996,175,75
2026-05-09 16:32:00.013,1,-0.28,0.68,0.53,9.594000000000001,-1.6110000000000007,11.300399999999996,175,75
2026-05-09 16:32:00.027,1,-0.34,0.69,0.56,12.213999999999999,-1.730999999999998,5.020399999999995,175,75
2026-05-09 16:32:00.040,1,-0.35,0.7,0.59,12.274000000000001,0.2190000000000012,1.2403999999999975,175,75
2026-05-09 16:32:00.051,1,-0.34,0.71,0.55,13.433999999999997,4.059000000000001,-0.8296000000000028,175,75
2026-05-09 16:32:00.063,1,-0.28,0.69,0.56,15.263999999999996,5.769000000000002,-2.7196000000000033,175,75
2026-05-09 16:32:00.101,1,-0.27,0.68,0.57,15.933999999999997,5.589000000000002,-5.529600000000002,175,75
2026-05-09 16:32:00.119,1,-0.26,0.69,0.57,15.323999999999998,4.179000000000002,-7.479600000000001,175,75
2026-05-09 16:32:00.119,1,-0.27,0.69,0.57,16.054000000000002,3.9989999999999988,-9.6096,175,75
2026-05-09 16:32:00.147,1,-0.25,0.66,0.54,16.664,2.0489999999999995,-14.189600000000002,175,75
2026-05-09 16:32:00.160,1,-0.26,0.65,0.55,17.884,2.719000000000001,-16.379600000000003,175,75
2026-05-09 16:32:00.160,1,-0.28,0.65,0.53,19.653999999999996,4.5489999999999995,-18.8196,175,75
2026-05-09 16:32:00.175,1,-0.26,0.63,0.53,22.333999999999996,6.619000000000003,-20.3996,175,75
2026-05-09 16:32:00.198,1,-0.24,0.61,0.53,24.774,7.479000000000003,-22.4796,175,75
2026-05-09 16:32:00.220,1,-0.23,0.6,0.54,26.174,7.288999999999998,-23.699600000000004,175,75
2026-05-09 16:32:00.220,1,-0.22,0.59,0.56,26.604,5.158999999999999,-25.4696,175,75
2026-05-09 16:32:00.242,1,-0.27,0.57,0.6,26.604,1.4989999999999988,-26.1396,175,75
2026-05-09 16:32:00.242,1,-0.31,0.59,0.58,25.263999999999996,-0.08099999999999952,-27.7196,175,75
2026-05-09 16:32:00.242,1,-0.34,0.58,0.57,26.293999999999997,3.3889999999999993,-27.419600000000003,175,75
2026-05-09 16:32:00.258,1,-0.29,0.58,0.56,26.784,4.7890000000000015,-26.559600000000003,175,75
2026-05-09 16:32:00.292,1,-0.23,0.55,0.57,30.204,6.809000000000001,-25.829600000000003,175,75
2026-05-09 16:32:00.292,1,-0.24,0.54,0.56,29.773999999999994,7.4190000000000005,-24.6096,175,75
2026-05-09 16:32:00.305,1,-0.21,0.53,0.58,29.833999999999996,10.468999999999998,-22.9696,175,75
2026-05-09 16:32:00.333,1,-0.22,0.51,0.61,29.344,9.858999999999998,-21.4996,175,75
2026-05-09 16:32:00.345,1,-0.25,0.51,0.6,26.484,8.759000000000004,-19.4296,175,75
2026-05-09 16:32:00.377,1,-0.28,0.52,0.63,23.674,11.678999999999998,-12.3596,175,75
2026-05-09 16:32:00.388,1,-0.24,0.52,0.64,19.653999999999996,13.818999999999999,-5.339600000000001,175,75
2026-05-09 16:32:00.400,1,-0.24,0.53,0.63,16.604,13.759000000000004,-2.779600000000002,175,75
2026-05-09 16:32:00.411,1,-0.2,0.51,0.6,14.713999999999999,14.178999999999998,0.14039999999999964,175,75
2026-05-09 16:32:00.416,1,-0.2,0.53,0.59,12.823999999999998,14.489,3.8603999999999985,175,75
2026-05-09 16:32:00.438,1,-0.21,0.51,0.6,9.223999999999997,13.998999999999999,11.610399999999998,175,75
2026-05-09 16:32:00.463,1,-0.19,0.53,0.63,2.8840000000000003,10.398999999999997,30.330399999999997,175,75
2026-05-09 16:32:00.463,1,-0.14,0.53,0.62,2.274000000000001,11.619000000000003,36.3004,175,75
2026-05-09 16:32:00.471,1,-0.08,0.49,0.58,1.4239999999999995,11.809000000000001,40.5104,175,75
2026-05-09 16:32:00.482,1,-0.05,0.54,0.56,2.7040000000000006,14.369000000000003,44.2904,175,75
2026-05-09 16:32:00.482,1,-0.08,0.49,0.59,3.7340000000000018,15.769000000000002,48.8004,175,75
2026-05-09 16:32:00.514,1,-0.15,0.48,0.64,4.043999999999997,11.439000000000004,56.1204,175,75
2026-05-09 16:32:00.569,1,-0.22,0.51,0.57,14.403999999999996,20.279,101.00040000000001,175,75
2026-05-09 16:32:00.580,1,-0.15,0.59,0.45,22.214,33.509,103.31040000000002,175,75
2026-05-09 16:32:00.616,1,-0.07,0.59,0.48,44.773999999999994,47.289,115.0804,175,75
2026-05-09 16:32:00.637,1,-0.11,0.64,0.46,52.88399999999999,46.319,111.3604,175,75
2026-05-09 16:32:00.637,1,-0.17,0.59,0.39,63.314,49.729,107.03040000000001,175,75
2026-05-09 16:32:00.700,1,-0.32,0.55,0.31,103.614,64.919,86.7304,175,75
2026-05-09 16:32:00.704,1,-0.34,0.54,0.38,117.94399999999999,75.649,81.6104,175,75
2026-05-09 16:32:00.704,1,-0.31,0.54,0.4,127.57399999999998,84.059,75.2004,175,75
2026-05-09 16:32:00.797,1,-0.15,0.39,0.75,145.624,112.71900000000001,82.8904,175,75
2026-05-09 16:32:00.808,1,-0.17,0.27,0.77,136.904,116.319,102.8904,175,75
2026-05-09 16:32:00.808,1,-0.13,0.3,0.78,134.04399999999998,119.859,114.0504,175,75
2026-05-09 16:32:00.835,1,-0.01,0.29,0.81,127.154,123.329,139.1704,175,75
2026-05-09 16:32:00.865,1,-0.09,0.18,0.84,119.344,124.48899999999999,152.8904,175,75
2026-05-09 16:32:00.882,1,-0.13,0.11,0.79,122.45399999999998,146.43900000000002,154.6004,175,75
2026-05-09 16:32:00.906,1,-0.14,0.12,0.87,120.26399999999998,152.839,153.7404,175,75
2026-05-09 16:32:00.916,1,-0.2,0.12,0.94,118.73399999999998,156.139,153.62040000000002,175,75
2026-05-09 16:32:00.916,1,-0.22,0.12,0.97,116.72399999999999,154.059,153.2504,175,75
2026-05-09 16:32:00.939,1,-0.28,-0.0,0.96,112.51399999999998,159.979,153.1904,175,75
2026-05-09 16:32:00.951,1,-0.35,-0.12,1.02,112.82399999999998,164.919,153.56040000000002,175,75
2026-05-09 16:32:00.965,1,-0.35,-0.24,1.14,112.334,165.21900000000002,154.84040000000002,175,75
2026-05-09 16:32:00.974,1,-0.32,-0.31,1.15,109.654,155.52900000000002,153.9904,175,75
2026-05-09 16:32:01.015,1,-0.05,-0.28,1.01,98.92399999999998,146.199,141.0004,175,75
2026-05-09 16:32:01.040,1,0.18,-0.27,1.13,95.50399999999999,110.70899999999999,121.3004,175,75
2026-05-09 16:32:01.054,1,0.13,-0.22,1.1,88.554,87.779,110.2004,175,75
2026-05-09 16:32:01.063,1,0.04,-0.21,1.11,82.154,67.229,101.2404,175,75
2026-05-09 16:32:01.071,1,-0.09,-0.2,1.1,77.03399999999999,54.979,92.8304,175,75
2026-05-09 16:32:01.081,1,-0.12,-0.55,1.22,87.214,50.888999999999996,81.3004,175,75
2026-05-09 16:32:01.092,1,-0.2,-0.43,1.34,75.144,13.509000000000004,77.22040000000001,175,75
2026-05-09 16:32:01.104,1,-0.26,-0.42,1.34,60.443999999999996,13.269000000000002,67.34039999999999,175,75
2026-05-09 16:32:01.114,1,-0.36,-0.31,1.37,52.824000000000005,7.968999999999998,63.86039999999999,175,75
2026-05-09 16:32:01.130,1,-0.4,-0.17,1.21,43.734,7.6590000000000025,56.1204,175,75
2026-05-09 16:32:01.130,1,-0.34,-0.15,1.18,40.624,11.199000000000002,48.1304,175,75
2026-05-09 16:32:01.163,1,-0.21,-0.12,1.18,22.943999999999996,-12.280999999999999,35.940400000000004,175,75
2026-05-09 16:32:01.175,1,-0.19,-0.23,1.28,16.903999999999996,-19.781,31.3604,175,75
2026-05-09 16:32:01.189,1,-0.2,-0.19,1.21,8.124000000000002,-26.730999999999998,24.470399999999998,175,75
2026-05-09 16:32:01.211,1,-0.2,-0.24,1.09,4.223999999999997,-18.921,13.130400000000002,175,75
2026-05-09 16:32:01.211,1,-0.2,-0.29,1.05,5.994,-10.081,3.3804000000000016,175,75
2026-05-09 16:32:01.234,1,-0.26,-0.27,1.13,9.473999999999997,-1.4209999999999994,-3.3896000000000015,175,75
2026-05-09 16:32:01.247,1,-0.31,-0.27,1.18,7.153999999999996,1.2590000000000003,-8.999600000000001,175,75
2026-05-09 16:32:01.249,1,-0.3,-0.22,1.15,5.564,4.429000000000002,-15.589600000000003,175,75
2026-05-09 16:32:01.300,1,-0.25,-0.22,1.26,-6.016000000000002,8.578999999999997,-30.0396,175,75
2026-05-09 16:32:01.368,1,-0.12,-0.2,1.28,-14.856000000000002,8.449000000000002,-24.189600000000002,175,75
2026-05-09 16:32:01.393,1,-0.17,-0.25,1.13,-26.076,2.779,-26.009600000000002,175,75
2026-05-09 16:32:01.403,1,-0.14,-0.22,1.15,-24.556,7.599,-16.869600000000002,175,75
2026-05-09 16:32:01.427,1,-0.11,-0.18,1.09,-21.816000000000003,18.089000000000002,-7.5396,175,75
2026-05-09 16:32:01.449,1,-0.14,-0.19,1.06,-15.896,18.879,2.0303999999999967,175,75
2026-05-09 16:32:01.460,1,-0.16,-0.19,1.11,-11.566000000000003,20.099,4.7804,175,75
2026-05-09 16:32:01.469,1,-0.17,-0.2,1.1,-7.545999999999999,16.989,9.900399999999998,175,75
2026-05-09 16:32:01.492,1,-0.15,-0.19,1.09,-5.526,15.828999999999997,11.550399999999996,175,75
2026-05-09 16:32:01.502,1,-0.14,-0.19,1.08,-4.856000000000002,11.748999999999999,11.790399999999998,175,75
2026-05-09 16:32:01.511,1,-0.1,-0.2,1.13,-4.616,8.509000000000004,12.4604,175,75
2026-05-09 16:32:01.522,1,-0.17,-0.19,1.11,-5.656000000000002,3.3889999999999993,13.380400000000002,175,75
2026-05-09 16:32:01.533,1,-0.24,-0.13,1.14,-4.376000000000001,1.1389999999999993,17.160399999999996,175,75
2026-05-09 16:32:01.543,1,-0.25,-0.07,1.17,-4.496000000000002,-2.280999999999999,22.6404,175,75
2026-05-09 16:32:01.579,1,-0.04,-0.23,1.02,10.683999999999997,5.399000000000001,15.880400000000002,175,75
2026-05-09 16:32:01.593,1,-0.09,-0.2,1.04,16.973999999999997,-3.9209999999999994,11.970399999999998,175,75
2026-05-09 16:32:01.624,1,-0.2,-0.1,1.13,23.674,-11.791,14.410399999999996,175,75
2026-05-09 16:32:01.634,1,-0.24,-0.06,1.15,21.293999999999997,-12.461,16.6104,175,75
2026-05-09 16:32:01.674,1,-0.27,-0.13,1.15,20.874000000000002,-13.921,20.330399999999997,175,75
2026-05-09 16:32:01.703,1,-0.26,-0.14,1.14,21.723999999999997,-12.770999999999999,19.900399999999998,175,75
2026-05-09 16:32:01.725,1,-0.19,-0.21,1.13,28.674,-5.271000000000001,12.6404,175,75
2026-05-09 16:32:01.735,1,-0.2,-0.22,1.12,30.144,-3.9909999999999997,9.5304,175,75
2026-05-09 16:32:01.746,1,-0.17,-0.23,1.14,31.363999999999997,-4.9609999999999985,6.420400000000001,175,75
2026-05-09 16:32:01.811,1,-0.28,-0.13,1.17,43.184000000000005,-7.8309999999999995,-14.549600000000002,175,75
2026-05-09 16:32:01.811,1,-0.26,-0.11,1.19,43.614,-9.410999999999998,-16.689600000000002,175,75
2026-05-09 16:32:01.834,1,-0.25,-0.19,1.21,46.053999999999995,-12.341,-23.0896,175,75
2026-05-09 16:32:01.845,1,-0.28,-0.19,1.21,46.904,-14.231,-25.3396,175,75
2026-05-09 16:32:01.867,1,-0.27,-0.17,1.14,59.10399999999999,-10.021,-31.7496,175,75
2026-05-09 16:32:01.910,1,-0.17,-0.34,1.24,73.434,-16.971,-43.3296,175,75
2026-05-09 16:32:01.910,1,-0.2,-0.45,1.24,76.72399999999999,-13.801,-50.7096,175,75
2026-05-09 16:32:01.921,1,-0.17,-0.53,1.28,79.04400000000001,-9.471,-53.0296,175,75
2026-05-09 16:32:01.932,1,-0.13,-0.56,1.31,75.144,-5.881,-52.1696,175,75
2026-05-09 16:32:01.947,1,-0.07,-0.61,1.34,65.564,5.589000000000002,-45.589600000000004,175,75
2026-05-09 16:32:01.982,1,0.02,-0.64,1.5,44.894,21.319,-43.3896,175,75
2026-05-09 16:32:01.992,1,0.05,-0.54,1.6,37.824000000000005,20.828999999999997,-36.4996,175,75
2026-05-09 16:32:02.007,1,0.01,-0.34,1.67,34.833999999999996,-1.6110000000000007,-36.7496,175,75
2026-05-09 16:32:02.018,1,-0.03,-0.18,1.68,35.014,-6.910999999999998,-36.3196,175,75
2026-05-09 16:32:02.035,1,-0.01,-0.06,1.71,32.704,-16.421,-31.439600000000002,175,75
2026-05-09 16:32:02.055,1,-0.03,-0.03,1.56,21.973999999999997,-39.841,-25.399600000000003,175,75
2026-05-09 16:32:02.055,1,-0.0,-0.04,1.53,17.094,-50.141,-22.779600000000002,175,75
2026-05-09 16:32:02.089,1,-0.0,0.07,1.45,-8.636000000000003,-67.581,-16.619600000000002,175,75
2026-05-09 16:32:02.135,1,-0.06,0.14,1.38,-29.616,-74.471,-7.299600000000002,175,75
2026-05-09 16:32:02.154,1,-0.18,0.11,1.35,-39.796,-70.081,-0.21960000000000335,175,75
2026-05-09 16:32:02.215,1,-0.27,-0.22,1.86,-65.956,41.559,42.220400000000005,175,75
2026-05-09 16:32:02.241,1,0.1,-0.84,1.28,-90.77600000000001,-10.881,35.450399999999995,175,75
2026-05-09 16:32:02.241,1,0.23,-0.7,1.24,-104.856,2.1690000000000005,37.64039999999999,175,75
2026-05-09 16:32:02.259,1,0.2,-0.35,1.45,-106.816,3.149000000000001,38.1304,175,75
2026-05-09 16:32:02.291,1,-0.21,-0.53,1.15,-99.856,-23.991,16.4204,175,75
2026-05-09 16:32:02.323,1,-0.44,-0.38,1.28,-91.506,-13.501,14.9604,175,75
2026-05-09 16:32:02.323,1,-0.36,-0.26,1.21,-82.96600000000001,-22.771,17.520399999999995,175,75
2026-05-09 16:32:02.338,1,-0.27,-0.23,1.14,-72.606,-19.721,15.690399999999997,175,75
2026-05-09 16:32:02.357,1,-0.17,-0.12,1.03,-64.926,-24.841,10.810400000000001,175,75
2026-05-09 16:32:02.394,1,-0.3,-0.14,1.15,-25.226,-35.331,-16.3196,175,75
2026-05-09 16:32:02.424,1,-0.24,-0.19,1.15,-20.226,-35.510999999999996,-26.259600000000002,175,75
2026-05-09 16:32:02.437,1,-0.19,-0.24,1.13,-18.946,-39.171,-30.8896,175,75
2026-05-09 16:32:02.451,1,-0.17,-0.31,1.16,-17.116,-38.191,-35.589600000000004,175,75
2026-05-09 16:32:02.452,1,-0.17,-0.36,1.19,-17.296,-39.351,-38.9996,175,75
2026-05-09 16:32:02.462,1,-0.2,-0.34,1.21,-16.076,-37.641,-39.2496,175,75
2026-05-09 16:32:02.482,1,-0.15,-0.29,1.16,-15.466000000000001,-40.751,-38.509600000000006,175,75
2026-05-09 16:32:02.509,1,-0.14,-0.29,1.13,-13.216000000000001,-37.281,-39.4296,175,75
2026-05-09 16:32:02.531,1,-0.05,-0.18,1.14,-8.456,-44.721000000000004,-36.0096,175,75
2026-05-09 16:32:02.573,1,0.02,-0.13,1.02,12.094000000000001,-49.601,-27.1096,175,75
2026-05-09 16:32:02.610,1,-0.1,-0.37,1.25,21.293999999999997,-50.691,-26.259600000000002,175,75
2026-05-09 16:32:02.624,1,-0.12,-0.36,1.25,21.543999999999997,-55.081,-24.189600000000002,175,75
2026-05-09 16:32:02.624,1,-0.09,-0.37,1.24,21.424,-58.381,-23.209600000000002,175,75
2026-05-09 16:32:02.643,1,-0.07,-0.37,1.2,22.034,-60.571,-23.509600000000002,175,75
2026-05-09 16:32:02.667,1,-0.03,-0.36,1.22,24.403999999999996,-58.561,-23.6396,175,75
2026-05-09 16:32:02.669,1,-0.01,-0.36,1.24,25.073999999999998,-60.021,-21.199600000000004,175,75
2026-05-09 16:32:02.694,1,0.07,-0.38,1.25,27.884,-63.801,-17.169600000000003,175,75
2026-05-09 16:32:02.774,1,0.03,-0.27,1.42,1.9739999999999966,-112.95100000000001,-14.729600000000001,175,75
2026-05-09 16:32:02.808,1,-0.22,-0.21,1.42,-9.926000000000002,-117.101,-16.619600000000002,175,75
2026-05-09 16:32:02.816,1,-0.26,-0.15,1.42,-11.876000000000001,-109.84100000000001,-14.919600000000003,175,75
2026-05-09 16:32:02.863,1,-0.35,-0.1,1.4,-13.886000000000003,-85.211,-11.499600000000001,175,75
2026-05-09 16:32:02.895,1,-0.38,-0.04,1.41,-24.926000000000002,-71.971,-7.479600000000001,175,75
2026-05-09 16:32:02.937,1,-0.37,0.05,1.17,-35.286,-53.071,0.5103999999999971,175,75
2026-05-09 16:32:02.952,1,-0.31,0.08,1.2,-38.336,-45.211,3.190399999999997,175,75
2026-05-09 16:32:02.992,1,-0.3,0.04,1.25,-52.606,-50.021,4.9604,175,75
2026-05-09 16:32:03.002,1,-0.29,0.05,1.26,-61.876000000000005,-48.501000000000005,7.220399999999998,175,75
2026-05-09 16:32:03.020,1,-0.27,-0.01,1.21,-74.856,-46.421,7.830399999999997,175,75
2026-05-09 16:32:03.042,1,-0.33,-0.13,1.08,-87.356,-8.991,8.190399999999997,175,75
2026-05-09 16:32:03.083,1,-0.28,-0.12,1.17,-94.376,23.449,25.1404,175,75
2026-05-09 16:32:03.112,1,-0.38,-0.51,1.51,-67.726,45.278999999999996,32.5804,175,75
2026-05-09 16:32:03.141,1,-0.09,-0.82,0.95,-59.436,53.699,39.4104,175,75
2026-05-09 16:32:03.213,1,-0.13,-0.47,0.98,-45.596000000000004,89.309,62.4604,175,75
2026-05-09 16:32:03.236,1,-0.19,-0.48,1.0,-48.636,110.58899999999998,63.560399999999994,175,75
2026-05-09 16:32:03.236,1,-0.28,-0.29,1.11,-49.556,125.21900000000001,75.0804,175,75
2026-05-09 16:32:03.315,1,0.34,0.0,2.11,94.404,231.619,38.50039999999999,175,75
2026-05-09 16:32:03.343,1,0.47,0.11,1.98,156.784,228.089,30.200399999999995,175,75
2026-05-09 16:32:03.355,1,0.52,-0.03,1.97,177.51399999999998,203.81900000000002,28.440399999999997,175,75
2026-05-09 16:32:03.369,1,0.48,-0.14,1.85,192.334,165.03900000000002,28.5004,175,75
2026-05-09 16:32:03.420,1,0.22,-0.39,1.32,246.844,99.249,10.5704,175,75
2026-05-09 16:32:03.508,1,0.28,-0.9,0.74,245.38400000000001,10.828999999999997,-19.489600000000003,175,75
2026-05-09 16:32:03.519,1,0.16,-0.95,0.59,234.834,11.199000000000002,-24.8596,175,75
2026-05-09 16:32:03.524,1,0.05,-0.97,0.45,215.444,21.869000000000003,-26.079600000000003,175,75
2026-05-09 16:32:03.542,1,0.01,-0.95,0.34,195.994,33.879000000000005,-26.3196,175,75
2026-05-09 16:32:03.554,1,-0.04,-0.87,0.26,171.114,44.979,-27.1096,175,75
2026-05-09 16:32:03.565,1,-0.06,-0.74,0.23,144.344,61.138999999999996,-27.2996,175,75
2026-05-09 16:32:03.624,1,-0.12,-0.41,0.62,5.323999999999998,69.919,-10.399600000000003,175,75
2026-05-09 16:32:03.686,1,-0.13,-0.35,1.01,-85.656,46.679,0.5703999999999994,175,75
2026-05-09 16:32:03.725,1,-0.11,-0.25,1.19,-120.77600000000001,19.858999999999998,9.5304,175,75
2026-05-09 16:32:03.740,1,-0.1,-0.23,1.25,-123.826,27.779,9.900399999999998,175,75
2026-05-09 16:32:03.753,1,-0.07,-0.21,1.32,-125.77600000000001,29.788999999999998,12.0304,175,75
2026-05-09 16:32:03.772,1,-0.08,-0.15,1.46,-128.516,24.059,15.750399999999999,175,75
2026-05-09 16:32:03.798,1,-0.08,-0.13,1.52,-129.986,14.309000000000001,17.580399999999997,175,75
2026-05-09 16:32:03.827,1,-0.08,-0.09,1.5,-134.676,-32.951,24.470399999999998,175,75
2026-05-09 16:32:03.837,1,-0.07,-0.07,1.48,-136.746,-38.501,27.220399999999998,175,75
2026-05-09 16:32:03.849,1,-0.09,-0.06,1.46,-137.906,-41.181,29.230399999999996,175,75
2026-05-09 16:32:03.867,1,-0.74,0.08,1.37,-136.876,-68.861,57.4604,175,75
2026-05-09 16:32:03.888,1,0.98,-0.47,2.19,-116.20599999999999,-73.56099999999999,43.440400000000004,175,75
2026-05-09 16:32:03.904,1,0.16,-0.26,1.88,-122.11600000000001,-114.111,27.340399999999995,175,75
2026-05-09 16:32:03.919,1,0.39,-0.46,1.61,-128.456,-86.491,8.010399999999997,175,75
2026-05-09 16:32:03.949,1,0.47,-0.53,4.31,-29.556,72.169,6.1203999999999965,175,75
2026-05-09 16:32:03.949,1,0.08,-0.66,4.74,-35.836,-29.661,-0.21960000000000335,175,75
2026-05-09 16:32:03.963,1,-1.54,-0.86,3.54,-25.466,-146.421,-6.1996,175,75
2026-05-09 16:32:03.974,1,-0.55,-1.29,0.81,-51.326,-126.061,10.880400000000002,175,75
2026-05-09 16:32:03.985,1,0.06,-0.77,0.54,-69.926,-15.211,28.190399999999997,175,75
2026-05-09 16:32:04.046,1,-0.23,-0.07,1.2,-16.816000000000003,-10.751,23.3804,175,75
2026-05-09 16:32:04.059,1,-0.45,-0.2,1.45,-15.896,-11.061,28.620399999999997,175,75
2026-05-09 16:32:04.070,1,-0.35,-0.3,1.26,-16.136000000000003,-4.350999999999999,31.2404,175,75
2026-05-09 16:32:04.086,1,-0.07,-0.33,1.14,-18.516000000000002,-5.570999999999998,28.440399999999997,175,75
2026-05-09 16:32:04.097,1,-0.19,-0.26,1.07,-12.236,-8.381,23.3804,175,75
2026-05-09 16:32:04.102,1,-0.31,-0.28,1.22,-9.246000000000002,-6.120999999999999,17.6404,175,75
2026-05-09 16:32:04.113,1,-0.32,-0.27,1.24,-10.106000000000002,-8.070999999999998,12.400399999999998,175,75
2026-05-09 16:32:04.124,1,-0.3,-0.2,1.19,-8.766000000000002,-7.9510000000000005,7.6404,175,75
2026-05-09 16:32:04.138,1,-0.25,-0.2,1.16,-7.056000000000001,-6.730999999999998,3.8003999999999962,175,75
2026-05-09 16:32:04.143,1,-0.2,-0.19,1.14,-3.886000000000003,-8.440999999999999,0.7503999999999991,175,75
2026-05-09 16:32:04.164,1,-0.21,-0.16,1.14,0.4439999999999955,-9.230999999999998,-0.46960000000000335,175,75
2026-05-09 16:32:04.214,1,-0.15,-0.21,1.19,14.403999999999996,-9.600999999999999,2.6403999999999996,175,75
2026-05-09 16:32:04.224,1,-0.19,-0.23,1.2,14.533999999999999,-9.530999999999999,3.1304000000000016,175,75
2026-05-09 16:32:04.235,1,-0.19,-0.21,1.19,15.013999999999996,-6.791,3.0703999999999994,175,75
2026-05-09 16:32:04.272,1,-0.18,-0.24,1.24,15.263999999999996,-5.0809999999999995,2.220399999999998,175,75
2026-05-09 16:32:04.292,1,-0.17,-0.25,1.2,15.013999999999996,-5.690999999999999,1.2403999999999975,175,75
2026-05-09 16:32:04.302,1,-0.19,-0.25,1.21,15.683999999999997,-4.9609999999999985,0.45039999999999836,175,75
2026-05-09 16:32:04.308,1,-0.2,-0.27,1.23,17.274,-4.291,-2.1096000000000004,175,75
2026-05-09 16:32:04.323,1,-0.21,-0.28,1.25,18.674,-4.660999999999998,-3.149600000000003,175,75
2026-05-09 16:32:04.330,1,-0.19,-0.27,1.24,19.223999999999997,-4.660999999999998,-3.939600000000002,175,75
2026-05-09 16:32:04.353,1,-0.16,-0.34,1.26,22.153999999999996,-4.170999999999999,-5.0396,175,75
2026-05-09 16:32:04.353,1,-0.16,-0.3,1.25,21.054000000000002,-4.291,-4.549600000000002,175,75
2026-05-09 16:32:04.369,1,-0.15,-0.31,1.25,20.933999999999997,-2.521000000000001,-4.549600000000002,175,75
2026-05-09 16:32:04.386,1,-0.16,-0.3,1.26,19.833999999999996,-0.5109999999999992,-3.089600000000001,175,75
2026-05-09 16:32:04.398,1,-0.15,-0.31,1.26,18.674,0.6490000000000009,-2.7196000000000033,175,75
2026-05-09 16:32:04.408,1,-0.14,-0.3,1.3,16.604,1.3790000000000013,-1.6896000000000022,175,75
2026-05-09 16:32:04.414,1,-0.16,-0.3,1.3,12.823999999999998,2.3590000000000018,-0.15960000000000107,175,75
2026-05-09 16:32:04.451,1,-0.14,-0.25,1.32,2.033999999999999,5.099,2.770399999999995,175,75
2026-05-09 16:32:04.464,1,-0.15,-0.25,1.33,-2.966000000000001,4.369,2.8903999999999996,175,75
2026-05-09 16:32:04.491,1,-0.13,-0.21,1.34,-21.566000000000003,-3.2510000000000012,3.010399999999997,175,75
2026-05-09 16:32:04.531,1,-0.17,-0.13,1.27,-45.166,-13.011,4.050399999999996,175,75
2026-05-09 16:32:04.550,1,-0.2,-0.1,1.31,-51.686,-10.751,5.330399999999997,175,75
2026-05-09 16:32:04.562,1,-0.32,-0.1,1.32,-59.676,-5.751000000000001,6.970399999999998,175,75
2026-05-09 16:32:04.573,1,-0.38,-0.09,1.3,-61.566,-1.0010000000000012,7.700399999999995,175,75
2026-05-09 16:32:04.625,1,-0.21,-0.22,1.18,-63.826,17.288999999999998,5.450399999999995,175,75
2026-05-09 16:32:04.634,1,-0.17,-0.27,1.18,-64.556,18.269000000000002,4.7804,175,75
2026-05-09 16:32:04.653,1,-0.15,-0.31,1.2,-66.686,20.038999999999998,5.3904,175,75
2026-05-09 16:32:04.653,1,-0.12,-0.37,1.17,-69.24600000000001,16.869000000000003,3.190399999999997,175,75
2026-05-09 16:32:04.663,1,-0.08,-0.43,1.16,-72.236,14.788999999999998,1.5503999999999998,175,75
2026-05-09 16:32:04.698,1,-0.08,-0.48,1.11,-74.986,10.709,-0.3396000000000008,175,75
2026-05-09 16:32:04.709,1,-0.08,-0.46,1.13,-74.24600000000001,15.589000000000002,1.3003999999999998,175,75
2026-05-09 16:32:04.714,1,-0.06,-0.48,1.12,-74.616,15.159000000000002,1.4903999999999975,175,75
2026-05-09 16:32:04.726,1,-0.03,-0.57,1.09,-74.49600000000001,10.709,-4.249600000000001,175,75
2026-05-09 16:32:04.726,1,-0.09,-0.62,1.09,-74.376,10.279,-10.529600000000002,175,75
2026-05-09 16:32:04.738,1,-0.1,-0.69,1.15,-70.406,15.038999999999998,-12.1096,175,75
2026-05-09 16:32:04.751,1,-0.04,-0.71,1.26,-71.326,14.549000000000003,-7.659600000000001,175,75
2026-05-09 16:32:04.763,1,0.0,-0.74,1.34,-76.816,12.049000000000003,-6.1996,175,75
2026-05-09 16:32:04.787,1,0.1,-0.79,1.32,-84.436,8.759000000000004,-11.869600000000002,175,75
2026-05-09 16:32:04.811,1,0.22,-1.03,1.64,-108.826,12.968999999999998,-24.369600000000002,175,75
2026-05-09 16:32:04.827,1,0.16,-1.1,1.74,-121.326,8.879000000000001,-26.619600000000002,175,75
2026-05-09 16:32:04.832,1,0.09,-1.08,1.75,-140.106,-0.5109999999999992,-25.4696,175,75
2026-05-09 16:32:04.849,1,-0.05,-0.94,1.73,-155.526,-10.331,-15.469600000000002,175,75
2026-05-09 16:32:04.863,1,-0.16,-0.67,1.93,-150.406,-25.081,15.630400000000002,175,75
2026-05-09 16:32:04.873,1,-0.07,-0.76,1.84,-140.836,-52.771,15.270399999999995,175,75
2026-05-09 16:32:04.873,1,-0.22,-0.75,1.63,-137.846,-68.991,11.730399999999996,175,75
2026-05-09 16:32:04.900,1,-0.45,-0.48,1.31,-135.956,-48.861000000000004,24.7804,175,75
2026-05-09 16:32:04.937,1,-0.57,-1.11,1.54,-60.525999999999996,75.279,10.750399999999999,175,75
2026-05-09 16:32:04.952,1,-0.32,-0.83,1.24,-74.49600000000001,74.919,-5.099600000000002,175,75
2026-05-09 16:32:04.967,1,-0.45,-0.53,0.83,-79.186,86.009,-15.529600000000002,175,75
2026-05-09 16:32:05.016,1,-0.23,-0.09,1.2,15.443999999999996,47.539,-15.099600000000002,175,75
2026-05-09 16:32:05.067,1,-0.64,-0.07,0.25,83.494,-82.711,-70.9496,175,75
2026-05-09 16:32:05.078,1,-0.7,-0.04,0.25,90.934,-93.921,-74.3096,175,75
2026-05-09 16:32:05.088,1,-0.71,-0.03,0.26,97.82399999999998,-107.581,-77.1096,175,75
2026-05-09 16:32:05.088,1,-0.72,-0.03,0.18,101.17399999999998,-121.12100000000001,-83.81960000000001,175,75
2026-05-09 16:32:05.141,1,-0.76,0.14,-0.13,112.51399999999998,-107.771,-84.8596,175,75
2026-05-09 16:32:05.184,1,-0.83,0.32,0.02,125.44399999999999,-69.841,-86.1396,175,75
2026-05-09 16:32:05.197,1,-0.8,0.37,0.14,126.054,-63.991,-81.7496,175,75
2026-05-09 16:32:05.217,1,-0.75,0.42,0.24,118.79399999999998,-61.06099999999999,-75.5296,175,75
2026-05-09 16:32:05.228,1,-0.7,0.46,0.26,115.75399999999999,-61.611000000000004,-71.86959999999999,175,75
2026-05-09 16:32:05.238,1,-0.66,0.49,0.3,111.66399999999999,-63.991,-67.8396,175,75
2026-05-09 16:32:05.252,1,-0.54,0.56,0.45,100.01399999999998,-72.711,-58.9396,175,75
2026-05-09 16:32:05.274,1,-0.5,0.6,0.5,90.75399999999999,-80.631,-55.949600000000004,175,75
2026-05-09 16:32:05.285,1,-0.46,0.63,0.54,83.864,-81.671,-52.2996,175,75
2026-05-09 16:32:05.309,1,-0.42,0.68,0.58,77.154,-83.191,-49.6096,175,75
2026-05-09 16:32:05.323,1,-0.43,0.77,0.66,69.22399999999999,-83.381,-44.2496,175,75
2026-05-09 16:32:05.343,1,-0.33,0.86,0.7,49.163999999999994,-76.551,-36.0096,175,75
2026-05-09 16:32:05.375,1,-0.05,0.98,1.09,14.473999999999997,-59.291,-17.839600000000004,175,75
2026-05-09 16:32:05.386,1,-0.01,1.01,1.21,3.3740000000000023,-61.241,-11.809600000000003,175,75
2026-05-09 16:32:05.386,1,0.06,1.02,1.29,-5.526,-58.191,-6.319600000000001,175,75
2026-05-09 16:32:05.411,1,0.13,1.01,1.35,-13.276,-55.631,-0.6496000000000031,175,75
2026-05-09 16:32:05.411,1,0.18,1.0,1.41,-17.606,-53.251000000000005,3.010399999999997,175,75
2026-05-09 16:32:05.446,1,0.29,0.97,1.53,-26.506,-53.251000000000005,8.310400000000001,175,75
2026-05-09 16:32:05.446,1,0.28,0.93,1.49,-31.386000000000003,-46.671,7.950399999999995,175,75
2026-05-09 16:32:05.458,1,0.29,0.9,1.42,-36.076,-35.751,7.400399999999998,175,75
2026-05-09 16:32:05.471,1,0.24,0.85,1.3,-47.056,-19.111,10.080399999999997,175,75
2026-05-09 16:32:05.483,1,0.24,0.83,1.21,-56.016000000000005,-4.530999999999999,12.0304,175,75
2026-05-09 16:32:05.493,1,0.21,0.8,1.14,-67.116,9.669,12.830399999999997,175,75
2026-05-09 16:32:05.504,1,0.2,0.77,1.13,-72.96600000000001,17.288999999999998,12.520399999999995,175,75
2026-05-09 16:32:05.515,1,0.2,0.72,1.17,-76.686,22.169,11.120399999999997,175,75
2026-05-09 16:32:05.526,1,0.17,0.65,1.16,-81.206,24.179,8.440399999999997,175,75
2026-05-09 16:32:05.537,1,0.1,0.63,1.12,-86.326,24.608999999999998,6.6103999999999985,175,75
2026-05-09 16:32:05.547,1,0.03,0.6,1.09,-90.956,30.589000000000002,5.810400000000001,175,75
2026-05-09 16:32:05.564,1,-0.02,0.53,1.08,-98.02600000000001,44.48899999999999,7.6404,175,75
2026-05-09 16:32:05.576,1,-0.06,0.48,1.08,-98.27600000000001,44.248999999999995,7.770399999999995,175,75
2026-05-09 16:32:05.587,1,-0.09,0.44,1.08,-96.01599999999999,41.679,6.910399999999996,175,75
2026-05-09 16:32:05.615,1,-0.24,0.37,0.99,-86.99600000000001,33.93900000000001,-0.09960000000000235,175,75
2026-05-09 16:32:05.631,1,-0.33,0.33,0.97,-76.26599999999999,53.638999999999996,-2.5996000000000024,175,75
2026-05-09 16:32:05.669,1,-0.2,0.06,1.11,-36.996,70.339,-8.999600000000001,175,75
2026-05-09 16:32:05.680,1,-0.14,-0.05,1.2,-19.496000000000002,62.289,-13.329600000000003,175,75
2026-05-09 16:32:05.698,1,-0.15,-0.12,1.29,-4.986000000000001,52.358999999999995,-15.529600000000002,175,75
2026-05-09 16:32:05.698,1,-0.12,-0.21,1.37,14.283999999999999,39.48899999999999,-19.7296,175,75
2026-05-09 16:32:05.720,1,-0.15,-0.31,1.48,32.394,23.089000000000002,-23.509600000000002,175,75
2026-05-09 16:32:05.720,1,-0.13,-0.37,1.58,47.704,16.379,-26.559600000000003,175,75
2026-05-09 16:32:05.745,1,-0.07,-0.63,1.75,92.334,-7.160999999999998,-31.9296,175,75
2026-05-09 16:32:05.745,1,-0.06,-0.78,1.77,113.494,-12.520999999999999,-35.589600000000004,175,75
2026-05-09 16:32:05.757,1,-0.05,-0.88,1.8,131.23399999999998,-11.001,-37.479600000000005,175,75
2026-05-09 16:32:05.771,1,-0.06,-0.97,1.86,150.814,-8.501000000000001,-37.4196,175,75
2026-05-09 16:32:05.778,1,-0.05,-1.08,2.0,178.124,-6.670999999999999,-34.0596,175,75
2026-05-09 16:32:05.789,1,-0.03,-1.16,2.12,202.154,-7.771000000000001,-30.099600000000002,175,75
2026-05-09 16:32:05.806,1,-0.0,-1.26,2.21,217.944,-14.291,-27.2996,175,75
2026-05-09 16:32:05.828,1,-0.04,-1.55,2.29,244.594,-30.941,-18.9996,175,75
2026-05-09 16:32:05.835,1,-0.04,-1.6,2.34,254.164,-37.891,-11.9296,175,75
2026-05-09 16:32:05.877,1,-0.05,-1.7,2.33,278.06399999999996,-50.510999999999996,2.3403999999999954,175,75
2026-05-09 16:32:05.892,1,-0.01,-1.76,2.25,285.444,-45.751000000000005,5.940399999999997,175,75
2026-05-09 16:32:05.937,1,-0.02,-1.62,2.05,263.43399999999997,-58.92100000000001,-2.2996000000000016,175,75
2026-05-09 16:32:05.955,1,-0.03,-1.36,1.87,236.784,-66.241,-4.669600000000003,175,75
2026-05-09 16:32:06.012,1,-0.15,-0.65,1.49,172.214,-12.711,-1.499600000000001,175,75
2026-05-09 16:32:06.034,1,-0.14,-0.48,1.44,143.92399999999998,-11.181,2.4003999999999976,175,75
2026-05-09 16:32:06.077,1,-0.06,-0.23,1.3,88.614,-45.571,4.170400000000001,175,75
2026-05-09 16:32:06.133,1,-0.09,0.05,1.15,7.704000000000001,-71.491,9.6004,175,75
2026-05-09 16:32:06.156,1,-0.06,0.07,1.14,-27.296,-61.911,11.060400000000001,175,75
2026-05-09 16:32:06.196,1,-0.08,0.14,1.32,-69.066,-47.400999999999996,19.660399999999996,175,75
2026-05-09 16:32:06.228,1,-0.04,0.1,1.42,-81.01599999999999,-34.051,21.8504,175,75
2026-05-09 16:32:06.244,1,-0.03,0.1,1.48,-83.636,-30.570999999999998,23.5004,175,75
2026-05-09 16:32:06.261,1,-0.02,0.08,1.55,-85.04599999999999,-28.741,23.0704,175,75
2026-05-09 16:32:06.263,1,-0.02,0.02,1.61,-86.566,-30.451,23.5004,175,75
2026-05-09 16:32:06.273,1,-0.06,-0.05,1.67,-89.676,-34.721000000000004,23.9204,175,75
2026-05-09 16:32:06.281,1,-0.07,-0.09,1.71,-92.29599999999999,-37.521,26.4204,175,75
2026-05-09 16:32:06.302,1,-0.05,-0.18,1.69,-98.576,-35.821,30.330399999999997,175,75
2026-05-09 16:32:06.315,1,-0.05,-0.19,1.68,-102.42599999999999,-30.511,32.520399999999995,175,75
2026-05-09 16:32:06.357,1,0.03,-0.27,1.88,-106.386,-20.881,39.11039999999999,175,75
2026-05-09 16:32:06.357,1,0.03,-0.34,1.91,-107.48599999999999,-28.250999999999998,39.9004,175,75
2026-05-09 16:32:06.372,1,-0.01,-0.42,1.88,-112.54599999999999,-37.461,41.00039999999999,175,75
2026-05-09 16:32:06.397,1,-0.06,-0.54,1.76,-131.686,-47.891,48.3804,175,75
2026-05-09 16:32:06.408,1,-0.05,-0.47,1.81,-138.216,-50.081,55.450399999999995,175,75
2026-05-09 16:32:06.419,1,-0.48,-0.22,2.15,-113.70599999999999,-48.561,75.0804,175,75
2026-05-09 16:32:06.468,1,1.37,-0.74,2.44,-31.266000000000002,-508.74100000000004,13.010399999999997,175,75
2026-05-09 16:32:06.468,1,-0.67,-1.07,-0.61,-65.956,-533.321,-22.7196,175,75
2026-05-09 16:32:06.479,1,-1.47,-1.08,-2.09,-85.71600000000001,-280.821,3.440399999999997,175,75
2026-05-09 16:32:06.493,1,-0.62,-0.5,-1.05,-79.986,119.789,90.5704,175,75
2026-05-09 16:32:06.505,1,0.73,-0.65,1.78,-79.436,219.24900000000002,102.22040000000001,175,75
2026-05-09 16:32:06.516,1,0.37,-0.24,2.58,-71.936,40.709,66.7904,175,75
2026-05-09 16:32:06.527,1,-0.27,-0.09,2.18,-68.02600000000001,-2.160999999999998,69.72040000000001,175,75
2026-05-09 16:32:06.549,1,-0.27,-0.36,0.98,-94.126,-26.061,48.3804,175,75
2026-05-09 16:32:06.557,1,-0.07,-0.41,1.22,-65.346,20.529,53.6804,175,75
2026-05-09 16:32:06.573,1,-0.08,-0.39,1.56,-57.606,35.528999999999996,52.220400000000005,175,75
2026-05-09 16:32:06.583,1,-0.09,-0.31,1.69,-63.216,21.319,46.61039999999999,175,75
2026-05-09 16:32:06.599,1,-0.18,-0.44,1.39,-47.726,4.7890000000000015,41.5504,175,75
2026-05-09 16:32:06.642,1,-0.17,-0.29,1.58,-41.816,-7.521000000000001,28.3104,175,75
2026-05-09 16:32:06.669,1,-0.21,-0.27,1.52,-39.436,-5.690999999999999,23.800399999999996,175,75
2026-05-09 16:32:06.686,1,-0.21,-0.24,1.51,-35.776,-6.061,21.0004,175,75
2026-05-09 16:32:06.698,1,-0.23,-0.23,1.49,-30.656000000000002,-4.410999999999998,19.660399999999996,175,75
2026-05-09 16:32:06.709,1,-0.23,-0.19,1.48,-19.926000000000002,4.489000000000001,19.5304,175,75
2026-05-09 16:32:06.742,1,-0.24,-0.22,1.51,-5.346,11.559000000000001,18.8604,175,75
2026-05-09 16:32:06.768,1,-0.19,-0.26,1.53,-5.106000000000002,15.709,16.4204,175,75
2026-05-09 16:32:06.800,1,-0.22,-0.25,1.58,-10.956,8.998999999999999,13.500399999999999,175,75
2026-05-09 16:32:06.822,1,-0.21,-0.27,1.59,-17.426000000000002,11.498999999999999,12.1004,175,75
2026-05-09 16:32:06.848,1,-0.23,-0.28,1.57,-25.896,7.599,11.180399999999999,175,75
2026-05-09 16:32:06.848,1,-0.23,-0.26,1.49,-27.056,6.619000000000003,10.270399999999995,175,75
2026-05-09 16:32:06.956,1,-0.16,-0.31,1.44,9.713999999999999,7.718999999999998,3.440399999999997,175,75
2026-05-09 16:32:06.967,1,-0.16,-0.32,1.4,10.564,8.699000000000002,1.5503999999999998,175,75
2026-05-09 16:32:07.002,1,-0.16,-0.29,1.47,14.344000000000001,14.729000000000003,1.5503999999999998,175,75
2026-05-09 16:32:07.021,1,-0.19,-0.29,1.51,11.113999999999997,13.449000000000002,0.27039999999999864,175,75
2026-05-09 16:32:07.033,1,-0.23,-0.26,1.54,8.863999999999997,13.509000000000004,0.33039999999999736,175,75
2026-05-09 16:32:07.071,1,-0.2,-0.25,1.55,6.543999999999997,15.038999999999998,-0.5896000000000008,175,75
2026-05-09 16:32:07.092,1,-0.21,-0.24,1.51,1.2340000000000018,7.898999999999997,1.0603999999999978,175,75
2026-05-09 16:32:07.114,1,-0.22,-0.21,1.53,0.4439999999999955,7.839000000000002,1.9103999999999992,175,75
2026-05-09 16:32:07.125,1,-0.23,-0.21,1.54,0.20400000000000063,4.6690000000000005,2.0303999999999967,175,75
2026-05-09 16:32:07.138,1,-0.23,-0.22,1.53,-1.0760000000000005,1.679000000000002,1.4203999999999972,175,75
2026-05-09 16:32:07.139,1,-0.23,-0.22,1.52,-0.8960000000000008,-0.08099999999999952,0.5703999999999994,175,75
2026-05-09 16:32:07.163,1,-0.24,-0.22,1.55,-1.6259999999999977,-2.8309999999999995,2.1603999999999957,175,75
2026-05-09 16:32:07.188,1,-0.27,-0.22,1.57,-6.266000000000002,-13.801,3.740400000000001,175,75
2026-05-09 16:32:07.204,1,-0.24,-0.2,1.58,-8.826,-14.231,4.9604,175,75
2026-05-09 16:32:07.215,1,-0.21,-0.24,1.49,-12.176000000000002,-14.171,3.990400000000001,175,75
2026-05-09 16:32:07.225,1,-0.18,-0.24,1.48,-12.666,-12.461,5.020399999999995,175,75
2026-05-09 16:32:07.248,1,-0.16,-0.25,1.45,-16.386000000000003,-9.350999999999999,7.4604,175,75
2026-05-09 16:32:07.278,1,-0.17,-0.33,1.55,-23.096000000000004,-4.841000000000001,10.450399999999995,175,75
2026-05-09 16:32:07.289,1,-0.19,-0.31,1.54,-26.746000000000002,-4.111000000000001,11.240400000000001,175,75
2026-05-09 16:32:07.316,1,-0.17,-0.32,1.49,-31.996000000000002,0.15899999999999892,11.730399999999996,175,75
2026-05-09 16:32:07.327,1,-0.17,-0.3,1.48,-34.316,0.7089999999999996,11.790399999999998,175,75
2026-05-09 16:32:07.338,1,-0.18,-0.29,1.46,-34.616,1.7489999999999988,13.010399999999997,175,75
2026-05-09 16:32:07.370,1,-0.21,-0.29,1.42,-31.506,6.559000000000001,12.160399999999996,175,75
2026-05-09 16:32:07.390,1,-0.28,-0.25,1.4,-24.616,11.678999999999998,9.5304,175,75
2026-05-09 16:32:07.421,1,-0.25,-0.25,1.44,-21.566000000000003,11.559000000000001,8.500399999999999,175,75
2026-05-09 16:32:07.434,1,-0.19,-0.23,1.43,-22.486,9.119000000000003,9.410399999999996,175,75
2026-05-09 16:32:07.461,1,-0.22,-0.22,1.37,-20.776000000000003,6.559000000000001,9.9604,175,75
2026-05-09 16:32:07.461,1,-0.23,-0.25,1.39,-20.106,7.108999999999998,9.7804,175,75
2026-05-09 16:32:07.474,1,-0.23,-0.25,1.4,-18.516000000000002,5.0390000000000015,9.410399999999996,175,75
2026-05-09 16:32:07.484,1,-0.25,-0.23,1.37,-18.156000000000002,3.3889999999999993,9.3504,175,75
2026-05-09 16:32:07.497,1,-0.28,-0.22,1.37,-14.436,2.599,8.800399999999996,175,75
2026-05-09 16:32:07.523,1,-0.28,-0.24,1.42,-9.556000000000001,0.03900000000000148,3.680399999999999,175,75
2026-05-09 16:32:07.535,1,-0.28,-0.26,1.42,-11.016000000000002,-2.771000000000001,2.2804,175,75
2026-05-09 16:32:07.549,1,-0.26,-0.26,1.41,-12.726000000000003,-3.8610000000000007,0.8803999999999981,175,75
2026-05-09 16:32:07.575,1,-0.25,-0.29,1.42,-15.346,-8.741,-2.4196000000000026,175,75
2026-05-09 16:32:07.586,1,-0.24,-0.29,1.41,-16.386000000000003,-8.741,-3.3896000000000015,175,75
2026-05-09 16:32:07.586,1,-0.2,-0.29,1.38,-16.626,-7.401,-3.4496,175,75
2026-05-09 16:32:07.608,1,-0.18,-0.31,1.38,-16.566000000000003,-5.940999999999999,-3.6396000000000015,175,75
2026-05-09 16:32:07.625,1,-0.19,-0.31,1.35,-16.816000000000003,-4.410999999999998,-3.149600000000003,175,75
2026-05-09 16:32:07.630,1,-0.19,-0.27,1.36,-16.686,-2.030999999999999,-1.1396000000000015,175,75
2026-05-09 16:32:07.659,1,-0.22,-0.23,1.39,-17.116,-2.771000000000001,0.08039999999999736,175,75
2026-05-09 16:32:07.731,1,-0.26,-0.25,1.29,-11.016000000000002,3.7590000000000003,-5.709600000000002,175,75
2026-05-09 16:32:07.750,1,-0.24,-0.24,1.33,-4.986000000000001,6.9289999999999985,-3.939600000000002,175,75
2026-05-09 16:32:07.785,1,-0.26,-0.22,1.4,-2.5459999999999994,-2.100999999999999,-1.1996000000000002,175,75
2026-05-09 16:32:07.796,1,-0.29,-0.2,1.41,-3.2760000000000034,-6.791,-1.1396000000000015,175,75
2026-05-09 16:32:07.822,1,-0.3,-0.19,1.4,-4.436,-7.890999999999998,0.27039999999999864,175,75
2026-05-09 16:32:07.843,1,-0.22,-0.17,1.32,-6.686,1.9890000000000008,2.3403999999999954,175,75
2026-05-09 16:32:07.879,1,-0.24,-0.2,1.36,-11.996000000000002,5.158999999999999,6.970399999999998,175,75
2026-05-09 16:32:07.890,1,-0.29,-0.17,1.44,-17.726000000000003,3.7590000000000003,9.1704,175,75
2026-05-09 16:32:07.900,1,-0.32,-0.16,1.49,-24.006,-0.39099999999999824,11.6704,175,75
2026-05-09 16:32:07.904,1,-0.35,-0.2,1.53,-29.736,-7.521000000000001,14.840399999999995,175,75
2026-05-09 16:32:07.915,1,-0.35,-0.18,1.54,-34.856,-18.011,17.950399999999995,175,75
2026-05-09 16:32:07.938,1,-0.31,-0.19,1.36,-41.446,-24.781,14.3504,175,75
2026-05-09 16:32:07.962,1,-0.2,-0.16,1.28,-45.046,-19.351,18.6804,175,75
2026-05-09 16:32:07.989,1,-0.31,-0.27,1.27,-48.396,-12.520999999999999,16.0004,175,75
2026-05-09 16:32:08.001,1,-0.32,-0.31,1.31,-50.226,-4.600999999999999,14.1704,175,75
2026-05-09 16:32:08.019,1,-0.32,-0.37,1.36,-53.025999999999996,1.4989999999999988,15.810400000000001,175,75
2026-05-09 16:32:08.024,1,-0.28,-0.37,1.35,-54.856,1.0790000000000006,15.630400000000002,175,75
2026-05-09 16:32:08.083,1,-0.22,-0.43,1.29,-61.876000000000005,16.809,13.010399999999997,175,75
2026-05-09 16:32:08.094,1,-0.19,-0.54,1.31,-74.436,21.559,8.0704,175,75
2026-05-09 16:32:08.109,1,-0.28,-0.67,1.37,-78.826,23.389,0.8103999999999978,175,75
2026-05-09 16:32:08.121,1,-0.38,-0.68,1.48,-81.936,29.489,2.1004000000000005,175,75
2026-05-09 16:32:08.147,1,-0.08,-0.68,1.35,-99.126,38.93899999999999,3.440399999999997,175,75
2026-05-09 16:32:08.160,1,0.06,-0.76,1.43,-108.02600000000001,55.15899999999999,-6.749600000000001,175,75
2026-05-09 16:32:08.183,1,0.16,-0.79,1.5,-113.946,55.888999999999996,-8.999600000000001,175,75
2026-05-09 16:32:08.192,1,0.22,-0.74,1.46,-116.01599999999999,39.858999999999995,-10.529600000000002,175,75
2026-05-09 16:32:08.219,1,0.14,-0.6,1.43,-112.786,33.699,-8.509600000000002,175,75
2026-05-09 16:32:08.230,1,0.05,-0.53,1.48,-90.52600000000001,10.889,-14.979600000000001,175,75
2026-05-09 16:32:08.248,1,0.02,-0.66,1.63,-87.666,-29.601,1.2403999999999975,175,75
2026-05-09 16:32:08.266,1,-0.01,-0.75,1.59,-99.49600000000001,-50.821,2.700399999999995,175,75
2026-05-09 16:32:08.271,1,-0.2,-0.71,1.64,-110.346,-55.691,7.6404,175,75
2026-05-09 16:32:08.295,1,-0.14,-0.57,1.55,-129.986,-54.171,-0.46960000000000335,175,75
2026-05-09 16:32:08.306,1,-0.48,-0.5,1.21,-135.286,-58.381,-7.229600000000001,175,75
2026-05-09 16:32:08.316,1,-0.87,-0.44,0.97,-131.876,-41.491,-8.759600000000002,175,75
2026-05-09 16:32:08.326,1,-1.32,-0.78,0.34,-137.606,15.589000000000002,27.160399999999996,175,75
2026-05-09 16:32:08.354,1,-0.58,-1.05,1.42,-73.576,136.25900000000001,19.290399999999998,175,75
2026-05-09 16:32:08.433,1,-0.41,-0.3,0.74,24.894,16.679,-62.7796,175,75
2026-05-09 16:32:08.456,1,-0.59,-0.23,0.5,53.553999999999995,-35.691,-74.0596,175,75
2026-05-09 16:32:08.479,1,-0.71,-0.11,0.39,61.724,-84.171,-92.7196,175,75
2026-05-09 16:32:08.511,1,-0.72,-0.07,0.2,115.814,-129.531,-91.8096,175,75
2026-05-09 16:32:08.533,1,-0.91,-0.06,-0.3,103.67399999999998,-94.471,-111.61959999999999,175,75
2026-05-09 16:32:08.533,1,-0.86,0.17,-0.24,106.48399999999998,-66.911,-102.59960000000001,175,75
2026-05-09 16:32:08.591,1,-0.82,0.36,-0.01,111.48399999999998,-85.571,-115.58959999999999,175,75
2026-05-09 16:32:08.605,1,-0.86,0.45,0.02,106.48399999999998,-83.56099999999999,-115.03960000000001,175,75
2026-05-09 16:32:08.605,1,-0.8,0.51,0.09,97.57399999999998,-87.341,-110.03960000000001,175,75
2026-05-09 16:32:08.646,1,-0.75,0.62,0.09,55.564,-77.641,-100.7096,175,75
2026-05-09 16:32:08.660,1,-0.66,0.75,0.29,33.674,-74.781,-85.7096,175,75
2026-05-09 16:32:08.679,1,-0.59,0.84,0.34,16.664,-72.521,-79.11959999999999,175,75
2026-05-09 16:32:08.689,1,-0.49,0.87,0.52,0.8140000000000001,-66.671,-69.5496,175,75
2026-05-09 16:32:08.704,1,-0.39,0.99,0.63,-16.386000000000003,-70.211,-61.869600000000005,175,75
2026-05-09 16:32:08.714,1,-0.31,1.08,0.73,-32.966,-69.901,-52.7196,175,75
2026-05-09 16:32:08.728,1,-0.21,1.12,0.96,-48.516000000000005,-71.851,-41.5596,175,75
2026-05-09 16:32:08.737,1,-0.13,1.17,1.09,-61.876000000000005,-75.141,-38.089600000000004,175,75
2026-05-09 16:32:08.748,1,-0.08,1.24,1.13,-75.166,-75.211,-33.6396,175,75
2026-05-09 16:32:08.770,1,0.05,1.25,1.37,-91.506,-60.271,-23.2696,175,75
2026-05-09 16:32:08.782,1,0.14,1.25,1.52,-98.02600000000001,-53.801,-18.699600000000004,175,75
2026-05-09 16:32:08.805,1,0.32,1.16,1.83,-107.05600000000001,-23.921,-13.579600000000003,175,75
2026-05-09 16:32:08.826,1,0.37,1.12,1.84,-108.33600000000001,-15.881,-12.899600000000003,175,75
2026-05-09 16:32:08.826,1,0.38,1.06,1.9,-108.27600000000001,-8.190999999999999,-13.509600000000002,175,75
2026-05-09 16:32:08.872,1,0.36,1.02,1.81,-110.406,-16.971,-18.939600000000002,175,75
2026-05-09 16:32:08.872,1,0.32,1.0,1.7,-111.506,-19.051,-22.169600000000003,175,75
2026-05-09 16:32:08.883,1,0.26,1.0,1.61,-112.23599999999999,-16.911,-23.149600000000003,175,75
2026-05-09 16:32:08.895,1,0.18,0.99,1.57,-110.596,-17.401,-22.9696,175,75
2026-05-09 16:32:08.912,1,0.08,0.97,1.45,-106.816,-26.001,-21.379600000000003,175,75
2026-05-09 16:32:08.934,1,0.03,0.92,1.22,-97.666,-19.471,-26.689600000000002,175,75
2026-05-09 16:32:08.990,1,-0.09,0.5,1.11,-31.016000000000002,27.659000000000002,-58.699600000000004,175,75
2026-05-09 16:32:09.025,1,-0.19,0.25,1.18,14.774000000000001,40.82899999999999,-67.4196,175,75
2026-05-09 16:32:09.046,1,-0.06,-0.15,1.47,80.50399999999999,33.57899999999999,-78.14959999999999,175,75
2026-05-09 16:32:09.057,1,-0.04,-0.45,1.59,141.784,12.968999999999998,-80.64959999999999,175,75
2026-05-09 16:32:09.085,1,-0.14,-1.19,1.75,237.154,-55.571,-56.0796,175,75
2026-05-09 16:32:09.101,1,-0.2,-1.34,1.79,257.514,-68.991,-44.6696,175,75
2026-05-09 16:32:09.112,1,-0.18,-1.45,1.86,276.664,-73.191,-37.1696,175,75
2026-05-09 16:32:09.133,1,-0.28,-1.65,1.94,303.794,-89.231,-9.6096,175,75
2026-05-09 16:32:09.153,1,-0.3,-1.77,1.92,323.12399999999997,-96.491,2.520399999999995,175,75
2026-05-09 16:32:09.168,1,-0.36,-1.87,1.93,332.034,-96.001,10.810400000000001,175,75
2026-05-09 16:32:09.204,1,-0.32,-2.12,1.98,339.044,-127.161,22.770399999999995,175,75
2026-05-09 16:32:09.218,1,-0.33,-2.13,1.97,336.784,-131.001,24.5304,175,75
2026-05-09 16:32:09.218,1,-0.36,-2.12,1.99,331.114,-135.941,26.0604,175,75
2026-05-09 16:32:09.238,1,-0.38,-2.09,1.92,314.404,-142.891,28.440399999999997,175,75
2026-05-09 16:32:09.249,1,-0.42,-2.01,1.86,299.164,-148.99099999999999,31.0004,175,75
2026-05-09 16:32:09.260,1,-0.45,-1.8,1.75,278.864,-152.341,36.3004,175,75
2026-05-09 16:32:09.272,1,-0.46,-1.6,1.67,259.404,-147.281,40.940400000000004,175,75
2026-05-09 16:32:09.294,1,-0.47,-1.28,1.5,220.144,-151.301,50.0204,175,75
2026-05-09 16:32:09.321,1,-0.33,-0.89,1.32,172.274,-123.251,48.920399999999994,175,75
2026-05-09 16:32:09.348,1,-0.26,-0.65,1.28,142.394,-110.631,51.7904,175,75
2026-05-09 16:32:09.359,1,-0.23,-0.52,1.21,123.00399999999999,-107.641,52.4604,175,75
2026-05-09 16:32:09.371,1,-0.19,-0.4,1.18,103.554,-99.961,53.6804,175,75
2026-05-09 16:32:09.384,1,-0.19,-0.32,1.11,81.48400000000001,-89.291,51.3004,175,75
2026-05-09 16:32:09.406,1,-0.17,-0.18,1.03,37.88399999999999,-80.081,52.5204,175,75
2026-05-09 16:32:09.417,1,-0.14,-0.14,1.03,20.503999999999998,-77.031,53.7404,175,75
2026-05-09 16:32:09.442,1,-0.11,-0.11,1.02,1.1139999999999972,-70.631,54.78039999999999,175,75
2026-05-09 16:32:09.465,1,-0.08,-0.03,1.04,-35.226,-53.561,59.6004,175,75
2026-05-09 16:32:09.484,1,-0.03,-0.01,1.09,-54.676,-48.561,60.5104,175,75
2026-05-09 16:32:09.520,1,0.01,0.0,1.13,-66.626,-52.101,60.75039999999999,175,75
2026-05-09 16:32:09.520,1,0.04,0.0,1.13,-76.506,-58.620999999999995,59.78039999999999,175,75
2026-05-09 16:32:09.531,1,0.07,-0.0,1.16,-85.77600000000001,-62.221000000000004,60.940400000000004,175,75
2026-05-09 16:32:09.551,1,0.12,-0.02,1.28,-103.39600000000002,-83.071,58.86039999999999,175,75
2026-05-09 16:32:09.568,1,0.12,-0.05,1.3,-106.626,-91.671,58.25039999999999,175,75
2026-05-09 16:32:09.578,1,0.12,-0.09,1.28,-113.70599999999999,-103.321,57.580400000000004,175,75
2026-05-09 16:32:09.618,1,0.12,-0.15,1.31,-127.96600000000001,-113.681,59.11039999999999,175,75
2026-05-09 16:32:09.629,1,0.11,-0.28,1.31,-132.116,-123.071,60.450399999999995,175,75
2026-05-09 16:32:09.645,1,0.12,-0.37,1.34,-136.566,-128.801,63.8004,175,75
2026-05-09 16:32:09.707,1,0.11,-0.39,1.29,-152.056,-143.131,76.2404,175,75
2026-05-09 16:32:09.718,1,0.09,-0.35,1.22,-152.236,-131.301,79.53039999999999,175,75
2026-05-09 16:32:09.718,1,0.1,-0.38,1.15,-149.616,-108.801,81.3004,175,75
2026-05-09 16:32:09.754,1,-0.61,-0.55,2.59,-34.556000000000004,18.209,138.1904,175,75
2026-05-09 16:32:09.781,1,1.36,-2.36,3.94,-202.056,-297.641,-96.43960000000001,175,75
2026-05-09 16:32:09.798,1,-0.22,0.12,0.27,-179.73600000000002,-512.891,15.510399999999997,175,75
2026-05-09 16:32:09.814,1,-1.12,0.24,-2.01,27.153999999999996,-368.56100000000004,18.8604,175,75
2026-05-09 16:32:09.844,1,0.15,-0.19,0.72,-80.04599999999999,156.139,64.60040000000001,175,75
2026-05-09 16:32:09.856,1,0.2,0.17,2.15,-37.176,64.249,91.06039999999999,175,75
2026-05-09 16:32:09.867,1,-0.94,-0.3,1.68,-61.386,-38.010999999999996,22.2804,175,75
2026-05-09 16:32:09.879,1,-0.29,-0.1,1.5,-71.936,-48.991,25.940399999999997,175,75
2026-05-09 16:32:09.879,1,-0.57,0.03,1.29,-46.326,-30.941,17.830399999999997,175,75
2026-05-09 16:32:09.890,1,-0.4,-0.05,1.44,-34.186,2.658999999999999,17.1004,175,75
2026-05-09 16:32:09.900,1,0.03,-0.34,1.54,-41.136,-7.4609999999999985,12.400399999999998,175,75
2026-05-09 16:32:09.944,1,-0.07,-0.34,1.4,-47.546,-37.221000000000004,4.410399999999996,175,75
2026-05-09 16:32:09.963,1,-0.08,-0.23,1.37,-39.186,-37.951,2.520399999999995,175,75
2026-05-09 16:32:09.996,1,-0.12,-0.31,1.35,-28.026,-23.131,4.290399999999998,175,75
2026-05-09 16:32:09.996,1,-0.11,-0.3,1.39,-23.766000000000002,-20.211,4.1103999999999985,175,75
2026-05-09 16:32:10.007,1,-0.11,-0.29,1.4,-18.576,-21.971,3.1304000000000016,175,75
2026-05-09 16:32:10.062,1,-0.12,-0.26,1.35,-8.396,-13.620999999999999,4.840399999999995,175,75
2026-05-09 16:32:10.062,1,-0.1,-0.26,1.38,-2.176000000000002,-11.971,5.3904,175,75
2026-05-09 16:32:10.073,1,-0.1,-0.26,1.41,2.333999999999996,-18.991,5.940399999999997,175,75
2026-05-09 16:32:10.084,1,-0.15,-0.24,1.39,5.564,-19.961,6.240400000000001,175,75
2026-05-09 16:32:10.090,1,-0.2,-0.23,1.4,9.533999999999999,-18.991,6.240400000000001,175,75
2026-05-09 16:32:10.104,1,-0.22,-0.23,1.42,12.943999999999996,-16.121,4.1103999999999985,175,75
2026-05-09 16:32:10.130,1,-0.21,-0.25,1.43,16.113999999999997,-13.381,2.0303999999999967,175,75
2026-05-09 16:32:10.155,1,-0.14,-0.27,1.43,18.183999999999997,-12.520999999999999,-0.21960000000000335,175,75
2026-05-09 16:32:10.177,1,-0.08,-0.3,1.47,16.973999999999997,-13.681,2.3403999999999954,175,75
2026-05-09 16:32:10.177,1,-0.07,-0.3,1.48,16.293999999999997,-11.731,3.8603999999999985,175,75
2026-05-09 16:32:10.199,1,-0.1,-0.3,1.48,15.143999999999998,-11.671,5.200399999999995,175,75
2026-05-09 16:32:10.199,1,-0.1,-0.29,1.48,14.533999999999999,-10.271,6.300399999999996,175,75
2026-05-09 16:32:10.210,1,-0.11,-0.28,1.47,13.613999999999997,-9.111,6.8504000000000005,175,75
2026-05-09 16:32:10.221,1,-0.13,-0.28,1.47,13.984000000000002,-7.280999999999999,6.790399999999998,175,75
2026-05-09 16:32:10.223,1,-0.15,-0.28,1.47,15.564,-4.841000000000001,6.910399999999996,175,75
2026-05-09 16:32:10.236,1,-0.14,-0.28,1.46,16.543999999999997,-1.4909999999999997,6.240400000000001,175,75
2026-05-09 16:32:10.241,1,-0.14,-0.27,1.49,18.374000000000002,-0.3309999999999995,6.790399999999998,175,75
2026-05-09 16:32:10.259,1,-0.16,-0.28,1.5,17.644,0.2789999999999999,6.6103999999999985,175,75
2026-05-09 16:32:10.274,1,-0.16,-0.27,1.52,17.034,-0.6310000000000002,6.490400000000001,175,75
2026-05-09 16:32:10.286,1,-0.17,-0.27,1.52,16.293999999999997,-0.940999999999999,5.450399999999995,175,75
2026-05-09 16:32:10.293,1,-0.14,-0.28,1.53,15.443999999999996,-0.690999999999999,4.840399999999995,175,75
2026-05-09 16:32:10.301,1,-0.15,-0.28,1.53,13.863999999999997,0.8290000000000006,3.5604000000000013,175,75
2026-05-09 16:32:10.314,1,-0.15,-0.28,1.55,12.943999999999996,1.1990000000000016,3.9204000000000008,175,75
2026-05-09 16:32:10.332,1,-0.13,-0.28,1.54,11.664000000000001,1.318999999999999,4.1103999999999985,175,75
2026-05-09 16:32:10.344,1,-0.12,-0.28,1.52,10.503999999999998,0.0990000000000002,4.660399999999996,175,75
2026-05-09 16:32:10.367,1,-0.15,-0.28,1.52,10.323999999999998,-0.570999999999998,4.5304,175,75
2026-05-09 16:32:10.379,1,-0.16,-0.27,1.55,8.734000000000002,-0.39099999999999824,3.6203999999999965,175,75
2026-05-09 16:32:10.391,1,-0.16,-0.27,1.55,6.293999999999997,-0.5109999999999992,3.3804000000000016,175,75
2026-05-09 16:32:10.399,1,-0.16,-0.27,1.54,5.814,-0.08099999999999952,2.6403999999999996,175,75
2026-05-09 16:32:10.410,1,-0.15,-0.27,1.53,5.753999999999998,0.0990000000000002,2.8903999999999996,175,75
2026-05-09 16:32:10.424,1,-0.16,-0.26,1.53,5.9339999999999975,0.3990000000000009,2.700399999999995,175,75
2026-05-09 16:32:10.439,1,-0.16,-0.27,1.56,6.4239999999999995,0.6490000000000009,2.770399999999995,175,75
2026-05-09 16:32:10.474,1,-0.15,-0.27,1.54,5.204000000000001,-1.061,2.4003999999999976,175,75
2026-05-09 16:32:10.484,1,-0.15,-0.27,1.54,6.1739999999999995,-0.5109999999999992,2.220399999999998,175,75
2026-05-09 16:32:10.494,1,-0.15,-0.28,1.53,7.153999999999996,-0.21099999999999852,2.2804,175,75
2026-05-09 16:32:10.505,1,-0.15,-0.28,1.54,7.643999999999998,-0.940999999999999,2.3403999999999954,175,75
2026-05-09 16:32:10.505,1,-0.14,-0.28,1.54,9.104,-1.4209999999999994,2.0303999999999967,175,75
2026-05-09 16:32:10.515,1,-0.14,-0.28,1.56,8.674,-2.100999999999999,2.8303999999999974,175,75
2026-05-09 16:32:10.526,1,-0.15,-0.27,1.55,8.433999999999997,-3.440999999999999,2.5803999999999974,175,75
2026-05-09 16:32:10.526,1,-0.17,-0.27,1.56,8.674,-3.1310000000000002,2.0303999999999967,175,75
2026-05-09 16:32:10.539,1,-0.17,-0.28,1.57,9.223999999999997,-2.280999999999999,0.9403999999999968,175,75
2026-05-09 16:32:10.561,1,-0.14,-0.27,1.55,9.344000000000001,-4.291,0.8803999999999981,175,75
2026-05-09 16:32:10.571,1,-0.16,-0.28,1.54,10.994,-6.420999999999999,-0.09960000000000235,175,75
2026-05-09 16:32:10.571,1,-0.17,-0.26,1.55,12.213999999999999,-7.030999999999999,-0.09960000000000235,175,75
2026-05-09 16:32:10.583,1,-0.14,-0.27,1.57,12.763999999999996,-7.640999999999998,0.27039999999999864,175,75
2026-05-09 16:32:10.611,1,-0.15,-0.28,1.55,17.454,-7.030999999999999,3.010399999999997,175,75
2026-05-09 16:32:10.619,1,-0.27,-0.25,1.54,20.814,-11.671,-2.5396,175,75
2026-05-09 16:32:10.634,1,-0.17,-0.35,1.54,22.704,-13.321,-4.549600000000002,175,75
2026-05-09 16:32:10.646,1,-0.15,-0.33,1.59,26.844,-12.030999999999999,-5.9496,175,75
2026-05-09 16:32:10.652,1,-0.09,-0.36,1.58,28.674,-10.081,-5.589600000000001,175,75
2026-05-09 16:32:10.677,1,-0.13,-0.35,1.6,32.88399999999999,2.658999999999999,-4.059600000000003,175,75
2026-05-09 16:32:10.687,1,-0.14,-0.38,1.56,33.184000000000005,4.859000000000002,-5.279600000000002,175,75
2026-05-09 16:32:10.698,1,-0.11,-0.36,1.53,33.004,8.759000000000004,-6.1996,175,75
2026-05-09 16:32:10.709,1,-0.1,-0.39,1.54,34.773999999999994,10.398999999999997,-5.399600000000003,175,75
2026-05-09 16:32:10.718,1,-0.09,-0.38,1.56,35.074000000000005,11.989,-1.0796000000000028,175,75
2026-05-09 16:32:10.749,1,0.02,-0.44,1.6,36.114,11.199000000000002,0.9403999999999968,175,75
2026-05-09 16:32:10.760,1,0.32,-0.57,1.72,43.49399999999999,15.828999999999997,-6.559600000000003,175,75
2026-05-09 16:32:10.774,1,0.52,-0.59,1.69,44.894,-12.030999999999999,-17.6596,175,75
2026-05-09 16:32:10.785,1,0.36,-0.53,1.76,45.144,-51.241,-22.5396,175,75
2026-05-09 16:32:10.796,1,0.18,-0.48,1.75,35.443999999999996,-70.451,-22.2996,175,75
2026-05-09 16:32:10.804,1,0.09,-0.42,1.75,25.323999999999998,-74.111,-23.8196,175,75
2026-05-09 16:32:10.820,1,0.06,-0.37,1.84,22.153999999999996,-56.181,-25.5896,175,75
2026-05-09 16:32:10.832,1,0.08,-0.31,2.01,23.554000000000002,-28.681,-29.7996,175,75
2026-05-09 16:32:10.844,1,0.13,-0.27,2.15,30.074000000000005,-16.671,-33.5096,175,75
2026-05-09 16:32:10.850,1,-0.11,-0.25,2.11,45.504,-9.050999999999998,-30.3396,175,75
2026-05-09 16:32:10.889,1,0.48,-0.44,1.79,81.78399999999999,78.089,-56.9296,175,75
2026-05-09 16:32:10.900,1,0.42,-0.36,1.84,96.60399999999998,115.58899999999998,-53.8796,175,75
2026-05-09 16:32:10.911,1,0.37,-0.34,2.0,108.184,134.489,-52.229600000000005,175,75
2026-05-09 16:32:10.920,1,0.32,-0.37,2.2,118.614,136.809,-52.9696,175,75
2026-05-09 16:32:10.932,1,0.27,-0.42,2.26,121.42399999999998,122.109,-54.369600000000005,175,75
2026-05-09 16:32:10.943,1,0.23,-0.44,2.25,120.814,104.979,-56.5596,175,75
2026-05-09 16:32:10.957,1,0.14,-0.46,2.1,108.92399999999998,60.76899999999999,-59.6696,175,75
2026-05-09 16:32:10.971,1,0.13,-0.43,2.05,101.114,42.839,-61.1396,175,75
2026-05-09 16:32:10.979,1,0.13,-0.38,1.96,90.26400000000001,21.989,-64.36959999999999,175,75
2026-05-09 16:32:10.994,1,0.12,-0.36,1.89,84.16399999999999,4.609000000000002,-66.1396,175,75
2026-05-09 16:32:11.004,1,0.13,-0.39,1.75,76.54400000000001,-16.180999999999997,-70.03960000000001,175,75
2026-05-09 16:32:11.017,1,0.11,-0.38,1.66,73.00399999999999,-24.531,-71.8096,175,75
2026-05-09 16:32:11.027,1,0.06,-0.36,1.53,69.04400000000001,-29.901,-72.1696,175,75
2026-05-09 16:32:11.042,1,0.01,-0.33,1.46,65.564,-27.160999999999998,-70.64959999999999,175,75
2026-05-09 16:32:11.053,1,-0.04,-0.31,1.41,60.814,-21.731,-70.09960000000001,175,75
2026-05-09 16:32:11.076,1,-0.09,-0.26,1.33,47.943999999999996,-4.9609999999999985,-68.7596,175,75
2026-05-09 16:32:11.076,1,-0.12,-0.24,1.31,41.724,2.779,-68.14959999999999,175,75
2026-05-09 16:32:11.087,1,-0.16,-0.22,1.3,31.053999999999995,10.468999999999998,-66.37960000000001,175,75
2026-05-09 16:32:11.098,1,-0.17,-0.18,1.31,20.503999999999998,15.769000000000002,-63.6396,175,75
2026-05-09 16:32:11.119,1,-0.13,-0.14,1.3,-3.706000000000003,19.549000000000003,-59.2496,175,75
2026-05-09 16:32:11.155,1,-0.12,-0.11,1.25,-28.456000000000003,24.249,-53.9996,175,75
2026-05-09 16:32:11.166,1,-0.13,-0.11,1.27,-37.426,25.949,-51.3196,175,75
2026-05-09 16:32:11.170,1,-0.15,-0.13,1.29,-49.006,26.139,-48.14960000000001,175,75
2026-05-09 16:32:11.184,1,-0.16,-0.13,1.3,-60.166,24.059,-45.769600000000004,175,75
2026-05-09 16:32:11.194,1,-0.17,-0.14,1.33,-73.096,21.749,-42.6596,175,75
2026-05-09 16:32:11.207,1,-0.17,-0.14,1.34,-84.79599999999999,17.839000000000002,-38.9396,175,75
2026-05-09 16:32:11.225,1,-0.16,-0.16,1.35,-97.846,15.589000000000002,-35.159600000000005,175,75
2026-05-09 16:32:11.246,1,-0.15,-0.19,1.41,-119.24600000000001,11.809000000000001,-28.6396,175,75
2026-05-09 16:32:11.246,1,-0.15,-0.21,1.44,-126.20599999999999,8.939000000000004,-25.5896,175,75
2026-05-09 16:32:11.258,1,-0.14,-0.24,1.48,-134.246,2.899000000000001,-23.2696,175,75
2026-05-09 16:32:11.294,1,-0.14,-0.32,1.51,-150.106,-13.801,-17.5396,175,75
2026-05-09 16:32:11.304,1,-0.14,-0.36,1.52,-158.456,-22.101,-14.189600000000002,175,75
2026-05-09 16:32:11.315,1,-0.15,-0.38,1.54,-165.04600000000002,-31.671,-11.009600000000002,175,75
2026-05-09 16:32:11.324,1,-0.14,-0.39,1.56,-170.286,-39.231,-7.1096,175,75
2026-05-09 16:32:11.329,1,-0.14,-0.39,1.56,-174.496,-45.631,-1.8096000000000032,175,75
2026-05-09 16:32:11.341,1,-0.13,-0.38,1.58,-176.506,-47.831,1.9103999999999992,175,75
2026-05-09 16:32:11.351,1,-0.14,-0.39,1.6,-177.056,-49.351,5.940399999999997,175,75
2026-05-09 16:32:11.362,1,-0.12,-0.41,1.65,-177.116,-53.321,10.1404,175,75
2026-05-09 16:32:11.378,1,-0.13,-0.44,1.66,-176.746,-56.421,15.690399999999997,175,75
