Time,ID,Ax,Ay,Az,Gx,Gy,Gz,Height,Weight
2026-05-09 16:04:24.889,1,1.67,2.29,2.97,-95.6686,-73.4928,107.3056,175,75
2026-05-09 16:04:24.889,1,-0.74,-0.33,0.53,14.8214,-15.5728,20.6556,175,75
2026-05-09 16:04:24.911,1,-0.23,-0.89,0.72,-36.2186,-12.3328,-5.2644,175,75
2026-05-09 16:04:24.924,1,0.18,-0.98,0.88,-36.5786,18.6972,-10.4444,175,75
2026-05-09 16:04:24.945,1,0.05,-0.71,0.88,-32.3086,-1.7227999999999994,-8.0044,175,75
2026-05-09 16:04:24.964,1,0.32,-0.48,1.04,-30.9086,-11.3028,-6.054399999999999,175,75
2026-05-09 16:04:24.980,1,0.06,-0.4,0.49,-17.988599999999998,-23.6128,-4.224399999999999,175,75
2026-05-09 16:04:25.023,1,-0.38,-0.76,0.85,6.7714,4.677199999999999,-11.724400000000001,175,75
2026-05-09 16:04:25.089,1,-0.35,-0.58,2.75,-39.568599999999996,133.1472,14.0656,175,75
2026-05-09 16:04:25.089,1,-0.22,-0.51,3.05,-56.2186,128.9472,10.2256,175,75
2026-05-09 16:04:25.100,1,0.35,-0.22,2.82,-79.4486,44.307199999999995,11.9956,175,75
2026-05-09 16:04:25.134,1,-0.47,0.42,-0.41,-141.3386,-66.9128,19.735599999999998,175,75
2026-05-09 16:04:25.144,1,0.23,0.63,3.5,-78.5986,114.0672,-9.774399999999998,175,75
2026-05-09 16:04:25.174,1,0.81,2.68,3.28,136.9514,-123.3128,5.2256,175,75
2026-05-09 16:04:25.184,1,0.47,2.72,2.96,218.29139999999998,-72.6428,19.925600000000003,175,75
2026-05-09 16:04:25.200,1,0.29,1.63,3.02,287.8714,-94.2928,49.1956,175,75
2026-05-09 16:04:25.210,1,0.07,0.92,2.79,333.6614,-108.4328,60.4756,175,75
2026-05-09 16:04:25.249,1,-1.56,0.45,-5.46,500.25140000000005,-840.0828,172.2356,175,75
2026-05-09 16:04:25.261,1,-2.04,-8.62,-14.28,4.8814,-437.4628,79.0056,175,75
2026-05-09 16:04:25.274,1,-3.94,0.44,-9.48,-183.8386,873.2072,-170.2644,175,75
2026-05-09 16:04:25.285,1,5.35,0.09,4.05,-87.43860000000001,1195.5872,-133.4944,175,75
2026-05-09 16:04:25.296,1,0.36,2.24,1.27,-68.2286,-79.83279999999999,-25.074399999999997,175,75
2026-05-09 16:04:25.320,1,-0.93,-0.2,0.45,-5.2986,-72.4028,38.9456,175,75
2026-05-09 16:04:25.334,1,-0.13,-1.15,-0.19,-10.9086,-0.3827999999999996,18.5256,175,75
2026-05-09 16:04:25.344,1,0.07,-1.64,-0.34,6.0414,47.667199999999994,-15.564400000000001,175,75
2026-05-09 16:04:25.356,1,0.51,-0.91,0.66,40.3714,56.6272,-20.014400000000002,175,75
2026-05-09 16:04:25.378,1,-0.24,-0.8,1.05,72.9914,43.1472,6.6356,175,75
2026-05-09 16:04:25.392,1,-0.11,-0.99,0.98,84.51140000000001,51.3772,23.035600000000002,175,75
2026-05-09 16:04:25.408,1,0.29,-1.1,1.49,101.8914,120.03720000000001,31.025599999999997,175,75
2026-05-09 16:04:25.444,1,-0.07,0.23,2.32,-16.3986,158.2072,-29.894399999999997,175,75
2026-05-09 16:04:25.489,1,-0.42,-1.37,-0.96,-393.5986,-3.3127999999999993,-47.0244,175,75
2026-05-09 16:04:25.504,1,-0.38,-2.96,-0.34,-494.3886,74.3672,-73.9744,175,75
2026-05-09 16:04:25.516,1,-0.24,-2.17,0.88,-529.4485999999999,37.417199999999994,-88.0044,175,75
2026-05-09 16:04:25.532,1,-0.29,-2.14,1.41,-542.1286,-0.7528000000000006,-28.5544,175,75
2026-05-09 16:04:25.532,1,-0.27,-1.52,0.43,-505.29859999999996,-64.1628,-27.334399999999995,175,75
2026-05-09 16:04:25.542,1,-0.27,-0.36,0.41,-474.3886,44.6772,-35.1344,175,75
2026-05-09 16:04:25.564,1,0.28,0.25,1.23,-429.74859999999995,71.80720000000001,-17.764400000000002,175,75
2026-05-09 16:04:25.576,1,0.32,-0.23,1.07,-409.0786,87.2972,-20.934399999999997,175,75
2026-05-09 16:04:25.593,1,0.3,-0.32,1.36,-385.05859999999996,93.5172,-29.834399999999995,175,75
2026-05-09 16:04:25.593,1,0.19,-0.36,1.58,-357.1286,72.1172,-25.014400000000002,175,75
2026-05-09 16:04:25.615,1,0.05,-0.19,1.85,-314.68859999999995,55.8972,-18.7344,175,75
2026-05-09 16:04:25.628,1,0.47,0.47,2.11,-292.67859999999996,45.8972,-13.8544,175,75
2026-05-09 16:04:25.639,1,0.88,0.73,2.19,-251.76860000000002,10.5872,6.9356,175,75
2026-05-09 16:04:25.685,1,0.46,2.08,2.44,13.901399999999999,-52.702799999999996,8.0356,175,75
2026-05-09 16:04:25.740,1,0.45,1.4,1.75,275.00140000000005,-43.3728,41.0856,175,75
2026-05-09 16:04:25.779,1,0.34,0.66,1.96,386.2214,30.957199999999997,50.345600000000005,175,75
2026-05-09 16:04:25.779,1,0.35,0.48,1.98,414.88140000000004,41.6272,55.1056,175,75
2026-05-09 16:04:25.791,1,0.34,0.36,2.03,432.08140000000003,41.2572,60.2856,175,75
2026-05-09 16:04:25.809,1,0.17,0.12,2.05,453.6014,-2.4627999999999997,76.0856,175,75
2026-05-09 16:04:25.838,1,0.3,-0.32,1.95,452.14140000000003,-67.4028,84.98559999999999,175,75
2026-05-09 16:04:25.848,1,0.11,-0.48,1.82,443.4814,-109.5328,81.6356,175,75
2026-05-09 16:04:25.870,1,0.12,-0.88,1.74,424.39140000000003,-211.6628,59.735600000000005,175,75
2026-05-09 16:04:25.892,1,-0.13,-1.3,1.36,391.3414,-275.44280000000003,34.4956,175,75
2026-05-09 16:04:25.908,1,0.14,-1.18,0.58,336.0414,-349.7728,5.8356,175,75
2026-05-09 16:04:25.919,1,-0.32,-1.06,-0.29,314.58140000000003,-346.30280000000005,-0.6844000000000001,175,75
2026-05-09 16:04:25.969,1,-0.25,0.56,-3.24,283.1114,-297.88280000000003,30.415599999999998,175,75
2026-05-09 16:04:25.982,1,-1.05,-5.05,-7.5,-480.17859999999996,34.0072,123.3956,175,75
2026-05-09 16:04:26.035,1,0.97,-1.46,1.09,-89.5086,-52.1528,-6.234399999999999,175,75
2026-05-09 16:04:26.035,1,1.39,-1.3,0.03,-136.2786,19.8572,32.8456,175,75
2026-05-09 16:04:26.081,1,-0.23,0.67,0.24,-89.3286,-18.552799999999998,54.4356,175,75
2026-05-09 16:04:26.088,1,-0.24,0.35,0.43,-52.1286,-20.5728,6.7556,175,75
2026-05-09 16:04:26.109,1,-0.41,-0.19,0.3,-24.2086,19.9172,-11.3544,175,75
2026-05-09 16:04:26.109,1,-0.43,-0.56,0.24,-7.618600000000001,11.3172,-14.8344,175,75
2026-05-09 16:04:26.138,1,-0.16,-1.46,0.85,-6.2186,84.4272,17.5456,175,75
2026-05-09 16:04:26.161,1,-0.07,-1.12,1.76,-27.4386,137.59720000000002,37.1156,175,75
2026-05-09 16:04:26.186,1,-0.01,-1.07,2.04,-32.2486,156.62720000000002,49.9256,175,75
2026-05-09 16:04:26.198,1,0.13,-0.58,2.59,-28.528599999999997,154.9772,47.305600000000005,175,75
2026-05-09 16:04:26.219,1,0.59,-0.13,1.98,-7.0085999999999995,50.4072,21.7556,175,75
2026-05-09 16:04:26.283,1,0.5,2.09,3.56,101.9514,-44.6528,6.8156,175,75
2026-05-09 16:04:26.307,1,0.55,2.07,3.58,144.0914,-48.7428,11.5656,175,75
2026-05-09 16:04:26.358,1,0.23,0.57,1.9,332.44140000000004,-92.6428,57.055600000000005,175,75
2026-05-09 16:04:26.358,1,0.52,0.37,1.29,339.76140000000004,-124.83279999999999,73.9456,175,75
2026-05-09 16:04:26.371,1,-0.29,0.73,-2.49,404.58140000000003,-592.7028,135.7156,175,75
2026-05-09 16:04:26.403,1,-5.03,-1.96,-9.69,562.5014,-893.4928,176.5656,175,75
2026-05-09 16:04:26.412,1,-2.98,0.12,-4.67,-247.3786,1067.4171999999999,-186.6644,175,75
2026-05-09 16:04:26.423,1,-0.86,0.16,4.17,-542.2486,475.4672,-133.1844,175,75
2026-05-09 16:04:26.434,1,-0.85,3.65,4.56,-500.48859999999996,57.7872,154.13559999999998,175,75
2026-05-09 16:04:26.456,1,-0.68,-0.68,1.26,0.2514000000000003,-37.032799999999995,-35.7444,175,75
2026-05-09 16:04:26.485,1,0.54,-0.65,1.1,-33.1686,17.0572,-12.2144,175,75
2026-05-09 16:04:26.536,1,-0.05,-1.04,0.15,72.81139999999999,34.1272,31.385600000000004,175,75
2026-05-09 16:04:26.547,1,-0.11,-0.88,0.97,121.53139999999999,93.02720000000001,43.455600000000004,175,75
2026-05-09 16:04:26.558,1,0.18,-0.71,1.32,127.38140000000001,162.6672,29.985599999999998,175,75
2026-05-09 16:04:26.566,1,0.14,-0.4,1.61,109.2114,170.34720000000002,15.2256,175,75
2026-05-09 16:04:26.590,1,0.09,0.37,1.75,-17.6186,160.7072,-9.954400000000001,175,75
2026-05-09 16:04:26.590,1,0.24,0.47,0.61,-114.3886,72.5372,-10.324399999999999,175,75
2026-05-09 16:04:26.643,1,-0.3,-2.72,-0.06,-541.3385999999999,32.417199999999994,-41.9644,175,75
2026-05-09 16:04:26.666,1,-0.37,-2.55,0.87,-536.6386,84.4872,-50.194399999999995,175,75
2026-05-09 16:04:26.666,1,-0.47,-2.11,1.96,-522.7386,80.2872,-45.264399999999995,175,75
2026-05-09 16:04:26.690,1,0.04,-0.05,1.48,-427.24859999999995,111.0772,-6.904399999999999,175,75
2026-05-09 16:04:26.785,1,0.26,0.43,1.84,-232.61860000000001,46.0172,-4.7744,175,75
2026-05-09 16:04:26.795,1,0.41,1.09,2.11,-186.6386,22.667199999999998,-8.4944,175,75
2026-05-09 16:04:26.809,1,0.44,1.51,2.29,-134.26860000000002,-12.4028,-2.5144,175,75
2026-05-09 16:04:26.819,1,0.43,1.9,2.37,-59.6286,-46.72280000000001,-6.1144,175,75
2026-05-09 16:04:26.829,1,0.44,2.12,2.42,-1.4586000000000006,-82.33279999999999,-4.404399999999999,175,75
2026-05-09 16:04:26.840,1,0.37,2.08,2.29,66.4714,-113.9828,6.1456,175,75
2026-05-09 16:04:26.851,1,0.37,1.76,2.2,156.2814,-117.58279999999999,19.4956,175,75
2026-05-09 16:04:26.887,1,0.41,1.48,1.94,256.83140000000003,-92.52279999999999,22.9756,175,75
2026-05-09 16:04:26.887,1,0.42,1.39,1.84,293.6614,-73.4328,22.5456,175,75
2026-05-09 16:04:26.908,1,0.38,1.24,1.73,338.0514,-47.032799999999995,26.565600000000003,175,75
2026-05-09 16:04:26.950,1,0.35,0.4,1.8,428.2914,0.22719999999999985,47.305600000000005,175,75
2026-05-09 16:04:26.971,1,0.34,0.25,1.79,436.83140000000003,-9.4128,51.025600000000004,175,75
2026-05-09 16:04:26.997,1,0.21,-0.31,1.68,434.51140000000004,-105.2628,57.845600000000005,175,75
2026-05-09 16:04:27.064,1,0.19,-1.01,1.35,361.1014,-281.18280000000004,15.8356,175,75
2026-05-09 16:04:27.166,1,0.81,1.34,0.97,-71.8286,-418.74280000000005,36.635600000000004,175,75
2026-05-09 16:04:27.208,1,0.86,-1.5,0.76,-74.3886,27.417199999999998,40.1056,175,75
2026-05-09 16:04:27.220,1,0.26,0.37,0.87,-86.51859999999999,-24.8328,66.2056,175,75
2026-05-09 16:04:27.252,1,-0.26,0.47,0.58,-64.80860000000001,-47.642799999999994,39.0656,175,75
2026-05-09 16:04:27.258,1,-0.17,-0.04,0.01,-24.2686,-18.1928,31.7556,175,75
2026-05-09 16:04:27.287,1,-0.74,-0.53,0.82,17.081400000000002,38.27719999999999,16.0256,175,75
2026-05-09 16:04:27.301,1,-0.6,-0.75,0.91,18.4214,66.80720000000001,12.1156,175,75
2026-05-09 16:04:27.328,1,-0.44,-0.8,1.17,13.5414,151.5072,27.425600000000003,175,75
2026-05-09 16:04:27.371,1,-0.14,-0.8,2.68,-24.4486,168.8872,20.5956,175,75
2026-05-09 16:04:27.409,1,0.65,0.31,1.07,-92.67859999999999,-66.9128,12.4256,175,75
2026-05-09 16:04:27.422,1,0.08,0.56,0.04,-109.99860000000001,-66.4228,10.2256,175,75
2026-05-09 16:04:27.422,1,-0.22,0.79,0.91,-106.8286,48.8772,10.2256,175,75
2026-05-09 16:04:27.435,1,0.25,1.13,2.42,-54.3286,21.927200000000003,24.925600000000003,175,75
2026-05-09 16:04:27.483,1,0.86,1.77,3.71,252.0814,-2.5228,74.98559999999999,175,75
2026-05-09 16:04:27.496,1,0.39,1.03,3.06,296.7114,-46.97280000000001,60.775600000000004,175,75
2026-05-09 16:04:27.509,1,0.53,0.49,1.72,339.1514,-26.2428,59.555600000000005,175,75
2026-05-09 16:04:27.609,1,0.37,-1.38,0.03,-4.5085999999999995,80.7072,4.195600000000001,175,75
2026-05-09 16:04:27.620,1,0.44,-1.29,0.87,2.9914000000000005,109.1872,1.8155999999999999,175,75
2026-05-09 16:04:27.635,1,0.48,-0.88,1.02,14.6414,44.4272,0.5956000000000001,175,75
2026-05-09 16:04:27.647,1,-0.01,-0.68,0.62,24.3314,43.697199999999995,10.7156,175,75
2026-05-09 16:04:27.669,1,0.16,-0.8,0.49,75.25139999999999,21.5072,32.2356,175,75
2026-05-09 16:04:27.692,1,0.17,-0.64,0.57,97.38140000000001,35.227199999999996,31.0856,175,75
2026-05-09 16:04:27.702,1,0.1,-0.34,1.09,126.5914,20.3472,34.1956,175,75
2026-05-09 16:04:27.713,1,0.36,-0.4,0.78,151.6514,62.2372,19.1356,175,75
2026-05-09 16:04:27.724,1,0.47,-0.4,0.82,140.1214,113.02720000000001,-9.5244,175,75
2026-05-09 16:04:27.732,1,0.24,0.13,1.41,88.1114,173.6372,-34.834399999999995,175,75
2026-05-09 16:04:27.743,1,0.25,0.28,1.34,25.5514,136.1972,-31.294399999999996,175,75
2026-05-09 16:04:27.769,1,0.35,-0.61,-1.12,-247.2486,20.0972,-53.974399999999996,175,75
2026-05-09 16:04:27.783,1,0.35,-1.12,-0.36,-395.9686,51.9872,-93.3044,175,75
2026-05-09 16:04:27.794,1,0.4,-1.61,0.49,-480.54859999999996,-82.0328,-95.3844,175,75
2026-05-09 16:04:27.805,1,0.3,-1.9,0.84,-533.7185999999999,-172.15279999999998,-86.29440000000001,175,75
2026-05-09 16:04:27.818,1,-0.15,-1.57,0.76,-564.8786,-197.3328,-77.3944,175,75
2026-05-09 16:04:27.820,1,-0.33,-1.55,1.33,-571.3385999999999,-134.4128,-49.5244,175,75
2026-05-09 16:04:27.878,1,-0.03,-0.15,0.62,-394.3286,71.5072,34.2556,175,75
2026-05-09 16:04:27.946,1,-0.24,0.03,2.22,-196.9486,227.59720000000002,26.1456,175,75
2026-05-09 16:04:27.972,1,0.25,0.96,2.52,-84.0786,194.3672,-1.5443999999999996,175,75
2026-05-09 16:04:28.013,1,0.31,1.65,2.74,-3.7186000000000003,54.857200000000006,10.6556,175,75
2026-05-09 16:04:28.026,1,0.39,1.74,2.67,32.3814,-14.4728,23.5856,175,75
2026-05-09 16:04:28.057,1,0.35,1.39,2.19,121.22139999999999,-102.7028,46.8756,175,75
2026-05-09 16:04:28.068,1,0.36,1.24,1.98,165.79139999999998,-109.5328,48.275600000000004,175,75
2026-05-09 16:04:28.089,1,0.34,0.74,1.68,327.69140000000004,-56.422799999999995,59.2556,175,75
2026-05-09 16:04:28.089,1,0.3,0.59,1.71,354.2114,-48.1328,62.665600000000005,175,75
2026-05-09 16:04:28.138,1,0.12,-0.57,1.22,443.8414,-86.2428,64.8056,175,75
2026-05-09 16:04:28.161,1,-0.05,-0.7,1.25,441.95140000000004,-98.55279999999999,61.5056,175,75
2026-05-09 16:04:28.181,1,-0.1,-0.82,1.51,441.3414,-109.0428,53.525600000000004,175,75
2026-05-09 16:04:28.181,1,-0.0,-1.07,1.81,430.9214,-146.6028,48.8256,175,75
2026-05-09 16:04:28.190,1,0.02,-1.26,1.82,410.7314,-214.1028,44.3756,175,75
2026-05-09 16:04:28.203,1,-0.15,-1.22,1.05,344.82140000000004,-306.4828,50.4756,175,75
2026-05-09 16:04:28.227,1,-0.56,-1.01,0.4,316.5914,-288.62280000000004,23.215600000000002,175,75
2026-05-09 16:04:28.227,1,-0.53,-0.9,0.06,306.83140000000003,-241.2428,6.5656,175,75
2026-05-09 16:04:28.239,1,-0.2,-0.78,0.08,298.8414,-164.9628,6.1456,175,75
2026-05-09 16:04:28.249,1,0.11,-0.39,-0.08,304.33140000000003,-109.1028,13.2156,175,75
2026-05-09 16:04:28.283,1,-0.03,-0.77,1.0,-340.9686,912.5372,-145.2644,175,75
2026-05-09 16:04:28.314,1,0.24,1.59,7.01,-864.3886,35.8972,14.1356,175,75
2026-05-09 16:04:28.314,1,0.91,2.64,2.72,-230.23860000000002,-174.7128,72.78559999999999,175,75
2026-05-09 16:04:28.336,1,-1.26,0.33,0.8,-3.0486000000000004,-118.2528,31.9356,175,75
2026-05-09 16:04:28.348,1,0.42,-1.03,-0.01,-79.20859999999999,-143.5528,2.1156000000000006,175,75
2026-05-09 16:04:28.385,1,0.77,-0.18,0.75,-52.0086,-4.9028,26.9356,175,75
2026-05-09 16:04:28.407,1,-0.17,-0.03,0.34,-2.858599999999999,-11.6628,38.5856,175,75
2026-05-09 16:04:28.456,1,-0.47,-0.71,1.25,52.5014,156.1972,44.8656,175,75
2026-05-09 16:04:28.475,1,0.21,-0.66,2.08,32.3814,156.0772,39.2556,175,75
2026-05-09 16:04:28.486,1,0.17,-0.54,2.13,21.471400000000003,117.41720000000001,31.995600000000003,175,75
2026-05-09 16:04:28.524,1,0.38,-0.1,2.13,-0.05860000000000021,87.1172,12.915600000000001,175,75
2026-05-09 16:04:28.536,1,0.62,0.64,1.32,-29.208599999999997,47.967200000000005,12.605599999999999,175,75
2026-05-09 16:04:28.536,1,0.56,0.95,0.75,-38.3486,8.517199999999999,7.1756,175,75
2026-05-09 16:04:28.584,1,0.91,1.91,2.86,114.94139999999999,51.3172,15.1056,175,75
2026-05-09 16:04:28.584,1,0.99,2.2,2.72,165.5514,38.697199999999995,15.9556,175,75
2026-05-09 16:04:28.599,1,0.54,1.99,2.52,192.6914,47.5372,20.2256,175,75
2026-05-09 16:04:28.648,1,-3.86,-4.08,-11.13,333.4214,-247.6428,126.6956,175,75
2026-05-09 16:04:28.659,1,0.02,-1.66,0.4,-228.89860000000002,895.8972,-216.2344,175,75
2026-05-09 16:04:28.695,1,-1.85,-0.09,0.88,15.2514,-12.0328,-1.4744000000000002,175,75
2026-05-09 16:04:28.706,1,-0.03,-0.69,0.52,-47.4986,33.63720000000001,14.1356,175,75
2026-05-09 16:04:28.772,1,0.01,-0.53,0.36,102.0814,-1.9128000000000007,1.0856000000000003,175,75
2026-05-09 16:04:28.784,1,0.11,-0.65,0.48,140.73139999999998,-12.9428,9.1356,175,75
2026-05-09 16:04:28.810,1,-0.18,-0.81,1.04,212.5614,-27.6428,28.525599999999997,175,75
2026-05-09 16:04:28.821,1,0.41,-0.66,0.72,224.7014,34.797200000000004,-0.9943999999999997,175,75
2026-05-09 16:04:28.821,1,0.24,-0.34,0.14,162.01139999999998,55.52720000000001,-10.4444,175,75
2026-05-09 16:04:28.846,1,-0.35,0.48,0.19,27.9314,143.8872,-29.9544,175,75
2026-05-09 16:04:28.846,1,-0.49,1.12,-0.74,-40.1786,72.3572,-27.574399999999997,175,75
2026-05-09 16:04:28.872,1,-0.04,-0.75,-1.65,-413.7186,125.28720000000001,-64.1644,175,75
2026-05-09 16:04:28.884,1,-0.01,-1.6,-1.27,-486.7686,109.6172,-79.1644,175,75
2026-05-09 16:04:28.906,1,-0.3,-3.89,0.26,-584.3886,130.7072,-62.4544,175,75
2026-05-09 16:04:28.910,1,0.12,-3.31,1.3,-566.8886,90.77720000000001,-72.9444,175,75
2026-05-09 16:04:28.921,1,-0.26,-2.2,1.33,-592.7386,45.77719999999999,-46.544399999999996,175,75
2026-05-09 16:04:28.941,1,-0.55,-1.65,1.66,-520.5486,92.72720000000001,-21.474400000000003,175,75
2026-05-09 16:04:28.952,1,-0.15,-0.18,2.08,-481.7686,158.2072,-20.504399999999997,175,75
2026-05-09 16:04:28.968,1,0.54,0.47,2.38,-445.35859999999997,126.19720000000001,-15.9944,175,75
2026-05-09 16:04:28.968,1,0.27,0.18,1.78,-426.2786,89.30720000000001,-3.4944000000000006,175,75
2026-05-09 16:04:28.984,1,0.07,-0.15,1.5,-404.3286,111.2572,-20.9944,175,75
2026-05-09 16:04:28.997,1,0.01,-0.23,1.67,-384.3886,112.5972,-40.3844,175,75
2026-05-09 16:04:29.007,1,-0.04,-0.2,1.87,-358.7786,105.0372,-48.1244,175,75
2026-05-09 16:04:29.031,1,0.08,-0.16,1.24,-326.3986,22.4772,-27.824399999999997,175,75
2026-05-09 16:04:29.031,1,0.01,0.18,1.41,-304.93859999999995,31.807199999999998,-11.9044,175,75
2026-05-09 16:04:29.046,1,0.14,0.68,1.8,-279.68859999999995,-3.3127999999999993,3.5256000000000003,175,75
2026-05-09 16:04:29.060,1,0.01,0.94,1.82,-225.9686,-15.8128,10.2256,175,75
2026-05-09 16:04:29.099,1,0.32,1.72,2.18,-12.188600000000001,-62.7628,-9.5844,175,75
2026-05-09 16:04:29.107,1,0.23,1.69,2.18,31.5914,-47.2128,-5.1944,175,75
2026-05-09 16:04:29.108,1,0.26,1.57,2.37,77.50139999999999,-36.7228,1.0856000000000003,175,75
2026-05-09 16:04:29.147,1,0.44,1.24,2.07,221.9514,-62.8228,28.5856,175,75
2026-05-09 16:04:29.150,1,0.46,1.06,1.9,257.5014,-51.422799999999995,30.105600000000003,175,75
2026-05-09 16:04:29.168,1,0.46,0.84,1.82,292.38140000000004,-36.5428,27.605600000000003,175,75
2026-05-09 16:04:29.194,1,0.58,0.27,1.97,375.7314,-17.9428,26.565600000000003,175,75
2026-05-09 16:04:29.214,1,0.54,-0.0,1.93,420.4314,-24.6528,31.995600000000003,175,75
2026-05-09 16:04:29.245,1,0.42,-0.22,1.93,438.7214,-45.142799999999994,42.4256,175,75
2026-05-09 16:04:29.245,1,0.43,-0.34,1.94,440.9214,-62.522800000000004,45.775600000000004,175,75
2026-05-09 16:04:29.265,1,0.31,-0.47,1.87,439.51140000000004,-97.2128,50.0456,175,75
2026-05-09 16:04:29.274,1,0.35,-0.59,1.72,437.9914,-123.19279999999999,51.205600000000004,175,75
2026-05-09 16:04:29.289,1,0.17,-0.71,1.57,431.0414,-160.5728,50.8956,175,75
2026-05-09 16:04:29.289,1,-0.02,-0.89,1.57,422.9314,-189.1028,44.735600000000005,175,75
2026-05-09 16:04:29.304,1,-0.07,-1.0,1.79,412.69140000000004,-220.87279999999998,32.4256,175,75
2026-05-09 16:04:29.315,1,-0.09,-1.19,2.11,397.38140000000004,-296.8528,23.885600000000004,175,75
2026-05-09 16:04:29.325,1,-0.02,-1.39,1.67,385.31140000000005,-371.8528,8.5256,175,75
2026-05-09 16:04:29.346,1,-0.26,-1.34,-0.22,354.64140000000003,-335.81280000000004,-18.974400000000003,175,75
2026-05-09 16:04:29.358,1,-0.3,-1.13,-1.76,353.9014,-257.2728,-22.4544,175,75
2026-05-09 16:04:29.372,1,-2.54,-0.99,-10.59,496.5914,-1142.4628,-36.7844,175,75
2026-05-09 16:04:29.382,1,-8.13,-5.29,-13.89,271.1014,-28.4328,59.3756,175,75
2026-05-09 16:04:29.396,1,1.23,-0.42,1.12,-392.61859999999996,766.9872,-20.8044,175,75
2026-05-09 16:04:29.407,1,-5.46,-0.08,4.54,-589.5086,667.9671999999999,-202.6944,175,75
2026-05-09 16:04:29.424,1,0.04,1.1,1.44,42.1414,-151.5428,141.8156,175,75
2026-05-09 16:04:29.435,1,-1.33,-1.97,1.08,48.3614,-27.5228,5.1056,175,75
2026-05-09 16:04:29.446,1,0.74,-2.79,0.2,-60.668600000000005,-15.6928,-62.3944,175,75
2026-05-09 16:04:29.457,1,1.28,-1.51,0.18,-68.95859999999999,25.5872,-11.7844,175,75
2026-05-09 16:04:29.477,1,0.56,0.17,1.01,-55.6086,-17.8228,31.205599999999997,175,75
2026-05-09 16:04:29.496,1,-0.12,0.77,0.62,-50.5486,-51.6028,25.415599999999998,175,75
2026-05-09 16:04:29.507,1,-0.27,0.31,0.13,-6.028599999999999,-53.7428,18.035600000000002,175,75
2026-05-09 16:04:29.519,1,-0.2,-0.19,0.06,28.1114,-3.1928,20.2256,175,75
2026-05-09 16:04:29.527,1,-0.23,-0.45,0.33,54.3914,38.7572,21.5056,175,75
2026-05-09 16:04:29.540,1,-0.21,-0.41,0.61,65.00139999999999,75.4672,19.3156,175,75
2026-05-09 16:04:29.581,1,-0.12,-0.67,1.12,65.5514,121.50720000000001,22.605600000000003,175,75
2026-05-09 16:04:29.581,1,0.0,-0.7,1.43,66.53139999999999,136.8672,20.285600000000002,175,75
2026-05-09 16:04:29.598,1,0.2,-0.46,1.63,65.3714,122.2372,18.0956,175,75
2026-05-09 16:04:29.609,1,0.22,-0.18,1.79,56.8914,81.0172,19.3156,175,75
2026-05-09 16:04:29.620,1,0.45,0.13,1.91,53.2314,41.3172,20.165599999999998,175,75
2026-05-09 16:04:29.630,1,0.53,0.32,1.64,38.781400000000005,30.777199999999997,11.0256,175,75
2026-05-09 16:04:29.642,1,0.66,0.61,1.29,9.7014,3.5172000000000008,0.10559999999999992,175,75
2026-05-09 16:04:29.652,1,0.61,0.79,0.99,-17.6786,-24.9628,-10.324399999999999,175,75
2026-05-09 16:04:29.673,1,0.34,1.04,0.84,-45.6686,-59.47280000000001,-18.434399999999997,175,75
2026-05-09 16:04:29.704,1,0.69,1.93,2.12,69.9414,54.0672,-16.474400000000003,175,75
2026-05-09 16:04:29.716,1,0.99,2.1,2.97,123.23140000000001,78.8772,-10.934399999999998,175,75
2026-05-09 16:04:29.729,1,2.3,1.41,0.45,147.9914,-118.6828,5.7156,175,75
2026-05-09 16:04:29.743,1,-0.25,1.63,-3.23,242.38139999999999,-606.7228,67.3056,175,75
2026-05-09 16:04:29.749,1,-4.04,-2.0,-5.58,232.01139999999998,-231.6628,43.3356,175,75
2026-05-09 16:04:29.765,1,-0.32,-0.24,1.4,-210.6686,585.4072,-112.57440000000001,175,75
2026-05-09 16:04:29.773,1,-1.24,0.26,3.37,-375.29859999999996,-27.7028,-42.2144,175,75
2026-05-09 16:04:29.785,1,-0.64,0.34,1.33,-1.7086000000000006,-88.4328,30.8356,175,75
2026-05-09 16:04:29.795,1,-0.58,-0.28,0.79,-44.3886,10.287199999999999,16.0856,175,75
2026-05-09 16:04:29.829,1,0.04,-0.04,0.91,0.9813999999999998,12.1172,-10.324399999999999,175,75
2026-05-09 16:04:29.839,1,0.05,-0.19,0.83,15.9814,16.9872,-9.404399999999999,175,75
2026-05-09 16:04:29.851,1,0.17,-0.4,0.52,36.8314,26.3772,1.9356,175,75
2026-05-09 16:04:29.862,1,0.26,-0.57,0.45,60.3714,36.2572,4.435600000000001,175,75
2026-05-09 16:04:29.873,1,0.22,-0.53,0.55,80.1214,31.0172,-0.3843999999999994,175,75
2026-05-09 16:04:29.880,1,-0.08,-0.48,0.53,101.3414,23.5772,1.6356000000000002,175,75
2026-05-09 16:04:29.900,1,-0.28,-0.54,0.6,122.75139999999999,24.677200000000003,2.1756,175,75
2026-05-09 16:04:29.912,1,-0.4,-0.6,1.06,161.7114,-37.4028,12.3656,175,75
2026-05-09 16:04:29.925,1,-0.39,-0.24,0.72,180.98139999999998,17.5372,4.3756,175,75
2026-05-09 16:04:29.935,1,0.26,0.31,0.91,170.1914,67.5972,-3.064399999999999,175,75
2026-05-09 16:04:29.943,1,0.14,0.45,1.02,121.16139999999999,99.7972,-6.6044,175,75
2026-05-09 16:04:29.960,1,-0.19,0.45,1.74,65.25139999999999,164.3672,-9.0444,175,75
2026-05-09 16:04:29.965,1,-0.16,0.41,0.32,-35.3586,79.1272,6.5656,175,75
2026-05-09 16:04:29.984,1,0.17,-0.3,-0.98,-183.4686,79.6172,2.6656000000000004,175,75
2026-05-09 16:04:30.008,1,-0.01,-1.59,-1.34,-434.68859999999995,80.8972,-22.6344,175,75
2026-05-09 16:04:30.019,1,0.19,-2.04,-0.58,-480.17859999999996,54.187200000000004,-20.074399999999997,175,75
2026-05-09 16:04:30.043,1,0.43,-2.24,0.06,-513.4086,15.5872,-31.0544,175,75
2026-05-09 16:04:30.043,1,-0.25,-1.74,0.01,-511.94859999999994,36.447199999999995,2.7256,175,75
2026-05-09 16:04:30.051,1,-0.28,-1.31,1.07,-445.9686,102.5372,2.5456000000000003,175,75
2026-05-09 16:04:30.084,1,0.56,0.77,1.22,-406.0986,146.3172,-21.724400000000003,175,75
2026-05-09 16:04:30.105,1,0.34,0.15,1.31,-367.98859999999996,167.1172,-30.014399999999995,175,75
2026-05-09 16:04:30.117,1,0.46,-0.02,1.49,-344.3286,156.2572,-33.4944,175,75
2026-05-09 16:04:30.129,1,0.47,-0.07,1.56,-328.6586,132.1172,-35.3844,175,75
2026-05-09 16:04:30.146,1,0.2,-0.1,1.56,-287.55859999999996,73.69720000000001,-11.1744,175,75
2026-05-09 16:04:30.160,1,0.26,0.16,1.61,-265.7886,76.6272,0.04560000000000031,175,75
2026-05-09 16:04:30.181,1,0.08,1.12,1.94,-179.3886,63.08720000000001,21.1456,175,75
2026-05-09 16:04:30.192,1,0.1,1.36,2.13,-133.7186,45.4072,28.275599999999997,175,75
2026-05-09 16:04:30.205,1,0.21,1.57,2.27,-95.9086,17.4172,33.3956,175,75
2026-05-09 16:04:30.223,1,0.18,1.77,2.45,-15.238599999999998,-89.9028,42.6056,175,75
2026-05-09 16:04:30.242,1,0.2,1.52,2.18,63.2914,-149.7728,72.1156,175,75
2026-05-09 16:04:30.257,1,0.27,1.3,1.92,114.51140000000001,-142.9428,69.1356,175,75
2026-05-09 16:04:30.263,1,0.31,1.19,1.77,164.76139999999998,-130.7528,60.0456,175,75
2026-05-09 16:04:30.284,1,0.29,1.13,1.63,216.6514,-112.33279999999999,56.3256,175,75
2026-05-09 16:04:30.284,1,0.27,1.05,1.58,256.4714,-88.4328,57.1156,175,75
2026-05-09 16:04:30.308,1,0.23,0.81,1.53,304.76140000000004,-55.142799999999994,58.3356,175,75
2026-05-09 16:04:30.308,1,0.26,0.63,1.53,332.38140000000004,-25.6928,55.4756,175,75
2026-05-09 16:04:30.318,1,0.34,0.4,1.58,363.7214,1.507200000000001,53.1556,175,75
2026-05-09 16:04:30.331,1,0.37,0.16,1.58,390.4314,13.397200000000002,57.1756,175,75
2026-05-09 16:04:30.345,1,0.41,-0.04,1.59,408.4214,23.0872,59.6756,175,75
2026-05-09 16:04:30.355,1,0.47,-0.34,1.63,417.6214,16.6872,64.5556,175,75
2026-05-09 16:04:30.365,1,0.32,-0.43,1.69,417.6214,-14.4128,71.6356,175,75
2026-05-09 16:04:30.386,1,0.32,-0.7,1.84,414.1514,-49.6528,69.37559999999999,175,75
2026-05-09 16:04:30.399,1,0.37,-0.78,1.91,404.82140000000004,-93.9828,64.7356,175,75
2026-05-09 16:04:30.411,1,0.31,-0.93,1.98,396.1614,-154.8328,60.7156,175,75
2026-05-09 16:04:30.411,1,0.12,-0.99,2.03,387.6214,-203.1328,50.5356,175,75
2026-05-09 16:04:30.435,1,-0.15,-1.07,2.02,364.0914,-302.94280000000003,37.2356,175,75
2026-05-09 16:04:30.435,1,0.02,-1.19,1.96,339.0314,-395.2028,25.285600000000002,175,75
2026-05-09 16:04:30.446,1,-0.24,-1.09,1.65,302.8714,-465.81280000000004,6.1456,175,75
2026-05-09 16:04:30.475,1,-0.4,-1.24,1.33,278.4814,-427.2728,-29.1044,175,75
2026-05-09 16:04:30.486,1,-0.47,-0.81,0.5,272.81140000000005,-419.9028,-59.52439999999999,175,75
2026-05-09 16:04:30.494,1,-0.75,-0.07,-2.54,283.6014,-658.9228,-14.044400000000001,175,75
2026-05-09 16:04:30.518,1,0.86,-2.71,-4.96,-381.5786,280.5272,211.8756,175,75
2026-05-09 16:04:30.534,1,-0.86,1.92,6.42,-746.7085999999999,174.6772,-43.4344,175,75
2026-05-09 16:04:30.569,1,-0.09,-1.55,0.88,23.7814,98.1472,-30.864399999999996,175,75
2026-05-09 16:04:30.603,1,0.55,-0.08,0.85,-21.8886,-6.6628,36.5056,175,75
2026-05-09 16:04:30.615,1,-0.0,0.42,0.69,-16.1586,5.4072,42.7256,175,75
2026-05-09 16:04:30.626,1,-0.08,0.22,0.69,2.3814,2.4171999999999993,30.955599999999997,175,75
2026-05-09 16:04:30.636,1,-0.35,-0.19,0.56,24.761400000000002,11.987200000000001,24.5556,175,75
2026-05-09 16:04:30.670,1,-0.3,-0.29,1.0,60.2514,108.8172,20.8356,175,75
2026-05-09 16:04:30.681,1,-0.11,-0.07,1.3,62.931400000000004,121.31720000000001,19.1956,175,75
2026-05-09 16:04:30.694,1,-0.01,-0.07,1.35,61.4014,109.91720000000001,22.3056,175,75
2026-05-09 16:04:30.698,1,-0.03,-0.19,1.35,57.6914,108.2072,14.4356,175,75
2026-05-09 16:04:30.709,1,0.0,-0.19,1.4,58.7814,101.6272,12.665600000000001,175,75
2026-05-09 16:04:30.721,1,0.01,-0.14,1.4,55.7914,73.33720000000001,11.5656,175,75
2026-05-09 16:04:30.732,1,-0.01,0.01,1.62,53.5414,23.7572,16.8156,175,75
2026-05-09 16:04:30.745,1,0.29,0.21,1.37,52.2014,10.8372,7.8456,175,75
2026-05-09 16:04:30.755,1,0.49,0.6,1.06,28.7814,7.237200000000001,0.6556000000000006,175,75
2026-05-09 16:04:30.769,1,0.44,0.85,0.85,-3.778599999999999,-2.5228,-5.804399999999999,175,75
2026-05-09 16:04:30.780,1,0.41,0.86,0.85,-35.9086,-40.5728,-7.9444,175,75
2026-05-09 16:04:30.792,1,0.15,0.95,0.63,-59.808600000000006,-69.1028,1.6356000000000002,175,75
2026-05-09 16:04:30.803,1,0.28,1.0,1.07,-57.618599999999994,-49.412800000000004,11.2656,175,75
2026-05-09 16:04:30.817,1,0.71,1.15,1.71,-48.8986,-32.0928,10.2856,175,75
2026-05-09 16:04:30.835,1,1.67,1.49,2.52,26.3414,-87.94279999999999,-13.5544,175,75
2026-05-09 16:04:30.849,1,0.83,1.91,0.62,35.6114,-244.2228,29.925600000000003,175,75
2026-05-09 16:04:30.849,1,-0.78,2.36,-1.51,143.60139999999998,-384.1028,46.8156,175,75
2026-05-09 16:04:30.866,1,-0.67,0.26,-4.82,170.0614,-325.69280000000003,58.885600000000004,175,75
2026-05-09 16:04:30.892,1,0.54,0.06,0.67,-136.8286,441.44719999999995,-77.6944,175,75
2026-05-09 16:04:30.892,1,0.26,0.2,2.76,-214.6886,158.8872,-43.4344,175,75
2026-05-09 16:04:30.903,1,-0.52,0.82,1.58,-37.7986,-74.8328,50.1056,175,75
2026-05-09 16:04:30.904,1,-0.31,-0.9,1.13,-36.3986,52.357200000000006,0.4156000000000004,175,75
2026-05-09 16:04:30.925,1,-0.17,-0.44,0.79,-40.7286,-11.4228,17.425600000000003,175,75
2026-05-09 16:04:30.925,1,0.02,-0.12,1.0,-34.9986,45.3472,13.3956,175,75
2026-05-09 16:04:30.955,1,-0.07,-0.26,1.04,-20.7286,6.447199999999999,-4.9544,175,75
2026-05-09 16:04:30.963,1,-0.07,-0.29,0.81,-14.1386,-4.7128,-4.654399999999999,175,75
2026-05-09 16:04:30.980,1,0.26,-0.03,0.05,31.2814,15.647200000000002,6.1456,175,75
2026-05-09 16:04:30.992,1,0.33,0.12,0.12,59.8814,11.9272,9.6756,175,75
2026-05-09 16:04:31.010,1,0.04,0.15,0.11,125.4914,-16.9128,11.4456,175,75
2026-05-09 16:04:31.040,1,-0.27,-0.11,0.13,198.6614,-10.572799999999999,14.1356,175,75
2026-05-09 16:04:31.040,1,-0.25,-0.25,0.45,242.6214,-46.1228,19.0656,175,75
2026-05-09 16:04:31.054,1,-0.12,-0.71,0.77,285.25140000000005,-5.8128,23.8256,175,75
2026-05-09 16:04:31.064,1,0.6,-0.42,0.48,303.9014,63.8772,12.2356,175,75
2026-05-09 16:04:31.074,1,1.25,-0.51,-0.35,287.08140000000003,93.5772,32.1156,175,75
2026-05-09 16:04:31.096,1,0.3,-0.47,-1.0,173.23139999999998,220.2272,-16.964399999999998,175,75
2026-05-09 16:04:31.113,1,-0.49,0.97,-1.46,-150.23860000000002,257.4172,-60.324400000000004,175,75
2026-05-09 16:04:31.117,1,0.69,0.11,0.36,-257.85859999999997,266.13719999999995,-85.9944,175,75
2026-05-09 16:04:31.135,1,-0.04,-0.11,0.21,-328.4086,102.1772,-97.9444,175,75
2026-05-09 16:04:31.159,1,-0.54,-1.49,-0.05,-440.8486,148.0872,-33.0644,175,75
2026-05-09 16:04:31.173,1,-0.38,-2.17,0.3,-445.8486,231.9872,-46.2344,175,75
2026-05-09 16:04:31.173,1,-0.33,-2.17,1.25,-418.8986,270.5272,-75.01440000000001,175,75
2026-05-09 16:04:31.185,1,0.16,-1.6,1.54,-401.2186,255.46720000000002,-75.01440000000001,175,75
2026-05-09 16:04:31.197,1,-0.3,-1.5,2.15,-381.2786,245.0372,-63.184400000000004,175,75
2026-05-09 16:04:31.207,1,-0.08,-0.97,2.95,-331.3986,174.5572,-91.1144,175,75
2026-05-09 16:04:31.219,1,0.34,0.05,2.42,-320.7886,73.5172,-83.12440000000001,175,75
2026-05-09 16:04:31.230,1,-0.13,0.45,1.73,-306.8286,74.0072,-69.04440000000001,175,75
2026-05-09 16:04:31.241,1,0.31,-0.02,1.48,-297.1286,63.5172,-67.6944,175,75
2026-05-09 16:04:31.254,1,0.41,-0.44,1.08,-312.3786,-9.0428,-75.26440000000001,175,75
2026-05-09 16:04:31.265,1,-0.01,-0.66,0.58,-340.23859999999996,-48.25279999999999,-38.974399999999996,175,75
2026-05-09 16:04:31.276,1,-0.26,-0.5,0.74,-337.55859999999996,-34.8328,-15.934399999999998,175,75
2026-05-09 16:04:31.297,1,-0.21,0.01,1.23,-239.8086,22.9072,11.6356,175,75
2026-05-09 16:04:31.309,1,-0.03,0.29,1.62,-187.0686,30.8972,-5.0144,175,75
2026-05-09 16:04:31.309,1,0.14,0.63,1.85,-132.9186,12.9072,-1.2344,175,75
2026-05-09 16:04:31.319,1,0.1,0.89,1.93,-81.45859999999999,-8.0128,15.1656,175,75
2026-05-09 16:04:31.340,1,0.11,1.07,1.9,-33.2886,-20.9928,21.4456,175,75
2026-05-09 16:04:31.352,1,0.14,1.22,1.89,1.2814000000000005,-38.3728,25.955599999999997,175,75
2026-05-09 16:04:31.352,1,0.16,1.15,1.96,28.3614,-50.082800000000006,31.4456,175,75
2026-05-09 16:04:31.378,1,0.24,1.01,2.05,115.9214,-81.66279999999999,38.7656,175,75
2026-05-09 16:04:31.391,1,0.3,0.93,1.95,157.7514,-81.1228,41.0856,175,75
2026-05-09 16:04:31.405,1,0.38,0.82,1.81,199.2114,-67.0928,41.205600000000004,175,75
2026-05-09 16:04:31.415,1,0.46,0.65,1.7,235.73139999999998,-43.0128,40.955600000000004,175,75
2026-05-09 16:04:31.427,1,0.54,0.55,1.67,262.5614,-24.5928,39.4956,175,75
2026-05-09 16:04:31.427,1,0.54,0.45,1.68,290.7314,-16.052799999999998,38.2756,175,75
2026-05-09 16:04:31.456,1,0.59,0.23,1.8,333.2314,2.597200000000001,42.235600000000005,175,75
2026-05-09 16:04:31.467,1,0.62,0.03,1.76,345.6114,-2.4627999999999997,45.1056,175,75
2026-05-09 16:04:31.479,1,0.58,-0.02,1.66,352.56140000000005,-24.2228,47.3656,175,75
2026-05-09 16:04:31.482,1,0.49,-0.04,1.6,354.0914,-48.25279999999999,48.3956,175,75
2026-05-09 16:04:31.507,1,0.48,-0.09,1.58,350.00140000000005,-73.4328,45.955600000000004,175,75
2026-05-09 16:04:31.518,1,0.34,-0.07,1.62,332.56140000000005,-124.9028,47.4256,175,75
2026-05-09 16:04:31.532,1,0.35,-0.17,1.8,315.4314,-173.37279999999998,44.0056,175,75
2026-05-09 16:04:31.532,1,0.14,-0.26,1.93,299.51140000000004,-233.6828,45.2856,175,75
2026-05-09 16:04:31.557,1,-0.08,-0.48,1.75,269.45140000000004,-334.4728,30.165599999999998,175,75
2026-05-09 16:04:31.570,1,-0.0,-0.17,1.77,256.0414,-374.1028,13.5856,175,75
2026-05-09 16:04:31.582,1,0.46,0.09,0.51,247.8714,-381.24280000000005,18.8856,175,75
2026-05-09 16:04:31.605,1,-9.45,-3.93,-13.34,265.5514,-654.9628,-28.3044,175,75
2026-05-09 16:04:31.627,1,-1.61,0.18,2.63,-429.93859999999995,812.4771999999999,-96.90440000000001,175,75
2026-05-09 16:04:31.637,1,-3.47,1.07,6.48,-799.4485999999999,244.3072,-95.5644,175,75
2026-05-09 16:04:31.655,1,-0.98,-0.79,1.97,87.9914,-5.9928,52.3656,175,75
2026-05-09 16:04:31.700,1,0.44,-0.76,0.89,-6.8886,25.167199999999998,-18.7344,175,75
2026-05-09 16:04:31.714,1,0.89,-0.68,1.08,-12.438600000000001,-16.852800000000002,-17.824399999999997,175,75
2026-05-09 16:04:31.726,1,0.61,-0.25,0.85,-13.898599999999998,-24.0428,6.6356,175,75
2026-05-09 16:04:31.766,1,-0.12,-0.23,0.32,47.8714,-19.5328,22.3056,175,75
2026-05-09 16:04:31.766,1,-0.26,-0.17,0.51,81.10140000000001,21.6872,21.3256,175,75
2026-05-09 16:04:31.776,1,-0.48,-0.1,0.47,95.00139999999999,59.0072,22.915599999999998,175,75
2026-05-09 16:04:31.789,1,-0.24,-0.22,0.88,98.9014,98.02720000000001,21.7556,175,75
2026-05-09 16:04:31.799,1,-0.12,-0.26,1.31,97.26140000000001,106.3772,20.6556,175,75
2026-05-09 16:04:31.808,1,-0.23,-0.47,1.32,87.2014,96.0772,21.6356,175,75
2026-05-09 16:04:31.825,1,-0.21,-0.27,1.49,82.9314,85.3472,16.5656,175,75
2026-05-09 16:04:31.848,1,-0.27,0.17,1.72,79.2714,30.6472,23.3356,175,75
2026-05-09 16:04:31.848,1,-0.08,0.29,1.52,67.56139999999999,35.227199999999996,22.915599999999998,175,75
2026-05-09 16:04:31.859,1,-0.07,0.56,1.31,46.2214,38.8772,16.9356,175,75
2026-05-09 16:04:31.870,1,0.07,0.81,1.06,18.781399999999998,37.667199999999994,15.8956,175,75
2026-05-09 16:04:31.892,1,0.14,0.99,0.61,-27.248600000000003,27.537200000000002,21.4456,175,75
2026-05-09 16:04:31.902,1,0.05,1.07,1.14,-27.0086,39.917199999999994,38.885600000000004,175,75
2026-05-09 16:04:31.938,1,1.32,1.68,3.02,101.8914,-34.7128,39.1956,175,75
2026-05-09 16:04:32.006,1,1.48,-0.08,3.45,-188.3486,529.2472,-49.404399999999995,175,75
2026-05-09 16:04:32.026,1,0.99,0.85,3.84,-218.6586,-88.2528,45.1056,175,75
2026-05-09 16:04:32.026,1,-0.85,-0.73,1.16,7.4414,5.347200000000001,9.8656,175,75
2026-05-09 16:04:32.037,1,-1.01,-0.28,1.12,-27.678600000000003,68.8772,9.1956,175,75
2026-05-09 16:04:32.056,1,-0.41,-0.09,0.84,-14.1386,26.137200000000004,2.3056,175,75
2026-05-09 16:04:32.068,1,-0.41,0.11,0.74,-5.7286,-1.9727999999999994,-6.2943999999999996,175,75
2026-05-09 16:04:32.101,1,0.22,-0.51,0.42,86.4014,17.8472,4.865600000000001,175,75
2026-05-09 16:04:32.101,1,0.21,-0.6,0.32,110.31139999999999,14.007200000000001,8.1556,175,75
2026-05-09 16:04:32.154,1,0.05,-0.57,0.98,202.8714,-43.4928,21.6356,175,75
2026-05-09 16:04:32.172,1,-0.12,-0.62,0.62,218.60139999999998,35.0372,2.5456000000000003,175,75
2026-05-09 16:04:32.172,1,0.16,-0.29,1.0,204.5814,74.1872,-4.404399999999999,175,75
2026-05-09 16:04:32.228,1,-0.15,-0.94,-1.01,-372.49859999999995,65.9572,-18.5544,175,75
2026-05-09 16:04:32.237,1,-0.27,-1.66,-1.39,-448.5286,82.7872,-9.8344,175,75
2026-05-09 16:04:32.266,1,0.2,-2.07,-0.08,-464.0786,136.5672,7.1756,175,75
2026-05-09 16:04:32.278,1,0.44,-2.06,0.07,-452.55859999999996,139.0072,5.0456,175,75
2026-05-09 16:04:32.289,1,0.09,-1.14,1.3,-416.0286,141.7472,-2.394399999999999,175,75
2026-05-09 16:04:32.311,1,0.12,0.17,1.48,-391.0286,174.1872,-20.7444,175,75
2026-05-09 16:04:32.311,1,0.52,0.68,1.68,-364.6286,151.4472,-20.684399999999997,175,75
2026-05-09 16:04:32.324,1,0.42,0.37,1.36,-346.8886,126.9872,-25.3844,175,75
2026-05-09 16:04:32.336,1,0.39,0.15,1.28,-326.2186,126.19720000000001,-41.6644,175,75
2026-05-09 16:04:32.351,1,0.33,0.05,1.3,-302.30859999999996,111.6872,-43.7344,175,75
2026-05-09 16:04:32.366,1,0.27,-0.07,1.34,-275.41859999999997,96.7472,-43.1844,175,75
2026-05-09 16:04:32.381,1,0.06,-0.08,1.81,-216.0286,95.2872,-43.0644,175,75
2026-05-09 16:04:32.405,1,0.18,1.01,1.61,-193.4686,32.5372,-33.0044,175,75
2026-05-09 16:04:32.417,1,0.19,1.45,1.64,-162.2486,-17.3328,-25.324399999999997,175,75
2026-05-09 16:04:32.428,1,0.18,1.74,1.76,-116.70859999999999,-49.5928,-16.904400000000003,175,75
2026-05-09 16:04:32.439,1,0.19,1.84,1.9,-54.3886,-97.58279999999999,-20.1344,175,75
2026-05-09 16:04:32.452,1,0.21,1.82,1.95,-6.8886,-109.22279999999999,-19.584400000000002,175,75
2026-05-09 16:04:32.463,1,0.25,1.68,1.96,46.4014,-108.3728,-12.884400000000001,175,75
2026-05-09 16:04:32.476,1,0.26,1.52,1.94,86.7714,-97.52279999999999,-11.1744,175,75
2026-05-09 16:04:32.498,1,0.24,1.4,1.9,128.0514,-87.7628,-10.2644,175,75
2026-05-09 16:04:32.498,1,0.2,1.29,1.74,180.9214,-73.3128,-9.4644,175,75
2026-05-09 16:04:32.518,1,0.22,1.14,1.6,227.2014,-53.1328,-4.2844,175,75
2026-05-09 16:04:32.524,1,0.3,0.91,1.57,270.6114,-19.352800000000002,0.8956,175,75
2026-05-09 16:04:32.562,1,0.36,0.71,1.62,298.1114,-5.2627999999999995,3.1556,175,75
2026-05-09 16:04:32.562,1,0.42,0.46,1.59,324.58140000000003,2.6671999999999993,4.3156,175,75
2026-05-09 16:04:32.562,1,0.38,0.33,1.6,345.5514,8.697199999999999,8.8856,175,75
2026-05-09 16:04:32.597,1,0.36,0.07,1.72,369.0914,2.0572,27.425600000000003,175,75
2026-05-09 16:04:32.597,1,0.35,0.01,1.7,370.4314,-19.5328,34.9256,175,75
2026-05-09 16:04:32.607,1,0.35,-0.01,1.6,370.19140000000004,-46.052800000000005,38.3956,175,75
2026-05-09 16:04:32.638,1,0.07,-0.26,1.72,345.31140000000005,-130.4428,48.7656,175,75
2026-05-09 16:04:32.649,1,0.03,-0.4,1.98,327.32140000000004,-212.2728,47.915600000000005,175,75
2026-05-09 16:04:32.660,1,0.0,-0.56,2.12,308.4814,-289.4128,39.3156,175,75
2026-05-09 16:04:32.675,1,0.14,-0.85,2.27,281.5914,-374.1628,28.3356,175,75
2026-05-09 16:04:32.686,1,-0.0,-0.78,0.9,250.1214,-486.30280000000005,24.315600000000003,175,75
2026-05-09 16:04:32.697,1,-0.31,-0.49,-2.03,217.9314,-571.9128000000001,32.6656,175,75
2026-05-09 16:04:32.709,1,-7.57,-0.78,-11.73,394.2714,-1357.4628,-14.524399999999998,175,75
2026-05-09 16:04:32.740,1,-2.99,2.13,7.27,-747.7986,266.07719999999995,-72.76440000000001,175,75
2026-05-09 16:04:32.755,1,1.57,2.43,2.72,-71.8886,45.587199999999996,121.4456,175,75
2026-05-09 16:04:32.758,1,-1.29,-1.66,2.56,38.3614,57.72720000000001,65.8356,175,75
2026-05-09 16:04:32.770,1,-0.56,-1.33,1.23,-40.2386,-182.9428,-6.234399999999999,175,75
2026-05-09 16:04:32.823,1,0.29,-0.45,0.43,-23.2886,4.4872,-10.384400000000001,175,75
2026-05-09 16:04:32.856,1,0.45,-0.29,0.8,-0.5485999999999995,19.7972,-0.4443999999999999,175,75
2026-05-09 16:04:32.914,1,-0.13,-0.38,0.49,42.2614,-0.3227999999999991,7.8456,175,75
2026-05-09 16:04:32.944,1,-0.29,-0.28,0.26,67.2014,4.857199999999999,13.3356,175,75
2026-05-09 16:04:32.971,1,-0.2,-0.1,0.79,99.94139999999999,77.5372,13.1556,175,75
2026-05-09 16:04:32.999,1,-0.41,-0.4,1.38,119.7014,74.30720000000001,4.8056,175,75
2026-05-09 16:04:33.011,1,-0.39,-0.05,1.85,132.1414,46.3772,14.0656,175,75
2026-05-09 16:04:33.038,1,-0.01,0.91,0.62,30.2514,101.8672,23.9456,175,75
2026-05-09 16:04:33.048,1,0.18,0.73,0.43,-35.0586,65.77720000000001,30.6556,175,75
2026-05-09 16:04:33.048,1,0.27,0.49,-0.17,-77.61859999999999,19.1272,36.8756,175,75
2026-05-09 16:04:33.072,1,0.75,0.59,1.6,-122.61860000000001,-20.872799999999998,20.165599999999998,175,75
2026-05-09 16:04:33.082,1,0.86,0.98,1.92,-91.02860000000001,-32.272800000000004,23.885600000000004,175,75
2026-05-09 16:04:33.082,1,0.8,1.3,2.34,-52.5586,-69.2928,8.8856,175,75
2026-05-09 16:04:33.093,1,0.88,2.12,2.66,-8.9586,-114.16279999999999,-2.4543999999999997,175,75
2026-05-09 16:04:33.096,1,0.08,2.95,1.0,28.9714,-197.3328,17.5456,175,75
2026-05-09 16:04:33.114,1,0.96,1.09,-3.14,119.2714,-233.5528,71.6956,175,75
2026-05-09 16:04:33.133,1,1.6,-0.4,3.35,-75.9086,287.05719999999997,-37.764399999999995,175,75
2026-05-09 16:04:33.144,1,0.13,-1.4,1.55,-16.8886,-68.1928,26.6956,175,75
2026-05-09 16:04:33.170,1,-0.48,0.07,1.1,-29.998600000000003,-22.5828,19.1356,175,75
2026-05-09 16:04:33.170,1,-0.5,-0.05,0.98,-23.3486,-31.9128,9.6156,175,75
2026-05-09 16:04:33.195,1,-0.22,-0.44,0.77,-7.858599999999999,-15.512799999999999,18.5856,175,75
2026-05-09 16:04:33.218,1,-0.01,-0.42,0.63,61.1014,32.8472,5.5356000000000005,175,75
2026-05-09 16:04:33.232,1,0.04,-0.43,0.52,88.48140000000001,21.6272,3.9456,175,75
2026-05-09 16:04:33.248,1,0.12,-0.49,0.6,110.06139999999999,20.5872,5.5956,175,75
2026-05-09 16:04:33.258,1,0.1,-0.66,0.56,130.8614,10.7772,16.9356,175,75
2026-05-09 16:04:33.258,1,-0.08,-0.59,0.46,145.5514,8.577200000000001,21.9956,175,75
2026-05-09 16:04:33.272,1,-0.22,-0.14,1.16,175.98139999999998,31.567200000000003,16.9356,175,75
2026-05-09 16:04:33.285,1,0.23,0.4,1.34,180.98139999999998,92.2972,-1.6644000000000005,175,75
2026-05-09 16:04:33.300,1,0.49,0.39,1.44,120.5514,118.0272,9.0656,175,75
2026-05-09 16:04:33.321,1,0.02,0.49,0.01,-100.6686,48.3972,-22.394399999999997,175,75
2026-05-09 16:04:33.332,1,0.26,-0.07,-0.52,-232.5586,57.1772,-33.2444,175,75
2026-05-09 16:04:33.341,1,0.17,-0.64,-0.66,-329.3286,30.2272,-62.334399999999995,175,75
2026-05-09 16:04:33.354,1,-0.3,-1.33,-0.55,-407.73859999999996,32.417199999999994,-75.62440000000001,175,75
2026-05-09 16:04:33.363,1,-0.14,-1.95,-0.26,-454.5686,41.6272,-74.7744,175,75
2026-05-09 16:04:33.379,1,-0.09,-2.33,0.15,-485.29859999999996,64.30720000000001,-82.15440000000001,175,75
2026-05-09 16:04:33.402,1,-0.35,-1.74,1.12,-459.3286,98.7572,-31.724399999999996,175,75
2026-05-09 16:04:33.413,1,-0.11,-0.75,0.72,-427.85859999999997,59.7372,-49.834399999999995,175,75
2026-05-09 16:04:33.426,1,0.11,0.06,0.59,-419.0786,126.9272,-55.444399999999995,175,75
2026-05-09 16:04:33.437,1,0.32,0.26,1.2,-407.0686,148.6972,-61.60439999999999,175,75
2026-05-09 16:04:33.456,1,0.24,-0.09,1.34,-398.4086,79.7972,-41.6644,175,75
2026-05-09 16:04:33.496,1,-0.21,-0.09,1.97,-312.0686,69.3672,-13.184399999999998,175,75
2026-05-09 16:04:33.513,1,0.2,0.59,1.73,-232.0686,0.8971999999999998,36.9956,175,75
2026-05-09 16:04:33.555,1,0.23,1.61,1.68,-23.1686,-28.8028,36.7556,175,75
2026-05-09 16:04:33.574,1,0.16,1.51,2.01,81.53139999999999,-54.6528,49.3156,175,75
2026-05-09 16:04:33.595,1,0.31,1.52,2.1,119.3914,-57.702799999999996,59.735600000000005,175,75
2026-05-09 16:04:33.617,1,0.31,1.42,2.05,209.0314,-59.9028,92.5456,175,75
2026-05-09 16:04:33.617,1,0.33,1.35,2.11,245.2514,-56.662800000000004,94.5556,175,75
2026-05-09 16:04:33.628,1,0.26,1.23,2.21,297.32140000000004,-64.6528,98.76559999999999,175,75
2026-05-09 16:04:33.640,1,0.11,1.03,2.2,333.9714,-54.47280000000001,103.8856,175,75
2026-05-09 16:04:33.650,1,0.04,0.71,2.21,360.3714,-45.9328,103.8256,175,75
2026-05-09 16:04:33.660,1,0.08,0.47,2.14,375.3714,-38.802800000000005,105.53559999999999,175,75
2026-05-09 16:04:33.682,1,0.18,0.23,2.03,387.9314,-33.802800000000005,110.2256,175,75
2026-05-09 16:04:33.690,1,0.28,0.11,1.89,394.94140000000004,-35.0828,108.8856,175,75
2026-05-09 16:04:33.706,1,0.29,0.07,1.77,395.4314,-46.4828,106.4456,175,75
2026-05-09 16:04:33.716,1,0.4,-0.02,1.72,394.88140000000004,-57.642799999999994,97.17559999999999,175,75
2026-05-09 16:04:33.740,1,0.22,-0.19,1.68,382.6214,-150.1428,87.17559999999999,175,75
2026-05-09 16:04:33.755,1,0.07,-0.4,1.64,371.1014,-185.5728,66.9956,175,75
2026-05-09 16:04:33.774,1,-0.4,-0.67,1.32,358.4814,-189.65279999999998,48.885600000000004,175,75
2026-05-09 16:04:33.787,1,0.05,-1.01,0.7,339.2714,-228.8628,28.5856,175,75
2026-05-09 16:04:33.787,1,-0.41,-0.77,-0.49,309.1514,-234.0428,21.3856,175,75
2026-05-09 16:04:33.800,1,-0.43,-0.79,-1.23,264.1514,-201.4828,8.8856,175,75
2026-05-09 16:04:33.812,1,-0.43,-0.23,-2.24,236.8314,-186.6628,38.2756,175,75
2026-05-09 16:04:33.825,1,-3.13,-0.22,-8.66,347.56140000000005,-968.6828,101.4456,175,75
2026-05-09 16:04:33.834,1,-2.95,-7.23,-13.93,3.1714,-49.1028,126.0256,175,75
2026-05-09 16:04:33.845,1,2.92,-0.5,3.34,-156.76860000000002,1170.4672,-207.1544,175,75
2026-05-09 16:04:33.857,1,-1.04,1.07,5.8,-707.7386,331.50719999999995,-75.93440000000001,175,75
2026-05-09 16:04:33.868,1,2.4,0.46,1.57,-14.2686,-104.6528,26.2656,175,75
2026-05-09 16:04:33.880,1,-1.0,-0.01,1.37,-70.23859999999999,-31.5428,11.8156,175,75
2026-05-09 16:04:33.894,1,-1.81,-0.23,0.74,-96.5786,-33.0728,29.6156,175,75
2026-05-09 16:04:33.904,1,0.14,-1.59,-0.15,-74.99860000000001,-29.8328,40.7156,175,75
2026-05-09 16:04:33.915,1,1.13,-1.57,0.2,-59.2686,66.7472,20.5956,175,75
2026-05-09 16:04:33.926,1,0.38,-0.42,0.88,-58.778600000000004,18.8772,38.9456,175,75
2026-05-09 16:04:33.939,1,-0.19,-0.06,0.55,-47.1886,-5.5728,49.2556,175,75
2026-05-09 16:04:33.947,1,-0.4,0.03,0.56,-34.0186,13.517199999999999,24.2556,175,75
2026-05-09 16:04:33.961,1,-0.28,-0.01,0.4,-22.9186,-5.6328,15.8956,175,75
2026-05-09 16:04:33.979,1,-0.34,-0.59,0.55,10.0614,32.057199999999995,-11.294400000000001,175,75
2026-05-09 16:04:33.991,1,-0.43,-0.87,0.69,11.3414,43.3972,-19.5244,175,75
2026-05-09 16:04:33.999,1,-0.45,-1.17,0.93,3.6014,62.5372,-18.364399999999996,175,75
2026-05-09 16:04:34.020,1,-0.53,-1.62,1.23,-1.7685999999999993,83.08720000000001,-5.9344,175,75
2026-05-09 16:04:34.026,1,-0.96,-1.7,1.67,-12.4986,149.4272,-2.5144,175,75
2026-05-09 16:04:34.040,1,-0.9,-1.51,2.43,-22.7986,187.7272,6.5656,175,75
2026-05-09 16:04:34.051,1,-0.79,-1.31,2.94,-27.1286,196.8072,26.0856,175,75
2026-05-09 16:04:34.063,1,-0.52,-1.0,3.41,-24.6286,221.5672,40.415600000000005,175,75
2026-05-09 16:04:34.075,1,0.32,-0.78,3.6,-37.6786,125.7772,53.6456,175,75
2026-05-09 16:04:34.085,1,0.68,-0.67,1.86,-62.8586,-12.4028,55.8956,175,75
2026-05-09 16:04:34.097,1,-0.92,0.18,-0.65,-96.33860000000001,-42.8828,69.37559999999999,175,75
2026-05-09 16:04:34.097,1,-1.59,0.24,-0.99,-97.7986,112.5972,64.6156,175,75
2026-05-09 16:04:34.117,1,-0.94,0.69,1.45,-99.3886,293.5172,57.845600000000005,175,75
2026-05-09 16:04:34.130,1,-0.07,0.74,3.57,-63.9586,291.07719999999995,56.9956,175,75
2026-05-09 16:04:34.141,1,0.28,2.39,3.73,83.0514,50.0372,86.6356,175,75
2026-05-09 16:04:34.151,1,0.43,3.1,3.83,145.4314,26.927200000000003,93.9456,175,75
2026-05-09 16:04:34.163,1,0.63,3.06,3.69,194.76139999999998,-18.372799999999998,118.6456,175,75
2026-05-09 16:04:34.174,1,0.46,2.33,3.35,240.6714,-64.1628,143.2156,175,75
2026-05-09 16:04:34.196,1,0.71,1.1,2.87,332.20140000000004,-73.6828,144.6756,175,75
2026-05-09 16:04:34.212,1,0.58,0.51,2.71,364.58140000000003,-102.8228,146.3256,175,75
2026-05-09 16:04:34.234,1,1.28,-0.83,1.19,414.2114,-128.1928,78.3956,175,75
2026-05-09 16:04:34.245,1,0.86,-0.68,-1.12,384.51140000000004,-315.5128,155.9556,175,75
2026-05-09 16:04:34.251,1,-10.07,-1.32,-11.97,680.0014,-1471.9728,98.03559999999999,175,75
2026-05-09 16:04:34.264,1,3.11,-13.38,-14.72,470.4914,4.557200000000002,485.3456,175,75
2026-05-09 16:04:34.276,1,-2.22,-1.34,-3.61,-204.3886,1274.3672,-309.4644,175,75
2026-05-09 16:04:34.276,1,0.84,0.72,2.84,-650.5486,785.0372,-377.1544,175,75
2026-05-09 16:04:34.306,1,1.41,3.31,5.28,-449.3886,564.6172,111.20559999999999,175,75
2026-05-09 16:04:34.316,1,-1.82,-0.28,4.07,31.0414,-94.16279999999999,-9.1044,175,75
2026-05-09 16:04:34.329,1,-0.96,-0.18,0.58,-8.1686,-156.3028,34.7356,175,75
2026-05-09 16:04:34.363,1,-0.13,-0.7,0.65,47.4414,29.067200000000003,-6.5443999999999996,175,75
2026-05-09 16:04:34.374,1,-0.76,-1.06,1.0,62.6214,50.8972,-10.564400000000001,175,75
2026-05-09 16:04:34.385,1,-0.79,-1.32,1.08,57.3214,37.5372,-9.2244,175,75
2026-05-09 16:04:34.396,1,-0.86,-1.4,0.87,54.6414,65.52720000000001,-0.9943999999999997,175,75
2026-05-09 16:04:34.407,1,-0.6,-1.2,1.37,57.2014,110.0972,10.6556,175,75
2026-05-09 16:04:34.410,1,-0.44,-0.9,1.81,63.7814,133.2072,9.7356,175,75
2026-05-09 16:04:34.425,1,-0.29,-0.3,2.4,41.2814,179.12720000000002,4.8056,175,75
2026-05-09 16:04:34.440,1,-0.11,-0.19,2.65,2.1414,216.3172,-4.7143999999999995,175,75
2026-05-09 16:04:34.452,1,-0.42,-0.04,2.54,-72.61859999999999,237.3572,-28.6744,175,75
2026-05-09 16:04:34.463,1,-0.39,-0.07,2.43,-142.3786,205.09720000000002,-43.4944,175,75
2026-05-09 16:04:34.475,1,-0.18,-0.53,0.8,-237.4986,92.3572,-30.194399999999995,175,75
2026-05-09 16:04:34.485,1,-0.54,-1.16,-0.3,-289.93859999999995,80.83720000000001,-22.214399999999998,175,75
2026-05-09 16:04:34.489,1,-0.33,-2.06,0.12,-340.11859999999996,197.6672,-62.334399999999995,175,75
2026-05-09 16:04:34.523,1,-0.19,-1.14,2.2,-366.8886,132.0572,-61.474399999999996,175,75
2026-05-09 16:04:34.545,1,-0.78,0.03,-1.62,-376.7086,-9.832799999999999,-31.6044,175,75
2026-05-09 16:04:34.555,1,-0.94,-0.51,-0.22,-406.1586,129.5572,-40.3844,175,75
2026-05-09 16:04:34.576,1,-0.04,-0.09,1.29,-382.0686,67.9672,-31.114399999999996,175,75
2026-05-09 16:04:34.583,1,0.14,0.1,0.96,-367.24859999999995,10.9572,-10.934399999999998,175,75
2026-05-09 16:04:34.598,1,0.37,0.15,1.02,-338.2286,39.6772,-23.8544,175,75
2026-05-09 16:04:34.608,1,0.44,0.22,1.3,-308.2286,45.7072,-22.334400000000002,175,75
2026-05-09 16:04:34.609,1,0.31,0.49,1.64,-282.98859999999996,49.0072,-15.7444,175,75
2026-05-09 16:04:34.632,1,0.43,1.13,2.43,-179.5686,56.2572,20.0456,175,75
2026-05-09 16:04:34.645,1,0.43,1.79,2.69,-76.02860000000001,38.577200000000005,41.0856,175,75
2026-05-09 16:04:34.666,1,0.64,2.12,2.99,19.0914,19.7372,58.3956,175,75
2026-05-09 16:04:34.676,1,0.75,2.19,3.14,95.6114,-0.3827999999999996,74.5556,175,75
2026-05-09 16:04:34.685,1,0.7,1.86,3.02,147.7514,-14.4128,87.42559999999999,175,75
2026-05-09 16:04:34.691,1,0.73,1.66,3.01,185.9214,-29.9028,92.5456,175,75
2026-05-09 16:04:34.705,1,0.7,1.54,2.87,227.9914,-56.912800000000004,106.26559999999999,175,75
2026-05-09 16:04:34.715,1,0.74,1.42,2.66,272.01140000000004,-82.8828,114.67559999999999,175,75
2026-05-09 16:04:34.728,1,0.67,1.34,2.35,313.2914,-104.9028,119.37559999999999,175,75
2026-05-09 16:04:34.742,1,0.53,1.2,2.09,341.2814,-110.69279999999999,121.7556,175,75
2026-05-09 16:04:34.767,1,0.21,0.74,1.94,385.9814,-98.0128,130.3456,175,75
2026-05-09 16:04:34.767,1,0.06,0.5,1.98,401.4714,-102.2128,129.9856,175,75
2026-05-09 16:04:34.788,1,-0.04,0.28,1.96,413.3614,-109.7128,132.4856,175,75
2026-05-09 16:04:34.788,1,-0.17,0.13,1.94,419.45140000000004,-113.8628,128.3356,175,75
2026-05-09 16:04:34.801,1,0.06,-0.07,1.95,423.1714,-120.3228,124.8056,175,75
2026-05-09 16:04:34.815,1,0.16,-0.17,1.96,419.0314,-158.7428,130.8956,175,75
2026-05-09 16:04:34.825,1,0.02,-0.32,1.65,416.5914,-176.6028,131.5656,175,75
2026-05-09 16:04:34.838,1,0.03,-0.53,1.41,419.76140000000004,-178.8628,123.3356,175,75
2026-05-09 16:04:34.849,1,-0.15,-0.74,1.24,428.6014,-161.1828,105.53559999999999,175,75
2026-05-09 16:04:34.849,1,-0.34,-1.04,1.06,442.01140000000004,-130.99280000000002,78.2756,175,75
2026-05-09 16:04:34.860,1,-0.34,-1.25,0.76,446.83140000000003,-89.77279999999999,64.9856,175,75
2026-05-09 16:04:34.870,1,-0.38,-1.44,0.21,431.4714,-61.8528,62.6056,175,75
2026-05-09 16:04:34.894,1,-0.34,-1.72,-1.01,399.94140000000004,-20.0828,49.0056,175,75
2026-05-09 16:04:34.906,1,0.27,-0.89,-1.92,384.58140000000003,77.8472,35.1056,175,75
2026-05-09 16:04:34.925,1,-8.43,-5.96,-14.72,425.4914,174.6772,173.6456,175,75
2026-05-09 16:04:34.946,1,0.84,-2.2,0.62,-277.67859999999996,1112.1172,-243.1244,175,75
2026-05-09 16:04:34.946,1,-1.67,-0.41,7.29,-723.4086,698.2072,-221.6644,175,75
2026-05-09 16:04:34.970,1,4.6,2.26,6.16,-489.80859999999996,10.897200000000002,-58.49439999999999,175,75
2026-05-09 16:04:34.983,1,-1.23,0.02,1.18,-182.3086,-181.2428,-18.434399999999997,175,75
2026-05-09 16:04:34.999,1,-0.73,0.42,-0.02,-135.6686,-157.15279999999998,30.6556,175,75
2026-05-09 16:04:35.012,1,0.44,0.35,-0.8,-113.52860000000001,-67.4628,42.9756,175,75
2026-05-09 16:04:35.021,1,0.88,-0.24,-0.47,-74.99860000000001,76.44720000000001,35.7156,175,75
2026-05-09 16:04:35.034,1,0.43,-0.16,0.43,-36.5786,96.5072,46.9956,175,75
2026-05-09 16:04:35.047,1,-0.73,-0.48,0.82,-21.7086,69.0672,23.455599999999997,175,75
2026-05-09 16:04:35.059,1,-0.5,-0.43,0.75,-22.5586,46.447199999999995,1.8756000000000004,175,75
2026-05-09 16:04:35.069,1,-0.44,-0.44,0.57,-14.628599999999999,32.5372,-18.794400000000003,175,75
2026-05-09 16:04:35.081,1,-0.55,-0.6,0.75,-9.9986,25.6472,-31.4144,175,75
2026-05-09 16:04:35.092,1,-0.74,-0.85,0.82,-5.7286,44.917199999999994,-38.974399999999996,175,75
2026-05-09 16:04:35.116,1,-0.7,-1.28,1.25,-13.468599999999999,78.8172,-32.8244,175,75
2026-05-09 16:04:35.125,1,-0.77,-1.42,1.44,-23.8986,99.30720000000001,-24.894399999999997,175,75
2026-05-09 16:04:35.139,1,-0.78,-1.69,2.54,-29.138599999999997,164.3672,-18.794400000000003,175,75
2026-05-09 16:04:35.163,1,-0.8,-1.13,3.54,-53.4086,117.1772,15.5356,175,75
2026-05-09 16:04:35.189,1,-0.34,-0.88,4.03,-56.8886,106.3172,33.3956,175,75
2026-05-09 16:04:35.189,1,0.45,-0.63,3.33,-68.89859999999999,54.3672,24.925600000000003,175,75
2026-05-09 16:04:35.200,1,0.31,-0.11,1.68,-97.67859999999999,16.0772,21.6956,175,75
2026-05-09 16:04:35.214,1,-1.82,1.22,1.38,-87.8586,107.05720000000001,34.5556,175,75
2026-05-09 16:04:35.225,1,0.32,1.18,4.88,14.8214,167.2372,43.5856,175,75
2026-05-09 16:04:35.237,1,0.86,1.4,4.67,118.1714,-64.1028,63.5856,175,75
2026-05-09 16:04:35.250,1,-0.08,2.05,2.76,189.1514,-46.662800000000004,52.305600000000005,175,75
2026-05-09 16:04:35.250,1,-0.07,1.6,3.17,245.3114,25.097199999999997,75.2256,175,75
2026-05-09 16:04:35.272,1,0.14,0.89,3.3,283.8414,-24.6528,103.76559999999999,175,75
2026-05-09 16:04:35.279,1,0.26,-0.34,2.23,311.3414,-105.3828,96.6956,175,75
2026-05-09 16:04:35.292,1,0.3,-0.59,1.58,315.5514,-124.47279999999999,78.8856,175,75
2026-05-09 16:04:35.299,1,0.24,-0.57,0.71,322.9914,-122.52279999999999,64.4956,175,75
2026-05-09 16:04:35.312,1,-0.61,0.63,-1.91,357.26140000000004,-361.9128,142.60559999999998,175,75
2026-05-09 16:04:35.322,1,-3.87,0.38,-7.38,483.9014,-808.0128,119.1956,175,75
2026-05-09 16:04:35.335,1,-2.89,-4.74,-14.07,232.9314,58.3972,138.4556,175,75
2026-05-09 16:04:35.359,1,4.13,-0.4,2.1,-117.1286,1131.4472,-277.4544,175,75
2026-05-09 16:04:35.371,1,3.12,1.92,4.21,-577.8586,166.0172,-26.4144,175,75
2026-05-09 16:04:35.386,1,2.46,3.22,2.69,-73.2286,60.467200000000005,-65.5044,175,75
2026-05-09 16:04:35.390,1,0.17,1.07,2.61,-64.01859999999999,-29.7728,-37.2744,175,75
2026-05-09 16:04:35.406,1,-1.74,0.87,1.57,-64.5086,-170.5728,-34.044399999999996,175,75
2026-05-09 16:04:35.412,1,-1.6,0.04,1.15,-61.888600000000004,-131.18280000000001,30.775599999999997,175,75
2026-05-09 16:04:35.422,1,-1.46,-2.53,0.28,-58.168600000000005,-137.6428,-18.004399999999997,175,75
2026-05-09 16:04:35.433,1,-0.72,-1.54,-0.02,-23.4086,24.0072,-6.7844,175,75
2026-05-09 16:04:35.442,1,-0.15,-1.09,0.86,30.2514,68.94720000000001,-0.9943999999999997,175,75
2026-05-09 16:04:35.464,1,0.15,-1.07,1.08,45.3114,97.5972,25.6556,175,75
2026-05-09 16:04:35.475,1,0.01,-1.36,1.06,42.3214,136.8072,28.8256,175,75
2026-05-09 16:04:35.485,1,-0.02,-1.16,1.43,39.8814,162.90720000000002,26.025599999999997,175,75
2026-05-09 16:04:35.496,1,-0.01,-0.73,1.77,44.3914,198.5772,5.8956,175,75
2026-05-09 16:04:35.518,1,-0.08,-0.36,2.12,30.0614,212.1772,-23.0644,175,75
2026-05-09 16:04:35.528,1,-0.55,0.04,2.84,-23.4086,248.20720000000003,-58.434400000000004,175,75
2026-05-09 16:04:35.549,1,-0.5,0.26,3.12,-81.70859999999999,210.8972,-58.184400000000004,175,75
2026-05-09 16:04:35.562,1,-0.34,0.01,1.94,-165.11860000000001,76.19720000000001,-23.974400000000003,175,75
2026-05-09 16:04:35.581,1,-0.56,-0.35,0.08,-255.2386,-21.052799999999998,2.0556,175,75
2026-05-09 16:04:35.607,1,-0.96,-1.12,-1.11,-341.1586,58.27720000000001,12.2356,175,75
2026-05-09 16:04:35.607,1,-0.6,-2.0,0.56,-361.5786,192.2972,-36.8444,175,75
2026-05-09 16:04:35.623,1,-0.4,-1.79,0.85,-390.35859999999997,126.62720000000002,-1.4143999999999997,175,75
2026-05-09 16:04:35.633,1,0.14,-1.18,1.36,-360.7886,136.5672,0.6556000000000006,175,75
2026-05-09 16:04:35.633,1,0.13,-0.51,-0.13,-392.30859999999996,50.167199999999994,-8.4344,175,75
2026-05-09 16:04:35.645,1,0.08,-0.29,-0.09,-385.8486,132.59720000000002,-31.964399999999998,175,75
2026-05-09 16:04:35.659,1,0.03,-0.12,0.9,-368.2286,115.7072,-13.734399999999999,175,75
2026-05-09 16:04:35.675,1,-0.15,0.26,0.93,-355.17859999999996,84.8572,2.4856000000000003,175,75
2026-05-09 16:04:35.675,1,-0.09,0.34,0.86,-330.05859999999996,125.6472,2.4256,175,75
2026-05-09 16:04:35.710,1,0.17,0.47,1.47,-259.2686,150.5872,4.3156,175,75
2026-05-09 16:04:35.710,1,0.4,0.63,1.7,-228.7786,147.2372,6.1456,175,75
2026-05-09 16:04:35.721,1,0.59,1.03,1.61,-197.5586,108.7572,28.455599999999997,175,75
2026-05-09 16:04:35.731,1,0.68,1.33,1.54,-162.61860000000001,99.3672,33.885600000000004,175,75
2026-05-09 16:04:35.755,1,0.76,1.89,1.89,-45.3586,59.0672,60.4756,175,75
2026-05-09 16:04:35.778,1,0.57,1.89,2.83,126.8914,-30.6928,91.4456,175,75
2026-05-09 16:04:35.791,1,0.54,1.69,2.89,159.0314,-66.3028,105.7756,175,75
2026-05-09 16:04:35.802,1,0.58,1.59,2.87,194.2114,-115.8128,124.2556,175,75
2026-05-09 16:04:35.823,1,0.46,1.22,2.5,275.25140000000005,-173.4928,157.7856,175,75
2026-05-09 16:04:35.835,1,0.35,0.95,2.25,306.4014,-163.7428,159.6756,175,75
2026-05-09 16:04:35.846,1,0.26,0.64,2.02,343.1714,-122.7028,151.2656,175,75
2026-05-09 16:04:35.863,1,0.23,0.46,2.03,366.6514,-102.0928,146.38559999999998,175,75
2026-05-09 16:04:35.873,1,0.17,0.22,2.06,391.3414,-87.52279999999999,145.5356,175,75
2026-05-09 16:04:35.891,1,0.05,-0.12,1.91,425.5514,-94.47279999999999,137.60559999999998,175,75
2026-05-09 16:04:35.916,1,0.04,-0.37,1.84,440.7314,-90.6328,116.87559999999999,175,75
2026-05-09 16:04:35.916,1,0.09,-0.52,1.85,443.9714,-83.80279999999999,103.8256,175,75
2026-05-09 16:04:35.933,1,0.5,-0.73,2.04,440.00140000000005,-136.5428,95.95559999999999,175,75
2026-05-09 16:04:35.945,1,-0.01,-0.97,1.69,428.7814,-182.7628,89.8056,175,75
2026-05-09 16:04:35.965,1,-0.55,-1.42,1.23,430.6114,-186.6028,52.1156,175,75
2026-05-09 16:04:35.971,1,-0.83,-1.96,0.5,430.25140000000005,-139.4128,17.915599999999998,175,75
2026-05-09 16:04:35.986,1,-0.29,-2.09,0.08,397.75140000000005,-93.3728,2.6056000000000004,175,75
2026-05-09 16:04:35.991,1,-0.38,-1.85,-0.31,357.20140000000004,-80.44279999999999,0.7156000000000002,175,75
2026-05-09 16:04:35.999,1,0.16,-1.0,-0.73,339.33140000000003,-73.9228,-14.524399999999998,175,75
2026-05-09 16:04:36.011,1,0.42,-0.46,-0.98,313.4814,-28.9228,-9.0444,175,75
2026-05-09 16:04:36.022,1,-0.29,0.51,-2.17,264.39140000000003,-91.4228,42.1756,175,75
2026-05-09 16:04:36.034,1,-7.62,-0.15,-11.42,366.83140000000003,-1097.8828,4.3756,175,75
2026-05-09 16:04:36.046,1,0.71,-4.67,-13.69,54.2714,281.37719999999996,335.1656,175,75
2026-05-09 16:04:36.070,1,-0.55,0.83,6.65,-901.3385999999999,429.12719999999996,-164.2244,175,75
2026-05-09 16:04:36.091,1,2.01,1.06,4.22,-253.7186,-18.372799999999998,13.825600000000001,175,75
2026-05-09 16:04:36.112,1,-0.46,-1.52,1.22,-128.4686,-15.8128,-4.5244,175,75
2026-05-09 16:04:36.124,1,1.37,-1.43,0.26,-151.8886,-15.5728,22.1156,175,75
2026-05-09 16:04:36.140,1,1.31,-0.02,0.4,-125.23860000000002,11.987200000000001,49.985600000000005,175,75
2026-05-09 16:04:36.143,1,-0.05,0.37,0.45,-100.6686,-9.5328,62.235600000000005,175,75
2026-05-09 16:04:36.148,1,-0.57,0.81,0.65,-79.3286,9.737200000000001,70.4756,175,75
2026-05-09 16:04:36.164,1,-0.03,0.33,0.45,-70.6086,10.037199999999999,47.4256,175,75
2026-05-09 16:04:36.183,1,-0.35,0.18,0.54,-41.7686,37.1172,16.0856,175,75
2026-05-09 16:04:36.194,1,-0.62,-0.19,0.51,-15.1186,47.2372,-2.394399999999999,175,75
2026-05-09 16:04:36.234,1,-0.67,-0.97,0.93,-3.4686000000000003,63.27720000000001,-21.4144,175,75
2026-05-09 16:04:36.234,1,-0.79,-1.62,1.47,-26.888599999999997,125.16720000000001,-10.684399999999998,175,75
2026-05-09 16:04:36.246,1,-0.73,-1.52,2.14,-40.4186,157.1172,5.0456,175,75
2026-05-09 16:04:36.257,1,-0.39,-1.47,2.67,-50.5486,155.5872,17.915599999999998,175,75
2026-05-09 16:04:36.257,1,-0.3,-1.26,2.91,-55.6686,161.0772,32.4256,175,75
2026-05-09 16:04:36.280,1,-0.12,-1.0,3.0,-52.1886,141.2572,52.9756,175,75
2026-05-09 16:04:36.290,1,0.98,0.03,1.54,-24.0186,28.027199999999997,58.9456,175,75
2026-05-09 16:04:36.302,1,0.25,0.78,0.17,-42.4986,-15.2028,50.4756,175,75
2026-05-09 16:04:36.302,1,-1.86,1.72,0.38,-29.9386,115.4072,30.0456,175,75
2026-05-09 16:04:36.312,1,-0.68,1.62,3.34,16.401400000000002,286.80719999999997,45.8956,175,75
2026-05-09 16:04:36.324,1,0.46,1.6,4.94,67.1414,217.84720000000002,59.805600000000005,175,75
2026-05-09 16:04:36.346,1,0.52,2.16,2.97,200.0014,-22.7628,50.7156,175,75
2026-05-09 16:04:36.357,1,0.36,1.61,2.87,242.1414,67.8472,52.1756,175,75
2026-05-09 16:04:36.364,1,0.34,1.13,3.1,281.7714,25.957199999999997,70.1656,175,75
2026-05-09 16:04:36.386,1,0.55,0.55,3.02,302.56140000000005,-20.1428,86.1456,175,75
2026-05-09 16:04:36.386,1,0.33,0.15,2.44,307.9914,-74.7728,79.98559999999999,175,75
2026-05-09 16:04:36.398,1,0.41,-0.17,1.69,318.9714,-84.83279999999999,62.845600000000005,175,75
2026-05-09 16:04:36.409,1,0.52,-0.09,1.36,332.38140000000004,-85.5728,51.5056,175,75
2026-05-09 16:04:36.420,1,0.66,-0.38,0.81,330.3714,-85.6328,56.385600000000004,175,75
2026-05-09 16:04:36.438,1,-6.12,-1.04,-9.59,483.8414,-764.1628000000001,133.0356,175,75
2026-05-09 16:04:36.452,1,0.22,-7.47,-14.72,-226.70860000000002,-75.2628,52.485600000000005,175,75
2026-05-09 16:04:36.475,1,2.11,-0.16,0.76,-80.7886,1281.9272,-280.7444,175,75
2026-05-09 16:04:36.475,1,0.7,0.33,6.39,-553.0486,528.2072,-105.8044,175,75
2026-05-09 16:04:36.541,1,-0.85,-0.23,1.0,-41.3986,-121.5428,-11.6044,175,75
2026-05-09 16:04:36.551,1,0.2,-1.4,0.32,-30.418599999999998,28.3972,-20.264400000000002,175,75
2026-05-09 16:04:36.563,1,0.36,-0.91,1.15,-15.1786,6.017199999999999,-26.6044,175,75
2026-05-09 16:04:36.572,1,0.05,-0.5,0.52,27.9314,1.8672000000000004,-10.0144,175,75
2026-05-09 16:04:36.594,1,-0.02,-0.5,0.44,60.0014,-9.1628,1.7556000000000003,175,75
2026-05-09 16:04:36.604,1,0.05,-0.74,0.3,90.6714,-16.7228,15.1656,175,75
2026-05-09 16:04:36.636,1,-0.43,-0.82,0.51,159.4514,21.987199999999998,14.3756,175,75
2026-05-09 16:04:36.636,1,-0.49,-0.55,0.83,197.9914,100.0972,11.0856,175,75
2026-05-09 16:04:36.652,1,-0.22,-0.21,0.75,177.9314,205.7772,-14.2844,175,75
2026-05-09 16:04:36.692,1,-0.67,0.56,1.3,84.3314,338.3972,-34.8944,175,75
2026-05-09 16:04:36.708,1,0.37,0.17,0.78,-248.8386,196.7472,-83.6144,175,75
2026-05-09 16:04:36.729,1,0.06,-0.98,-0.3,-436.3986,10.167200000000001,-103.9744,175,75
2026-05-09 16:04:36.763,1,-0.48,-2.61,1.39,-530.7286,70.58720000000001,-102.6944,175,75
2026-05-09 16:04:36.765,1,0.04,-2.35,2.21,-516.9485999999999,17.4772,-98.73440000000001,175,75
2026-05-09 16:04:36.805,1,-0.61,-0.9,2.19,-483.5986,-51.4828,-20.1344,175,75
2026-05-09 16:04:36.847,1,0.13,-0.24,0.76,-401.2786,28.6972,-0.9943999999999997,175,75
2026-05-09 16:04:36.888,1,-0.1,-0.34,0.87,-375.11859999999996,75.52720000000001,-11.3544,175,75
2026-05-09 16:04:36.912,1,-0.17,-0.21,1.3,-321.8886,110.4072,-3.064399999999999,175,75
2026-05-09 16:04:36.933,1,-0.24,-0.13,1.51,-279.68859999999995,116.68719999999999,20.715600000000002,175,75
2026-05-09 16:04:36.944,1,-0.03,0.07,1.66,-227.1886,136.4472,30.775599999999997,175,75
2026-05-09 16:04:36.970,1,0.27,0.53,1.73,-140.9686,132.59720000000002,40.2256,175,75
2026-05-09 16:04:36.984,1,0.28,1.72,2.14,17.9314,65.2872,32.1756,175,75
2026-05-09 16:04:36.995,1,0.36,1.81,2.13,112.75139999999999,-22.0928,54.9256,175,75
2026-05-09 16:04:37.007,1,0.42,1.41,1.92,241.3414,-80.3828,75.8956,175,75
2026-05-09 16:04:37.035,1,0.43,0.99,1.87,350.6714,-49.1028,93.76559999999999,175,75
2026-05-09 16:04:37.044,1,0.39,0.38,1.79,402.56140000000005,-31.7228,102.7256,175,75
2026-05-09 16:04:37.071,1,0.36,0.28,1.71,407.38140000000004,-44.22280000000001,105.28559999999999,175,75
2026-05-09 16:04:37.071,1,0.37,0.09,1.56,410.06140000000005,-56.4828,108.2156,175,75
2026-05-09 16:04:37.082,1,0.38,-0.05,1.49,408.0514,-61.422799999999995,107.48559999999999,175,75
2026-05-09 16:04:37.114,1,0.03,-0.96,1.55,383.6614,-180.5728,68.4556,175,75
2026-05-09 16:04:37.125,1,-0.12,-1.14,1.35,361.5914,-195.3828,59.135600000000004,175,75
2026-05-09 16:04:37.136,1,0.39,-1.27,1.27,330.06140000000005,-217.09279999999998,41.205600000000004,175,75
2026-05-09 16:04:37.136,1,0.2,-1.13,0.83,287.08140000000003,-320.69280000000003,46.9356,175,75
2026-05-09 16:04:37.174,1,0.5,0.5,-1.81,181.8914,-222.9428,35.3456,175,75
2026-05-09 16:04:37.174,1,-2.03,0.03,-8.48,277.32140000000004,-1080.5128,104.1356,175,75
2026-05-09 16:04:37.187,1,-1.35,-5.79,-12.86,-158.8386,41.9872,149.6756,175,75
2026-05-09 16:04:37.208,1,-4.24,-1.03,5.62,-677.9186,481.74719999999996,-229.7144,175,75
2026-05-09 16:04:37.231,1,0.16,-0.81,1.22,-6.708600000000001,49.6772,-44.044399999999996,175,75
2026-05-09 16:04:37.242,1,2.1,-2.83,0.23,-65.23859999999999,34.797200000000004,8.3356,175,75
2026-05-09 16:04:37.252,1,1.42,-1.05,0.93,-67.61859999999999,58.94720000000001,35.8956,175,75
2026-05-09 16:04:37.262,1,0.13,0.09,0.88,-64.6286,4.917200000000001,62.9756,175,75
2026-05-09 16:04:37.274,1,-0.35,0.56,0.61,-61.028600000000004,17.1772,65.8356,175,75
2026-05-09 16:04:37.278,1,-0.51,0.5,0.67,-53.3486,6.377199999999998,29.925600000000003,175,75
2026-05-09 16:04:37.292,1,-0.5,0.14,0.54,-25.7286,-6.5428,6.2656,175,75
2026-05-09 16:04:37.303,1,-0.72,-0.64,0.41,15.9214,46.6272,-5.804399999999999,175,75
2026-05-09 16:04:37.328,1,-0.72,-0.94,0.89,27.9314,99.2472,-5.9344,175,75
2026-05-09 16:04:37.328,1,-0.64,-1.03,1.27,14.5114,111.3172,2.0556,175,75
2026-05-09 16:04:37.355,1,-0.32,-0.7,2.02,-0.4885999999999999,154.7372,6.8156,175,75
2026-05-09 16:04:37.378,1,-0.08,-0.43,2.43,-28.598599999999998,147.3572,25.715600000000002,175,75
2026-05-09 16:04:37.457,1,-0.64,1.21,1.38,-31.1586,169.4272,59.4956,175,75
2026-05-09 16:04:37.469,1,0.4,1.39,3.77,62.0114,126.8072,54.9256,175,75
2026-05-09 16:04:37.488,1,0.83,2.21,3.67,147.6914,22.357200000000002,56.6956,175,75
2026-05-09 16:04:37.488,1,0.71,2.46,3.03,182.26139999999998,-25.8128,52.915600000000005,175,75
2026-05-09 16:04:37.531,1,0.5,1.65,2.83,222.2014,-29.0428,72.1156,175,75
2026-05-09 16:04:37.554,1,0.25,0.49,2.72,260.7314,-67.2728,95.95559999999999,175,75
2026-05-09 16:04:37.575,1,-6.12,-0.32,-9.3,602.4414,-793.4928,147.8456,175,75
2026-05-09 16:04:37.597,1,-0.74,-0.55,-2.28,-109.4486,1299.5572,-277.5144,175,75
2026-05-09 16:04:37.597,1,2.55,-0.49,4.17,-326.2186,760.2872,-181.3544,175,75
2026-05-09 16:04:37.610,1,-0.26,2.63,5.35,-679.5086,20.2272,35.1056,175,75
2026-05-09 16:04:37.622,1,0.77,0.16,1.29,18.901400000000002,58.94720000000001,22.5456,175,75
2026-05-09 16:04:37.666,1,0.51,-1.22,0.91,-39.2686,12.237200000000001,-30.934399999999997,175,75
2026-05-09 16:04:37.691,1,0.53,-0.69,0.99,-30.968600000000002,13.757200000000001,-19.7744,175,75
2026-05-09 16:04:37.701,1,0.17,-0.38,0.55,-17.0086,6.447199999999999,-6.1744,175,75
2026-05-09 16:04:37.701,1,0.02,-0.29,0.48,6.9514000000000005,20.1672,7.9156,175,75
2026-05-09 16:04:37.712,1,0.18,-0.39,0.45,28.6014,21.0172,10.8956,175,75
2026-05-09 16:04:37.722,1,0.17,-0.47,0.42,63.2914,28.027199999999997,18.1556,175,75
2026-05-09 16:04:37.727,1,0.05,-0.67,0.47,97.8714,40.7072,31.205599999999997,175,75
2026-05-09 16:04:37.744,1,-0.16,-0.69,0.56,114.7014,62.9072,31.635600000000004,175,75
2026-05-09 16:04:37.744,1,-0.14,-0.48,0.86,135.3714,72.3572,26.815600000000003,175,75
2026-05-09 16:04:37.754,1,-0.14,-0.28,1.24,156.4014,93.1472,25.0456,175,75
2026-05-09 16:04:37.767,1,0.11,-0.12,1.39,161.5314,114.4872,17.5456,175,75
2026-05-09 16:04:37.773,1,0.09,0.06,0.9,128.3614,151.2572,3.8256,175,75
2026-05-09 16:04:37.830,1,0.37,-0.34,0.2,-289.0786,82.72720000000001,-98.9744,175,75
2026-05-09 16:04:37.855,1,-0.14,-1.13,0.29,-381.6386,101.0172,-91.1144,175,75
2026-05-09 16:04:37.876,1,-0.15,-1.31,1.15,-401.5786,107.3572,-95.5044,175,75
2026-05-09 16:04:37.903,1,0.06,-1.07,1.82,-412.3786,44.557199999999995,-72.8844,175,75
2026-05-09 16:04:37.903,1,-0.0,-0.83,1.59,-405.35859999999997,49.24720000000001,-55.194399999999995,175,75
2026-05-09 16:04:37.943,1,0.09,-0.43,2.29,-342.3786,58.8772,-62.824400000000004,175,75
2026-05-09 16:04:37.943,1,0.73,0.3,0.86,-337.30859999999996,-19.7128,-59.584399999999995,175,75
2026-05-09 16:04:37.965,1,-0.11,0.28,0.16,-349.2086,-24.102800000000002,-42.6344,175,75
2026-05-09 16:04:37.968,1,-0.31,-0.2,0.27,-332.49859999999995,28.277199999999997,-34.044399999999996,175,75
2026-05-09 16:04:37.982,1,-0.38,-0.19,0.67,-311.5186,52.2372,-39.834399999999995,175,75
2026-05-09 16:04:37.982,1,-0.35,-0.09,1.13,-289.74859999999995,40.2872,-18.9144,175,75
2026-05-09 16:04:37.992,1,-0.26,0.19,1.45,-257.98859999999996,26.3772,-9.0444,175,75
2026-05-09 16:04:38.003,1,-0.15,0.53,1.57,-227.1286,24.0072,2.7856,175,75
2026-05-09 16:04:38.003,1,-0.01,0.47,1.53,-189.3286,38.337199999999996,17.3056,175,75
2026-05-09 16:04:38.034,1,0.01,0.47,1.53,-155.17860000000002,62.9072,23.525599999999997,175,75
2026-05-09 16:04:38.059,1,0.1,0.75,1.79,-96.51859999999999,72.5372,17.5456,175,75
2026-05-09 16:04:38.071,1,0.15,1.39,1.93,-3.8986,34.977199999999996,19.3156,175,75
2026-05-09 16:04:38.082,1,0.08,1.62,1.98,63.4214,19.5572,28.275599999999997,175,75
2026-05-09 16:04:38.095,1,0.13,1.5,2.01,106.5914,6.807200000000002,39.0656,175,75
2026-05-09 16:04:38.105,1,0.23,1.29,2.12,185.98139999999998,-25.3228,60.6556,175,75
2026-05-09 16:04:38.105,1,0.29,1.17,1.94,229.3314,-48.0128,73.15559999999999,175,75
2026-05-09 16:04:38.116,1,0.26,1.03,1.75,261.83140000000003,-46.5428,80.4156,175,75
2026-05-09 16:04:38.131,1,0.35,0.61,1.61,316.0414,-23.3128,87.5456,175,75
2026-05-09 16:04:38.153,1,0.4,0.34,1.75,348.0514,-12.2128,90.1656,175,75
2026-05-09 16:04:38.182,1,0.38,-0.27,1.69,386.83140000000003,-44.1028,99.2556,175,75
2026-05-09 16:04:38.193,1,0.33,-0.44,1.67,389.82140000000004,-62.582800000000006,97.6656,175,75
2026-05-09 16:04:38.193,1,0.26,-0.59,1.74,390.19140000000004,-80.7528,96.3856,175,75
2026-05-09 16:04:38.220,1,0.12,-0.9,1.95,365.4314,-187.09279999999998,97.42559999999999,175,75
2026-05-09 16:04:38.220,1,-0.28,-1.05,1.56,340.4914,-246.4828,90.1656,175,75
2026-05-09 16:04:38.232,1,0.27,-1.01,1.48,311.5914,-254.65279999999998,67.3656,175,75
2026-05-09 16:04:38.243,1,0.01,-0.67,1.24,278.0514,-306.9128,58.3356,175,75
2026-05-09 16:04:38.243,1,-0.26,-0.52,0.67,253.3614,-317.5828,37.8456,175,75
2026-05-09 16:04:38.254,1,-0.66,-0.16,-0.33,265.7914,-280.2628,31.7556,175,75
2026-05-09 16:04:38.263,1,-1.15,0.76,-6.26,391.3414,-926.3628,31.995600000000003,175,75
2026-05-09 16:04:38.331,1,-1.43,-0.32,4.49,-540.2386,909.1872,-278.6744,175,75
2026-05-09 16:04:38.371,1,-0.39,-0.38,1.18,-70.5486,-155.8128,-4.0443999999999996,175,75
2026-05-09 16:04:38.381,1,0.3,-1.53,0.54,-57.1886,-20.2628,-25.9944,175,75
2026-05-09 16:04:38.403,1,0.17,-0.67,0.53,-60.2386,-24.0428,4.195600000000001,175,75
2026-05-09 16:04:38.422,1,0.28,-0.13,0.7,-39.4486,5.097200000000001,21.1456,175,75
2026-05-09 16:04:38.443,1,0.04,-0.17,0.73,-27.738599999999998,-1.1128,11.8756,175,75
2026-05-09 16:04:38.465,1,-0.24,-0.32,0.63,-14.0186,4.187200000000001,8.3956,175,75
2026-05-09 16:04:38.465,1,-0.43,-0.58,0.66,1.8914,17.2372,3.2156000000000002,175,75
2026-05-09 16:04:38.476,1,-0.44,-0.73,0.82,10.6714,36.9272,-1.2344,175,75
2026-05-09 16:04:38.501,1,-0.44,-0.74,1.41,5.9814,95.9572,8.9456,175,75
2026-05-09 16:04:38.512,1,-0.29,-0.71,1.67,-2.7986000000000004,92.8472,15.4756,175,75
2026-05-09 16:04:38.512,1,-0.37,-0.61,1.88,-12.188600000000001,121.8672,12.5456,175,75
2026-05-09 16:04:38.522,1,-0.3,-0.51,2.41,-24.6286,124.12720000000002,18.7656,175,75
2026-05-09 16:04:38.533,1,-0.49,-0.62,2.68,-31.458599999999997,108.6372,20.2256,175,75
2026-05-09 16:04:38.544,1,0.03,-0.43,2.83,-39.8786,83.7572,19.8056,175,75
2026-05-09 16:04:38.557,1,0.31,0.13,1.91,-53.6586,23.6972,23.3356,175,75
2026-05-09 16:04:38.582,1,0.25,0.51,0.5,-72.18860000000001,-12.0928,25.4756,175,75
2026-05-09 16:04:38.582,1,-0.39,1.07,-0.17,-59.0786,21.5072,28.7656,175,75
2026-05-09 16:04:38.606,1,-0.53,1.37,0.84,-64.01859999999999,137.84720000000002,45.1056,175,75
2026-05-09 16:04:38.616,1,0.51,1.31,2.93,5.4914000000000005,145.4672,53.705600000000004,175,75
2026-05-09 16:04:38.616,1,0.93,1.77,3.35,72.81139999999999,90.77720000000001,48.1556,175,75
2026-05-09 16:04:38.644,1,1.04,2.57,3.15,132.8714,19.6172,48.275600000000004,175,75
2026-05-09 16:04:38.648,1,0.82,2.77,2.95,177.7514,19.2472,56.8156,175,75
2026-05-09 16:04:38.680,1,0.37,2.34,3.02,206.8314,22.357200000000002,77.9156,175,75
2026-05-09 16:04:38.908,1,-0.46,-1.18,0.58,-37.2486,-22.5828,-26.6044,175,75
2026-05-09 16:04:38.919,1,0.16,-0.67,0.97,-1.3385999999999996,27.1172,-20.7444,175,75
2026-05-09 16:04:38.919,1,0.26,-0.56,0.72,27.3814,28.277199999999997,-4.8344000000000005,175,75
2026-05-09 16:04:38.974,1,0.13,-0.49,1.33,101.7714,20.467200000000002,17.175600000000003,175,75
2026-05-09 16:04:39.046,1,0.18,-0.2,-0.38,-230.6686,-31.7228,-30.6244,175,75
2026-05-09 16:04:39.086,1,-0.01,-0.61,-0.4,-348.4086,-34.9028,-55.264399999999995,175,75
2026-05-09 16:04:39.122,1,0.05,0.36,1.62,-363.8386,-66.7928,0.7755999999999998,175,75
2026-05-09 16:04:39.132,1,-0.21,0.18,0.45,-293.04859999999996,76.6272,29.3756,175,75
2026-05-09 16:04:39.157,1,-0.1,0.24,1.88,-149.8786,204.1872,53.095600000000005,175,75
2026-05-09 16:04:39.169,1,0.05,0.31,1.78,-91.0986,218.2772,55.775600000000004,175,75
2026-05-09 16:04:39.237,1,0.31,1.39,1.93,42.2014,160.8972,35.1656,175,75
2026-05-09 16:04:39.249,1,0.42,1.43,2.04,86.04140000000001,91.5672,46.6956,175,75
2026-05-09 16:04:39.267,1,0.48,1.2,1.9,147.8114,3.3371999999999993,58.3356,175,75
2026-05-09 16:04:39.294,1,0.47,1.09,1.85,177.26139999999998,-24.7728,62.7856,175,75
2026-05-09 16:04:39.294,1,0.4,0.86,1.41,272.8714,-47.702799999999996,69.7356,175,75
2026-05-09 16:04:39.306,1,0.22,0.67,1.4,325.31140000000005,-28.0728,79.2556,175,75
2026-05-09 16:04:39.330,1,0.17,0.34,1.47,357.81140000000005,-24.7728,91.56559999999999,175,75
2026-05-09 16:04:39.341,1,0.21,0.15,1.54,367.01140000000004,-32.5828,92.78559999999999,175,75
2026-05-09 16:04:39.373,1,0.27,-0.02,1.59,374.2114,-44.2928,91.87559999999999,175,75
2026-05-09 16:04:39.415,1,0.1,-0.53,1.4,368.7214,-152.7628,81.20559999999999,175,75
2026-05-09 16:04:39.425,1,0.02,-0.63,1.11,339.2114,-189.4728,67.0556,175,75
2026-05-09 16:04:39.461,1,-5.86,0.05,-10.17,412.08140000000003,-1045.8728,29.2556,175,75
2026-05-09 16:04:39.488,1,-0.66,-1.15,-0.59,-213.1686,779.2472,-165.9944,175,75
2026-05-09 16:04:39.488,1,-1.56,0.1,5.44,-523.7786,790.7072,-145.4444,175,75
2026-05-09 16:04:39.520,1,-0.33,0.22,1.96,-13.288599999999999,-151.6628,22.915599999999998,175,75
2026-05-09 16:04:39.520,1,-0.46,-0.66,0.77,-75.9086,-58.4928,31.8756,175,75
2026-05-09 16:04:39.540,1,-0.6,0.11,0.91,-91.8286,-44.412800000000004,10.4756,175,75
2026-05-09 16:04:39.551,1,0.35,-0.6,0.88,-74.4486,-80.8728,17.3656,175,75
2026-05-09 16:04:39.574,1,0.04,-0.66,0.68,-65.3586,5.287199999999999,9.8656,175,75
2026-05-09 16:04:39.584,1,0.18,-0.16,0.73,-43.5286,0.46720000000000006,14.1956,175,75
2026-05-09 16:04:39.597,1,-0.23,-0.39,0.43,1.4714,24.1272,3.9456,175,75
2026-05-09 16:04:39.626,1,-0.4,-0.58,0.84,23.1114,71.2572,6.3256000000000006,175,75
2026-05-09 16:04:39.626,1,-0.46,-0.62,0.95,23.6014,83.1472,9.5556,175,75
2026-05-09 16:04:39.641,1,-0.44,-0.74,1.38,27.261400000000002,115.77720000000001,5.6556,175,75
2026-05-09 16:04:39.677,1,-0.49,-0.66,1.91,10.0614,96.9872,10.595600000000001,175,75
2026-05-09 16:04:39.702,1,-0.39,-0.32,2.45,-10.238599999999998,102.1772,27.605600000000003,175,75
2026-05-09 16:04:39.702,1,-0.25,-0.09,2.01,-23.5286,120.8972,26.5056,175,75
2026-05-09 16:04:39.712,1,-0.0,0.26,1.2,-51.9486,99.0672,27.5456,175,75
2026-05-09 16:04:39.712,1,-0.42,0.62,0.53,-61.028600000000004,88.7572,37.9756,175,75
2026-05-09 16:04:39.726,1,0.07,0.98,2.95,-10.668600000000001,176.7472,55.345600000000005,175,75
2026-05-09 16:04:39.740,1,0.66,1.33,3.62,61.5914,104.55720000000001,62.1156,175,75
2026-05-09 16:04:39.783,1,0.79,2.07,2.9,149.82139999999998,-8.0128,59.1956,175,75
2026-05-09 16:04:39.783,1,0.63,1.83,3.09,178.7214,-40.7528,68.0356,175,75
2026-05-09 16:04:39.808,1,0.81,1.03,3.42,203.9014,-134.5328,82.1156,175,75
2026-05-09 16:04:39.837,1,0.03,0.17,1.49,219.7014,-225.2028,15.8956,175,75
2026-05-09 16:04:39.874,1,-3.35,1.06,-7.54,433.7214,-789.4728,130.8956,175,75
2026-05-09 16:04:39.885,1,-3.51,-4.67,-14.0,277.50140000000005,-147.8228,147.5456,175,75
2026-05-09 16:04:39.897,1,1.66,0.08,4.36,-367.98859999999996,721.0772,-157.2144,175,75
2026-05-09 16:04:39.908,1,1.66,2.19,4.98,-528.5986,170.2872,18.8256,175,75
2026-05-09 16:04:39.933,1,-0.45,-0.41,0.93,-63.0486,-84.9028,18.0956,175,75
2026-05-09 16:04:39.933,1,-0.27,-0.44,0.54,-37.7986,-71.8528,-4.2844,175,75
2026-05-09 16:04:40.016,1,-0.01,-0.5,0.48,76.28139999999999,25.777199999999997,7.365600000000001,175,75
2026-05-09 16:04:40.016,1,-0.02,-0.52,0.38,112.6214,47.667199999999994,7.9156,175,75
2026-05-09 16:04:40.041,1,-0.14,-0.99,1.16,165.6114,39.557199999999995,22.7256,175,75
2026-05-09 16:04:40.041,1,-0.29,-0.06,0.89,173.0514,128.9472,-42.154399999999995,175,75
2026-05-09 16:04:40.081,1,-0.39,0.55,1.58,124.94139999999999,210.8972,-47.8844,175,75
2026-05-09 16:04:40.109,1,-0.62,0.7,1.56,72.9914,235.8972,-29.3444,175,75
2026-05-09 16:04:40.109,1,-0.76,0.93,0.05,-22.4986,192.7872,-4.5244,175,75
2026-05-09 16:04:40.133,1,-0.16,-1.01,-0.64,-296.0286,263.87719999999996,-52.944399999999995,175,75
2026-05-09 16:04:40.178,1,0.09,-2.02,0.57,-476.9486,28.5172,-60.0144,175,75
2026-05-09 16:04:40.188,1,0.03,-1.94,0.51,-519.3285999999999,-11.5428,-54.404399999999995,175,75
2026-05-09 16:04:40.233,1,0.04,0.27,1.47,-404.3886,-7.5228,-23.4944,175,75
2026-05-09 16:04:40.255,1,0.06,0.56,1.38,-381.8286,52.9072,-17.8844,175,75
2026-05-09 16:04:40.280,1,0.12,0.42,2.01,-250.6686,71.5072,-15.4444,175,75
2026-05-09 16:04:40.291,1,0.12,0.4,1.74,-215.3586,63.8772,11.3856,175,75
2026-05-09 16:04:40.314,1,0.26,1.23,2.51,-32.1286,48.337199999999996,22.175600000000003,175,75
2026-05-09 16:04:40.327,1,0.18,1.29,2.21,64.2714,-81.4828,36.5056,175,75
2026-05-09 16:04:40.338,1,0.12,1.3,1.98,102.9914,-96.5428,43.8256,175,75
2026-05-09 16:04:40.355,1,0.15,1.07,1.81,169.3314,-111.8528,50.8356,175,75
2026-05-09 16:04:40.366,1,0.13,0.91,1.7,221.9514,-100.5128,48.095600000000005,175,75
2026-05-09 16:04:40.377,1,0.18,0.76,1.58,270.4914,-80.3228,47.1756,175,75
2026-05-09 16:04:40.389,1,0.17,0.36,1.46,367.81140000000005,-10.082799999999999,60.1056,175,75
2026-05-09 16:04:40.399,1,0.2,0.2,1.54,388.2314,2.7272,64.0056,175,75
2026-05-09 16:04:40.421,1,0.21,0.07,1.59,404.39140000000003,6.927199999999999,68.0956,175,75
2026-05-09 16:04:40.481,1,0.14,-0.44,1.79,437.50140000000005,3.5771999999999995,80.8356,175,75
2026-05-09 16:04:40.494,1,0.26,-0.88,1.65,440.6714,-29.1628,88.45559999999999,175,75
2026-05-09 16:04:40.500,1,0.19,-1.07,1.73,435.8614,-62.032799999999995,91.6956,175,75
2026-05-09 16:04:40.548,1,0.04,-0.88,0.56,267.56140000000005,-331.18280000000004,72.1156,175,75
2026-05-09 16:04:40.600,1,-1.34,-3.81,-14.41,90.6714,190.2272,275.0456,175,75
2026-05-09 16:04:40.614,1,-0.63,-0.68,4.57,-461.5786,927.4771999999999,-241.6044,175,75
2026-05-09 16:04:40.643,1,-0.26,1.29,6.22,-855.0586,183.5772,8.0356,175,75
2026-05-09 16:04:40.654,1,-0.28,-1.16,1.17,-94.80860000000001,-134.2228,-58.6744,175,75
2026-05-09 16:04:40.664,1,0.3,-1.48,1.06,-103.3486,-7.4628,-23.6744,175,75
2026-05-09 16:04:40.675,1,1.13,-1.27,1.09,-110.5486,-28.9228,-12.1544,175,75
2026-05-09 16:04:40.687,1,0.06,0.33,0.25,-87.3786,-73.3728,27.235599999999998,175,75
2026-05-09 16:04:40.697,1,-0.59,0.66,0.03,-40.3586,-21.3628,41.0856,175,75
2026-05-09 16:04:40.708,1,-0.49,-0.09,0.51,6.8314,49.977199999999996,-0.3843999999999994,175,75
2026-05-09 16:04:40.720,1,-0.84,-0.64,0.64,36.1014,98.94720000000001,-2.9444,175,75
2026-05-09 16:04:40.731,1,-0.57,-1.11,0.98,35.791399999999996,116.1372,-1.2943999999999996,175,75
2026-05-09 16:04:40.744,1,-0.56,-0.76,1.86,12.9914,157.1172,16.7556,175,75
2026-05-09 16:04:40.755,1,-0.27,-0.56,2.13,-3.2286,100.6472,25.4756,175,75
2026-05-09 16:04:40.755,1,-0.32,-0.51,2.18,-16.2186,112.1172,30.415599999999998,175,75
2026-05-09 16:04:40.786,1,-0.49,-0.31,2.24,-33.6586,143.9472,39.0656,175,75
2026-05-09 16:04:40.808,1,-0.48,1.09,0.87,-54.568599999999996,149.6172,66.3256,175,75
2026-05-09 16:04:40.808,1,-0.04,1.31,2.24,-15.1786,175.5272,76.0256,175,75
2026-05-09 16:04:40.868,1,1.01,2.33,2.95,138.9714,83.08720000000001,80.1656,175,75
2026-05-09 16:04:40.868,1,0.98,2.7,2.97,189.4514,91.80720000000001,73.9456,175,75
2026-05-09 16:04:40.884,1,0.55,0.98,3.31,284.70140000000004,-16.7928,107.23559999999999,175,75
2026-05-09 16:04:40.915,1,-0.62,0.74,-1.3,337.9914,-385.99280000000005,164.3756,175,75
2026-05-09 16:04:40.915,1,-3.71,-3.2,-9.76,472.14140000000003,-489.1028,150.8956,175,75
2026-05-09 16:04:40.926,1,-2.85,-0.67,-7.64,-114.3886,914.6172,-177.6344,175,75
2026-05-09 16:04:40.940,1,6.01,-0.29,5.18,-82.0686,765.4072,-86.1744,175,75
2026-05-09 16:04:40.969,1,0.69,0.75,1.9,-26.3386,-16.9128,-15.324399999999999,175,75
2026-05-09 16:04:40.988,1,-1.19,0.54,1.55,-83.71860000000001,-117.1528,6.2656,175,75
2026-05-09 16:04:40.988,1,-2.57,0.3,1.47,-55.6686,-108.2528,-12.024399999999998,175,75
2026-05-09 16:04:41.010,1,-0.15,-1.55,0.18,-13.1086,5.4072,-27.944399999999995,175,75
2026-05-09 16:04:41.020,1,0.82,-0.89,0.63,11.0414,42.667199999999994,-16.964399999999998,175,75
2026-05-09 16:04:41.035,1,0.37,-0.25,0.52,26.4014,24.857200000000002,-0.01440000000000019,175,75
2026-05-09 16:04:41.058,1,0.17,-0.66,0.56,106.7714,24.737199999999998,21.9956,175,75
2026-05-09 16:04:41.086,1,0.21,-0.84,0.98,174.82139999999998,-42.702799999999996,42.665600000000005,175,75
2026-05-09 16:04:41.096,1,-0.01,-0.61,0.43,178.3614,0.8371999999999993,-8.1844,175,75
2026-05-09 16:04:41.109,1,0.15,-0.16,0.87,182.9914,108.1472,-27.514399999999995,175,75
2026-05-09 16:04:41.120,1,0.2,-0.11,1.09,105.00139999999999,136.4472,-42.2144,175,75
2026-05-09 16:04:41.130,1,-0.49,0.42,1.3,3.6014,143.9472,-59.16439999999999,175,75
2026-05-09 16:04:41.142,1,-0.53,0.83,0.29,-113.71860000000001,73.7572,-44.9544,175,75
2026-05-09 16:04:41.169,1,-0.2,-0.38,-0.45,-379.74859999999995,16.5072,-54.7144,175,75
2026-05-09 16:04:41.192,1,-0.43,-1.88,-0.38,-489.4486,58.69720000000001,-42.8244,175,75
2026-05-09 16:04:41.192,1,-0.35,-2.21,0.23,-495.29859999999996,85.8972,-53.4344,175,75
2026-05-09 16:04:41.215,1,-0.03,-2.0,0.65,-485.66859999999997,77.1772,-43.794399999999996,175,75
2026-05-09 16:04:41.223,1,-0.42,-1.81,0.83,-473.3486,108.8772,-38.3044,175,75
2026-05-09 16:04:41.238,1,-0.44,-1.42,1.47,-423.5286,130.8972,-37.8244,175,75
2026-05-09 16:04:41.239,1,-0.13,-0.07,1.59,-382.18859999999995,150.5872,-50.0744,175,75
2026-05-09 16:04:41.252,1,0.13,0.49,1.59,-354.5086,154.0072,-41.9644,175,75
2026-05-09 16:04:41.301,1,-0.14,0.16,1.28,-312.43859999999995,160.4672,-15.384400000000001,175,75
2026-05-09 16:04:41.301,1,-0.31,-0.08,1.65,-285.29859999999996,146.1972,-5.384399999999999,175,75
2026-05-09 16:04:41.315,1,-0.4,-0.13,2.1,-235.2986,138.7572,7.4256,175,75
2026-05-09 16:04:41.376,1,0.13,1.37,2.31,-24.7486,11.1372,54.8656,175,75
2026-05-09 16:04:41.376,1,0.12,1.37,2.28,17.5014,-21.1828,63.885600000000004,175,75
2026-05-09 16:04:41.387,1,0.1,1.32,2.28,52.7514,-47.0928,72.5456,175,75
2026-05-09 16:04:41.401,1,0.1,1.18,2.25,87.38140000000001,-71.8528,80.59559999999999,175,75
2026-05-09 16:04:41.424,1,0.19,0.92,2.01,172.38139999999999,-101.97279999999999,91.87559999999999,175,75
2026-05-09 16:04:41.448,1,0.15,0.75,1.78,244.2714,-87.7028,99.37559999999999,175,75
2026-05-09 16:04:41.458,1,0.15,0.48,1.7,317.50140000000005,-39.2228,106.81559999999999,175,75
2026-05-09 16:04:41.470,1,0.17,0.31,1.71,349.0314,-14.2228,111.1456,175,75
2026-05-09 16:04:41.507,1,0.22,-0.01,1.71,394.88140000000004,-8.8028,130.22560000000001,175,75
2026-05-09 16:04:41.523,1,0.23,-0.12,1.57,396.0414,-30.0828,133.2756,175,75
2026-05-09 16:04:41.555,1,-0.13,-0.5,1.62,375.7314,-118.0128,143.0956,175,75
2026-05-09 16:04:41.571,1,-0.07,-0.87,1.64,345.6714,-162.7028,114.31559999999999,175,75
2026-05-09 16:04:41.582,1,0.28,-0.6,1.83,328.9014,-206.4828,96.26559999999999,175,75
2026-05-09 16:04:41.616,1,-0.39,-0.61,-0.57,316.2214,-224.90279999999998,98.2156,175,75
2026-05-09 16:04:41.626,1,-2.93,0.26,-6.25,417.75140000000005,-601.1128,140.0456,175,75
2026-05-09 16:04:41.637,1,-5.64,-6.11,-14.72,434.88140000000004,-28.0128,94.67559999999999,175,75
2026-05-09 16:04:41.650,1,3.01,-2.18,0.75,-57.068599999999996,1213.1471999999999,-203.4944,175,75
2026-05-09 16:04:41.665,1,1.02,2.76,5.89,-756.8285999999999,201.9872,-16.1744,175,75
2026-05-09 16:04:41.682,1,1.11,-0.87,3.68,-2.6785999999999994,13.6372,20.105600000000003,175,75
2026-05-09 16:04:41.699,1,-2.41,-0.64,2.25,-128.2286,-323.07280000000003,-32.764399999999995,175,75
2026-05-09 16:04:41.699,1,-2.72,-1.07,1.62,-67.98859999999999,-220.5128,-79.5244,175,75
2026-05-09 16:04:41.711,1,0.65,-2.23,0.97,-80.9086,-105.5728,-80.5644,175,75
2026-05-09 16:04:41.742,1,1.0,-0.55,0.16,-94.3886,-14.2928,14.005600000000001,175,75
2026-05-09 16:04:41.761,1,-0.14,0.93,0.22,-7.618600000000001,26.0772,54.8656,175,75
2026-05-09 16:04:41.772,1,-0.63,0.56,0.41,25.2514,37.8472,12.4256,175,75
2026-05-09 16:04:41.794,1,-0.66,0.07,0.4,82.32140000000001,88.2072,-14.044400000000001,175,75
2026-05-09 16:04:41.806,1,-0.44,-0.3,0.78,101.3414,125.7072,-13.5544,175,75
2026-05-09 16:04:41.829,1,-0.28,-0.48,1.33,89.0914,86.7472,-1.3544,175,75
2026-05-09 16:04:41.839,1,-0.2,-0.33,1.46,89.88140000000001,81.44720000000001,5.4756,175,75
2026-05-09 16:04:41.850,1,-0.4,-0.24,1.65,84.94139999999999,60.467200000000005,10.8956,175,75
2026-05-09 16:04:41.860,1,-0.38,-0.21,1.73,87.81139999999999,54.0072,16.3256,175,75
2026-05-09 16:04:41.874,1,-0.48,0.19,1.2,86.9514,84.1272,23.215600000000002,175,75
2026-05-09 16:04:41.884,1,-0.48,0.65,0.88,77.1414,166.3872,36.7556,175,75
2026-05-09 16:04:41.941,1,-0.01,0.82,0.37,-18.1686,234.5572,69.1356,175,75
2026-05-09 16:04:41.963,1,0.62,1.19,2.0,25.8614,227.0572,58.7656,175,75
2026-05-09 16:04:41.975,1,0.77,1.47,2.64,59.4514,188.1472,60.2256,175,75
2026-05-09 16:04:41.975,1,1.09,1.97,2.29,97.6214,114.6172,57.845600000000005,175,75
2026-05-09 16:04:41.996,1,-0.03,1.87,-1.05,114.3314,2.2972,124.6156,175,75
2026-05-09 16:04:42.009,1,1.41,-0.23,-2.75,111.3414,-44.1028,101.3256,175,75
2026-05-09 16:04:42.026,1,1.66,-0.76,1.34,7.7514,425.3472,-88.43440000000001,175,75
2026-05-09 16:04:42.041,1,0.86,-1.26,1.49,16.5914,-78.80279999999999,-12.6944,175,75
2026-05-09 16:04:42.065,1,-0.47,0.05,1.82,-2.6186000000000007,-132.8228,-12.1544,175,75
2026-05-09 16:04:42.075,1,-0.85,0.08,1.13,7.6914,-162.9428,-25.4444,175,75
2026-05-09 16:04:42.093,1,-0.49,-0.62,0.9,23.3614,-99.16279999999999,-34.7144,175,75
2026-05-09 16:04:42.103,1,0.04,-1.05,0.69,42.0114,-45.9928,-42.2144,175,75
2026-05-09 16:04:42.115,1,0.23,-1.24,1.08,60.0614,21.8672,-29.404399999999995,175,75
2026-05-09 16:04:42.136,1,0.43,-0.92,1.35,39.2114,16.6272,-3.9743999999999993,175,75
2026-05-09 16:04:42.154,1,0.37,-0.82,1.49,31.2214,23.457199999999997,7.8456,175,75
2026-05-09 16:04:42.159,1,0.16,-0.8,1.53,28.2314,32.9072,7.5456,175,75
2026-05-09 16:04:42.208,1,0.44,-0.27,1.55,34.8814,86.1372,0.4156000000000004,175,75
2026-05-09 16:04:42.208,1,0.77,-0.15,1.5,40.3714,78.02720000000001,4.1356,175,75
2026-05-09 16:04:42.219,1,1.34,-0.03,1.13,53.8414,75.7072,0.8356000000000003,175,75
2026-05-09 16:04:42.232,1,1.56,0.19,0.45,72.38140000000001,76.44720000000001,-14.4644,175,75
2026-05-09 16:04:42.243,1,1.63,0.4,0.21,85.1214,86.5072,-35.9344,175,75
2026-05-09 16:04:42.255,1,1.38,0.88,0.27,107.56139999999999,109.30720000000001,-64.8344,175,75
2026-05-09 16:04:42.267,1,0.8,1.46,0.23,124.2114,66.8672,-69.71440000000001,175,75
2026-05-09 16:04:42.278,1,-0.17,1.44,-0.02,124.3314,10.467200000000002,-63.434400000000004,175,75
2026-05-09 16:04:42.289,1,-0.32,1.67,1.24,142.6214,90.6472,-63.1244,175,75
2026-05-09 16:04:42.299,1,0.01,1.09,1.06,160.73139999999998,92.72720000000001,-41.904399999999995,175,75
2026-05-09 16:04:42.325,1,-0.05,0.74,0.57,227.5014,321.56719999999996,-89.5244,175,75
2026-05-09 16:04:42.338,1,-0.15,0.76,0.89,269.45140000000004,435.5272,-78.0044,175,75
2026-05-09 16:04:42.350,1,-0.68,0.3,0.7,332.44140000000004,588.3371999999999,-72.9444,175,75
2026-05-09 16:04:42.372,1,0.47,0.14,1.28,302.6214,569.1872,-87.51440000000001,175,75
2026-05-09 16:04:42.392,1,0.2,-0.1,1.1,211.6514,447.5372,-142.4544,175,75
2026-05-09 16:04:42.422,1,-0.56,-1.1,0.27,109.7014,411.19719999999995,-145.1344,175,75
2026-05-09 16:04:42.423,1,-0.58,-0.28,0.49,115.73140000000001,424.55719999999997,-130.3844,175,75
2026-05-09 16:04:42.446,1,-0.42,-0.04,0.67,94.6414,366.9872,-95.1344,175,75
2026-05-09 16:04:42.451,1,-0.33,-0.87,0.72,53.7214,324.18719999999996,-63.974399999999996,175,75
2026-05-09 16:04:42.464,1,-0.22,-1.3,0.81,12.561399999999999,251.56719999999999,-70.5044,175,75
2026-05-09 16:04:42.486,1,-0.23,-0.83,1.44,-63.4086,79.55720000000001,-37.154399999999995,175,75
2026-05-09 16:04:42.493,1,-0.14,-0.78,1.51,-94.8786,-9.1028,-22.154400000000003,175,75
2026-05-09 16:04:42.526,1,-0.1,-0.58,1.45,-143.1686,-171.9728,-8.9744,175,75
2026-05-09 16:04:42.535,1,-0.08,-0.35,1.33,-165.9686,-234.7728,-0.01440000000000019,175,75
2026-05-09 16:04:42.549,1,-0.06,-0.1,1.33,-185.7286,-278.55280000000005,8.7656,175,75
2026-05-09 16:04:42.594,1,-0.02,0.23,1.38,-197.8586,-320.75280000000004,28.9456,175,75
2026-05-09 16:04:42.610,1,0.33,0.59,1.33,-198.3486,-325.32280000000003,45.955600000000004,175,75
2026-05-09 16:04:42.631,1,0.67,0.8,1.18,-184.6286,-229.1028,27.425600000000003,175,75
2026-05-09 16:04:42.631,1,0.59,0.86,1.31,-184.1386,-208.2528,26.3256,175,75
2026-05-09 16:04:42.656,1,0.51,0.95,1.51,-187.0686,-180.0828,18.7656,175,75
2026-05-09 16:04:42.687,1,0.34,1.08,1.78,-159.9386,-153.9828,19.2556,175,75
2026-05-09 16:04:42.698,1,0.41,1.38,1.89,-129.6886,-116.3628,10.2256,175,75
2026-05-09 16:04:42.720,1,0.95,1.68,2.04,-86.9486,-67.3328,8.5256,175,75
2026-05-09 16:04:42.738,1,2.08,1.86,2.0,41.2214,-5.9928,-2.6944,175,75
2026-05-09 16:04:42.764,1,1.27,0.76,-6.43,49.1514,-797.9428,87.9156,175,75
2026-05-09 16:04:42.768,1,-5.43,-2.04,-1.8,-56.0986,682.9072,-27.394399999999997,175,75
2026-05-09 16:04:42.785,1,-0.51,-2.2,6.94,-251.88860000000003,446.50719999999995,-148.4944,175,75
2026-05-09 16:04:42.796,1,2.75,-0.68,6.83,-252.9186,-530.2028,-11.9644,175,75
2026-05-09 16:04:42.808,1,-2.46,-0.96,1.37,-75.7886,-219.1628,-26.6044,175,75
2026-05-09 16:04:42.823,1,0.16,-0.13,1.29,-35.6686,-248.4928,-64.1044,175,75
2026-05-09 16:04:42.823,1,0.27,-0.68,-0.14,-58.5986,-127.27279999999999,-20.264400000000002,175,75
2026-05-09 16:04:42.840,1,0.08,-1.43,-0.07,-8.528599999999999,25.287200000000002,-37.334399999999995,175,75
2026-05-09 16:04:42.853,1,1.06,-1.71,0.36,29.8814,42.5372,-46.1744,175,75
2026-05-09 16:04:42.865,1,0.49,-1.23,0.85,62.2014,101.19720000000001,-42.2744,175,75
2026-05-09 16:04:42.873,1,0.5,-0.85,1.02,44.8214,48.2072,-33.3044,175,75
2026-05-09 16:04:42.886,1,0.29,-0.58,0.43,43.1114,30.467200000000002,-27.764399999999995,175,75
2026-05-09 16:04:42.898,1,-0.04,-0.14,0.13,64.7014,37.057199999999995,-34.5244,175,75
2026-05-09 16:04:42.926,1,-0.55,-0.11,0.6,127.56139999999999,44.797200000000004,-65.7444,175,75
2026-05-09 16:04:42.926,1,-0.62,-0.13,0.67,139.0314,38.697199999999995,-73.6144,175,75
2026-05-09 16:04:42.935,1,-0.61,-0.13,0.84,153.54139999999998,46.5672,-82.0244,175,75
2026-05-09 16:04:42.951,1,-0.83,-0.31,1.05,158.9014,58.8172,-85.32440000000001,175,75
2026-05-09 16:04:42.956,1,-1.28,-0.74,1.17,162.0814,48.63720000000001,-90.07440000000001,175,75
2026-05-09 16:04:42.977,1,-2.24,-0.99,1.73,152.01139999999998,49.24720000000001,-89.04440000000001,175,75
2026-05-09 16:04:42.977,1,-2.55,-0.28,1.75,140.9214,95.0972,-62.944399999999995,175,75
2026-05-09 16:04:43.032,1,-1.76,0.26,-0.92,-97.30860000000001,400.2872,49.1956,175,75
2026-05-09 16:04:43.051,1,-0.76,-0.48,0.9,-137.5586,317.05719999999997,63.3356,175,75
2026-05-09 16:04:43.062,1,-0.69,0.42,2.12,-165.8486,91.0772,158.88559999999998,175,75
2026-05-09 16:04:43.069,1,-0.28,0.69,2.57,-177.1886,-25.2028,186.2056,175,75
2026-05-09 16:04:43.095,1,0.0,1.51,2.73,-169.3286,-196.1128,229.5556,175,75
2026-05-09 16:04:43.095,1,0.43,1.74,2.24,-119.3886,-241.3028,251.2056,175,75
2026-05-09 16:04:43.129,1,0.01,1.89,0.12,61.7714,-87.94279999999999,191.0856,175,75
2026-05-09 16:04:43.137,1,-0.03,1.13,-0.64,64.0914,64.4872,199.9856,175,75
2026-05-09 16:04:43.155,1,1.23,0.26,0.23,80.31139999999999,249.7972,170.5356,175,75
2026-05-09 16:04:43.170,1,1.83,-0.21,-1.07,71.4014,255.77720000000002,136.38559999999998,175,75
2026-05-09 16:04:43.177,1,5.07,-3.47,1.93,223.4214,864.9172,-99.5844,175,75
2026-05-09 16:04:43.207,1,3.68,-1.61,3.23,44.4514,1.4472000000000005,-95.68440000000001,175,75
2026-05-09 16:04:43.223,1,0.64,-0.92,3.42,-34.0786,-178.4928,-73.6144,175,75
2026-05-09 16:04:43.229,1,-1.71,-0.88,1.61,-21.2786,-273.86280000000005,-48.4344,175,75
2026-05-09 16:04:43.245,1,-2.76,-0.64,0.56,15.6714,-205.9328,-58.24439999999999,175,75
2026-05-09 16:04:43.256,1,-0.61,-1.64,-0.03,8.2914,3.8171999999999997,-27.824399999999997,175,75
2026-05-09 16:04:43.280,1,0.34,-0.51,0.69,99.03139999999999,157.4772,-34.3444,175,75
2026-05-09 16:04:43.290,1,0.11,-0.39,0.81,113.66139999999999,149.1872,-37.514399999999995,175,75
2026-05-09 16:04:43.326,1,0.01,-0.21,0.73,175.3114,134.3672,-46.294399999999996,175,75
2026-05-09 16:04:43.390,1,-1.51,1.42,0.27,301.1014,157.3572,-92.6344,175,75
2026-05-09 16:04:43.390,1,-2.0,1.5,-1.53,335.9814,339.12719999999996,-67.57440000000001,175,75
2026-05-09 16:04:43.439,1,2.39,-0.24,1.71,318.2314,696.8072,-101.7244,175,75
2026-05-09 16:04:43.450,1,2.35,0.27,0.72,40.0614,324.9772,-188.30440000000002,175,75
2026-05-09 16:04:43.465,1,0.44,0.09,0.03,-80.05860000000001,145.2272,-153.1844,175,75
2026-05-09 16:04:43.513,1,-0.23,0.43,3.7,172.7514,-318.80280000000005,14.8656,175,75
2026-05-09 16:04:43.535,1,-0.36,-0.49,0.56,90.3714,-216.3028,-0.8043999999999993,175,75
2026-05-09 16:04:43.550,1,-0.09,-1.2,-0.67,-140.3586,-224.2928,-61.66439999999999,175,75
2026-05-09 16:04:43.561,1,-0.31,-1.25,0.08,-206.6386,-158.6828,-56.544399999999996,175,75
2026-05-09 16:04:43.561,1,-0.08,-1.15,1.38,-182.0686,-245.2028,-47.084399999999995,175,75
2026-05-09 16:04:43.574,1,-0.82,-0.93,1.43,-197.4986,-367.1528,-19.7744,175,75
2026-05-09 16:04:43.591,1,-1.29,-0.14,0.76,-210.48860000000002,-401.5428,-6.474399999999999,175,75
2026-05-09 16:04:43.603,1,-1.25,-0.05,0.51,-196.39860000000002,-322.5228,12.0556,175,75
2026-05-09 16:04:43.607,1,-0.99,-0.13,0.64,-182.0086,-272.7628,28.705599999999997,175,75
2026-05-09 16:04:43.624,1,-0.47,-0.19,0.66,-169.20860000000002,-185.6328,34.3156,175,75
2026-05-09 16:04:43.646,1,-0.2,0.3,0.8,-153.0486,-102.2128,43.525600000000004,175,75
2026-05-09 16:04:43.659,1,-0.01,0.43,1.15,-142.98860000000002,-74.2228,47.3656,175,75
2026-05-09 16:04:43.705,1,0.35,0.96,1.57,-174.4486,-139.1628,59.555600000000005,175,75
2026-05-09 16:04:43.738,1,0.39,0.98,1.39,-186.76860000000002,-215.3228,64.4956,175,75
2026-05-09 16:04:43.750,1,0.42,0.91,1.16,-181.8286,-215.6328,69.8656,175,75
2026-05-09 16:04:43.764,1,0.53,1.04,0.92,-165.4186,-185.0228,69.9856,175,75
2026-05-09 16:04:43.777,1,0.54,1.09,0.7,-148.3486,-147.3328,78.09559999999999,175,75
2026-05-09 16:04:43.779,1,1.04,0.6,0.69,-107.9186,51.447199999999995,58.0356,175,75
2026-05-09 16:04:43.794,1,1.57,0.89,1.05,-94.74860000000001,68.1472,37.1156,175,75
2026-05-09 16:04:43.806,1,1.15,1.11,1.61,-67.8586,121.19720000000001,50.775600000000004,175,75
2026-05-09 16:04:43.829,1,1.65,1.39,3.28,-37.5586,44.0672,2.5456000000000003,175,75
2026-05-09 16:04:43.835,1,1.96,1.76,3.67,32.0814,-24.352800000000002,-2.394399999999999,175,75
2026-05-09 16:04:43.876,1,4.68,-1.14,3.43,-40.7886,446.80719999999997,-179.4044,175,75
2026-05-09 16:04:43.887,1,2.87,-2.31,6.89,-76.45859999999999,-178.1328,-88.18440000000001,175,75
2026-05-09 16:04:43.901,1,-2.74,-2.22,2.06,-56.7086,-223.0128,-5.804399999999999,175,75
2026-05-09 16:04:43.918,1,-2.99,-1.98,-0.03,-12.4986,-265.0828,-53.4944,175,75
2026-05-09 16:04:43.932,1,1.79,-5.57,-0.34,25.6114,102.47720000000001,-147.4544,175,75
2026-05-09 16:04:43.954,1,0.37,1.03,-0.63,-16.5786,-41.912800000000004,13.4556,175,75
2026-05-09 16:04:43.967,1,-0.16,1.3,-0.94,51.2814,120.40720000000002,-15.074399999999999,175,75
2026-05-09 16:04:43.980,1,-0.09,1.22,0.31,88.1114,143.2772,-52.334399999999995,175,75
2026-05-09 16:04:44.013,1,-0.54,-0.23,0.65,192.8114,88.02720000000001,-117.51440000000001,175,75
2026-05-09 16:04:44.035,1,-1.17,-0.93,0.97,201.7114,72.8472,-117.9444,175,75
2026-05-09 16:04:44.046,1,-2.15,-1.18,0.91,195.9214,34.6772,-112.6344,175,75
2026-05-09 16:04:44.057,1,-3.25,-0.48,0.78,207.9914,45.587199999999996,-97.0244,175,75
2026-05-09 16:04:44.057,1,-2.64,-0.18,1.28,244.3914,158.2072,-53.7344,175,75
2026-05-09 16:04:44.083,1,-2.46,0.22,-1.02,244.2114,226.62720000000002,20.415599999999998,175,75
2026-05-09 16:04:44.130,1,-1.35,0.26,0.87,-224.26860000000002,84.2472,148.6456,175,75
2026-05-09 16:04:44.140,1,-0.54,-0.27,1.55,-270.8486,-73.2528,162.1156,175,75
2026-05-09 16:04:44.164,1,-0.39,0.38,1.31,-318.4086,-215.2628,183.2756,175,75
2026-05-09 16:04:44.164,1,-0.18,0.47,0.95,-303.6586,-194.4728,193.4556,175,75
2026-05-09 16:04:44.191,1,0.38,0.39,0.65,-228.6586,-31.4228,190.9556,175,75
2026-05-09 16:04:44.191,1,0.73,0.45,0.6,-168.7186,77.1772,176.5056,175,75
2026-05-09 16:04:44.214,1,1.14,1.04,1.91,-73.6586,181.7472,156.44559999999998,175,75
2026-05-09 16:04:44.231,1,1.13,1.06,1.99,-33.9586,168.6372,142.2356,175,75
2026-05-09 16:04:44.247,1,1.18,1.21,2.14,-10.058599999999998,181.62720000000002,125.53559999999999,175,75
2026-05-09 16:04:44.258,1,1.65,1.14,2.28,12.3814,163.6972,124.6156,175,75
2026-05-09 16:04:44.269,1,1.43,1.29,1.5,18.1114,131.4472,120.53559999999999,175,75
2026-05-09 16:04:44.281,1,2.08,0.55,2.55,83.1714,291.92719999999997,100.34559999999999,175,75
2026-05-09 16:04:44.293,1,3.89,-0.32,0.53,72.9314,122.1172,56.8756,175,75
2026-05-09 16:04:44.305,1,1.73,-1.59,6.12,261.89140000000003,796.1372,-65.1344,175,75
2026-05-09 16:04:44.326,1,4.84,-3.86,8.43,129.6414,39.3672,-84.71440000000001,175,75
2026-05-09 16:04:44.330,1,2.44,-4.12,4.86,86.22139999999999,-255.8128,-22.214399999999998,175,75
2026-05-09 16:04:44.345,1,0.31,-1.02,3.09,37.4414,-192.8228,-44.8944,175,75
2026-05-09 16:04:44.352,1,-1.35,-0.23,1.74,51.5914,-313.62280000000004,-44.5244,175,75
2026-05-09 16:04:44.365,1,-2.16,-0.95,0.54,96.5914,-181.2428,-35.7444,175,75
2026-05-09 16:04:44.379,1,-0.66,-2.3,-0.04,71.8314,8.517199999999999,-42.2744,175,75
2026-05-09 16:04:44.390,1,-0.03,-0.63,1.19,106.5914,71.3172,-62.214400000000005,175,75
2026-05-09 16:04:44.401,1,0.08,-0.83,1.21,109.2714,63.8172,-55.1344,175,75
2026-05-09 16:04:44.412,1,-0.07,-1.18,1.14,104.82140000000001,68.7572,-53.0044,175,75
2026-05-09 16:04:44.424,1,-0.06,-1.19,1.3,113.97139999999999,49.7372,-41.7844,175,75
2026-05-09 16:04:44.435,1,0.16,-0.7,0.9,129.7614,51.5672,-62.694399999999995,175,75
2026-05-09 16:04:44.446,1,0.21,0.2,0.36,155.5514,104.4272,-78.5544,175,75
2026-05-09 16:04:44.462,1,-0.15,0.7,0.27,196.5914,116.8672,-76.54440000000001,175,75
2026-05-09 16:04:44.462,1,-0.58,0.98,-0.21,236.8914,128.1472,-76.4144,175,75
2026-05-09 16:04:44.473,1,-0.88,1.26,-0.86,297.6214,212.84720000000002,-67.8844,175,75
2026-05-09 16:04:44.484,1,-1.18,1.64,-0.77,346.5914,312.3572,-81.6044,175,75
2026-05-09 16:04:44.494,1,-1.67,2.34,-0.83,390.7314,468.3372,-65.1944,175,75
2026-05-09 16:04:44.513,1,-1.86,1.38,-1.2,403.7814,605.5871999999999,11.505600000000001,175,75
2026-05-09 16:04:44.548,1,-0.7,-0.23,0.33,417.9314,881.5672,40.345600000000005,175,75
2026-05-09 16:04:44.558,1,0.21,-0.15,1.73,434.2714,895.4671999999999,-32.2144,175,75
2026-05-09 16:04:44.584,1,1.73,0.45,0.79,202.01139999999998,461.68719999999996,-125.3244,175,75
2026-05-09 16:04:44.596,1,-1.58,1.46,4.5,117.6214,617.7872,-53.794399999999996,175,75
2026-05-09 16:04:44.608,1,-0.67,1.63,6.15,183.4214,489.18719999999996,18.7656,175,75
2026-05-09 16:04:44.619,1,-0.06,0.34,2.63,180.3114,103.7572,6.3856,175,75
2026-05-09 16:04:44.619,1,-0.68,-0.34,0.84,147.32139999999998,135.09720000000002,-38.1244,175,75
2026-05-09 16:04:44.633,1,-2.16,0.13,1.86,88.4214,213.9472,-49.1044,175,75
2026-05-09 16:04:44.648,1,-0.75,-0.99,3.15,80.25139999999999,113.27720000000001,56.025600000000004,175,75
2026-05-09 16:04:44.664,1,-0.58,-1.29,2.36,45.4914,-16.3628,-4.3444,175,75
2026-05-09 16:04:44.695,1,0.28,-1.11,1.06,-34.2686,-161.1828,0.34560000000000013,175,75
2026-05-09 16:04:44.706,1,0.24,-1.53,0.19,-84.1386,-227.40279999999998,8.8856,175,75
2026-05-09 16:04:44.716,1,0.1,-1.78,0.07,-127.18860000000001,-247.40279999999998,4.195600000000001,175,75
2026-05-09 16:04:44.727,1,0.07,-1.28,0.61,-155.4186,-290.2028,-0.9943999999999997,175,75
2026-05-09 16:04:44.738,1,-0.48,-0.47,0.41,-178.7786,-328.37280000000004,23.455599999999997,175,75
2026-05-09 16:04:44.738,1,-0.47,-0.31,0.34,-183.89860000000002,-292.88280000000003,37.7856,175,75
2026-05-09 16:04:44.749,1,-0.33,-0.19,0.46,-180.5486,-254.4728,47.6056,175,75
2026-05-09 16:04:44.760,1,-0.16,-0.12,0.48,-190.3586,-243.3128,57.305600000000005,175,75
2026-05-09 16:04:44.783,1,0.23,0.09,0.97,-211.0286,-229.7128,41.0856,175,75
2026-05-09 16:04:44.794,1,0.32,0.28,1.15,-226.5786,-263.6128,42.3656,175,75
2026-05-09 16:04:44.797,1,0.39,0.36,1.22,-237.67860000000002,-283.62280000000004,45.2256,175,75
2026-05-09 16:04:44.812,1,0.41,0.51,1.27,-253.2886,-302.2728,45.2856,175,75
2026-05-09 16:04:44.824,1,0.44,0.65,1.34,-268.4686,-312.3328,45.8356,175,75
2026-05-09 16:04:44.831,1,0.51,0.69,1.44,-282.30859999999996,-322.1528,43.1556,175,75
2026-05-09 16:04:44.855,1,0.66,0.68,1.44,-288.3486,-311.05280000000005,41.2656,175,75
2026-05-09 16:04:44.866,1,0.67,0.67,1.26,-277.1286,-295.99280000000005,38.0356,175,75
2026-05-09 16:04:44.881,1,0.76,0.79,1.18,-261.0986,-265.44280000000003,24.3756,175,75
2026-05-09 16:04:44.895,1,0.86,0.77,1.14,-249.56860000000003,-233.0728,27.7256,175,75
2026-05-09 16:04:44.906,1,0.79,0.83,1.13,-240.5486,-204.65279999999998,30.955599999999997,175,75
2026-05-09 16:04:44.918,1,0.81,0.94,1.25,-226.1586,-169.2928,25.955599999999997,175,75
2026-05-09 16:04:44.949,1,0.91,1.26,1.68,-169.01860000000002,-88.8628,27.175600000000003,175,75
2026-05-09 16:04:44.960,1,1.37,1.66,2.3,-128.4686,-60.812799999999996,28.3356,175,75
2026-05-09 16:04:44.972,1,1.46,2.04,2.72,-89.3286,-65.7528,21.3256,175,75
2026-05-09 16:04:45.001,1,1.16,2.55,2.82,-25.788600000000002,-76.2428,7.3056,175,75
2026-05-09 16:04:45.012,1,0.63,2.22,-0.28,31.7114,-225.4428,79.1956,175,75
2026-05-09 16:04:45.029,1,0.59,2.17,-4.46,202.5614,-570.8728,91.56559999999999,175,75
2026-05-09 16:04:45.029,1,2.95,-6.61,-7.41,102.8714,2.9071999999999996,-30.6244,175,75
2026-05-09 16:04:45.052,1,0.91,-1.91,5.38,23.1714,1286.1972,-135.1344,175,75
2026-05-09 16:04:45.064,1,3.53,-5.46,10.75,-396.0986,-282.0928,-53.9144,175,75
2026-05-09 16:04:45.069,1,-0.15,-1.73,3.27,-28.2286,-209.59279999999998,-30.264399999999995,175,75
2026-05-09 16:04:45.072,1,1.03,-0.23,1.73,-102.0086,-257.82280000000003,-43.8544,175,75
2026-05-09 16:04:45.095,1,-0.9,-0.08,0.05,-88.0486,-324.6528,-87.0244,175,75
2026-05-09 16:04:45.108,1,-0.58,-0.2,-0.6,-27.5586,-91.6028,-55.3244,175,75
2026-05-09 16:04:45.108,1,0.96,-3.21,0.21,34.151399999999995,17.8472,-115.5044,175,75
2026-05-09 16:04:45.142,1,-0.11,0.61,0.07,54.8214,87.3572,-56.724399999999996,175,75
2026-05-09 16:04:45.144,1,-0.21,0.66,0.46,62.3814,61.80720000000001,-70.8644,175,75
2026-05-09 16:04:45.153,1,-0.22,0.45,0.5,91.47139999999999,31.317200000000003,-82.6944,175,75
2026-05-09 16:04:45.165,1,-0.34,0.12,0.36,121.47139999999999,29.427200000000003,-97.4544,175,75
2026-05-09 16:04:45.187,1,-0.53,-0.12,0.45,158.4214,53.94720000000001,-118.73440000000001,175,75
2026-05-09 16:04:45.211,1,-2.4,-1.17,1.0,170.1214,20.467200000000002,-97.15440000000001,175,75
2026-05-09 16:04:45.222,1,-2.95,0.16,1.19,199.9414,140.09720000000002,-47.5744,175,75
2026-05-09 16:04:45.245,1,-2.22,1.32,-1.57,181.1614,226.4472,33.8256,175,75
2026-05-09 16:04:45.260,1,-2.11,0.08,-2.11,55.3114,408.63719999999995,78.15559999999999,175,75
2026-05-09 16:04:45.281,1,-1.16,-0.14,0.0,-52.9886,457.4172,68.76559999999999,175,75
2026-05-09 16:04:45.294,1,-0.97,-0.05,1.1,-207.2486,128.6972,160.5956,175,75
2026-05-09 16:04:45.305,1,-0.69,-0.08,1.51,-255.4886,4.7972,154.13559999999998,175,75
2026-05-09 16:04:45.320,1,-0.34,0.48,1.7,-299.8786,-145.87279999999998,189.9856,175,75
2026-05-09 16:04:45.345,1,0.39,0.46,0.74,-210.7286,-62.0928,206.2056,175,75
2026-05-09 16:04:45.367,1,1.09,0.78,1.5,-148.5986,35.8972,176.5056,175,75
2026-05-09 16:04:45.378,1,1.15,1.63,1.95,-86.27860000000001,57.47720000000001,168.5856,175,75
2026-05-09 16:04:45.386,1,1.88,1.95,2.38,1.7114000000000003,119.4272,172.2356,175,75
2026-05-09 16:04:45.398,1,2.28,2.14,1.62,50.5514,113.8772,151.1456,175,75
2026-05-09 16:04:45.422,1,2.33,1.62,2.8,184.3314,432.11719999999997,108.3356,175,75
2026-05-09 16:04:45.434,1,6.02,-3.59,-2.14,137.4414,75.7072,-14.774399999999998,175,75
2026-05-09 16:04:45.434,1,5.37,-4.59,3.24,319.76140000000004,967.1172,-184.4044,175,75
2026-05-09 16:04:45.457,1,4.04,-3.31,8.9,194.88139999999999,204.4872,-65.8044,175,75
2026-05-09 16:04:45.468,1,2.78,-3.58,4.43,52.7514,-367.82280000000003,-49.404399999999995,175,75
2026-05-09 16:04:45.481,1,-0.82,-0.61,3.03,4.4514,-226.3028,-33.0044,175,75
2026-05-09 16:04:45.491,1,-1.43,-0.75,1.68,37.6214,-311.18280000000004,-38.7344,175,75
2026-05-09 16:04:45.491,1,-2.58,-0.97,0.41,76.7714,-197.4628,-41.114399999999996,175,75
2026-05-09 16:04:45.503,1,-0.75,-2.01,-0.58,64.76140000000001,22.967200000000002,-28.3044,175,75
2026-05-09 16:04:45.516,1,-0.13,-1.02,0.14,114.7014,135.7772,-38.9144,175,75
2026-05-09 16:04:45.528,1,0.17,-0.56,0.97,141.10139999999998,159.6172,-35.864399999999996,175,75
2026-05-09 16:04:45.550,1,0.15,-0.72,1.01,161.5314,166.3872,-48.1244,175,75
2026-05-09 16:04:45.550,1,0.03,-0.88,1.12,167.1414,174.7372,-54.1044,175,75
2026-05-09 16:04:45.560,1,-0.07,-0.5,1.0,192.26139999999998,116.19720000000001,-72.9444,175,75
2026-05-09 16:04:45.588,1,-0.46,0.15,0.45,271.3414,108.94720000000001,-75.68440000000001,175,75
2026-05-09 16:04:45.599,1,-0.98,0.61,0.19,312.38140000000004,119.06720000000001,-74.2844,175,75
2026-05-09 16:04:45.599,1,-1.25,0.9,-0.08,337.38140000000004,165.34720000000002,-90.32440000000001,175,75
2026-05-09 16:04:45.610,1,-1.43,1.4,-0.63,337.32140000000004,192.2972,-104.46440000000001,175,75
2026-05-09 16:04:45.630,1,-2.38,0.74,-3.1,374.1514,662.2972,-13.364399999999998,175,75
2026-05-09 16:04:45.643,1,-1.29,0.6,-0.18,333.1114,973.8172,-52.8844,175,75
2026-05-09 16:04:45.655,1,-0.75,0.84,1.39,321.2814,962.4172,-74.40440000000001,175,75
2026-05-09 16:04:45.665,1,1.19,0.98,2.57,302.14140000000003,799.0072,-4.404399999999999,175,75
2026-05-09 16:04:45.678,1,1.91,0.62,1.73,204.5814,421.80719999999997,-101.96440000000001,175,75
2026-05-09 16:04:45.721,1,1.58,0.41,0.22,83.48140000000001,338.3372,-128.61440000000002,175,75
2026-05-09 16:04:45.732,1,0.97,0.3,0.42,3.2914000000000003,298.69719999999995,-124.77440000000001,175,75
2026-05-09 16:04:45.732,1,0.16,0.22,1.1,-47.3086,196.3172,-91.3544,175,75
2026-05-09 16:04:45.775,1,-2.07,0.41,8.83,-30.488599999999998,689.6172,34.2556,175,75
2026-05-09 16:04:45.789,1,0.38,1.43,7.82,259.2714,125.28720000000001,106.5056,175,75
2026-05-09 16:04:45.800,1,-0.26,-0.66,2.08,193.7814,-269.2928,24.5556,175,75
2026-05-09 16:04:45.800,1,-0.15,-2.14,-0.65,104.3914,-138.6228,-54.7144,175,75
2026-05-09 16:04:45.810,1,-0.12,-1.54,-0.7,-121.6386,-65.9328,-87.15440000000001,175,75
2026-05-09 16:04:45.824,1,-0.07,-1.86,0.56,-154.4486,-63.7428,-48.1244,175,75
2026-05-09 16:04:45.835,1,-0.25,-1.77,1.37,-129.5686,-183.4328,-44.654399999999995,175,75
2026-05-09 16:04:45.845,1,-0.48,-1.2,1.35,-146.39860000000002,-288.68280000000004,-26.3544,175,75
2026-05-09 16:04:45.845,1,-0.69,-0.54,0.68,-162.4386,-335.93280000000004,-15.324399999999999,175,75
2026-05-09 16:04:45.889,1,-0.12,0.37,0.85,-164.26860000000002,-168.1328,2.6656000000000004,175,75
2026-05-09 16:04:45.900,1,-0.11,0.62,0.85,-166.9486,-145.8128,12.7256,175,75
2026-05-09 16:04:45.911,1,0.01,0.8,1.04,-174.6886,-136.5428,22.485599999999998,175,75
2026-05-09 16:04:45.924,1,0.16,0.99,1.21,-191.2186,-150.6928,26.4456,175,75
2026-05-09 16:04:45.936,1,0.22,1.1,1.23,-201.1586,-163.4928,28.1556,175,75
2026-05-09 16:04:45.947,1,0.2,1.11,1.27,-211.51860000000002,-171.0528,33.1556,175,75
2026-05-09 16:04:45.951,1,0.18,1.04,1.33,-223.7786,-185.5728,40.0456,175,75
2026-05-09 16:04:45.965,1,0.11,0.9,1.23,-226.51860000000002,-183.6128,46.205600000000004,175,75
2026-05-09 16:04:46.003,1,0.22,0.94,0.96,-209.9386,-157.40279999999998,56.635600000000004,175,75
2026-05-09 16:04:46.003,1,0.32,1.03,0.75,-192.67860000000002,-112.8828,65.5956,175,75
2026-05-09 16:04:46.016,1,0.36,1.02,0.7,-179.3286,-57.7628,74.06559999999999,175,75
2026-05-09 16:04:46.027,1,0.35,1.06,0.96,-163.0486,6.197199999999999,77.3656,175,75
2026-05-09 16:04:46.028,1,0.45,1.12,1.33,-147.8586,28.207199999999997,83.9456,175,75
2026-05-09 16:04:46.044,1,0.34,1.17,1.62,-128.95860000000002,28.457199999999997,94.92559999999999,175,75
2026-05-09 16:04:46.055,1,0.66,1.25,1.9,-114.5686,33.947199999999995,105.4156,175,75
2026-05-09 16:04:46.065,1,0.92,1.29,2.07,-96.33860000000001,38.947199999999995,89.73559999999999,175,75
2026-05-09 16:04:46.076,1,1.15,1.51,2.45,-49.7486,48.2072,40.595600000000005,175,75
2026-05-09 16:04:46.095,1,1.99,1.88,2.59,-4.5686,73.2072,32.6656,175,75
2026-05-09 16:04:46.106,1,2.63,1.51,2.44,18.4214,15.287199999999999,20.8356,175,75
2026-05-09 16:04:46.118,1,1.5,2.66,-0.81,37.0114,-295.5128,64.0656,175,75
2026-05-09 16:04:46.134,1,-1.2,-1.99,5.19,19.581400000000002,944.3072,-153.7944,175,75
2026-05-09 16:04:46.171,1,-0.44,0.84,-0.16,-29.568599999999996,-461.6028,-180.5044,175,75
2026-05-09 16:04:46.171,1,1.06,-4.07,-1.67,59.9414,-289.4128,-243.0044,175,75
2026-05-09 16:04:46.184,1,1.15,-6.31,1.08,-12.008600000000001,75.4672,-140.4444,175,75
2026-05-09 16:04:46.205,1,1.26,-0.36,-0.42,-64.3886,-92.4028,-39.2844,175,75
2026-05-09 16:04:46.216,1,0.56,1.71,-0.07,15.3714,9.007200000000001,-5.324399999999999,175,75
2026-05-09 16:04:46.228,1,0.8,2.04,-0.13,32.9314,-17.7028,-31.474399999999996,175,75
2026-05-09 16:04:46.238,1,0.08,2.01,-0.27,108.8414,5.7072,-49.654399999999995,175,75
2026-05-09 16:04:46.238,1,-0.49,0.86,-0.1,131.8314,62.297200000000004,-55.194399999999995,175,75
2026-05-09 16:04:46.248,1,-0.4,0.6,0.29,163.7214,75.52720000000001,-98.0044,175,75
2026-05-09 16:04:46.262,1,-0.23,0.76,0.43,173.8414,73.08720000000001,-109.46440000000001,175,75
2026-05-09 16:04:46.275,1,-0.27,-0.04,0.81,196.2814,38.577200000000005,-114.5844,175,75
2026-05-09 16:04:46.286,1,-0.64,-0.67,0.74,211.6514,30.8972,-124.40440000000001,175,75
2026-05-09 16:04:46.299,1,-0.95,-0.91,0.5,204.88139999999999,9.4272,-122.8244,175,75
2026-05-09 16:04:46.315,1,-2.02,-0.83,0.76,212.4414,48.02719999999999,-103.8544,175,75
2026-05-09 16:04:46.328,1,-2.74,-0.75,0.76,222.5614,74.1872,-95.5044,175,75
2026-05-09 16:04:46.341,1,-2.8,-0.17,-0.29,234.5814,218.5772,-30.5644,175,75
2026-05-09 16:04:46.355,1,-2.0,0.33,-2.39,201.8914,234.3672,11.5656,175,75
2026-05-09 16:04:46.360,1,-2.14,-0.22,-3.11,105.8614,396.56719999999996,38.0956,175,75
2026-05-09 16:04:46.372,1,-1.23,-0.46,-0.61,-85.05860000000001,541.4472,9.3156,175,75
2026-05-09 16:04:46.385,1,-1.46,-0.26,0.31,-165.0586,351.44719999999995,30.0456,175,75
2026-05-09 16:04:46.397,1,-1.95,-0.02,0.3,-220.17860000000002,200.8972,105.7756,175,75
2026-05-09 16:04:46.412,1,-1.52,-0.68,0.79,-259.3886,136.5672,105.7756,175,75
2026-05-09 16:04:46.412,1,-1.22,-0.27,1.42,-303.04859999999996,13.947199999999999,114.37559999999999,175,75
2026-05-09 16:04:46.428,1,-0.96,0.23,1.75,-329.5686,-76.3628,149.7356,175,75
2026-05-09 16:04:46.428,1,-0.69,0.6,1.64,-319.68859999999995,-148.8628,182.3056,175,75
2026-05-09 16:04:46.440,1,-0.53,0.83,1.3,-287.0686,-148.1928,210.0456,175,75
2026-05-09 16:04:46.452,1,-0.18,0.93,1.06,-244.6886,-106.3628,225.3456,175,75
2026-05-09 16:04:46.461,1,0.11,1.04,1.06,-209.6286,-44.0428,233.88559999999998,175,75
2026-05-09 16:04:46.461,1,0.53,0.95,1.23,-176.5786,17.3572,229.8056,175,75
2026-05-09 16:04:46.474,1,1.01,0.84,1.34,-140.4186,62.47720000000001,215.16559999999998,175,75
2026-05-09 16:04:46.492,1,0.94,1.02,1.53,-105.3586,62.47720000000001,196.5656,175,75
2026-05-09 16:04:46.516,1,1.26,1.12,2.34,-47.3086,133.0272,151.8156,175,75
2026-05-09 16:04:46.516,1,1.71,1.19,2.96,-7.0686,123.69720000000001,132.7856,175,75
2026-05-09 16:04:46.527,1,2.07,1.05,1.51,14.7614,-13.9228,137.1756,175,75
2026-05-09 16:04:46.538,1,1.13,1.24,1.08,44.7014,129.9172,146.9356,175,75
2026-05-09 16:04:46.590,1,3.91,-0.37,0.01,86.53139999999999,19.7972,75.59559999999999,175,75
2026-05-09 16:04:46.590,1,1.99,-2.32,4.42,316.4714,921.7472,-73.73440000000001,175,75
2026-05-09 16:04:46.601,1,3.21,-2.8,7.24,164.2114,53.27720000000001,-23.1244,175,75
2026-05-09 16:04:46.624,1,2.99,-3.61,3.87,125.1214,-123.8628,-35.1344,175,75
2026-05-09 16:04:46.636,1,1.45,-1.34,3.12,110.4314,-146.7928,-54.7744,175,75
2026-05-09 16:04:46.636,1,-0.46,-0.71,2.16,94.2114,-242.5828,-55.8044,175,75
2026-05-09 16:04:46.659,1,-1.35,-1.98,0.31,96.10140000000001,-109.7128,-19.894399999999997,175,75
2026-05-09 16:04:46.671,1,-0.14,-1.66,0.17,103.54140000000001,31.1972,-25.1944,175,75
2026-05-09 16:04:46.683,1,0.2,-0.75,1.01,131.3414,93.08720000000001,-18.794400000000003,175,75
2026-05-09 16:04:46.692,1,-0.1,-0.62,0.79,139.0314,138.0872,-22.6944,175,75
2026-05-09 16:04:46.692,1,-0.25,-0.45,0.85,151.4714,154.2472,-30.8044,175,75
2026-05-09 16:04:46.705,1,-0.4,-0.19,0.86,172.8714,152.90720000000002,-37.8844,175,75
2026-05-09 16:04:46.705,1,-0.26,0.09,0.92,193.1114,148.0872,-47.4544,175,75
2026-05-09 16:04:46.715,1,-0.23,0.22,0.49,213.0514,176.1972,-60.194399999999995,175,75
2026-05-09 16:04:46.748,1,-0.79,1.37,-0.18,311.95140000000004,327.4772,-48.0644,175,75
2026-05-09 16:04:46.760,1,-1.03,1.58,-0.11,339.45140000000004,381.56719999999996,-49.044399999999996,175,75
2026-05-09 16:04:46.834,1,3.21,-0.19,1.12,259.45140000000004,280.2272,-117.0244,175,75
2026-05-09 16:04:46.834,1,-0.31,1.18,1.22,191.7714,501.44719999999995,-104.46440000000001,175,75
2026-05-09 16:04:46.849,1,-0.86,0.86,4.67,159.2114,321.25719999999995,-6.5443999999999996,175,75
2026-05-09 16:04:46.886,1,-0.17,0.05,2.62,188.48139999999998,125.7072,-9.3444,175,75
2026-05-09 16:04:46.886,1,0.23,-0.94,0.4,119.7014,78.8772,-52.5744,175,75
2026-05-09 16:04:46.896,1,-0.35,-1.21,-0.61,72.01140000000001,162.3572,-101.6044,175,75
2026-05-09 16:04:46.907,1,-0.49,-0.68,1.0,28.1114,239.6772,-69.8944,175,75
2026-05-09 16:04:46.907,1,-0.91,-0.32,2.26,-8.0486,169.0072,-20.864399999999996,175,75
2026-05-09 16:04:46.932,1,0.24,-0.58,2.21,-15.7286,25.527199999999997,6.695600000000001,175,75
2026-05-09 16:04:46.944,1,0.27,-0.9,0.8,-56.6386,-80.8728,-10.134400000000001,175,75
2026-05-09 16:04:46.954,1,0.09,-1.47,0.47,-115.11859999999999,-140.3228,-27.334399999999995,175,75
2026-05-09 16:04:46.965,1,-0.05,-1.11,0.72,-138.89860000000002,-192.2728,-26.114399999999996,175,75
2026-05-09 16:04:46.976,1,-0.31,-0.47,0.62,-163.3486,-238.4328,-10.864399999999998,175,75
2026-05-09 16:04:46.976,1,-0.6,-0.21,0.62,-170.7886,-221.8528,17.915599999999998,175,75
2026-05-09 16:04:46.987,1,-0.55,-0.27,0.98,-169.0786,-205.0828,25.105600000000003,175,75
2026-05-09 16:04:46.997,1,-0.33,-0.18,1.31,-171.51860000000002,-221.3028,28.5856,175,75
2026-05-09 16:04:47.008,1,-0.19,-0.04,1.29,-178.4086,-247.40279999999998,33.5856,175,75
2026-05-09 16:04:47.008,1,-0.2,0.05,0.99,-183.0486,-246.0528,34.4956,175,75
2026-05-09 16:04:47.052,1,0.08,0.61,1.24,-199.3886,-202.2728,57.235600000000005,175,75
2026-05-09 16:04:47.064,1,0.15,0.68,1.35,-206.76860000000002,-206.1828,69.4356,175,75
2026-05-09 16:04:47.075,1,0.23,0.71,1.45,-215.23860000000002,-215.4428,75.2256,175,75
2026-05-09 16:04:47.089,1,0.45,0.69,1.47,-221.0286,-221.5428,76.3256,175,75
2026-05-09 16:04:47.099,1,0.63,0.66,1.49,-222.8586,-236.4228,64.9856,175,75
2026-05-09 16:04:47.119,1,0.61,0.87,1.38,-220.9686,-263.7428,54.6156,175,75
2026-05-09 16:04:47.134,1,0.61,1.02,1.29,-207.8586,-249.5328,55.595600000000005,175,75
2026-05-09 16:04:47.134,1,0.72,1.11,1.15,-195.9686,-233.1928,54.735600000000005,175,75
2026-05-09 16:04:47.158,1,0.84,0.93,1.02,-181.0286,-170.0228,57.6056,175,75
2026-05-09 16:04:47.168,1,0.32,1.07,1.37,-127.43860000000001,-6.8528,67.6656,175,75
2026-05-09 16:04:47.185,1,1.1,1.33,1.94,-89.6286,32.2372,92.6056,175,75
2026-05-09 16:04:47.206,1,1.79,0.8,0.98,-47.9886,4.857199999999999,55.6556,175,75
2026-05-09 16:04:47.232,1,1.39,-0.52,1.43,-51.7086,372.11719999999997,-2.154399999999999,175,75
2026-05-09 16:04:47.245,1,5.51,-3.16,6.18,77.38140000000001,585.5871999999999,-89.5244,175,75
2026-05-09 16:04:47.258,1,2.43,-1.22,3.46,73.1714,-426.9728,10.8956,175,75
2026-05-09 16:04:47.269,1,1.46,-5.35,1.91,27.5014,-61.662800000000004,-71.7244,175,75
2026-05-09 16:04:47.280,1,0.19,-1.13,3.28,-46.2786,-198.5528,-87.76440000000001,175,75
2026-05-09 16:04:47.280,1,-1.94,-0.65,1.92,-20.2986,-278.37280000000004,-98.5544,175,75
2026-05-09 16:04:47.304,1,0.85,-3.79,0.15,-124.5686,-112.52279999999999,-54.1644,175,75
2026-05-09 16:04:47.316,1,1.67,-0.21,0.1,-84.93860000000001,39.7372,33.0356,175,75
2026-05-09 16:04:47.329,1,1.07,0.82,-0.02,-42.8586,-33.0128,28.7656,175,75
2026-05-09 16:04:47.341,1,-0.02,1.18,-0.59,15.3114,24.427200000000003,1.2056000000000004,175,75
2026-05-09 16:04:47.346,1,-0.53,0.88,-0.19,71.04140000000001,64.4872,-43.0044,175,75
2026-05-09 16:04:47.370,1,-0.91,1.09,0.55,150.1914,73.6372,-91.23440000000001,175,75
2026-05-09 16:04:47.382,1,-0.55,0.63,0.59,163.4214,72.72720000000001,-88.9744,175,75
2026-05-09 16:04:47.406,1,-0.53,-0.36,0.86,177.1414,59.857200000000006,-101.0544,175,75
2026-05-09 16:04:47.427,1,-1.84,-0.3,0.73,177.5014,86.6872,-73.79440000000001,175,75
2026-05-09 16:04:47.453,1,-2.37,-0.29,0.93,194.88139999999999,159.1872,-44.2844,175,75
2026-05-09 16:04:47.463,1,-1.86,0.02,1.1,199.9414,218.8172,-0.9344000000000001,175,75
2026-05-09 16:04:47.476,1,-1.56,0.41,0.15,184.51139999999998,265.2872,19.1356,175,75
2026-05-09 16:04:47.476,1,-1.12,0.54,-1.27,159.0914,348.69719999999995,34.0656,175,75
2026-05-09 16:04:47.489,1,-1.23,-0.04,-1.81,89.3914,409.7372,44.2556,175,75
2026-05-09 16:04:47.513,1,-0.45,-0.32,0.5,-123.77860000000001,198.5772,49.4956,175,75
2026-05-09 16:04:47.592,1,-0.31,0.02,2.02,-250.8486,-153.7428,98.6456,175,75
2026-05-09 16:04:47.592,1,-0.19,0.92,1.61,-278.04859999999996,-425.63280000000003,168.3956,175,75
2026-05-09 16:04:47.615,1,0.56,1.06,1.21,-152.4986,-259.6528,129.4956,175,75
2026-05-09 16:04:47.615,1,0.53,1.51,0.74,-99.0786,-167.5228,144.9256,175,75
2026-05-09 16:04:47.625,1,-0.01,1.66,-0.02,-40.7886,-77.6428,146.2656,175,75
2026-05-09 16:04:47.633,1,0.47,1.45,0.3,16.101399999999998,87.72720000000001,164.8656,175,75
2026-05-09 16:04:47.645,1,1.09,0.94,0.22,29.0314,199.9172,163.2756,175,75
2026-05-09 16:04:47.666,1,1.36,0.84,0.22,68.3614,355.7072,133.5256,175,75
2026-05-09 16:04:47.679,1,1.32,0.1,0.34,104.2114,506.44719999999995,82.5456,175,75
2026-05-09 16:04:47.731,1,3.58,-2.52,4.96,109.76140000000001,8.697199999999999,-37.8244,175,75
2026-05-09 16:04:47.741,1,0.9,-1.16,3.33,37.3814,-218.8628,-20.864399999999996,175,75
2026-05-09 16:04:47.741,1,-1.08,-0.66,1.64,12.0814,-235.4428,-29.464399999999998,175,75
2026-05-09 16:04:47.753,1,-1.95,-0.71,1.03,45.9214,-170.4428,-25.684399999999997,175,75
2026-05-09 16:04:47.764,1,-1.38,-1.48,0.31,29.4514,-99.5928,-7.2143999999999995,175,75
2026-05-09 16:04:47.777,1,-0.14,-1.11,0.58,66.7114,46.74720000000001,-25.1944,175,75
