Time,ID,Ax,Ay,Az,Gx,Gy,Gz,Height,Weight
2026-05-11 18:06:05.449,1,0.82,0.01,2.46,54.7402,222.262,15.886999999999999,175,75
2026-05-11 18:06:05.449,1,0.85,0.15,2.86,121.87020000000001,204.15200000000002,14.116999999999999,175,75
2026-05-11 18:06:05.503,1,0.71,0.7,2.0,218.2702,29.332,-54.303000000000004,175,75
2026-05-11 18:06:05.503,1,0.38,0.49,1.72,262.1802,28.052000000000003,-87.10300000000001,175,75
2026-05-11 18:06:05.503,1,0.27,0.44,1.62,305.04019999999997,11.042,-97.533,175,75
2026-05-11 18:06:05.558,1,-0.41,-0.4,1.14,345.29019999999997,-292.06800000000004,-171.613,175,75
2026-05-11 18:06:05.568,1,-0.91,-0.46,0.48,342.36019999999996,-318.288,-196.673,175,75
2026-05-11 18:06:05.568,1,-1.37,-0.87,-0.24,315.6502,-290.11800000000005,-218.323,175,75
2026-05-11 18:06:05.581,1,-1.66,-0.75,-0.88,279.1902,-282.918,-198.693,175,75
2026-05-11 18:06:05.594,1,-2.13,-0.1,-1.78,258.2102,-229.448,-168.633,175,75
2026-05-11 18:06:05.623,1,-2.55,-0.02,-2.45,219.7402,-106.088,-90.46300000000001,175,75
2026-05-11 18:06:05.623,1,-2.27,0.75,-2.54,137.9102,-55.478,-23.872999999999998,175,75
2026-05-11 18:06:05.662,1,-2.57,1.27,-2.24,-195.74980000000002,-250.358,161.857,175,75
2026-05-11 18:06:05.674,1,-0.83,-1.06,0.29,-111.9698,307.44199999999995,167.46699999999998,175,75
2026-05-11 18:06:05.684,1,-0.93,-8.53,2.76,-374.1698,-107.30799999999999,321.617,175,75
2026-05-11 18:06:05.710,1,1.45,-3.07,-1.05,-627.5198,-241.578,147.227,175,75
2026-05-11 18:06:05.722,1,-0.19,3.17,-0.3,-365.1998,-23.898,295.027,175,75
2026-05-11 18:06:05.733,1,0.34,3.09,1.35,-250.13980000000004,-20.357999999999997,178.687,175,75
2026-05-11 18:06:05.742,1,-0.45,-0.32,-0.0,-201.59980000000002,12.632,172.347,175,75
2026-05-11 18:06:05.742,1,-0.5,0.23,-0.22,-161.5398,49.762,164.727,175,75
2026-05-11 18:06:05.779,1,-0.4,0.09,0.66,-94.0998,75.19200000000001,115.887,175,75
2026-05-11 18:06:05.799,1,-0.87,0.32,0.57,-63.9798,72.502,40.827,175,75
2026-05-11 18:06:05.848,1,-0.0,-1.0,0.68,66.5002,100.862,-73.263,175,75
2026-05-11 18:06:05.848,1,0.34,-1.94,1.12,38.940200000000004,80.432,-72.223,175,75
2026-05-11 18:06:05.860,1,0.8,-2.08,1.13,26.4402,2.202,-69.363,175,75
2026-05-11 18:06:05.873,1,0.82,-1.4,1.78,60.2902,80.552,-91.003,175,75
2026-05-11 18:06:05.884,1,0.85,-0.97,2.8,102.3602,154.522,-102.833,175,75
2026-05-11 18:06:05.952,1,0.37,0.32,2.82,91.5002,98.602,-97.893,175,75
2026-05-11 18:06:05.952,1,-0.58,0.89,1.79,7.180200000000001,95.312,-63.023,175,75
2026-05-11 18:06:05.963,1,-0.88,0.73,1.59,-117.02980000000001,80.062,42.647,175,75
2026-05-11 18:06:05.963,1,-0.6,0.72,0.9,-234.0398,2.082,114.607,175,75
2026-05-11 18:06:05.974,1,-0.17,0.93,0.73,-284.8998,24.762,143.137,175,75
2026-05-11 18:06:05.986,1,-1.35,0.21,0.01,-327.20980000000003,-16.458,201.367,175,75
2026-05-11 18:06:05.986,1,-0.44,-0.54,0.09,-301.4198,139.822,203.567,175,75
2026-05-11 18:06:05.996,1,0.09,-0.78,0.94,-262.3398,210.742,190.277,175,75
2026-05-11 18:06:06.007,1,0.1,-0.89,1.32,-251.4798,226.472,163.137,175,75
2026-05-11 18:06:06.007,1,0.32,-0.59,1.74,-257.2798,237.562,153.257,175,75
2026-05-11 18:06:06.020,1,0.41,-0.2,1.83,-266.7898,224.762,150.21699999999998,175,75
2026-05-11 18:06:06.031,1,0.53,0.13,1.94,-262.3398,211.832,150.637,175,75
2026-05-11 18:06:06.047,1,0.71,0.44,2.45,-233.3098,153.112,152.957,175,75
2026-05-11 18:06:06.129,1,0.7,0.56,2.6,-180.8698,102.562,119.787,175,75
2026-05-11 18:06:06.139,1,1.24,0.87,3.57,-122.9498,14.642,85.827,175,75
2026-05-11 18:06:06.139,1,1.26,0.74,3.63,-88.85979999999999,-52.978,46.556999999999995,175,75
2026-05-11 18:06:06.139,1,1.31,0.45,3.52,-45.3198,-84.328,10.757,175,75
2026-05-11 18:06:06.151,1,1.26,0.04,3.31,56.6302,-128.468,-52.713,175,75
2026-05-11 18:06:06.165,1,0.97,-0.33,3.37,122.1102,-169.018,-105.21300000000001,175,75
2026-05-11 18:06:06.176,1,1.29,-0.28,3.18,192.97019999999998,-198.288,-153.873,175,75
2026-05-11 18:06:06.186,1,0.28,-1.13,2.88,394.4302,-256.82800000000003,-309.113,175,75
2026-05-11 18:06:06.198,1,-0.73,-3.55,1.72,602.4202,-263.108,-436.553,175,75
2026-05-11 18:06:06.207,1,-0.87,-3.91,1.55,692.2402,-226.028,-461.003,175,75
2026-05-11 18:06:06.253,1,-1.11,-4.68,1.48,746.6302,-167.248,-482.773,175,75
2026-05-11 18:06:06.278,1,-1.67,-6.2,1.94,899.1302,-147.558,-431.253,175,75
2026-05-11 18:06:06.288,1,-1.65,-7.96,-0.69,670.2202,-123.408,-530.763,175,75
2026-05-11 18:06:06.288,1,-2.16,-8.15,-2.43,486.0202,19.032,-432.773,175,75
2026-05-11 18:06:06.343,1,-0.84,-1.06,-0.21,202.3602,-134.568,-115.763,175,75
2026-05-11 18:06:06.364,1,-0.67,0.1,-0.31,21.5002,-156.338,-22.163,175,75
2026-05-11 18:06:06.377,1,-0.92,0.52,-0.6,-20.8698,-161.888,5.827,175,75
2026-05-11 18:06:06.407,1,-1.15,1.28,-0.53,-99.8398,-68.718,71.067,175,75
2026-05-11 18:06:06.418,1,-0.86,1.94,-0.68,-96.1198,-103.048,62.28699999999999,175,75
2026-05-11 18:06:06.430,1,-0.88,2.46,-0.81,-68.73979999999999,-88.048,49.727,175,75
2026-05-11 18:06:06.521,1,-0.84,3.07,-0.77,-41.669799999999995,-29.747999999999998,29.236999999999995,175,75
2026-05-11 18:06:06.533,1,-0.66,1.98,-0.52,-72.6398,21.652,28.927,175,75
2026-05-11 18:06:06.533,1,-0.5,1.99,-0.05,-77.8898,-9.568,28.806999999999995,175,75
2026-05-11 18:06:06.533,1,-0.39,1.9,0.16,-87.0898,-42.858,30.826999999999998,175,75
2026-05-11 18:06:06.544,1,-0.44,1.72,0.23,-102.9498,-79.628,37.407,175,75
2026-05-11 18:06:06.544,1,-0.46,1.55,0.31,-113.30979999999998,-96.27799999999999,45.086999999999996,175,75
2026-05-11 18:06:06.545,1,-0.42,1.34,0.4,-115.86979999999998,-93.108,55.456999999999994,175,75
2026-05-11 18:06:06.567,1,-0.36,1.06,0.62,-117.8898,-82.248,62.527,175,75
2026-05-11 18:06:06.577,1,-0.0,0.79,1.06,-118.79979999999999,-48.897999999999996,93.257,175,75
2026-05-11 18:06:06.596,1,0.71,0.72,1.53,-88.5598,26.222,100.697,175,75
2026-05-11 18:06:06.620,1,1.29,0.76,2.12,-60.3198,29.332,86.007,175,75
2026-05-11 18:06:06.630,1,1.55,0.91,2.53,-52.2098,-8.958,81.797,175,75
2026-05-11 18:06:06.641,1,1.7,0.82,2.56,-56.059799999999996,-58.717999999999996,66.437,175,75
2026-05-11 18:06:06.661,1,1.82,0.9,2.61,-45.5098,-106.27799999999999,41.306999999999995,175,75
2026-05-11 18:06:06.685,1,1.68,0.26,2.31,34.550200000000004,-133.958,-25.762999999999998,175,75
2026-05-11 18:06:06.698,1,1.21,-0.27,1.93,48.2102,-126.698,-49.783,175,75
2026-05-11 18:06:06.735,1,1.18,-0.33,2.08,50.1002,-99.328,-38.443,175,75
2026-05-11 18:06:06.751,1,0.99,-0.16,1.8,44.1302,-128.468,-34.423,175,75
2026-05-11 18:06:06.791,1,0.24,-0.6,0.87,15.9602,-45.358,-29.783,175,75
2026-05-11 18:06:06.814,1,0.19,0.0,0.99,-89.0398,-62.367999999999995,71.557,175,75
2026-05-11 18:06:06.825,1,0.1,0.21,0.79,-138.9798,-102.618,91.247,175,75
2026-05-11 18:06:06.866,1,0.2,0.36,0.42,-233.7398,-47.738,103.627,175,75
2026-05-11 18:06:06.866,1,0.79,0.37,1.98,-268.9798,125.432,109.477,175,75
2026-05-11 18:06:06.892,1,0.49,0.18,1.25,-95.5698,84.092,58.56699999999999,175,75
2026-05-11 18:06:06.905,1,-0.22,-0.54,0.94,-60.07979999999999,149.522,98.627,175,75
2026-05-11 18:06:06.918,1,0.62,-1.81,1.76,-80.07979999999999,122.752,133.327,175,75
2026-05-11 18:06:06.930,1,-1.78,-1.35,0.55,-175.74980000000002,-44.998,162.107,175,75
2026-05-11 18:06:06.940,1,-2.91,-0.64,-1.91,-305.1998,15.002,218.017,175,75
2026-05-11 18:06:06.958,1,1.39,1.47,0.68,-260.6898,-89.688,196.677,175,75
2026-05-11 18:06:06.973,1,-0.78,1.6,0.25,-177.4598,20.372,170.027,175,75
2026-05-11 18:06:06.973,1,0.3,0.12,0.59,-147.7598,-4.998,190.397,175,75
2026-05-11 18:06:07.016,1,-0.22,0.4,0.95,-182.6998,-23.657999999999998,145.087,175,75
2026-05-11 18:06:07.016,1,-0.11,0.68,0.67,-177.5198,-51.158,133.387,175,75
2026-05-11 18:06:07.029,1,-0.26,0.45,0.44,-150.0198,10.252,95.337,175,75
2026-05-11 18:06:07.051,1,-0.36,0.15,0.33,-103.9198,39.762,35.336999999999996,175,75
2026-05-11 18:06:07.062,1,-0.19,0.11,0.61,-84.3498,58.112,4.417,175,75
2026-05-11 18:06:07.062,1,-0.23,0.01,0.61,-70.8698,44.272,-23.323,175,75
2026-05-11 18:06:07.126,1,-0.1,-0.15,0.58,-60.8698,49.582,-60.273,175,75
2026-05-11 18:06:07.126,1,0.26,-0.62,0.16,-72.3398,52.692,-89.173,175,75
2026-05-11 18:06:07.154,1,1.32,-1.41,1.34,-68.3098,-38.588,-128.143,175,75
2026-05-11 18:06:07.165,1,1.43,-1.17,2.29,-52.51979999999999,-61.088,-145.583,175,75
2026-05-11 18:06:07.182,1,1.27,-0.38,2.15,1.8102000000000018,-180.84799999999998,-136.803,175,75
2026-05-11 18:06:07.182,1,1.19,0.33,1.98,-39.5898,-207.978,-120.033,175,75
2026-05-11 18:06:07.253,1,0.46,1.07,1.88,-236.4198,-358.408,7.4670000000000005,175,75
2026-05-11 18:06:07.263,1,-0.05,0.28,0.46,-296.2398,-384.50800000000004,62.587,175,75
2026-05-11 18:06:07.263,1,-0.1,-0.23,-0.22,-311.0598,-201.518,59.607,175,75
2026-05-11 18:06:07.272,1,0.42,0.07,-0.23,-282.51980000000003,44.212,54.907,175,75
2026-05-11 18:06:07.300,1,-0.03,0.13,2.21,-95.3898,399.762,-12.473,175,75
2026-05-11 18:06:07.311,1,-0.09,0.06,2.83,-37.029799999999994,353.662,-33.503,175,75
2026-05-11 18:06:07.337,1,0.04,-0.66,3.81,-25.319799999999997,145.192,-65.523,175,75
2026-05-11 18:06:07.374,1,-0.55,-0.4,2.71,-1.4797999999999973,-175.358,-132.353,175,75
2026-05-11 18:06:07.396,1,-1.0,0.33,1.74,76.14020000000001,-146.948,-185.213,175,75
2026-05-11 18:06:07.412,1,-1.12,0.25,1.75,116.4402,-149.808,-210.03300000000002,175,75
2026-05-11 18:06:07.412,1,-1.18,0.08,1.68,164.9802,-159.508,-244.053,175,75
2026-05-11 18:06:07.437,1,-1.23,0.05,1.46,213.09019999999998,-173.468,-251.193,175,75
2026-05-11 18:06:07.437,1,-1.26,0.06,1.52,252.97019999999998,-194.868,-243.143,175,75
2026-05-11 18:06:07.463,1,-1.27,-0.03,1.51,328.1502,-216.278,-257.533,175,75
2026-05-11 18:06:07.469,1,-1.29,-0.05,1.42,409.98019999999997,-249.448,-248.873,175,75
2026-05-11 18:06:07.480,1,-1.38,-0.23,1.39,441.8102,-264.62800000000004,-250.943,175,75
2026-05-11 18:06:07.716,1,-1.59,-0.63,1.01,475.2202,-256.57800000000003,-256.193,175,75
2026-05-11 18:06:07.716,1,-2.1,-1.16,0.29,473.4002,-235.968,-177.043,175,75
2026-05-11 18:06:07.716,1,-1.58,-0.48,-1.64,306.5002,-106.02799999999999,-71.493,175,75
2026-05-11 18:06:07.716,1,-0.45,0.33,-3.15,-270.5098,-369.38800000000003,201.067,175,75
2026-05-11 18:06:07.716,1,2.38,-1.4,0.5,-134.46980000000002,-40.668,96.437,175,75
2026-05-11 18:06:07.916,1,0.15,0.36,1.11,-28.069799999999997,86.47200000000001,104.607,175,75
2026-05-11 18:06:07.916,1,0.47,-0.46,0.95,-54.9598,27.632,56.497,175,75
2026-05-11 18:06:07.917,1,0.09,-1.16,0.54,-114.4098,-19.508,-13.443,175,75
2026-05-11 18:06:07.931,1,0.58,-0.28,2.85,-32.7598,162.082,-8.873000000000001,175,75
2026-05-11 18:06:08.040,1,-1.19,-0.03,1.58,311.0802,-60.358,-198.383,175,75
2026-05-11 18:06:08.055,1,-1.1,-0.07,1.89,340.9602,-85.788,-190.153,175,75
2026-05-11 18:06:08.131,1,-1.15,-0.19,2.04,366.5002,-163.658,-171.373,175,75
2026-05-11 18:06:08.131,1,-1.15,-0.26,1.97,376.9302,-234.748,-163.323,175,75
2026-05-11 18:06:08.164,1,-1.3,1.47,-2.19,96.0802,59.272,104.477,175,75
2026-05-11 18:06:08.180,1,0.14,0.67,-2.06,60.9602,-93.658,128.99699999999999,175,75
2026-05-11 18:06:08.241,1,0.7,0.5,-3.03,-149.7098,-185.298,157.837,175,75
2026-05-11 18:06:08.241,1,-0.04,-0.09,-2.37,-245.9298,-253.528,169.237,175,75
2026-05-11 18:06:08.241,1,1.28,-1.4,2.36,-153.24980000000002,87.022,123.257,175,75
2026-05-11 18:06:08.269,1,-0.74,-0.75,2.06,-291.4198,-109.078,437.037,175,75
2026-05-11 18:06:08.515,1,1.02,0.97,1.57,-440.01980000000003,-166.458,253.257,175,75
2026-05-11 18:06:08.515,1,-1.67,4.48,-1.43,-368.0698,-269.32800000000003,148.927,175,75
2026-05-11 18:06:08.515,1,-0.14,0.71,1.03,-66.0598,103.362,162.527,175,75
2026-05-11 18:06:08.515,1,0.45,-0.05,1.19,-105.4498,56.412,144.237,175,75
2026-05-11 18:06:08.515,1,-0.77,0.5,0.57,-88.12979999999999,38.722,97.527,175,75
2026-05-11 18:06:08.518,1,-0.19,-1.19,0.18,18.4602,46.712,-87.773,175,75
2026-05-11 18:06:08.587,1,0.68,-2.84,0.86,60.4102,72.932,-61.373000000000005,175,75
2026-05-11 18:06:08.753,1,0.78,0.75,1.96,-98.5598,190.492,74.297,175,75
2026-05-11 18:06:08.753,1,-0.19,-1.34,2.83,255.4102,-219.078,-180.393,175,75
2026-05-11 18:06:08.754,1,-0.29,-1.39,2.48,312.0502,-319.62800000000004,-239.423,175,75
2026-05-11 18:06:08.866,1,-0.98,-1.94,0.71,330.7102,-317.918,-290.583,175,75
2026-05-11 18:06:08.866,1,-3.7,-4.14,-2.59,176.2602,-496.51800000000003,-307.413,175,75
2026-05-11 18:06:08.866,1,-6.76,-1.26,-4.27,182.97019999999998,-38.717999999999996,-285.273,175,75
2026-05-11 18:06:08.866,1,1.13,-0.22,-2.93,327.7202,95.552,-186.553,175,75
2026-05-11 18:06:09.322,1,-0.48,0.54,0.03,63.2102,-81.02799999999999,-20.523,175,75
2026-05-11 18:06:09.322,1,-0.6,1.03,-0.0,-25.389799999999997,-129.998,13.687,175,75
2026-05-11 18:06:09.322,1,-0.75,1.29,-0.03,-49.8398,-145.728,21.186999999999998,175,75
2026-05-11 18:06:09.322,1,-0.77,1.58,-0.09,-53.6798,-143.958,28.506999999999998,175,75
2026-05-11 18:06:09.322,1,-0.68,1.97,-0.4,-46.059799999999996,-133.588,36.306999999999995,175,75
2026-05-11 18:06:09.322,1,-0.75,2.2,-0.79,-14.349799999999998,-69.80799999999999,38.997,175,75
2026-05-11 18:06:09.323,1,-0.27,1.8,-0.19,-14.709799999999998,89.762,61.187,175,75
2026-05-11 18:06:09.323,1,-0.11,1.61,0.04,-20.999799999999997,90.552,56.126999999999995,175,75
2026-05-11 18:06:09.323,1,-0.04,1.49,0.28,-35.389799999999994,86.892,55.277,175,75
2026-05-11 18:06:09.323,1,0.01,1.4,0.42,-42.949799999999996,75.312,57.89699999999999,175,75
2026-05-11 18:06:09.324,1,0.06,1.28,0.57,-50.74979999999999,55.862,62.346999999999994,175,75
2026-05-11 18:06:09.324,1,0.14,1.22,0.63,-63.919799999999995,34.762,61.617000000000004,175,75
2026-05-11 18:06:09.350,1,1.0,0.93,2.16,-48.0098,-22.618,34.907,175,75
2026-05-11 18:06:09.350,1,1.04,0.87,2.35,-43.4298,-66.27799999999999,33.327,175,75
2026-05-11 18:06:09.350,1,0.99,0.87,2.48,-41.5998,-94.688,29.787,175,75
2026-05-11 18:06:09.362,1,0.79,0.69,2.52,-28.679799999999997,-107.068,16.186999999999998,175,75
2026-05-11 18:06:09.362,1,0.49,-0.22,1.76,17.9102,-125.548,-19.973,175,75
2026-05-11 18:06:09.433,1,0.28,-0.35,1.6,14.800200000000002,-123.838,-18.383,175,75
2026-05-11 18:06:09.451,1,-0.01,-0.59,1.35,9.8002,-103.348,-16.803,175,75
2026-05-11 18:06:09.451,1,-0.1,-0.72,1.21,-0.6297999999999995,-82.91799999999999,-1.4930000000000003,175,75
2026-05-11 18:06:09.463,1,-0.23,-0.78,1.08,-18.249799999999997,-71.828,28.747,175,75
2026-05-11 18:06:09.475,1,-0.31,-0.52,1.15,-46.669799999999995,-75.118,57.527,175,75
2026-05-11 18:06:09.475,1,-0.34,-0.24,1.2,-78.2498,-95.848,80.087,175,75
2026-05-11 18:06:09.500,1,-0.77,0.55,0.03,-189.77980000000002,-66.828,176.307,175,75
2026-05-11 18:06:09.512,1,1.13,0.32,1.5,-114.83979999999998,31.162000000000003,196.737,175,75
2026-05-11 18:06:09.523,1,2.76,-0.6,2.99,-110.2598,70.552,145.577,175,75
2026-05-11 18:06:09.544,1,-0.43,-0.18,0.1,-130.56980000000001,-33.467999999999996,106.127,175,75
2026-05-11 18:06:09.556,1,-1.25,-1.35,0.1,-162.3398,-22.558,140.757,175,75
2026-05-11 18:06:09.576,1,-1.01,-2.06,0.58,-168.24980000000002,21.162000000000003,230.457,175,75
2026-05-11 18:06:09.576,1,-0.74,-0.79,0.9,-201.7898,-1.028,274.417,175,75
2026-05-11 18:06:09.588,1,-0.05,1.85,1.49,-218.6798,14.452,252.46699999999998,175,75
2026-05-11 18:06:09.611,1,-0.16,0.72,0.04,-195.1998,-24.328,166.977,175,75
2026-05-11 18:06:09.622,1,-0.11,-0.21,0.24,-169.7098,-11.458,174.357,175,75
2026-05-11 18:06:09.622,1,-0.13,0.73,0.78,-152.9498,8.542,157.407,175,75
2026-05-11 18:06:09.634,1,-0.11,0.2,0.69,-147.3998,-7.7379999999999995,144.907,175,75
2026-05-11 18:06:09.646,1,-0.33,0.45,0.42,-145.0798,1.472,130.887,175,75
2026-05-11 18:06:09.646,1,-0.08,0.56,0.25,-115.6298,25.552000000000003,124.237,175,75
2026-05-11 18:06:09.657,1,-0.18,0.35,0.38,-86.35979999999999,36.102000000000004,116.367,175,75
2026-05-11 18:06:09.672,1,-0.34,0.34,0.49,-72.0898,44.882000000000005,99.847,175,75
2026-05-11 18:06:09.695,1,-0.35,0.04,0.62,-20.6898,48.842,31.616999999999997,175,75
2026-05-11 18:06:09.703,1,-0.35,-0.01,0.48,-19.289799999999996,46.282000000000004,9.417,175,75
2026-05-11 18:06:09.731,1,-0.0,-0.58,0.37,54.00020000000001,107.022,-49.303000000000004,175,75
2026-05-11 18:06:09.796,1,1.55,-0.14,2.32,-3.739799999999999,176.282,-138.023,175,75
2026-05-11 18:06:09.808,1,1.38,0.11,2.68,26.2602,89.702,-137.773,175,75
2026-05-11 18:06:09.808,1,0.75,0.3,2.33,12.600200000000001,-26.087999999999997,-98.32300000000001,175,75
2026-05-11 18:06:09.808,1,0.31,0.27,1.78,-80.4498,-69.688,-55.883,175,75
2026-05-11 18:06:09.852,1,0.47,0.87,2.06,-178.49980000000002,-30.548,21.497,175,75
2026-05-11 18:06:09.879,1,0.64,1.09,2.63,-173.18980000000002,-10.668000000000001,55.827,175,75
2026-05-11 18:06:09.890,1,0.53,1.13,2.03,-199.6498,-87.678,96.617,175,75
2026-05-11 18:06:09.900,1,0.41,-0.14,0.72,-256.5998,-108.898,87.527,175,75
2026-05-11 18:06:09.900,1,0.57,-0.33,0.3,-249.64980000000003,8.362,64.297,175,75
2026-05-11 18:06:09.900,1,0.84,0.11,0.62,-204.34980000000002,140.672,50.397,175,75
2026-05-11 18:06:09.910,1,0.93,0.52,1.47,-123.24980000000001,225.002,38.997,175,75
2026-05-11 18:06:09.922,1,0.73,0.47,2.07,-75.5098,257.99199999999996,29.537,175,75
2026-05-11 18:06:09.933,1,0.48,0.5,2.5,-30.509800000000002,266.222,12.347,175,75
2026-05-11 18:06:09.944,1,0.21,0.37,2.63,18.090200000000003,219.882,-14.053,175,75
2026-05-11 18:06:09.944,1,0.0,0.16,2.71,38.7602,190.492,-28.203000000000003,175,75
2026-05-11 18:06:09.971,1,-0.14,-0.26,2.77,32.300200000000004,18.602,-66.313,175,75
2026-05-11 18:06:09.971,1,-0.36,-0.21,2.08,45.7702,-37.068,-82.653,175,75
2026-05-11 18:06:09.998,1,-0.5,0.47,1.7,113.4602,-52.978,-129.303,175,75
2026-05-11 18:06:10.010,1,-0.77,0.31,1.49,162.6602,-80.66799999999999,-179.483,175,75
2026-05-11 18:06:10.022,1,-0.84,-0.17,1.49,215.1002,-124.688,-192.773,175,75
2026-05-11 18:06:10.036,1,-1.0,-0.17,1.09,236.0802,-169.938,-208.873,175,75
2026-05-11 18:06:10.047,1,-1.13,-0.19,0.84,268.8202,-175.118,-206.073,175,75
2026-05-11 18:06:10.057,1,-1.02,-0.01,1.02,319.2502,-189.388,-202.713,175,75
2026-05-11 18:06:10.068,1,-1.1,-0.02,1.25,356.8702,-224.938,-196.133,175,75
2026-05-11 18:06:10.076,1,-1.17,-0.15,1.26,383.9402,-255.478,-188.443,175,75
2026-05-11 18:06:10.111,1,-1.39,-0.32,1.21,397.6002,-281.88800000000003,-182.773,175,75
2026-05-11 18:06:10.111,1,-1.79,-0.5,0.72,402.3002,-290.548,-161.313,175,75
2026-05-11 18:06:10.141,1,-1.77,-0.47,0.39,393.6402,-264.80800000000005,-122.473,175,75
2026-05-11 18:06:10.155,1,-1.88,-0.58,-1.5,277.0502,-138.468,-117.283,175,75
2026-05-11 18:06:10.222,1,-2.13,0.24,-1.74,248.6402,-84.508,-49.603,175,75
2026-05-11 18:06:10.226,1,-1.95,0.87,-1.62,193.2102,-47.858,11.857000000000001,175,75
2026-05-11 18:06:10.239,1,-1.62,1.16,-1.8,126.7502,-22.857999999999997,61.367000000000004,175,75
2026-05-11 18:06:10.239,1,-0.75,0.63,-1.77,88.70020000000001,-10.058,107.467,175,75
2026-05-11 18:06:10.244,1,-0.22,0.8,-2.06,0.590200000000003,-53.408,124.96699999999998,175,75
2026-05-11 18:06:10.256,1,0.72,1.12,-1.54,-64.5898,-82.30799999999999,145.147,175,75
2026-05-11 18:06:10.266,1,1.29,0.55,-1.14,-169.8998,-219.508,142.227,175,75
2026-05-11 18:06:10.286,1,1.44,-0.15,1.74,-159.1698,-2.6780000000000004,101.127,175,75
2026-05-11 18:06:10.297,1,-2.74,-0.58,1.51,-246.1798,-368.658,180.577,175,75
2026-05-11 18:06:10.297,1,-7.55,-2.01,0.2,-368.5598,-385.11800000000005,324.237,175,75
2026-05-11 18:06:10.297,1,3.01,-5.57,-1.01,-307.3998,134.15200000000002,354.35699999999997,175,75
2026-05-11 18:06:12.577,1,0.67,1.32,1.22,28.3902,26.882,-5.413,175,75
2026-05-11 18:06:12.605,1,0.43,1.29,0.91,93.87020000000001,-63.977999999999994,-59.803000000000004,175,75
2026-05-11 18:06:12.615,1,0.39,1.38,0.8,126.5002,-85.80799999999999,-74.313,175,75
2026-05-11 18:06:12.646,1,0.27,0.92,0.76,231.1302,-143.488,-137.543,175,75
2026-05-11 18:06:12.719,1,0.03,0.46,0.85,266.2502,-219.158,-196.693,175,75
2026-05-11 18:06:12.731,1,-0.04,0.3,0.8,240.8902,-276.598,-175.353,175,75
2026-05-11 18:06:12.741,1,-0.39,0.21,0.3,201.8602,-258.30800000000005,-200.843,175,75
2026-05-11 18:06:12.770,1,-4.16,1.25,-1.15,154.12019999999998,-244.468,-129.563,175,75
2026-05-11 18:06:12.816,1,0.39,1.16,2.81,119.2402,87.242,-53.463,175,75
2026-05-11 18:06:12.832,1,0.7,-1.51,2.37,47.470200000000006,-27.328,-43.583,175,75
2026-05-11 18:06:12.921,1,0.36,-0.07,1.53,50.4002,82.242,-19.803,175,75
2026-05-11 18:06:12.926,1,0.29,0.1,1.66,-1.249799999999997,55.592,-18.403,175,75
2026-05-11 18:06:12.940,1,0.38,0.32,1.39,-6.249799999999997,59.562000000000005,-16.333,175,75
2026-05-11 18:06:12.974,1,0.35,0.43,1.01,-4.779799999999998,89.012,-7.423,175,75
2026-05-11 18:06:12.982,1,0.31,0.54,0.9,-2.0997999999999983,84.19200000000001,-3.0329999999999995,175,75
2026-05-11 18:06:13.009,1,0.22,0.84,0.74,5.890200000000002,107.552,3.1869999999999994,175,75
2026-05-11 18:06:13.019,1,0.1,0.9,0.67,3.390200000000002,115.232,1.237,175,75
2026-05-11 18:06:13.093,1,0.05,0.82,0.74,7.050200000000002,136.942,8.546999999999999,175,75
2026-05-11 18:06:13.094,1,0.05,0.57,0.83,10.950200000000002,145.592,10.927000000000001,175,75
2026-05-11 18:06:13.123,1,-0.38,0.33,0.7,-12.0398,110.662,13.607000000000001,175,75
2026-05-11 18:06:13.137,1,-0.85,0.31,-0.04,-70.26979999999999,206.632,39.407,175,75
2026-05-11 18:06:13.161,1,-0.37,0.28,0.48,-54.4798,203.702,70.317,175,75
2026-05-11 18:06:13.183,1,-0.06,0.29,0.4,-77.15979999999999,169.382,58.486999999999995,175,75
2026-05-11 18:06:13.204,1,0.29,0.86,1.26,-72.5898,-11.108,82.207,175,75
2026-05-11 18:06:13.207,1,0.41,0.96,1.22,-85.87979999999999,-66.77799999999999,80.807,175,75
2026-05-11 18:06:13.244,1,1.27,1.51,1.09,-104.29979999999999,-113.858,35.317,175,75
2026-05-11 18:06:13.257,1,0.69,1.97,0.84,-91.85979999999999,-153.918,17.326999999999998,175,75
2026-05-11 18:06:13.287,1,2.68,0.91,0.66,-61.24979999999999,-222.088,-71.143,175,75
2026-05-11 18:06:13.287,1,-2.25,1.13,0.85,14.1202,-49.158,-51.943000000000005,175,75
2026-05-11 18:06:13.303,1,-1.39,0.33,1.85,121.98020000000001,89.19200000000001,-70.233,175,75
2026-05-11 18:06:13.325,1,-0.33,-1.58,1.62,-60.639799999999994,-148.118,0.9269999999999996,175,75
2026-05-11 18:06:13.340,1,1.42,0.21,0.63,-84.04979999999999,-58.488,1.8469999999999995,175,75
2026-05-11 18:06:13.352,1,0.93,0.39,-0.14,-64.71979999999999,-75.868,-38.953,175,75
2026-05-11 18:06:13.408,1,-0.26,-0.68,1.39,-11.249799999999997,12.852,-1.9429999999999996,175,75
2026-05-11 18:06:13.422,1,0.07,-0.75,1.18,-35.1498,44.862,10.197000000000001,175,75
2026-05-11 18:06:13.448,1,-0.41,0.42,0.38,75.5802,33.032000000000004,-62.003,175,75
2026-05-11 18:06:13.475,1,-0.4,0.06,0.36,160.34019999999998,55.172000000000004,-126.023,175,75
2026-05-11 18:06:13.509,1,0.58,-1.36,1.43,226.1302,111.512,-179.193,175,75
2026-05-11 18:06:13.581,1,1.44,1.35,1.11,218.75019999999998,19.132,-243.03300000000002,175,75
2026-05-11 18:06:13.604,1,-1.53,1.5,-0.69,-7.829799999999999,-43.798,7.936999999999999,175,75
2026-05-11 18:06:13.617,1,-1.49,1.63,-1.04,-282.9498,87.002,126.90700000000001,175,75
2026-05-11 18:06:13.658,1,-0.64,-0.1,0.48,-352.5898,43.282000000000004,199.407,175,75
2026-05-11 18:06:13.685,1,-0.42,-1.01,0.22,-283.6898,297.12199999999996,242.757,175,75
2026-05-11 18:06:13.696,1,0.19,-0.63,1.99,-295.8198,376.57199999999995,171.777,175,75
2026-05-11 18:06:13.707,1,0.54,-0.46,2.51,-332.4698,322.852,147.757,175,75
2026-05-11 18:06:13.707,1,0.63,-0.07,2.18,-320.0898,259.38199999999995,135.687,175,75
2026-05-11 18:06:13.719,1,0.57,0.29,1.91,-301.6098,240.352,141.777,175,75
2026-05-11 18:06:13.731,1,0.68,0.67,2.07,-265.0298,239.312,141.107,175,75
2026-05-11 18:06:13.741,1,0.8,1.03,2.34,-235.2698,231.942,124.34700000000001,175,75
2026-05-11 18:06:13.752,1,0.84,1.19,2.88,-189.84980000000002,193.832,81.477,175,75
2026-05-11 18:06:13.757,1,0.89,0.95,3.05,-146.6098,143.702,58.797,175,75
2026-05-11 18:06:13.771,1,0.81,0.75,3.1,-120.02980000000001,101.94200000000001,36.107,175,75
2026-05-11 18:06:13.782,1,0.84,0.74,3.13,-52.6498,-46.108,-27.363,175,75
2026-05-11 18:06:13.801,1,0.99,0.93,3.13,8.260200000000001,-105.988,-61.203,175,75
2026-05-11 18:06:13.843,1,0.49,0.3,2.26,222.2302,-191.718,-201.203,175,75
2026-05-11 18:06:13.843,1,0.31,-0.2,2.06,284.67019999999997,-173.428,-255.043,175,75
2026-05-11 18:06:13.864,1,0.25,-1.03,2.08,359.2402,-152.328,-307.543,175,75
2026-05-11 18:06:13.873,1,0.25,-1.89,2.08,427.5302,-151.968,-339.863,175,75
2026-05-11 18:06:13.887,1,0.17,-2.47,1.4,461.92019999999997,-144.158,-353.403,175,75
2026-05-11 18:06:13.906,1,0.16,-2.17,1.28,573.2002,-46.048,-345.843,175,75
2026-05-11 18:06:13.941,1,0.21,-3.75,2.07,577.2902,-91.77799999999999,-351.813,175,75
2026-05-11 18:06:13.955,1,-0.17,-3.98,2.26,571.2502,-129.828,-341.943,175,75
2026-05-11 18:06:13.955,1,0.04,-4.8,1.49,536.6802,-66.048,-372.613,175,75
2026-05-11 18:06:13.977,1,-0.53,-3.98,0.84,455.1502,-57.698,-311.203,175,75
2026-05-11 18:06:13.995,1,-0.41,-3.52,1.03,444.42019999999997,-85.378,-297.733,175,75
2026-05-11 18:06:13.995,1,-0.27,-2.66,0.69,371.5002,-108.05799999999999,-273.523,175,75
2026-05-11 18:06:14.033,1,-0.23,-1.0,0.53,217.84019999999998,-19.708,-195.473,175,75
2026-05-11 18:06:14.043,1,-0.29,-0.64,0.83,179.7902,-23.308,-167.543,175,75
2026-05-11 18:06:14.059,1,-0.27,-0.05,0.78,150.22019999999998,-34.098,-129.563,175,75
2026-05-11 18:06:14.081,1,-0.32,0.3,0.1,65.5202,-15.378,-93.833,175,75
2026-05-11 18:06:14.091,1,-0.35,0.47,0.09,40.7602,23.162000000000003,-71.813,175,75
2026-05-11 18:06:14.102,1,-0.37,0.69,0.26,27.6502,34.922000000000004,-53.703,175,75
2026-05-11 18:06:14.113,1,-0.41,0.82,0.38,14.730200000000002,36.692,-35.173,175,75
2026-05-11 18:06:14.124,1,-0.48,0.89,0.32,-1.4298000000000002,34.682,-16.753,175,75
2026-05-11 18:06:14.135,1,-0.48,0.95,0.22,-9.5398,38.282000000000004,-3.463,175,75
2026-05-11 18:06:14.146,1,-0.48,1.04,0.14,-17.829799999999995,45.662,9.097,175,75
2026-05-11 18:06:14.157,1,-0.44,1.18,0.05,-24.779799999999998,60.842,24.097,175,75
2026-05-11 18:06:14.165,1,-0.39,1.25,0.07,-28.5598,74.072,31.967,175,75
2026-05-11 18:06:14.202,1,-0.37,1.31,0.05,-39.659800000000004,91.882,46.477,175,75
2026-05-11 18:06:14.202,1,-0.36,1.35,0.12,-46.48979999999999,108.032,53.917,175,75
2026-05-11 18:06:14.202,1,-0.3,1.38,0.26,-55.389799999999994,117.912,65.257,175,75
2026-05-11 18:06:14.237,1,0.09,1.48,0.4,-74.90979999999999,142.422,82.457,175,75
2026-05-11 18:06:14.254,1,0.25,1.47,0.49,-83.2598,151.142,84.767,175,75
2026-05-11 18:06:14.267,1,0.32,1.37,0.58,-88.37979999999999,156.202,82.457,175,75
2026-05-11 18:06:14.296,1,0.49,1.19,1.07,-105.51979999999999,130.722,68.607,175,75
2026-05-11 18:06:14.313,1,0.53,1.18,1.19,-106.85979999999999,107.362,64.587,175,75
2026-05-11 18:06:14.324,1,0.51,1.16,1.3,-108.1398,87.422,58.187,175,75
2026-05-11 18:06:14.335,1,0.59,1.07,1.33,-108.8698,65.47200000000001,54.827,175,75
2026-05-11 18:06:14.346,1,0.61,0.95,1.26,-111.1298,46.512,46.907,175,75
2026-05-11 18:06:14.372,1,0.69,0.83,1.43,-89.90979999999999,52.912,47.637,175,75
2026-05-11 18:06:14.379,1,0.77,0.76,1.55,-83.01979999999999,60.532000000000004,50.077,175,75
2026-05-11 18:06:14.423,1,0.65,0.46,1.63,-73.9298,53.582,44.766999999999996,175,75
2026-05-11 18:06:14.452,1,0.36,0.18,1.76,-65.6398,74.922,51.297,175,75
2026-05-11 18:06:14.452,1,0.24,-0.05,1.86,-61.85979999999999,83.58200000000001,49.407,175,75
2026-05-11 18:06:14.463,1,0.14,-0.63,1.95,-60.639799999999994,110.842,55.437,175,75
2026-05-11 18:06:14.473,1,0.11,-0.69,1.84,-66.12979999999999,133.832,65.687,175,75
2026-05-11 18:06:14.483,1,0.01,-0.5,1.6,-63.559799999999996,172.122,61.477000000000004,175,75
2026-05-11 18:06:14.526,1,-0.17,-0.88,1.83,-43.019800000000004,181.022,61.236999999999995,175,75
2026-05-11 18:06:14.547,1,-0.17,-0.77,1.59,-85.0298,122.422,66.167,175,75
2026-05-11 18:06:14.571,1,-0.18,-0.4,1.46,-117.9498,83.702,80.197,175,75
2026-05-11 18:06:14.571,1,-0.18,-0.25,1.38,-129.5398,68.702,89.587,175,75
2026-05-11 18:06:14.598,1,0.14,0.37,1.11,-153.37980000000002,25.662000000000003,127.99699999999999,175,75
2026-05-11 18:06:14.610,1,0.33,0.56,0.99,-164.96980000000002,19.982000000000003,130.987,175,75
2026-05-11 18:06:14.621,1,0.52,1.05,1.6,-130.6398,-64.828,167.207,175,75
2026-05-11 18:06:14.624,1,0.79,0.74,1.52,-129.84980000000002,-68.548,153.367,175,75
2026-05-11 18:06:14.650,1,2.31,0.56,0.09,-206.0598,4.622,10.987,175,75
2026-05-11 18:06:14.660,1,-0.37,2.42,2.57,-68.37979999999999,66.632,69.097,175,75
2026-05-11 18:06:14.676,1,-1.92,1.34,1.4,-30.6998,-16.598,34.766999999999996,175,75
2026-05-11 18:06:14.676,1,-0.44,-0.42,1.71,-57.5898,73.702,46.297,175,75
2026-05-11 18:06:14.689,1,-0.26,-1.18,1.63,-110.8198,-14.528,50.626999999999995,175,75
2026-05-11 18:06:14.703,1,-0.51,0.55,0.69,-160.99980000000002,17.552000000000003,40.747,175,75
2026-05-11 18:06:14.722,1,0.46,0.63,0.49,-114.9698,35.052,48.306999999999995,175,75
2026-05-11 18:06:14.731,1,0.42,0.04,0.39,-105.1498,45.722,40.016999999999996,175,75
2026-05-11 18:06:14.754,1,-0.13,0.05,1.24,-123.6298,84.982,47.577,175,75
2026-05-11 18:06:14.764,1,-0.05,0.43,0.33,-118.6898,59.072,35.077,175,75
2026-05-11 18:06:14.840,1,-0.38,-0.1,0.49,5.090200000000001,99.802,-41.573,175,75
2026-05-11 18:06:14.854,1,-0.19,-0.39,0.45,22.110200000000003,104.132,-67.003,175,75
2026-05-11 18:06:14.865,1,0.11,-1.13,0.97,40.4002,98.462,-64.013,175,75
2026-05-11 18:06:14.869,1,0.28,-1.44,1.3,38.2002,75.532,-60.413000000000004,175,75
2026-05-11 18:06:14.887,1,0.4,-1.44,1.76,23.5102,77.97200000000001,-54.563,175,75
2026-05-11 18:06:14.923,1,0.8,-1.12,2.37,3.7502000000000013,71.142,-48.643,175,75
2026-05-11 18:06:14.923,1,0.8,-0.37,2.71,-17.469799999999996,23.772000000000002,-58.153,175,75
2026-05-11 18:06:14.959,1,0.23,0.62,1.52,-119.4798,219.382,18.667,175,75
2026-05-11 18:06:14.992,1,0.89,-0.06,2.71,-220.02980000000002,-9.098,71.237,175,75
2026-05-11 18:06:14.992,1,0.24,0.15,1.72,-255.38980000000004,-117.448,110.497,175,75
2026-05-11 18:06:15.004,1,-0.07,0.33,1.09,-232.6498,-54.158,109.707,175,75
2026-05-11 18:06:15.050,1,0.47,0.03,1.22,-185.2698,34.072,102.517,175,75
2026-05-11 18:06:15.050,1,0.8,-0.18,1.54,-135.99980000000002,75.902,90.257,175,75
2026-05-11 18:06:15.050,1,0.8,-0.54,1.38,-90.26979999999999,118.162,82.817,175,75
2026-05-11 18:06:15.083,1,0.54,-0.35,1.54,1.7402000000000015,263.582,63.486999999999995,175,75
2026-05-11 18:06:15.087,1,0.45,0.0,1.92,62.4102,242.612,37.387,175,75
2026-05-11 18:06:15.102,1,0.69,0.28,1.95,126.4402,113.342,-18.403,175,75
2026-05-11 18:06:15.106,1,0.49,0.24,1.59,154.3602,70.412,-55.533,175,75
2026-05-11 18:06:15.126,1,0.27,0.49,1.23,245.8902,25.292,-124.863,175,75
2026-05-11 18:06:15.189,1,0.15,0.44,1.1,287.4702,-3.9779999999999998,-162.733,175,75
2026-05-11 18:06:15.189,1,0.09,0.39,1.19,329.48019999999997,-30.317999999999998,-182.303,175,75
2026-05-11 18:06:15.189,1,0.03,0.26,1.19,370.3402,-76.228,-205.473,175,75
2026-05-11 18:06:15.210,1,-0.06,0.14,0.76,432.5302,-105.498,-239.25300000000001,175,75
2026-05-11 18:06:15.226,1,-0.13,0.05,0.56,465.2802,-93.188,-248.093,175,75
2026-05-11 18:06:15.238,1,-0.15,0.02,0.38,493.2002,-85.318,-238.403,175,75
2026-05-11 18:06:15.249,1,-0.86,-0.6,-0.05,518.8102,-108.798,-230.473,175,75
2026-05-11 18:06:15.275,1,-1.41,-1.34,-0.69,514.7302,-154.09799999999998,-208.28300000000002,175,75
2026-05-11 18:06:15.294,1,-2.12,-1.28,-2.98,224.7902,-93.188,-123.283,175,75
2026-05-11 18:06:15.304,1,-1.86,0.04,-3.1,169.18019999999999,-26.418,-51.143,175,75
2026-05-11 18:06:15.316,1,-1.38,1.19,-2.02,53.080200000000005,-68.548,15.437,175,75
2026-05-11 18:06:15.328,1,-1.6,1.27,-2.22,-61.85979999999999,-134.278,53.187,175,75
2026-05-11 18:06:15.337,1,-2.15,1.27,-2.24,-175.2098,-48.858,147.457,175,75
2026-05-11 18:06:15.366,1,1.55,0.15,0.74,-98.9298,214.312,226.96699999999998,175,75
2026-05-11 18:06:15.367,1,-0.97,-2.46,1.12,-242.09980000000002,-165.138,110.987,175,75
2026-05-11 18:06:15.378,1,-0.7,-2.07,-0.32,-288.7498,21.332,246.41699999999997,175,75
2026-05-11 18:06:15.384,1,0.66,0.22,0.61,-266.7998,-84.408,169.527,175,75
2026-05-11 18:06:15.403,1,-0.5,2.13,-1.18,-251.9198,52.792,171.597,175,75
2026-05-11 18:06:15.425,1,0.09,-0.37,0.29,-93.07979999999999,125.842,144.347,175,75
2026-05-11 18:06:15.454,1,-0.11,0.4,0.67,-60.99979999999999,140.352,128.737,175,75
2026-05-11 18:06:15.466,1,-0.19,-0.04,0.92,-55.51979999999999,135.412,86.357,175,75
2026-05-11 18:06:15.478,1,-0.23,0.14,0.84,-42.0998,148.40200000000002,72.267,175,75
2026-05-11 18:06:15.492,1,-0.26,-0.17,0.93,-18.1998,156.812,50.437,175,75
2026-05-11 18:06:15.503,1,-0.01,-0.36,1.25,3.2002000000000006,170.592,27.756999999999998,175,75
2026-05-11 18:06:15.503,1,0.1,-0.98,1.4,-2.5898000000000003,157.182,23.366999999999997,175,75
2026-05-11 18:06:15.514,1,0.4,-1.31,1.55,-41.85979999999999,176.022,37.027,175,75
2026-05-11 18:06:15.520,1,0.55,-1.24,1.46,-96.54979999999999,180.592,25.556999999999995,175,75
2026-05-11 18:06:15.529,1,0.84,-0.56,1.89,-112.52980000000001,205.352,11.967,175,75
2026-05-11 18:06:15.545,1,1.04,-0.25,2.3,-99.90979999999999,162.732,-5.043,175,75
2026-05-11 18:06:15.563,1,0.76,-0.19,2.04,-73.8698,183.342,-24.983,175,75
2026-05-11 18:06:15.578,1,-0.12,0.34,2.0,-103.9298,194.862,20.626999999999995,175,75
2026-05-11 18:06:15.603,1,0.1,0.23,2.06,-158.49980000000002,125.662,60.557,175,75
2026-05-11 18:06:15.613,1,0.37,-0.04,1.64,-205.99980000000002,92.062,88.547,175,75
2026-05-11 18:06:15.623,1,0.65,0.4,1.95,-175.6398,117.362,84.347,175,75
2026-05-11 18:06:15.667,1,1.13,0.24,2.42,-120.20979999999999,159.192,73.307,175,75
2026-05-11 18:06:15.667,1,1.09,0.45,2.32,-83.8698,189.922,38.367,175,75
2026-05-11 18:06:15.667,1,0.98,0.01,2.31,6.500200000000001,255.172,8.057,175,75
2026-05-11 18:06:15.693,1,0.96,1.1,2.37,190.8302,83.032,-58.833,175,75
2026-05-11 18:06:15.716,1,0.85,0.91,2.08,220.15019999999998,46.022,-85.593,175,75
2026-05-11 18:06:15.716,1,0.57,0.48,1.6,262.9002,27.972,-117.063,175,75
2026-05-11 18:06:15.743,1,0.16,0.32,1.43,334.8502,6.811999999999999,-139.253,175,75
2026-05-11 18:06:15.754,1,0.06,0.16,1.36,368.9402,-31.298,-140.353,175,75
2026-05-11 18:06:15.780,1,-0.14,-0.23,1.29,401.98019999999997,-76.298,-148.223,175,75
2026-05-11 18:06:15.780,1,-0.31,-0.5,1.16,393.5102,-116.108,-161.943,175,75
2026-05-11 18:06:15.780,1,-0.47,-0.56,0.98,381.3702,-141.358,-164.863,175,75
2026-05-11 18:06:15.792,1,-0.64,-0.66,0.94,364.5502,-205.928,-154.443,175,75
2026-05-11 18:06:15.814,1,-0.99,-0.6,0.67,360.5802,-327.32800000000003,-146.393,175,75
2026-05-11 18:06:15.841,1,-2.06,-0.18,-2.37,141.68019999999999,-196.658,-82.243,175,75
2026-05-11 18:06:15.874,1,-1.68,0.68,-2.32,113.45020000000001,-128.368,-24.503,175,75
2026-05-11 18:06:15.884,1,-0.72,1.55,-1.46,-6.249799999999997,-75.138,65.257,175,75
2026-05-11 18:06:15.897,1,-0.83,1.56,-1.64,-62.15979999999999,-104.948,99.03699999999999,175,75
2026-05-11 18:06:15.908,1,-2.4,1.15,-2.0,-156.9798,-131.59799999999998,153.057,175,75
2026-05-11 18:06:15.908,1,-3.09,-0.37,1.15,-78.1998,397.06199999999995,176.96699999999998,175,75
2026-05-11 18:06:15.921,1,3.37,-5.89,2.91,-136.24980000000002,65.902,178.547,175,75
2026-05-11 18:06:15.933,1,-0.03,-2.65,-1.22,-464.9098,-106.718,161.597,175,75
2026-05-11 18:06:15.968,1,0.65,1.9,1.07,-177.34980000000002,44.562000000000005,141.297,175,75
2026-05-11 18:06:15.968,1,-0.27,0.34,0.82,-170.1498,57.732,129.767,175,75
2026-05-11 18:06:15.999,1,0.04,0.66,0.46,-85.9998,90.112,107.267,175,75
2026-05-11 18:06:16.010,1,-0.21,0.41,0.69,-60.51979999999999,90.662,84.957,175,75
2026-05-11 18:06:16.034,1,-0.39,0.25,0.73,-24.4198,96.69200000000001,29.586999999999996,175,75
2026-05-11 18:06:16.049,1,-0.44,0.19,0.54,21.1902,99.802,-44.863,175,75
2026-05-11 18:06:16.118,1,-0.06,-0.68,0.83,95.89020000000001,122.002,-113.223,175,75
2026-05-11 18:06:16.175,1,-0.68,0.96,0.45,-227.09980000000002,-15.378,92.387,175,75
2026-05-11 18:06:16.205,1,-0.39,0.66,0.03,-306.4298,30.472,126.237,175,75
2026-05-11 18:06:16.215,1,-0.52,0.29,-0.16,-334.6598,76.512,156.237,175,75
2026-05-11 18:06:16.215,1,-0.69,-0.4,0.16,-294.1098,189.382,206.417,175,75
2026-05-11 18:06:16.236,1,0.3,-0.77,1.1,-255.9398,227.482,187.087,175,75
2026-05-11 18:06:16.257,1,0.84,-0.03,1.67,-232.46980000000002,171.882,137.267,175,75
2026-05-11 18:06:16.267,1,0.92,0.71,1.7,-232.40980000000002,196.942,117.99699999999999,175,75
2026-05-11 18:06:16.343,1,0.67,0.76,2.08,-147.7698,234.012,85.867,175,75
2026-05-11 18:06:16.343,1,1.08,1.04,2.79,-107.46979999999999,157.672,76.907,175,75
2026-05-11 18:06:16.358,1,1.15,1.18,2.72,-94.23979999999999,89.562,71.53699999999999,175,75
2026-05-11 18:06:16.372,1,1.15,1.02,2.42,-25.389799999999997,57.482,34.707,175,75
2026-05-11 18:06:16.383,1,1.02,0.77,2.28,12.470200000000002,45.722,11.597,175,75
2026-05-11 18:06:16.392,1,0.74,0.44,2.22,52.050200000000004,18.032,-30.653,175,75
2026-05-11 18:06:16.417,1,0.75,0.48,2.36,108.9402,-1.9080000000000001,-65.113,175,75
2026-05-11 18:06:16.417,1,0.75,0.33,2.49,156.68019999999999,-66.77799999999999,-96.693,175,75
2026-05-11 18:06:16.429,1,0.75,0.06,2.41,212.1702,-104.098,-149.803,175,75
2026-05-11 18:06:16.455,1,-0.18,-1.25,1.93,367.3502,-178.918,-286.633,175,75
2026-05-11 18:06:16.476,1,-0.27,-2.07,1.39,482.7202,-181.59799999999998,-345.723,175,75
2026-05-11 18:06:16.489,1,-0.39,-2.36,1.23,513.0202,-142.148,-360.963,175,75
2026-05-11 18:06:16.489,1,-0.28,-2.56,1.32,547.3502,-111.838,-381.813,175,75
2026-05-11 18:06:16.499,1,-0.21,-2.78,1.49,585.7601999999999,-107.698,-387.063,175,75
2026-05-11 18:06:16.518,1,-1.53,-3.82,2.16,712.5902,-217.328,-337.673,175,75
2026-05-11 18:06:16.551,1,-0.39,-4.51,-0.07,412.29019999999997,-119.708,-406.333,175,75
2026-05-11 18:06:16.551,1,-1.35,-4.45,-0.4,465.7002,-6.838,-379.623,175,75
2026-05-11 18:06:16.562,1,-0.74,-3.62,0.9,573.4502,138.952,-319.923,175,75
2026-05-11 18:06:16.604,1,-0.07,-3.54,1.24,529.1802,27.552000000000003,-286.813,175,75
2026-05-11 18:06:16.604,1,-0.13,-2.67,0.51,401.1302,-5.618,-249.563,175,75
2026-05-11 18:06:16.615,1,-0.03,-1.71,0.56,343.1402,14.922,-230.723,175,75
2026-05-11 18:06:16.615,1,-0.11,-1.29,0.76,296.5002,8.222,-201.813,175,75
2026-05-11 18:06:16.625,1,-0.02,-1.17,0.97,237.53019999999998,-14.828,-169.443,175,75
2026-05-11 18:06:16.631,1,-0.01,-0.8,0.88,188.5702,-45.748,-142.303,175,75
2026-05-11 18:06:16.652,1,-0.09,-0.37,0.71,148.2002,-65.80799999999999,-116.513,175,75
2026-05-11 18:06:16.652,1,-0.16,0.09,0.59,111.5002,-72.02799999999999,-83.403,175,75
2026-05-11 18:06:16.664,1,-0.03,0.38,0.3,76.3702,-73.548,-63.583,175,75
2026-05-11 18:06:16.676,1,-0.23,0.47,0.02,34.2402,-39.038,-55.723,175,75
2026-05-11 18:06:16.723,1,-0.28,0.66,0.22,5.830200000000001,0.05199999999999999,-32.853,175,75
2026-05-11 18:06:16.750,1,-0.41,1.13,0.24,-9.599799999999998,-18.607999999999997,20.377000000000002,175,75
2026-05-11 18:06:16.759,1,-0.4,1.3,0.04,-9.849799999999998,-0.25800000000000006,26.656999999999996,175,75
2026-05-11 18:06:16.767,1,-0.32,1.4,-0.07,3.390200000000002,37.302,30.556999999999995,175,75
2026-05-11 18:06:16.772,1,-0.3,1.52,-0.07,4.2402000000000015,63.892,37.696999999999996,175,75
2026-05-11 18:06:16.788,1,-0.08,1.6,0.08,11.010200000000001,111.812,35.687,175,75
2026-05-11 18:06:16.804,1,0.05,1.61,0.25,10.2802,129.072,34.707,175,75
2026-05-11 18:06:16.814,1,0.16,1.58,0.4,4.300200000000002,129.622,31.847,175,75
2026-05-11 18:06:16.814,1,0.23,1.53,0.54,-4.659799999999997,121.94200000000001,29.957,175,75
2026-05-11 18:06:16.835,1,0.3,1.46,0.68,-15.029799999999998,102.912,28.546999999999997,175,75
2026-05-11 18:06:16.837,1,0.33,1.35,0.76,-27.0998,73.702,27.936999999999998,175,75
2026-05-11 18:06:16.855,1,0.35,1.3,0.81,-35.389799999999994,53.582,23.796999999999997,175,75
2026-05-11 18:06:16.855,1,0.39,1.31,0.85,-43.2598,31.202,22.457,175,75
2026-05-11 18:06:16.868,1,0.4,1.33,0.76,-48.98979999999999,9.312,21.537,175,75
2026-05-11 18:06:16.890,1,0.37,1.32,0.69,-50.449799999999996,7.122,20.557000000000002,175,75
2026-05-11 18:06:16.940,1,0.44,1.01,0.98,-41.669799999999995,35.412,34.707,175,75
2026-05-11 18:06:16.958,1,0.61,0.96,1.06,-49.96979999999999,42.732,50.437,175,75
2026-05-11 18:06:16.994,1,0.62,0.65,1.26,-58.49979999999999,100.592,48.187,175,75
2026-05-11 18:06:17.024,1,0.52,0.01,1.51,-85.4498,115.962,68.057,175,75
2026-05-11 18:06:17.024,1,0.61,-0.15,1.65,-100.51979999999999,116.512,70.257,175,75
2026-05-11 18:06:17.031,1,0.47,-0.35,1.78,-114.8498,93.402,71.847,175,75
2026-05-11 18:06:17.046,1,0.41,-0.44,1.84,-123.86979999999998,79.682,76.907,175,75
2026-05-11 18:06:17.046,1,0.4,-0.54,1.81,-132.8298,65.412,78.487,175,75
2026-05-11 18:06:17.059,1,0.35,-0.67,1.62,-138.0798,41.882000000000005,77.027,175,75
2026-05-11 18:06:17.070,1,0.23,-0.9,1.48,-137.46980000000002,39.742000000000004,71.907,175,75
2026-05-11 18:06:17.094,1,-0.06,-1.53,1.37,-142.09980000000002,51.142,71.417,175,75
2026-05-11 18:06:17.104,1,-0.11,-1.57,1.36,-133.0798,64.622,85.377,175,75
2026-05-11 18:06:17.143,1,0.04,-0.72,1.31,-152.46980000000002,82.612,111.847,175,75
2026-05-11 18:06:17.165,1,0.16,-0.34,1.18,-182.7698,112.912,142.877,175,75
2026-05-11 18:06:17.233,1,0.51,0.04,1.21,-224.65980000000002,112.182,174.277,175,75
2026-05-11 18:06:17.233,1,0.76,0.39,1.04,-252.46980000000002,107.062,187.147,175,75
2026-05-11 18:06:17.233,1,-0.92,1.08,0.59,-257.2198,32.182,232.637,175,75
2026-05-11 18:06:17.233,1,4.18,-0.34,1.94,-186.4898,189.922,141.96699999999998,175,75
2026-05-11 18:06:17.258,1,2.72,0.03,4.55,-128.31980000000001,130.052,133.24699999999999,175,75
2026-05-11 18:06:17.258,1,3.37,0.79,6.64,10.8902,107.792,8.546999999999999,175,75
2026-05-11 18:06:17.304,1,0.33,1.01,-0.28,-126.05979999999998,-35.318,63.187,175,75
2026-05-11 18:06:17.333,1,0.42,1.14,0.23,10.950200000000002,82.362,22.516999999999996,175,75
2026-05-11 18:06:17.343,1,0.14,0.23,1.41,32.5302,95.782,4.956999999999999,175,75
2026-05-11 18:06:17.348,1,-0.0,-0.79,1.84,31.9202,50.232,-10.903,175,75
2026-05-11 18:06:17.377,1,0.48,-0.6,0.21,-77.6498,-4.888,17.517000000000003,175,75
2026-05-11 18:06:17.413,1,-0.34,0.18,0.64,21.3702,73.282,-8.403,175,75
2026-05-11 18:06:17.419,1,-0.25,-0.34,1.16,76.7402,105.592,-50.903,175,75
2026-05-11 18:06:17.462,1,0.05,-0.41,1.3,62.9002,101.812,-59.253,175,75
2026-05-11 18:06:17.502,1,0.67,-0.12,1.62,88.81020000000001,119.862,-86.263,175,75
2026-05-11 18:06:17.502,1,0.8,-0.05,1.79,93.3302,131.142,-87.423,175,75
2026-05-11 18:06:17.513,1,0.91,0.35,1.82,87.4102,115.662,-78.403,175,75
2026-05-11 18:06:17.535,1,-0.05,1.19,1.17,-12.529799999999998,88.22200000000001,-13.953,175,75
2026-05-11 18:06:17.545,1,-0.26,0.92,1.06,-64.5398,118.642,33.607,175,75
2026-05-11 18:06:17.545,1,-0.11,0.74,1.09,-82.2798,141.332,57.456999999999994,175,75
2026-05-11 18:06:17.554,1,-0.19,0.25,0.71,-126.79979999999999,167.852,79.767,175,75
2026-05-11 18:06:17.566,1,-0.72,0.11,0.24,-182.8298,199.252,110.92699999999999,175,75
2026-05-11 18:06:17.576,1,-0.59,0.2,0.27,-202.21980000000002,260.532,157.327,175,75
2026-05-11 18:06:17.598,1,0.06,0.06,0.62,-209.96980000000002,277.55199999999996,158.667,175,75
2026-05-11 18:06:17.610,1,-0.52,-0.04,0.3,-242.88980000000004,244.132,179.46699999999998,175,75
2026-05-11 18:06:17.697,1,0.54,0.7,0.98,-162.8898,99.44200000000001,103.667,175,75
2026-05-11 18:06:17.738,1,0.79,1.61,1.21,7.110200000000001,34.012,-3.893,175,75
2026-05-11 18:06:17.751,1,0.72,1.76,1.28,39.2402,13.032,-21.203,175,75
2026-05-11 18:06:17.785,1,0.71,1.84,1.1,142.5902,-78.428,-96.633,175,75
2026-05-11 18:06:17.796,1,0.69,1.76,0.93,173.5702,-83.978,-124.133,175,75
2026-05-11 18:06:17.807,1,0.66,1.7,0.84,220.09019999999998,-78.248,-158.953,175,75
2026-05-11 18:06:17.807,1,0.76,1.56,0.88,249.4802,-69.098,-179.683,175,75
2026-05-11 18:06:17.826,1,0.9,1.42,0.96,267.5302,-64.828,-194.013,175,75
2026-05-11 18:06:17.842,1,1.16,1.13,1.21,288.2002,-82.388,-215.413,175,75
2026-05-11 18:06:17.870,1,1.0,0.64,1.58,310.1502,-192.518,-242.483,175,75
2026-05-11 18:06:17.880,1,0.88,0.33,1.29,306.86019999999996,-210.748,-293.523,175,75
2026-05-11 18:06:17.903,1,0.93,0.35,0.99,315.1502,-203.488,-326.693,175,75
2026-05-11 18:06:17.907,1,-0.96,0.48,0.07,285.4002,-335.19800000000004,-248.833,175,75
2026-05-11 18:06:20.209,1,0.39,0.38,1.01,1.760200000000001,210.232,86.837,175,75
2026-05-11 18:06:20.221,1,0.38,0.39,1.28,48.470200000000006,236.262,61.596999999999994,175,75
2026-05-11 18:06:20.249,1,0.55,0.98,1.59,198.53019999999998,90.352,-0.7829999999999995,175,75
2026-05-11 18:06:20.295,1,0.13,1.27,0.72,265.4202,-27.208,-115.053,175,75
2026-05-11 18:06:20.325,1,0.21,1.15,1.04,362.3102,-114.838,-148.583,175,75
2026-05-11 18:06:20.347,1,-0.09,0.58,0.45,412.1202,-234.528,-215.413,175,75
2026-05-11 18:06:20.363,1,-0.17,0.29,0.49,422.0602,-258.06800000000004,-239.803,175,75
2026-05-11 18:06:20.374,1,-0.47,-0.08,0.37,419.6202,-301.11800000000005,-260.723,175,75
2026-05-11 18:06:20.386,1,-0.83,-0.27,0.01,403.1602,-307.398,-257.973,175,75
2026-05-11 18:06:20.397,1,-1.21,-0.68,-0.53,359.9902,-283.67800000000005,-263.77299999999997,175,75
2026-05-11 18:06:20.408,1,-1.55,-0.83,-1.18,295.11019999999996,-277.148,-229.073,175,75
2026-05-11 18:06:20.416,1,-1.42,-0.78,-1.97,245.97019999999998,-221.968,-218.463,175,75
2026-05-11 18:06:20.445,1,-3.38,1.0,-2.93,71.9402,25.102,-6.453,175,75
2026-05-11 18:06:20.453,1,-4.37,1.6,-2.95,4.440200000000001,44.132000000000005,101.597,175,75
2026-05-11 18:06:20.466,1,-3.58,0.73,-3.15,-124.02980000000001,-33.798,250.86700000000002,175,75
2026-05-11 18:06:20.477,1,2.52,-1.12,-1.08,-86.2898,200.592,136.597,175,75
2026-05-11 18:06:20.488,1,-0.54,-0.31,3.75,165.6602,323.092,98.547,175,75
2026-05-11 18:06:20.488,1,0.7,1.02,3.36,1.760200000000001,36.812000000000005,102.937,175,75
2026-05-11 18:06:20.509,1,-0.28,1.01,0.77,17.1902,14.491999999999999,84.337,175,75
2026-05-11 18:06:20.522,1,0.38,0.73,1.29,51.940200000000004,51.322,77.937,175,75
2026-05-11 18:06:20.544,1,-0.02,0.21,2.33,43.5902,106.022,37.937,175,75
2026-05-11 18:06:20.544,1,0.87,-0.8,1.64,21.8202,40.712,52.757000000000005,175,75
2026-05-11 18:06:20.584,1,0.61,-0.13,0.2,-62.93979999999999,-6.598,80.92699999999999,175,75
2026-05-11 18:06:20.592,1,0.31,0.74,0.7,-26.2298,33.642,83.847,175,75
2026-05-11 18:06:20.592,1,0.07,0.51,1.04,-7.3897999999999975,53.032000000000004,69.527,175,75
2026-05-11 18:06:20.671,1,-0.12,0.41,1.42,-28.6698,85.592,62.266999999999996,175,75
2026-05-11 18:06:20.681,1,-0.16,0.27,1.28,-37.6298,84.922,57.266999999999996,175,75
2026-05-11 18:06:20.692,1,0.37,-0.16,1.35,13.2802,158.822,63.667,175,75
2026-05-11 18:06:20.704,1,0.26,-0.25,0.98,-0.37979999999999947,151.872,63.367000000000004,175,75
2026-05-11 18:06:20.716,1,0.48,-0.13,0.81,-19.219799999999996,142.662,69.157,175,75
2026-05-11 18:06:20.732,1,0.56,-0.2,0.96,-32.449799999999996,143.822,61.28699999999999,175,75
2026-05-11 18:06:20.742,1,0.65,-0.23,1.13,-50.79979999999999,157.482,60.197,175,75
2026-05-11 18:06:20.742,1,0.64,-0.35,1.54,-66.46979999999999,183.40200000000002,53.667,175,75
2026-05-11 18:06:20.784,1,0.72,-0.24,2.14,-118.4198,176.992,63.917,175,75
2026-05-11 18:06:20.786,1,0.21,-0.11,1.38,-140.0098,85.352,54.706999999999994,175,75
2026-05-11 18:06:20.810,1,0.01,-0.04,1.36,-144.4598,102.182,39.037,175,75
2026-05-11 18:06:20.821,1,-0.0,0.13,1.53,-135.3098,80.412,51.597,175,75
2026-05-11 18:06:20.831,1,0.08,0.08,1.41,-138.6698,26.322000000000003,55.736999999999995,175,75
2026-05-11 18:06:20.855,1,0.42,0.69,0.98,-144.8898,-91.538,50.437,175,75
2026-05-11 18:06:20.861,1,0.49,0.84,1.25,-125.9198,-125.198,21.597,175,75
2026-05-11 18:06:20.861,1,0.04,1.29,0.76,-103.54979999999999,-163.188,-8.583,175,75
2026-05-11 18:06:20.897,1,0.35,1.18,0.4,-60.0698,-109.158,-43.583,175,75
2026-05-11 18:06:20.897,1,0.71,0.74,0.97,-2.0797999999999988,-39.588,-82.733,175,75
2026-05-11 18:06:20.915,1,0.8,0.93,1.25,55.6002,-71.658,-164.443,175,75
2026-05-11 18:06:20.949,1,0.57,0.58,0.98,177.5502,-186.238,-288.103,175,75
2026-05-11 18:06:20.963,1,0.35,0.5,1.05,176.7602,-225.138,-295.543,175,75
2026-05-11 18:06:20.969,1,0.05,0.47,1.29,166.8202,-287.338,-309.993,175,75
2026-05-11 18:06:20.988,1,-0.11,0.44,1.42,146.5102,-358.978,-301.633,175,75
2026-05-11 18:06:20.988,1,-0.42,0.25,1.47,117.67020000000001,-431.238,-288.653,175,75
2026-05-11 18:06:21.020,1,-1.35,0.23,0.97,2.9802000000000017,-533.068,-242.433,175,75
2026-05-11 18:06:21.032,1,-1.64,0.26,1.01,-45.3798,-557.7579999999999,-208.043,175,75
2026-05-11 18:06:21.045,1,-2.04,0.22,0.03,-143.6698,-754.528,-126.693,175,75
2026-05-11 18:06:21.045,1,-5.37,0.91,-1.39,-262.26980000000003,-784.038,-33.653,175,75
2026-05-11 18:06:21.064,1,-3.31,1.82,-0.79,-186.2298,-428.00800000000004,95.007,175,75
2026-05-11 18:06:21.119,1,-1.67,2.15,2.42,-65.0098,-54.588,73.237,175,75
2026-05-11 18:06:21.120,1,-2.91,1.78,2.69,75.17020000000001,94.982,92.14699999999999,175,75
2026-05-11 18:06:21.120,1,-1.99,1.12,2.76,214.4402,102.122,147.387,175,75
2026-05-11 18:06:21.131,1,-0.67,0.16,1.71,186.2702,115.902,161.777,175,75
2026-05-11 18:06:21.163,1,0.94,-0.77,0.36,134.3202,70.592,133.917,175,75
2026-05-11 18:06:21.163,1,1.98,-1.2,-0.76,55.42020000000001,-13.128,103.667,175,75
2026-05-11 18:06:21.187,1,-0.64,-0.45,2.03,21.3902,-20.927999999999997,91.167,175,75
2026-05-11 18:06:21.187,1,-0.88,-0.27,1.24,-30.9198,-81.598,84.03699999999999,175,75
2026-05-11 18:06:21.200,1,-0.58,0.51,-0.08,-2.3297999999999988,-38.128,57.56699999999999,175,75
2026-05-11 18:06:21.210,1,-0.11,0.38,-0.34,69.5602,-9.838000000000001,29.527,175,75
2026-05-11 18:06:21.222,1,0.11,-0.06,-0.23,99.4402,-17.267999999999997,-7.553,175,75
2026-05-11 18:06:21.233,1,-0.4,-0.32,-0.13,134.3802,-39.897999999999996,-60.053000000000004,175,75
2026-05-11 18:06:21.237,1,0.24,-0.72,0.63,196.7002,26.382,-82.733,175,75
2026-05-11 18:06:21.271,1,0.57,-1.15,0.75,167.25019999999998,24.432000000000002,-87.913,175,75
2026-05-11 18:06:21.294,1,1.41,-1.43,0.87,102.0002,-5.748,-104.07300000000001,175,75
2026-05-11 18:06:21.321,1,1.62,0.85,2.06,90.9102,-101.358,-104.683,175,75
2026-05-11 18:06:21.333,1,0.47,1.32,1.34,26.5102,-225.258,-58.713,175,75
2026-05-11 18:06:21.345,1,0.59,1.49,1.28,-61.65979999999999,-389.158,38.787,175,75
2026-05-11 18:06:21.360,1,-1.0,0.76,-0.38,-323.9698,-582.698,144.887,175,75
2026-05-11 18:06:21.376,1,-0.69,0.25,-0.85,-399.0898,-328.12800000000004,165.127,175,75
2026-05-11 18:06:21.393,1,-2.08,-0.05,-1.25,-415.0698,-275.92800000000005,236.107,175,75
2026-05-11 18:06:21.393,1,-1.4,-0.7,-1.56,-405.6198,-118.488,243.177,175,75
2026-05-11 18:06:21.507,1,-0.81,-0.95,-1.1,-375.6198,15.042,227.387,175,75
2026-05-11 18:06:21.518,1,-0.02,-0.94,0.11,-343.6698,111.382,188.057,175,75
2026-05-11 18:06:21.518,1,0.28,-0.8,0.79,-361.7798,140.162,153.607,175,75
2026-05-11 18:06:21.518,1,0.32,-0.6,0.87,-374.63980000000004,146.022,125.61699999999999,175,75
2026-05-11 18:06:21.518,1,0.25,-0.39,0.91,-373.9098,164.192,102.447,175,75
2026-05-11 18:06:21.530,1,0.41,-0.15,1.63,-329.0898,220.772,72.447,175,75
2026-05-11 18:06:21.531,1,0.43,-0.04,2.1,-296.0498,224.072,56.717,175,75
2026-05-11 18:06:21.531,1,0.7,0.35,2.88,-254.94979999999998,178.272,19.887,175,75
2026-05-11 18:06:21.541,1,0.69,0.25,3.12,-207.1998,127.542,-11.453,175,75
2026-05-11 18:06:21.573,1,0.57,0.6,3.31,-197.87980000000002,71.69200000000001,-83.283,175,75
2026-05-11 18:06:21.595,1,0.51,0.69,3.53,-96.2898,-45.018,-182.433,175,75
2026-05-11 18:06:21.606,1,0.44,1.0,3.57,-36.2898,-106.848,-239.263,175,75
2026-05-11 18:06:21.615,1,0.45,1.12,3.51,48.6502,-136.908,-269.803,175,75
2026-05-11 18:06:21.629,1,0.29,0.73,3.07,144.2002,-190.808,-318.713,175,75
2026-05-11 18:06:21.641,1,-0.06,0.21,2.71,231.2102,-187.878,-369.073,175,75
2026-05-11 18:06:21.653,1,-0.2,-0.25,2.55,304.2602,-168.428,-416.453,175,75
2026-05-11 18:06:21.665,1,-0.28,-0.57,2.51,377.3102,-154.09799999999998,-448.523,175,75
2026-05-11 18:06:21.677,1,-0.35,-1.03,2.47,456.7002,-169.408,-468.89300000000003,175,75
2026-05-11 18:06:21.708,1,-0.61,-2.56,2.32,579.2601999999999,-235.508,-478.833,175,75
2026-05-11 18:06:21.708,1,-0.83,-2.98,2.09,623.2202,-257.208,-481.153,175,75
2026-05-11 18:06:21.740,1,-1.02,-3.37,2.19,659.9302,-261.418,-477.123,175,75
2026-05-11 18:06:21.785,1,-6.88,-8.88,-1.06,522.5502,-504.098,-385.413,175,75
2026-05-11 18:06:21.797,1,-1.15,-5.84,-0.73,492.86019999999996,50.902,-434.933,175,75
2026-05-11 18:06:21.811,1,-2.91,-3.09,-2.36,256.4502,-396.538,-271.943,175,75
2026-05-11 18:06:21.830,1,0.33,0.63,3.27,446.1502,-146.358,-156.023,175,75
2026-05-11 18:06:21.840,1,-0.04,-1.49,0.67,350.48019999999997,-167.088,-242.793,175,75
2026-05-11 18:06:21.890,1,-0.6,0.03,0.21,200.2302,-13.738,-103.46300000000001,175,75
2026-05-11 18:06:21.912,1,-0.7,0.51,0.09,163.22019999999998,-8.068,-75.29299999999999,175,75
2026-05-11 18:06:21.946,1,-0.47,1.29,0.19,89.87020000000001,-3.918,-14.443,175,75
2026-05-11 18:06:21.970,1,-0.45,1.85,-0.46,117.37020000000001,48.762,1.5370000000000008,175,75
2026-05-11 18:06:21.993,1,-0.14,1.62,0.0,107.67020000000001,116.632,19.217,175,75
2026-05-11 18:06:22.005,1,0.05,1.54,0.22,85.9702,80.292,33.236999999999995,175,75
2026-05-11 18:06:22.005,1,0.16,1.49,0.33,72.9802,64.192,40.376999999999995,175,75
2026-05-11 18:06:22.015,1,0.24,1.41,0.43,54.9302,44.862,45.317,175,75
2026-05-11 18:06:22.038,1,0.3,1.28,0.49,27.1902,13.952,50.556999999999995,175,75
2026-05-11 18:06:22.072,1,0.31,1.26,0.55,8.2802,-5.748,55.437,175,75
2026-05-11 18:06:22.072,1,0.29,1.27,0.57,-9.399799999999999,-18.677999999999997,62.997,175,75
2026-05-11 18:06:22.087,1,0.43,1.25,0.8,-21.779799999999998,-34.768,68.607,175,75
2026-05-11 18:06:22.096,1,0.39,1.18,0.99,-22.569799999999997,-47.088,66.777,175,75
2026-05-11 18:06:22.107,1,0.36,1.19,1.11,-22.999799999999997,-51.418,72.937,175,75
2026-05-11 18:06:22.118,1,0.46,1.15,1.15,-21.5898,-54.467999999999996,80.807,175,75
2026-05-11 18:06:22.118,1,0.48,1.08,1.1,-22.389799999999997,-64.52799999999999,78.42699999999999,175,75
2026-05-11 18:06:22.128,1,0.45,1.04,1.08,-19.459799999999998,-39.897999999999996,78.78699999999999,175,75
2026-05-11 18:06:22.155,1,0.58,0.68,1.34,10.7802,17.482000000000003,81.717,175,75
2026-05-11 18:06:22.155,1,0.41,0.36,1.48,25.110200000000003,53.582,83.367,175,75
2026-05-11 18:06:22.169,1,0.49,0.37,1.54,25.7802,72.242,81.167,175,75
2026-05-11 18:06:22.180,1,0.17,-0.05,1.52,31.090200000000003,88.402,90.617,175,75
2026-05-11 18:06:22.191,1,0.03,-0.45,1.36,15.3602,94.312,98.057,175,75
2026-05-11 18:06:22.204,1,-0.12,-0.45,1.23,4.140200000000002,113.462,98.667,175,75
2026-05-11 18:06:22.243,1,-0.28,-0.82,1.36,-10.009799999999998,145.592,113.487,175,75
2026-05-11 18:06:22.254,1,-0.22,-0.54,0.97,-58.1798,119.982,109.217,175,75
2026-05-11 18:06:22.265,1,-0.21,-0.33,0.86,-76.04979999999999,127.482,106.777,175,75
2026-05-11 18:06:22.279,1,-0.11,-0.09,0.87,-93.0598,115.042,112.997,175,75
2026-05-11 18:06:22.305,1,0.29,0.24,0.79,-132.1998,87.052,123.607,175,75
2026-05-11 18:06:22.357,1,0.8,0.64,0.62,-197.93980000000002,76.932,128.307,175,75
2026-05-11 18:06:22.366,1,0.99,0.88,0.68,-211.34980000000002,56.202,119.21699999999998,175,75
2026-05-11 18:06:22.388,1,-1.07,1.29,0.76,-122.74980000000001,-191.418,34.277,175,75
2026-05-11 18:06:22.403,1,-1.12,-0.3,1.92,-73.54979999999999,-67.208,52.997,175,75
2026-05-11 18:06:22.415,1,-1.06,-0.55,2.0,-107.32979999999999,-77.398,76.957,175,75
2026-05-11 18:06:22.433,1,-0.48,0.69,0.02,-71.3498,26.992,117.697,175,75
2026-05-11 18:06:22.444,1,0.38,0.44,-0.21,-37.389799999999994,22.482000000000003,83.547,175,75
2026-05-11 18:06:22.485,1,-0.52,-0.56,1.4,-48.90979999999999,39.682,57.876999999999995,175,75
2026-05-11 18:06:22.485,1,-0.15,-0.11,0.74,-75.43979999999999,8.642,53.236999999999995,175,75
2026-05-11 18:06:22.496,1,-0.07,0.46,-0.02,-61.169799999999995,11.932,53.667,175,75
2026-05-11 18:06:22.496,1,-0.13,0.54,-0.18,-17.079799999999995,43.822,46.777,175,75
2026-05-11 18:06:22.525,1,-0.33,0.14,0.27,18.4102,53.342,27.876999999999995,175,75
2026-05-11 18:06:22.536,1,-0.56,0.04,0.44,38.470200000000006,59.372,8.057,175,75
2026-05-11 18:06:22.557,1,-0.39,0.02,0.45,59.440200000000004,66.69200000000001,-17.553,175,75
2026-05-11 18:06:22.569,1,-0.09,-0.32,0.36,81.2702,82.182,-41.513,175,75
2026-05-11 18:06:22.583,1,-0.01,-0.63,0.43,76.4502,86.872,-47.853,175,75
2026-05-11 18:06:22.594,1,0.08,-0.96,0.65,82.06020000000001,91.322,-41.823,175,75
2026-05-11 18:06:22.626,1,0.38,-0.98,1.71,82.92020000000001,83.58200000000001,-41.333,175,75
2026-05-11 18:06:22.626,1,0.92,-0.44,2.2,65.0502,48.882000000000005,-49.933,175,75
2026-05-11 18:06:22.633,1,0.96,-0.09,2.28,51.2102,5.532,-62.063,175,75
2026-05-11 18:06:22.644,1,0.58,0.27,1.75,76.8802,-4.288,-62.433,175,75
2026-05-11 18:06:22.658,1,0.03,0.85,0.75,-33.549800000000005,44.492000000000004,7.566999999999998,175,75
2026-05-11 18:06:22.668,1,0.13,0.73,1.18,-64.82979999999999,94.862,35.806999999999995,175,75
2026-05-11 18:06:22.679,1,0.29,0.61,1.62,-85.6798,96.202,60.67699999999999,175,75
2026-05-11 18:06:22.679,1,0.41,0.38,1.94,-114.51979999999999,68.822,81.227,175,75
2026-05-11 18:06:22.694,1,0.42,0.31,1.99,-137.8098,51.382000000000005,91.347,175,75
2026-05-11 18:06:22.705,1,0.65,0.69,1.98,-147.1398,29.012,94.587,175,75
2026-05-11 18:06:22.718,1,0.96,1.01,1.65,-148.6098,-22.517999999999997,105.377,175,75
2026-05-11 18:06:22.718,1,-0.45,0.32,0.43,-177.87980000000002,-57.338,141.957,175,75
2026-05-11 18:06:22.729,1,-0.18,-0.07,-0.02,-149.27980000000002,79.552,126.59700000000001,175,75
2026-05-11 18:06:22.740,1,0.31,0.32,0.64,-72.68979999999999,199.372,121.59700000000001,175,75
2026-05-11 18:06:22.780,1,0.2,0.25,1.3,69.14020000000001,263.092,55.376999999999995,175,75
2026-05-11 18:06:22.790,1,0.41,0.35,1.64,94.6902,260.162,32.207,175,75
2026-05-11 18:06:22.801,1,0.52,0.62,1.83,112.2502,228.952,24.097,175,75
2026-05-11 18:06:22.804,1,0.68,0.8,1.76,153.7102,159.492,11.537,175,75
2026-05-11 18:06:22.831,1,0.43,0.99,1.22,217.7302,32.792,-45.723,175,75
2026-05-11 18:06:22.841,1,0.24,0.99,0.89,228.0402,11.452,-75.843,175,75
2026-05-11 18:06:22.846,1,0.17,1.01,0.91,264.9902,-15.078,-102.793,175,75
2026-05-11 18:06:22.868,1,0.15,0.97,1.0,294.9302,-63.798,-118.583,175,75
2026-05-11 18:06:22.878,1,0.04,0.83,0.88,317.0602,-108.978,-134.19299999999998,175,75
2026-05-11 18:06:22.886,1,-0.11,0.6,0.78,345.42019999999997,-159.158,-151.153,175,75
2026-05-11 18:06:22.944,1,-0.16,0.65,0.59,357.67019999999997,-201.908,-164.683,175,75
2026-05-11 18:06:22.944,1,-0.12,0.57,0.53,363.3402,-224.408,-173.773,175,75
2026-05-11 18:06:22.947,1,-0.58,0.03,0.46,357.61019999999996,-295.74800000000005,-204.013,175,75
2026-05-11 18:06:22.958,1,-0.92,-0.33,-0.41,302.5502,-283.00800000000004,-216.213,175,75
2026-05-11 18:06:23.023,1,-3.05,1.64,-3.36,89.4402,-20.508,5.316999999999998,175,75
2026-05-11 18:06:23.058,1,1.1,-0.55,-2.51,-63.96979999999999,222.482,177.027,175,75
2026-05-11 18:06:23.058,1,-0.61,-0.43,2.82,196.09019999999998,331.81199999999995,79.277,175,75
2026-05-11 18:06:23.093,1,0.48,-1.09,0.69,-58.54979999999999,-19.648,61.417,175,75
2026-05-11 18:06:23.105,1,0.47,-0.72,0.77,-97.5098,-2.028,71.597,175,75
2026-05-11 18:06:23.144,1,0.21,0.43,0.35,-48.419799999999995,62.972,83.42699999999999,175,75
2026-05-11 18:06:23.183,1,0.08,0.44,0.59,-24.0898,81.69200000000001,70.737,175,75
2026-05-11 18:06:23.183,1,-0.09,0.21,1.05,-15.989799999999999,92.732,57.697,175,75
2026-05-11 18:06:23.195,1,0.24,-0.44,1.01,-26.3498,88.642,42.446999999999996,175,75
2026-05-11 18:06:23.213,1,0.28,-0.08,0.67,-28.7298,107.242,49.457,175,75
2026-05-11 18:06:23.213,1,0.46,-0.08,1.09,-22.4498,115.652,42.207,175,75
2026-05-11 18:06:23.222,1,0.52,-0.22,1.32,-40.0098,112.122,42.086999999999996,175,75
2026-05-11 18:06:23.233,1,0.7,-0.39,1.3,-66.7798,123.882,42.937,175,75
2026-05-11 18:06:23.244,1,0.78,-0.4,1.44,-78.29979999999999,136.512,46.657,175,75
2026-05-11 18:06:23.256,1,0.87,-0.23,1.67,-93.35979999999999,157.242,47.937,175,75
2026-05-11 18:06:23.287,1,0.78,-0.06,1.81,-115.0698,155.232,45.677,175,75
2026-05-11 18:06:23.298,1,0.69,0.29,1.59,-149.9498,86.452,41.597,175,75
2026-05-11 18:06:23.298,1,0.64,0.38,1.4,-154.7698,23.402,35.437,175,75
2026-05-11 18:06:23.305,1,0.22,0.42,1.2,-163.2998,-1.5979999999999999,23.486999999999995,175,75
2026-05-11 18:06:23.327,1,-0.07,0.28,1.2,-142.5098,6.382,26.476999999999997,175,75
2026-05-11 18:06:23.346,1,-0.21,0.06,1.22,-151.40980000000002,-32.028,30.986999999999995,175,75
2026-05-11 18:06:23.358,1,-0.1,0.19,1.11,-141.1098,-69.708,30.677,175,75
2026-05-11 18:06:23.373,1,-0.28,1.43,0.98,-92.3898,-144.898,-1.0830000000000002,175,75
2026-05-11 18:06:23.404,1,0.14,1.3,0.94,-40.9898,-80.928,-32.303,175,75
2026-05-11 18:06:23.415,1,0.55,0.44,1.59,66.39020000000001,-58.007999999999996,-115.96300000000001,175,75
2026-05-11 18:06:23.433,1,0.29,0.79,0.9,107.12020000000001,-55.198,-196.513,175,75
2026-05-11 18:06:23.456,1,0.26,0.77,0.93,156.5102,-72.268,-233.713,175,75
2026-05-11 18:06:23.466,1,0.3,0.57,1.2,208.8302,-171.118,-271.513,175,75
2026-05-11 18:06:23.505,1,0.28,0.39,1.26,219.4402,-243.678,-288.163,175,75
2026-05-11 18:06:23.516,1,-0.18,0.33,1.14,211.8202,-362.26800000000003,-306.333,175,75
2026-05-11 18:06:23.525,1,-0.69,0.1,1.21,180.5402,-446.418,-305.723,175,75
2026-05-11 18:06:23.525,1,-1.03,-0.08,1.14,139.8102,-471.298,-304.323,175,75
2026-05-11 18:06:23.546,1,-1.21,-0.11,1.16,100.3002,-515.9879999999999,-289.873,175,75
2026-05-11 18:06:23.546,1,-1.39,-0.0,1.07,61.39020000000001,-560.2579999999999,-268.463,175,75
2026-05-11 18:06:23.572,1,-1.92,0.88,0.27,-72.7498,-637.028,-183.403,175,75
2026-05-11 18:06:23.588,1,-2.02,1.47,0.15,-115.67979999999999,-596.848,-124.383,175,75
2026-05-11 18:06:23.617,1,-1.73,1.86,-0.62,-160.7998,-551.848,26.957,175,75
2026-05-11 18:06:23.653,1,-2.96,2.21,0.34,-74.8898,5.162,155.127,175,75
2026-05-11 18:06:23.668,1,-0.01,-0.72,2.16,55.110200000000006,126.752,113.977,175,75
2026-05-11 18:06:23.679,1,-1.26,-0.38,1.73,88.53020000000001,135.962,75.67699999999999,175,75
2026-05-11 18:06:23.692,1,-1.44,0.01,2.03,182.9802,305.902,129.947,175,75
2026-05-11 18:06:23.705,1,1.34,-1.36,1.21,181.5802,161.812,126.227,175,75
2026-05-11 18:06:23.716,1,1.5,-1.85,0.96,56.450199999999995,86.452,71.107,175,75
2026-05-11 18:06:23.716,1,1.45,-1.68,0.86,-8.669799999999999,18.522000000000002,52.446999999999996,175,75
2026-05-11 18:06:23.727,1,0.41,-2.07,1.1,-32.689800000000005,-66.048,41.347,175,75
2026-05-11 18:06:23.730,1,0.24,-1.72,0.36,-27.1998,-63.428,47.266999999999996,175,75
2026-05-11 18:06:23.760,1,0.91,-2.1,0.39,35.970200000000006,17.602,31.597,175,75
2026-05-11 18:06:23.780,1,1.33,-1.02,1.42,105.23020000000001,132.852,-73.40299999999999,175,75
2026-05-11 18:06:23.860,1,-0.16,1.56,1.62,10.720200000000002,-240.078,-21.692999999999998,175,75
2026-05-11 18:06:23.879,1,-0.06,1.44,2.32,-14.2198,-398.61800000000005,18.366999999999997,175,75
2026-05-11 18:06:23.895,1,-0.11,0.86,1.75,-30.5598,-345.07800000000003,-32.063,175,75
2026-05-11 18:06:23.907,1,0.01,0.99,1.47,0.720200000000002,-302.028,-57.123000000000005,175,75
2026-05-11 18:06:23.964,1,0.25,1.14,1.55,116.1502,-197.518,-118.223,175,75
2026-05-11 18:06:23.986,1,-0.07,1.21,1.61,158.1002,-173.618,-130.113,175,75
2026-05-11 18:06:23.993,1,-0.27,1.26,1.67,191.09019999999998,-147.338,-134.073,175,75
2026-05-11 18:06:24.004,1,-0.37,1.28,1.7,215.97019999999998,-123.488,-127.493,175,75
2026-05-11 18:06:24.040,1,-0.39,1.23,1.66,228.28019999999998,-113.428,-122.183,175,75
2026-05-11 18:06:24.054,1,-0.43,1.13,1.6,241.8802,-100.508,-110.783,175,75
2026-05-11 18:06:24.064,1,-0.45,1.07,1.47,244.2002,-105.138,-101.763,175,75
2026-05-11 18:06:24.064,1,-0.56,1.11,1.51,251.09019999999998,-114.228,-83.773,175,75
2026-05-11 18:06:24.100,1,-0.64,0.97,1.11,242.43019999999999,-156.658,-52.673,175,75
2026-05-11 18:06:24.108,1,-1.19,0.83,0.64,190.1102,-163.308,-38.773,175,75
2026-05-11 18:06:24.121,1,-1.2,1.04,0.43,149.2602,-137.878,1.5969999999999995,175,75
2026-05-11 18:06:24.132,1,-1.11,1.22,0.42,134.5002,-134.408,35.067,175,75
2026-05-11 18:06:24.137,1,-1.03,1.15,0.22,112.0002,-132.088,63.236999999999995,175,75
2026-05-11 18:06:24.153,1,-1.1,1.13,-0.29,30.300200000000004,-163.368,126.71699999999998,175,75
2026-05-11 18:06:24.160,1,-1.0,1.14,-0.59,-0.0697999999999972,-179.528,140.377,175,75
2026-05-11 18:06:24.171,1,-0.43,1.19,-0.78,-9.829799999999999,-191.788,133.487,175,75
2026-05-11 18:06:24.211,1,-7.92,-0.4,-6.32,-97.87979999999999,-339.288,462.267,175,75
2026-05-11 18:06:24.247,1,1.67,1.36,1.11,-91.5298,73.212,111.837,175,75
2026-05-11 18:06:24.321,1,-0.4,3.65,-0.28,-205.5598,-109.158,81.597,175,75
2026-05-11 18:06:24.370,1,0.01,0.34,0.75,-20.7398,36.992000000000004,27.637,175,75
2026-05-11 18:06:24.398,1,0.19,0.51,0.58,-6.529799999999998,26.452,41.717,175,75
2026-05-11 18:06:24.401,1,0.06,0.42,0.41,-2.689799999999998,14.432,39.586999999999996,175,75
2026-05-11 18:06:24.425,1,-0.09,0.56,0.52,17.860200000000003,33.032000000000004,46.897,175,75
2026-05-11 18:06:24.440,1,-0.05,0.5,0.74,26.450200000000002,42.362,47.327,175,75
2026-05-11 18:06:24.462,1,-0.2,0.57,0.57,32.1202,35.412,31.537,175,75
2026-05-11 18:06:24.472,1,-0.13,0.59,0.56,35.8402,37.662,22.387,175,75
2026-05-11 18:06:24.512,1,-0.23,0.59,0.77,33.2802,34.552,12.566999999999998,175,75
2026-05-11 18:06:24.512,1,-0.27,0.6,0.72,30.6002,31.872,6.897,175,75
2026-05-11 18:06:24.553,1,-0.27,0.66,0.66,35.970200000000006,44.372,-1.3330000000000002,175,75
2026-05-11 18:06:24.588,1,-0.19,0.63,0.82,28.410200000000003,41.752,-12.243,175,75
2026-05-11 18:06:24.603,1,-0.18,0.75,0.68,23.2802,31.932000000000002,-16.333,175,75
2026-05-11 18:06:24.625,1,-0.11,0.6,0.46,23.5302,25.592000000000002,-18.713,175,75
2026-05-11 18:06:24.638,1,-0.01,0.55,0.54,25.480200000000004,32.302,-21.083,175,75
2026-05-11 18:06:24.651,1,-0.04,0.55,0.56,17.610200000000003,23.822000000000003,-24.073,175,75
2026-05-11 18:06:24.668,1,-0.06,0.59,0.51,16.880200000000002,24.622,-26.512999999999998,175,75
2026-05-11 18:06:24.683,1,-0.05,0.54,0.47,21.450200000000002,31.812,-32.493,175,75
2026-05-11 18:06:24.706,1,-0.03,0.54,0.53,24.2602,35.712,-38.343,175,75
2026-05-11 18:06:24.736,1,0.02,0.56,0.47,16.090200000000003,28.152,-44.623000000000005,175,75
2026-05-11 18:06:24.764,1,0.05,0.6,0.49,8.710200000000002,18.272000000000002,-44.683,175,75
2026-05-11 18:06:24.780,1,-0.0,0.59,0.53,8.830200000000001,17.602,-43.463,175,75
2026-05-11 18:06:24.780,1,0.04,0.56,0.49,8.2802,18.402,-43.953,175,75
2026-05-11 18:06:24.791,1,0.03,0.58,0.41,11.3902,19.072000000000003,-43.463,175,75
2026-05-11 18:06:24.807,1,0.1,0.58,0.45,14.380200000000002,21.992,-39.993,175,75
2026-05-11 18:06:24.829,1,0.1,0.56,0.44,12.730200000000002,15.042,-39.263,175,75
2026-05-11 18:06:24.841,1,0.09,0.57,0.42,18.8302,14.802,-39.323,175,75
2026-05-11 18:06:24.856,1,0.09,0.59,0.42,25.0502,10.102,-39.133,175,75
2026-05-11 18:06:24.857,1,0.12,0.56,0.38,28.8302,6.082,-40.963,175,75
2026-05-11 18:06:24.875,1,0.05,0.57,0.4,42.25020000000001,6.452,-39.263,175,75
2026-05-11 18:06:24.902,1,0.21,0.54,0.35,54.3202,-4.158,-35.053,175,75
2026-05-11 18:06:24.923,1,0.21,0.53,0.29,55.17020000000001,-9.228,-35.603,175,75
2026-05-11 18:06:24.961,1,0.08,0.48,0.35,61.8802,-20.137999999999998,-41.573,175,75
2026-05-11 18:06:24.974,1,0.13,0.43,0.44,73.4702,-19.587999999999997,-37.303,175,75
2026-05-11 18:06:25.020,1,0.19,0.19,0.45,87.98020000000001,-54.838,-61.023,175,75
2026-05-11 18:06:25.035,1,0.22,0.08,0.52,88.53020000000001,-80.688,-78.773,175,75
2026-05-11 18:06:25.059,1,0.56,-0.32,0.6,96.2102,-129.768,-112.85300000000001,175,75
2026-05-11 18:06:25.101,1,1.92,-1.55,1.89,118.4102,-408.978,-195.413,175,75
2026-05-11 18:06:25.120,1,1.64,-1.19,1.7,37.0602,-448.548,-240.113,175,75
2026-05-11 18:06:25.160,1,-1.35,0.38,2.27,-333.1198,-1000.1379999999999,-55.543,175,75
2026-05-11 18:06:25.293,1,0.51,-0.63,0.73,-460.9198,46.992000000000004,15.866999999999999,175,75
2026-05-11 18:06:25.298,1,0.51,-0.56,0.77,-454.3398,54.072,-4.193,175,75
2026-05-11 18:06:25.333,1,0.34,-0.93,1.95,-397.9398,168.952,-51.393,175,75
2026-05-11 18:06:25.353,1,0.48,-1.24,2.91,-351.0498,153.702,-82.733,175,75
2026-05-11 18:06:25.378,1,-0.01,-0.6,3.3,-214.9498,158.882,-188.583,175,75
2026-05-11 18:06:25.397,1,-0.27,-0.18,3.87,-81.5298,137.852,-267.183,175,75
2026-05-11 18:06:25.426,1,-0.85,0.62,2.82,165.2302,-7.268,-417.913,175,75
2026-05-11 18:06:25.426,1,-1.07,0.5,2.56,247.43019999999999,17.422,-470.603,175,75
2026-05-11 18:06:25.456,1,-1.15,-0.73,2.9,468.1002,-71.658,-540.413,175,75
2026-05-11 18:06:25.456,1,-1.31,-1.82,2.52,561.0902,-191.178,-557.433,175,75
2026-05-11 18:06:25.478,1,-1.93,-2.48,1.85,631.8802,-265.37800000000004,-548.403,175,75
2026-05-11 18:06:25.514,1,-2.09,-3.64,2.17,682.1902,-307.69800000000004,-518.583,175,75
2026-05-11 18:06:25.525,1,-2.31,-4.43,2.43,704.5002,-357.458,-504.263,175,75
2026-05-11 18:06:25.525,1,-2.42,-5.27,2.61,702.3102,-400.62800000000004,-493.89300000000003,175,75
2026-05-11 18:06:25.550,1,-4.85,-6.04,-0.3,677.9202,-305.92800000000005,-490.473,175,75
2026-05-11 18:06:25.593,1,-3.26,-2.49,0.92,494.9302,-354.588,-228.713,175,75
2026-05-11 18:06:25.623,1,-2.68,-0.94,-0.37,320.9102,-158.548,-150.603,175,75
2026-05-11 18:06:25.638,1,-2.21,0.48,-0.22,198.9502,-124.958,-9.933,175,75
2026-05-11 18:06:25.687,1,-1.93,0.82,-0.36,174.75019999999998,-94.588,26.046999999999997,175,75
2026-05-11 18:06:25.697,1,-1.58,0.68,-0.26,148.65019999999998,-67.948,58.607,175,75
2026-05-11 18:06:25.719,1,-0.91,1.41,-0.48,112.6102,-8.978,111.047,175,75
2026-05-11 18:06:25.730,1,-0.53,1.65,-0.14,106.1502,26.572000000000003,118.917,175,75
2026-05-11 18:06:25.763,1,-0.26,1.35,0.85,62.00020000000001,-149.588,118.05699999999999,175,75
2026-05-11 18:06:25.772,1,-0.28,1.31,0.75,48.6502,-210.508,124.58699999999999,175,75
2026-05-11 18:06:25.835,1,-0.14,1.21,0.55,38.4102,-270.86800000000005,137.567,175,75
2026-05-11 18:06:25.840,1,-0.09,1.17,0.57,44.3202,-270.37800000000004,134.947,175,75
2026-05-11 18:06:25.888,1,-0.03,1.14,0.59,50.970200000000006,-268.12800000000004,134.457,175,75
2026-05-11 18:06:25.911,1,-0.01,1.06,0.71,64.4402,-269.588,127.267,175,75
2026-05-11 18:06:25.922,1,0.01,1.0,0.73,70.8402,-274.228,128.057,175,75
2026-05-11 18:06:25.961,1,0.05,0.85,0.73,80.2302,-269.588,127.207,175,75
2026-05-11 18:06:26.002,1,-0.15,-0.98,1.17,113.7702,-308.978,146.537,175,75
2026-05-11 18:06:26.026,1,-0.17,-0.82,1.12,90.9702,-322.208,135.617,175,75
2026-05-11 18:06:26.057,1,0.04,-0.69,0.35,58.470200000000006,-274.838,155.677,175,75
2026-05-11 18:06:26.057,1,-0.75,-1.78,0.09,24.3202,-293.12800000000004,201.287,175,75
2026-05-11 18:06:26.181,1,-0.19,1.36,0.24,-186.0498,-546.728,163.787,175,75
2026-05-11 18:06:26.207,1,-0.07,1.22,-0.09,-77.4498,-17.758,161.777,175,75
2026-05-11 18:06:26.356,1,-0.05,0.26,-0.21,-5.069799999999997,-26.118,-34.933,175,75
2026-05-11 18:06:26.438,1,1.03,-0.8,2.03,244.2602,138.342,-131.333,175,75
2026-05-11 18:06:26.451,1,0.76,0.35,1.78,284.7502,58.762,-130.41299999999998,175,75
2026-05-11 18:06:26.484,1,-0.05,1.58,0.35,67.8002,43.342,-52.433,175,75
2026-05-11 18:06:26.506,1,0.54,0.97,1.6,124.56020000000001,21.572000000000003,12.206999999999999,175,75
2026-05-11 18:06:26.552,1,0.44,1.31,0.74,132.0602,55.652,-36.943,175,75
2026-05-11 18:06:26.564,1,0.37,1.35,0.76,150.3002,76.992,-39.683,175,75
2026-05-11 18:06:26.589,1,0.4,1.38,0.9,160.5402,95.292,-39.263,175,75
2026-05-11 18:06:26.589,1,0.43,1.33,0.85,148.8302,77.852,-34.933,175,75
2026-05-11 18:06:26.603,1,0.33,1.32,0.66,129.3202,66.202,-27.973,175,75
2026-05-11 18:06:26.615,1,0.15,1.42,0.5,101.45020000000001,54.682,-17.673000000000002,175,75
2026-05-11 18:06:26.633,1,0.3,1.5,0.38,82.6102,33.032000000000004,-6.693,175,75
2026-05-11 18:06:26.644,1,0.05,1.35,0.0,25.840200000000003,11.382,21.897,175,75
2026-05-11 18:06:26.655,1,-0.08,1.47,-0.09,1.510200000000001,13.822,45.376999999999995,175,75
2026-05-11 18:06:26.666,1,-0.03,1.41,0.05,-24.6998,15.102,71.28699999999999,175,75
2026-05-11 18:06:26.677,1,-2.51,1.24,-0.56,-73.60979999999999,-114.468,180.807,175,75
2026-05-11 18:06:26.696,1,0.35,-1.62,-3.1,-231.2898,13.581999999999999,214.21699999999998,175,75
2026-05-11 18:06:26.707,1,-0.17,-2.76,1.67,117.2502,593.822,159.647,175,75
2026-05-11 18:06:26.741,1,1.78,0.79,2.49,0.050200000000000244,-98.30799999999999,198.667,175,75
2026-05-11 18:06:26.806,1,2.53,-10.22,5.48,-55.0098,230.532,289.037,175,75
2026-05-11 18:06:26.819,1,-2.18,1.11,0.82,-306.6598,-201.908,67.567,175,75
2026-05-11 18:06:26.819,1,0.44,4.3,0.33,-236.1698,-21.848,147.99699999999999,175,75
2026-05-11 18:06:29.090,1,-1.15,-0.69,-0.5,-330.6198,188.322,254.67700000000002,175,75
2026-05-11 18:06:29.102,1,-0.37,-0.94,0.49,-325.1298,260.63199999999995,281.387,175,75
2026-05-11 18:06:29.126,1,0.1,-1.28,0.83,-341.0398,246.422,242.237,175,75
2026-05-11 18:06:29.136,1,0.35,-0.81,0.88,-375.9198,265.332,206.137,175,75
2026-05-11 18:06:29.151,1,0.51,-0.26,1.39,-379.20980000000003,290.82199999999995,204.187,175,75
2026-05-11 18:06:29.162,1,0.57,0.13,1.78,-338.0598,238.622,190.347,175,75
2026-05-11 18:06:29.173,1,0.7,0.39,2.03,-322.6898,214.782,189.987,175,75
2026-05-11 18:06:29.197,1,0.85,0.6,2.17,-303.9698,196.122,186.74699999999999,175,75
2026-05-11 18:06:29.208,1,0.96,0.74,2.3,-267.3198,176.792,182.487,175,75
2026-05-11 18:06:29.219,1,1.05,0.67,2.59,-216.77980000000002,159.782,156.267,175,75
2026-05-11 18:06:29.219,1,1.11,0.77,2.79,-182.8098,130.822,135.837,175,75
2026-05-11 18:06:29.230,1,1.0,0.93,2.81,-141.09980000000002,111.182,103.027,175,75
2026-05-11 18:06:29.252,1,1.05,1.27,3.04,-85.2498,103.562,60.527,175,75
2026-05-11 18:06:29.252,1,1.32,1.52,3.42,-22.259800000000002,68.072,19.857,175,75
2026-05-11 18:06:29.265,1,1.45,1.55,3.51,48.4102,-2.6580000000000004,-34.533,175,75
2026-05-11 18:06:29.289,1,1.34,1.49,3.22,113.1002,-45.647999999999996,-84.10300000000001,175,75
2026-05-11 18:06:29.300,1,1.39,1.39,2.86,184.0802,-59.858,-138.613,175,75
2026-05-11 18:06:29.329,1,0.92,0.23,2.22,402.92019999999997,-55.338,-308.433,175,75
2026-05-11 18:06:29.339,1,0.83,-0.3,1.99,473.5902,-30.648,-342.883,175,75
2026-05-11 18:06:29.362,1,0.58,-1.8,1.9,624.0202,0.692,-368.123,175,75
2026-05-11 18:06:29.383,1,0.5,-2.48,1.78,665.2402,20.272000000000002,-366.543,175,75
2026-05-11 18:06:29.416,1,0.12,-5.02,1.77,735.3002,8.922,-329.403,175,75
2026-05-11 18:06:29.480,1,-0.54,-4.07,0.12,502.92019999999997,-204.248,-281.783,175,75
2026-05-11 18:06:29.480,1,-0.36,-2.45,-0.3,400.6002,-114.05799999999999,-223.123,175,75
2026-05-11 18:06:29.510,1,-0.13,-0.27,0.08,274.7502,59.532000000000004,-185.203,175,75
2026-05-11 18:06:29.526,1,-0.07,0.25,0.23,164.1402,130.822,-78.493,175,75
2026-05-11 18:06:29.537,1,-0.03,0.5,0.13,116.4602,135.572,-46.113,175,75
2026-05-11 18:06:29.549,1,0.04,0.59,0.29,2.8602000000000007,201.062,7.177000000000001,175,75
2026-05-11 18:06:29.630,1,-0.0,1.54,0.28,-73.8498,66.182,121.017,175,75
2026-05-11 18:06:29.640,1,0.09,1.62,0.37,-65.48979999999999,76.97200000000001,119.737,175,75
2026-05-11 18:06:29.652,1,0.05,1.71,0.34,-54.3998,86.552,116.017,175,75
2026-05-11 18:06:29.675,1,0.18,1.99,0.51,-28.969799999999996,156.552,105.717,175,75
2026-05-11 18:06:29.693,1,0.29,1.64,0.62,-24.759800000000002,170.022,96.747,175,75
2026-05-11 18:06:29.720,1,0.39,1.48,0.82,-37.389799999999994,184.532,98.157,175,75
2026-05-11 18:06:29.746,1,0.52,1.38,1.0,-47.74979999999999,167.952,94.127,175,75
2026-05-11 18:06:29.758,1,0.56,1.36,0.94,-51.3498,172.282,89.437,175,75
2026-05-11 18:06:29.794,1,0.7,1.05,1.15,-64.2098,172.952,80.657,175,75
2026-05-11 18:06:29.816,1,0.83,0.98,1.38,-84.7598,120.882,103.767,175,75
2026-05-11 18:06:29.830,1,0.86,0.94,1.41,-96.0398,102.712,118.39699999999999,175,75
2026-05-11 18:06:29.892,1,0.97,0.57,1.44,-115.73979999999999,81.852,124.007,175,75
2026-05-11 18:06:29.905,1,0.91,0.26,1.44,-123.5398,78.502,125.83699999999999,175,75
2026-05-11 18:06:29.953,1,0.48,-0.64,1.12,-165.7998,71.612,170.837,175,75
2026-05-11 18:06:29.980,1,0.57,-0.76,1.16,-149.7598,108.382,169.067,175,75
2026-05-11 18:06:29.980,1,0.55,-0.83,1.21,-143.1798,110.632,168.397,175,75
2026-05-11 18:06:29.987,1,0.45,-0.89,1.2,-140.4298,99.902,168.397,175,75
2026-05-11 18:06:30.002,1,0.4,-0.85,1.09,-134.1498,90.94200000000001,165.527,175,75
2026-05-11 18:06:30.041,1,0.39,-0.6,1.13,-117.1398,88.742,163.457,175,75
2026-05-11 18:06:30.041,1,0.52,-0.25,1.19,-111.1698,72.892,155.227,175,75
2026-05-11 18:06:30.052,1,0.65,0.11,1.17,-110.85979999999999,74.412,156.267,175,75
2026-05-11 18:06:30.098,1,1.56,0.28,1.56,-66.6498,160.572,149.737,175,75
2026-05-11 18:06:30.137,1,2.26,1.38,2.81,6.580200000000001,228.012,114.557,175,75
2026-05-11 18:06:30.149,1,-1.0,0.44,0.97,90.7202,34.782000000000004,75.837,175,75
2026-05-11 18:06:30.160,1,-0.51,-0.3,1.65,91.9402,175.022,100.597,175,75
2026-05-11 18:06:30.171,1,0.08,-0.35,1.19,-15.249799999999997,98.44200000000001,126.507,175,75
2026-05-11 18:06:30.203,1,0.48,0.55,0.45,-47.8698,69.052,110.407,175,75
2026-05-11 18:06:30.223,1,-0.13,0.37,1.04,-22.6898,94.902,95.167,175,75
2026-05-11 18:06:30.223,1,-0.07,-0.12,1.29,-18.6698,119.232,101.197,175,75
2026-05-11 18:06:30.262,1,0.24,0.3,0.17,-6.959799999999998,123.502,81.747,175,75
2026-05-11 18:06:30.273,1,0.18,0.12,0.37,23.8302,134.292,67.667,175,75
2026-05-11 18:06:30.285,1,-0.11,0.01,0.68,57.00020000000001,152.522,48.097,175,75
2026-05-11 18:06:30.308,1,0.35,-0.34,0.69,74.0202,193.742,31.686999999999998,175,75
2026-05-11 18:06:30.320,1,0.54,-0.46,0.73,73.7702,201.792,29.247,175,75
2026-05-11 18:06:30.354,1,0.69,-0.3,0.85,81.3302,217.282,21.196999999999996,175,75
2026-05-11 18:06:30.367,1,0.91,-0.25,0.95,98.53020000000001,250.942,4.616999999999999,175,75
2026-05-11 18:06:30.380,1,1.21,-0.27,1.02,119.0802,270.57199999999995,-17.883,175,75
2026-05-11 18:06:30.391,1,1.35,-0.02,1.08,124.6902,281.792,-28.433,175,75
2026-05-11 18:06:30.411,1,0.55,1.06,1.15,18.590200000000003,170.212,-16.783,175,75
2026-05-11 18:06:30.421,1,0.45,0.72,1.03,-38.4798,131.552,17.667,175,75
2026-05-11 18:06:30.448,1,0.49,0.38,1.02,-81.1698,118.622,38.887,175,75
2026-05-11 18:06:30.460,1,0.17,0.8,1.45,-147.2598,167.522,106.687,175,75
2026-05-11 18:06:30.501,1,0.09,0.25,-0.07,-183.96980000000002,283.19199999999995,148.157,175,75
2026-05-11 18:06:30.531,1,0.4,0.19,1.63,-76.0398,368.19199999999995,78.697,175,75
2026-05-11 18:06:30.601,1,0.52,0.33,1.87,-59.7598,324.782,64.497,175,75
2026-05-11 18:06:30.636,1,0.42,1.3,1.61,9.380200000000002,123.44200000000001,-15.562999999999999,175,75
2026-05-11 18:06:30.668,1,0.41,1.11,1.05,143.7102,43.922000000000004,-123.673,175,75
2026-05-11 18:06:30.696,1,0.32,1.2,1.05,176.8202,39.172000000000004,-142.03300000000002,175,75
2026-05-11 18:06:30.720,1,0.36,1.35,1.3,228.2902,10.212,-147.583,175,75
2026-05-11 18:06:30.732,1,0.41,1.19,1.61,279.8702,-71.138,-151.973,175,75
2026-05-11 18:06:30.740,1,0.3,0.91,1.58,290.48019999999997,-150.338,-172.943,175,75
2026-05-11 18:06:30.750,1,0.23,0.74,1.32,289.0202,-191.868,-187.583,175,75
2026-05-11 18:06:30.770,1,0.08,0.63,1.28,284.8702,-209.608,-201.973,175,75
2026-05-11 18:06:30.770,1,0.01,0.36,1.34,282.61019999999996,-243.638,-207.823,175,75
2026-05-11 18:06:30.788,1,-0.16,-0.0,0.96,264.8702,-268.088,-240.563,175,75
2026-05-11 18:06:30.803,1,-2.34,-0.07,-0.94,138.0402,-514.978,-214.343,175,75
2026-05-11 18:06:30.803,1,-5.93,-0.26,-4.09,37.3102,-511.49800000000005,-147.943,175,75
2026-05-11 18:06:30.828,1,0.22,1.37,-2.09,-45.919799999999995,251.002,158.157,175,75
2026-05-11 18:06:30.839,1,-1.67,2.17,3.97,151.8802,579.902,106.937,175,75
2026-05-11 18:06:30.850,1,1.4,1.78,4.88,64.6902,216.122,88.027,175,75
2026-05-11 18:06:30.927,1,0.62,-0.07,0.93,58.220200000000006,183.252,57.417,175,75
2026-05-11 18:06:30.965,1,0.64,0.08,1.36,-29.579799999999995,105.272,60.596999999999994,175,75
2026-05-11 18:06:30.985,1,0.41,0.34,1.02,-33.669799999999995,105.632,61.997,175,75
2026-05-11 18:06:30.998,1,0.4,0.41,0.9,-25.249799999999997,111.182,63.577,175,75
2026-05-11 18:06:31.016,1,0.43,0.65,0.81,-10.009799999999998,140.142,67.727,175,75
2026-05-11 18:06:31.041,1,0.32,0.46,0.98,-1.7097999999999978,160.272,66.327,175,75
2026-05-11 18:06:31.054,1,0.33,0.47,1.12,10.720200000000002,188.192,77.607,175,75
2026-05-11 18:06:31.072,1,0.53,0.39,1.23,10.360200000000003,190.572,79.127,175,75
2026-05-11 18:06:31.099,1,0.31,0.27,0.87,-8.729799999999997,124.47200000000001,61.876999999999995,175,75
2026-05-11 18:06:31.120,1,0.08,0.54,0.67,-20.069799999999997,107.522,56.807,175,75
2026-05-11 18:06:31.132,1,-0.07,0.61,0.5,-14.399799999999999,107.032,56.016999999999996,175,75
2026-05-11 18:06:31.144,1,-0.3,0.75,0.45,-10.1298,157.282,59.497,175,75
2026-05-11 18:06:31.153,1,-0.36,0.7,0.36,-0.4298000000000002,170.882,58.577,175,75
2026-05-11 18:06:31.176,1,-0.09,0.7,0.53,12.310200000000002,174.172,68.517,175,75
2026-05-11 18:06:31.186,1,-0.08,0.8,0.38,11.700200000000002,183.252,69.377,175,75
2026-05-11 18:06:31.208,1,-0.06,0.94,0.44,21.0302,192.892,77.057,175,75
2026-05-11 18:06:31.208,1,0.01,0.98,0.46,25.3002,203.012,86.807,175,75
2026-05-11 18:06:31.240,1,0.52,0.98,0.97,9.260200000000001,206.422,89.247,175,75
2026-05-11 18:06:31.276,1,0.67,1.07,1.19,5.540200000000002,184.112,83.337,175,75
2026-05-11 18:06:31.298,1,1.29,1.45,1.16,-6.099799999999998,176.302,64.497,175,75
2026-05-11 18:06:31.298,1,1.69,1.34,1.38,20.970200000000002,159.532,39.986999999999995,175,75
2026-05-11 18:06:31.309,1,1.92,1.31,1.14,32.7402,2.952,-29.283,175,75
2026-05-11 18:06:31.325,1,-0.89,1.96,0.18,42.190200000000004,-26.808,29.497,175,75
2026-05-11 18:06:31.433,1,0.02,0.14,1.08,82.31020000000001,287.642,106.137,175,75
2026-05-11 18:06:31.446,1,-0.33,0.41,2.31,-2.689799999999998,56.002,68.697,175,75
2026-05-11 18:06:31.566,1,0.54,-0.03,0.67,0.5402000000000022,122.102,84.187,175,75
2026-05-11 18:06:31.577,1,-0.11,0.23,0.42,67.2502,119.72200000000001,-6.543,175,75
2026-05-11 18:06:31.577,1,-0.19,0.24,0.4,92.1902,122.952,-28.192999999999998,175,75
2026-05-11 18:06:31.645,1,-0.17,0.14,0.46,127.98020000000001,132.832,-45.563,175,75
2026-05-11 18:06:31.645,1,0.42,-0.45,0.84,157.7402,141.792,-57.763000000000005,175,75
2026-05-11 18:06:31.666,1,0.85,1.1,1.25,49.3802,88.382,-46.483000000000004,175,75
2026-05-11 18:06:31.666,1,0.38,1.39,0.98,-16.289799999999996,79.842,3.8870000000000005,175,75
2026-05-11 18:06:31.687,1,0.32,1.23,1.04,-57.8698,49.412,44.007,175,75
2026-05-11 18:06:31.712,1,-0.26,-0.92,0.28,-369.0898,361.36199999999997,206.99699999999999,175,75
2026-05-11 18:06:31.730,1,0.26,-0.42,1.28,-355.9198,321.42199999999997,195.46699999999998,175,75
2026-05-11 18:06:31.741,1,0.52,-0.01,1.68,-360.9798,261.61199999999997,186.137,175,75
2026-05-11 18:06:31.775,1,0.52,0.4,1.41,-344.57980000000003,241.182,186.327,175,75
2026-05-11 18:06:31.793,1,0.69,0.33,1.9,-296.6498,275.57199999999995,171.267,175,75
2026-05-11 18:06:31.793,1,0.72,0.28,2.19,-248.0598,278.86199999999997,141.077,175,75
2026-05-11 18:06:31.816,1,0.87,0.74,3.12,-199.27980000000002,238.322,81.807,175,75
2026-05-11 18:06:31.829,1,1.02,0.93,3.4,-159.6998,173.502,35.287,175,75
2026-05-11 18:06:31.840,1,1.16,1.08,3.46,-110.85979999999999,107.83200000000001,-5.013,175,75
2026-05-11 18:06:31.888,1,0.91,1.34,2.82,147.68019999999999,11.852,-185.75300000000001,175,75
2026-05-11 18:06:31.913,1,0.6,0.07,2.41,391.7602,-13.998,-334.773,175,75
2026-05-11 18:06:31.918,1,0.25,-0.92,2.13,495.11019999999996,-51.678,-379.103,175,75
2026-05-11 18:06:31.930,1,-0.2,-1.92,1.69,536.4002,-54.058,-399.593,175,75
2026-05-11 18:06:31.949,1,-0.4,-2.69,1.5,586.6401999999999,-64.858,-397.093,175,75
2026-05-11 18:06:31.971,1,-0.43,-2.94,1.54,622.0002,-74.788,-385.563,175,75
2026-05-11 18:06:31.971,1,-1.0,-4.09,1.03,597.6102,-81.498,-374.533,175,75
2026-05-11 18:06:31.994,1,-0.04,-5.17,1.93,554.9302,-88.328,-329.223,175,75
2026-05-11 18:06:32.046,1,-0.77,-2.31,0.13,451.0302,67.342,-213.983,175,75
2026-05-11 18:06:32.046,1,-0.67,-1.51,-0.03,379.9902,119.902,-199.713,175,75
2026-05-11 18:06:32.068,1,-0.58,-1.17,-0.05,308.1602,166.732,-159.53300000000002,175,75
2026-05-11 18:06:32.068,1,-0.7,-0.93,0.04,249.81019999999998,159.662,-135.503,175,75
2026-05-11 18:06:32.080,1,-0.78,-0.19,0.06,175.9102,130.822,-93.553,175,75
2026-05-11 18:06:32.092,1,-0.57,0.41,-0.01,125.3002,119.052,-54.653,175,75
2026-05-11 18:06:32.103,1,-0.51,0.93,0.08,49.5102,137.342,15.837000000000002,175,75
2026-05-11 18:06:32.164,1,-0.24,1.14,0.28,33.7702,158.622,51.626999999999995,175,75
2026-05-11 18:06:32.191,1,-0.12,1.01,0.32,14.630200000000002,152.162,72.967,175,75
2026-05-11 18:06:32.233,1,-0.01,0.97,-0.04,-10.1298,193.862,95.467,175,75
2026-05-11 18:06:32.233,1,-0.01,1.22,-0.04,-9.759799999999998,216.002,102.487,175,75
2026-05-11 18:06:32.255,1,0.04,1.4,0.12,-6.169799999999999,245.022,116.077,175,75
2026-05-11 18:06:32.255,1,0.15,1.37,0.32,-8.729799999999997,249.112,121.87700000000001,175,75
2026-05-11 18:06:32.265,1,0.25,1.49,0.38,-22.079799999999995,238.862,121.87700000000001,175,75
2026-05-11 18:06:32.281,1,0.29,1.62,0.46,-33.909800000000004,233.192,129.557,175,75
2026-05-11 18:06:32.281,1,0.38,1.71,0.72,-54.2098,211.912,145.837,175,75
2026-05-11 18:06:32.293,1,0.46,1.52,0.73,-62.8698,196.182,145.107,175,75
2026-05-11 18:06:32.293,1,0.47,1.34,0.7,-78.8498,187.40200000000002,136.74699999999999,175,75
2026-05-11 18:06:32.326,1,0.49,1.25,0.67,-93.7298,192.282,136.137,175,75
2026-05-11 18:06:32.326,1,0.51,1.11,0.62,-103.4198,197.892,134.24699999999999,175,75
2026-05-11 18:06:32.338,1,0.5,1.04,0.63,-113.05979999999998,205.022,131.74699999999999,175,75
2026-05-11 18:06:32.338,1,0.5,1.02,0.68,-122.86979999999998,217.772,132.607,175,75
2026-05-11 18:06:32.354,1,0.58,0.9,0.81,-139.3998,214.292,140.347,175,75
2026-05-11 18:06:32.490,1,0.73,0.53,0.77,-172.0798,189.172,131.74699999999999,175,75
2026-05-11 18:06:32.490,1,0.78,0.52,0.9,-183.1198,164.602,133.577,175,75
2026-05-11 18:06:32.505,1,0.78,0.54,0.99,-196.09980000000002,135.692,135.597,175,75
2026-05-11 18:06:32.505,1,0.74,0.5,0.98,-207.8698,114.232,134.307,175,75
2026-05-11 18:06:32.537,1,0.55,0.37,0.9,-217.68980000000002,99.352,134.557,175,75
2026-05-11 18:06:32.547,1,0.5,0.11,0.81,-218.7898,98.862,141.74699999999999,175,75
2026-05-11 18:06:32.547,1,0.45,-0.11,0.78,-230.12980000000002,117.642,147.417,175,75
2026-05-11 18:06:32.559,1,0.2,-0.26,0.84,-146.2298,270.212,128.767,175,75
2026-05-11 18:06:32.602,1,0.18,0.01,1.09,-40.0698,302.772,83.637,175,75
2026-05-11 18:06:32.615,1,0.33,0.31,1.2,26.0302,277.582,57.417,175,75
2026-05-11 18:06:32.641,1,0.4,0.43,1.2,61.64020000000001,280.142,45.957,175,75
2026-05-11 18:06:32.656,1,0.45,0.49,1.25,74.6302,279.532,43.946999999999996,175,75
2026-05-11 18:06:32.678,1,0.62,0.77,0.36,-24.579799999999995,173.252,42.236999999999995,175,75
2026-05-11 18:06:32.708,1,-0.21,2.38,3.57,102.8602,146.302,134.067,175,75
2026-05-11 18:06:32.766,1,-0.61,-0.14,1.54,101.64020000000001,170.022,181.567,175,75
2026-05-11 18:06:32.825,1,0.46,-0.06,0.92,72.8602,136.002,141.627,175,75
2026-05-11 18:06:32.865,1,0.3,0.19,1.09,36.940200000000004,122.642,123.697,175,75
2026-05-11 18:06:32.881,1,0.01,0.03,1.32,14.080200000000001,104.292,119.987,175,75
2026-05-11 18:06:32.894,1,-0.28,0.25,1.0,-12.509799999999998,90.512,108.457,175,75
2026-05-11 18:06:32.908,1,-0.31,-0.01,0.62,13.7702,112.58200000000001,101.627,175,75
2026-05-11 18:06:32.908,1,-0.08,-0.21,0.37,39.6302,139.232,88.337,175,75
2026-05-11 18:06:32.920,1,-0.15,0.13,0.51,96.03020000000001,172.952,31.876999999999995,175,75
2026-05-11 18:06:32.931,1,0.81,-0.92,1.18,76.8802,290.392,8.456999999999999,175,75
2026-05-11 18:06:32.961,1,1.36,-0.49,1.13,108.2902,334.962,-33.983,175,75
2026-05-11 18:06:32.971,1,1.53,0.08,1.08,130.7202,378.19199999999995,-53.923,175,75
2026-05-11 18:06:32.984,1,1.22,0.69,1.27,145.97019999999998,398.56199999999995,-56.783,175,75
2026-05-11 18:06:32.995,1,0.57,1.11,1.32,92.2502,363.13199999999995,-20.203,175,75
2026-05-11 18:06:33.031,1,0.54,0.46,1.39,-70.2498,225.822,44.986999999999995,175,75
2026-05-11 18:06:33.072,1,-0.07,0.66,1.62,-145.24980000000002,297.402,119.67699999999999,175,75
2026-05-11 18:06:33.120,1,0.04,0.36,2.15,-138.84980000000002,289.412,143.397,175,75
2026-05-11 18:06:33.133,1,0.52,0.21,2.21,-151.8998,221.182,151.937,175,75
2026-05-11 18:06:33.133,1,0.47,0.02,1.23,-187.9898,139.352,154.737,175,75
2026-05-11 18:06:33.164,1,0.75,0.22,2.0,-22.8698,314.472,74.857,175,75
2026-05-11 18:06:33.186,1,0.64,1.13,1.55,194.9902,45.332,-122.453,175,75
2026-05-11 18:06:33.209,1,0.45,0.73,1.45,288.2202,-95.218,-165.143,175,75
2026-05-11 18:06:33.249,1,-0.18,0.22,1.46,307.4302,-260.94800000000004,-214.713,175,75
2026-05-11 18:06:33.260,1,-0.38,-0.19,0.55,270.1102,-261.31800000000004,-246.663,175,75
2026-05-11 18:06:33.260,1,-0.71,-0.4,0.25,254.81019999999998,-283.75800000000004,-254.103,175,75
2026-05-11 18:06:33.293,1,-3.8,-0.58,-3.56,41.5202,-190.09799999999998,-144.28300000000002,175,75
2026-05-11 18:06:33.339,1,0.1,-0.02,3.91,64.6302,67.642,100.167,175,75
2026-05-11 18:06:33.354,1,0.53,-0.41,0.69,-11.779799999999998,161.612,95.047,175,75
2026-05-11 18:06:33.372,1,0.85,-0.57,1.03,-15.189800000000002,186.422,93.517,175,75
2026-05-11 18:06:33.383,1,0.95,-0.07,1.2,-37.449799999999996,148.072,84.557,175,75
2026-05-11 18:06:33.396,1,0.73,0.19,1.24,-37.6298,153.622,81.327,175,75
2026-05-11 18:06:33.396,1,0.81,-0.31,1.27,-49.3998,146.182,82.487,175,75
2026-05-11 18:06:33.413,1,0.72,-0.56,1.92,-100.73979999999999,164.842,96.137,175,75
2026-05-11 18:06:33.436,1,0.81,-0.38,1.67,-123.8498,182.952,101.747,175,75
2026-05-11 18:06:33.483,1,0.76,-0.15,1.99,-131.34980000000002,224.172,94.67699999999999,175,75
2026-05-11 18:06:33.496,1,0.64,0.33,1.17,-173.0598,139.232,71.507,175,75
2026-05-11 18:06:33.524,1,0.34,0.51,0.91,-183.3598,64.172,72.297,175,75
2026-05-11 18:06:33.544,1,0.66,0.99,1.18,-141.6498,-28.387999999999998,22.906999999999996,175,75
2026-05-11 18:06:33.554,1,1.04,1.12,1.64,-87.07979999999999,27.462000000000003,-31.363,175,75
2026-05-11 18:06:33.555,1,1.22,1.03,1.58,-44.2098,49.902,-74.953,175,75
2026-05-11 18:06:33.577,1,1.32,1.1,1.87,33.3502,35.632000000000005,-142.643,175,75
2026-05-11 18:06:33.622,1,0.85,0.73,1.93,153.1002,-125.338,-200.813,175,75
2026-05-11 18:06:33.634,1,0.55,0.53,2.18,157.68019999999999,-222.418,-206.423,175,75
2026-05-11 18:06:33.641,1,0.26,0.41,2.37,141.15019999999998,-314.24800000000005,-211.173,175,75
2026-05-11 18:06:33.667,1,-0.23,0.15,2.25,112.31020000000001,-392.968,-213.923,175,75
2026-05-11 18:06:33.693,1,-1.08,0.09,1.66,65.0502,-475.588,-201.363,175,75
2026-05-11 18:06:33.704,1,-1.12,0.18,1.41,35.6002,-480.94800000000004,-179.653,175,75
2026-05-11 18:06:33.704,1,-1.04,0.17,1.28,-7.6297999999999995,-470.098,-186.663,175,75
2026-05-11 18:06:33.715,1,-0.96,0.34,1.18,-60.85979999999999,-469.30800000000005,-177.823,175,75
2026-05-11 18:06:33.718,1,-1.2,0.52,1.11,-95.0098,-460.098,-165.013,175,75
2026-05-11 18:06:33.739,1,-1.63,0.73,0.64,-116.83979999999998,-476.988,-147.03300000000002,175,75
2026-05-11 18:06:33.750,1,-3.42,1.06,-1.1,-171.52980000000002,-540.828,-69.283,175,75
2026-05-11 18:06:33.750,1,-3.42,1.8,-1.71,-168.4798,-307.838,24.306999999999995,175,75
2026-05-11 18:06:33.762,1,-0.82,1.94,1.45,-39.3998,92.892,127.11699999999999,175,75
2026-05-11 18:06:33.773,1,-1.33,1.69,3.83,-36.3498,162.40200000000002,115.527,175,75
2026-05-11 18:06:33.787,1,-1.69,1.48,2.6,47.3102,96.182,115.777,175,75
2026-05-11 18:06:33.798,1,-0.66,0.71,1.26,91.64020000000001,190.752,169.007,175,75
2026-05-11 18:06:33.798,1,0.55,0.0,0.84,87.5502,216.612,152.417,175,75
2026-05-11 18:06:33.833,1,1.58,-1.12,-0.2,27.7402,139.412,105.467,175,75
2026-05-11 18:06:33.856,1,1.03,-0.7,1.03,-15.799800000000001,146.912,90.28699999999999,175,75
2026-05-11 18:06:33.857,1,0.26,-0.16,2.15,-53.35979999999999,129.662,105.047,175,75
2026-05-11 18:06:33.878,1,-0.2,0.12,0.76,-93.90979999999999,75.632,104.377,175,75
2026-05-11 18:06:33.889,1,0.21,0.64,0.28,-57.199799999999996,107.58200000000001,99.007,175,75
2026-05-11 18:06:33.901,1,0.16,0.52,0.22,-6.349799999999998,117.522,79.67699999999999,175,75
2026-05-11 18:06:33.924,1,0.01,0.34,0.11,25.1802,126.062,52.667,175,75
2026-05-11 18:06:33.924,1,-0.08,0.48,0.42,106.4602,136.972,-14.163,175,75
2026-05-11 18:06:33.934,1,0.08,0.15,0.4,133.7102,129.052,-42.763,175,75
2026-05-11 18:06:33.952,1,0.13,-0.11,0.49,150.6602,121.002,-67.273,175,75
2026-05-11 18:06:33.986,1,0.5,-0.75,0.56,168.22019999999998,125.752,-104.163,175,75
2026-05-11 18:06:33.999,1,1.0,-0.97,0.91,188.3502,147.462,-121.053,175,75
2026-05-11 18:06:34.009,1,1.57,-1.16,1.9,174.5702,176.792,-132.453,175,75
2026-05-11 18:06:34.030,1,1.66,-0.01,1.99,161.03019999999998,-65.398,-133.733,175,75
2026-05-11 18:06:34.030,1,0.04,1.21,0.73,97.6802,-83.448,-80.143,175,75
2026-05-11 18:06:34.066,1,0.57,1.0,0.65,6.940200000000001,-133.998,17.607,175,75
2026-05-11 18:06:34.077,1,-0.46,1.61,0.16,-209.1498,-340.94800000000004,97.727,175,75
2026-05-11 18:06:34.086,1,-0.89,1.15,-0.25,-366.1698,-340.278,194.737,175,75
2026-05-11 18:06:34.086,1,-0.3,0.53,-0.24,-420.6798,-279.42800000000005,196.327,175,75
2026-05-11 18:06:34.100,1,-0.69,-0.09,-0.6,-468.8498,-292.658,218.887,175,75
2026-05-11 18:06:34.113,1,-0.99,-0.56,-1.29,-489.57980000000003,-222.358,254.98700000000002,175,75
2026-05-11 18:06:34.123,1,-0.72,-0.6,-1.34,-447.38980000000004,3.8619999999999997,268.697,175,75
2026-05-11 18:06:34.123,1,0.17,-0.79,-0.31,-406.1698,158.072,258.337,175,75
2026-05-11 18:06:34.137,1,0.5,-0.92,0.47,-408.7898,218.502,214.797,175,75
2026-05-11 18:06:34.148,1,0.68,-0.85,0.82,-419.9498,255.822,184.49699999999999,175,75
2026-05-11 18:06:34.159,1,0.63,-0.72,1.11,-419.9498,286.49199999999996,160.657,175,75
2026-05-11 18:06:34.179,1,0.62,-0.3,1.47,-397.3198,298.012,121.197,175,75
2026-05-11 18:06:34.196,1,0.63,-0.2,1.64,-382.2598,300.392,110.227,175,75
2026-05-11 18:06:34.206,1,0.62,-0.06,2.02,-359.3998,313.62199999999996,92.607,175,75
2026-05-11 18:06:34.217,1,0.7,0.09,2.56,-344.88980000000004,304.412,75.167,175,75
2026-05-11 18:06:34.228,1,0.84,0.3,3.1,-333.7298,267.222,57.357,175,75
2026-05-11 18:06:34.228,1,0.79,0.37,3.12,-304.0298,203.132,34.376999999999995,175,75
2026-05-11 18:06:34.255,1,0.46,0.48,2.83,-212.2598,208.192,-25.753,175,75
2026-05-11 18:06:34.285,1,0.64,0.69,3.49,-89.8198,183.192,-93.433,175,75
2026-05-11 18:06:34.298,1,0.76,0.71,3.73,-28.7298,134.962,-117.943,175,75
2026-05-11 18:06:34.325,1,0.6,0.66,2.78,203.3502,-5.948,-229.833,175,75
2026-05-11 18:06:34.383,1,0.28,-1.03,2.57,584.8102,-14.368,-343.673,175,75
2026-05-11 18:06:34.424,1,-0.17,-3.67,1.88,759.5702,-23.328,-364.653,175,75
2026-05-11 18:06:34.424,1,-0.07,-4.55,2.21,787.9802,-54.058,-357.703,175,75
2026-05-11 18:06:34.480,1,-0.94,-7.7,1.35,831.2102,-214.978,-359.103,175,75
2026-05-11 18:06:34.513,1,1.3,-7.84,0.62,454.2002,-328.26800000000003,-265.323,175,75
2026-05-11 18:06:34.542,1,-1.65,-2.53,1.07,577.9202,93.382,-333.803,175,75
2026-05-11 18:06:34.542,1,-0.01,-2.96,1.31,507.61019999999996,28.322000000000003,-291.843,175,75
2026-05-11 18:06:34.572,1,-0.47,-3.4,0.24,402.92019999999997,40.572,-288.373,175,75
2026-05-11 18:06:34.572,1,-0.12,-2.24,-0.01,367.6802,88.562,-275.083,175,75
2026-05-11 18:06:34.596,1,-0.43,-1.68,0.14,315.9702,142.462,-249.653,175,75
2026-05-11 18:06:34.607,1,-0.61,-1.06,0.08,278.8302,190.022,-220.75300000000001,175,75
2026-05-11 18:06:34.607,1,-0.81,-0.37,0.13,255.97019999999998,209.052,-179.893,175,75
2026-05-11 18:06:34.623,1,-0.95,0.76,0.58,244.87019999999998,246.302,-99.893,175,75
2026-05-11 18:06:34.636,1,-0.06,0.93,0.66,223.47019999999998,228.622,-51.843,175,75
2026-05-11 18:06:34.648,1,-0.17,0.67,0.47,184.0802,216.182,-36.903,175,75
2026-05-11 18:06:34.648,1,-0.03,0.47,0.44,136.7002,220.692,-7.823,175,75
2026-05-11 18:06:34.658,1,-0.13,0.66,0.43,81.64020000000001,182.642,12.967,175,75
2026-05-11 18:06:34.674,1,-0.25,1.09,0.24,59.75020000000001,154.352,40.717,175,75
2026-05-11 18:06:34.674,1,-0.25,1.16,0.12,58.1002,142.892,56.747,175,75
2026-05-11 18:06:34.696,1,-0.18,1.29,-0.06,45.360200000000006,111.672,84.247,175,75
2026-05-11 18:06:34.732,1,-0.04,1.52,0.09,5.480200000000002,75.752,111.627,175,75
2026-05-11 18:06:34.756,1,0.2,1.55,0.35,-26.529799999999998,66.672,136.017,175,75
2026-05-11 18:06:34.774,1,0.27,1.45,0.46,-37.07979999999999,64.782,139.307,175,75
2026-05-11 18:06:34.785,1,0.31,1.41,0.53,-45.919799999999995,68.622,142.357,175,75
2026-05-11 18:06:34.818,1,0.39,1.34,0.69,-55.6798,110.392,149.307,175,75
2026-05-11 18:06:34.852,1,0.63,1.03,1.03,-49.029799999999994,161.002,149.437,175,75
2026-05-11 18:06:34.878,1,0.66,0.95,1.12,-53.059799999999996,177.642,154.797,175,75
2026-05-11 18:06:34.878,1,0.64,0.87,1.15,-52.5698,201.672,151.877,175,75
2026-05-11 18:06:34.896,1,0.65,0.49,1.25,-49.639799999999994,245.392,159.917,175,75
2026-05-11 18:06:34.901,1,0.58,0.24,1.28,-57.62979999999999,256.122,166.687,175,75
2026-05-11 18:06:34.926,1,0.44,0.12,1.82,-71.7798,293.32199999999995,168.887,175,75
2026-05-11 18:06:34.937,1,0.43,0.02,1.99,-72.2598,305.022,170.287,175,75
2026-05-11 18:06:34.951,1,0.44,-0.24,1.96,-73.0598,303.99199999999996,155.407,175,75
2026-05-11 18:06:34.964,1,0.31,-0.27,1.88,-74.0898,317.462,141.807,175,75
2026-05-11 18:06:34.964,1,0.14,-0.28,1.83,-65.3098,340.022,142.547,175,75
2026-05-11 18:06:35.009,1,0.05,-0.42,1.93,-45.0698,361.67199999999997,139.49699999999999,175,75
2026-05-11 18:06:35.039,1,0.0,-0.43,2.04,-7.0198,368.92199999999997,121.267,175,75
2026-05-11 18:06:35.077,1,0.03,-0.28,1.85,15.180200000000001,402.162,105.047,175,75
2026-05-11 18:06:35.085,1,0.0,-0.18,1.78,26.9402,422.522,91.687,175,75
2026-05-11 18:06:35.099,1,-0.05,0.0,1.63,33.4102,469.782,73.827,175,75
2026-05-11 18:06:35.099,1,-0.03,0.16,1.53,40.6602,511.18199999999996,59.736999999999995,175,75
2026-05-11 18:06:35.134,1,-0.0,0.39,1.48,44.690200000000004,548.8620000000001,49.437,175,75
2026-05-11 18:06:35.159,1,0.01,0.69,1.4,36.940200000000004,564.052,44.917,175,75
2026-05-11 18:06:35.178,1,-0.13,1.22,1.33,27.4302,549.412,59.187,175,75
2026-05-11 18:06:35.178,1,0.15,1.68,1.39,13.040200000000002,520.822,80.227,175,75
2026-05-11 18:06:35.196,1,0.14,1.91,1.73,-21.959799999999998,323.86199999999997,137.417,175,75
2026-05-11 18:06:35.218,1,2.42,-0.84,2.55,-86.6498,68.922,0.9570000000000007,175,75
2026-05-11 18:06:35.249,1,-0.01,-0.75,2.1,-92.7498,-87.538,4.377000000000001,175,75
2026-05-11 18:06:35.270,1,-0.28,0.86,2.02,-150.24980000000002,-94.978,29.247,175,75
2026-05-11 18:06:35.270,1,-1.42,1.27,1.85,-119.7598,-53.937999999999995,42.787,175,75
2026-05-11 18:06:35.279,1,0.39,-0.24,1.86,-59.57979999999999,18.192,48.827,175,75
2026-05-11 18:06:35.308,1,0.65,-1.5,-0.11,-112.1398,69.232,33.217,175,75
2026-05-11 18:06:35.320,1,0.7,-0.59,0.4,-95.4298,173.562,60.467,175,75
2026-05-11 18:06:35.320,1,0.19,0.03,1.07,-91.3498,188.992,65.227,175,75
2026-05-11 18:06:35.339,1,0.31,0.4,0.29,50.8502,161.122,69.857,175,75
2026-05-11 18:06:35.362,1,0.15,0.44,0.52,80.7902,163.192,66.447,175,75
2026-05-11 18:06:35.374,1,-0.08,0.61,0.66,131.0902,155.212,35.347,175,75
2026-05-11 18:06:35.385,1,-0.3,0.51,0.73,198.1002,193.502,-7.213,175,75
2026-05-11 18:06:35.385,1,-0.35,0.43,0.82,220.8502,213.682,-31.052999999999997,175,75
2026-05-11 18:06:35.420,1,-0.31,-0.08,1.06,233.4102,287.892,-80.563,175,75
2026-05-11 18:06:35.442,1,0.42,-0.22,1.63,275.11019999999996,381.30199999999996,-158.803,175,75
2026-05-11 18:06:35.459,1,0.75,0.54,0.93,185.6602,356.24199999999996,-197.513,175,75
2026-05-11 18:06:35.469,1,-1.29,1.44,0.06,107.6102,356.67199999999997,-146.603,175,75
2026-05-11 18:06:35.479,1,-1.34,1.6,-0.14,91.5202,488.68199999999996,-104.533,175,75
2026-05-11 18:06:35.479,1,-1.19,1.38,0.14,76.4002,546.062,-71.973,175,75
2026-05-11 18:06:35.512,1,0.08,1.82,1.31,105.1802,715.822,2.1769999999999996,175,75
2026-05-11 18:06:35.527,1,0.04,1.89,1.69,135.4802,714.532,-10.873,175,75
2026-05-11 18:06:35.540,1,0.36,1.68,1.79,136.6402,702.772,-14.593,175,75
2026-05-11 18:06:35.540,1,0.28,1.3,1.51,115.3002,637.772,-23.673000000000002,175,75
2026-05-11 18:06:35.552,1,-0.03,1.23,1.24,64.2002,590.212,-10.323,175,75
2026-05-11 18:06:35.563,1,-0.23,1.55,0.97,-4.0898,562.402,7.7269999999999985,175,75
2026-05-11 18:06:35.577,1,-0.08,1.68,1.07,-9.5198,559.472,27.906999999999996,175,75
2026-05-11 18:06:35.628,1,-0.7,1.72,0.88,-36.46979999999999,376.30199999999996,84.247,175,75
2026-05-11 18:06:35.628,1,1.2,1.53,4.23,129.93019999999999,433.07199999999995,120.287,175,75
2026-05-11 18:06:35.654,1,-0.69,0.68,2.36,109.26020000000001,153.922,118.887,175,75
2026-05-11 18:06:35.687,1,0.46,0.23,0.09,35.6002,228.322,103.517,175,75
2026-05-11 18:06:35.687,1,-0.71,0.4,1.67,21.4002,424.782,118.577,175,75
2026-05-11 18:06:35.699,1,1.33,0.23,2.87,34.5702,337.712,147.727,175,75
2026-05-11 18:06:35.728,1,0.31,-0.59,2.83,29.3202,209.662,128.027,175,75
2026-05-11 18:06:35.739,1,0.95,-0.27,2.27,-42.3198,113.682,114.857,175,75
2026-05-11 18:06:35.755,1,0.43,-0.52,1.26,-99.3398,17.222,105.28699999999999,175,75
2026-05-11 18:06:35.770,1,0.3,-0.84,0.89,-92.8098,24.112000000000002,120.227,175,75
2026-05-11 18:06:35.797,1,0.18,-1.02,1.57,-116.95979999999999,93.44200000000001,149.737,175,75
2026-05-11 18:06:35.797,1,0.22,-0.13,1.26,-130.4298,62.642,126.267,175,75
2026-05-11 18:06:35.797,1,0.21,0.11,0.45,-102.8698,111.122,135.287,175,75
2026-05-11 18:06:35.805,1,0.18,0.99,0.14,-45.3698,136.182,140.657,175,75
2026-05-11 18:06:35.833,1,0.07,0.97,0.43,5.970200000000002,157.102,138.21699999999998,175,75
2026-05-11 18:06:35.834,1,-0.07,0.8,0.54,30.660200000000003,150.452,122.727,175,75
2026-05-11 18:06:35.848,1,-0.19,0.76,0.61,50.360200000000006,148.322,94.377,175,75
2026-05-11 18:06:35.897,1,-0.19,0.64,0.76,125.7902,167.282,-27.643,175,75
2026-05-11 18:06:35.904,1,-0.2,0.38,0.86,141.5202,181.852,-68.863,175,75
2026-05-11 18:06:35.916,1,0.12,-0.15,1.02,119.87020000000001,207.342,-82.453,175,75
2026-05-11 18:06:35.935,1,0.14,-0.34,1.11,127.31020000000001,194.532,-96.233,175,75
2026-05-11 18:06:35.948,1,0.15,-0.31,1.03,141.40019999999998,219.352,-95.013,175,75
2026-05-11 18:06:35.983,1,0.52,-0.15,1.11,214.75019999999998,325.75199999999995,-106.173,175,75
2026-05-11 18:06:36.000,1,0.86,0.31,1.65,259.2602,393.56199999999995,-109.593,175,75
2026-05-11 18:06:36.011,1,0.76,0.53,1.79,258.9002,405.88199999999995,-118.063,175,75
2026-05-11 18:06:36.011,1,0.57,0.76,1.63,193.0402,373.50199999999995,-115.203,175,75
2026-05-11 18:06:36.038,1,-0.12,1.38,1.05,67.2502,241.492,-9.653,175,75
2026-05-11 18:06:36.049,1,0.09,0.99,1.14,52.980199999999996,205.332,3.5169999999999995,175,75
2026-05-11 18:06:36.078,1,1.28,0.9,1.52,51.1502,75.512,18.517000000000003,175,75
2026-05-11 18:06:36.090,1,1.48,1.3,1.88,79.3802,42.102000000000004,-11.663,175,75
2026-05-11 18:06:36.101,1,1.45,1.41,1.87,85.2402,32.642,-22.033,175,75
2026-05-11 18:06:36.111,1,1.43,1.22,1.56,72.6802,-7.3580000000000005,-23.192999999999998,175,75
2026-05-11 18:06:36.132,1,0.79,1.19,0.99,43.5902,-16.008,-17.823,175,75
2026-05-11 18:06:36.163,1,0.27,1.49,0.48,-3.7297999999999973,-1.198,-1.3629999999999995,175,75
2026-05-11 18:06:36.163,1,0.41,1.52,0.25,-18.0598,40.692,9.796999999999999,175,75
2026-05-11 18:06:36.173,1,0.73,1.22,-0.07,-35.189800000000005,62.402,10.897,175,75
2026-05-11 18:06:36.185,1,-2.75,1.58,-1.72,-129.5798,-85.948,88.097,175,75
2026-05-11 18:06:36.202,1,-4.29,2.81,-3.42,-145.3098,65.632,244.127,175,75
2026-05-11 18:06:36.202,1,-1.62,0.65,-0.99,41.0302,572.162,242.357,175,75
2026-05-11 18:06:36.214,1,1.27,-0.51,4.3,214.9902,701.972,191.447,175,75
2026-05-11 18:06:36.221,1,-0.28,1.09,1.97,-5.309799999999999,323.19199999999995,126.74699999999999,175,75
2026-05-11 18:06:36.241,1,0.7,0.92,2.4,-6.5898,279.902,161.267,175,75
2026-05-11 18:06:36.267,1,1.49,-1.13,1.61,4.930200000000001,128.922,115.047,175,75
2026-05-11 18:06:36.283,1,2.18,-1.47,0.96,-32.99979999999999,78.922,73.577,175,75
2026-05-11 18:06:36.283,1,0.77,-2.87,1.45,-96.7798,116.672,161.137,175,75
2026-05-11 18:06:36.295,1,0.47,0.38,1.87,-127.4498,48.742000000000004,157.417,175,75
2026-05-11 18:06:36.320,1,0.58,-0.23,0.67,-104.6398,75.392,151.937,175,75
2026-05-11 18:06:36.333,1,-0.41,0.6,0.85,52.3702,149.472,57.967,175,75
2026-05-11 18:06:36.345,1,-0.48,0.78,0.82,61.4602,141.182,22.357,175,75
2026-05-11 18:06:36.356,1,-0.32,0.51,0.82,77.6802,162.342,-9.043,175,75
2026-05-11 18:06:36.371,1,-0.15,0.23,0.84,90.8502,171.852,-27.273,175,75
2026-05-11 18:06:36.371,1,-0.06,0.14,0.95,116.5202,197.892,-33.433,175,75
2026-05-11 18:06:36.383,1,0.29,-0.21,1.03,141.8802,200.882,-42.153,175,75
2026-05-11 18:06:36.383,1,0.44,-0.81,0.95,118.0402,176.552,-41.663,175,75
2026-05-11 18:06:36.393,1,0.55,-0.83,0.99,87.1302,172.032,-30.753,175,75
2026-05-11 18:06:36.425,1,1.45,0.35,1.68,16.4602,106.002,-41.603,175,75
2026-05-11 18:06:36.425,1,1.2,0.21,1.37,-20.3098,28.192,-42.273,175,75
2026-05-11 18:06:36.457,1,0.96,0.44,1.39,-43.5998,107.162,-16.543,175,75
2026-05-11 18:06:36.470,1,0.86,-0.42,2.11,-228.59980000000002,-144.728,62.907,175,75
2026-05-11 18:06:36.481,1,-0.29,-0.57,0.98,-459.57980000000003,-348.50800000000004,92.417,175,75
2026-05-11 18:06:36.493,1,-0.92,0.14,-0.31,-608.7898,-304.36800000000005,113.767,175,75
2026-05-11 18:06:36.519,1,-0.1,-0.23,-1.52,-587.3198,-140.828,129.617,175,75
2026-05-11 18:06:36.526,1,-0.64,-0.28,-1.75,-566.7098,0.752,121.447,175,75
2026-05-11 18:06:36.540,1,-1.6,-0.58,-1.75,-575.1898,221.672,170.047,175,75
2026-05-11 18:06:36.550,1,-0.8,-1.9,-0.96,-552.5098,353.50199999999995,146.627,175,75
2026-05-11 18:06:36.572,1,-0.11,-1.46,0.7,-564.2798,212.522,93.39699999999999,175,75
2026-05-11 18:06:36.594,1,-0.35,-1.02,0.18,-583.5398,193.862,74.127,175,75
2026-05-11 18:06:36.617,1,-0.65,-0.93,0.27,-544.6398,318.92199999999997,56.197,175,75
2026-05-11 18:06:36.629,1,-0.75,-0.68,0.68,-508.47979999999995,405.94199999999995,36.077,175,75
2026-05-11 18:06:36.629,1,-0.9,-0.56,1.11,-464.1498,472.462,4.796999999999999,175,75
2026-05-11 18:06:36.651,1,-0.9,-0.42,1.74,-418.6698,518.3820000000001,-36.113,175,75
2026-05-11 18:06:36.667,1,-0.97,0.15,2.52,-353.0598,553.0120000000001,-82.153,175,75
2026-05-11 18:06:36.678,1,-1.03,1.07,3.2,-281.5898,533.072,-110.32300000000001,175,75
2026-05-11 18:06:36.683,1,-0.49,1.86,3.41,-222.8098,442.032,-136.053,175,75
2026-05-11 18:06:36.698,1,-0.57,2.62,2.79,-147.56980000000001,244.352,-139.653,175,75
2026-05-11 18:06:36.713,1,-0.39,2.59,2.69,-75.6798,222.40200000000002,-143.063,175,75
2026-05-11 18:06:36.724,1,0.01,2.57,2.87,24.2602,165.452,-157.093,175,75
2026-05-11 18:06:36.734,1,0.38,1.72,2.58,142.9202,66.422,-171.78300000000002,175,75
2026-05-11 18:06:36.764,1,0.45,1.24,1.92,189.4402,52.712,-192.453,175,75
2026-05-11 18:06:36.768,1,0.54,1.16,1.65,213.7702,74.532,-201.603,175,75
2026-05-11 18:06:36.783,1,0.51,1.06,1.58,223.59019999999998,92.032,-207.03300000000002,175,75
2026-05-11 18:06:36.796,1,0.53,1.02,1.64,236.7002,114.962,-202.03300000000002,175,75
2026-05-11 18:06:36.802,1,0.61,0.99,1.77,256.2702,118.922,-203.373,175,75
2026-05-11 18:06:36.833,1,0.77,0.93,2.03,288.2202,53.132000000000005,-196.723,175,75
2026-05-11 18:06:36.845,1,0.73,0.8,2.01,292.5502,12.282,-201.973,175,75
2026-05-11 18:06:36.865,1,0.67,0.66,1.79,297.7402,-29.177999999999997,-212.393,175,75
2026-05-11 18:06:36.865,1,0.6,0.6,1.53,302.1302,-35.708,-224.713,175,75
2026-05-11 18:06:36.876,1,0.52,0.57,1.35,312.6802,-20.337999999999997,-235.443,175,75
2026-05-11 18:06:36.888,1,0.51,0.5,1.27,334.5002,9.602,-247.213,175,75
2026-05-11 18:06:36.901,1,0.54,0.38,1.41,368.1002,43.682,-255.75300000000001,175,75
2026-05-11 18:06:36.924,1,0.55,0.04,1.87,422.1302,49.842,-242.03300000000002,175,75
2026-05-11 18:06:36.990,1,0.42,-1.11,2.15,452.0702,-72.718,-223.923,175,75
2026-05-11 18:06:37.008,1,0.31,-1.6,2.17,465.6002,-88.698,-242.583,175,75
2026-05-11 18:06:37.018,1,-0.21,-3.62,2.75,454.5702,-103.818,-261.173,175,75
2026-05-11 18:06:37.040,1,-0.57,-3.71,2.38,454.0802,-184.668,-265.503,175,75
2026-05-11 18:06:37.040,1,-0.73,-3.48,1.11,412.4302,-272.778,-242.823,175,75
2026-05-11 18:06:37.084,1,-0.15,-1.94,0.65,379.5702,18.192,-202.583,175,75
2026-05-11 18:06:37.114,1,0.47,-2.49,1.18,339.8102,134.232,-104.403,175,75
2026-05-11 18:06:37.128,1,0.6,-1.21,0.94,219.5102,180.692,-90.32300000000001,175,75
2026-05-11 18:06:37.139,1,0.65,-0.67,1.0,181.4602,188.682,-80.443,175,75
2026-05-11 18:06:37.182,1,0.47,-0.99,0.93,152.8002,199.962,-56.423,175,75
2026-05-11 18:06:37.193,1,0.58,-0.78,0.92,109.3202,221.182,-36.723,175,75
2026-05-11 18:06:37.223,1,0.58,-0.28,1.01,66.9402,252.522,-10.323,175,75
2026-05-11 18:06:37.282,1,0.44,0.85,0.92,-3.9697999999999993,137.892,36.806999999999995,175,75
2026-05-11 18:06:37.293,1,0.45,0.99,0.69,-15.189800000000002,136.362,44.677,175,75
2026-05-11 18:06:37.304,1,0.45,1.12,0.67,-18.969799999999996,127.712,47.667,175,75
2026-05-11 18:06:37.304,1,0.38,1.27,0.65,-24.399799999999995,113.922,46.997,175,75
2026-05-11 18:06:37.399,1,0.27,1.6,0.52,-37.3198,89.232,52.607,175,75
2026-05-11 18:06:37.399,1,0.26,1.7,0.44,-34.519800000000004,95.94200000000001,56.266999999999996,175,75
2026-05-11 18:06:37.408,1,0.24,1.77,0.4,-31.529799999999998,108.742,60.527,175,75
2026-05-11 18:06:37.419,1,0.25,1.78,0.41,-29.5198,123.992,63.277,175,75
2026-05-11 18:06:37.431,1,0.3,1.74,0.44,-29.9498,139.412,65.347,175,75
2026-05-11 18:06:37.431,1,0.43,1.56,0.6,-42.139799999999994,151.972,68.277,175,75
2026-05-11 18:06:37.455,1,0.45,1.51,0.61,-51.779799999999994,150.332,70.227,175,75
2026-05-11 18:06:37.455,1,0.48,1.46,0.63,-58.5998,153.562,71.447,175,75
2026-05-11 18:06:37.467,1,0.46,1.45,0.63,-62.9298,153.382,73.217,175,75
2026-05-11 18:06:37.479,1,0.45,1.41,0.63,-67.8698,158.192,76.137,175,75
2026-05-11 18:06:37.490,1,0.47,1.39,0.64,-71.8398,158.322,78.457,175,75
2026-05-11 18:06:37.501,1,0.5,1.28,0.66,-81.3498,165.142,82.487,175,75
2026-05-11 18:06:37.514,1,0.52,1.18,0.69,-88.5398,164.052,84.377,175,75
2026-05-11 18:06:37.524,1,0.54,1.1,0.75,-97.5698,160.212,88.39699999999999,175,75
2026-05-11 18:06:37.544,1,0.58,1.02,0.77,-106.1698,151.492,92.417,175,75
2026-05-11 18:06:37.557,1,0.54,0.99,0.81,-117.07979999999999,139.722,101.687,175,75
2026-05-11 18:06:37.570,1,0.44,0.9,0.8,-139.81980000000001,139.962,111.327,175,75
2026-05-11 18:06:37.597,1,0.24,-0.2,0.77,-142.1998,186.422,117.90700000000001,175,75
2026-05-11 18:06:37.612,1,0.15,-0.62,0.8,-146.34980000000002,217.582,125.89699999999999,175,75
2026-05-11 18:06:37.612,1,0.11,-0.79,0.86,-149.5798,234.352,130.407,175,75
2026-05-11 18:06:37.623,1,0.1,-0.55,0.94,-152.74980000000002,236.362,134.127,175,75
2026-05-11 18:06:37.633,1,0.01,-0.53,1.06,-160.3698,239.112,141.807,175,75
2026-05-11 18:06:37.633,1,-0.06,-0.98,1.1,-176.5898,227.032,135.777,175,75
2026-05-11 18:06:37.643,1,-0.27,-1.25,1.11,-164.6398,229.352,139.617,175,75
2026-05-11 18:06:37.656,1,-0.39,-1.39,1.15,-151.5898,246.672,128.21699999999998,175,75
2026-05-11 18:06:37.686,1,-0.29,-1.16,1.78,-124.8198,244.532,120.40700000000001,175,75
2026-05-11 18:06:37.697,1,-0.05,-0.68,1.96,-111.64979999999998,234.472,128.277,175,75
2026-05-11 18:06:37.753,1,0.21,-0.28,2.13,-89.2098,214.112,138.887,175,75
2026-05-11 18:06:37.754,1,0.33,0.11,2.15,-67.7498,192.642,146.627,175,75
2026-05-11 18:06:37.764,1,0.6,0.52,2.14,-45.4298,185.272,156.99699999999999,175,75
2026-05-11 18:06:37.764,1,0.68,0.71,2.03,-22.569799999999997,185.512,153.517,175,75
2026-05-11 18:06:37.776,1,0.88,0.94,2.03,6.210200000000002,204.662,151.877,175,75
2026-05-11 18:06:37.776,1,1.25,1.13,2.13,26.4002,232.832,139.857,175,75
2026-05-11 18:06:37.785,1,0.94,1.53,2.04,38.470200000000006,209.90200000000002,134.737,175,75
2026-05-11 18:06:37.807,1,1.83,1.59,2.57,78.4102,283.50199999999995,106.507,175,75
2026-05-11 18:06:37.807,1,2.7,1.27,2.84,97.6102,213.622,65.28699999999999,175,75
2026-05-11 18:06:37.854,1,0.51,-1.73,1.84,92.0702,309.662,38.217,175,75
2026-05-11 18:06:37.861,1,0.34,-0.07,1.42,-91.2298,56.792,44.247,175,75
2026-05-11 18:06:37.874,1,0.82,0.61,1.33,-87.7498,56.422000000000004,56.626999999999995,175,75
2026-05-11 18:06:37.885,1,0.13,0.96,1.3,-50.79979999999999,19.902,70.167,175,75
2026-05-11 18:06:37.931,1,0.11,0.9,0.92,-30.7398,47.402,55.527,175,75
2026-05-11 18:06:37.933,1,-0.14,0.65,0.82,-0.6798000000000002,92.402,47.727,175,75
2026-05-11 18:06:37.945,1,0.19,0.32,0.96,29.9902,151.552,53.027,175,75
2026-05-11 18:06:37.955,1,0.21,-0.09,0.82,35.5402,158.562,39.187,175,75
2026-05-11 18:06:37.969,1,0.35,-0.28,0.84,41.6402,148.622,30.527,175,75
2026-05-11 18:06:37.980,1,0.26,-0.06,0.52,42.860200000000006,142.102,28.217,175,75
2026-05-11 18:06:37.980,1,0.35,0.34,0.1,54.3802,150.332,9.987,175,75
2026-05-11 18:06:37.992,1,0.23,0.35,0.03,98.1002,166.422,-15.203,175,75
2026-05-11 18:06:38.026,1,-0.1,0.16,0.62,150.3602,201.612,-47.333,175,75
2026-05-11 18:06:38.049,1,0.03,0.05,0.84,167.6102,208.922,-125.873,175,75
2026-05-11 18:06:38.082,1,0.07,0.04,0.84,173.9602,231.792,-155.873,175,75
2026-05-11 18:06:38.107,1,0.35,0.21,1.57,276.9402,366.42199999999997,-224.473,175,75
2026-05-11 18:06:38.120,1,0.44,-0.04,1.82,308.8302,349.962,-226.423,175,75
2026-05-11 18:06:38.131,1,0.66,-0.27,1.75,307.6802,359.782,-250.443,175,75
2026-05-11 18:06:38.142,1,-1.84,1.54,-1.32,39.5102,339.11199999999997,-89.533,175,75
2026-05-11 18:06:40.483,1,-0.21,0.32,3.97,187.78019999999998,400.18199999999996,89.847,175,75
2026-05-11 18:06:40.505,1,0.42,-0.43,3.14,53.080200000000005,98.112,-5.633,175,75
2026-05-11 18:06:40.517,1,-0.25,-1.72,3.2,5.700200000000001,-44.757999999999996,-46.793,175,75
2026-05-11 18:06:40.517,1,0.52,-2.77,1.89,-110.6398,-78.108,-5.883,175,75
2026-05-11 18:06:40.529,1,0.38,-1.83,0.09,-170.81980000000001,-87.378,-1.7330000000000005,175,75
2026-05-11 18:06:40.551,1,0.42,-0.53,0.13,-111.9798,24.512,13.147,175,75
2026-05-11 18:06:40.576,1,-0.16,-0.55,1.21,-13.499799999999997,42.252,-30.153,175,75
2026-05-11 18:06:40.587,1,0.21,-0.73,1.52,-1.6697999999999986,41.162,-28.872999999999998,175,75
2026-05-11 18:06:40.598,1,0.37,-1.12,1.44,-19.8398,33.412,-30.573,175,75
2026-05-11 18:06:40.661,1,0.55,-1.09,1.87,-26.429799999999997,66.702,-13.623000000000001,175,75
2026-05-11 18:06:40.704,1,0.69,-0.63,2.5,-64.71979999999999,-11.768,-27.893,175,75
2026-05-11 18:06:40.704,1,0.02,0.31,1.44,-178.37980000000002,-157.078,-16.673000000000002,175,75
2026-05-11 18:06:40.704,1,-0.07,0.42,0.66,-225.02980000000002,-233.048,-10.633,175,75
2026-05-11 18:06:40.715,1,0.1,1.14,0.73,-215.2098,-249.518,-12.523,175,75
2026-05-11 18:06:40.715,1,-0.38,1.81,1.57,-159.0498,-259.088,-4.413,175,75
2026-05-11 18:06:40.774,1,0.5,1.75,1.47,-113.80979999999998,-248.228,-57.403,175,75
2026-05-11 18:06:40.784,1,0.73,2.3,0.94,-58.559799999999996,-146.528,-106.123,175,75
2026-05-11 18:06:40.818,1,1.07,2.23,2.03,81.0702,15.241999999999999,-161.123,175,75
2026-05-11 18:06:40.818,1,1.24,2.04,2.78,123.0202,-39.818,-179.603,175,75
2026-05-11 18:06:40.829,1,0.08,1.22,1.92,150.8902,-289.028,-204.053,175,75
2026-05-11 18:06:40.840,1,-4.96,-0.19,-1.56,57.230199999999996,-494.38800000000003,-356.733,175,75
2026-05-11 18:06:40.852,1,-7.42,-5.16,-6.08,-266.2498,-589.208,-209.233,175,75
2026-05-11 18:06:40.865,1,5.39,-7.21,3.19,253.81019999999998,805.1220000000001,60.887,175,75
2026-05-11 18:06:40.880,1,7.89,1.17,7.07,-331.9798,7.192,241.677,175,75
2026-05-11 18:06:40.886,1,-3.41,3.07,-0.07,-298.13980000000004,-283.478,31.866999999999997,175,75
2026-05-11 18:06:40.892,1,1.06,0.35,-0.64,-245.9998,9.632,93.447,175,75
2026-05-11 18:06:40.917,1,-0.12,0.24,-1.27,-162.27980000000002,-74.208,36.867,175,75
2026-05-11 18:06:40.931,1,-0.82,0.16,0.38,-0.8797999999999995,162.802,60.766999999999996,175,75
2026-05-11 18:06:40.953,1,-0.18,0.58,0.51,-27.7698,122.862,3.2669999999999995,175,75
2026-05-11 18:06:40.953,1,0.6,0.02,0.07,-12.5898,102.682,3.3870000000000005,175,75
2026-05-11 18:06:40.974,1,0.56,-0.06,0.56,10.220200000000002,95.612,18.207,175,75
2026-05-11 18:06:40.974,1,-0.02,0.08,0.58,2.2902000000000022,55.062000000000005,9.177000000000001,175,75
2026-05-11 18:06:40.981,1,0.13,0.16,0.26,18.9402,51.772,-3.7430000000000003,175,75
2026-05-11 18:06:41.004,1,0.15,-0.0,0.61,38.3902,41.582,-6.183,175,75
2026-05-11 18:06:41.010,1,0.1,-0.04,0.52,39.610200000000006,35.182,-12.523,175,75
2026-05-11 18:06:41.025,1,0.3,0.06,0.5,50.28020000000001,34.202,-8.323,175,75
2026-05-11 18:06:41.025,1,0.19,0.02,0.53,62.17020000000001,29.392000000000003,-4.483,175,75
2026-05-11 18:06:41.041,1,0.23,0.03,0.26,73.4502,28.722,-5.633,175,75
2026-05-11 18:06:41.041,1,0.22,-0.03,0.1,104.4902,27.562,-4.173,175,75
2026-05-11 18:06:41.054,1,0.3,-0.02,0.05,150.4602,27.072000000000003,4.547000000000001,175,75
2026-05-11 18:06:41.054,1,-0.02,0.1,0.15,194.7902,39.692,3.1470000000000002,175,75
2026-05-11 18:06:41.106,1,-0.32,-0.84,0.39,269.4902,271.832,-110.513,175,75
2026-05-11 18:06:41.124,1,-0.36,-0.47,0.76,296.1902,340.30199999999996,-150.213,175,75
2026-05-11 18:06:41.158,1,0.3,-0.62,1.73,363.3302,330.792,-235.513,175,75
2026-05-11 18:06:41.169,1,-0.41,-0.45,1.52,279.1802,295.00199999999995,-240.393,175,75
2026-05-11 18:06:41.180,1,-1.16,0.94,0.92,154.00019999999998,266.282,-187.593,175,75
2026-05-11 18:06:41.191,1,-2.5,1.08,-0.69,27.470200000000002,341.702,-77.043,175,75
2026-05-11 18:06:41.201,1,-2.61,1.35,-1.21,20.520200000000003,622.3720000000001,-9.113,175,75
2026-05-11 18:06:41.218,1,-1.84,1.49,0.49,140.40019999999998,850.0020000000001,26.067,175,75
2026-05-11 18:06:41.290,1,-0.57,0.93,1.52,99.42020000000001,689.392,-8.133,175,75
2026-05-11 18:06:41.317,1,-0.56,0.86,1.25,50.4602,691.522,-1.4930000000000003,175,75
2026-05-11 18:06:41.328,1,-0.4,1.02,1.59,37.470200000000006,677.072,4.667,175,75
2026-05-11 18:06:41.360,1,0.95,0.86,7.85,106.56020000000001,588.172,87.597,175,75
2026-05-11 18:06:41.360,1,-0.79,-0.54,1.7,-16.7298,-205.428,68.817,175,75
2026-05-11 18:06:41.372,1,-1.26,-0.76,1.69,-70.6998,-80.488,66.987,175,75
2026-05-11 18:06:41.422,1,0.13,-1.53,0.94,18.5702,36.462,12.717,175,75
2026-05-11 18:06:41.425,1,-0.01,-1.98,1.84,15.640200000000002,34.512,40.037,175,75
2026-05-11 18:06:41.439,1,0.22,-0.76,1.0,-37.529799999999994,24.452,45.097,175,75
2026-05-11 18:06:41.449,1,0.37,-0.24,0.08,-17.829799999999995,24.332,44.607,175,75
2026-05-11 18:06:41.449,1,-0.12,0.08,-0.35,33.8802,25.062,25.037,175,75
2026-05-11 18:06:41.469,1,-0.73,0.12,0.02,97.9602,52.742000000000004,-2.833,175,75
2026-05-11 18:06:41.516,1,-0.55,-0.37,1.05,171.1902,161.40200000000002,-109.35300000000001,175,75
2026-05-11 18:06:41.546,1,0.45,0.0,1.38,206.62019999999998,291.642,-164.963,175,75
2026-05-11 18:06:41.557,1,-0.43,0.52,1.21,149.3002,261.772,-140.513,175,75
2026-05-11 18:06:41.597,1,-1.0,1.17,-0.06,71.7402,437.13199999999995,-3.4429999999999996,175,75
2026-05-11 18:06:41.608,1,-0.79,0.79,-0.02,68.4502,539.332,38.757,175,75
2026-05-11 18:06:41.700,1,0.38,0.47,2.83,-7.469799999999999,313.292,104.42699999999999,175,75
2026-05-11 18:06:41.710,1,1.01,0.14,3.23,28.810200000000002,316.702,82.407,175,75
2026-05-11 18:06:41.758,1,1.25,0.86,2.74,123.6902,87.682,47.407,175,75
2026-05-11 18:06:41.758,1,-0.59,-0.95,-0.46,65.4002,82.19200000000001,26.196999999999996,175,75
2026-05-11 18:06:41.770,1,1.3,-0.68,1.66,-15.329799999999995,137.562,80.217,175,75
2026-05-11 18:06:41.808,1,1.38,-1.08,0.91,-37.949799999999996,51.952,61.797,175,75
2026-05-11 18:06:41.824,1,-0.35,-0.58,1.67,-112.1598,-4.448,100.457,175,75
2026-05-11 18:06:41.852,1,-0.32,-0.24,-0.03,-55.389799999999994,22.682000000000002,89.847,175,75
2026-05-11 18:06:41.852,1,-0.43,0.4,-0.38,4.4902000000000015,41.032000000000004,54.486999999999995,175,75
2026-05-11 18:06:41.895,1,-0.85,-0.05,0.79,132.1102,86.402,-75.943,175,75
2026-05-11 18:06:41.925,1,-0.57,-0.32,0.52,147.6602,87.502,-139.053,175,75
2026-05-11 18:06:41.960,1,-0.73,-0.46,0.44,149.3602,134.202,-142.773,175,75
2026-05-11 18:06:41.998,1,-0.59,-0.88,1.07,170.5802,165.972,-156.123,175,75
2026-05-11 18:06:42.013,1,0.14,-1.6,1.44,200.9502,161.40200000000002,-152.343,175,75
2026-05-11 18:06:42.013,1,0.13,-1.89,1.54,189.3002,156.642,-142.713,175,75
2026-05-11 18:06:42.040,1,0.27,-0.39,1.2,206.1902,238.662,-143.50300000000001,175,75
2026-05-11 18:06:42.043,1,1.04,-0.1,0.85,236.9202,275.42199999999997,-155.393,175,75
2026-05-11 18:06:42.054,1,0.12,0.45,0.22,140.0302,249.872,-111.493,175,75
2026-05-11 18:06:42.083,1,-0.92,-1.66,-0.12,-365.32980000000003,360.48199999999997,180.587,175,75
2026-05-11 18:06:42.094,1,0.18,-2.23,1.66,-337.0398,298.05199999999996,157.837,175,75
2026-05-11 18:06:42.131,1,0.67,-0.87,2.01,-410.32980000000003,148.472,123.99699999999999,175,75
2026-05-11 18:06:42.141,1,0.62,-0.62,1.78,-415.5098,96.032,120.39699999999999,175,75
2026-05-11 18:06:42.174,1,0.32,-0.17,1.86,-343.4398,116.032,130.517,175,75
2026-05-11 18:06:42.201,1,0.79,-0.04,3.03,-126.9798,65.122,34.427,175,75
2026-05-11 18:06:42.201,1,1.05,0.09,3.44,-70.87979999999999,45.422000000000004,10.277,175,75
