Time,ID,Ax,Ay,Az,Gx,Gy,Gz,Height,Weight
2026-05-11 17:52:59.613,1,-0.86,-0.81,1.82,0.6138000000000012,0.45660000000000167,-1.7366000000000001,175,75
2026-05-11 17:52:59.626,1,-0.86,-0.81,1.82,0.7338000000000022,0.5166000000000004,-1.5465999999999998,175,75
2026-05-11 17:52:59.639,1,-0.86,-0.82,1.82,0.6738000000000017,1.0066000000000024,-1.7366000000000001,175,75
2026-05-11 17:52:59.652,1,-0.86,-0.82,1.83,0.493800000000002,0.9466000000000001,-1.9766000000000004,175,75
2026-05-11 17:52:59.673,1,-0.86,-0.82,1.82,0.5538000000000025,1.066600000000001,-1.6066000000000003,175,75
2026-05-11 17:52:59.684,1,-0.85,-0.81,1.81,0.4338000000000015,0.8866000000000014,-1.6765999999999996,175,75
2026-05-11 17:52:59.696,1,-0.86,-0.82,1.82,-0.056199999999998695,0.7066000000000017,-1.6765999999999996,175,75
2026-05-11 17:52:59.719,1,-0.86,-0.82,1.82,0.5538000000000025,0.9466000000000001,-1.8566000000000003,175,75
2026-05-11 17:52:59.733,1,-0.86,-0.81,1.83,0.5538000000000025,0.8266000000000027,-1.6066000000000003,175,75
2026-05-11 17:52:59.753,1,-0.86,-0.82,1.82,0.6138000000000012,0.7066000000000017,-1.9766000000000004,175,75
2026-05-11 17:52:59.760,1,-0.86,-0.81,1.82,1.0438000000000027,1.0066000000000024,-1.8566000000000003,175,75
2026-05-11 17:52:59.788,1,-0.86,-0.81,1.82,0.493800000000002,0.5766000000000027,-1.9165999999999999,175,75
2026-05-11 17:52:59.800,1,-0.86,-0.81,1.82,0.0638000000000023,0.15660000000000096,-1.6066000000000003,175,75
2026-05-11 17:52:59.840,1,-0.86,-0.82,1.82,1.0438000000000027,0.6366000000000014,-2.0965999999999996,175,75
2026-05-11 17:52:59.883,1,-0.85,-0.82,1.82,0.4338000000000015,0.21660000000000146,-1.9766000000000004,175,75
2026-05-11 17:52:59.895,1,-0.86,-0.81,1.82,0.7338000000000022,0.8866000000000014,-1.5465999999999998,175,75
2026-05-11 17:52:59.895,1,-0.85,-0.82,1.83,0.7938000000000027,0.39660000000000295,-2.0965999999999996,175,75
2026-05-11 17:52:59.905,1,-0.86,-0.81,1.82,0.493800000000002,0.09660000000000224,-2.0366,175,75
2026-05-11 17:52:59.930,1,-0.85,-0.82,1.82,-0.11619999999999742,-0.15339999999999776,-1.7366000000000001,175,75
2026-05-11 17:52:59.940,1,-0.86,-0.81,1.83,0.003800000000001802,-0.15339999999999776,-2.0965999999999996,175,75
2026-05-11 17:52:59.951,1,-0.86,-0.82,1.82,0.18380000000000152,-0.21339999999999826,-1.6066000000000003,175,75
2026-05-11 17:52:59.962,1,-0.85,-0.81,1.82,-0.6061999999999976,-0.33339999999999925,-1.4866000000000001,175,75
2026-05-11 17:52:59.973,1,-0.85,-0.82,1.82,-0.4861999999999984,-0.643399999999998,-1.7965999999999998,175,75
2026-05-11 17:52:59.973,1,-0.85,-0.81,1.82,-0.6061999999999976,-1.3733999999999984,-1.5465999999999998,175,75
2026-05-11 17:52:59.984,1,-0.86,-0.82,1.82,-0.9661999999999988,-1.673399999999999,-1.4866000000000001,175,75
2026-05-11 17:52:59.996,1,-0.85,-0.82,1.82,-0.9061999999999983,-1.433399999999999,-1.3666,175,75
2026-05-11 17:53:00.007,1,-0.85,-0.82,1.81,-0.9661999999999988,-1.7933999999999983,-1.4866000000000001,175,75
2026-05-11 17:53:00.015,1,-0.86,-0.82,1.81,-0.9661999999999988,-1.5533999999999981,-1.4265999999999996,175,75
2026-05-11 17:53:00.029,1,-0.85,-0.82,1.82,-1.2161999999999988,-1.2533999999999992,-1.2466,175,75
2026-05-11 17:53:00.040,1,-0.85,-0.82,1.81,-1.5761999999999983,-1.183399999999999,-1.1866000000000003,175,75
2026-05-11 17:53:00.054,1,-0.86,-0.81,1.81,-1.4561999999999973,-1.063399999999998,-1.1265999999999998,175,75
2026-05-11 17:53:00.064,1,-0.86,-0.82,1.81,-1.2761999999999976,-1.063399999999998,-1.1265999999999998,175,75
2026-05-11 17:53:00.075,1,-0.86,-0.82,1.82,-1.2761999999999976,-1.063399999999998,-1.4866000000000001,175,75
2026-05-11 17:53:00.093,1,-0.86,-0.82,1.81,-1.3961999999999986,-0.8233999999999995,-1.3666,175,75
2026-05-11 17:53:00.109,1,-0.85,-0.82,1.8,-0.1761999999999979,-0.643399999999998,-1.3666,175,75
2026-05-11 17:53:00.124,1,-0.86,-0.82,1.81,-0.1761999999999979,-0.33339999999999925,-1.4866000000000001,175,75
2026-05-11 17:53:00.146,1,-0.86,-0.82,1.81,0.18380000000000152,-0.7033999999999985,-1.4866000000000001,175,75
2026-05-11 17:53:00.146,1,-0.85,-0.82,1.81,0.6738000000000017,-0.5733999999999995,-1.7366000000000001,175,75
2026-05-11 17:53:00.173,1,-0.86,-0.82,1.8,0.8538000000000014,-0.513399999999999,-1.8566000000000003,175,75
2026-05-11 17:53:00.183,1,-0.85,-0.81,1.81,1.1038000000000014,-0.03339999999999854,-2.0366,175,75
2026-05-11 17:53:00.203,1,-0.86,-0.82,1.81,0.7338000000000022,0.03660000000000174,-1.8566000000000003,175,75
2026-05-11 17:53:00.215,1,-0.85,-0.81,1.82,0.7338000000000022,0.27660000000000196,-2.0965999999999996,175,75
2026-05-11 17:53:00.226,1,-0.85,-0.82,1.81,0.4338000000000015,0.21660000000000146,-1.9766000000000004,175,75
2026-05-11 17:53:00.240,1,-0.86,-0.82,1.82,0.18380000000000152,0.15660000000000096,-1.7366000000000001,175,75
2026-05-11 17:53:00.251,1,-0.85,-0.82,1.8,0.373800000000001,-0.03339999999999854,-1.8566000000000003,175,75
2026-05-11 17:53:00.262,1,-0.85,-0.82,1.81,0.8538000000000014,-0.03339999999999854,-1.8566000000000003,175,75
2026-05-11 17:53:00.277,1,-0.85,-0.82,1.81,0.3138000000000023,0.09660000000000224,-1.8566000000000003,175,75
2026-05-11 17:53:00.286,1,-0.86,-0.82,1.82,0.5538000000000025,0.09660000000000224,-1.8566000000000003,175,75
2026-05-11 17:53:00.302,1,-0.86,-0.81,1.81,0.4338000000000015,0.15660000000000096,-1.7965999999999998,175,75
2026-05-11 17:53:00.310,1,-0.86,-0.82,1.81,0.7938000000000027,0.3366000000000007,-1.7366000000000001,175,75
2026-05-11 17:53:00.327,1,-0.85,-0.81,1.81,0.9238000000000017,0.5166000000000004,-1.6765999999999996,175,75
2026-05-11 17:53:00.337,1,-0.85,-0.82,1.81,0.7938000000000027,0.5766000000000027,-1.6765999999999996,175,75
2026-05-11 17:53:00.356,1,-0.85,-0.82,1.81,0.7338000000000022,0.21660000000000146,-1.9165999999999999,175,75
2026-05-11 17:53:00.356,1,-0.86,-0.82,1.8,0.4338000000000015,0.45660000000000167,-1.7965999999999998,175,75
2026-05-11 17:53:00.367,1,-0.85,-0.82,1.8,0.8538000000000014,0.3366000000000007,-2.0366,175,75
2026-05-11 17:53:00.377,1,-0.85,-0.82,1.81,1.0438000000000027,0.3366000000000007,-1.8566000000000003,175,75
2026-05-11 17:53:00.391,1,-0.85,-0.82,1.81,1.1038000000000014,0.39660000000000295,-1.5465999999999998,175,75
2026-05-11 17:53:00.398,1,-0.85,-0.82,1.8,1.0438000000000027,0.45660000000000167,-2.0965999999999996,175,75
2026-05-11 17:53:00.427,1,-0.86,-0.82,1.82,1.2238000000000024,0.3366000000000007,-1.9766000000000004,175,75
2026-05-11 17:53:00.438,1,-0.85,-0.82,1.81,1.1038000000000014,0.5766000000000027,-1.8566000000000003,175,75
2026-05-11 17:53:00.448,1,-0.85,-0.82,1.82,0.8538000000000014,0.27660000000000196,-1.9766000000000004,175,75
2026-05-11 17:53:00.459,1,-0.85,-0.82,1.81,1.163800000000002,0.45660000000000167,-2.0366,175,75
2026-05-11 17:53:00.466,1,-0.85,-0.81,1.81,0.7938000000000027,0.5766000000000027,-1.7366000000000001,175,75
2026-05-11 17:53:00.481,1,-0.85,-0.82,1.82,0.7338000000000022,0.5766000000000027,-1.7366000000000001,175,75
2026-05-11 17:53:00.494,1,-0.85,-0.82,1.81,0.9838000000000022,0.5766000000000027,-1.6765999999999996,175,75
2026-05-11 17:53:00.505,1,-0.85,-0.82,1.81,0.9838000000000022,0.5766000000000027,-1.7366000000000001,175,75
2026-05-11 17:53:00.517,1,-0.85,-0.82,1.8,0.8538000000000014,0.5166000000000004,-1.5465999999999998,175,75
2026-05-11 17:53:00.533,1,-0.85,-0.81,1.81,1.5338000000000012,0.7066000000000017,-1.4866000000000001,175,75
2026-05-11 17:53:00.555,1,-0.85,-0.82,1.81,1.1038000000000014,-0.09339999999999904,-1.3666,175,75
2026-05-11 17:53:00.565,1,-0.85,-0.82,1.81,1.4038000000000022,0.39660000000000295,-1.1866000000000003,175,75
2026-05-11 17:53:00.587,1,-0.85,-0.82,1.81,0.7938000000000027,0.3366000000000007,-1.0666000000000002,175,75
2026-05-11 17:53:00.600,1,-0.85,-0.82,1.81,0.6738000000000017,0.09660000000000224,-0.9366000000000003,175,75
2026-05-11 17:53:00.625,1,-0.85,-0.82,1.81,0.24380000000000202,0.27660000000000196,-0.6966000000000001,175,75
2026-05-11 17:53:00.639,1,-0.85,-0.82,1.81,0.24380000000000202,0.03660000000000174,-0.3266,175,75
2026-05-11 17:53:00.664,1,-0.85,-0.81,1.81,-0.11619999999999742,-0.21339999999999826,-0.2666000000000004,175,75
2026-05-11 17:53:00.674,1,-0.85,-0.81,1.81,0.3138000000000023,-0.15339999999999776,0.09339999999999993,175,75
2026-05-11 17:53:00.684,1,-0.85,-0.82,1.81,-0.1761999999999979,-0.15339999999999776,-0.08659999999999979,175,75
2026-05-11 17:53:00.708,1,-0.85,-0.82,1.81,0.18380000000000152,-0.09339999999999904,-0.3865999999999996,175,75
2026-05-11 17:53:00.723,1,-0.85,-0.82,1.81,0.6738000000000017,0.03660000000000174,-0.02660000000000018,175,75
2026-05-11 17:53:00.734,1,-0.85,-0.81,1.81,0.9238000000000017,-0.21339999999999826,0.03340000000000032,175,75
2026-05-11 17:53:00.751,1,-0.85,-0.82,1.82,1.2838000000000012,-0.09339999999999904,-0.02660000000000018,175,75
2026-05-11 17:53:00.774,1,-0.85,-0.81,1.81,0.5538000000000025,-0.21339999999999826,-0.02660000000000018,175,75
2026-05-11 17:53:00.803,1,-0.86,-0.81,1.8,0.9238000000000017,0.03660000000000174,-0.2666000000000004,175,75
2026-05-11 17:53:00.815,1,-0.85,-0.82,1.8,0.8538000000000014,0.6366000000000014,-0.3266,175,75
2026-05-11 17:53:00.860,1,-0.86,-0.82,1.8,1.1038000000000014,1.0066000000000024,-0.14660000000000029,175,75
2026-05-11 17:53:00.860,1,-0.86,-0.81,1.8,1.4638000000000027,1.436600000000002,-0.08659999999999979,175,75
2026-05-11 17:53:00.905,1,-0.85,-0.82,1.81,1.8938000000000024,1.7966000000000015,-0.3865999999999996,175,75
2026-05-11 17:53:00.905,1,-0.87,-0.81,1.8,2.503800000000002,3.0166000000000004,-0.7565999999999997,175,75
2026-05-11 17:53:00.938,1,-0.85,-0.82,1.81,2.873800000000002,2.5966000000000022,-0.6966000000000001,175,75
2026-05-11 17:53:00.951,1,-0.86,-0.81,1.81,2.993800000000002,2.1066000000000003,-0.8765999999999998,175,75
2026-05-11 17:53:01.009,1,-0.86,-0.82,1.8,3.293800000000002,2.0466000000000015,-0.9366000000000003,175,75
2026-05-11 17:53:01.009,1,-0.85,-0.81,1.81,3.113800000000002,1.2466000000000008,-0.9965999999999999,175,75
2026-05-11 17:53:01.038,1,-0.86,-0.82,1.81,4.153800000000002,1.316600000000001,-1.2466,175,75
2026-05-11 17:53:01.048,1,-0.86,-0.82,1.81,3.6038000000000014,1.066600000000001,-1.6066000000000003,175,75
2026-05-11 17:53:01.052,1,-0.86,-0.81,1.81,3.7238000000000016,1.066600000000001,-1.5465999999999998,175,75
2026-05-11 17:53:01.066,1,-0.86,-0.81,1.82,3.903800000000002,0.8266000000000027,-1.4265999999999996,175,75
2026-05-11 17:53:01.077,1,-0.85,-0.82,1.82,3.663800000000002,1.316600000000001,-1.7366000000000001,175,75
2026-05-11 17:53:01.089,1,-0.86,-0.82,1.81,3.7238000000000016,1.2466000000000008,-1.6066000000000003,175,75
2026-05-11 17:53:01.089,1,-0.86,-0.82,1.81,3.4838000000000022,0.9466000000000001,-1.7366000000000001,175,75
2026-05-11 17:53:01.100,1,-0.85,-0.82,1.82,2.743800000000002,2.0466000000000015,-1.8566000000000003,175,75
2026-05-11 17:53:01.110,1,-0.86,-0.81,1.81,2.8138000000000023,1.7366000000000028,-1.7366000000000001,175,75
2026-05-11 17:53:01.121,1,-0.85,-0.81,1.82,2.9338000000000015,2.4665999999999997,-1.6066000000000003,175,75
2026-05-11 17:53:01.121,1,-0.86,-0.82,1.81,2.5638000000000023,1.8566000000000003,-2.0366,175,75
2026-05-11 17:53:01.132,1,-0.86,-0.81,1.81,2.623800000000002,3.0166000000000004,-1.4866000000000001,175,75
2026-05-11 17:53:01.157,1,-0.86,-0.82,1.82,2.6838000000000015,2.2266000000000012,-1.3666,175,75
2026-05-11 17:53:01.170,1,-0.85,-0.82,1.82,2.0138000000000016,0.8866000000000014,-0.7565999999999997,175,75
2026-05-11 17:53:01.193,1,-0.85,-0.82,1.82,0.9838000000000022,0.9466000000000001,-0.14660000000000029,175,75
2026-05-11 17:53:01.205,1,-0.85,-0.82,1.82,0.493800000000002,0.5766000000000027,0.3433999999999999,175,75
2026-05-11 17:53:01.250,1,-0.86,-0.82,1.81,-0.7861999999999973,1.066600000000001,1.1334,175,75
2026-05-11 17:53:01.250,1,-0.85,-0.81,1.82,-1.2761999999999976,1.6166000000000018,1.4333999999999998,175,75
2026-05-11 17:53:01.262,1,-0.85,-0.82,1.82,-1.3961999999999986,1.6766000000000005,1.3133999999999997,175,75
2026-05-11 17:53:01.273,1,-0.85,-0.81,1.83,-2.796199999999999,2.0466000000000015,1.9234000000000009,175,75
2026-05-11 17:53:01.295,1,-0.86,-0.82,1.82,-4.326199999999998,2.0466000000000015,2.2333999999999996,175,75
2026-05-11 17:53:01.301,1,-0.85,-0.8,1.82,-3.046199999999999,2.5366,2.5334000000000003,175,75
2026-05-11 17:53:01.312,1,-0.85,-0.82,1.83,-5.116199999999997,2.2866,2.7834000000000003,175,75
2026-05-11 17:53:01.312,1,-0.86,-0.81,1.81,-5.236199999999998,2.1066000000000003,2.9634,175,75
2026-05-11 17:53:01.335,1,-0.87,-0.81,1.81,-4.8161999999999985,6.6766000000000005,3.3933999999999997,175,75
2026-05-11 17:53:01.345,1,-0.87,-0.82,1.81,-4.626199999999999,8.2666,3.2034000000000002,175,75
2026-05-11 17:53:01.389,1,-0.87,-0.82,1.83,-6.3362,25.7066,5.583399999999999,175,75
2026-05-11 17:53:01.396,1,-0.97,-0.83,1.8,-8.2862,38.8166,5.763400000000001,175,75
2026-05-11 17:53:01.413,1,-0.91,-0.87,1.75,-6.456199999999997,81.8566,4.5434,175,75
2026-05-11 17:53:01.447,1,-0.82,-0.84,1.87,-43.596199999999996,35.516600000000004,20.7034,175,75
2026-05-11 17:53:01.447,1,-0.79,-0.87,1.91,-60.48619999999999,37.0466,27.5334,175,75
2026-05-11 17:53:01.467,1,-0.8,-0.84,1.94,-74.9362,36.9866,38.0834,175,75
2026-05-11 17:53:01.478,1,-0.77,-0.93,1.91,-104.8762,39.1766,48.8734,175,75
2026-05-11 17:53:01.485,1,-0.69,-1.1,1.65,-146.7662,51.06660000000001,55.1534,175,75
2026-05-11 17:53:01.503,1,-0.72,-0.96,1.6,-165.7262,91.06660000000001,77.1034,175,75
2026-05-11 17:53:01.518,1,-0.7,-1.11,1.7,-160.7862,126.0066,89.1834,175,75
2026-05-11 17:53:01.518,1,-0.9,-1.44,0.85,-209.4462,177.10660000000001,61.4334,175,75
2026-05-11 17:53:01.553,1,-1.09,-2.78,0.94,-117.9262,390.03659999999996,117.71340000000001,175,75
2026-05-11 17:53:01.571,1,-0.71,-1.69,1.45,-222.1262,121.12660000000001,78.14340000000001,175,75
2026-05-11 17:53:01.582,1,-0.66,-1.47,1.65,-229.0762,23.2066,69.1834,175,75
2026-05-11 17:53:01.597,1,-0.7,-1.19,1.73,-235.0562,-71.6734,62.0434,175,75
2026-05-11 17:53:01.624,1,-0.84,-0.62,1.61,-207.7962,-131.67340000000002,53.5734,175,75
2026-05-11 17:53:01.635,1,-0.89,-0.41,1.64,-179.5662,-119.7834,50.9534,175,75
2026-05-11 17:53:01.647,1,-0.88,-0.26,1.7,-145.2962,-105.4534,44.4234,175,75
2026-05-11 17:53:01.659,1,-0.89,-0.12,1.79,-112.5562,-86.6134,35.9534,175,75
2026-05-11 17:53:01.684,1,-0.74,0.26,2.03,-21.516199999999998,-50.5134,5.6434,175,75
2026-05-11 17:53:01.703,1,-0.63,0.43,1.85,62.143800000000006,0.15660000000000096,-37.0366,175,75
2026-05-11 17:53:01.718,1,-0.59,0.51,1.86,108.7838,29.296599999999998,-49.4766,175,75
2026-05-11 17:53:01.737,1,-0.63,0.38,1.91,183.5438,-5.643399999999998,-74.04660000000001,175,75
2026-05-11 17:53:01.750,1,-0.67,0.28,1.92,191.53379999999999,-51.9234,-89.17660000000001,175,75
2026-05-11 17:53:01.761,1,-0.67,0.2,1.95,194.8238,-92.4034,-99.53659999999999,175,75
2026-05-11 17:53:01.773,1,-0.64,-0.13,1.89,197.1338,-151.3734,-124.9066,175,75
2026-05-11 17:53:01.787,1,-0.72,-0.44,1.81,190.2438,-196.0634,-147.95659999999998,175,75
2026-05-11 17:53:01.787,1,-1.04,-0.55,1.69,173.4838,-226.4334,-164.29659999999998,175,75
2026-05-11 17:53:01.802,1,-1.31,-0.46,1.69,146.8338,-254.23340000000002,-163.92659999999998,175,75
2026-05-11 17:53:01.812,1,-1.43,-0.45,1.59,118.1738,-291.3734,-161.54659999999998,175,75
2026-05-11 17:53:01.846,1,-3.86,-0.17,1.09,52.503800000000005,-432.9534,-78.3766,175,75
2026-05-11 17:53:01.856,1,-2.4,-1.29,-2.43,-69.6262,-535.6433999999999,129.2434,175,75
2026-05-11 17:53:01.884,1,-0.05,-1.32,4.27,128.2938,741.0066,108.8134,175,75
2026-05-11 17:53:01.895,1,-0.58,-0.72,3.99,109.0338,290.7066,60.89340000000001,175,75
2026-05-11 17:53:01.898,1,-0.05,-1.83,4.32,34.7638,-31.313399999999998,67.29339999999999,175,75
2026-05-11 17:53:01.914,1,-0.31,-1.86,1.51,-125.4862,-253.2034,42.3534,175,75
2026-05-11 17:53:01.929,1,-1.35,-0.51,0.1,-124.2062,-220.9434,28.873399999999997,175,75
2026-05-11 17:53:01.944,1,-1.34,-0.62,0.09,-18.956199999999995,-51.733399999999996,29.303400000000003,175,75
2026-05-11 17:53:01.958,1,-1.16,-1.66,1.4,54.9438,75.7666,14.613399999999999,175,75
2026-05-11 17:53:01.969,1,-0.83,-2.04,1.91,37.0138,39.6666,4.003399999999999,175,75
2026-05-11 17:53:01.980,1,-1.12,-1.49,1.32,-2.376199999999999,-27.653399999999998,-3.1966,175,75
2026-05-11 17:53:01.997,1,-1.37,-1.3,0.92,22.503800000000002,-7.5333999999999985,-30.0866,175,75
2026-05-11 17:53:01.999,1,-1.42,-1.3,1.11,53.4838,40.4566,-47.5866,175,75
2026-05-11 17:53:02.013,1,-1.26,-1.33,1.47,67.0138,64.7866,-60.9366,175,75
2026-05-11 17:53:02.024,1,-1.04,-1.39,1.72,70.2438,69.0566,-68.8066,175,75
2026-05-11 17:53:02.034,1,-0.86,-1.57,1.81,61.713800000000006,58.446600000000004,-78.4366,175,75
2026-05-11 17:53:02.054,1,-0.82,-1.9,2.03,35.433800000000005,161.5566,-78.4366,175,75
2026-05-11 17:53:02.076,1,-0.4,-1.95,2.08,48.113800000000005,209.2966,-87.03659999999999,175,75
2026-05-11 17:53:02.091,1,-0.5,-0.27,2.26,22.073800000000002,168.20659999999998,-7.5866,175,75
2026-05-11 17:53:02.102,1,-1.17,-0.08,1.89,-23.106199999999994,125.7066,18.4534,175,75
2026-05-11 17:53:02.109,1,-1.7,-0.48,1.45,-58.9562,193.6866,52.5334,175,75
2026-05-11 17:53:02.128,1,-0.99,-0.58,2.01,-60.606199999999994,281.3766,78.6934,175,75
2026-05-11 17:53:02.139,1,-0.18,-0.26,2.67,-35.666199999999996,224.1166,63.8734,175,75
2026-05-11 17:53:02.150,1,0.14,0.5,2.93,-7.066199999999997,87.3466,22.1734,175,75
2026-05-11 17:53:02.160,1,-0.03,1.0,2.64,19.153800000000004,-20.513399999999997,-19.906599999999997,175,75
2026-05-11 17:53:02.173,1,-0.46,0.82,2.23,58.8438,-92.7134,-38.0166,175,75
2026-05-11 17:53:02.173,1,0.01,0.55,2.11,101.10379999999999,-97.7734,-63.5666,175,75
2026-05-11 17:53:02.201,1,-1.39,-0.22,0.9,59.333800000000004,-230.4534,-100.0266,175,75
2026-05-11 17:53:02.237,1,-6.09,0.7,-0.58,-35.356199999999994,-240.15339999999998,28.9334,175,75
2026-05-11 17:53:02.249,1,-1.19,-2.25,0.3,95.18379999999999,376.9266,103.39340000000001,175,75
2026-05-11 17:53:02.262,1,0.17,-1.36,5.6,-44.386199999999995,517.4666000000001,164.1834,175,75
2026-05-11 17:53:02.272,1,-1.11,-0.12,4.22,-91.2762,-9.0534,54.9134,175,75
2026-05-11 17:53:02.294,1,-0.27,-2.07,2.23,-67.8562,-203.2634,85.95339999999999,175,75
2026-05-11 17:53:02.294,1,-0.82,-1.15,0.65,-118.46620000000001,-197.46339999999998,75.95339999999999,175,75
2026-05-11 17:53:02.306,1,-1.14,-0.67,0.08,-69.6262,-87.5334,30.343400000000003,175,75
2026-05-11 17:53:02.327,1,-1.01,-2.02,1.12,26.3438,51.126599999999996,12.653400000000001,175,75
2026-05-11 17:53:02.341,1,-0.89,-2.13,1.65,17.9338,9.6066,6.9834,175,75
2026-05-11 17:53:02.351,1,-1.0,-2.1,1.47,0.6738000000000017,-6.863399999999999,-11.3666,175,75
2026-05-11 17:53:02.376,1,-1.32,-1.8,1.09,26.9538,37.9566,-41.0666,175,75
2026-05-11 17:53:02.387,1,-1.26,-1.82,1.25,60.5538,154.84660000000002,-34.4166,175,75
2026-05-11 17:53:02.399,1,-0.74,-1.82,1.89,91.7738,165.9466,-40.3866,175,75
2026-05-11 17:53:02.409,1,-0.49,-2.01,2.07,72.1438,131.6766,-49.1766,175,75
2026-05-11 17:53:02.419,1,-0.42,-2.03,1.9,26.403800000000004,161.2466,-47.7666,175,75
2026-05-11 17:53:02.419,1,-0.11,-2.12,1.65,-6.5161999999999995,193.01659999999998,-40.0866,175,75
2026-05-11 17:53:02.433,1,0.02,-1.83,1.69,-35.356199999999994,232.10660000000001,-30.0266,175,75
2026-05-11 17:53:02.443,1,-1.14,-0.92,2.04,-75.84620000000001,264.4866,2.593400000000001,175,75
2026-05-11 17:53:02.455,1,-2.97,-0.42,1.93,-139.8762,270.4566,79.79339999999999,175,75
2026-05-11 17:53:02.476,1,-3.53,-1.89,0.73,-296.7662,141.1866,187.6534,175,75
2026-05-11 17:53:02.476,1,-4.52,-3.78,-0.55,-433.4662,103.2066,305.7634,175,75
2026-05-11 17:53:02.487,1,-4.94,-4.29,-0.9,-396.7662,192.77659999999997,310.4034,175,75
2026-05-11 17:53:02.510,1,-1.87,-2.9,1.13,-364.2062,208.5666,334.0634,175,75
2026-05-11 17:53:02.534,1,-1.42,-1.88,1.71,-464.8762,33.7466,317.23339999999996,175,75
2026-05-11 17:53:02.545,1,-1.24,-1.48,1.37,-457.1862,48.266600000000004,327.23339999999996,175,75
2026-05-11 17:53:02.555,1,-0.93,-1.08,1.56,-419.6862,87.8966,328.8134,175,75
2026-05-11 17:53:02.567,1,-0.61,-1.11,1.84,-416.7662,87.8966,322.5334,175,75
2026-05-11 17:53:02.581,1,-0.35,-1.29,2.06,-431.7662,28.5666,307.35339999999997,175,75
2026-05-11 17:53:02.593,1,-0.27,-1.22,2.02,-415.1762,-41.553399999999996,290.8934,175,75
2026-05-11 17:53:02.606,1,-0.17,-1.15,2.03,-368.1662,-53.5034,271.80339999999995,175,75
2026-05-11 17:53:02.612,1,0.15,-1.17,2.34,-305.2962,-24.7834,256.3734,175,75
2026-05-11 17:53:02.620,1,0.61,-1.01,3.08,-244.7562,18.2066,250.8934,175,75
2026-05-11 17:53:02.643,1,1.3,-0.64,3.94,-215.7862,34.4266,224.3034,175,75
2026-05-11 17:53:02.651,1,2.35,0.7,4.36,-200.1762,36.7366,161.8034,175,75
2026-05-11 17:53:02.694,1,0.9,1.89,3.71,96.8338,164.84660000000002,-117.76660000000001,175,75
2026-05-11 17:53:02.709,1,0.93,-0.34,4.78,314.5138,74.8466,-152.5266,175,75
2026-05-11 17:53:02.709,1,0.51,-0.08,4.32,266.7738,-69.23339999999999,-221.48659999999998,175,75
2026-05-11 17:53:02.720,1,0.23,-0.11,2.75,294.7038,-140.9434,-290.08660000000003,175,75
2026-05-11 17:53:02.734,1,-0.37,-0.31,1.8,357.4438,-100.0934,-304.4766,175,75
2026-05-11 17:53:02.757,1,-0.57,-0.47,1.91,399.9438,46.1866,-286.3666,175,75
2026-05-11 17:53:02.769,1,-0.64,-0.53,2.16,404.0338,45.946600000000004,-284.7166,175,75
2026-05-11 17:53:02.769,1,-0.64,-0.51,2.3,408.42379999999997,18.5066,-285.69660000000005,175,75
2026-05-11 17:53:02.792,1,-0.76,-0.67,2.27,412.3238,-24.1734,-277.2866,175,75
2026-05-11 17:53:02.813,1,-1.11,-0.7,1.93,403.8438,-57.343399999999995,-268.9866,175,75
2026-05-11 17:53:02.824,1,-1.22,-0.7,1.65,406.3438,-89.6034,-264.9066,175,75
2026-05-11 17:53:02.834,1,-1.34,-0.96,1.3,400.4338,-113.7534,-275.57660000000004,175,75
2026-05-11 17:53:02.845,1,-1.33,-1.24,1.13,392.2038,-125.4534,-277.0366,175,75
2026-05-11 17:53:02.859,1,-1.28,-2.3,1.46,370.4338,-157.16340000000002,-249.1066,175,75
2026-05-11 17:53:02.871,1,-1.53,-2.92,1.59,340.1838,-246.67340000000002,-245.0266,175,75
2026-05-11 17:53:02.881,1,-2.26,-2.87,1.36,286.8338,-362.1034,-210.8166,175,75
2026-05-11 17:53:02.897,1,-2.71,-2.24,0.84,244.9438,-403.1434,-210.0866,175,75
2026-05-11 17:53:02.910,1,-2.75,-1.73,0.66,213.3538,-392.9534,-190.51659999999998,175,75
2026-05-11 17:53:02.921,1,-2.81,-1.21,0.51,167.1338,-359.96340000000004,-151.42659999999998,175,75
2026-05-11 17:53:02.933,1,-2.92,-0.94,0.26,80.9838,-311.7934,-96.91659999999999,175,75
2026-05-11 17:53:02.937,1,-2.92,-0.61,0.02,25.3138,-256.4334,-58.3766,175,75
2026-05-11 17:53:02.961,1,-6.71,0.29,-0.38,2.443800000000002,-143.6234,100.95339999999999,175,75
2026-05-11 17:53:02.986,1,2.38,-3.51,-0.19,-79.20620000000001,-3.0733999999999995,216.4334,175,75
2026-05-11 17:53:02.986,1,-0.71,-4.76,5.29,116.46379999999999,856.4366,158.6334,175,75
2026-05-11 17:53:03.003,1,2.38,-1.35,4.86,28.4238,166.0066,146.6234,175,75
2026-05-11 17:53:03.015,1,-2.77,-1.02,4.0,-168.8362,-413.3834,97.23339999999999,175,75
2026-05-11 17:53:03.025,1,-0.42,0.12,1.91,-259.32620000000003,-283.2034,154.0634,175,75
2026-05-11 17:53:03.039,1,-0.93,-1.68,0.12,-156.0962,-178.2034,56.5634,175,75
2026-05-11 17:53:03.051,1,0.13,-4.07,-0.86,-194.5662,-199.3634,37.1734,175,75
2026-05-11 17:53:03.062,1,-2.25,-1.56,-0.17,-147.3162,-46.123400000000004,67.71340000000001,175,75
2026-05-11 17:53:03.075,1,-0.66,-0.02,1.45,-19.5062,116.9866,74.1234,175,75
2026-05-11 17:53:03.085,1,-0.89,-0.41,1.71,-14.4462,25.946600000000004,55.0334,175,75
2026-05-11 17:53:03.104,1,-1.79,-0.69,1.06,19.0338,10.826600000000003,-9.0466,175,75
2026-05-11 17:53:03.115,1,-1.66,-0.79,1.38,52.2038,49.3566,-31.6066,175,75
2026-05-11 17:53:03.126,1,-1.48,-1.0,1.36,69.3938,38.6866,-60.7566,175,75
2026-05-11 17:53:03.144,1,-1.43,-1.1,1.29,88.7238,47.8966,-76.54660000000001,175,75
2026-05-11 17:53:03.144,1,-1.34,-1.23,1.36,108.60379999999999,60.5166,-85.0266,175,75
2026-05-11 17:53:03.161,1,-1.26,-1.47,1.51,128.6638,68.56660000000001,-90.26660000000001,175,75
2026-05-11 17:53:03.161,1,-1.02,-1.8,1.73,147.0738,102.8966,-92.70660000000001,175,75
2026-05-11 17:53:03.180,1,-0.22,-2.66,1.96,123.7838,180.57659999999998,-110.63659999999999,175,75
2026-05-11 17:53:03.192,1,-0.18,-2.1,2.19,53.8438,146.1866,-59.2966,175,75
2026-05-11 17:53:03.216,1,-0.77,-1.16,2.78,26.043800000000005,242.46659999999997,4.243399999999999,175,75
2026-05-11 17:53:03.237,1,-1.51,-0.04,2.28,-52.5562,158.3866,73.8134,175,75
2026-05-11 17:53:03.250,1,-1.0,-0.37,1.8,-71.70620000000001,179.60660000000001,84.67339999999999,175,75
2026-05-11 17:53:03.269,1,-0.61,0.15,2.22,-39.5062,187.77659999999997,74.54339999999999,175,75
2026-05-11 17:53:03.301,1,0.04,0.68,2.68,10.553800000000003,163.9966,39.3034,175,75
2026-05-11 17:53:03.309,1,0.12,0.4,2.84,109.7638,-66.0634,-42.8266,175,75
2026-05-11 17:53:03.322,1,0.24,0.62,2.7,119.21379999999999,-133.3834,-72.95660000000001,175,75
2026-05-11 17:53:03.322,1,-0.01,0.26,2.08,112.1438,-216.1834,-89.23660000000001,175,75
2026-05-11 17:53:03.333,1,-1.03,0.07,1.41,83.2338,-254.96339999999998,-102.2166,175,75
2026-05-11 17:53:03.365,1,-1.65,0.01,0.76,31.1038,-249.1134,-73.3766,175,75
2026-05-11 17:53:03.367,1,-1.63,0.12,0.24,-2.8661999999999974,-183.9934,-63.5666,175,75
2026-05-11 17:53:03.375,1,-3.22,0.45,-0.16,-9.756199999999998,-126.7334,-1.4866000000000001,175,75
2026-05-11 17:53:03.412,1,-6.28,0.74,-0.72,-12.316199999999997,-110.3934,78.39340000000001,175,75
2026-05-11 17:53:03.430,1,0.17,-2.41,0.44,-2.6161999999999974,196.9866,133.3934,175,75
2026-05-11 17:53:03.441,1,-0.72,-0.49,3.93,-113.7762,38.266600000000004,79.1834,175,75
2026-05-11 17:53:03.452,1,-0.05,-2.21,2.9,-71.2762,-250.21339999999998,93.8734,175,75
2026-05-11 17:53:03.473,1,-1.23,-1.06,0.25,-39.8762,-30.943399999999997,39.0034,175,75
2026-05-11 17:53:03.501,1,-1.02,-1.8,0.96,15.313800000000002,67.5366,25.6434,175,75
2026-05-11 17:53:03.511,1,-1.14,-2.46,1.78,0.7938000000000027,46.3166,-0.6966000000000001,175,75
2026-05-11 17:53:03.535,1,-1.1,-2.18,1.26,-16.336199999999998,48.3266,-33.3166,175,75
2026-05-11 17:53:03.573,1,0.01,-2.5,2.73,-28.896199999999993,209.60660000000001,19.4234,175,75
2026-05-11 17:53:03.607,1,-4.08,-1.35,1.0,-224.2062,115.8866,159.3634,175,75
2026-05-11 17:53:03.607,1,-3.65,-2.39,-0.09,-351.4562,146.1266,252.2334,175,75
2026-05-11 17:53:03.626,1,-4.52,-3.33,-1.07,-411.88620000000003,174.0566,288.5134,175,75
2026-05-11 17:53:03.663,1,-1.93,-2.82,1.44,-272.6762,252.40659999999997,332.7134,175,75
2026-05-11 17:53:03.674,1,-1.37,-2.2,2.01,-381.0962,122.59660000000001,315.7034,175,75
2026-05-11 17:53:03.674,1,-1.18,-1.74,1.73,-420.9662,74.3566,316.74339999999995,175,75
2026-05-11 17:53:03.684,1,-0.89,-1.29,1.33,-404.5662,78.4466,320.8934,175,75
2026-05-11 17:53:03.709,1,-0.59,-1.08,1.41,-389.8162,94.5466,311.80339999999995,175,75
2026-05-11 17:53:03.732,1,-0.03,-0.98,2.01,-385.7862,-15.883399999999998,280.0334,175,75
2026-05-11 17:53:03.742,1,0.25,-0.65,2.22,-353.5962,-107.8934,266.98339999999996,175,75
2026-05-11 17:53:03.753,1,0.54,-0.06,2.42,-258.5362,-166.5534,221.8034,175,75
2026-05-11 17:53:03.795,1,1.77,2.9,4.2,40.4938,127.0466,-75.32660000000001,175,75
2026-05-11 17:53:03.817,1,0.79,0.21,4.23,307.5038,268.6866,-99.35659999999999,175,75
2026-05-11 17:53:03.836,1,0.66,0.47,4.52,329.5738,110.0366,-159.6566,175,75
2026-05-11 17:53:03.837,1,0.45,0.33,3.78,311.3438,12.956600000000002,-207.5266,175,75
2026-05-11 17:53:03.874,1,-0.38,-0.1,1.73,364.8838,5.2166,-246.73659999999998,175,75
2026-05-11 17:53:03.885,1,-0.48,0.07,1.83,388.0538,75.3366,-232.82659999999998,175,75
2026-05-11 17:53:03.896,1,-0.4,-0.13,2.21,402.0138,53.0166,-216.9166,175,75
2026-05-11 17:53:03.918,1,-0.55,-0.39,2.29,387.5638,-0.7033999999999985,-213.4366,175,75
2026-05-11 17:53:03.918,1,-0.65,-0.18,2.18,364.8238,-51.0034,-220.9366,175,75
2026-05-11 17:53:03.944,1,-0.8,-0.04,1.94,351.4038,-105.0334,-230.3866,175,75
2026-05-11 17:53:03.944,1,-0.92,-0.17,1.78,346.7138,-120.6434,-234.7866,175,75
2026-05-11 17:53:03.965,1,-0.89,-0.6,1.24,345.3738,-151.4334,-258.1366,175,75
2026-05-11 17:53:03.986,1,-1.47,-1.2,1.0,301.2838,-186.0034,-264.3566,175,75
2026-05-11 17:53:03.998,1,-1.69,-1.64,0.99,280.1238,-173.2634,-246.6066,175,75
2026-05-11 17:53:04.016,1,-1.71,-2.1,1.17,264.9438,-194.78339999999997,-229.23659999999998,175,75
2026-05-11 17:53:04.034,1,-1.65,-2.91,1.09,256.7738,-256.6134,-210.8166,175,75
2026-05-11 17:53:04.034,1,-2.28,-2.82,0.77,226.53379999999999,-342.34340000000003,-192.5266,175,75
2026-05-11 17:53:04.048,1,-2.33,-1.78,0.48,178.0538,-333.5034,-182.2866,175,75
2026-05-11 17:53:04.072,1,-2.27,-0.59,0.68,89.4538,-252.40339999999998,-89.04660000000001,175,75
2026-05-11 17:53:04.085,1,-2.15,-0.17,1.07,-17.0062,-214.1134,-15.3266,175,75
2026-05-11 17:53:04.107,1,-6.23,-0.32,-1.4,-181.7662,-440.33340000000004,316.0734,175,75
2026-05-11 17:53:04.107,1,4.5,-3.32,-0.52,-38.0462,-28.263399999999997,309.60339999999997,175,75
2026-05-11 17:53:04.123,1,-2.38,-4.94,7.06,148.78379999999999,949.1766,128.6934,175,75
2026-05-11 17:53:04.133,1,-0.11,-1.38,4.72,37.2638,84.3566,162.17340000000002,175,75
2026-05-11 17:53:04.155,1,-0.2,-1.8,2.47,-199.5662,-339.6634,121.3134,175,75
2026-05-11 17:53:04.166,1,-0.83,-0.49,-0.0,-276.82620000000003,-299.7234,117.96340000000001,175,75
2026-05-11 17:53:04.173,1,-1.12,-1.26,-0.56,-99.56620000000001,-77.71340000000001,67.96340000000001,175,75
2026-05-11 17:53:04.186,1,-1.05,-2.26,0.01,-39.0162,19.1766,67.29339999999999,175,75
2026-05-11 17:53:04.196,1,-1.39,-2.13,1.23,-23.956199999999995,94.42660000000001,68.9334,175,75
2026-05-11 17:53:04.244,1,-1.76,-0.81,1.36,47.933800000000005,38.016600000000004,-14.5966,175,75
2026-05-11 17:53:04.266,1,-1.34,-1.36,1.56,47.8138,25.7066,-64.6566,175,75
2026-05-11 17:53:04.277,1,-1.22,-1.28,1.42,47.8138,26.0666,-75.75659999999999,175,75
2026-05-11 17:53:04.290,1,-1.13,-1.4,1.47,79.82379999999999,70.9466,-86.3066,175,75
2026-05-11 17:53:04.304,1,-0.75,-1.79,1.57,121.7738,154.4266,-138.8066,175,75
2026-05-11 17:53:04.356,1,-0.28,-1.78,2.1,77.4438,158.9966,-80.51660000000001,175,75
2026-05-11 17:53:04.383,1,-0.85,-2.03,2.5,48.4838,164.0566,-62.8866,175,75
2026-05-11 17:53:04.383,1,-0.64,-1.6,2.82,41.1638,127.40660000000001,-22.4066,175,75
2026-05-11 17:53:04.394,1,-1.31,-0.34,2.47,0.8538000000000014,56.126599999999996,10.8934,175,75
2026-05-11 17:53:04.419,1,-1.37,-0.08,1.85,-19.5062,85.5766,30.0334,175,75
2026-05-11 17:53:04.441,1,-0.96,-0.07,1.74,-30.7262,149.96660000000003,45.2134,175,75
2026-05-11 17:53:04.441,1,-0.62,0.2,1.99,-15.666199999999998,135.76659999999998,37.5934,175,75
2026-05-11 17:53:04.479,1,-0.03,0.67,2.75,67.2038,-6.553399999999998,-9.656600000000001,175,75
2026-05-11 17:53:04.489,1,-0.39,0.32,2.51,85.9238,-89.9034,-34.5366,175,75
2026-05-11 17:53:04.501,1,-0.65,0.38,1.87,89.0938,-193.2634,-62.8266,175,75
2026-05-11 17:53:04.522,1,-0.61,0.38,1.54,84.3938,-171.0034,-68.6266,175,75
2026-05-11 17:53:04.522,1,-0.87,0.05,1.05,56.653800000000004,-166.1234,-67.8866,175,75
2026-05-11 17:53:04.533,1,-1.23,-0.09,0.7,26.043800000000005,-158.3234,-62.0966,175,75
2026-05-11 17:53:04.546,1,-2.81,-0.02,0.3,-4.996199999999998,-156.0634,-14.2966,175,75
2026-05-11 17:53:04.546,1,-4.89,0.69,-0.33,-50.7262,-167.10340000000002,68.14340000000001,175,75
2026-05-11 17:53:04.563,1,-0.31,-1.74,1.26,16.5938,212.65660000000003,119.9134,175,75
2026-05-11 17:53:04.575,1,-0.13,-1.65,5.54,-44.6262,371.0666,120.0334,175,75
2026-05-11 17:53:04.588,1,-0.76,-0.63,3.64,-100.9062,-25.7034,51.4334,175,75
2026-05-11 17:53:04.588,1,-0.24,-2.54,2.19,-79.4462,-245.8234,93.9334,175,75
2026-05-11 17:53:04.599,1,-1.03,-1.44,0.54,-120.4262,-139.6034,81.1934,175,75
2026-05-11 17:53:04.624,1,-1.15,-1.04,0.39,-13.226199999999997,-34.7834,41.2534,175,75
2026-05-11 17:53:04.672,1,-1.01,-2.36,1.81,24.213800000000003,38.9366,18.2634,175,75
2026-05-11 17:53:04.683,1,-1.27,-1.76,1.23,6.163800000000002,51.616600000000005,-24.1066,175,75
2026-05-11 17:53:04.693,1,-1.28,-1.79,1.65,30.793800000000005,93.81660000000001,-33.986599999999996,175,75
2026-05-11 17:53:04.715,1,0.57,-2.99,2.49,46.28380000000001,252.59659999999997,12.2334,175,75
2026-05-11 17:53:04.760,1,-1.01,-1.55,1.69,-54.5062,274.2966,6.683400000000001,175,75
2026-05-11 17:53:04.773,1,-4.69,-0.98,1.27,-158.1062,293.2666,128.26340000000002,175,75
2026-05-11 17:53:04.793,1,-4.2,-2.37,0.74,-279.5662,332.34659999999997,275.4034,175,75
2026-05-11 17:53:04.838,1,-1.84,-2.91,0.18,-269.0162,366.0066,286.0134,175,75
2026-05-11 17:53:04.851,1,-1.33,-2.55,1.54,-311.3362,236.0666,302.7134,175,75
2026-05-11 17:53:04.851,1,-0.99,-1.34,1.26,-405.8462,25.5766,279.36339999999996,175,75
2026-05-11 17:53:04.863,1,-0.94,-0.89,1.15,-384.7562,43.016600000000004,292.47339999999997,175,75
2026-05-11 17:53:04.875,1,-0.74,-0.61,1.39,-376.0962,64.4866,296.4334,175,75
2026-05-11 17:53:04.893,1,-0.41,-0.43,1.76,-379.07620000000003,53.81660000000001,300.4634,175,75
2026-05-11 17:53:04.903,1,-0.1,-0.42,2.1,-377.2562,-20.3934,290.8934,175,75
2026-05-11 17:53:04.926,1,0.24,0.03,2.28,-307.9262,-122.7134,261.1334,175,75
2026-05-11 17:53:04.939,1,0.86,0.07,2.81,-250.9062,-80.57339999999999,247.7134,175,75
2026-05-11 17:53:04.950,1,1.64,-0.24,3.7,-200.5462,32.8966,208.32340000000002,175,75
2026-05-11 17:53:04.960,1,1.17,1.88,5.97,-10.1762,198.7466,-23.8066,175,75
2026-05-11 17:53:05.006,1,0.31,0.08,2.48,332.8138,-155.8234,-245.7566,175,75
2026-05-11 17:53:05.017,1,-0.4,-0.54,1.75,355.0038,-77.6534,-261.6766,175,75
2026-05-11 17:53:05.028,1,-0.55,-0.57,1.72,352.3238,-4.233399999999998,-255.1466,175,75
2026-05-11 17:53:05.064,1,-0.77,-0.1,2.03,345.67379999999997,-11.433399999999999,-263.8066,175,75
2026-05-11 17:53:05.074,1,-0.75,-0.45,1.98,354.2738,-35.0934,-268.8066,175,75
2026-05-11 17:53:05.091,1,-1.0,-0.79,1.35,366.0438,-63.1434,-286.1866,175,75
2026-05-11 17:53:05.112,1,-1.68,-1.79,0.34,321.0438,-99.1134,-288.6866,175,75
2026-05-11 17:53:05.124,1,-2.32,-2.62,0.29,288.2338,-59.7834,-235.20659999999998,175,75
2026-05-11 17:53:05.139,1,-2.09,-3.23,0.66,279.7038,-39.7834,-185.45659999999998,175,75
2026-05-11 17:53:05.153,1,-1.78,-1.71,1.19,228.2938,-287.0434,-130.0266,175,75
2026-05-11 17:53:05.164,1,-2.0,-1.06,1.14,179.1538,-374.0534,-97.76660000000001,175,75
2026-05-11 17:53:05.213,1,-8.46,0.23,-0.53,-58.65619999999999,-395.09340000000003,40.0334,175,75
2026-05-11 17:53:05.213,1,-4.34,-0.69,-2.04,-137.9262,-494.4234,321.6834,175,75
2026-05-11 17:53:05.235,1,0.94,-7.15,1.4,310.3138,322.8966,147.6534,175,75
2026-05-11 17:53:05.246,1,-0.47,-0.69,3.6,81.3438,223.5066,102.9034,175,75
2026-05-11 17:53:05.256,1,0.42,-2.17,2.52,-167.8662,-241.1834,102.5334,175,75
2026-05-11 17:53:05.282,1,-0.9,-2.37,-0.29,-141.27620000000002,-92.8934,65.0334,175,75
2026-05-11 17:53:05.300,1,-2.05,-2.14,0.8,-67.7362,27.596600000000002,77.4734,175,75
2026-05-11 17:53:05.311,1,-1.36,-1.05,1.84,-42.1862,122.1666,106.07339999999999,175,75
2026-05-11 17:53:05.311,1,-0.83,-0.64,1.82,-39.566199999999995,-8.873399999999998,95.46340000000001,175,75
2026-05-11 17:53:05.333,1,-1.74,-0.84,0.36,-7.186199999999998,-34.7234,37.1734,175,75
2026-05-11 17:53:05.375,1,-1.38,-1.17,1.7,76.71379999999999,26.126600000000003,-51.1266,175,75
2026-05-11 17:53:05.407,1,-1.11,-1.31,1.42,108.0538,63.446600000000004,-84.9666,175,75
2026-05-11 17:53:05.424,1,-0.61,-1.87,1.98,105.79379999999999,153.8166,-101.73660000000001,175,75
2026-05-11 17:53:05.436,1,-0.16,-2.33,1.99,79.7038,238.9966,-134.3566,175,75
2026-05-11 17:53:05.446,1,-0.5,-1.92,2.39,24.333800000000004,234.5466,-73.8066,175,75
2026-05-11 17:53:05.483,1,-1.39,-0.33,2.5,-57.98619999999999,37.3466,25.3434,175,75
2026-05-11 17:53:05.493,1,-1.05,-0.38,2.32,-67.7362,50.8866,30.403399999999998,175,75
2026-05-11 17:53:05.519,1,-0.13,0.93,2.3,32.0738,-21.063399999999998,-46.3666,175,75
2026-05-11 17:53:05.535,1,-0.14,0.7,2.21,89.21379999999999,-36.373400000000004,-66.7966,175,75
2026-05-11 17:53:05.557,1,-0.04,0.36,2.21,132.62380000000002,-113.32339999999999,-121.67660000000001,175,75
2026-05-11 17:53:05.568,1,-0.29,-0.03,1.95,128.6038,-158.7534,-114.53659999999999,175,75
2026-05-11 17:53:05.583,1,-1.27,-0.37,1.34,88.1138,-238.0134,-96.1866,175,75
2026-05-11 17:53:05.590,1,-1.69,-0.27,0.42,10.003800000000002,-252.65339999999998,-75.9366,175,75
2026-05-11 17:53:05.615,1,-5.25,0.53,-0.27,-53.2262,-239.66340000000002,39.1234,175,75
2026-05-11 17:53:05.629,1,-5.48,0.22,-1.77,-153.5362,-413.1434,221.2534,175,75
2026-05-11 17:53:05.640,1,-1.47,-2.54,-0.42,-119.7562,-91.43339999999999,124.0634,175,75
2026-05-11 17:53:05.673,1,-1.26,-2.46,5.68,128.5438,697.2866,160.6434,175,75
2026-05-11 17:53:05.684,1,-1.61,0.08,4.53,-42.676199999999994,105.0966,80.0334,175,75
2026-05-11 17:53:05.701,1,-0.67,-0.81,3.49,-16.336199999999998,-153.9934,135.8934,175,75
2026-05-11 17:53:05.711,1,-0.8,-2.01,2.28,-72.3762,-164.48340000000002,90.2834,175,75
2026-05-11 17:53:05.733,1,-1.28,-2.08,0.14,-48.776199999999996,-18.993399999999998,31.013399999999997,175,75
2026-05-11 17:53:05.755,1,-0.66,-1.99,0.74,9.573800000000002,52.89660000000001,45.7634,175,75
2026-05-11 17:53:05.771,1,-1.38,-1.54,1.64,-1.6461999999999986,55.03660000000001,-8.4366,175,75
2026-05-11 17:53:05.782,1,-1.23,-2.07,2.0,12.073800000000002,79.6666,-47.3466,175,75
2026-05-11 17:53:05.794,1,-1.18,-2.11,2.15,2.9338000000000015,95.2766,-48.2566,175,75
2026-05-11 17:53:05.806,1,-0.83,-1.98,2.15,33.6638,220.15660000000003,-64.5966,175,75
2026-05-11 17:53:05.806,1,-0.14,-1.72,1.94,7.073800000000002,166.0066,-48.4966,175,75
2026-05-11 17:53:05.818,1,-0.4,-0.92,1.47,5.673800000000002,177.59660000000002,3.9334000000000007,175,75
2026-05-11 17:53:05.830,1,-0.32,-0.66,1.79,10.793800000000003,211.1866,-0.5166000000000004,175,75
2026-05-11 17:53:05.855,1,-0.64,-0.85,1.97,-39.5062,194.96660000000003,15.4634,175,75
2026-05-11 17:53:05.855,1,-2.85,-0.94,1.24,-161.0962,130.9466,75.52340000000001,175,75
2026-05-11 17:53:05.866,1,-3.51,-1.65,0.16,-298.4062,97.7766,165.0334,175,75
2026-05-11 17:53:05.878,1,-3.65,-2.49,-0.66,-390.1762,113.56660000000001,235.82340000000002,175,75
2026-05-11 17:53:05.888,1,-4.26,-3.16,-0.97,-367.3162,227.53660000000002,279.60339999999997,175,75
2026-05-11 17:53:05.898,1,-2.49,-3.77,0.38,-300.6062,285.7066,302.17339999999996,175,75
2026-05-11 17:53:05.898,1,-1.73,-3.12,1.74,-361.4562,211.9866,313.6934,175,75
2026-05-11 17:53:05.930,1,-1.39,-1.98,1.39,-460.5462,46.1266,328.3934,175,75
2026-05-11 17:53:05.941,1,-1.21,-1.82,1.33,-437.3762,59.116600000000005,340.6434,175,75
2026-05-11 17:53:05.963,1,-0.67,-1.36,1.82,-422.9862,49.6666,341.2534,175,75
2026-05-11 17:53:05.963,1,-0.6,-1.48,1.91,-412.3162,8.6266,334.60339999999997,175,75
2026-05-11 17:53:05.973,1,-0.57,-1.43,1.97,-388.8362,-27.0434,330.4634,175,75
2026-05-11 17:53:05.985,1,-0.47,-1.19,2.11,-354.32620000000003,-53.2034,327.9634,175,75
2026-05-11 17:53:05.996,1,-0.36,-0.9,2.35,-312.8662,-60.3334,317.6534,175,75
2026-05-11 17:53:06.009,1,-0.19,-0.67,2.67,-251.27620000000002,-12.773399999999999,292.29339999999996,175,75
2026-05-11 17:53:06.034,1,0.31,-0.31,3.21,-200.1762,53.9366,272.23339999999996,175,75
2026-05-11 17:53:06.035,1,1.02,0.17,3.71,-178.3462,85.1566,235.76340000000002,175,75
2026-05-11 17:53:06.056,1,1.67,1.08,4.12,-148.6562,82.1066,164.9134,175,75
2026-05-11 17:53:06.056,1,1.71,2.38,3.93,-57.18619999999999,96.2466,69.36340000000001,175,75
2026-05-11 17:53:06.067,1,1.46,2.39,4.1,105.6738,149.66660000000002,-40.2666,175,75
2026-05-11 17:53:06.082,1,1.11,0.4,3.86,231.7738,174.2966,-118.7466,175,75
2026-05-11 17:53:06.095,1,1.03,0.48,4.03,289.2738,69.42660000000001,-148.07659999999998,175,75
2026-05-11 17:53:06.095,1,0.7,0.43,3.55,289.8238,-21.5534,-197.2166,175,75
2026-05-11 17:53:06.105,1,0.27,-0.01,2.97,287.4438,-91.1234,-232.76659999999998,175,75
2026-05-11 17:53:06.116,1,-0.17,0.02,2.23,313.6038,-125.8834,-266.4266,175,75
2026-05-11 17:53:06.128,1,-0.5,-0.08,1.95,335.4338,-94.7834,-270.51660000000004,175,75
2026-05-11 17:53:06.140,1,-0.53,-0.29,1.86,347.1338,-58.5034,-277.0966,175,75
2026-05-11 17:53:06.171,1,-0.62,-0.36,2.1,369.7038,-46.4334,-275.39660000000003,175,75
2026-05-11 17:53:06.171,1,-0.64,-0.46,2.18,374.4538,-69.3634,-267.2866,175,75
2026-05-11 17:53:06.184,1,-0.82,-0.52,2.06,353.17379999999997,-79.23339999999999,-274.4766,175,75
2026-05-11 17:53:06.223,1,-0.96,-0.56,1.51,347.5038,-93.8134,-263.19660000000005,175,75
2026-05-11 17:53:06.263,1,-0.97,-0.78,1.34,343.6638,-123.32339999999999,-266.6066,175,75
2026-05-11 17:53:06.263,1,-0.99,-1.13,1.21,337.8738,-134.1134,-275.8766,175,75
2026-05-11 17:53:06.292,1,-1.62,-2.65,1.44,270.92379999999997,-235.5734,-214.7866,175,75
2026-05-11 17:53:06.304,1,-2.01,-2.73,1.24,219.2138,-382.9534,-186.0666,175,75
2026-05-11 17:53:06.326,1,-2.81,-1.28,0.23,143.1738,-413.8134,-175.57659999999998,175,75
2026-05-11 17:53:06.338,1,-2.93,-0.59,0.3,91.7738,-315.4534,-111.60659999999999,175,75
2026-05-11 17:53:06.369,1,-8.49,0.01,-0.23,-42.316199999999995,-251.67340000000002,26.623399999999997,175,75
2026-05-11 17:53:06.391,1,-1.29,-5.89,4.76,252.50379999999998,631.6166000000001,90.3434,175,75
2026-05-11 17:53:06.402,1,0.91,-1.09,3.67,76.10379999999999,222.34660000000002,79.0634,175,75
2026-05-11 17:53:06.406,1,-1.12,-1.81,2.62,-138.9562,-266.1834,103.45339999999999,175,75
2026-05-11 17:53:06.423,1,-0.69,-0.69,1.11,-175.3662,-156.67340000000002,101.01339999999999,175,75
2026-05-11 17:53:06.435,1,-0.68,-2.59,0.61,-80.4862,-91.0634,63.14340000000001,175,75
2026-05-11 17:53:06.435,1,-0.99,-3.23,0.42,-97.92620000000001,-73.32339999999999,64.8534,175,75
2026-05-11 17:53:06.447,1,-1.42,-1.26,0.88,-68.6562,35.2166,82.8434,175,75
2026-05-11 17:53:06.448,1,-0.99,-0.81,1.23,-12.8562,34.4266,78.51339999999999,175,75
2026-05-11 17:53:06.463,1,-1.26,-0.91,0.89,10.853800000000001,-0.9433999999999987,49.0634,175,75
2026-05-11 17:53:06.476,1,-1.81,-0.96,0.95,42.9938,22.9566,20.2134,175,75
2026-05-11 17:53:06.481,1,-1.82,-0.98,1.38,81.1638,63.3266,-14.2366,175,75
2026-05-11 17:53:06.492,1,-1.48,-1.24,1.77,106.2238,66.2466,-41.1266,175,75
2026-05-11 17:53:06.503,1,-1.31,-1.49,1.7,91.3438,50.5166,-64.17660000000001,175,75
2026-05-11 17:53:06.528,1,-1.2,-1.32,1.59,94.2738,88.7466,-84.23660000000001,175,75
2026-05-11 17:53:06.528,1,-1.14,-1.34,1.72,100.3138,128.20659999999998,-92.0966,175,75
2026-05-11 17:53:06.540,1,-0.81,-1.54,1.95,92.6238,194.4866,-119.10659999999999,175,75
2026-05-11 17:53:06.564,1,-0.68,-1.86,2.17,73.1738,277.22659999999996,-157.82659999999998,175,75
2026-05-11 17:53:06.575,1,-0.37,-1.59,2.71,54.333800000000004,272.34659999999997,-81.42660000000001,175,75
2026-05-11 17:53:06.575,1,-0.56,-1.1,3.22,33.9638,231.6166,-50.0866,175,75
2026-05-11 17:53:06.586,1,-0.76,-0.4,2.92,12.013800000000002,109.8466,-24.7866,175,75
2026-05-11 17:53:06.608,1,-1.82,-0.39,2.12,-34.6262,70.8866,15.8934,175,75
2026-05-11 17:53:06.608,1,-1.56,-0.53,1.85,-68.4662,120.33659999999999,50.6434,175,75
2026-05-11 17:53:06.653,1,-0.05,0.65,2.15,-12.736199999999998,-51.1834,-0.2065999999999999,175,75
2026-05-11 17:53:06.656,1,0.22,0.73,2.0,15.853800000000001,-99.3634,-25.2666,175,75
2026-05-11 17:53:06.684,1,0.45,0.66,2.28,57.2038,-151.1234,-72.8966,175,75
2026-05-11 17:53:06.721,1,-1.43,0.23,0.92,10.063800000000002,-261.7334,-77.2166,175,75
2026-05-11 17:53:06.721,1,-2.16,0.36,0.62,-8.716199999999999,-209.42340000000002,-60.0866,175,75
2026-05-11 17:53:06.738,1,-6.07,0.45,-0.31,-43.0462,-245.64339999999999,32.2934,175,75
2026-05-11 17:53:06.746,1,-6.66,0.29,-1.89,-140.0562,-379.6634,192.5334,175,75
2026-05-11 17:53:06.759,1,0.5,-2.69,-0.84,-20.4262,81.7366,89.1234,175,75
2026-05-11 17:53:06.779,1,-0.28,-1.34,4.96,-50.7262,410.5766,103.6934,175,75
2026-05-11 17:53:06.804,1,-0.46,-1.82,2.7,-81.45620000000001,-200.09339999999997,87.5934,175,75
2026-05-11 17:53:06.804,1,-0.91,-1.23,1.1,-121.21620000000001,-221.5534,84.67339999999999,175,75
2026-05-11 17:53:06.819,1,-1.43,-1.02,0.2,-69.9962,-120.9434,39.9134,175,75
2026-05-11 17:53:06.842,1,-1.15,-2.17,1.27,41.5938,36.9266,-9.2366,175,75
2026-05-11 17:53:06.855,1,-1.22,-2.08,1.88,43.8438,26.4966,-30.1466,175,75
2026-05-11 17:53:06.888,1,-1.3,-1.74,1.46,78.2338,74.3566,-114.8466,175,75
2026-05-11 17:53:06.915,1,-0.65,-2.14,2.32,104.3938,188.26659999999998,-147.95659999999998,175,75
2026-05-11 17:53:06.930,1,-0.59,-1.59,2.5,74.9438,160.45659999999998,-117.3466,175,75
2026-05-11 17:53:06.957,1,-1.25,-0.2,1.67,-3.7761999999999976,92.8366,-25.5166,175,75
2026-05-11 17:53:06.975,1,-4.13,-0.57,-0.2,-198.6562,260.8266,154.54340000000002,175,75
2026-05-11 17:53:06.990,1,-3.24,-2.2,-0.67,-348.5962,307.1066,234.1834,175,75
2026-05-11 17:53:07.022,1,-1.65,-5.0,1.64,-411.4562,186.4366,329.1234,175,75
2026-05-11 17:53:07.034,1,-1.2,-3.05,1.62,-508.71619999999996,82.5966,321.0734,175,75
2026-05-11 17:53:07.050,1,-0.92,-2.44,1.44,-511.45619999999997,16.186600000000002,331.1334,175,75
2026-05-11 17:53:07.061,1,-0.67,-1.84,1.43,-484.9962,25.5766,326.1934,175,75
2026-05-11 17:53:07.071,1,-0.52,-1.48,1.57,-479.4462,45.5766,332.5934,175,75
2026-05-11 17:53:07.082,1,-0.42,-1.53,1.74,-480.2962,36.9266,331.5034,175,75
2026-05-11 17:53:07.088,1,-0.38,-1.67,1.84,-467.1862,16.2466,325.4634,175,75
2026-05-11 17:53:07.130,1,-0.29,-1.31,2.75,-351.4562,85.6366,280.9534,175,75
2026-05-11 17:53:07.141,1,-0.08,-1.17,3.46,-290.7862,167.59660000000002,272.6534,175,75
2026-05-11 17:53:07.152,1,0.54,-0.95,4.76,-219.2062,216.85660000000001,257.8434,175,75
2026-05-11 17:53:07.164,1,1.76,0.2,5.64,-196.8262,189.72660000000002,221.92340000000002,175,75
2026-05-11 17:53:07.174,1,2.1,1.56,5.69,-123.77620000000002,112.2866,145.82340000000002,175,75
2026-05-11 17:53:07.180,1,1.64,3.09,5.49,7.013800000000002,134.90660000000003,12.7134,175,75
2026-05-11 17:53:07.198,1,0.66,2.69,5.26,164.2138,141.0666,-69.23660000000001,175,75
2026-05-11 17:53:07.201,1,0.93,0.23,4.82,339.4538,136.5566,-142.4066,175,75
2026-05-11 17:53:07.238,1,0.53,-0.3,3.64,342.6238,-202.65339999999998,-228.4966,175,75
2026-05-11 17:53:07.248,1,-0.27,-0.02,1.93,384.8238,-257.7134,-285.9966,175,75
2026-05-11 17:53:07.277,1,-0.73,-0.65,1.47,437.8738,-116.0034,-279.2966,175,75
2026-05-11 17:53:07.324,1,-0.6,-0.81,1.98,459.2738,-39.663399999999996,-280.63660000000004,175,75
2026-05-11 17:53:07.335,1,-0.79,-1.2,2.22,459.3338,-56.553399999999996,-276.4266,175,75
2026-05-11 17:53:07.336,1,-1.17,-1.19,2.16,430.8538,-59.9034,-283.8066,175,75
2026-05-11 17:53:07.368,1,-1.06,-0.57,2.11,413.3538,-49.9634,-270.32660000000004,175,75
2026-05-11 17:53:07.375,1,-0.98,-0.54,2.12,407.3838,-64.6034,-249.9666,175,75
2026-05-11 17:53:07.387,1,-0.79,-1.31,1.4,388.2938,-112.7734,-267.3466,175,75
2026-05-11 17:53:07.398,1,-0.87,-1.5,1.18,378.0538,-109.9634,-267.0966,175,75
2026-05-11 17:53:07.408,1,-1.23,-1.74,1.04,348.7238,-115.0334,-256.1266,175,75
2026-05-11 17:53:07.426,1,-1.06,-2.05,1.12,334.8838,-128.5634,-249.6566,175,75
2026-05-11 17:53:07.479,1,-1.02,-2.41,1.45,331.2838,-258.3234,-247.6466,175,75
2026-05-11 17:53:07.479,1,-1.53,-2.66,1.63,310.3138,-390.09340000000003,-229.7166,175,75
2026-05-11 17:53:07.479,1,-2.16,-2.73,1.55,236.1638,-483.8134,-211.1266,175,75
2026-05-11 17:53:07.496,1,-2.75,-1.84,1.25,149.5738,-506.1834,-200.6966,175,75
2026-05-11 17:53:07.524,1,-3.14,-0.43,0.25,35.2438,-352.8934,-108.6266,175,75
2026-05-11 17:53:07.535,1,0.37,-2.16,5.24,200.1838,920.2766,-30.6366,175,75
2026-05-11 17:53:07.546,1,1.18,-2.87,2.94,-217.5562,-290.7634,81.6834,175,75
2026-05-11 17:53:07.557,1,-0.26,-2.66,1.17,-143.5962,-174.48340000000002,48.2034,175,75
2026-05-11 17:53:07.568,1,-0.63,-2.92,0.41,-157.0662,-181.4934,59.1834,175,75
2026-05-11 17:53:07.583,1,-1.05,-0.44,1.18,40.433800000000005,17.776600000000002,53.8734,175,75
2026-05-11 17:53:07.595,1,-1.53,-1.11,0.96,57.143800000000006,-10.703399999999998,7.7834,175,75
2026-05-11 17:53:07.616,1,-1.3,-1.16,1.98,112.6238,77.2266,-79.41659999999999,175,75
2026-05-11 17:53:07.627,1,-1.15,-1.24,1.54,83.90379999999999,38.9966,-93.92660000000001,175,75
2026-05-11 17:53:07.643,1,-0.93,-1.76,1.5,114.7638,130.82659999999998,-146.48659999999998,175,75
2026-05-11 17:53:07.654,1,-0.77,-1.9,1.66,84.8838,176.4966,-132.2866,175,75
2026-05-11 17:53:07.658,1,-0.74,-1.42,2.26,38.3538,212.71660000000003,-109.41659999999999,175,75
2026-05-11 17:53:07.685,1,-0.62,-1.43,3.24,51.043800000000005,162.83659999999998,-71.2466,175,75
2026-05-11 17:53:07.696,1,-0.8,-0.62,3.06,16.1038,9.9666,-56.1266,175,75
2026-05-11 17:53:07.707,1,-2.25,0.11,0.51,-100.7262,-51.3134,46.6234,175,75
2026-05-11 17:53:07.734,1,-1.85,0.06,0.42,-107.92620000000001,44.1166,66.6834,175,75
2026-05-11 17:53:07.754,1,-0.99,0.29,1.45,-79.0762,25.8266,75.70339999999999,175,75
2026-05-11 17:53:07.754,1,-0.31,0.41,1.9,-67.1262,-27.9534,58.2634,175,75
2026-05-11 17:53:07.845,1,-1.35,0.31,1.3,-80.6662,-136.92340000000002,-21.546599999999998,175,75
2026-05-11 17:53:07.873,1,-1.71,-1.11,2.2,-76.5762,-54.233399999999996,19.2434,175,75
2026-05-11 17:53:07.896,1,-0.97,-1.08,3.2,-47.0062,-114.7234,121.98340000000002,175,75
2026-05-11 17:53:07.896,1,-0.63,-0.97,1.71,-65.2362,-141.1234,100.21340000000001,175,75
2026-05-11 17:53:07.896,1,-0.56,-0.92,0.79,-20.7262,-110.0934,37.7134,175,75
2026-05-11 17:53:07.917,1,-0.95,-1.43,0.11,28.7838,-55.6434,6.923400000000001,175,75
2026-05-11 17:53:07.918,1,-1.03,-1.92,0.74,56.9538,27.2866,-15.3266,175,75
2026-05-11 17:53:07.929,1,-1.08,-2.43,1.61,78.96379999999999,52.1666,-44.2966,175,75
2026-05-11 17:53:07.947,1,-1.19,-1.99,1.36,56.9538,-10.6434,-93.4366,175,75
2026-05-11 17:53:07.970,1,-1.13,-1.95,1.24,73.4238,19.236600000000003,-123.13659999999999,175,75
2026-05-11 17:53:07.993,1,-0.57,-2.41,2.17,93.1138,213.7466,-123.4966,175,75
2026-05-11 17:53:08.042,1,-3.81,-0.6,-0.11,-154.9362,233.32659999999998,128.6334,175,75
2026-05-11 17:53:08.132,1,-3.97,-3.87,-0.21,-372.3162,394.96659999999997,312.41339999999997,175,75
2026-05-11 17:53:08.144,1,-2.48,-5.25,1.6,-354.5662,363.8166,296.92339999999996,175,75
2026-05-11 17:53:08.145,1,-1.28,-3.79,2.45,-445.4862,213.5666,286.5634,175,75
2026-05-11 17:53:08.161,1,-0.82,-1.82,1.68,-487.6162,-16.8634,312.5934,175,75
2026-05-11 17:53:08.177,1,-0.82,-1.47,1.47,-452.0062,-18.873399999999997,312.6534,175,75
2026-05-11 17:53:08.177,1,-0.68,-1.2,1.56,-427.1862,15.276600000000002,321.74339999999995,175,75
2026-05-11 17:53:08.216,1,-0.6,-1.18,2.14,-397.6162,-33.623400000000004,321.98339999999996,175,75
2026-05-11 17:53:08.236,1,-0.3,-1.12,2.08,-384.1462,-87.1034,316.80339999999995,175,75
2026-05-11 17:53:08.236,1,-0.28,-0.97,1.96,-364.1462,-99.4234,301.86339999999996,175,75
2026-05-11 17:53:08.248,1,-0.22,-0.64,2.29,-304.5062,-12.8334,288.5734,175,75
2026-05-11 17:53:08.276,1,1.66,0.51,4.17,-175.6662,134.66660000000002,219.67340000000002,175,75
2026-05-11 17:53:08.280,1,2.0,2.8,4.56,-114.3862,105.2766,90.52340000000001,175,75
2026-05-11 17:53:08.297,1,1.11,3.21,4.25,7.9338000000000015,57.4066,-11.8566,175,75
2026-05-11 17:53:08.308,1,0.15,1.32,4.01,149.6338,177.28660000000002,-114.17660000000001,175,75
2026-05-11 17:53:08.308,1,0.84,-0.21,4.33,262.1338,116.49660000000002,-109.5966,175,75
2026-05-11 17:53:08.327,1,0.87,-0.75,5.08,324.2738,-55.4534,-124.23660000000001,175,75
2026-05-11 17:53:08.327,1,0.52,0.1,3.78,250.0638,-294.2334,-221.6066,175,75
2026-05-11 17:53:08.338,1,-0.08,0.09,1.8,309.9438,-260.8834,-279.9666,175,75
2026-05-11 17:53:08.349,1,-0.38,-0.59,1.2,348.11379999999997,-146.73340000000002,-298.07660000000004,175,75
2026-05-11 17:53:08.349,1,-0.72,-0.89,1.21,361.1638,-0.393399999999998,-295.9966,175,75
2026-05-11 17:53:08.358,1,-0.68,-1.17,1.39,375.8538,79.2366,-287.2866,175,75
2026-05-11 17:53:08.381,1,-0.54,-0.81,2.35,398.42379999999997,82.1666,-270.14660000000003,175,75
2026-05-11 17:53:08.393,1,-0.63,-0.89,2.45,386.1038,18.626600000000003,-258.3766,175,75
2026-05-11 17:53:08.438,1,-0.68,-1.27,2.15,368.5438,-93.3834,-256.6766,175,75
2026-05-11 17:53:08.473,1,-0.59,-1.33,1.9,363.6638,-133.9334,-262.2166,175,75
2026-05-11 17:53:08.473,1,-0.71,-1.46,1.71,361.9538,-146.4334,-276.8566,175,75
2026-05-11 17:53:08.483,1,-0.71,-1.64,1.5,366.3438,-139.17340000000002,-295.57660000000004,175,75
2026-05-11 17:53:08.506,1,-0.93,-1.79,1.9,359.2738,-100.2734,-266.1866,175,75
2026-05-11 17:53:08.523,1,-2.07,-2.43,1.81,237.6838,-434.90340000000003,-242.8866,175,75
2026-05-11 17:53:08.536,1,-2.79,-1.89,1.24,200.1238,-437.8934,-224.5366,175,75
2026-05-11 17:53:08.573,1,1.35,0.41,2.68,95.43379999999999,978.4466,-16.4266,175,75
2026-05-11 17:53:08.584,1,-1.22,-1.67,3.56,-124.87620000000001,197.65660000000003,0.5233999999999996,175,75
2026-05-11 17:53:08.596,1,1.58,-4.03,4.38,-142.6762,-54.5434,31.1334,175,75
2026-05-11 17:53:08.678,1,-0.27,-2.71,2.15,-190.0562,-216.79340000000002,104.42339999999999,175,75
2026-05-11 17:53:08.771,1,-1.09,-1.3,0.36,-191.21620000000001,-190.8834,108.08340000000001,175,75
2026-05-11 17:53:08.783,1,-1.92,0.13,0.08,-40.606199999999994,9.296600000000002,91.2534,175,75
2026-05-11 17:53:08.783,1,-1.65,-0.25,0.98,67.5638,48.9366,44.6734,175,75
2026-05-11 17:53:08.793,1,-1.36,-1.29,1.79,100.18379999999999,85.1566,0.21340000000000003,175,75
2026-05-11 17:53:08.806,1,-1.48,-0.92,1.86,63.113800000000005,-5.213399999999998,-42.4066,175,75
2026-05-11 17:53:08.806,1,-1.7,-0.82,1.64,63.543800000000005,-18.2034,-75.57660000000001,175,75
2026-05-11 17:53:08.828,1,-0.49,-0.52,2.02,0.5538000000000025,126.12660000000001,42.3534,175,75
2026-05-11 17:53:08.839,1,-1.13,-0.8,2.37,11.833800000000002,135.9466,-56.6066,175,75
2026-05-11 17:53:08.851,1,-1.49,-0.53,2.02,-28.596199999999996,10.636600000000001,37.8434,175,75
2026-05-11 17:53:08.873,1,-1.73,0.11,0.6,-110.5462,72.5366,107.8434,175,75
2026-05-11 17:53:08.885,1,-0.38,-0.27,1.91,-80.6062,133.3866,103.7534,175,75
2026-05-11 17:53:08.897,1,-0.36,0.42,1.97,-76.1562,-59.5434,98.26339999999999,175,75
2026-05-11 17:53:08.900,1,0.61,0.34,2.15,-62.12619999999999,-38.2034,76.1334,175,75
2026-05-11 17:53:08.920,1,0.96,0.17,2.61,-37.316199999999995,-59.7234,32.7134,175,75
2026-05-11 17:53:08.931,1,-2.51,-0.05,2.79,-73.6562,-179.78339999999997,35.6434,175,75
2026-05-11 17:53:08.933,1,-3.32,-0.41,2.77,-58.5362,-4.233399999999998,52.7134,175,75
2026-05-11 17:53:08.956,1,-0.85,-3.32,3.04,-7.736199999999998,34.1166,115.58340000000001,175,75
2026-05-11 17:53:08.966,1,-1.94,-1.52,3.15,-10.236199999999998,7.0466000000000015,96.2534,175,75
2026-05-11 17:53:08.976,1,-0.26,-0.51,1.97,-111.09620000000001,-62.8934,124.36340000000001,175,75
2026-05-11 17:53:08.988,1,-0.71,-0.82,0.51,-113.28620000000001,-218.5034,34.6134,175,75
2026-05-11 17:53:08.998,1,-1.32,-1.17,-0.09,-32.676199999999994,-51.3134,10.953399999999998,175,75
2026-05-11 17:53:09.009,1,-1.22,-1.09,0.62,35.3738,50.456599999999995,-8.1966,175,75
2026-05-11 17:53:09.021,1,-1.12,-1.33,1.76,62.7438,58.9966,-18.6266,175,75
2026-05-11 17:53:09.035,1,-1.15,-1.96,1.83,54.153800000000004,-13.5034,-45.4566,175,75
2026-05-11 17:53:09.046,1,-1.43,-1.96,1.25,44.153800000000004,-33.0734,-71.60659999999999,175,75
2026-05-11 17:53:09.058,1,-1.39,-1.62,1.24,77.5038,3.996600000000001,-120.8166,175,75
2026-05-11 17:53:09.069,1,-1.21,-1.63,1.52,97.8738,32.836600000000004,-144.29659999999998,175,75
2026-05-11 17:53:09.097,1,-0.8,-1.73,1.67,82.4438,37.8966,-146.1266,175,75
2026-05-11 17:53:09.121,1,-0.07,-1.83,1.81,135.6138,109.1166,-150.6966,175,75
2026-05-11 17:53:09.134,1,-0.6,-1.0,2.24,135.0038,82.8966,-105.45660000000001,175,75
2026-05-11 17:53:09.151,1,-3.69,-0.09,-0.57,-194.7562,46.0066,180.70340000000002,175,75
2026-05-11 17:53:09.224,1,-1.28,-2.93,1.87,-490.3662,116.06660000000001,360.4034,175,75
2026-05-11 17:53:09.224,1,-1.14,-2.62,1.91,-489.6262,103.8766,373.6934,175,75
2026-05-11 17:53:09.237,1,-1.02,-2.45,2.01,-464.2662,64.9066,378.6334,175,75
2026-05-11 17:53:09.295,1,-0.71,-2.13,2.03,-432.1262,46.3166,380.2834,175,75
2026-05-11 17:53:09.295,1,-0.61,-1.76,2.04,-423.6562,10.706600000000002,389.30339999999995,175,75
2026-05-11 17:53:09.332,1,-0.6,-1.72,2.01,-420.2362,-12.893399999999998,391.5634,175,75
2026-05-11 17:53:09.335,1,-0.44,-1.86,1.96,-406.4562,-29.483399999999996,383.0234,175,75
2026-05-11 17:53:09.365,1,-0.23,-1.89,1.99,-353.3462,-4.483399999999998,346.1934,175,75
2026-05-11 17:53:09.365,1,-0.11,-1.53,2.34,-320.5462,48.3266,334.67339999999996,175,75
2026-05-11 17:53:09.376,1,1.65,-0.73,4.05,-230.96620000000001,224.1766,287.41339999999997,175,75
2026-05-11 17:53:09.411,1,4.37,1.02,5.4,-212.9262,248.6266,266.3134,175,75
2026-05-11 17:53:09.415,1,2.71,3.8,6.49,-136.5162,83.0166,4.913399999999999,175,75
2026-05-11 17:53:09.431,1,0.24,-0.83,5.3,309.0338,241.4966,-69.5966,175,75
2026-05-11 17:53:09.449,1,0.79,-0.71,6.67,291.8938,-100.2134,-153.01659999999998,175,75
2026-05-11 17:53:09.470,1,0.53,0.97,4.18,261.2838,-381.5534,-258.8666,175,75
2026-05-11 17:53:09.470,1,-0.21,0.68,2.19,351.9538,-321.1234,-294.5966,175,75
2026-05-11 17:53:09.485,1,-0.25,-0.57,1.46,380.0038,-193.6834,-317.4666,175,75
2026-05-11 17:53:09.530,1,-0.95,-1.1,1.14,374.0938,96.7366,-323.8666,175,75
2026-05-11 17:53:09.531,1,-0.89,-0.68,1.56,376.5938,164.66660000000002,-314.0466,175,75
2026-05-11 17:53:09.542,1,-0.85,-0.14,2.1,386.1038,173.9966,-293.01660000000004,175,75
2026-05-11 17:53:09.553,1,-0.68,-0.15,2.36,400.9838,134.1766,-279.7166,175,75
2026-05-11 17:53:09.553,1,-0.49,-0.54,2.35,408.9638,57.53660000000001,-271.1866,175,75
2026-05-11 17:53:09.565,1,-0.55,-0.76,2.13,411.8938,-9.4834,-270.9966,175,75
2026-05-11 17:53:09.583,1,-0.87,-1.35,1.11,373.11379999999997,-98.3834,-244.4766,175,75
2026-05-11 17:53:09.598,1,-1.45,-2.21,1.23,322.6238,-132.4034,-221.9166,175,75
2026-05-11 17:53:09.628,1,-1.87,-1.0,1.26,200.5538,-453.9934,-156.73659999999998,175,75
2026-05-11 17:53:09.639,1,-2.04,-0.99,1.15,101.04379999999999,-489.6634,-129.8466,175,75
2026-05-11 17:53:09.650,1,-2.39,-1.1,0.83,22.3838,-472.46340000000004,-108.07660000000001,175,75
2026-05-11 17:53:09.660,1,-11.1,-0.51,-2.13,-52.4362,-580.0934,-90.75659999999999,175,75
2026-05-11 17:53:09.672,1,3.3,-9.61,1.46,304.0938,249.4266,236.98340000000002,175,75
2026-05-11 17:53:09.684,1,3.47,-0.21,5.51,66.6538,982.8966,-35.3266,175,75
2026-05-11 17:53:09.714,1,3.24,-4.3,2.06,-278.1062,-390.21340000000004,128.6334,175,75
2026-05-11 17:53:09.735,1,-2.68,-2.49,-1.11,-188.2862,-198.5634,74.24340000000001,175,75
2026-05-11 17:53:09.747,1,-2.54,-0.47,0.21,-12.006199999999998,194.0566,122.6534,175,75
2026-05-11 17:53:09.758,1,-0.75,0.42,1.5,58.6638,208.3866,103.8734,175,75
2026-05-11 17:53:09.770,1,-0.65,-0.91,1.82,30.183800000000005,-30.7034,55.1534,175,75
2026-05-11 17:53:09.780,1,-1.48,-1.48,1.1,4.823800000000002,-68.9334,27.7134,175,75
2026-05-11 17:53:09.792,1,-1.82,-0.7,1.07,62.2038,23.8166,-14.9066,175,75
2026-05-11 17:53:09.806,1,-1.47,-0.93,1.65,107.2638,53.6866,-53.7466,175,75
2026-05-11 17:53:09.817,1,-1.39,-0.95,1.64,88.7238,51.5566,-72.8966,175,75
2026-05-11 17:53:09.837,1,-1.35,-0.93,1.58,83.6638,35.6366,-90.26660000000001,175,75
2026-05-11 17:53:09.848,1,-1.26,-1.0,1.61,89.0938,51.4966,-96.48660000000001,175,75
2026-05-11 17:53:09.861,1,-0.86,-1.52,1.78,115.2438,76.0066,-163.2566,175,75
2026-05-11 17:53:09.875,1,-1.26,-1.72,1.64,97.6238,104.9066,-180.6366,175,75
2026-05-11 17:53:09.879,1,-1.38,-1.36,1.94,36.9538,137.46660000000003,-37.0366,175,75
2026-05-11 17:53:09.894,1,-0.68,-1.22,2.42,15.123800000000003,139.96660000000003,-98.92660000000001,175,75
2026-05-11 17:53:09.906,1,-1.14,-1.19,2.78,37.2038,99.6066,-118.07660000000001,175,75
2026-05-11 17:53:09.924,1,-1.88,-0.01,1.73,-2.3161999999999985,-74.7834,-5.5766,175,75
2026-05-11 17:53:09.939,1,-2.21,0.03,0.82,-42.676199999999994,-61.0634,24.0634,175,75
2026-05-11 17:53:09.954,1,-1.61,-0.16,1.02,-55.8462,130.6366,95.70339999999999,175,75
2026-05-11 17:53:09.969,1,-0.51,0.07,2.01,-39.566199999999995,91.7366,102.9034,175,75
2026-05-11 17:53:09.995,1,-0.2,0.53,1.94,-70.7262,-112.5934,76.07339999999999,175,75
2026-05-11 17:53:10.003,1,-0.43,0.7,1.54,-58.5962,-113.2034,60.7634,175,75
2026-05-11 17:53:10.018,1,-0.55,0.64,1.36,-39.9362,-75.4534,45.0334,175,75
2026-05-11 17:53:10.029,1,-0.47,0.44,1.34,-35.666199999999996,-33.9334,30.343400000000003,175,75
2026-05-11 17:53:10.040,1,-0.73,0.44,1.43,-24.446199999999997,-14.783399999999999,21.4334,175,75
2026-05-11 17:53:10.062,1,-0.46,-0.58,1.82,-8.1062,-120.6434,36.5634,175,75
2026-05-11 17:53:10.074,1,-3.06,-0.94,1.31,-80.0562,-174.78339999999997,35.7034,175,75
2026-05-11 17:53:10.084,1,-0.46,-2.08,2.28,-39.206199999999995,88.0166,30.583399999999997,175,75
2026-05-11 17:53:10.097,1,-0.6,-3.7,2.66,-17.4362,-23.443399999999997,37.6534,175,75
2026-05-11 17:53:10.108,1,-0.7,-0.76,1.93,-87.0062,-124.9034,91.3134,175,75
2026-05-11 17:53:10.119,1,-0.37,-0.56,1.38,-111.09620000000001,-164.29340000000002,54.0634,175,75
2026-05-11 17:53:10.130,1,-1.04,-0.2,1.05,-43.346199999999996,-128.9934,15.403400000000001,175,75
2026-05-11 17:53:10.142,1,-1.33,-1.14,1.04,40.2438,-47.2834,14.7334,175,75
2026-05-11 17:53:10.187,1,-1.2,-1.92,1.22,78.29379999999999,14.726600000000001,-67.8866,175,75
2026-05-11 17:53:10.198,1,-1.25,-1.72,1.4,96.65379999999999,33.446600000000004,-86.67660000000001,175,75
2026-05-11 17:53:10.198,1,-1.21,-1.86,1.57,94.57379999999999,43.9966,-115.75659999999999,175,75
2026-05-11 17:53:10.210,1,-1.18,-2.21,1.68,94.8838,100.4566,-176.48659999999998,175,75
2026-05-11 17:53:10.220,1,-1.28,-1.59,2.19,97.9938,219.5466,-157.3466,175,75
2026-05-11 17:53:10.231,1,-0.57,-1.79,2.72,57.3838,208.1366,-115.0866,175,75
2026-05-11 17:53:10.253,1,-0.19,-0.84,2.71,39.4538,112.83659999999999,-43.8066,175,75
2026-05-11 17:53:10.265,1,-0.29,-0.35,2.39,11.653800000000002,78.2666,-25.5166,175,75
2026-05-11 17:53:10.281,1,-2.25,-0.27,1.3,-84.8762,118.87660000000001,34.1834,175,75
2026-05-11 17:53:10.291,1,-3.46,-0.71,0.09,-190.2362,162.59660000000002,113.14340000000001,175,75
2026-05-11 17:53:10.292,1,-3.64,-1.72,-0.94,-303.8962,216.4366,206.3734,175,75
2026-05-11 17:53:10.321,1,-4.24,-4.68,-0.4,-379.9362,385.6366,315.1534,175,75
2026-05-11 17:53:10.330,1,-2.61,-5.18,1.16,-348.2862,355.09659999999997,319.85339999999997,175,75
2026-05-11 17:53:10.346,1,-1.59,-3.45,2.03,-442.6762,236.85660000000001,303.8734,175,75
2026-05-11 17:53:10.356,1,-0.97,-2.39,1.95,-493.2262,110.9466,321.5034,175,75
2026-05-11 17:53:10.370,1,-1.14,-2.02,1.69,-495.7262,33.6866,336.92339999999996,175,75
2026-05-11 17:53:10.381,1,-1.29,-1.38,1.42,-458.4062,55.6366,341.3134,175,75
2026-05-11 17:53:10.391,1,-1.0,-1.15,1.63,-427.6162,107.0466,344.67339999999996,175,75
2026-05-11 17:53:10.400,1,-0.83,-1.27,1.87,-429.5662,106.5566,344.1834,175,75
2026-05-11 17:53:10.413,1,-0.64,-1.4,2.1,-432.0062,74.8466,337.04339999999996,175,75
2026-05-11 17:53:10.440,1,-0.38,-1.31,2.27,-383.9562,-5.393399999999998,319.91339999999997,175,75
2026-05-11 17:53:10.455,1,-0.3,-1.18,2.52,-347.9262,18.5666,322.04339999999996,175,75
2026-05-11 17:53:10.466,1,0.09,-1.03,3.02,-294.38620000000003,74.8466,315.9534,175,75
2026-05-11 17:53:10.466,1,0.83,-0.44,3.89,-226.3362,114.5466,312.29339999999996,175,75
2026-05-11 17:53:10.480,1,2.23,0.67,4.89,-159.99620000000002,121.8566,280.2134,175,75
2026-05-11 17:53:10.491,1,2.45,2.11,5.31,-93.7762,12.656600000000001,195.4634,175,75
2026-05-11 17:53:10.504,1,1.45,2.93,5.1,19.0938,-83.68339999999999,68.32339999999999,175,75
2026-05-11 17:53:10.522,1,0.73,0.53,3.5,198.8438,-11.673399999999999,-87.1566,175,75
2026-05-11 17:53:10.533,1,0.75,-1.78,3.89,347.5038,-77.1634,-26.6066,175,75
2026-05-11 17:53:10.556,1,0.4,-0.41,4.14,337.3838,-232.53339999999997,-92.0966,175,75
2026-05-11 17:53:10.562,1,-0.5,-0.53,1.63,377.2038,-260.7634,-206.2466,175,75
2026-05-11 17:53:10.586,1,-0.64,-0.74,1.78,430.1838,4.5466000000000015,-224.9066,175,75
2026-05-11 17:53:10.598,1,-0.78,-0.77,2.23,451.6538,16.006600000000002,-216.0666,175,75
2026-05-11 17:53:10.609,1,-0.83,-0.89,2.44,464.3338,-0.33339999999999925,-206.9766,175,75
2026-05-11 17:53:10.622,1,-0.94,-1.06,2.4,453.6038,-21.6134,-213.8666,175,75
2026-05-11 17:53:10.622,1,-1.13,-0.96,2.22,439.7038,-21.8634,-223.3166,175,75
2026-05-11 17:53:10.639,1,-1.25,-0.7,2.03,428.9638,-3.0733999999999995,-214.4766,175,75
2026-05-11 17:53:10.657,1,-1.13,-0.76,1.93,438.42379999999997,13.9966,-209.04659999999998,175,75
2026-05-11 17:53:10.667,1,-0.99,-0.92,1.79,447.7438,16.9266,-200.9966,175,75
2026-05-11 17:53:10.677,1,-0.91,-1.15,1.58,450.8538,18.876600000000003,-195.57659999999998,175,75
2026-05-11 17:53:10.677,1,-0.98,-1.39,1.41,440.8538,17.5366,-198.5666,175,75
2026-05-11 17:53:10.689,1,-0.98,-1.54,1.37,417.6238,12.406600000000001,-199.23659999999998,175,75
2026-05-11 17:53:10.708,1,-1.34,-1.72,1.39,384.7638,-26.4334,-176.54659999999998,175,75
2026-05-11 17:53:10.720,1,-1.57,-1.94,1.2,348.9638,-103.9934,-163.1966,175,75
2026-05-11 17:53:10.731,1,-2.14,-1.8,0.97,326.5938,-164.66340000000002,-139.9066,175,75
2026-05-11 17:53:10.769,1,-2.21,-1.57,0.5,249.5138,-231.2534,-95.75659999999999,175,75
2026-05-11 17:53:10.769,1,-2.77,-0.98,0.19,195.1838,-220.8834,-59.3566,175,75
2026-05-11 17:53:10.780,1,-10.63,-0.25,-0.62,150.1238,-87.8934,-32.8266,175,75
2026-05-11 17:53:10.804,1,4.2,-7.78,0.17,187.3238,-57.773399999999995,206.98340000000002,175,75
2026-05-11 17:53:10.820,1,0.01,-0.76,2.0,46.403800000000004,390.6366,-17.9566,175,75
2026-05-11 17:53:10.834,1,-1.29,-1.25,3.3,-281.1562,-95.82339999999999,24.3034,175,75
2026-05-11 17:53:10.845,1,-0.6,-2.5,2.44,-221.5162,-114.4234,96.86340000000001,175,75
2026-05-11 17:53:10.866,1,-0.79,-2.32,0.7,-186.5162,-176.0034,91.5634,175,75
2026-05-11 17:53:10.876,1,-1.83,-1.24,-0.03,-106.64620000000001,-31.673399999999997,106.86340000000001,175,75
2026-05-11 17:53:10.893,1,-1.19,-0.21,0.49,16.653800000000004,88.3866,109.42339999999999,175,75
2026-05-11 17:53:10.905,1,-1.34,-0.81,1.14,54.393800000000006,54.17660000000001,79.9134,175,75
2026-05-11 17:53:10.936,1,-1.86,-1.07,1.71,71.7138,51.31660000000001,-43.4966,175,75
2026-05-11 17:53:10.945,1,-1.47,-1.28,1.63,80.3138,56.736599999999996,-81.67660000000001,175,75
2026-05-11 17:53:10.966,1,-1.27,-1.89,1.6,80.3138,74.5466,-112.03659999999999,175,75
2026-05-11 17:53:10.984,1,-1.2,-2.07,1.81,67.5038,102.4066,-101.48660000000001,175,75
2026-05-11 17:53:11.000,1,-0.56,-2.07,2.58,73.4838,243.4466,-77.95660000000001,175,75
2026-05-11 17:53:11.012,1,0.05,-1.45,2.76,19.823800000000002,284.2966,-22.7066,175,75
2026-05-11 17:53:11.022,1,-0.43,-1.43,2.62,17.263800000000003,309.1766,-35.696600000000004,175,75
2026-05-11 17:53:11.041,1,-1.39,-0.9,2.36,25.373800000000003,297.8366,8.8734,175,75
2026-05-11 17:53:11.059,1,-1.62,-0.54,2.91,-25.666199999999996,426.0066,59.8534,175,75
2026-05-11 17:53:11.105,1,0.1,1.79,3.58,107.1438,-38.873400000000004,5.1533999999999995,175,75
2026-05-11 17:53:11.117,1,-0.08,0.54,3.05,182.7438,-54.4234,-22.7066,175,75
2026-05-11 17:53:11.117,1,-0.38,0.45,2.71,208.4838,-82.5934,-65.9366,175,75
2026-05-11 17:53:11.128,1,-0.65,0.14,2.2,231.7738,-130.27339999999998,-94.53659999999999,175,75
2026-05-11 17:53:11.138,1,-0.25,-0.27,1.72,249.3938,-88.07339999999999,-123.92660000000001,175,75
2026-05-11 17:53:11.152,1,-0.76,-0.76,1.14,201.1038,-80.8834,-139.8466,175,75
2026-05-11 17:53:11.166,1,-2.04,-0.66,0.14,154.5138,-102.5934,-104.29660000000001,175,75
2026-05-11 17:53:11.191,1,-1.55,-0.26,-0.78,69.5138,-17.653399999999998,11.0734,175,75
2026-05-11 17:53:11.202,1,-4.15,0.21,-0.29,62.2038,-36.6734,58.0234,175,75
2026-05-11 17:53:11.224,1,-1.68,-2.71,-2.7,-219.5662,-180.5734,133.0834,175,75
2026-05-11 17:53:11.229,1,-0.26,-1.7,1.58,125.6738,593.7466000000001,168.3934,175,75
2026-05-11 17:53:11.251,1,-0.84,-0.54,4.46,-11.276199999999998,44.726600000000005,69.9734,175,75
2026-05-11 17:53:11.251,1,-0.99,-1.77,3.25,-57.73619999999999,-45.0334,89.0034,175,75
2026-05-11 17:53:11.274,1,-1.2,-2.16,0.59,-194.99620000000002,-127.0434,116.86340000000001,175,75
2026-05-11 17:53:11.285,1,-0.97,-1.31,-0.01,-133.2262,-26.123399999999997,128.32340000000002,175,75
2026-05-11 17:53:11.328,1,-1.95,-1.18,1.76,29.763800000000003,103.4466,13.813400000000001,175,75
2026-05-11 17:53:11.356,1,-1.68,-1.82,1.91,46.10380000000001,73.9966,-63.3766,175,75
2026-05-11 17:53:11.356,1,-1.99,-1.84,1.79,43.2338,111.7966,-79.6566,175,75
2026-05-11 17:53:11.369,1,-0.79,-1.89,1.79,98.29379999999999,234.1766,-107.82660000000001,175,75
2026-05-11 17:53:11.379,1,-0.97,-1.56,1.95,41.5938,116.55659999999999,-100.51660000000001,175,75
2026-05-11 17:53:11.390,1,-0.67,-1.5,2.1,-36.82619999999999,202.95659999999998,-51.3666,175,75
2026-05-11 17:53:11.404,1,-0.69,-1.6,2.59,-34.07619999999999,194.0566,-47.7666,175,75
2026-05-11 17:53:11.414,1,-1.26,-1.14,2.42,-21.2162,174.35660000000001,-6.2466,175,75
2026-05-11 17:53:11.414,1,-2.51,-0.59,1.8,-51.7662,207.16660000000002,53.2034,175,75
2026-05-11 17:53:11.427,1,-3.18,-0.77,0.82,-139.3862,253.1366,156.5634,175,75
2026-05-11 17:53:11.439,1,-3.08,-2.16,0.07,-285.0562,253.32659999999998,241.98340000000002,175,75
2026-05-11 17:53:11.460,1,-3.76,-4.38,1.53,-309.0162,377.8366,353.4534,175,75
2026-05-11 17:53:11.495,1,-1.81,-2.87,1.11,-452.1262,65.5766,409.42339999999996,175,75
2026-05-11 17:53:11.535,1,-0.61,-1.87,1.9,-355.0562,101.2466,438.2634,175,75
2026-05-11 17:53:11.545,1,-0.4,-1.75,1.87,-368.4662,62.1666,428.0834,175,75
2026-05-11 17:53:11.545,1,-0.23,-1.7,1.68,-378.4662,15.156600000000001,426.5634,175,75
2026-05-11 17:53:11.563,1,-0.07,-1.41,1.56,-365.7862,-23.873399999999997,419.36339999999996,175,75
2026-05-11 17:53:11.579,1,0.12,-1.19,1.64,-326.82620000000003,-65.6434,408.5734,175,75
2026-05-11 17:53:11.639,1,0.1,-0.99,2.18,-270.1762,-96.5534,359.30339999999995,175,75
2026-05-11 17:53:11.657,1,0.6,-0.56,2.76,-222.2562,-48.6834,342.6534,175,75
2026-05-11 17:53:11.657,1,1.65,-0.28,3.55,-167.7962,22.8966,296.4334,175,75
2026-05-11 17:53:11.671,1,3.95,1.44,4.25,-110.0562,85.2166,217.5334,175,75
2026-05-11 17:53:11.677,1,3.44,3.06,4.78,99.0338,119.05659999999999,-42.8866,175,75
2026-05-11 17:53:11.956,1,2.66,-0.96,3.57,289.8838,329.78659999999996,-129.4166,175,75
2026-05-11 17:53:11.956,1,2.22,-0.46,5.19,315.4938,153.20659999999998,-145.20659999999998,175,75
2026-05-11 17:53:11.956,1,1.47,1.07,4.66,339.5138,18.3266,-233.8066,175,75
2026-05-11 17:53:11.956,1,1.04,-0.3,3.6,424.7638,-93.5034,-287.89660000000003,175,75
2026-05-11 17:53:11.956,1,0.41,-0.99,2.76,449.0338,-135.7634,-307.64660000000003,175,75
2026-05-11 17:53:11.957,1,-0.24,-0.77,2.1,441.6538,-89.8434,-335.02660000000003,175,75
2026-05-11 17:53:11.957,1,-0.55,-0.88,2.16,445.4338,-64.1134,-337.4666,175,75
2026-05-11 17:53:11.957,1,-0.62,-0.95,2.32,453.17379999999997,-52.773399999999995,-334.7166,175,75
2026-05-11 17:53:11.957,1,-0.76,-0.96,2.49,451.6538,-58.7534,-311.0666,175,75
2026-05-11 17:53:11.958,1,-0.87,-0.94,2.54,442.0738,-80.0934,-299.1766,175,75
2026-05-11 17:53:11.958,1,-0.89,-0.8,2.34,417.7438,-101.9234,-314.5366,175,75
2026-05-11 17:53:11.958,1,-0.93,-0.65,2.18,396.4638,-89.0534,-330.51660000000004,175,75
2026-05-11 17:53:11.958,1,-3.35,-3.03,1.06,267.2038,-268.2634,-125.51660000000001,175,75
2026-05-11 17:53:11.958,1,-3.37,-1.6,1.03,170.5538,-329.5434,-63.3766,175,75
2026-05-11 17:53:11.958,1,-3.09,0.11,0.68,70.7338,-335.6434,30.153399999999998,175,75
2026-05-11 17:53:11.959,1,-7.14,0.57,0.5,-31.456199999999995,-270.1534,94.1834,175,75
2026-05-11 17:53:12.153,1,-2.87,0.37,-1.74,-89.20620000000001,-145.15339999999998,359.73339999999996,175,75
2026-05-11 17:53:12.153,1,-0.95,-5.75,-2.36,-104.8762,-426.8634,212.1134,175,75
2026-05-11 17:53:12.153,1,1.1,-3.75,3.13,189.8238,708.8766,56.9234,175,75
2026-05-11 17:53:12.153,1,1.02,-1.8,2.44,56.833800000000004,484.2966,98.45339999999999,175,75
2026-05-11 17:53:12.153,1,-2.27,-2.25,2.9,-118.83619999999999,31.6766,-0.4565999999999999,175,75
2026-05-11 17:53:12.153,1,-0.9,-2.11,1.98,91.5938,182.95659999999998,-18.7466,175,75
2026-05-11 17:53:12.153,1,-0.58,-2.2,2.13,92.5638,250.39659999999998,-15.5166,175,75
2026-05-11 17:53:12.278,1,-0.12,-1.69,2.35,15.433800000000002,378.8166,-30.2066,175,75
2026-05-11 17:53:12.278,1,-1.0,-1.47,2.61,4.883800000000002,337.40659999999997,-2.1566,175,75
2026-05-11 17:53:12.331,1,-0.67,-1.0,1.59,207.8738,-219.3634,-154.29659999999998,175,75
2026-05-11 17:53:12.373,1,-1.16,-0.67,0.56,94.21379999999999,-277.65340000000003,-90.75659999999999,175,75
2026-05-11 17:53:12.373,1,-1.85,-0.39,0.32,53.42380000000001,-323.3834,-66.48660000000001,175,75
2026-05-11 17:53:12.648,1,-1.18,-2.89,1.92,52.0138,146.85660000000001,-151.73659999999998,175,75
2026-05-11 17:53:12.648,1,-1.03,-2.8,2.05,22.9338,216.3166,-113.01660000000001,175,75
2026-05-11 17:53:12.648,1,-2.53,-2.29,0.04,-313.7762,204.84660000000002,239.0034,175,75
2026-05-11 17:53:12.731,1,-1.29,-4.44,3.15,-402.0062,286.6766,301.86339999999996,175,75
2026-05-11 17:53:12.757,1,-0.39,-1.35,2.06,-361.57620000000003,2.1066000000000003,350.8234,175,75
2026-05-11 17:53:12.932,1,-0.25,-1.26,2.06,-281.4562,-15.3334,294.79339999999996,175,75
2026-05-11 17:53:12.932,1,1.81,0.32,3.74,-108.4062,112.71660000000001,189.48340000000002,175,75
2026-05-11 17:53:12.932,1,2.8,2.03,4.12,-49.5062,22.596600000000002,116.98339999999999,175,75
2026-05-11 17:53:13.001,1,-1.21,-0.19,2.25,470.5538,42.2866,-242.4666,175,75
2026-05-11 17:53:13.001,1,-1.07,-0.25,2.17,470.4938,20.0366,-210.51659999999998,175,75
2026-05-11 17:53:13.002,1,-0.96,-0.6,1.99,471.7738,-54.1134,-198.92659999999998,175,75
2026-05-11 17:53:13.013,1,-1.41,-1.82,1.13,438.9038,-110.0334,-258.1966,175,75
2026-05-11 17:53:13.064,1,-2.84,-3.26,1.1,328.11379999999997,-379.0534,-147.76659999999998,175,75
2026-05-11 17:53:13.069,1,-3.5,-3.4,0.21,260.3738,-412.28340000000003,-145.3866,175,75
2026-05-11 17:53:13.090,1,-3.99,-2.39,-0.99,211.1638,-328.3234,-133.4366,175,75
2026-05-11 17:53:13.159,1,0.72,-5.34,2.8,91.2238,528.0766000000001,92.9034,175,75
2026-05-11 17:53:13.170,1,0.83,-0.83,4.24,-11.096199999999998,-98.8734,117.4134,175,75
2026-05-11 17:53:13.191,1,-2.22,-1.27,1.36,-231.5762,-243.8134,90.4034,175,75
2026-05-11 17:53:13.205,1,-0.54,-2.66,0.47,-195.7862,-95.5134,110.76339999999999,175,75
2026-05-11 17:53:13.205,1,-0.35,-2.29,1.02,-158.5362,-31.673399999999997,101.5634,175,75
2026-05-11 17:53:13.222,1,-0.95,-0.95,1.04,-105.6062,-5.8233999999999995,117.5934,175,75
2026-05-11 17:53:13.234,1,-1.27,-0.98,0.54,-35.96619999999999,-4.843399999999999,99.6034,175,75
2026-05-11 17:53:13.246,1,-1.8,-1.24,0.96,16.403800000000004,63.56660000000001,69.0634,175,75
2026-05-11 17:53:13.246,1,-1.9,-1.31,1.91,37.3838,109.2366,24.6134,175,75
2026-05-11 17:53:13.267,1,-1.04,-1.99,2.44,44.4538,113.2066,-8.8066,175,75
2026-05-11 17:53:13.275,1,-1.05,-2.13,2.22,12.933800000000002,109.7266,-4.0466,175,75
2026-05-11 17:53:13.318,1,-0.1,-2.23,2.95,-43.2262,412.22659999999996,-0.4565999999999999,175,75
2026-05-11 17:53:13.345,1,0.22,0.33,3.43,109.57379999999999,302.65659999999997,38.3934,175,75
2026-05-11 17:53:13.379,1,0.84,0.79,4.03,206.8938,-20.8234,-42.8266,175,75
2026-05-11 17:53:13.379,1,0.16,0.28,3.05,251.0438,-109.7834,-76.48660000000001,175,75
2026-05-11 17:53:13.395,1,0.26,-0.18,2.26,270.8538,-82.3434,-123.07660000000001,175,75
2026-05-11 17:53:13.406,1,-0.01,-0.34,1.85,259.9438,-97.8334,-156.9166,175,75
2026-05-11 17:53:13.406,1,-1.01,-0.43,1.14,226.1038,-122.9534,-172.82659999999998,175,75
2026-05-11 17:53:13.420,1,-1.58,-0.99,0.81,197.2038,-151.92340000000002,-148.4366,175,75
2026-05-11 17:53:13.426,1,-1.67,-1.12,0.47,120.0038,-158.0134,-98.07660000000001,175,75
2026-05-11 17:53:13.440,1,-3.67,-0.25,0.21,75.3138,-214.29340000000002,-30.6966,175,75
2026-05-11 17:53:13.451,1,-6.69,0.26,-0.63,37.8138,-238.8134,25.2134,175,75
2026-05-11 17:53:13.464,1,-8.66,0.4,-4.46,16.3438,-491.9834,161.8634,175,75
2026-05-11 17:53:13.476,1,2.73,-4.43,-2.1,74.9438,90.3366,286.0134,175,75
2026-05-11 17:53:13.494,1,-0.69,0.07,0.83,34.333800000000004,770.0366,48.9334,175,75
2026-05-11 17:53:13.516,1,-0.82,-0.87,3.25,-107.8562,129.2966,70.0934,175,75
2026-05-11 17:53:13.526,1,-1.06,-1.54,3.78,-32.856199999999994,68.2666,44.0034,175,75
2026-05-11 17:53:13.540,1,-1.88,-1.69,1.65,-81.8862,-149.17340000000002,37.1734,175,75
2026-05-11 17:53:13.553,1,-1.52,-1.57,1.12,-53.9562,-51.6734,34.0634,175,75
2026-05-11 17:53:13.567,1,-1.05,-2.19,1.16,-21.766199999999998,-7.653399999999999,17.1134,175,75
2026-05-11 17:53:13.582,1,-0.99,-1.92,1.56,13.603800000000001,37.656600000000005,-1.3065999999999995,175,75
2026-05-11 17:53:13.594,1,-1.14,-2.23,1.78,24.4538,69.42660000000001,-16.3066,175,75
2026-05-11 17:53:13.603,1,-1.14,-2.43,2.15,31.8938,124.96660000000001,-21.976599999999998,175,75
2026-05-11 17:53:13.648,1,0.0,-1.49,3.12,-63.71619999999999,303.1366,19.7334,175,75
2026-05-11 17:53:13.671,1,-1.58,-1.2,2.57,-168.71620000000001,148.9966,105.21340000000001,175,75
2026-05-11 17:53:13.683,1,-3.07,-1.94,1.29,-250.7262,139.35660000000001,162.23340000000002,175,75
2026-05-11 17:53:13.696,1,-3.51,-2.8,0.65,-321.3362,259.0566,251.31340000000003,175,75
2026-05-11 17:53:13.727,1,-3.19,-3.16,0.96,-268.9562,316.6766,279.54339999999996,175,75
2026-05-11 17:53:13.738,1,-1.33,-3.02,2.0,-235.7262,310.7066,274.97339999999997,175,75
2026-05-11 17:53:13.748,1,-0.87,-2.38,2.52,-269.32620000000003,219.35660000000001,292.17339999999996,175,75
2026-05-11 17:53:13.759,1,-0.62,-1.94,2.41,-321.82620000000003,98.9966,284.36339999999996,175,75
2026-05-11 17:53:13.770,1,-0.74,-1.48,1.81,-332.5562,34.6066,283.7534,175,75
2026-05-11 17:53:13.782,1,-0.7,-1.28,1.53,-316.2762,31.8566,282.8434,175,75
2026-05-11 17:53:13.818,1,-0.58,-0.97,1.55,-282.1262,55.8866,280.1534,175,75
2026-05-11 17:53:13.828,1,-0.41,-0.79,1.79,-263.2262,62.6566,271.6834,175,75
2026-05-11 17:53:13.844,1,-0.22,-0.64,1.9,-248.5962,37.8966,255.3434,175,75
2026-05-11 17:53:13.879,1,-0.03,-0.08,1.82,-152.0062,47.5366,192.4734,175,75
2026-05-11 17:53:13.890,1,0.04,0.34,2.03,-106.9462,68.9966,173.57340000000002,175,75
2026-05-11 17:53:13.917,1,0.24,0.97,2.46,-42.7362,85.7066,145.4634,175,75
2026-05-11 17:53:13.940,1,0.58,1.65,2.84,27.5638,77.4066,98.14340000000001,175,75
2026-05-11 17:53:13.970,1,0.41,1.0,2.52,296.0438,79.7866,-98.4366,175,75
2026-05-11 17:53:13.993,1,0.02,-0.04,2.6,368.9638,40.5766,-144.23659999999998,175,75
2026-05-11 17:53:14.002,1,-0.06,-0.12,2.51,382.9338,9.9666,-147.95659999999998,175,75
2026-05-11 17:53:14.015,1,-0.34,-0.37,2.17,418.9638,-42.773399999999995,-167.4666,175,75
2026-05-11 17:53:14.100,1,-0.76,-0.71,1.49,425.5538,-45.4534,-191.79659999999998,175,75
2026-05-11 17:53:14.111,1,-0.96,-0.86,1.39,427.0138,-40.5134,-188.4966,175,75
2026-05-11 17:53:14.127,1,-1.08,-1.08,1.29,420.9838,-42.6534,-201.2466,175,75
2026-05-11 17:53:14.182,1,-1.67,-1.82,0.96,360.4338,-53.1434,-175.20659999999998,175,75
2026-05-11 17:53:14.182,1,-1.9,-2.28,0.58,324.9438,-92.8334,-160.45659999999998,175,75
2026-05-11 17:53:14.193,1,-2.2,-2.65,0.1,291.8338,-101.5534,-143.6266,175,75
2026-05-11 17:53:14.193,1,-2.48,-2.47,-0.31,270.4338,-68.01339999999999,-128.5666,175,75
2026-05-11 17:53:14.243,1,-2.16,-0.79,0.02,204.3338,92.4666,-48.4366,175,75
2026-05-11 17:53:14.254,1,-2.5,-3.96,3.37,54.643800000000006,406.3766,-13.1366,175,75
2026-05-11 17:53:14.320,1,-1.81,-0.22,0.18,-141.3962,-16.9834,139.73340000000002,175,75
2026-05-11 17:53:14.352,1,-1.27,-1.54,1.66,-16.0362,61.376599999999996,70.95339999999999,175,75
2026-05-11 17:53:14.352,1,-1.57,-1.55,1.78,-14.0162,102.2266,52.4134,175,75
2026-05-11 17:53:14.362,1,-1.69,-1.58,2.03,-17.8562,114.4866,33.8134,175,75
2026-05-11 17:53:14.373,1,-1.18,-1.89,2.36,-3.716199999999999,141.4966,31.803400000000003,175,75
2026-05-11 17:53:14.402,1,-0.29,-2.28,2.15,66.8938,333.9966,13.453399999999998,175,75
2026-05-11 17:53:14.441,1,-1.2,-0.63,2.17,4.943800000000002,357.22659999999996,52.8434,175,75
2026-05-11 17:53:14.454,1,-1.98,0.14,2.17,25.8538,370.09659999999997,74.30340000000001,175,75
2026-05-11 17:53:14.465,1,-1.87,0.54,2.44,43.543800000000005,407.16659999999996,73.8134,175,75
2026-05-11 17:53:14.465,1,-1.22,0.71,3.01,95.6138,422.34659999999997,58.083400000000005,175,75
2026-05-11 17:53:14.500,1,-0.35,0.23,3.45,232.6238,96.6166,-16.976599999999998,175,75
2026-05-11 17:53:14.513,1,-0.24,-0.31,2.65,260.73380000000003,-40.273399999999995,-39.2366,175,75
2026-05-11 17:53:14.524,1,0.11,-0.51,2.11,251.4038,-78.2034,-56.1266,175,75
2026-05-11 17:53:14.536,1,-0.52,-0.49,1.34,232.3238,-154.60340000000002,-81.48660000000001,175,75
2026-05-11 17:53:14.548,1,-1.11,-0.65,0.66,224.2138,-163.14339999999999,-102.0966,175,75
2026-05-11 17:53:14.559,1,-1.98,-0.57,0.34,192.0138,-8.443399999999999,-69.4166,175,75
2026-05-11 17:53:14.570,1,-2.4,-0.44,0.63,193.6638,27.596600000000002,-31.7366,175,75
2026-05-11 17:53:14.584,1,-2.86,-0.52,-0.08,130.6738,-28.1434,-8.1366,175,75
2026-05-11 17:53:14.595,1,-6.14,-0.22,-1.23,66.8338,-81.8634,34.2434,175,75
2026-05-11 17:53:14.605,1,0.22,-0.63,2.25,135.6738,516.9866000000001,38.5734,175,75
2026-05-11 17:53:14.627,1,-1.01,-0.39,2.0,-20.4262,88.5066,-27.5266,175,75
2026-05-11 17:53:14.638,1,-1.08,-0.99,2.95,-37.316199999999995,-16.4334,-23.3766,175,75
2026-05-11 17:53:14.649,1,-0.73,-3.05,1.87,-58.65619999999999,-90.5134,-33.1366,175,75
2026-05-11 17:53:14.663,1,-0.91,-1.44,0.74,-56.57619999999999,-25.3934,3.2634000000000007,175,75
2026-05-11 17:53:14.678,1,-1.58,-1.23,1.56,49.643800000000006,87.5366,-34.7866,175,75
2026-05-11 17:53:14.689,1,-1.4,-1.35,1.9,52.5638,98.56660000000001,-63.3766,175,75
2026-05-11 17:53:14.712,1,-1.3,-2.14,2.52,51.3438,159.84660000000002,-116.97659999999999,175,75
2026-05-11 17:53:14.746,1,-1.75,-2.14,2.49,-34.8762,196.5566,-17.4666,175,75
2026-05-11 17:53:14.757,1,-1.57,-1.18,2.7,-28.2262,411.5566,-12.7066,175,75
2026-05-11 17:53:14.769,1,-2.72,-1.08,2.46,-61.0362,463.8766,43.5734,175,75
2026-05-11 17:53:14.769,1,-3.86,-0.99,1.88,-120.4862,437.71659999999997,117.04339999999999,175,75
2026-05-11 17:53:14.780,1,-3.27,-1.93,0.62,-249.56619999999998,346.6766,214.48340000000002,175,75
2026-05-11 17:53:14.827,1,-1.78,-2.32,2.03,-279.38620000000003,162.10660000000001,345.2834,175,75
2026-05-11 17:53:14.828,1,-1.42,-1.8,2.08,-351.7062,72.0466,350.9534,175,75
2026-05-11 17:53:14.857,1,-1.37,-1.43,1.58,-382.9862,20.156600000000005,361.1934,175,75
2026-05-11 17:53:14.857,1,-1.4,-1.2,1.35,-364.1462,39.906600000000005,376.6834,175,75
2026-05-11 17:53:14.867,1,-1.22,-0.99,1.48,-336.3362,75.7666,385.6434,175,75
2026-05-11 17:53:14.879,1,-0.5,-0.91,1.93,-331.4562,63.9966,388.2634,175,75
2026-05-11 17:53:14.889,1,-0.2,-0.84,2.01,-336.2162,-14.963399999999998,386.2534,175,75
2026-05-11 17:53:14.910,1,-0.01,-0.7,1.95,-319.7562,-93.1434,381.80339999999995,175,75
2026-05-11 17:53:14.920,1,0.17,-0.41,1.83,-254.07620000000003,-150.8834,360.5834,175,75
2026-05-11 17:53:14.927,1,0.33,-0.26,1.96,-219.5062,-108.4434,341.86339999999996,175,75
2026-05-11 17:53:14.938,1,0.56,-0.13,2.28,-182.6162,-28.0734,313.9334,175,75
2026-05-11 17:53:14.974,1,2.12,1.79,3.49,9.393800000000002,158.3866,79.73339999999999,175,75
2026-05-11 17:53:14.985,1,1.1,1.75,3.09,45.5538,215.09660000000002,11.563400000000001,175,75
2026-05-11 17:53:14.985,1,0.85,0.59,2.76,156.5938,317.46659999999997,-28.7466,175,75
2026-05-11 17:53:15.004,1,0.82,0.51,3.85,247.0738,169.60660000000001,-41.9766,175,75
2026-05-11 17:53:15.020,1,0.81,0.67,3.98,242.2038,-13.5034,-107.95660000000001,175,75
2026-05-11 17:53:15.035,1,0.03,-0.08,2.0,285.61379999999997,-112.2834,-195.45659999999998,175,75
2026-05-11 17:53:15.070,1,-0.55,-0.28,1.64,341.8938,55.706599999999995,-215.3866,175,75
2026-05-11 17:53:15.084,1,-0.55,-0.37,1.85,356.8938,66.3766,-217.0366,175,75
2026-05-11 17:53:15.095,1,-0.63,-0.42,1.99,364.6338,55.39660000000001,-216.67659999999998,175,75
2026-05-11 17:53:15.106,1,-0.72,-0.5,2.07,368.2938,33.8166,-206.54659999999998,175,75
2026-05-11 17:53:15.117,1,-0.84,-0.6,2.13,371.4038,8.936600000000002,-200.7566,175,75
2026-05-11 17:53:15.117,1,-0.91,-0.73,2.18,376.5938,-10.883399999999998,-202.6466,175,75
2026-05-11 17:53:15.132,1,-0.79,-1.03,2.09,384.6338,-44.2334,-224.4766,175,75
2026-05-11 17:53:15.149,1,-0.78,-1.19,1.91,383.7838,-63.2634,-238.92659999999998,175,75
2026-05-11 17:53:15.160,1,-0.91,-1.23,1.7,387.2638,-58.9934,-222.5266,175,75
2026-05-11 17:53:15.184,1,-1.08,-2.31,1.8,331.2238,-176.98340000000002,-200.26659999999998,175,75
2026-05-11 17:53:15.219,1,-1.41,-2.77,1.86,262.1338,-319.0534,-196.48659999999998,175,75
2026-05-11 17:53:15.266,1,-6.32,-0.46,0.53,57.503800000000005,-350.15340000000003,-58.2566,175,75
2026-05-11 17:53:15.285,1,6.8,-1.93,-1.13,-39.566199999999995,-403.1434,566.8634,175,75
2026-05-11 17:53:15.296,1,-1.21,-3.46,4.25,172.9338,842.6566,9.2434,175,75
2026-05-11 17:53:15.306,1,2.08,-0.07,3.54,58.543800000000005,476.3766,-9.1766,175,75
2026-05-11 17:53:15.318,1,-1.46,-1.26,3.3,23.723800000000004,147.95659999999998,34.1234,175,75
2026-05-11 17:53:15.332,1,-0.55,-2.2,2.97,-98.1062,29.296599999999998,27.3534,175,75
2026-05-11 17:53:15.380,1,-1.8,-1.72,0.9,-106.03620000000001,14.906600000000001,70.3434,175,75
2026-05-11 17:53:15.426,1,-1.59,-0.69,1.71,63.293800000000005,-16.1834,-29.2966,175,75
2026-05-11 17:53:15.439,1,-1.47,-0.77,1.49,71.1038,-21.313399999999998,-53.9866,175,75
2026-05-11 17:53:15.447,1,-1.42,-0.94,1.38,83.1738,-11.863399999999999,-75.3966,175,75
2026-05-11 17:53:15.459,1,-1.45,-0.97,1.46,104.4538,5.826600000000003,-98.4366,175,75
2026-05-11 17:53:15.470,1,-1.34,-0.99,1.57,115.5538,18.0766,-108.07660000000001,175,75
2026-05-11 17:53:15.481,1,-1.16,-1.1,1.63,116.7738,27.5366,-113.98660000000001,175,75
2026-05-11 17:53:15.496,1,-0.97,-1.44,1.64,108.1738,21.986600000000003,-124.8466,175,75
2026-05-11 17:53:15.507,1,-0.8,-1.82,1.7,99.3338,18.9966,-143.3166,175,75
2026-05-11 17:53:15.517,1,-0.86,-2.25,1.86,85.9238,105.0966,-163.3766,175,75
2026-05-11 17:53:15.554,1,-0.72,-0.11,2.49,9.883800000000003,26.8566,-55.9366,175,75
2026-05-11 17:53:15.579,1,-1.81,-0.07,1.35,-57.496199999999995,-125.0334,12.3534,175,75
2026-05-11 17:53:15.604,1,-1.62,-0.33,0.71,-128.3462,-3.2033999999999985,68.9334,175,75
2026-05-11 17:53:15.616,1,-1.46,-0.22,1.04,-126.21620000000001,24.726600000000005,82.5334,175,75
2026-05-11 17:53:15.626,1,-1.2,-0.16,1.44,-128.77620000000002,21.376600000000003,90.82339999999999,175,75
2026-05-11 17:53:15.637,1,-1.04,-0.13,1.58,-144.3262,-11.313399999999998,98.51339999999999,175,75
2026-05-11 17:53:15.650,1,-0.46,-0.02,1.56,-143.1062,-10.3934,95.58340000000001,175,75
2026-05-11 17:53:15.659,1,-0.02,0.3,1.69,-126.5162,12.346600000000002,79.30340000000001,175,75
2026-05-11 17:53:15.672,1,0.45,0.78,1.91,-108.34620000000001,36.2466,53.5134,175,75
2026-05-11 17:53:15.694,1,0.13,2.05,2.07,-33.596199999999996,-21.373399999999997,-12.8266,175,75
2026-05-11 17:53:15.702,1,-2.89,0.68,2.23,-88.4662,-360.33340000000004,37.4734,175,75
2026-05-11 17:53:15.715,1,-3.28,-0.25,1.34,-107.67620000000001,-229.48340000000002,107.23339999999999,175,75
2026-05-11 17:53:15.735,1,-2.8,-4.01,3.58,83.2338,33.8166,39.8534,175,75
2026-05-11 17:53:15.775,1,-0.96,-1.37,0.78,-25.7262,-141.73340000000002,-13.9266,175,75
2026-05-11 17:53:15.789,1,-0.91,-2.28,1.29,64.4538,62.89660000000001,-28.2566,175,75
2026-05-11 17:53:15.813,1,-0.9,-2.18,1.56,17.3838,2.3466000000000022,-42.0966,175,75
2026-05-11 17:53:15.825,1,-1.08,-1.99,1.33,14.033800000000003,0.03660000000000174,-52.0366,175,75
2026-05-11 17:53:15.835,1,-1.28,-1.92,1.59,42.0138,67.7766,-67.1566,175,75
2026-05-11 17:53:15.848,1,-1.19,-2.18,2.22,61.653800000000004,153.07659999999998,-67.5266,175,75
2026-05-11 17:53:15.878,1,0.39,-2.59,2.69,-22.2562,170.15660000000003,-16.1266,175,75
2026-05-11 17:53:15.888,1,-0.12,-1.61,1.9,-18.2862,184.4866,-3.8066,175,75
2026-05-11 17:53:15.900,1,-4.24,-0.53,1.2,-107.9862,227.34660000000002,68.8134,175,75
2026-05-11 17:53:15.910,1,-4.2,-1.26,0.59,-219.3262,247.83659999999998,197.7134,175,75
2026-05-11 17:53:15.935,1,-4.29,-2.96,-0.89,-370.2362,247.71659999999997,232.04340000000002,175,75
2026-05-11 17:53:15.951,1,-1.99,-2.7,0.68,-274.2662,296.3766,269.73339999999996,175,75
2026-05-11 17:53:15.956,1,-1.68,-2.31,1.61,-353.3462,169.1166,290.4634,175,75
2026-05-11 17:53:15.982,1,-1.28,-1.31,0.94,-410.4862,84.0566,298.0234,175,75
2026-05-11 17:53:15.993,1,-1.15,-1.1,0.97,-395.7862,134.4866,295.1534,175,75
2026-05-11 17:53:16.000,1,-0.92,-0.98,1.25,-390.7862,163.9366,293.0834,175,75
2026-05-11 17:53:16.018,1,-0.57,-0.95,1.78,-395.8462,140.03660000000002,286.5634,175,75
2026-05-11 17:53:16.029,1,-0.27,-0.81,1.97,-395.6062,55.7666,266.5634,175,75
2026-05-11 17:53:16.054,1,-0.13,-0.21,2.0,-335.6662,-59.233399999999996,253.93340000000003,175,75
2026-05-11 17:53:16.060,1,-0.04,-0.14,2.36,-303.4662,-50.0334,251.37340000000003,175,75
2026-05-11 17:53:16.074,1,0.24,-0.14,2.89,-269.2062,-25.0934,255.2134,175,75
2026-05-11 17:53:16.085,1,0.82,0.18,3.47,-234.1462,-28.383399999999998,238.57340000000002,175,75
2026-05-11 17:53:16.121,1,1.08,1.81,3.99,27.3838,34.0566,-2.2165999999999997,175,75
2026-05-11 17:53:16.121,1,0.68,0.58,3.66,120.85379999999999,103.6266,-55.5166,175,75
2026-05-11 17:53:16.159,1,0.33,0.13,3.18,244.3938,-92.1034,-180.7566,175,75
2026-05-11 17:53:16.174,1,0.1,0.01,2.59,268.3538,-116.6134,-219.29659999999998,175,75
2026-05-11 17:53:16.196,1,-0.53,-0.51,1.98,315.1838,-17.223399999999998,-266.6766,175,75
2026-05-11 17:53:16.210,1,-0.61,-0.47,2.18,334.3338,-0.8233999999999995,-260.6366,175,75
2026-05-11 17:53:16.225,1,-0.65,-0.5,2.36,338.7838,-29.4234,-247.0366,175,75
2026-05-11 17:53:16.236,1,-0.68,-0.61,2.37,330.0038,-60.6434,-242.4066,175,75
2026-05-11 17:53:16.244,1,-0.72,-0.75,2.22,310.7338,-95.2734,-246.8566,175,75
2026-05-11 17:53:16.252,1,-0.82,-0.74,2.04,300.61379999999997,-108.9934,-246.48659999999998,175,75
2026-05-11 17:53:16.273,1,-0.81,-0.71,1.83,302.7438,-113.5034,-250.8166,175,75
2026-05-11 17:53:16.299,1,-0.69,-0.7,1.58,317.2038,-92.8334,-259.5966,175,75
2026-05-11 17:53:16.321,1,-1.18,-0.99,1.57,338.2338,-72.04339999999999,-260.9966,175,75
2026-05-11 17:53:16.321,1,-1.12,-1.4,1.53,339.4538,-67.9534,-262.4066,175,75
2026-05-11 17:53:16.344,1,-1.56,-2.09,1.66,280.4338,-156.1234,-211.0666,175,75
2026-05-11 17:53:16.373,1,-2.02,-1.62,1.59,216.28379999999999,-321.1234,-169.5966,175,75
2026-05-11 17:53:16.388,1,-2.24,-1.21,1.47,208.5438,-389.1734,-138.4366,175,75
2026-05-11 17:53:16.388,1,-3.23,-1.06,1.27,172.3838,-474.5434,-83.19659999999999,175,75
2026-05-11 17:53:16.419,1,-8.55,-4.14,-4.4,-132.0062,-1024.6034,398.5134,175,75
2026-05-11 17:53:16.419,1,6.55,-8.09,-1.19,16.713800000000003,-299.0534,337.10339999999997,175,75
2026-05-11 17:53:16.434,1,1.44,0.74,2.69,99.0338,1164.7866000000001,-92.4066,175,75
2026-05-11 17:53:16.444,1,-2.76,0.46,2.78,41.653800000000004,542.7166000000001,-139.7166,175,75
2026-05-11 17:53:16.457,1,0.69,-3.33,4.94,-199.2062,-23.263399999999997,25.5834,175,75
2026-05-11 17:53:16.469,1,-0.2,-5.12,3.31,-147.3762,-127.8934,27.7134,175,75
2026-05-11 17:53:16.490,1,-0.91,-3.34,-0.05,-328.0462,-351.8634,63.9334,175,75
2026-05-11 17:53:16.503,1,-1.6,0.9,0.23,24.573800000000002,156.9866,120.82339999999999,175,75
2026-05-11 17:53:16.516,1,-0.74,-0.25,1.21,55.7338,19.056600000000003,58.8734,175,75
2026-05-11 17:53:16.529,1,-1.6,-1.55,1.15,75.43379999999999,1.1265999999999998,27.5334,175,75
2026-05-11 17:53:16.538,1,-1.72,-0.96,1.67,92.93379999999999,36.0066,-15.8166,175,75
2026-05-11 17:53:16.550,1,-1.61,-0.81,1.77,97.32379999999999,13.2666,-54.4766,175,75
2026-05-11 17:53:16.573,1,-1.52,-0.93,1.5,90.3138,10.706600000000002,-84.5966,175,75
2026-05-11 17:53:16.573,1,-1.43,-1.17,1.4,112.93379999999999,23.016600000000004,-112.5866,175,75
2026-05-11 17:53:16.586,1,-1.32,-1.48,1.43,121.8338,46.6166,-135.0866,175,75
2026-05-11 17:53:16.597,1,-1.18,-1.57,1.75,134.9438,97.2266,-136.2466,175,75
2026-05-11 17:53:16.608,1,-0.93,-1.6,1.95,132.2038,120.9466,-137.5266,175,75
2026-05-11 17:53:16.619,1,-0.64,-1.41,2.12,128.4238,157.77659999999997,-166.0666,175,75
2026-05-11 17:53:16.639,1,-0.48,-0.8,2.17,29.2738,170.51659999999998,4.3034,175,75
2026-05-11 17:53:16.649,1,-0.93,-1.02,2.7,13.053800000000003,189.1166,-61.5466,175,75
2026-05-11 17:53:16.666,1,-1.09,-0.97,2.91,-12.9262,144.66660000000002,-24.2966,175,75
2026-05-11 17:53:16.671,1,-1.73,-0.36,2.36,-40.96619999999999,72.2266,25.1534,175,75
2026-05-11 17:53:16.714,1,0.06,0.62,2.47,-13.5362,-5.213399999999998,42.4134,175,75
2026-05-11 17:53:16.726,1,0.13,0.74,2.75,7.263800000000002,-153.7534,6.8634,175,75
2026-05-11 17:53:16.762,1,-0.83,0.34,0.88,-20.3562,-164.72340000000003,-43.6866,175,75
2026-05-11 17:53:16.777,1,-1.41,0.23,0.76,-30.486199999999997,-134.8434,-28.1366,175,75
2026-05-11 17:53:16.783,1,-2.97,0.42,0.52,-50.606199999999994,-128.5634,14.1234,175,75
2026-05-11 17:53:16.798,1,-2.72,0.18,0.26,-69.81620000000001,-110.0934,67.1034,175,75
2026-05-11 17:53:16.825,1,-0.65,-1.29,3.7,72.8738,347.40659999999997,74.36340000000001,175,75
2026-05-11 17:53:16.837,1,-0.55,-2.49,4.83,35.183800000000005,72.7166,77.17339999999999,175,75
2026-05-11 17:53:16.847,1,-0.56,-1.39,2.8,-54.68619999999999,-203.6834,72.5334,175,75
2026-05-11 17:53:16.859,1,-1.11,-1.15,1.28,-83.89620000000001,-152.77339999999998,59.483399999999996,175,75
2026-05-11 17:53:16.867,1,-0.7,-0.92,0.43,-23.776199999999996,-105.8834,21.8034,175,75
2026-05-11 17:53:16.896,1,-0.74,-3.01,1.5,37.6238,31.0066,-20.8166,175,75
2026-05-11 17:53:16.896,1,-1.06,-2.42,1.96,26.2838,23.016600000000004,10.153400000000001,175,75
2026-05-11 17:53:16.916,1,-0.88,-1.7,1.48,-0.7861999999999973,-9.293399999999998,-4.9066,175,75
2026-05-11 17:53:16.916,1,-1.39,-1.2,1.16,6.533800000000002,-12.593399999999999,-33.0766,175,75
2026-05-11 17:53:16.928,1,-1.4,-1.54,1.51,54.8838,86.0066,-73.8666,175,75
2026-05-11 17:53:16.939,1,-1.18,-1.93,2.02,69.9438,128.3866,-90.45660000000001,175,75
2026-05-11 17:53:16.967,1,-0.87,-2.19,2.45,42.683800000000005,124.7866,-90.75659999999999,175,75
2026-05-11 17:53:16.996,1,-0.85,-2.12,2.49,28.233800000000002,193.6866,-112.5266,175,75
2026-05-11 17:53:17.019,1,-3.12,-1.13,1.38,-192.1862,69.9066,64.48339999999999,175,75
2026-05-11 17:53:17.039,1,-4.0,-1.67,0.29,-312.0662,42.7766,170.0934,175,75
2026-05-11 17:53:17.039,1,-3.29,-3.08,-0.65,-456.7662,-10.453399999999998,261.98339999999996,175,75
2026-05-11 17:53:17.062,1,-2.86,-4.11,-0.71,-300.6662,250.21659999999997,270.8234,175,75
2026-05-11 17:53:17.062,1,-1.99,-2.89,1.4,-318.1062,229.96660000000003,303.6934,175,75
2026-05-11 17:53:17.100,1,-1.52,-2.4,1.94,-399.6862,121.8566,289.36339999999996,175,75
2026-05-11 17:53:17.125,1,-1.3,-1.83,1.92,-443.9562,30.6366,298.0234,175,75
2026-05-11 17:53:17.140,1,-1.01,-1.14,1.24,-408.0462,50.6366,317.7134,175,75
2026-05-11 17:53:17.152,1,-0.73,-0.91,1.4,-395.1162,113.3266,319.1234,175,75
2026-05-11 17:53:17.164,1,-0.33,-0.96,2.02,-380.9062,103.1366,302.35339999999997,175,75
2026-05-11 17:53:17.174,1,-0.19,-0.81,2.39,-350.1762,51.736599999999996,296.74339999999995,175,75
2026-05-11 17:53:17.183,1,0.06,-0.48,2.77,-315.6062,26.3166,293.2034,175,75
2026-05-11 17:53:17.183,1,0.5,-0.16,3.21,-272.0662,37.656600000000005,277.29339999999996,175,75
2026-05-11 17:53:17.207,1,2.44,0.88,5.09,-207.1262,95.0966,260.9534,175,75
2026-05-11 17:53:17.207,1,1.61,2.21,4.73,-118.59620000000001,-36.6734,97.6534,175,75
2026-05-11 17:53:17.230,1,0.77,0.93,2.57,90.7338,86.8566,-28.6866,175,75
2026-05-11 17:53:17.255,1,0.51,0.6,3.84,226.53379999999999,131.3766,-31.4866,175,75
2026-05-11 17:53:17.276,1,-0.06,0.39,2.29,265.3738,-171.73340000000002,-163.4966,175,75
2026-05-11 17:53:17.296,1,-0.36,-0.29,1.81,285.8538,-132.71339999999998,-194.4166,175,75
2026-05-11 17:53:17.367,1,-0.65,-0.25,1.78,308.9038,5.156600000000001,-238.4966,175,75
2026-05-11 17:53:17.386,1,-0.86,-0.21,2.07,317.7438,25.3966,-235.26659999999998,175,75
2026-05-11 17:53:17.386,1,-0.94,-0.46,2.2,322.3238,-26.9234,-226.8566,175,75
2026-05-11 17:53:17.400,1,-0.86,-0.8,1.71,324.2138,-85.57339999999999,-246.0666,175,75
2026-05-11 17:53:17.411,1,-0.73,-0.96,1.36,335.0638,-66.79339999999999,-250.45659999999998,175,75
2026-05-11 17:53:17.425,1,-1.19,-1.18,1.3,327.6838,-42.3434,-227.5866,175,75
2026-05-11 17:53:17.489,1,-1.24,-2.09,1.79,310.61379999999997,-112.1034,-202.5866,175,75
2026-05-11 17:53:17.509,1,-1.21,-2.48,1.95,292.4438,-180.03339999999997,-185.8166,175,75
2026-05-11 17:53:17.510,1,-1.51,-2.5,1.83,257.3238,-281.7334,-158.5666,175,75
2026-05-11 17:53:17.523,1,-1.78,-1.67,1.44,203.1738,-352.83340000000004,-138.07659999999998,175,75
2026-05-11 17:53:17.527,1,-2.0,-1.27,0.96,167.3838,-390.5734,-119.78659999999999,175,75
2026-05-11 17:53:17.546,1,-2.44,-0.94,0.63,126.1638,-357.8934,-100.57660000000001,175,75
2026-05-11 17:53:17.547,1,-9.51,-0.65,-1.23,41.5938,-427.9534,-65.69659999999999,175,75
2026-05-11 17:53:17.562,1,-3.3,-2.62,-3.79,-112.6162,-789.4233999999999,466.80339999999995,175,75
2026-05-11 17:53:17.584,1,-0.05,-2.16,3.54,-96.2762,-202.71339999999998,56.8034,175,75
2026-05-11 17:53:17.603,1,-0.55,-1.9,1.65,-102.31620000000001,-216.67340000000002,79.79339999999999,175,75
2026-05-11 17:53:17.621,1,-1.18,-1.25,1.19,47.3838,174.96660000000003,63.9334,175,75
2026-05-11 17:53:17.636,1,-0.71,-0.56,1.49,30.0638,49.486599999999996,44.5434,175,75
2026-05-11 17:53:17.649,1,-1.92,-1.01,1.46,113.90379999999999,42.1066,-40.5166,175,75
2026-05-11 17:53:17.661,1,-1.51,-1.19,1.89,116.65379999999999,41.7966,-77.4666,175,75
2026-05-11 17:53:17.661,1,-1.38,-1.19,1.81,99.3938,29.056600000000003,-103.5666,175,75
2026-05-11 17:53:17.683,1,-1.12,-1.27,1.47,102.2038,51.736599999999996,-124.6566,175,75
2026-05-11 17:53:17.702,1,-0.78,-1.72,1.8,112.5638,88.4466,-138.3766,175,75
2026-05-11 17:53:17.727,1,-0.51,-1.34,2.44,73.9038,217.59660000000002,-143.5666,175,75
2026-05-11 17:53:17.737,1,-0.46,-1.45,2.95,61.833800000000004,175.03660000000002,-127.4666,175,75
2026-05-11 17:53:17.750,1,-0.59,-0.87,2.94,34.8238,70.3366,-64.1066,175,75
2026-05-11 17:53:17.781,1,-1.4,0.01,1.95,-29.326199999999993,-40.9434,-15.6966,175,75
2026-05-11 17:53:17.783,1,-2.41,0.15,0.87,-89.14620000000001,-60.5734,39.7334,175,75
2026-05-11 17:53:17.824,1,-1.78,-0.2,0.95,-111.70620000000001,81.7366,87.1034,175,75
2026-05-11 17:53:17.872,1,0.01,0.6,2.2,-73.6562,-235.09339999999997,34.7334,175,75
2026-05-11 17:53:17.873,1,-0.56,0.7,1.56,-60.7262,-219.42340000000002,10.4634,175,75
2026-05-11 17:53:17.895,1,-0.65,0.25,1.35,-51.1562,-106.7334,-15.3866,175,75
2026-05-11 17:53:17.926,1,-0.92,0.34,0.81,-59.32619999999999,-47.5334,-14.9666,175,75
2026-05-11 17:53:17.937,1,-0.1,-1.85,3.01,-32.5562,-34.053399999999996,39.7934,175,75
2026-05-11 17:53:17.948,1,-1.96,-3.37,4.23,84.15379999999999,114.1766,86.98339999999999,175,75
2026-05-11 17:53:17.958,1,-1.05,-2.4,3.58,-59.386199999999995,-71.1234,99.24340000000001,175,75
2026-05-11 17:53:17.976,1,-0.55,-0.64,0.69,-68.6562,-118.8134,57.1134,175,75
2026-05-11 17:53:17.984,1,-0.81,-1.18,0.29,-21.6462,-78.07339999999999,27.843400000000003,175,75
2026-05-11 17:53:18.016,1,-1.21,-2.07,1.71,12.3838,-18.9334,11.313400000000001,175,75
2026-05-11 17:53:18.027,1,-1.41,-1.28,1.13,18.6038,-31.9834,-21.8566,175,75
2026-05-11 17:53:18.039,1,-1.88,-1.13,1.11,57.933800000000005,11.796600000000002,-73.25659999999999,175,75
2026-05-11 17:53:18.039,1,-1.63,-1.41,1.45,95.18379999999999,66.8566,-105.75659999999999,175,75
2026-05-11 17:53:18.061,1,-1.71,-1.53,2.04,107.32379999999999,121.43660000000001,-136.67659999999998,175,75
2026-05-11 17:53:18.074,1,-0.75,-1.64,2.24,123.90379999999999,191.3766,-164.6566,175,75
2026-05-11 17:53:18.085,1,-0.97,-1.31,2.13,51.10380000000001,97.9566,-146.73659999999998,175,75
2026-05-11 17:53:18.097,1,-0.81,-1.31,1.9,46.28380000000001,118.68660000000001,-114.41659999999999,175,75
2026-05-11 17:53:18.109,1,-0.82,-0.99,1.93,58.4838,113.3266,-62.2866,175,75
2026-05-11 17:53:18.109,1,-1.66,-0.46,1.39,22.503800000000002,128.32659999999998,-21.4266,175,75
2026-05-11 17:53:18.124,1,-3.24,-0.0,0.54,-45.5462,206.5566,45.0334,175,75
2026-05-11 17:53:18.136,1,-3.23,-0.96,-0.37,-197.7962,226.4366,184.3034,175,75
2026-05-11 17:53:18.173,1,-4.49,-3.17,-0.44,-364.07620000000003,345.7666,289.79339999999996,175,75
2026-05-11 17:53:18.173,1,-2.99,-5.21,1.22,-330.7262,351.6766,327.7134,175,75
2026-05-11 17:53:18.189,1,-2.26,-5.14,2.14,-373.6562,254.78659999999996,332.6534,175,75
2026-05-11 17:53:18.200,1,-1.88,-3.33,1.86,-459.8762,153.32659999999998,339.0034,175,75
2026-05-11 17:53:18.212,1,-1.43,-2.35,1.36,-474.8762,135.82659999999998,365.2834,175,75
2026-05-11 17:53:18.245,1,-0.35,-1.74,1.79,-437.1262,99.5466,373.2034,175,75
2026-05-11 17:53:18.245,1,-0.34,-1.68,1.97,-438.8962,50.5166,373.0834,175,75
2026-05-11 17:53:18.256,1,-0.41,-1.73,2.02,-431.3962,-5.7033999999999985,370.2134,175,75
2026-05-11 17:53:18.267,1,-0.43,-1.66,2.05,-407.6762,-62.343399999999995,373.7534,175,75
2026-05-11 17:53:18.291,1,-0.38,-1.33,2.1,-379.1462,-96.6734,367.6534,175,75
2026-05-11 17:53:18.304,1,-0.13,-0.76,2.51,-282.3162,14.3566,332.9634,175,75
2026-05-11 17:53:18.314,1,0.44,-0.69,3.08,-232.4362,92.2866,316.92339999999996,175,75
2026-05-11 17:53:18.341,1,2.45,2.65,4.66,-60.7862,186.2466,76.01339999999999,175,75
2026-05-11 17:53:18.364,1,1.83,-0.16,4.61,252.0738,167.22660000000002,-115.1466,175,75
2026-05-11 17:53:18.392,1,0.89,0.1,3.62,286.7138,-122.1034,-245.9366,175,75
2026-05-11 17:53:18.410,1,-0.25,-0.58,1.94,365.9838,-72.8334,-324.3566,175,75
2026-05-11 17:53:18.420,1,-0.32,-0.8,1.95,378.6638,-10.093399999999999,-338.4966,175,75
2026-05-11 17:53:18.432,1,-0.5,-0.79,2.2,395.0638,22.166600000000003,-332.0366,175,75
2026-05-11 17:53:18.477,1,-0.83,-1.24,2.51,394.5738,-93.0134,-302.70660000000004,175,75
2026-05-11 17:53:18.487,1,-0.88,-1.2,2.08,376.6538,-90.2134,-319.5366,175,75
2026-05-11 17:53:18.506,1,-0.96,-0.98,1.54,369.2738,-89.9634,-283.3766,175,75
2026-05-11 17:53:18.517,1,-1.36,-1.08,1.11,350.3138,-107.0434,-283.4966,175,75
2026-05-11 17:53:18.528,1,-1.45,-1.3,1.01,338.2338,-84.9634,-271.0666,175,75
2026-05-11 17:53:18.535,1,-1.5,-1.81,1.1,329.9438,-63.3234,-275.9966,175,75
2026-05-11 17:53:18.543,1,-1.56,-2.25,1.45,324.2138,-87.5934,-252.6466,175,75
2026-05-11 17:53:18.556,1,-1.56,-2.7,1.81,303.2338,-215.64339999999999,-210.45659999999998,175,75
2026-05-11 17:53:18.571,1,-2.12,-2.62,1.66,252.8138,-393.0134,-180.0266,175,75
2026-05-11 17:53:18.571,1,-2.59,-1.98,1.19,208.9038,-442.40340000000003,-166.9766,175,75
2026-05-11 17:53:18.591,1,-2.85,-1.24,0.67,176.8338,-414.90340000000003,-152.95659999999998,175,75
2026-05-11 17:53:18.611,1,-6.44,-0.53,0.08,92.8738,-245.9434,-62.5866,175,75
2026-05-11 17:53:18.625,1,-11.09,-1.15,-3.48,-10.666199999999998,-379.1134,7.593400000000001,175,75
2026-05-11 17:53:18.641,1,-0.86,-4.79,7.44,367.9938,964.0566,52.7134,175,75
2026-05-11 17:53:18.656,1,2.47,0.22,5.03,-19.266199999999998,143.8166,-30.2066,175,75
2026-05-11 17:53:18.698,1,-0.35,-2.41,-0.28,-66.5762,-81.2534,19.1834,175,75
2026-05-11 17:53:18.759,1,-1.47,-0.46,0.28,-45.786199999999994,-148.5034,52.7134,175,75
2026-05-11 17:53:18.770,1,-2.25,-0.49,0.43,75.18379999999999,36.3766,6.743399999999999,175,75
2026-05-11 17:53:18.781,1,-1.49,-0.98,1.71,146.1638,90.3966,-40.3266,175,75
2026-05-11 17:53:18.811,1,-1.43,-0.97,1.69,108.2338,22.4666,-79.8466,175,75
2026-05-11 17:53:18.821,1,-1.17,-1.17,1.51,131.4038,52.596599999999995,-132.2866,175,75
2026-05-11 17:53:18.832,1,-1.23,-1.28,1.68,135.4338,107.2866,-141.8566,175,75
2026-05-11 17:53:18.848,1,-0.72,-1.21,1.75,107.5638,103.7466,-138.6866,175,75
2026-05-11 17:53:18.848,1,-0.62,-0.93,1.82,66.0438,81.4366,-118.6266,175,75
2026-05-11 17:53:18.887,1,-0.82,-1.26,2.11,52.503800000000005,-14.963399999999998,-84.53659999999999,175,75
2026-05-11 17:53:18.912,1,-2.41,-0.03,0.22,-119.68620000000001,-74.1734,54.3034,175,75
2026-05-11 17:53:18.922,1,-2.34,0.04,0.28,-128.3462,25.5766,79.9134,175,75
2026-05-11 17:53:18.946,1,-0.92,-0.0,1.59,-98.4662,128.6266,101.6234,175,75
2026-05-11 17:53:18.954,1,-0.4,0.09,1.85,-128.8362,61.2466,88.20339999999999,175,75
2026-05-11 17:53:18.965,1,-0.66,0.16,1.42,-140.4862,25.276600000000002,81.1334,175,75
2026-05-11 17:53:18.972,1,-0.86,0.17,0.98,-137.3762,61.06660000000001,69.30340000000001,175,75
2026-05-11 17:53:18.999,1,-0.88,0.51,1.45,-95.4862,203.01659999999998,50.9534,175,75
2026-05-11 17:53:19.008,1,0.18,0.33,2.38,-61.3962,194.0566,31.5634,175,75
2026-05-11 17:53:19.027,1,1.06,-0.03,3.45,-35.4862,114.90660000000001,-8.1966,175,75
2026-05-11 17:53:19.042,1,-1.33,-0.22,5.57,-17.736199999999997,113.5066,5.7034,175,75
2026-05-11 17:53:19.053,1,-2.19,-2.21,3.94,-64.81620000000001,-294.84340000000003,31.0734,175,75
2026-05-11 17:53:19.071,1,-1.61,-0.39,1.66,-99.3862,-85.4534,101.01339999999999,175,75
2026-05-11 17:53:19.085,1,-1.02,-1.61,0.94,12.813800000000002,-54.7234,-6.8566,175,75
2026-05-11 17:53:19.096,1,-0.9,-1.8,0.96,-3.346199999999998,-12.533399999999999,-1.0666000000000002,175,75
2026-05-11 17:53:19.107,1,-0.91,-1.71,1.01,21.403800000000004,-33.0134,-12.406600000000001,175,75
2026-05-11 17:53:19.118,1,-0.75,-1.65,1.14,64.6438,5.576600000000003,-17.6466,175,75
2026-05-11 17:53:19.130,1,-0.98,-1.93,1.18,61.893800000000006,-10.273399999999999,-26.9166,175,75
2026-05-11 17:53:19.145,1,-1.37,-1.57,1.13,72.1438,-2.593399999999999,-54.4166,175,75
2026-05-11 17:53:19.158,1,-1.35,-1.29,1.02,81.71379999999999,10.706600000000002,-84.04660000000001,175,75
2026-05-11 17:53:19.168,1,-1.33,-1.35,1.16,109.2738,17.1066,-110.0266,175,75
2026-05-11 17:53:19.180,1,-1.27,-1.4,1.43,115.43379999999999,52.596599999999995,-142.6466,175,75
2026-05-11 17:53:19.200,1,-0.18,-1.59,1.99,149.0938,147.95659999999998,-154.6566,175,75
2026-05-11 17:53:19.201,1,-0.42,-1.76,1.8,96.04379999999999,13.7466,-151.54659999999998,175,75
2026-05-11 17:53:19.211,1,-0.92,-1.34,1.26,66.1038,52.956599999999995,-126.91659999999999,175,75
2026-05-11 17:53:19.238,1,-0.8,-0.62,1.56,78.0538,106.92660000000001,-105.26660000000001,175,75
2026-05-11 17:53:19.238,1,-1.51,-0.29,1.71,20.6738,67.1066,-47.0366,175,75
2026-05-11 17:53:19.248,1,-3.2,-0.23,0.63,-117.7362,-21.9834,36.5034,175,75
2026-05-11 17:53:19.262,1,-3.95,-0.11,-0.72,-245.6662,12.5366,141.6834,175,75
2026-05-11 17:53:19.273,1,-3.96,-0.86,-1.2,-344.9962,199.90660000000003,199.0034,175,75
2026-05-11 17:53:19.280,1,-4.47,-2.05,-0.88,-402.7962,401.1866,228.8734,175,75
2026-05-11 17:53:19.305,1,-2.46,-5.43,1.41,-405.5462,407.28659999999996,285.0334,175,75
2026-05-11 17:53:19.312,1,-1.5,-4.41,1.92,-463.8362,233.9966,282.5334,175,75
2026-05-11 17:53:19.327,1,-1.34,-2.54,1.57,-535.0562,169.4266,292.7134,175,75
2026-05-11 17:53:19.358,1,-0.8,-1.89,2.25,-498.3462,132.59660000000002,289.42339999999996,175,75
2026-05-11 17:53:19.369,1,-0.76,-1.51,2.38,-500.8462,81.1866,291.4334,175,75
2026-05-11 17:53:19.379,1,-0.79,-1.54,2.32,-489.8162,34.1766,290.5234,175,75
2026-05-11 17:53:19.390,1,-0.79,-1.62,2.26,-460.7862,12.596600000000002,277.7134,175,75
2026-05-11 17:53:19.416,1,-0.76,-1.36,2.62,-378.6562,38.1366,237.4734,175,75
2026-05-11 17:53:19.426,1,-0.7,-1.1,3.03,-325.6062,71.06660000000001,224.1834,175,75
2026-05-11 17:53:19.438,1,-0.37,-0.4,3.73,-204.0162,69.7266,187.7834,175,75
2026-05-11 17:53:19.456,1,0.08,0.82,3.78,-66.5762,38.1366,118.8134,175,75
2026-05-11 17:53:19.479,1,-0.1,1.58,3.53,44.333800000000004,17.9566,64.42339999999999,175,75
2026-05-11 17:53:19.490,1,-0.13,0.64,3.29,252.4438,67.2266,-25.2066,175,75
2026-05-11 17:53:19.504,1,-0.15,0.05,3.2,321.6538,73.2666,-52.3466,175,75
2026-05-11 17:53:19.581,1,-0.3,-0.39,2.88,380.7938,27.5366,-78.19659999999999,175,75
2026-05-11 17:53:19.608,1,-0.45,-0.51,2.64,391.7738,-8.623399999999998,-84.9666,175,75
2026-05-11 17:53:19.619,1,-0.68,-0.6,2.18,405.0638,-52.5334,-118.01660000000001,175,75
2026-05-11 17:53:19.630,1,-0.76,-0.52,1.98,409.1538,-55.5134,-123.3166,175,75
2026-05-11 17:53:19.651,1,-0.8,-0.47,1.72,412.3238,-45.0934,-112.82660000000001,175,75
2026-05-11 17:53:19.673,1,-0.9,-0.61,1.48,395.0638,-75.7034,-105.0866,175,75
2026-05-11 17:53:19.731,1,-0.89,-0.92,1.39,341.1038,-136.4334,-99.8466,175,75
2026-05-11 17:53:19.731,1,-0.98,-1.03,1.21,315.4338,-184.17340000000002,-103.8666,175,75
2026-05-11 17:53:19.742,1,-1.15,-1.01,1.04,295.4338,-220.15339999999998,-92.28659999999999,175,75
2026-05-11 17:53:19.754,1,-1.88,-1.04,0.3,261.6538,-229.60340000000002,-79.6566,175,75
2026-05-11 17:53:19.772,1,-1.96,-1.06,0.17,258.23380000000003,-186.3134,-77.2166,175,75
2026-05-11 17:53:19.772,1,-1.87,-1.03,0.22,244.6338,-149.84339999999997,-66.8566,175,75
2026-05-11 17:53:19.784,1,-1.75,-1.0,0.34,222.1338,-125.2734,-57.5266,175,75
2026-05-11 17:53:19.784,1,-1.7,-0.58,0.19,125.0638,-115.1534,-15.9366,175,75
2026-05-11 17:53:19.796,1,-5.14,0.36,-2.49,56.403800000000004,-28.7534,118.39340000000001,175,75
2026-05-11 17:53:19.817,1,0.77,-0.37,2.91,-96.9462,365.15659999999997,16.7434,175,75
2026-05-11 17:53:19.830,1,-1.65,-1.22,2.64,-176.6462,-279.1134,97.5934,175,75
2026-05-11 17:53:19.852,1,-0.74,-2.43,0.93,-114.9362,-107.4634,61.3734,175,75
2026-05-11 17:53:19.862,1,-1.1,-2.43,0.46,-111.70620000000001,48.266600000000004,45.3434,175,75
2026-05-11 17:53:19.874,1,-1.13,-1.64,0.34,-55.7862,15.456600000000002,40.5234,175,75
2026-05-11 17:53:19.886,1,-2.02,-1.57,1.5,5.733800000000002,113.93660000000001,-45.0266,175,75
2026-05-11 17:53:19.898,1,-1.94,-1.59,1.69,-1.336199999999998,130.6366,-80.63659999999999,175,75
2026-05-11 17:53:19.907,1,-1.79,-1.66,1.65,-15.486199999999998,124.2966,-119.5966,175,75
2026-05-11 17:53:19.920,1,-1.64,-1.69,1.68,-22.986199999999997,119.7266,-139.23659999999998,175,75
2026-05-11 17:53:19.920,1,-1.7,-1.57,1.92,14.153800000000002,151.85660000000001,-149.4166,175,75
2026-05-11 17:53:19.961,1,-2.29,-2.7,3.54,27.503800000000005,398.0166,-188.7466,175,75
2026-05-11 17:53:19.976,1,-3.43,-1.57,3.95,-56.0362,450.3966,-80.63659999999999,175,75
2026-05-11 17:53:19.986,1,-2.89,-0.14,3.92,-54.7562,489.1166,-30.9366,175,75
2026-05-11 17:53:19.990,1,-3.1,-0.15,2.43,6.893800000000002,391.6166,-29.2366,175,75
2026-05-11 17:53:20.001,1,-4.46,-0.46,1.69,-18.836199999999998,443.7466,31.803400000000003,175,75
2026-05-11 17:53:20.014,1,-3.86,-0.67,2.54,-18.5362,641.3766,87.1034,175,75
2026-05-11 17:53:20.025,1,-3.1,-1.14,3.37,-32.3762,535.8866,147.17340000000002,175,75
2026-05-11 17:53:20.035,1,-2.81,-1.02,4.34,-49.816199999999995,421.9866,216.1334,175,75
2026-05-11 17:53:20.081,1,-1.61,-0.61,2.55,122.8738,-85.1534,294.73339999999996,175,75
2026-05-11 17:53:20.090,1,-1.27,-0.67,2.21,130.9838,-95.7634,285.7634,175,75
2026-05-11 17:53:20.101,1,0.08,-0.87,1.98,151.8338,-96.5534,271.4334,175,75
2026-05-11 17:53:20.130,1,-0.53,-0.67,0.47,108.7238,-88.07339999999999,228.26340000000002,175,75
2026-05-11 17:53:20.142,1,-0.81,-0.18,0.08,140.0638,50.03660000000001,223.0234,175,75
2026-05-11 17:53:20.155,1,-0.8,-0.49,0.27,165.7938,158.8166,215.0934,175,75
2026-05-11 17:53:20.178,1,-0.26,-0.68,0.49,135.6738,207.65660000000003,209.1234,175,75
2026-05-11 17:53:20.191,1,0.17,-0.85,0.27,120.4938,263.3266,181.8034,175,75
2026-05-11 17:53:20.191,1,0.63,-0.98,0.4,107.8738,323.6866,150.95340000000002,175,75
2026-05-11 17:53:20.200,1,1.01,-0.84,0.73,101.9538,391.4366,132.1134,175,75
2026-05-11 17:53:20.214,1,1.32,-0.42,1.23,100.9238,396.0066,104.8534,175,75
2026-05-11 17:53:20.224,1,2.52,0.27,2.03,145.9838,371.1266,63.39340000000001,175,75
2026-05-11 17:53:20.236,1,4.75,-3.37,3.1,127.0138,416.5566,-114.9066,175,75
2026-05-11 17:53:20.247,1,3.13,-4.8,3.78,137.5038,212.83659999999998,-104.10659999999999,175,75
2026-05-11 17:53:20.257,1,2.79,-6.2,1.53,-50.666199999999996,-192.71339999999998,-108.4366,175,75
2026-05-11 17:53:20.262,1,0.42,-3.0,-0.27,-271.9462,-279.4234,-104.9666,175,75
2026-05-11 17:53:20.273,1,-0.07,-1.47,-0.14,-67.1262,-72.9534,-108.7466,175,75
2026-05-11 17:53:20.300,1,-1.06,-3.12,2.41,30.793800000000005,90.6366,-14.0466,175,75
2026-05-11 17:53:20.320,1,-0.75,-2.49,1.51,-31.516199999999998,66.6166,-25.5766,175,75
2026-05-11 17:53:20.320,1,-0.84,-1.96,1.03,-38.4062,44.5466,-44.2366,175,75
2026-05-11 17:53:20.340,1,-1.2,-2.3,1.18,-9.816199999999997,139.35660000000001,-79.5966,175,75
2026-05-11 17:53:20.351,1,-1.47,-2.25,2.02,46.10380000000001,242.71659999999997,-82.8966,175,75
2026-05-11 17:53:20.351,1,-0.51,-2.6,3.22,108.8438,310.9466,-82.1566,175,75
2026-05-11 17:53:20.375,1,-0.89,-3.21,3.73,-56.6462,102.5366,-48.5666,175,75
2026-05-11 17:53:20.401,1,-1.57,1.74,0.75,-19.7562,12.1066,-119.17660000000001,175,75
2026-05-11 17:53:20.413,1,-1.22,4.18,0.38,121.8338,320.21659999999997,-191.1266,175,75
2026-05-11 17:53:20.422,1,-1.38,1.77,2.08,291.5938,779.7866,-213.1366,175,75
2026-05-11 17:53:20.445,1,-0.81,0.82,3.86,304.3338,705.0366,-245.51659999999998,175,75
2026-05-11 17:53:20.456,1,-1.1,1.03,3.66,395.8538,512.9566000000001,-221.9166,175,75
2026-05-11 17:53:20.456,1,-0.47,0.24,3.01,478.9038,325.7066,-188.7466,175,75
2026-05-11 17:53:20.478,1,0.06,-2.02,0.72,459.5138,129.2366,-287.52660000000003,175,75
2026-05-11 17:53:20.500,1,1.45,-3.8,0.46,436.4638,15.886600000000001,-283.7466,175,75
2026-05-11 17:53:20.500,1,-0.49,-3.6,0.1,318.17379999999997,-502.83340000000004,-238.7466,175,75
2026-05-11 17:53:20.513,1,-5.79,-4.38,-0.09,27.503800000000005,-370.33340000000004,-198.6866,175,75
2026-05-11 17:53:20.525,1,-3.13,-1.3,1.35,-42.4362,-149.72340000000003,-63.6266,175,75
2026-05-11 17:53:20.586,1,-1.7,-1.63,-0.66,47.2638,558.5066,58.5734,175,75
2026-05-11 17:53:20.586,1,-0.75,-1.59,1.76,-16.516199999999998,627.7766,79.1234,175,75
2026-05-11 17:53:20.596,1,-1.06,-1.66,3.36,-84.81620000000001,440.15659999999997,92.71340000000001,175,75
2026-05-11 17:53:20.619,1,-1.98,-2.4,2.44,-294.0162,130.39659999999998,121.98340000000002,175,75
2026-05-11 17:53:20.651,1,-1.66,-1.84,2.31,-194.8162,19.1766,241.6834,175,75
2026-05-11 17:53:20.671,1,-1.28,-0.89,1.64,-240.1162,-98.2634,263.4534,175,75
2026-05-11 17:53:20.715,1,-1.18,-0.66,1.29,-196.5162,-54.483399999999996,271.98339999999996,175,75
2026-05-11 17:53:20.728,1,-1.02,-0.49,1.26,-166.6462,5.096600000000002,279.79339999999996,175,75
2026-05-11 17:53:20.741,1,-0.84,-0.26,1.51,-163.4062,60.1566,286.0734,175,75
2026-05-11 17:53:20.741,1,-0.57,-0.1,1.71,-161.7062,89.4866,285.0934,175,75
2026-05-11 17:53:20.755,1,-0.46,-0.12,1.76,-144.2662,73.4466,271.2534,175,75
2026-05-11 17:53:20.776,1,-0.46,-0.27,1.75,-114.14620000000001,40.7066,251.80339999999998,175,75
2026-05-11 17:53:20.787,1,-0.39,-0.23,1.79,-106.03620000000001,30.156600000000005,243.6334,175,75
2026-05-11 17:53:20.805,1,-0.29,-0.11,1.87,-82.3762,13.816600000000001,228.1434,175,75
2026-05-11 17:53:20.842,1,-0.42,0.21,1.94,-18.2862,-32.773399999999995,178.45340000000002,175,75
2026-05-11 17:53:20.867,1,-0.43,0.1,1.85,-2.9861999999999984,-33.5034,163.0234,175,75
2026-05-11 17:53:20.904,1,0.97,-2.01,0.04,-12.616199999999997,259.96659999999997,20.1534,175,75
2026-05-11 17:53:20.904,1,0.54,-5.73,4.62,257.9938,680.7666,-48.6266,175,75
2026-05-11 17:53:20.917,1,4.74,-5.73,5.91,192.6238,423.6266,-32.5266,175,75
2026-05-11 17:53:20.928,1,2.05,-4.9,3.29,-184.8162,-464.0534,-120.32660000000001,175,75
2026-05-11 17:53:20.939,1,-1.54,-1.8,0.18,-95.1162,105.9466,-70.75659999999999,175,75
2026-05-11 17:53:20.952,1,-0.41,-2.29,0.37,-54.32619999999999,88.7466,-50.3866,175,75
2026-05-11 17:53:20.962,1,-0.56,-1.67,0.56,-56.886199999999995,-5.213399999999998,-61.9166,175,75
2026-05-11 17:53:20.987,1,-1.72,-1.06,0.9,7.443800000000001,97.7166,-118.6866,175,75
2026-05-11 17:53:20.998,1,-1.45,-1.32,0.91,21.653800000000004,67.2866,-162.5866,175,75
2026-05-11 17:53:20.999,1,-1.47,-1.67,0.93,46.5938,76.1266,-197.0366,175,75
2026-05-11 17:53:21.020,1,-1.88,-1.35,1.58,143.4838,212.40660000000003,-236.8566,175,75
2026-05-11 17:53:21.020,1,-1.16,-1.08,1.68,202.0138,188.5066,-229.17659999999998,175,75
2026-05-11 17:53:21.031,1,-1.86,-1.62,1.91,169.6338,83.2666,-232.3466,175,75
2026-05-11 17:53:21.044,1,-3.44,-1.95,2.56,121.2838,221.6166,-201.42659999999998,175,75
2026-05-11 17:53:21.055,1,-4.01,-1.87,3.46,61.53380000000001,288.5666,-129.4766,175,75
2026-05-11 17:53:21.065,1,-3.33,-1.25,3.33,25.4938,311.1866,-88.4966,175,75
2026-05-11 17:53:21.078,1,-4.22,-0.37,1.96,-5.366199999999997,177.34660000000002,-89.17660000000001,175,75
2026-05-11 17:53:21.087,1,-4.74,0.2,1.16,-10.1762,287.0466,-1.0666000000000002,175,75
2026-05-11 17:53:21.108,1,-4.13,-1.1,1.24,30.183800000000005,443.7466,139.1234,175,75
2026-05-11 17:53:21.125,1,-4.33,-1.37,1.77,34.0938,518.7466000000001,217.5334,175,75
2026-05-11 17:53:21.152,1,-2.33,-1.21,2.59,-60.54619999999999,350.21659999999997,309.67339999999996,175,75
2026-05-11 17:53:21.165,1,-1.94,-1.22,2.26,-92.4962,256.4966,333.8134,175,75
2026-05-11 17:53:21.178,1,-1.72,-1.35,2.09,-94.56620000000001,214.2966,345.8234,175,75
2026-05-11 17:53:21.189,1,-1.39,-1.25,2.11,-93.7162,168.26659999999998,363.0834,175,75
2026-05-11 17:53:21.210,1,-0.97,-1.06,2.26,-92.8562,113.56660000000001,378.7534,175,75
2026-05-11 17:53:21.249,1,-0.49,-0.97,2.25,-91.39620000000001,54.78660000000001,381.6834,175,75
2026-05-11 17:53:21.269,1,-0.17,-0.88,2.26,-83.8362,-10.8234,374.0034,175,75
2026-05-11 17:53:21.278,1,0.29,-0.8,2.15,-57.6762,-43.2634,353.3234,175,75
2026-05-11 17:53:21.313,1,0.57,-0.73,1.97,-28.536199999999994,-60.3334,321.3734,175,75
2026-05-11 17:53:21.358,1,0.36,-0.03,1.97,25.733800000000002,-26.6734,267.23339999999996,175,75
2026-05-11 17:53:21.369,1,0.37,-0.02,1.98,48.8438,-28.813399999999998,226.6834,175,75
2026-05-11 17:53:21.381,1,-0.28,-0.51,1.32,39.3938,-92.4634,189.8534,175,75
2026-05-11 17:53:21.396,1,0.74,-1.07,0.68,45.67380000000001,165.09660000000002,127.17340000000002,175,75
2026-05-11 17:53:21.428,1,-2.04,-2.65,1.24,-49.816199999999995,-107.2834,-53.1366,175,75
2026-05-11 17:53:21.435,1,-0.49,-2.51,0.72,15.673800000000002,3.996600000000001,-29.5966,175,75
2026-05-11 17:53:21.482,1,-0.31,-2.46,0.54,-23.896199999999993,-38.3234,-26.3666,175,75
2026-05-11 17:53:21.504,1,-1.07,-1.59,0.59,14.513800000000002,18.446600000000004,-9.1066,175,75
2026-05-11 17:53:21.514,1,-1.46,-2.34,1.85,119.5138,192.34660000000002,-30.0266,175,75
2026-05-11 17:53:21.535,1,1.01,-2.99,2.62,153.1738,150.57659999999998,-18.2566,175,75
2026-05-11 17:53:21.548,1,-0.93,-3.34,2.82,-19.016199999999998,4.9666,-66.42660000000001,175,75
2026-05-11 17:53:21.583,1,-0.43,4.73,1.52,279.5738,305.3366,-207.3466,175,75
2026-05-11 17:53:21.583,1,-0.9,0.61,3.0,243.9038,579.9666000000001,-213.5666,175,75
2026-05-11 17:53:21.596,1,-0.62,0.05,3.03,253.78379999999999,483.0766,-279.1766,175,75
2026-05-11 17:53:21.605,1,-1.21,0.32,2.48,405.7938,434.4266,-226.1866,175,75
2026-05-11 17:53:21.637,1,-0.93,-0.49,1.72,515.4938000000001,365.8866,-219.29659999999998,175,75
2026-05-11 17:53:21.651,1,2.05,-3.62,0.91,473.6038,313.0166,-242.0966,175,75
2026-05-11 17:53:21.658,1,0.08,-3.48,-0.75,242.1338,-387.2234,-230.32659999999998,175,75
2026-05-11 17:53:21.683,1,-2.87,-1.19,-0.62,81.7738,53.9366,-96.2466,175,75
2026-05-11 17:53:21.683,1,1.32,-1.26,3.02,98.8438,85.1566,-123.25659999999999,175,75
2026-05-11 17:53:21.709,1,-0.53,-0.66,-0.26,60.1238,77.7766,-185.45659999999998,175,75
2026-05-11 17:53:21.721,1,-1.27,-1.66,-0.86,126.46379999999999,378.4466,-96.79660000000001,175,75
2026-05-11 17:53:21.731,1,-2.46,-1.87,-0.12,37.0138,488.1366,-64.1066,175,75
2026-05-11 17:53:21.744,1,-3.33,-1.27,0.81,-93.28620000000001,512.0466,-0.6966000000000001,175,75
2026-05-11 17:53:21.744,1,-3.1,-1.56,1.63,-133.4062,404.84659999999997,109.1234,175,75
2026-05-11 17:53:21.773,1,-1.38,-2.35,2.83,-244.0762,-4.293399999999998,123.14340000000001,175,75
2026-05-11 17:53:21.784,1,-1.62,-1.58,2.01,-352.2562,-117.8334,154.9134,175,75
2026-05-11 17:53:21.784,1,-1.8,-1.57,1.8,-351.82620000000003,-154.90339999999998,170.4034,175,75
2026-05-11 17:53:21.795,1,-2.01,-1.68,1.95,-317.3762,-127.9534,201.98340000000002,175,75
2026-05-11 17:53:21.821,1,-1.8,-1.26,2.27,-273.7762,-91.4934,253.26340000000002,175,75
2026-05-11 17:53:21.841,1,-1.64,-1.01,2.19,-238.1062,-85.0934,257.35339999999997,175,75
2026-05-11 17:53:21.904,1,-1.48,-0.84,1.98,-207.9262,-65.51339999999999,253.75340000000003,175,75
2026-05-11 17:53:21.916,1,-1.42,-0.69,1.81,-188.5362,-30.513399999999997,260.2134,175,75
2026-05-11 17:53:21.963,1,-1.22,-0.47,1.69,-167.6762,23.0766,281.98339999999996,175,75
2026-05-11 17:53:21.994,1,-0.99,-0.25,1.53,-156.7062,38.8766,280.0334,175,75
2026-05-11 17:53:21.994,1,-0.92,-0.07,1.44,-116.3362,85.3966,280.9534,175,75
2026-05-11 17:53:22.013,1,-0.71,-0.19,1.59,-81.3362,147.34660000000002,273.2034,175,75
2026-05-11 17:53:22.023,1,-0.48,-0.36,1.83,-69.6262,177.40660000000003,258.6934,175,75
2026-05-11 17:53:22.023,1,-0.13,-0.03,2.59,-16.336199999999998,46.4966,158.8134,175,75
2026-05-11 17:53:22.046,1,0.23,-1.35,0.46,-9.2662,199.5466,22.0434,175,75
