Time,ID,Ax,Ay,Az,Gx,Gy,Gz,Height,Weight
2026-05-09 17:13:33.587,1,-0.02,0.58,0.91,-91.5918,12.915,48.031800000000004,175,75
2026-05-09 17:13:33.587,1,0.02,0.57,1.14,-85.37180000000001,26.935000000000002,53.2718,175,75
2026-05-09 17:13:33.620,1,-0.04,0.53,0.89,-69.2818,34.565,59.73180000000001,175,75
2026-05-09 17:13:33.632,1,0.09,0.27,0.89,-65.3118,42.975,62.23180000000001,175,75
2026-05-09 17:13:33.645,1,0.08,0.02,0.81,-76.1718,24.744999999999997,69.6118,175,75
2026-05-09 17:13:33.662,1,0.09,0.12,0.62,-83.79180000000001,3.585000000000001,70.6518,175,75
2026-05-09 17:13:33.662,1,-0.04,0.2,0.66,-81.0518,12.365000000000002,80.7118,175,75
2026-05-09 17:13:33.720,1,-0.08,0.47,0.57,-64.8918,12.485,95.7118,175,75
2026-05-09 17:13:33.741,1,-0.17,0.42,0.54,-42.811800000000005,9.375,89.1918,175,75
2026-05-09 17:13:33.763,1,-0.36,0.5,0.6,8.70819999999999,22.795,64.9818,175,75
2026-05-09 17:13:33.763,1,-0.29,0.36,0.44,22.728199999999994,23.585,55.2218,175,75
2026-05-09 17:13:33.774,1,-0.24,0.23,0.34,34.19819999999999,23.895000000000003,45.041799999999995,175,75
2026-05-09 17:13:33.788,1,-0.28,0.12,0.24,47.978199999999994,16.145000000000003,27.7218,175,75
2026-05-09 17:13:33.802,1,-0.29,-0.11,0.12,57.548199999999994,16.325000000000003,9.1918,175,75
2026-05-09 17:13:33.814,1,-0.31,-0.53,0.01,78.4682,24.985,-24.4682,175,75
2026-05-09 17:13:33.847,1,-0.06,-1.64,0.65,112.0582,63.955000000000005,-30.3282,175,75
2026-05-09 17:13:33.859,1,0.44,-1.45,1.71,73.5282,68.035,42.171800000000005,175,75
2026-05-09 17:13:33.870,1,0.85,-1.47,1.87,61.87819999999999,2.7349999999999994,48.701800000000006,175,75
2026-05-09 17:13:33.890,1,0.75,-1.1,1.64,-4.581800000000008,-20.985,25.8318,175,75
2026-05-09 17:13:33.890,1,0.46,-0.67,1.23,12.188199999999995,115.475,-0.6881999999999984,175,75
2026-05-09 17:13:33.934,1,0.8,-0.3,1.6,-147.5718,88.58500000000001,72.5418,175,75
2026-05-09 17:13:33.947,1,0.15,-0.13,1.54,-212.39180000000002,126.45500000000001,90.7718,175,75
2026-05-09 17:13:33.960,1,-0.21,-0.45,1.48,-264.5218,83.155,141.0818,175,75
2026-05-09 17:13:33.966,1,-0.66,-1.27,1.03,-326.29179999999997,78.64500000000001,185.8318,175,75
2026-05-09 17:13:33.977,1,-0.12,-2.25,1.5,-318.18179999999995,133.215,189.1918,175,75
2026-05-09 17:13:33.987,1,0.48,-2.24,1.93,-290.3718,153.405,188.4518,175,75
2026-05-09 17:13:34.008,1,0.88,-1.45,2.18,-252.57180000000002,161.63500000000002,187.0518,175,75
2026-05-09 17:13:34.013,1,0.78,-1.1,1.89,-237.69180000000003,131.63500000000002,159.9218,175,75
2026-05-09 17:13:34.039,1,0.38,-1.04,1.4,-211.7818,129.315,133.9418,175,75
2026-05-09 17:13:34.056,1,0.27,-1.2,1.41,-170.1318,144.985,112.6618,175,75
2026-05-09 17:13:34.072,1,0.41,-1.1,1.68,-109.89180000000002,145.04500000000002,79.06179999999999,175,75
2026-05-09 17:13:34.083,1,0.61,-0.55,1.9,-35.8018,105.11500000000001,45.341800000000006,175,75
2026-05-09 17:13:34.088,1,0.65,-0.02,1.88,14.018199999999993,54.684999999999995,5.041800000000001,175,75
2026-05-09 17:13:34.102,1,0.54,0.48,1.76,59.80819999999999,30.295,-49.718199999999996,175,75
2026-05-09 17:13:34.125,1,0.64,0.97,1.79,203.6482,-0.625,-153.4382,175,75
2026-05-09 17:13:34.131,1,0.65,0.95,1.62,274.7482,-22.085,-198.8582,175,75
2026-05-09 17:13:34.160,1,0.49,0.46,1.28,393.15819999999997,-29.095,-258.5582,175,75
2026-05-09 17:13:34.160,1,0.4,0.17,1.22,436.32820000000004,-29.095,-277.02819999999997,175,75
2026-05-09 17:13:34.187,1,0.3,-0.23,1.16,522.1881999999999,-27.085,-301.60819999999995,175,75
2026-05-09 17:13:34.206,1,0.4,-0.33,1.26,544.7482,-43.855000000000004,-295.9982,175,75
2026-05-09 17:13:34.223,1,0.31,-0.43,1.16,549.7482,-84.465,-302.02819999999997,175,75
2026-05-09 17:13:34.227,1,0.15,-0.4,1.08,542.6682,-129.345,-294.46819999999997,175,75
2026-05-09 17:13:34.249,1,-0.23,-0.58,0.78,517.6082,-183.30499999999998,-290.1982,175,75
2026-05-09 17:13:34.250,1,-0.84,-0.62,0.09,468.58820000000003,-220.015,-283.67819999999995,175,75
2026-05-09 17:13:34.259,1,-2.18,-0.3,-1.48,340.9682,-193.30499999999998,-255.3882,175,75
2026-05-09 17:13:34.270,1,-2.61,0.16,-1.89,293.70820000000003,-178.73499999999999,-213.1282,175,75
2026-05-09 17:13:34.288,1,-3.21,0.59,-2.61,228.7682,-170.685,-157.3982,175,75
2026-05-09 17:13:34.311,1,-4.17,0.64,-2.54,191.2082,-23.855,38.5818,175,75
2026-05-09 17:13:34.323,1,-3.14,1.34,-2.97,88.88819999999998,-26.535,97.7818,175,75
2026-05-09 17:13:34.337,1,-2.32,-1.33,-4.23,-137.5718,141.085,208.4518,175,75
2026-05-09 17:13:34.354,1,0.53,-5.99,1.36,56.08819999999999,596.325,226.02179999999998,175,75
2026-05-09 17:13:34.379,1,-1.11,4.46,3.26,-326.59180000000003,20.045,193.0318,175,75
2026-05-09 17:13:34.390,1,-0.06,0.99,-0.1,-252.94180000000003,-200.075,151.3218,175,75
2026-05-09 17:13:34.399,1,-1.0,-0.62,-0.98,-199.64180000000002,10.785,177.3618,175,75
2026-05-09 17:13:34.413,1,-0.03,0.01,0.39,-184.95180000000002,66.32499999999999,165.9518,175,75
2026-05-09 17:13:34.425,1,-0.16,0.32,1.16,-190.3718,41.635,142.8418,175,75
2026-05-09 17:13:34.471,1,-0.17,0.12,0.6,-163.61180000000002,30.235,94.8618,175,75
2026-05-09 17:13:34.485,1,-0.26,0.03,0.62,-151.4718,36.875,81.0818,175,75
2026-05-09 17:13:34.496,1,-0.37,0.02,0.67,-125.4418,42.065,57.421800000000005,175,75
2026-05-09 17:13:34.506,1,-0.25,-0.11,0.57,-113.0618,45.175000000000004,47.781800000000004,175,75
2026-05-09 17:13:34.506,1,-0.31,-0.32,0.57,-95.92180000000002,49.684999999999995,36.931799999999996,175,75
2026-05-09 17:13:34.518,1,0.26,-0.91,0.24,-93.55180000000001,44.315,6.2018,175,75
2026-05-09 17:13:34.547,1,0.29,-1.3,0.19,-78.3618,28.215000000000003,-12.1582,175,75
2026-05-09 17:13:34.547,1,0.54,-1.52,0.34,-60.311800000000005,9.255000000000003,-9.168199999999999,175,75
2026-05-09 17:13:34.571,1,0.65,-1.72,0.59,-32.51180000000001,-7.754999999999999,4.431800000000001,175,75
2026-05-09 17:13:34.571,1,0.86,-1.83,1.02,-4.951800000000006,-11.174999999999999,15.7718,175,75
2026-05-09 17:13:34.582,1,1.07,-2.11,1.71,-0.011800000000008026,-2.2650000000000006,29.9218,175,75
2026-05-09 17:13:34.614,1,1.29,-2.28,1.9,-22.631800000000013,84.565,-29.8982,175,75
2026-05-09 17:13:34.637,1,1.17,-0.91,2.8,-11.351800000000004,123.95500000000001,-24.048199999999998,175,75
2026-05-09 17:13:34.647,1,0.63,-0.39,2.94,-52.6918,62.305,-6.058199999999999,175,75
2026-05-09 17:13:34.662,1,0.47,-0.89,2.33,-131.4718,22.365000000000002,5.591800000000001,175,75
2026-05-09 17:13:34.668,1,-0.69,-0.29,2.14,-241.2318,-47.995,85.0418,175,75
2026-05-09 17:13:34.683,1,-0.47,-1.37,0.49,-362.5118,-132.385,182.2318,175,75
2026-05-09 17:13:34.694,1,0.77,-1.72,1.12,-324.22180000000003,57.365,152.7818,175,75
2026-05-09 17:13:34.719,1,1.39,-1.52,2.76,-248.18179999999998,182.91500000000002,142.5418,175,75
2026-05-09 17:13:34.719,1,1.19,-0.81,2.66,-244.4618,200.115,138.64180000000002,175,75
2026-05-09 17:13:34.731,1,0.9,-0.67,2.68,-211.17180000000002,207.85500000000002,118.7618,175,75
2026-05-09 17:13:34.743,1,0.88,-0.81,2.87,-182.9418,172.485,102.42179999999999,175,75
2026-05-09 17:13:34.755,1,0.85,-0.91,3.0,-163.55180000000001,145.965,87.7218,175,75
2026-05-09 17:13:34.766,1,0.88,-0.93,3.06,-139.0318,106.025,69.7318,175,75
2026-05-09 17:13:34.766,1,0.81,-0.85,2.92,-105.62180000000001,51.025,45.4118,175,75
2026-05-09 17:13:34.777,1,0.65,-0.7,2.64,-63.9718,20.845,17.4218,175,75
2026-05-09 17:13:34.788,1,0.37,-0.46,2.36,-13.731800000000007,9.505000000000003,-13.5582,175,75
2026-05-09 17:13:34.814,1,0.18,-0.34,2.16,39.37819999999999,10.535,-54.5282,175,75
2026-05-09 17:13:34.825,1,0.11,-0.29,2.09,92.6082,17.064999999999998,-102.82820000000001,175,75
2026-05-09 17:13:34.825,1,0.05,0.13,2.17,153.2782,30.965000000000003,-163.3082,175,75
2026-05-09 17:13:34.839,1,0.16,0.58,2.21,228.5882,1.4550000000000018,-194.2882,175,75
2026-05-09 17:13:34.867,1,-0.01,0.41,1.73,349.9882,-61.175,-284.5882,175,75
2026-05-09 17:13:34.913,1,0.19,-0.18,1.27,429.80819999999994,-95.435,-353.79819999999995,175,75
2026-05-09 17:13:34.925,1,0.13,-0.31,1.55,457.18819999999994,-137.025,-384.8382,175,75
2026-05-09 17:13:34.935,1,-0.59,-0.35,0.53,509.0182,-88.67500000000001,-378.79819999999995,175,75
2026-05-09 17:13:34.946,1,-0.54,-0.4,1.43,619.4381999999999,15.715000000000003,-330.1382,175,75
2026-05-09 17:13:34.974,1,-1.97,-1.1,-0.33,529.0782,-259.955,-273.1282,175,75
2026-05-09 17:13:34.999,1,-2.45,-1.18,-1.02,458.52819999999997,-336.535,-221.47820000000002,175,75
2026-05-09 17:13:34.999,1,-3.13,-1.11,-1.58,397.1282,-361.96500000000003,-185.1982,175,75
2026-05-09 17:13:35.027,1,-4.26,-0.04,-4.22,196.0882,-132.935,2.4818000000000016,175,75
2026-05-09 17:13:35.033,1,-3.67,0.37,-3.62,142.6682,81.875,64.6718,175,75
2026-05-09 17:13:35.046,1,-2.75,0.54,-3.67,14.198199999999993,62.915,106.3818,175,75
2026-05-09 17:13:35.056,1,-2.63,0.01,-4.11,-131.8418,-29.284999999999997,144.6118,175,75
2026-05-09 17:13:35.082,1,-2.01,4.75,2.97,-612.6318,-178.975,366.8718,175,75
2026-05-09 17:13:35.092,1,0.73,8.35,-0.15,-555.0718,-322.14500000000004,78.7618,175,75
2026-05-09 17:13:35.139,1,-0.06,-0.5,0.76,-140.80180000000001,-10.625,59.73180000000001,175,75
2026-05-09 17:13:35.149,1,0.12,-0.71,0.23,-104.95180000000002,6.395,22.7818,175,75
2026-05-09 17:13:35.162,1,0.53,-1.23,0.43,-63.671800000000005,14.564999999999998,2.421800000000001,175,75
2026-05-09 17:13:35.162,1,0.67,-1.59,0.87,-48.061800000000005,4.865000000000002,-17.3382,175,75
2026-05-09 17:13:35.175,1,0.74,-1.8,1.23,-43.3618,2.245000000000001,-22.278200000000002,175,75
2026-05-09 17:13:35.191,1,0.76,-2.15,1.56,-34.341800000000006,15.594999999999999,-17.9482,175,75
2026-05-09 17:13:35.213,1,1.57,-1.57,2.35,28.52819999999999,110.475,-12.7682,175,75
2026-05-09 17:13:35.213,1,1.09,-0.12,2.0,8.468199999999996,14.805,-9.1082,175,75
2026-05-09 17:13:35.235,1,-1.45,-0.37,0.04,-175.6818,-19.345,95.7718,175,75
2026-05-09 17:13:35.248,1,-1.37,-1.32,-0.94,-304.6418,-0.9849999999999994,142.8418,175,75
2026-05-09 17:13:35.260,1,-1.17,-2.01,-1.07,-354.58180000000004,174.685,199.9818,175,75
2026-05-09 17:13:35.290,1,-0.7,-2.17,1.13,-431.72180000000003,241.395,222.8418,175,75
2026-05-09 17:13:35.305,1,-0.23,-2.2,1.45,-429.0318,235.475,230.1618,175,75
2026-05-09 17:13:35.331,1,0.17,-1.58,1.92,-451.2318,153.525,207.7818,175,75
2026-05-09 17:13:35.342,1,0.27,-1.31,1.92,-455.07180000000005,117.85500000000002,199.5518,175,75
2026-05-09 17:13:35.358,1,0.38,-1.06,2.04,-448.7318,96.14500000000001,200.0418,175,75
2026-05-09 17:13:35.386,1,0.91,-0.16,2.9,-408.1218,56.395,205.5918,175,75
2026-05-09 17:13:35.399,1,1.33,0.13,3.6,-364.7718,49.805,190.0418,175,75
2026-05-09 17:13:35.409,1,1.56,0.23,4.01,-329.16179999999997,23.825000000000003,164.9818,175,75
2026-05-09 17:13:35.410,1,1.77,0.1,4.44,-285.19180000000006,8.095000000000002,120.6518,175,75
2026-05-09 17:13:35.423,1,1.85,-0.1,4.76,-218.5518,28.095,76.3218,175,75
2026-05-09 17:13:35.433,1,2.01,-0.2,5.08,-120.92180000000002,12.915,24.3718,175,75
2026-05-09 17:13:35.448,1,1.97,-0.49,5.0,-24.8318,-2.2049999999999983,-27.8882,175,75
2026-05-09 17:13:35.465,1,1.76,-0.55,4.58,143.82819999999998,-29.284999999999997,-134.0482,175,75
2026-05-09 17:13:35.477,1,1.57,-0.49,4.32,228.7082,-66.905,-196.6082,175,75
2026-05-09 17:13:35.508,1,1.22,-0.7,3.79,331.32820000000004,-122.08500000000001,-290.8782,175,75
2026-05-09 17:13:35.508,1,0.88,-1.24,3.39,413.7682,-159.64499999999998,-369.52819999999997,175,75
2026-05-09 17:13:35.520,1,0.46,-2.0,3.18,483.6482,-191.715,-441.72819999999996,175,75
2026-05-09 17:13:35.532,1,-0.67,-3.75,2.31,585.3582,-218.915,-546.5482,175,75
2026-05-09 17:13:35.556,1,-1.64,-4.87,0.61,662.1282,-58.675,-556.3582,175,75
2026-05-09 17:13:35.569,1,-1.32,-5.19,0.24,723.0982,41.395,-524.6582,175,75
2026-05-09 17:13:35.581,1,-1.12,-5.66,0.08,782.6682,66.57499999999999,-483.79819999999995,175,75
2026-05-09 17:13:35.596,1,-0.87,-6.3,0.82,849.1382,51.26500000000001,-407.27819999999997,175,75
2026-05-09 17:13:35.613,1,-0.62,-7.25,1.35,852.1282,-19.095,-381.29819999999995,175,75
2026-05-09 17:13:35.650,1,-1.74,-9.8,0.74,785.8381999999999,-188.245,-274.5882,175,75
2026-05-09 17:13:35.674,1,-1.78,-8.61,0.09,686.8782,-174.155,-256.96819999999997,175,75
2026-05-09 17:13:35.674,1,-1.14,-6.3,0.18,634.2582,-154.95499999999998,-216.72820000000002,175,75
2026-05-09 17:13:35.697,1,-0.71,-3.82,-0.12,431.5182,-254.155,-198.3782,175,75
2026-05-09 17:13:35.708,1,-1.06,-2.79,-0.44,367.4882,-255.685,-174.8982,175,75
2026-05-09 17:13:35.721,1,-1.46,-1.82,-1.1,282.4882,-207.575,-145.1382,175,75
2026-05-09 17:13:35.732,1,-1.33,-0.37,-1.41,182.85819999999998,-124.465,-93.9782,175,75
2026-05-09 17:13:35.744,1,-0.99,0.24,-1.32,115.7182,-63.425,-44.048199999999994,175,75
2026-05-09 17:13:35.744,1,-0.68,0.42,-0.81,41.02819999999999,-7.145,-12.2182,175,75
2026-05-09 17:13:35.756,1,-0.55,0.7,-0.13,8.098199999999991,-7.264999999999999,-2.578199999999999,175,75
2026-05-09 17:13:35.767,1,-0.49,0.86,0.37,-13.671800000000005,-51.045,18.1518,175,75
2026-05-09 17:13:35.785,1,-0.47,0.76,0.44,-20.311800000000005,-124.465,22.9718,175,75
2026-05-09 17:13:35.821,1,-1.01,1.28,-0.03,-4.8918000000000035,-161.105,18.3918,175,75
2026-05-09 17:13:35.847,1,-1.09,1.2,-0.24,-9.831800000000008,-10.805,65.1618,175,75
2026-05-09 17:13:35.863,1,-0.96,1.06,-0.12,-16.661800000000007,37.425000000000004,76.9318,175,75
2026-05-09 17:13:35.874,1,-0.8,0.94,0.08,-27.201800000000006,80.475,91.56179999999999,175,75
2026-05-09 17:13:35.887,1,-0.54,0.81,0.36,-44.8918,116.26500000000001,107.7818,175,75
2026-05-09 17:13:35.909,1,-0.26,0.7,0.68,-65.9218,135.41500000000002,115.7718,175,75
2026-05-09 17:13:35.932,1,0.24,0.48,1.21,-99.70180000000002,85.535,135.9518,175,75
2026-05-09 17:13:35.942,1,0.41,0.47,1.34,-110.86180000000002,56.815000000000005,140.9518,175,75
2026-05-09 17:13:35.965,1,0.74,0.56,1.54,-126.4118,15.535000000000004,146.4418,175,75
2026-05-09 17:13:35.977,1,0.87,0.6,1.58,-131.2318,-6.104999999999999,145.2818,175,75
2026-05-09 17:13:36.014,1,1.52,0.8,2.06,-108.24180000000001,-61.655,106.9318,175,75
2026-05-09 17:13:36.027,1,1.52,0.69,2.01,-115.0718,-82.38499999999999,104.4318,175,75
2026-05-09 17:13:36.051,1,1.65,0.58,2.12,-108.9118,-130.98499999999999,82.23179999999999,175,75
2026-05-09 17:13:36.064,1,1.68,0.55,2.12,-103.73179999999999,-140.255,69.37180000000001,175,75
2026-05-09 17:13:36.074,1,1.46,0.47,2.1,-99.64180000000002,-134.095,59.1318,175,75
2026-05-09 17:13:36.085,1,1.36,0.23,2.03,-93.9718,-127.025,51.3818,175,75
2026-05-09 17:13:36.096,1,1.28,-0.32,1.87,-91.96180000000001,-150.80499999999998,35.8918,175,75
2026-05-09 17:13:36.107,1,1.13,-0.75,1.76,-93.61180000000002,-144.095,25.2218,175,75
2026-05-09 17:13:36.123,1,1.08,-1.12,1.61,-89.2818,-86.04499999999999,49.6118,175,75
2026-05-09 17:13:36.134,1,1.2,-0.35,1.7,-82.87180000000001,-52.144999999999996,54.4918,175,75
2026-05-09 17:13:36.152,1,0.99,-0.25,1.7,-68.5518,-31.655,47.3018,175,75
2026-05-09 17:13:36.159,1,0.76,-0.49,1.74,-49.341800000000006,-3.3049999999999997,42.7218,175,75
2026-05-09 17:13:36.171,1,0.61,-0.71,1.63,-41.90180000000001,2.6750000000000007,44.98180000000001,175,75
2026-05-09 17:13:36.195,1,0.27,-0.76,1.08,-44.8918,37.305,53.6418,175,75
2026-05-09 17:13:36.195,1,0.08,-0.54,0.92,-51.35180000000001,60.115,56.6318,175,75
2026-05-09 17:13:36.234,1,-0.19,-0.24,0.96,-81.2318,19.195,100.2218,175,75
2026-05-09 17:13:36.245,1,-0.38,0.02,0.88,-113.48179999999999,-49.825,122.0518,175,75
2026-05-09 17:13:36.255,1,-0.4,0.62,0.67,-139.2818,-101.41499999999999,144.0618,175,75
2026-05-09 17:13:36.266,1,1.39,0.16,0.38,-161.2918,-52.755,117.23179999999999,175,75
2026-05-09 17:13:36.266,1,3.05,-0.57,1.35,-143.1218,-34.095,86.20179999999999,175,75
2026-05-09 17:13:36.288,1,1.64,-0.62,2.81,-124.95180000000002,-14.704999999999998,52.6018,175,75
2026-05-09 17:13:36.299,1,-0.52,-1.71,2.51,-97.45180000000002,-19.154999999999998,69.0618,175,75
2026-05-09 17:13:36.310,1,-1.84,-3.86,1.05,-176.17180000000002,-144.405,166.0818,175,75
2026-05-09 17:13:36.313,1,-0.48,-2.59,-0.79,-338.6118,-76.045,265.8918,175,75
2026-05-09 17:13:36.325,1,1.24,2.81,0.33,-204.7718,58.214999999999996,320.53180000000003,175,75
2026-05-09 17:13:36.336,1,-1.22,2.64,0.7,-95.4418,1.1449999999999996,181.2618,175,75
2026-05-09 17:13:36.349,1,-0.52,-1.26,0.43,-140.5618,86.51500000000001,217.9718,175,75
2026-05-09 17:13:36.360,1,0.03,0.54,1.07,-166.5918,60.415,183.27179999999998,175,75
2026-05-09 17:13:36.373,1,0.14,0.15,1.21,-179.95180000000002,26.325000000000003,139.5518,175,75
2026-05-09 17:13:36.387,1,0.12,-0.37,0.75,-207.08180000000002,-30.134999999999998,117.3018,175,75
2026-05-09 17:13:36.397,1,-0.26,0.18,0.65,-207.39180000000002,-13.485,110.7118,175,75
2026-05-09 17:13:36.402,1,-0.06,0.45,0.54,-189.64180000000002,-10.985,95.1618,175,75
2026-05-09 17:13:36.423,1,0.13,0.18,0.35,-172.5118,-5.984999999999999,79.98179999999999,175,75
2026-05-09 17:13:36.436,1,0.01,0.22,0.42,-156.5318,-0.8649999999999984,71.6318,175,75
2026-05-09 17:13:36.452,1,-0.15,0.19,0.41,-124.40180000000001,21.325000000000003,58.2118,175,75
2026-05-09 17:13:36.465,1,0.01,0.01,0.3,-96.23179999999999,24.564999999999998,39.7318,175,75
2026-05-09 17:13:36.487,1,-0.01,-0.2,0.32,-60.8018,20.175000000000004,-1.7881999999999998,175,75
2026-05-09 17:13:36.499,1,0.17,-0.78,0.04,-43.0018,37.305,-30.9382,175,75
2026-05-09 17:13:36.499,1,0.48,-1.19,0.05,-14.341800000000006,20.535000000000004,-51.238200000000006,175,75
2026-05-09 17:13:36.510,1,0.7,-1.73,0.36,13.588199999999993,-7.204999999999998,-54.65820000000001,175,75
2026-05-09 17:13:36.545,1,1.11,-2.2,1.15,23.648199999999992,-52.205,-28.618199999999998,175,75
2026-05-09 17:13:36.545,1,1.34,-2.68,1.67,26.208199999999994,-35.565,-27.028200000000002,175,75
2026-05-09 17:13:36.556,1,1.28,-2.49,2.15,28.468199999999996,42.855000000000004,-68.3682,175,75
2026-05-09 17:13:36.560,1,1.63,-0.84,2.55,69.5582,84.315,-74.04820000000001,175,75
2026-05-09 17:13:36.573,1,0.91,-0.2,2.31,35.16819999999999,4.015000000000001,-77.0282,175,75
2026-05-09 17:13:36.584,1,0.02,0.15,1.83,-67.3918,-37.265,22.6618,175,75
2026-05-09 17:13:36.595,1,0.45,-0.19,1.48,-161.6618,-73.425,52.841800000000006,175,75
2026-05-09 17:13:36.595,1,0.49,0.3,1.41,-232.2718,-114.88499999999999,47.9118,175,75
2026-05-09 17:13:36.610,1,0.08,-0.24,0.81,-310.5018,-159.70499999999998,112.6018,175,75
2026-05-09 17:13:36.622,1,1.01,-1.09,0.91,-353.67179999999996,-85.255,99.1318,175,75
2026-05-09 17:13:36.638,1,1.22,-1.44,1.83,-325.0118,59.37500000000001,101.9318,175,75
2026-05-09 17:13:36.653,1,1.25,-1.36,2.53,-288.67179999999996,133.76500000000001,86.3818,175,75
2026-05-09 17:13:36.686,1,0.67,-0.38,2.78,-195.7418,198.465,49.921800000000005,175,75
2026-05-09 17:13:36.698,1,0.56,-0.51,3.09,-144.2218,149.985,26.501800000000003,175,75
2026-05-09 17:13:36.708,1,0.39,-0.6,3.01,-123.48179999999999,111.57500000000002,14.921800000000001,175,75
2026-05-09 17:13:36.735,1,0.0,-0.69,2.54,-83.12180000000001,33.585,-44.048199999999994,175,75
2026-05-09 17:13:36.755,1,-0.33,-0.85,2.26,-50.07180000000001,-16.044999999999998,-105.32820000000001,175,75
2026-05-09 17:13:36.766,1,-0.54,-0.94,2.29,2.428199999999997,-44.765,-159.7782,175,75
2026-05-09 17:13:36.794,1,-1.17,0.36,2.21,150.1682,-265.625,-258.1282,175,75
2026-05-09 17:13:36.806,1,-1.3,0.31,1.54,194.9282,-285.375,-297.6382,175,75
2026-05-09 17:13:36.806,1,-1.3,0.17,0.89,238.4082,-217.025,-328.5582,175,75
2026-05-09 17:13:36.817,1,-1.31,0.21,0.84,273.8282,-136.045,-345.6282,175,75
2026-05-09 17:13:36.828,1,-1.33,0.39,1.53,332.1282,-59.705,-343.97819999999996,175,75
2026-05-09 17:13:36.840,1,-1.08,-0.03,1.59,423.03819999999996,-126.29499999999999,-341.23819999999995,175,75
2026-05-09 17:13:36.864,1,-1.15,-0.12,1.4,492.2482,-78.245,-332.7682,175,75
2026-05-09 17:13:36.875,1,-0.85,-0.21,1.9,506.02819999999997,-89.88499999999999,-322.27819999999997,175,75
2026-05-09 17:13:36.889,1,-1.29,-0.31,1.48,500.04819999999995,-142.205,-305.3882,175,75
2026-05-09 17:13:36.900,1,-1.56,-0.69,1.17,512.9182,-143.915,-287.9482,175,75
2026-05-09 17:13:36.936,1,-2.53,-1.33,-0.95,411.93819999999994,-292.755,-218.3782,175,75
2026-05-09 17:13:36.951,1,-3.04,-1.56,-1.65,374.43819999999994,-323.365,-179.7182,175,75
2026-05-09 17:13:36.962,1,-3.36,-1.47,-2.16,334.0182,-332.57500000000005,-92.57820000000001,175,75
2026-05-09 17:13:36.983,1,-3.42,-0.5,-2.6,246.9982,-247.875,-14.2882,175,75
2026-05-09 17:13:36.996,1,-3.11,0.3,-2.84,143.0982,-94.58500000000001,32.421800000000005,175,75
2026-05-09 17:13:37.006,1,-1.63,0.73,-3.21,51.148199999999996,-128.425,112.84179999999999,175,75
2026-05-09 17:13:37.028,1,-2.24,-2.2,-3.03,-292.2718,-102.32499999999999,236.3218,175,75
2026-05-09 17:13:37.051,1,-2.96,-8.4,0.09,-124.1618,309.86499999999995,281.02180000000004,175,75
2026-05-09 17:13:37.071,1,5.83,-1.77,4.88,-397.81180000000006,163.095,359.4918,175,75
2026-05-09 17:13:37.082,1,-1.85,3.97,3.2,-478.55180000000007,-297.14500000000004,292.3618,175,75
2026-05-09 17:13:37.082,1,1.06,6.21,0.37,-286.66179999999997,-296.535,143.4518,175,75
2026-05-09 17:13:37.105,1,-0.38,-1.04,-2.04,-220.31180000000003,79.505,135.83180000000002,175,75
2026-05-09 17:13:37.122,1,-0.44,0.96,-0.13,-125.62180000000001,140.535,194.6118,175,75
2026-05-09 17:13:37.122,1,0.26,0.33,1.13,-109.1618,80.04499999999999,126.1418,175,75
2026-05-09 17:13:37.133,1,-0.2,-0.12,1.37,-119.58180000000002,53.154999999999994,83.0318,175,75
2026-05-09 17:13:37.144,1,0.1,-0.41,0.92,-135.92180000000002,-8.245,86.56179999999999,175,75
2026-05-09 17:13:37.156,1,0.03,-0.08,0.43,-130.9818,-41.905,69.0018,175,75
2026-05-09 17:13:37.173,1,-0.43,-0.27,0.35,-87.39180000000002,-17.205,48.2718,175,75
2026-05-09 17:13:37.185,1,0.38,-1.1,0.36,-53.3018,-14.954999999999998,0.7118000000000002,175,75
2026-05-09 17:13:37.194,1,0.74,-1.38,0.46,-40.2518,-43.485,2.0518,175,75
2026-05-09 17:13:37.205,1,0.86,-1.56,0.67,-14.641800000000003,-59.345,15.5318,175,75
2026-05-09 17:13:37.226,1,1.24,-1.81,1.09,-1.9018000000000086,19.985,21.4418,175,75
2026-05-09 17:13:37.238,1,1.46,-1.97,1.86,18.648199999999992,72.67500000000001,4.861800000000001,175,75
2026-05-09 17:13:37.247,1,1.8,-1.28,2.63,54.92819999999999,60.845000000000006,5.041800000000001,175,75
2026-05-09 17:13:37.270,1,1.2,-0.16,2.21,-20.741800000000012,-73.91499999999999,7.361800000000001,175,75
2026-05-09 17:13:37.281,1,0.06,-0.41,1.21,-137.6318,-94.76499999999999,58.5818,175,75
2026-05-09 17:13:37.281,1,-0.14,-0.03,0.82,-215.9218,-48.735,103.70179999999999,175,75
2026-05-09 17:13:37.292,1,0.16,-0.34,0.68,-272.6318,-11.105,131.2618,175,75
2026-05-09 17:13:37.303,1,0.78,-1.38,1.2,-311.59180000000003,215.115,135.0418,175,75
2026-05-09 17:13:37.339,1,1.4,-0.38,3.09,-224.4018,199.985,97.84179999999999,175,75
2026-05-09 17:13:37.363,1,1.23,-0.27,3.05,-180.4418,166.815,67.9718,175,75
2026-05-09 17:13:37.363,1,1.03,-0.43,3.0,-143.30180000000001,142.005,42.0518,175,75
2026-05-09 17:13:37.374,1,0.92,-0.53,3.01,-123.30180000000001,124.01500000000001,22.4818,175,75
2026-05-09 17:13:37.431,1,0.83,-0.63,3.0,-111.6618,100.535,10.1018,175,75
2026-05-09 17:13:37.431,1,0.72,-0.7,2.94,-87.7518,59.195,-11.1782,175,75
2026-05-09 17:13:37.431,1,0.59,-0.57,2.79,-52.87180000000001,12.425,-37.0882,175,75
2026-05-09 17:13:37.434,1,0.39,-0.34,2.56,-3.6718000000000046,-37.144999999999996,-69.04820000000001,175,75
2026-05-09 17:13:37.446,1,0.29,-0.25,2.38,33.70819999999999,-61.475,-89.04820000000001,175,75
2026-05-09 17:13:37.457,1,0.32,-0.12,2.29,70.0482,-73.60499999999999,-113.79820000000001,175,75
2026-05-09 17:13:37.469,1,0.31,0.16,2.19,104.8682,-92.815,-142.2782,175,75
2026-05-09 17:13:37.479,1,0.16,0.37,1.96,146.32819999999998,-105.13499999999999,-183.7382,175,75
2026-05-09 17:13:37.479,1,0.04,0.36,1.83,188.5282,-112.995,-220.50820000000002,175,75
2026-05-09 17:13:37.502,1,-0.18,0.27,1.53,281.5182,-127.995,-276.47819999999996,175,75
2026-05-09 17:13:37.513,1,-0.17,0.12,1.34,323.82820000000004,-133.915,-297.4582,175,75
2026-05-09 17:13:37.513,1,-0.1,0.06,1.21,367.3682,-107.38499999999999,-318.85819999999995,175,75
2026-05-09 17:13:37.524,1,-0.2,-0.02,1.2,412.18819999999994,-109.035,-325.3882,175,75
2026-05-09 17:13:37.569,1,-1.41,-1.05,0.85,399.68819999999994,-306.785,-273.6182,175,75
2026-05-09 17:13:37.577,1,-2.45,-0.96,0.32,345.41819999999996,-420.195,-263.0682,175,75
2026-05-09 17:13:37.588,1,-3.63,-0.82,-0.43,270.53819999999996,-466.535,-223.1882,175,75
2026-05-09 17:13:37.614,1,-4.22,-0.2,-2.09,127.0582,-270.745,-74.9582,175,75
2026-05-09 17:13:37.627,1,-3.71,0.67,-2.28,114.92819999999999,-126.785,0.6518000000000015,175,75
2026-05-09 17:13:37.653,1,-6.88,1.3,-3.5,100.9682,-5.924999999999999,156.99179999999998,175,75
2026-05-09 17:13:37.653,1,-6.55,-4.94,-6.82,-164.95180000000002,-611.175,385.47180000000003,175,75
2026-05-09 17:13:37.667,1,4.86,-6.16,0.61,155.5382,757.735,410.34180000000003,175,75
2026-05-09 17:13:37.682,1,0.24,1.16,2.81,-254.0918,-14.094999999999999,231.5018,175,75
2026-05-09 17:13:37.695,1,-1.51,2.74,2.26,-296.17179999999996,55.355,307.9118,175,75
2026-05-09 17:13:37.695,1,1.35,-0.29,1.87,-263.42179999999996,-17.145,176.2018,175,75
2026-05-09 17:13:37.721,1,-0.63,-0.6,-0.11,-251.5318,-170.255,134.1918,175,75
2026-05-09 17:13:37.735,1,-0.36,0.09,0.26,-63.73180000000001,-7.875,81.20179999999999,175,75
2026-05-09 17:13:37.749,1,0.14,-0.31,0.51,-32.6918,-19.585,61.3818,175,75
2026-05-09 17:13:37.759,1,-0.12,-0.52,0.48,13.468199999999992,-37.875,29.3718,175,75
2026-05-09 17:13:37.771,1,0.02,-0.77,0.25,41.578199999999995,-26.535,-2.6982,175,75
2026-05-09 17:13:37.792,1,0.37,-1.33,0.28,72.7982,-33.915,-27.3982,175,75
2026-05-09 17:13:37.804,1,0.58,-1.81,0.61,112.8582,-2.634999999999998,-31.728199999999998,175,75
2026-05-09 17:13:37.815,1,0.9,-2.6,1.36,105.22819999999999,66.08500000000001,-0.32819999999999894,175,75
2026-05-09 17:13:37.825,1,1.58,-2.92,2.11,40.478199999999994,156.51500000000001,1.1418,175,75
2026-05-09 17:13:37.839,1,1.67,-0.74,2.31,148.88819999999998,251.81500000000003,-34.468199999999996,175,75
2026-05-09 17:13:37.849,1,2.28,0.06,2.34,130.4182,178.525,-25.9382,175,75
2026-05-09 17:13:37.860,1,0.29,0.68,1.44,47.2482,-10.745,-40.4482,175,75
2026-05-09 17:13:37.860,1,-1.56,0.03,-0.48,-115.4418,-32.995,60.7718,175,75
2026-05-09 17:13:37.872,1,-1.14,0.25,-0.96,-237.69180000000003,23.705,161.4418,175,75
2026-05-09 17:13:37.885,1,-1.13,0.14,-0.29,-261.72180000000003,193.585,176.9318,175,75
2026-05-09 17:13:37.897,1,0.43,-0.47,0.93,-291.9018,191.51500000000001,194.0018,175,75
2026-05-09 17:13:37.908,1,0.32,-0.92,1.23,-318.42179999999996,187.425,181.1418,175,75
2026-05-09 17:13:37.921,1,0.11,-0.86,0.69,-341.2318,208.095,176.2018,175,75
2026-05-09 17:13:37.932,1,0.16,-1.01,0.97,-316.47180000000003,294.92499999999995,163.9418,175,75
2026-05-09 17:13:37.958,1,1.0,-0.96,2.96,-296.3518,360.78499999999997,152.8418,175,75
2026-05-09 17:13:37.965,1,1.38,-0.35,3.65,-285.9818,252.48499999999999,139.49179999999998,175,75
2026-05-09 17:13:37.971,1,1.5,0.75,3.23,-257.8718,90.965,108.3918,175,75
2026-05-09 17:13:37.991,1,1.42,1.23,2.9,-230.8018,44.075,98.2118,175,75
2026-05-09 17:13:38.003,1,1.54,1.54,3.04,-198.0618,40.045,73.0918,175,75
2026-05-09 17:13:38.013,1,1.74,1.51,3.51,-145.1318,46.51500000000001,29.1218,175,75
2026-05-09 17:13:38.025,1,1.79,1.23,3.62,-98.7918,-17.755,-7.578199999999999,175,75
2026-05-09 17:13:38.038,1,1.62,0.94,3.53,-59.46180000000001,-50.864999999999995,-44.658199999999994,175,75
2026-05-09 17:13:38.050,1,1.57,0.46,3.83,-2.571800000000003,-86.475,-90.9982,175,75
2026-05-09 17:13:38.098,1,0.61,-1.38,2.88,78.6482,-107.45500000000001,-125.9382,175,75
2026-05-09 17:13:38.120,1,0.14,-2.07,2.65,136.32819999999998,-1.2349999999999994,-144.7182,175,75
2026-05-09 17:13:38.133,1,0.01,-1.96,2.8,192.66819999999998,3.3450000000000024,-149.1682,175,75
2026-05-09 17:13:38.144,1,-0.12,-2.27,2.79,258.52819999999997,-33.364999999999995,-161.47820000000002,175,75
2026-05-09 17:13:38.166,1,-0.41,-2.92,2.45,283.8282,-69.215,-181.8482,175,75
2026-05-09 17:13:38.179,1,-0.62,-3.06,1.29,325.29819999999995,-82.205,-200.9382,175,75
2026-05-09 17:13:38.186,1,-0.7,-3.14,1.0,394.43819999999994,-51.845,-207.0282,175,75
2026-05-09 17:13:38.203,1,-0.39,-3.93,1.06,477.05819999999994,-88.185,-233.5582,175,75
2026-05-09 17:13:38.244,1,-0.22,-4.58,0.58,505.9682,-138.545,-293.3082,175,75
2026-05-09 17:13:38.259,1,-0.05,-4.5,0.66,509.0182,-149.58499999999998,-309.9582,175,75
2026-05-09 17:13:38.280,1,-0.16,-4.53,0.91,507.7282,-193.245,-318.0682,175,75
2026-05-09 17:13:38.291,1,-0.38,-4.44,0.8,483.94820000000004,-211.045,-309.77819999999997,175,75
2026-05-09 17:13:38.312,1,-0.8,-4.08,0.52,449.31820000000005,-200.745,-303.4982,175,75
2026-05-09 17:13:38.312,1,-1.26,-3.69,0.25,429.43819999999994,-152.755,-292.27819999999997,175,75
2026-05-09 17:13:38.322,1,-1.56,-2.69,0.17,428.52819999999997,-124.525,-279.8382,175,75
2026-05-09 17:13:38.340,1,-1.54,-1.23,0.19,348.40819999999997,-125.13499999999999,-204.6582,175,75
2026-05-09 17:13:38.345,1,-1.75,-0.96,-0.12,285.53819999999996,-168.185,-178.4982,175,75
2026-05-09 17:13:38.386,1,-1.55,0.72,-1.52,143.82819999999998,-82.145,-88.6182,175,75
2026-05-09 17:13:38.391,1,-1.48,1.08,-1.35,100.1082,-0.7449999999999974,-72.2782,175,75
2026-05-09 17:13:38.416,1,-1.49,1.14,-0.84,38.52819999999999,81.20500000000001,-40.26819999999999,175,75
2026-05-09 17:13:38.416,1,-1.3,1.01,-0.52,24.628199999999993,98.64500000000001,-24.528200000000002,175,75
2026-05-09 17:13:38.428,1,-1.15,0.98,-0.44,12.728199999999994,91.45500000000001,-6.298199999999998,175,75
2026-05-09 17:13:38.439,1,-1.06,1.01,-0.37,-0.0718000000000032,96.26500000000001,11.751800000000001,175,75
2026-05-09 17:13:38.450,1,-0.8,0.91,-0.1,-16.661800000000007,94.375,27.541800000000002,175,75
2026-05-09 17:13:38.461,1,-0.66,0.79,0.08,-30.131800000000013,78.89500000000001,31.8118,175,75
2026-05-09 17:13:38.484,1,-0.33,0.85,0.52,-42.1418,41.265,49.1918,175,75
2026-05-09 17:13:38.496,1,-0.22,0.86,0.62,-47.6918,27.485,57.3018,175,75
2026-05-09 17:13:38.501,1,-0.13,0.85,0.67,-52.3918,22.365000000000002,64.4918,175,75
2026-05-09 17:13:38.515,1,-0.06,0.83,0.73,-58.12180000000001,18.705,70.5318,175,75
2026-05-09 17:13:38.528,1,0.05,0.85,0.85,-63.061800000000005,20.785000000000004,77.6618,175,75
2026-05-09 17:13:38.562,1,0.41,0.84,1.23,-79.0318,22.855000000000004,98.5218,175,75
2026-05-09 17:13:38.582,1,0.64,0.79,1.42,-86.90180000000001,8.825,100.59179999999999,175,75
2026-05-09 17:13:38.593,1,0.78,0.79,1.53,-87.9418,5.715,100.7118,175,75
2026-05-09 17:13:38.593,1,0.92,0.81,1.67,-87.08180000000002,-1.7850000000000001,100.34179999999999,175,75
2026-05-09 17:13:38.618,1,1.04,0.84,1.84,-84.2818,-17.634999999999998,94.8618,175,75
2026-05-09 17:13:38.629,1,1.1,0.87,1.9,-83.0018,-35.435,90.8318,175,75
2026-05-09 17:13:38.629,1,1.16,0.85,1.9,-81.1118,-49.405,85.7718,175,75
2026-05-09 17:13:38.642,1,1.26,0.74,1.89,-75.5618,-54.155,71.5618,175,75
2026-05-09 17:13:38.656,1,1.1,0.36,1.94,-64.8918,-22.634999999999998,51.261799999999994,175,75
2026-05-09 17:13:38.724,1,0.92,-0.22,1.68,-91.6618,-26.595,73.8218,175,75
2026-05-09 17:13:38.737,1,0.74,-0.05,1.54,-102.9418,20.965000000000003,77.9718,175,75
2026-05-09 17:13:38.747,1,0.41,-0.52,1.84,-118.61180000000002,78.155,114.8018,175,75
2026-05-09 17:13:38.758,1,0.33,-0.88,1.69,-139.83180000000002,58.705000000000005,131.2618,175,75
2026-05-09 17:13:38.769,1,0.22,-1.15,1.41,-164.2818,65.535,145.5318,175,75
2026-05-09 17:13:38.783,1,0.2,-1.11,1.33,-175.9818,84.255,160.3418,175,75
2026-05-09 17:13:38.794,1,0.04,-0.91,1.32,-182.8718,95.04499999999999,174.3118,175,75
2026-05-09 17:13:38.794,1,-0.08,-0.77,1.39,-180.7418,80.785,188.6418,175,75
2026-05-09 17:13:38.804,1,-0.18,-0.71,1.38,-185.9818,58.345000000000006,199.3118,175,75
2026-05-09 17:13:38.816,1,-0.15,-0.52,1.32,-199.1618,39.745,205.1018,175,75
2026-05-09 17:13:38.827,1,0.01,-0.18,1.26,-214.2818,33.035000000000004,200.6518,175,75
2026-05-09 17:13:38.839,1,1.12,0.72,2.93,-74.0918,119.01500000000001,192.9718,175,75
2026-05-09 17:13:38.861,1,2.32,-1.4,2.28,-211.3518,-285.495,20.2818,175,75
2026-05-09 17:13:38.872,1,-0.79,-1.5,-0.65,-303.97180000000003,-231.655,55.281800000000004,175,75
2026-05-09 17:13:38.877,1,-2.94,-1.81,-2.11,-346.47180000000003,-98.73499999999999,139.4318,175,75
2026-05-09 17:13:38.906,1,0.62,0.62,1.18,-130.3718,156.69500000000002,244.9818,175,75
2026-05-09 17:13:38.943,1,-0.5,-0.23,0.72,-195.86180000000002,23.585,142.4818,175,75
2026-05-09 17:13:38.954,1,0.28,0.0,0.53,-192.45180000000002,38.955,141.4418,175,75
2026-05-09 17:13:38.980,1,0.02,0.17,1.13,-170.80180000000001,22.005000000000003,106.7518,175,75
2026-05-09 17:13:39.013,1,0.01,0.26,0.52,-141.5318,30.965000000000003,69.4318,175,75
2026-05-09 17:13:39.021,1,-0.11,0.1,0.75,-133.61180000000002,36.515,57.9718,175,75
2026-05-09 17:13:39.034,1,-0.2,0.11,0.78,-120.1318,45.845000000000006,43.9418,175,75
2026-05-09 17:13:39.077,1,-0.21,-0.07,0.56,-77.8118,55.845000000000006,-16.6682,175,75
2026-05-09 17:13:39.090,1,-0.07,-0.37,0.5,-71.7218,62.12500000000001,-37.458200000000005,175,75
2026-05-09 17:13:39.090,1,0.22,-0.73,0.39,-64.5818,54.434999999999995,-60.568200000000004,175,75
2026-05-09 17:13:39.107,1,0.24,-0.94,0.33,-61.591800000000006,33.035000000000004,-78.79820000000001,175,75
2026-05-09 17:13:39.117,1,0.44,-1.31,0.49,-40.8018,10.235,-88.3682,175,75
2026-05-09 17:13:39.131,1,0.86,-1.81,1.23,1.998199999999997,-39.345,-53.18820000000001,175,75
2026-05-09 17:13:39.140,1,1.16,-2.03,1.81,17.548199999999994,-25.314999999999998,-46.238200000000006,175,75
2026-05-09 17:13:39.152,1,1.1,-2.0,1.99,1.2081999999999908,4.255000000000003,-75.5682,175,75
2026-05-09 17:13:39.165,1,1.15,-0.9,2.45,1.8181999999999903,62.425000000000004,-55.568200000000004,175,75
2026-05-09 17:13:39.178,1,1.06,-0.27,2.7,10.718199999999996,22.795,-54.718199999999996,175,75
2026-05-09 17:13:39.199,1,0.61,-0.36,2.29,-39.1618,-10.625,-65.5082,175,75
2026-05-09 17:13:39.210,1,0.45,0.07,2.65,-234.64180000000002,-113.54499999999999,78.2118,175,75
2026-05-09 17:13:39.225,1,0.05,-0.36,1.94,-287.08180000000004,-216.905,116.0218,175,75
2026-05-09 17:13:39.258,1,1.26,-0.82,2.34,-247.69180000000003,14.744999999999997,84.4318,175,75
2026-05-09 17:13:39.258,1,0.95,-0.31,2.39,-219.64180000000002,98.405,71.5018,175,75
2026-05-09 17:13:39.271,1,0.65,-0.04,2.39,-169.0318,173.285,61.0818,175,75
2026-05-09 17:13:39.318,1,0.19,-1.09,2.79,-76.4118,-35.745,-44.2282,175,75
2026-05-09 17:13:39.325,1,0.03,-0.83,2.34,-48.48180000000001,-93.305,-73.6782,175,75
2026-05-09 17:13:39.368,1,-0.22,0.11,1.79,75.8382,-102.875,-149.7182,175,75
2026-05-09 17:13:39.368,1,-0.37,0.16,1.79,107.6082,-106.23499999999999,-180.1982,175,75
2026-05-09 17:13:39.380,1,-0.53,0.06,1.69,136.0882,-115.255,-210.2682,175,75
2026-05-09 17:13:39.393,1,-0.63,-0.03,1.59,187.85819999999998,-110.495,-237.6982,175,75
2026-05-09 17:13:39.408,1,-0.62,0.15,1.57,230.29819999999998,-112.025,-258.0082,175,75
2026-05-09 17:13:39.418,1,-0.56,0.19,1.55,274.5582,-115.745,-276.1182,175,75
2026-05-09 17:13:39.452,1,-0.87,0.01,1.04,359.31820000000005,-90.565,-308.85819999999995,175,75
2026-05-09 17:13:39.453,1,-0.53,-0.01,1.39,408.27819999999997,-79.705,-306.23819999999995,175,75
2026-05-09 17:13:39.466,1,-0.93,-0.02,1.17,451.81820000000005,-76.905,-279.9582,175,75
2026-05-09 17:13:39.477,1,-0.9,-0.25,1.36,483.6482,-118.975,-253.79819999999998,175,75
2026-05-09 17:13:39.498,1,-1.39,-0.92,0.91,472.30819999999994,-228.125,-230.3282,175,75
2026-05-09 17:13:39.509,1,-1.83,-1.04,-0.06,403.94820000000004,-267.325,-212.3982,175,75
2026-05-09 17:13:39.547,1,-3.08,-0.7,-1.75,284.7482,-227.635,-68.6782,175,75
2026-05-09 17:13:39.558,1,-2.59,-0.51,-1.75,247.3082,-219.825,-16.6082,175,75
2026-05-09 17:13:39.581,1,-2.1,0.86,-3.23,63.468199999999996,-270.565,119.67179999999999,175,75
2026-05-09 17:13:39.581,1,-1.27,0.32,-3.69,-37.02180000000001,-351.785,174.3718,175,75
2026-05-09 17:13:39.602,1,-2.74,-1.03,-3.75,-224.4018,-251.845,241.6918,175,75
2026-05-09 17:13:39.613,1,-2.07,-5.06,-0.54,-178.8518,225.595,222.9118,175,75
2026-05-09 17:13:39.634,1,-0.07,2.42,3.21,-277.57180000000005,-6.295,362.6618,175,75
2026-05-09 17:13:39.648,1,0.75,4.32,1.36,-284.4018,-223.855,102.3018,175,75
2026-05-09 17:13:39.659,1,-1.85,0.68,0.16,-198.7318,-204.525,194.8618,175,75
2026-05-09 17:13:39.672,1,-0.03,-0.69,-1.1,-137.9418,83.64500000000001,138.8218,175,75
2026-05-09 17:13:39.685,1,-0.08,0.17,0.46,-80.5018,62.975,151.8118,175,75
2026-05-09 17:13:39.698,1,-0.05,0.1,1.14,-90.92180000000002,34.135,100.5318,175,75
2026-05-09 17:13:39.709,1,-0.04,-0.33,0.99,-86.4118,15.655000000000001,73.9418,175,75
2026-05-09 17:13:39.720,1,0.24,-0.48,0.8,-82.3918,-10.625,64.9818,175,75
2026-05-09 17:13:39.741,1,0.37,-1.02,0.71,-56.781800000000004,-23.855,23.2118,175,75
2026-05-09 17:13:39.752,1,0.58,-1.24,0.62,-43.6118,-18.675,10.0418,175,75
2026-05-09 17:13:39.762,1,0.62,-1.27,0.75,-43.18180000000001,-21.174999999999997,13.2718,175,75
2026-05-09 17:13:39.773,1,0.9,-1.47,1.11,-32.3318,-20.195,24.0618,175,75
2026-05-09 17:13:39.798,1,1.26,-1.45,1.51,-15.86180000000001,49.434999999999995,20.8318,175,75
2026-05-09 17:13:39.813,1,1.49,-0.98,1.89,0.1681999999999917,73.64500000000001,18.4518,175,75
2026-05-09 17:13:39.825,1,1.73,-0.49,2.4,0.3581999999999965,106.51500000000001,-25.3882,175,75
2026-05-09 17:13:39.849,1,0.42,0.56,2.32,-85.92180000000002,0.9649999999999999,51.7518,175,75
2026-05-09 17:13:39.849,1,0.56,-0.04,1.94,-150.0718,-63.915,81.20179999999999,175,75
2026-05-09 17:13:39.867,1,0.68,-0.02,1.63,-197.33180000000002,-123.85499999999999,94.8018,175,75
2026-05-09 17:13:39.887,1,0.61,-0.41,0.46,-280.19180000000006,43.765,111.7518,175,75
2026-05-09 17:13:39.914,1,1.43,-0.54,3.01,-162.6918,307.245,87.0518,175,75
2026-05-09 17:13:39.927,1,1.46,-0.17,3.46,-134.64180000000002,289.255,76.1418,175,75
2026-05-09 17:13:39.935,1,1.25,0.04,3.48,-86.4118,195.115,49.311800000000005,175,75
2026-05-09 17:13:39.949,1,1.08,0.0,3.28,-67.8118,149.745,27.111800000000002,175,75
2026-05-09 17:13:39.952,1,0.99,-0.15,3.13,-54.77180000000001,124.435,14.9818,175,75
2026-05-09 17:13:39.994,1,0.11,-1.09,2.92,-11.591800000000006,16.025,-51.968199999999996,175,75
2026-05-09 17:13:40.015,1,0.02,-1.36,2.61,26.818199999999994,-39.825,-85.32820000000001,175,75
2026-05-09 17:13:40.026,1,-0.04,-1.09,2.36,62.2482,-76.35499999999999,-101.54820000000001,175,75
2026-05-09 17:13:40.026,1,0.06,-0.42,2.27,91.81819999999999,-89.035,-104.2282,175,75
2026-05-09 17:13:40.036,1,0.03,-0.07,2.06,129.01819999999998,-127.57499999999999,-129.22820000000002,175,75
2026-05-09 17:13:40.050,1,-0.09,-0.15,1.69,161.26819999999998,-140.255,-165.6282,175,75
2026-05-09 17:13:40.074,1,-0.28,-0.07,1.19,247.54819999999998,-94.465,-205.6882,175,75
2026-05-09 17:13:40.094,1,-0.25,-0.05,1.3,344.68819999999994,-66.10499999999999,-216.4182,175,75
2026-05-09 17:13:40.109,1,-0.16,-0.15,1.37,385.5982,-75.925,-213.6782,175,75
2026-05-09 17:13:40.130,1,-0.33,-0.59,1.38,427.7282,-156.045,-209.0482,175,75
2026-05-09 17:13:40.141,1,-1.01,-0.93,0.93,403.70820000000003,-214.035,-220.8782,175,75
2026-05-09 17:13:40.152,1,-1.46,-1.11,0.3,363.70820000000003,-255.075,-196.47820000000002,175,75
2026-05-09 17:13:40.152,1,-1.62,-1.12,-0.06,331.1482,-304.285,-177.0882,175,75
2026-05-09 17:13:40.193,1,-2.36,-0.35,-1.03,267.8582,-319.46500000000003,-138.0682,175,75
2026-05-09 17:13:40.203,1,-2.71,-0.02,-1.84,205.9082,-261.595,-89.3482,175,75
2026-05-09 17:13:40.214,1,-2.85,-0.03,-2.23,159.3182,-129.285,-15.328199999999999,175,75
2026-05-09 17:13:40.225,1,-3.06,0.14,-2.48,103.09819999999999,-70.805,48.031800000000004,175,75
2026-05-09 17:13:40.225,1,-2.1,0.22,-2.77,7.8581999999999965,-118.975,86.4418,175,75
2026-05-09 17:13:40.236,1,-2.45,0.6,-2.98,-75.5618,-69.765,135.4718,175,75
2026-05-09 17:13:40.246,1,-5.07,0.26,-2.98,-182.6918,-14.645,217.2318,175,75
2026-05-09 17:13:40.256,1,-3.69,-5.61,-1.93,-304.6418,105.29499999999999,330.1018,175,75
2026-05-09 17:13:40.267,1,4.61,-7.63,2.92,-103.0618,416.695,337.3018,175,75
2026-05-09 17:13:40.309,1,-0.61,-2.01,-1.37,-245.07180000000002,-116.35499999999999,123.5818,175,75
2026-05-09 17:13:40.323,1,-0.45,0.03,-0.81,-185.80180000000001,8.705000000000002,147.3618,175,75
2026-05-09 17:13:40.333,1,-0.04,-0.01,0.76,-76.8418,20.475,76.9918,175,75
2026-05-09 17:13:40.345,1,0.02,-0.44,0.78,-66.0518,11.205000000000002,59.921800000000005,175,75
2026-05-09 17:13:40.377,1,-0.0,-0.41,0.71,-46.1118,-22.814999999999998,38.451800000000006,175,75
2026-05-09 17:13:40.380,1,0.17,-0.82,0.46,-30.8018,-26.355,6.631800000000001,175,75
2026-05-09 17:13:40.404,1,0.6,-1.53,0.94,12.488199999999992,-11.785,-15.078199999999999,175,75
2026-05-09 17:13:40.415,1,0.84,-1.75,1.45,12.058199999999992,-7.024999999999999,-5.688199999999998,175,75
2026-05-09 17:13:40.426,1,1.0,-1.81,1.63,3.0981999999999914,3.0950000000000024,9.001800000000001,175,75
2026-05-09 17:13:40.448,1,1.1,0.33,2.13,40.538199999999996,120.35500000000002,12.7818,175,75
2026-05-09 17:13:40.468,1,-0.43,0.1,0.98,-95.2518,-90.685,55.281800000000004,175,75
2026-05-09 17:13:40.478,1,-0.84,-0.21,-0.05,-201.11180000000002,-77.935,106.9918,175,75
2026-05-09 17:13:40.500,1,-0.79,-0.34,-0.2,-272.08180000000004,143.76500000000001,167.4218,175,75
2026-05-09 17:13:40.509,1,0.01,-0.83,0.71,-271.72180000000003,224.685,160.5918,175,75
2026-05-09 17:13:40.509,1,0.25,-0.91,1.85,-246.2918,290.965,158.52179999999998,175,75
2026-05-09 17:13:40.532,1,0.84,-0.71,2.71,-248.00180000000003,230.595,151.02179999999998,175,75
2026-05-09 17:13:40.565,1,1.39,0.45,3.16,-196.9618,183.345,127.6018,175,75
2026-05-09 17:13:40.581,1,1.49,0.75,3.5,-169.64180000000002,178.82500000000002,113.09179999999999,175,75
2026-05-09 17:13:40.612,1,1.47,0.89,3.91,-23.85180000000001,86.26500000000001,16.751800000000003,175,75
2026-05-09 17:13:40.668,1,0.26,-2.34,2.72,130.7182,-127.025,-137.1582,175,75
2026-05-09 17:13:40.688,1,0.01,-2.38,2.77,146.38819999999998,-126.845,-158.7382,175,75
2026-05-09 17:13:40.688,1,-0.1,-2.14,2.71,189.8082,-177.20499999999998,-171.2382,175,75
2026-05-09 17:13:40.710,1,-0.3,-1.89,2.44,242.79819999999998,-206.965,-195.6882,175,75
2026-05-09 17:13:40.723,1,-0.46,-2.18,2.03,264.5582,-208.245,-225.9382,175,75
2026-05-09 17:13:40.748,1,-1.51,-3.44,-0.57,210.35819999999998,-201.785,-294.8982,175,75
2026-05-09 17:13:40.748,1,-1.35,-1.49,-0.0,336.3882,-60.925,-214.3482,175,75
2026-05-09 17:13:40.765,1,0.45,-1.93,1.57,451.44820000000004,-36.235,-206.0582,175,75
2026-05-09 17:13:40.776,1,0.36,-2.5,2.36,458.33820000000003,-149.465,-234.1682,175,75
2026-05-09 17:13:40.788,1,-0.6,-2.61,1.43,410.1082,-268.365,-250.56820000000002,175,75
2026-05-09 17:13:40.799,1,-0.44,-3.44,0.94,367.9782,-191.845,-302.7682,175,75
2026-05-09 17:13:40.817,1,-0.5,-3.5,1.08,421.6382,-148.605,-295.6282,175,75
2026-05-09 17:13:40.845,1,-0.6,-3.6,0.66,437.91819999999996,-122.63499999999999,-280.3882,175,75
2026-05-09 17:13:40.856,1,-0.45,-3.15,0.5,433.33820000000003,-69.58500000000001,-261.96819999999997,175,75
2026-05-09 17:13:40.880,1,-0.32,-2.59,0.72,409.92819999999995,-28.735,-220.8082,175,75
2026-05-09 17:13:40.880,1,-0.43,-2.24,0.87,384.2582,-46.535,-196.6682,175,75
2026-05-09 17:13:40.945,1,-1.1,0.3,-0.87,135.4782,-97.20500000000001,-69.7782,175,75
2026-05-09 17:13:40.981,1,-0.52,0.94,0.07,9.13819999999999,37.005,30.951800000000002,175,75
2026-05-09 17:13:41.003,1,-0.3,0.92,0.44,-14.281800000000004,-1.5949999999999989,33.3318,175,75
2026-05-09 17:13:41.003,1,-0.24,1.13,0.56,-2.0818000000000083,-30.625,26.1418,175,75
2026-05-09 17:13:41.037,1,-0.47,1.17,0.05,14.988199999999992,-78.185,13.4518,175,75
2026-05-09 17:13:41.048,1,-0.58,0.98,-0.28,16.878199999999993,-64.465,17.361800000000002,175,75
2026-05-09 17:13:41.059,1,-0.63,0.9,-0.37,23.468199999999992,-38.364999999999995,23.5218,175,75
2026-05-09 17:13:41.071,1,-0.4,0.88,0.1,-11.591800000000006,31.935000000000002,43.9418,175,75
2026-05-09 17:13:41.108,1,-0.26,0.89,0.6,-49.46180000000001,62.005,68.7618,175,75
2026-05-09 17:13:41.167,1,0.44,0.67,1.42,-127.6318,15.355000000000004,132.9118,175,75
2026-05-09 17:13:41.177,1,0.64,0.64,1.52,-130.0718,-15.135,138.0918,175,75
2026-05-09 17:13:41.177,1,0.7,0.63,1.51,-134.2818,-47.695,135.4118,175,75
2026-05-09 17:13:41.191,1,0.79,0.57,1.4,-136.7218,-74.345,131.3818,175,75
2026-05-09 17:13:41.313,1,0.65,-0.82,1.6,-164.3418,-69.58500000000001,160.1618,175,75
2026-05-09 17:13:41.356,1,0.27,-1.34,1.19,-152.2718,-34.525,194.7318,175,75
2026-05-09 17:13:41.356,1,0.22,-1.14,1.09,-146.05180000000001,-3.914999999999999,191.8718,175,75
2026-05-09 17:13:41.387,1,0.51,-0.32,1.25,-92.45180000000002,77.065,176.3818,175,75
2026-05-09 17:13:41.408,1,4.19,-3.33,5.7,130.0482,362.185,192.1118,175,75
2026-05-09 17:13:41.419,1,2.46,-4.69,3.12,-313.7318,-182.695,31.381800000000002,175,75
2026-05-09 17:13:41.430,1,0.3,-1.42,-1.41,-402.5118,-380.315,205.8318,175,75
2026-05-09 17:13:41.474,1,0.86,2.42,1.45,-55.4418,-86.905,191.4418,175,75
2026-05-09 17:13:41.474,1,-0.55,0.83,1.48,-141.7818,-10.014999999999999,167.6618,175,75
2026-05-09 17:13:41.474,1,-0.1,-0.36,0.42,-170.5018,-17.575,109.5518,175,75
2026-05-09 17:13:41.490,1,-0.4,0.5,0.63,-130.80180000000001,-17.695,127.9718,175,75
2026-05-09 17:13:41.506,1,-0.13,0.51,0.77,-94.2818,37.425000000000004,111.20179999999999,175,75
2026-05-09 17:13:41.518,1,0.1,0.01,0.9,-88.48179999999999,7.065000000000001,85.95179999999999,175,75
2026-05-09 17:13:41.529,1,0.05,-0.1,0.94,-95.62180000000001,5.175000000000001,78.09179999999999,175,75
2026-05-09 17:13:41.540,1,-0.37,-0.04,0.96,-79.2218,16.935000000000002,67.4218,175,75
2026-05-09 17:13:41.552,1,-0.14,-0.07,0.88,-66.0518,35.295,64.7318,175,75
2026-05-09 17:13:41.552,1,0.08,-0.4,0.73,-61.841800000000006,20.415,47.48180000000001,175,75
2026-05-09 17:13:41.563,1,0.09,-0.5,0.67,-50.8018,26.814999999999998,27.7818,175,75
2026-05-09 17:13:41.574,1,0.15,-0.55,0.74,-40.37180000000001,29.985,14.061800000000002,175,75
2026-05-09 17:13:41.583,1,0.22,-0.71,0.76,-25.4418,26.395000000000003,2.7818000000000005,175,75
2026-05-09 17:13:41.597,1,0.36,-0.82,0.88,-9.891800000000003,24.564999999999998,5.041800000000001,175,75
2026-05-09 17:13:41.608,1,0.58,-0.86,0.98,-5.68180000000001,11.325,3.2718000000000007,175,75
2026-05-09 17:13:41.619,1,0.69,-0.83,1.05,-4.401800000000009,0.8450000000000024,0.591800000000001,175,75
2026-05-09 17:13:41.677,1,1.4,-0.26,1.45,27.978199999999994,111.51500000000001,-43.3082,175,75
2026-05-09 17:13:41.690,1,1.4,0.13,1.83,30.968199999999996,77.975,-55.26820000000001,175,75
2026-05-09 17:13:41.701,1,0.76,0.43,1.88,3.278199999999991,52.48500000000001,-44.658199999999994,175,75
2026-05-09 17:13:41.712,1,0.68,-0.26,1.13,-148.1218,-44.215,-5.688199999999998,175,75
2026-05-09 17:13:41.724,1,0.17,0.03,1.23,-167.20180000000002,30.235,8.6418,175,75
2026-05-09 17:13:41.726,1,0.03,0.2,1.62,-186.8418,35.045,34.311800000000005,175,75
2026-05-09 17:13:41.740,1,-0.17,0.13,1.89,-221.2918,-6.844999999999999,71.6918,175,75
2026-05-09 17:13:41.761,1,0.41,-0.37,1.5,-284.8918,-16.785,100.34179999999999,175,75
2026-05-09 17:13:41.785,1,1.13,-0.21,2.1,-249.0918,51.635,90.1618,175,75
2026-05-09 17:13:41.794,1,1.07,-0.04,2.01,-234.7718,68.76500000000001,75.1618,175,75
2026-05-09 17:13:41.839,1,0.5,-0.39,2.22,-156.9018,105.845,1.6918000000000006,175,75
2026-05-09 17:13:41.881,1,0.19,-0.06,2.05,-62.7518,-63.605,-99.7782,175,75
2026-05-09 17:13:41.891,1,0.08,0.17,1.91,-28.001800000000003,-109.155,-129.1082,175,75
2026-05-09 17:13:41.904,1,-0.0,0.33,1.78,0.968199999999996,-134.345,-148.0682,175,75
2026-05-09 17:13:41.917,1,-0.18,0.55,1.55,45.718199999999996,-167.695,-178.7382,175,75
2026-05-09 17:13:41.929,1,-0.23,0.73,1.38,85.1082,-172.575,-198.4982,175,75
2026-05-09 17:13:41.943,1,-0.23,0.86,1.22,133.70819999999998,-161.17499999999998,-222.3382,175,75
2026-05-09 17:13:41.957,1,-0.21,0.84,1.17,175.7182,-135.255,-240.4482,175,75
2026-05-09 17:13:41.997,1,-0.21,0.49,1.13,259.5582,-60.315,-280.3282,175,75
2026-05-09 17:13:41.998,1,-0.27,0.41,1.13,289.3782,-34.405,-294.77819999999997,175,75
2026-05-09 17:13:42.039,1,-0.69,-0.43,1.46,332.30819999999994,-292.51500000000004,-251.60819999999998,175,75
2026-05-09 17:13:42.039,1,-1.15,-0.64,0.85,293.8282,-365.745,-252.3382,175,75
2026-05-09 17:13:42.061,1,-1.67,-0.6,0.21,247.85819999999998,-373.795,-239.8982,175,75
2026-05-09 17:13:42.076,1,-1.99,-0.54,-0.12,223.5882,-352.63500000000005,-229.4682,175,75
2026-05-09 17:13:42.086,1,-1.85,-0.36,0.03,168.3382,-329.88500000000005,-155.8782,175,75
2026-05-09 17:13:42.098,1,-1.69,0.03,0.08,130.0482,-330.375,-113.43820000000001,175,75
2026-05-09 17:13:42.109,1,-3.68,0.74,0.1,106.87819999999999,-311.355,-67.2782,175,75
2026-05-09 17:13:42.109,1,-2.97,0.56,-1.02,40.228199999999994,-335.375,21.2018,175,75
2026-05-09 17:13:42.120,1,-3.83,0.43,-3.33,-126.3518,-458.305,104.4318,175,75
2026-05-09 17:13:42.143,1,-4.9,-0.03,-2.25,-80.9818,97.79499999999999,217.5418,175,75
2026-05-09 17:13:42.159,1,1.66,-1.93,3.88,171.0282,350.41499999999996,214.6718,175,75
2026-05-09 17:13:42.172,1,0.73,-1.09,4.12,-64.8918,193.585,89.73179999999999,175,75
2026-05-09 17:13:42.172,1,1.79,0.59,0.98,-253.4818,-295.315,118.8218,175,75
2026-05-09 17:13:42.185,1,-0.91,0.51,-0.14,-134.1618,-125.565,123.9418,175,75
2026-05-09 17:13:42.206,1,0.18,0.14,0.38,-31.35180000000001,70.655,98.8818,175,75
2026-05-09 17:13:42.218,1,0.19,0.11,0.8,-26.96180000000001,-29.765,91.20179999999999,175,75
2026-05-09 17:13:42.232,1,0.2,-0.11,0.72,-8.911800000000007,-34.405,51.9918,175,75
2026-05-09 17:13:42.238,1,0.04,-0.11,0.61,12.608199999999993,-22.875,34.8018,175,75
2026-05-09 17:13:42.249,1,0.05,-0.13,0.78,36.578199999999995,-2.2049999999999983,23.5218,175,75
2026-05-09 17:13:42.259,1,0.2,-0.33,0.96,61.08819999999999,-2.994999999999999,9.4318,175,75
2026-05-09 17:13:42.290,1,0.37,-0.52,0.72,72.3682,5.295000000000002,-13.008199999999999,175,75
2026-05-09 17:13:42.290,1,0.47,-0.63,0.81,74.31819999999999,14.015,-19.4682,175,75
2026-05-09 17:13:42.300,1,0.55,-0.71,0.96,63.5282,22.615000000000002,-18.3782,175,75
2026-05-09 17:13:42.312,1,0.59,-0.64,1.04,42.30819999999999,49.684999999999995,-15.938199999999998,175,75
2026-05-09 17:13:42.333,1,0.87,-0.52,1.29,46.44819999999999,49.98500000000001,-15.328199999999999,175,75
2026-05-09 17:13:42.339,1,0.96,-0.28,1.33,43.27819999999999,53.824999999999996,1.6918000000000006,175,75
2026-05-09 17:13:42.371,1,1.08,-0.1,1.42,21.088199999999993,36.325,5.471800000000001,175,75
2026-05-09 17:13:42.380,1,1.04,0.09,1.35,-2.811800000000005,40.045,0.04180000000000028,175,75
2026-05-09 17:13:42.392,1,1.07,0.11,1.25,-50.8618,46.324999999999996,-12.638199999999998,175,75
2026-05-09 17:13:42.414,1,0.4,-0.03,1.85,-158.1218,35.715,57.6018,175,75
2026-05-09 17:13:42.415,1,-0.26,-0.33,1.3,-246.1118,-38.605000000000004,76.1418,175,75
2026-05-09 17:13:42.436,1,-0.48,-0.4,0.97,-285.56180000000006,-39.955,100.59179999999999,175,75
2026-05-09 17:13:42.461,1,-0.33,-0.65,0.59,-293.18179999999995,-1.9049999999999976,134.61180000000002,175,75
2026-05-09 17:13:42.462,1,0.22,-0.65,0.78,-280.1318,34.195,128.2118,175,75
2026-05-09 17:13:42.499,1,0.65,-0.11,1.6,-248.9118,93.095,111.3218,175,75
2026-05-09 17:13:42.516,1,0.66,0.16,1.69,-240.8018,73.405,101.7518,175,75
2026-05-09 17:13:42.516,1,0.59,0.28,1.64,-228.5518,50.845000000000006,89.92179999999999,175,75
2026-05-09 17:13:42.539,1,0.61,0.55,1.76,-191.9018,10.595000000000002,66.1418,175,75
2026-05-09 17:13:42.556,1,0.62,0.71,1.88,-167.08180000000002,-11.594999999999999,49.1918,175,75
2026-05-09 17:13:42.567,1,0.6,0.86,1.91,-144.83180000000002,-35.685,32.9718,175,75
2026-05-09 17:13:42.594,1,0.41,1.21,1.42,-66.5318,-27.755,-3.6182,175,75
2026-05-09 17:13:42.651,1,0.34,1.29,1.33,-38.73180000000001,-5.984999999999999,-19.6582,175,75
2026-05-09 17:13:42.686,1,0.12,1.86,1.17,135.7182,38.035000000000004,-81.3582,175,75
2026-05-09 17:13:42.714,1,0.46,1.39,1.42,169.4982,-79.645,-93.1282,175,75
2026-05-09 17:13:42.738,1,0.33,1.16,1.21,165.5982,-190.625,-107.57820000000001,175,75
2026-05-09 17:13:42.753,1,0.13,1.08,0.99,158.0382,-247.45499999999998,-121.84819999999999,175,75
2026-05-09 17:13:42.764,1,0.28,1.02,1.18,153.0382,-260.625,-128.4382,175,75
2026-05-09 17:13:42.775,1,0.55,0.75,1.55,155.6582,-292.32500000000005,-141.6082,175,75
2026-05-09 17:13:42.785,1,0.15,0.53,1.27,159.3782,-328.365,-181.9082,175,75
2026-05-09 17:13:42.801,1,-0.14,0.67,1.07,177.60819999999998,-254.405,-226.6082,175,75
2026-05-09 17:13:42.801,1,-5.93,0.43,-0.44,140.4782,-437.57500000000005,-259.8982,175,75
2026-05-09 17:13:42.819,1,-8.55,-3.19,-6.44,-166.7818,-603.245,-308.97819999999996,175,75
2026-05-09 17:13:42.819,1,-6.42,-2.05,-9.27,44.01819999999999,-215.015,-78.1282,175,75
2026-05-09 17:13:42.830,1,0.35,0.16,-2.03,391.6382,802.245,300.22180000000003,175,75
2026-05-09 17:13:42.842,1,1.06,-1.68,4.97,102.4282,68.82499999999999,-183.5582,175,75
2026-05-09 17:13:42.852,1,1.45,-2.53,1.93,134.6282,-228.605,-81.4782,175,75
2026-05-09 17:13:42.852,1,0.9,-3.06,0.44,141.20819999999998,-207.265,-69.3482,175,75
2026-05-09 17:13:42.862,1,0.81,-1.36,-0.37,161.44819999999999,-6.654999999999999,-81.7282,175,75
2026-05-09 17:13:42.874,1,1.17,-0.78,0.81,254.5582,38.705,-96.54820000000001,175,75
2026-05-09 17:13:42.874,1,0.73,-0.3,1.16,227.85819999999998,45.475,-133.1282,175,75
2026-05-09 17:13:42.908,1,-2.56,0.19,-1.29,-147.6918,-136.715,77.3018,175,75
2026-05-09 17:13:42.920,1,-1.08,0.1,-0.36,-150.80180000000001,18.215000000000003,110.2818,175,75
2026-05-09 17:13:42.931,1,-1.21,-0.3,-0.11,-253.7318,52.425000000000004,158.9418,175,75
2026-05-09 17:13:42.946,1,-1.37,-0.96,-0.37,-393.3618,80.04499999999999,213.52179999999998,175,75
2026-05-09 17:13:42.946,1,-1.07,-1.97,0.21,-426.66179999999997,128.095,230.5918,175,75
2026-05-09 17:13:42.957,1,-0.6,-2.54,1.0,-417.45180000000005,93.095,231.3818,175,75
2026-05-09 17:13:42.981,1,-0.21,-1.75,1.18,-438.55179999999996,43.405,230.6518,175,75
2026-05-09 17:13:42.984,1,-0.05,-1.1,1.26,-457.81180000000006,38.765,233.9418,175,75
2026-05-09 17:13:43.012,1,0.32,-0.65,1.57,-442.7518,-0.9849999999999994,232.4218,175,75
2026-05-09 17:13:43.033,1,0.4,-0.29,1.52,-427.5118,-18.915,236.4418,175,75
2026-05-09 17:13:43.044,1,0.45,-0.09,1.47,-411.72180000000003,-20.744999999999997,239.6118,175,75
2026-05-09 17:13:43.049,1,0.57,-0.05,1.57,-405.19180000000006,-21.715,242.1718,175,75
2026-05-09 17:13:43.063,1,0.72,-0.13,1.79,-395.44180000000006,-27.515,242.7218,175,75
2026-05-09 17:13:43.091,1,1.68,-0.15,2.62,-306.05179999999996,13.704999999999998,228.52179999999998,175,75
2026-05-09 17:13:43.116,1,2.28,0.5,3.44,-213.4818,90.715,193.4518,175,75
2026-05-09 17:13:43.133,1,2.61,0.6,4.27,-68.5518,71.57499999999999,95.4718,175,75
2026-05-09 17:13:43.148,1,2.74,0.84,4.39,-3.551800000000007,21.575000000000003,47.9118,175,75
2026-05-09 17:13:43.158,1,2.74,1.08,4.1,78.4082,-25.685,-10.8782,175,75
2026-05-09 17:13:43.170,1,2.59,0.97,3.61,176.38819999999998,-64.405,-100.8082,175,75
2026-05-09 17:13:43.192,1,1.9,0.16,2.84,306.6382,-77.875,-242.0282,175,75
2026-05-09 17:13:43.226,1,0.86,-1.07,2.2,415.53819999999996,-146.905,-359.5882,175,75
2026-05-09 17:13:43.237,1,0.43,-1.96,1.86,419.31820000000005,-177.875,-402.8282,175,75
2026-05-09 17:13:43.249,1,0.01,-2.29,1.49,417.66819999999996,-154.885,-433.4982,175,75
2026-05-09 17:13:43.260,1,-0.12,-2.52,1.27,444.1382,-120.315,-459.65819999999997,175,75
2026-05-09 17:13:43.283,1,-0.38,-3.11,0.86,508.40819999999997,-13.125,-445.4482,175,75
2026-05-09 17:13:43.295,1,-0.36,-3.17,0.63,525.1682,59.434999999999995,-439.52819999999997,175,75
2026-05-09 17:13:43.322,1,-0.08,-4.08,1.33,568.4681999999999,90.905,-369.46819999999997,175,75
2026-05-09 17:13:43.336,1,0.0,-4.28,1.41,576.0282,36.635,-336.35819999999995,175,75
2026-05-09 17:13:43.346,1,-2.09,-5.64,0.91,591.2682,1.2050000000000018,-278.73819999999995,175,75
2026-05-09 17:13:43.357,1,2.16,-5.18,1.68,553.9482,27.005000000000003,-264.5882,175,75
2026-05-09 17:13:43.369,1,-0.68,-4.07,0.42,368.33820000000003,-271.785,-217.3982,175,75
2026-05-09 17:13:43.383,1,-1.32,-2.32,-0.17,330.29819999999995,-27.814999999999998,-189.8982,175,75
2026-05-09 17:13:43.396,1,0.71,-2.1,1.65,365.77819999999997,31.025,-188.8582,175,75
2026-05-09 17:13:43.396,1,0.15,-2.29,1.91,332.91819999999996,-112.26499999999999,-167.4582,175,75
2026-05-09 17:13:43.407,1,0.33,-2.24,1.38,296.5782,-145.98499999999999,-173.0682,175,75
2026-05-09 17:13:43.457,1,-0.05,-0.58,0.61,130.8382,-29.705,-129.7182,175,75
2026-05-09 17:13:43.485,1,-0.32,0.09,0.88,117.36819999999999,66.45500000000001,-96.29820000000001,175,75
2026-05-09 17:13:43.490,1,-0.14,0.3,0.98,100.9082,109.98500000000001,-76.1182,175,75
2026-05-09 17:13:43.542,1,0.15,0.75,0.9,18.888199999999994,34.135,-20.3282,175,75
2026-05-09 17:13:43.557,1,0.11,0.98,0.9,6.758199999999995,15.844999999999999,-7.458199999999998,175,75
2026-05-09 17:13:43.568,1,0.12,1.01,0.97,0.22819999999999396,-6.234999999999999,3.211800000000001,175,75
2026-05-09 17:13:43.590,1,0.14,1.04,0.98,-30.921800000000005,-61.175,17.4218,175,75
2026-05-09 17:13:43.601,1,0.08,1.09,0.88,-47.1418,-68.545,21.9918,175,75
2026-05-09 17:13:43.612,1,0.02,1.1,0.79,-59.6418,-49.955,30.2218,175,75
2026-05-09 17:13:43.639,1,0.03,1.07,0.83,-65.8618,-15.375,40.1618,175,75
2026-05-09 17:13:43.639,1,0.04,1.06,0.82,-67.27180000000001,2.4849999999999994,43.761799999999994,175,75
2026-05-09 17:13:43.655,1,0.06,1.04,0.83,-70.5618,15.785000000000004,50.651799999999994,175,75
2026-05-09 17:13:43.667,1,0.08,1.0,0.82,-78.12180000000001,32.245,57.6618,175,75
2026-05-09 17:13:43.676,1,0.1,0.94,0.86,-85.2518,45.23500000000001,64.9818,175,75
2026-05-09 17:13:43.702,1,0.2,0.85,1.11,-108.42180000000002,66.26500000000001,87.84179999999999,175,75
2026-05-09 17:13:43.713,1,0.28,0.75,1.23,-120.68180000000001,57.855,101.3818,175,75
2026-05-09 17:13:43.759,1,0.4,0.44,1.11,-144.7718,77.065,102.48179999999999,175,75
2026-05-09 17:13:43.775,1,0.36,0.16,1.38,-158.67180000000002,110.475,115.59179999999999,175,75
2026-05-09 17:13:43.780,1,0.39,-0.0,1.49,-167.14180000000002,104.255,127.17179999999999,175,75
2026-05-09 17:13:43.797,1,0.3,-0.26,1.59,-178.61180000000002,89.01500000000001,138.1518,175,75
2026-05-09 17:13:43.810,1,0.28,-0.52,1.61,-192.8118,82.125,145.6518,175,75
2026-05-09 17:13:43.810,1,0.2,-0.76,1.58,-204.5218,81.32499999999999,142.7218,175,75
2026-05-09 17:13:43.824,1,0.03,-0.74,1.61,-209.1618,86.815,147.3018,175,75
2026-05-09 17:13:43.862,1,-0.12,-0.64,1.64,-214.2818,76.025,169.3118,175,75
2026-05-09 17:13:43.884,1,0.04,-0.73,1.4,-207.08180000000002,37.005,176.2018,175,75
2026-05-09 17:13:43.898,1,0.08,-0.39,1.55,-172.6918,82.185,174.49179999999998,175,75
2026-05-09 17:13:43.949,1,0.08,-0.27,1.66,-158.55180000000001,75.965,174.0018,175,75
2026-05-09 17:13:43.959,1,0.07,-0.06,1.64,-145.4418,57.675000000000004,174.2518,175,75
2026-05-09 17:13:43.981,1,0.52,0.39,1.17,-109.40180000000001,-37.455,72.1118,175,75
2026-05-09 17:13:44.005,1,-0.01,-0.88,1.46,-108.36180000000002,-31.235,77.48179999999999,175,75
2026-05-09 17:13:44.005,1,-0.52,-0.84,2.14,-62.3918,-24.215,106.81179999999999,175,75
2026-05-09 17:13:44.018,1,-0.46,-0.46,2.41,-51.591800000000006,78.82499999999999,120.8318,175,75
2026-05-09 17:13:44.028,1,-0.43,-0.52,1.76,-71.4718,63.895,107.7218,175,75
2026-05-09 17:13:44.052,1,0.4,-0.49,0.68,-77.9418,-17.515,121.9918,175,75
2026-05-09 17:13:44.073,1,0.3,-0.3,0.05,-79.46180000000001,-6.534999999999998,103.8818,175,75
2026-05-09 17:13:44.073,1,0.22,-0.11,-0.22,-62.7518,23.525,84.0018,175,75
2026-05-09 17:13:44.110,1,-0.5,0.09,1.44,-81.5918,35.355000000000004,51.5018,175,75
2026-05-09 17:13:44.110,1,-0.46,0.11,1.19,-86.8418,29.015,46.5018,175,75
2026-05-09 17:13:44.157,1,-0.15,0.02,0.54,-43.73180000000001,32.855000000000004,7.361800000000001,175,75
2026-05-09 17:13:44.178,1,-0.18,-0.17,0.54,-29.521800000000013,24.435000000000002,-5.998200000000001,175,75
2026-05-09 17:13:44.178,1,-0.14,-0.41,0.45,-3.4218000000000046,20.965000000000003,-20.3282,175,75
2026-05-09 17:13:44.199,1,0.04,-0.71,0.64,40.968199999999996,12.365000000000002,-38.738200000000006,175,75
2026-05-09 17:13:44.208,1,0.27,-1.04,0.93,59.01819999999999,7.914999999999999,-44.658199999999994,175,75
2026-05-09 17:13:44.218,1,0.42,-1.43,1.22,66.20819999999999,11.755000000000003,-50.26819999999999,175,75
2026-05-09 17:13:44.239,1,0.61,-1.89,1.44,42.05819999999999,25.355000000000004,-48.6182,175,75
2026-05-09 17:13:44.250,1,0.58,-2.16,1.7,40.718199999999996,92.305,-100.3882,175,75
2026-05-09 17:13:44.275,1,0.68,-0.35,2.8,76.9982,36.325,-85.68820000000001,175,75
2026-05-09 17:13:44.275,1,0.2,0.01,2.22,5.228199999999994,-24.765,-30.3282,175,75
2026-05-09 17:13:44.287,1,0.39,-0.55,1.2,-81.8418,-63.795,-2.828199999999999,175,75
2026-05-09 17:13:44.297,1,-0.47,0.14,0.98,-142.14180000000002,-3.9749999999999996,23.5218,175,75
2026-05-09 17:13:44.297,1,-0.42,1.02,1.48,-175.86180000000002,77.305,80.4118,175,75
2026-05-09 17:13:44.310,1,-0.02,0.85,1.86,-209.64180000000002,41.145,115.0418,175,75
2026-05-09 17:13:44.322,1,-0.32,-0.1,1.73,-248.5518,-12.875,147.4818,175,75
2026-05-09 17:13:44.333,1,0.83,-1.08,2.11,-275.1318,32.485,132.36180000000002,175,75
2026-05-09 17:13:44.351,1,0.84,-1.08,1.97,-278.30179999999996,71.51500000000001,125.34179999999999,175,75
2026-05-09 17:13:44.372,1,0.75,-0.83,1.94,-264.4018,116.14500000000001,129.7318,175,75
2026-05-09 17:13:44.394,1,0.91,-0.46,2.48,-182.45180000000002,186.755,111.81179999999999,175,75
2026-05-09 17:13:44.394,1,0.9,-0.31,2.53,-156.6618,169.19500000000002,103.2718,175,75
2026-05-09 17:13:44.405,1,0.86,-0.27,2.42,-125.68180000000001,132.91500000000002,94.0018,175,75
2026-05-09 17:13:44.433,1,0.82,-0.27,2.25,-105.1318,104.13499999999999,80.4118,175,75
2026-05-09 17:13:44.448,1,0.67,-0.25,2.06,-68.3618,72.67500000000001,58.451800000000006,175,75
2026-05-09 17:13:44.448,1,0.49,-0.18,1.9,-19.161800000000007,45.714999999999996,22.111800000000002,175,75
2026-05-09 17:13:44.486,1,0.35,0.67,1.59,199.7482,-34.825,-110.8082,175,75
2026-05-09 17:13:44.498,1,0.36,0.79,1.52,240.29819999999998,-60.805,-145.8782,175,75
2026-05-09 17:13:44.508,1,0.38,0.71,1.39,289.0182,-78.795,-183.1882,175,75
2026-05-09 17:13:44.526,1,0.31,0.42,1.22,326.3882,-82.875,-207.3382,175,75
2026-05-09 17:13:44.533,1,0.25,0.27,1.07,358.03819999999996,-64.58500000000001,-225.8082,175,75
2026-05-09 17:13:44.550,1,0.19,0.27,0.95,431.6382,-15.684999999999999,-231.7882,175,75
2026-05-09 17:13:44.586,1,0.09,0.23,1.04,464.2582,-69.095,-215.9982,175,75
2026-05-09 17:13:44.622,1,-0.83,-0.39,0.07,420.77819999999997,-204.70499999999998,-235.5682,175,75
2026-05-09 17:13:44.622,1,-1.28,-0.43,-0.32,380.4782,-231.785,-216.6082,175,75
2026-05-09 17:13:44.645,1,-2.29,-0.32,-1.27,280.41819999999996,-257.385,-166.72820000000002,175,75
2026-05-09 17:13:44.656,1,-3.57,-0.7,-0.92,369.19820000000004,-183.855,-71.4782,175,75
2026-05-09 17:13:44.709,1,1.73,-5.02,-0.32,-32.0818,517.485,349.9218,175,75
2026-05-09 17:13:44.730,1,-1.95,2.46,2.01,-381.9018,-204.825,121.0818,175,75
2026-05-09 17:13:44.742,1,1.55,-0.17,-0.93,-298.06180000000006,-184.215,210.0418,175,75
2026-05-09 17:13:44.767,1,0.0,0.08,1.16,-134.2218,31.814999999999998,113.45179999999999,175,75
2026-05-09 17:13:44.779,1,-0.13,0.0,0.93,-136.4118,7.185000000000002,90.7118,175,75
2026-05-09 17:13:44.804,1,-0.14,-0.17,0.96,-80.1918,21.695,64.6118,175,75
2026-05-09 17:13:44.816,1,-0.36,-0.19,0.83,-53.3618,15.115000000000002,48.761799999999994,175,75
2026-05-09 17:13:44.828,1,-0.4,-0.35,0.9,-29.2218,37.005,29.9818,175,75
2026-05-09 17:13:44.850,1,0.31,-1.36,0.92,-13.241800000000005,36.265,-13.618199999999998,175,75
2026-05-09 17:13:44.860,1,0.7,-1.62,1.42,-16.231800000000007,10.715,2.6618000000000013,175,75
2026-05-09 17:13:44.870,1,0.77,-1.61,1.7,-31.96180000000001,-1.5350000000000001,28.5818,175,75
2026-05-09 17:13:44.894,1,1.05,-1.54,1.8,-41.90180000000001,5.355,45.281800000000004,175,75
2026-05-09 17:13:44.907,1,1.05,-1.47,1.81,-28.361800000000002,78.70500000000001,23.0318,175,75
2026-05-09 17:13:44.918,1,1.28,-0.84,2.03,-29.701800000000006,146.145,23.0318,175,75
2026-05-09 17:13:44.928,1,1.22,-0.49,2.53,-36.96180000000001,189.19500000000002,26.3818,175,75
2026-05-09 17:13:44.941,1,0.97,-0.37,2.8,-76.1718,94.685,23.3318,175,75
2026-05-09 17:13:44.951,1,0.35,-0.43,1.79,-147.45180000000002,28.405,40.7118,175,75
2026-05-09 17:13:44.977,1,-0.96,-0.5,0.67,-260.0118,56.755,107.6618,175,75
2026-05-09 17:13:44.994,1,-0.72,-1.1,0.95,-330.80179999999996,68.215,186.9318,175,75
2026-05-09 17:13:45.007,1,0.65,-1.46,1.82,-304.83180000000004,135.535,160.1618,175,75
2026-05-09 17:13:45.007,1,1.09,-1.14,2.64,-252.94180000000003,156.32500000000002,160.2818,175,75
2026-05-09 17:13:45.031,1,1.27,-0.5,2.95,-254.3418,132.485,136.5018,175,75
2026-05-09 17:13:45.031,1,1.21,-0.01,2.73,-246.9018,125.905,124.31179999999999,175,75
2026-05-09 17:13:45.042,1,1.1,0.04,2.68,-201.2918,117.185,111.0818,175,75
2026-05-09 17:13:45.054,1,1.02,-0.13,2.71,-166.4718,111.935,95.5318,175,75
2026-05-09 17:13:45.054,1,1.04,-0.16,2.78,-140.92180000000002,112.61500000000001,86.2618,175,75
2026-05-09 17:13:45.066,1,1.03,-0.18,2.85,-109.1618,95.785,69.9818,175,75
2026-05-09 17:13:45.077,1,0.96,-0.17,2.88,-83.4218,67.305,52.9118,175,75
2026-05-09 17:13:45.078,1,0.92,-0.13,2.79,-56.29180000000001,31.875,31.381800000000002,175,75
2026-05-09 17:13:45.099,1,0.82,0.26,2.32,26.938199999999995,-36.235,-29.4682,175,75
2026-05-09 17:13:45.134,1,0.71,0.7,1.97,116.9382,-43.485,-89.5882,175,75
2026-05-09 17:13:45.166,1,0.31,0.59,1.52,289.4982,-63.675,-225.8782,175,75
2026-05-09 17:13:45.177,1,0.23,0.42,1.38,338.4682,-70.375,-256.23819999999995,175,75
2026-05-09 17:13:45.203,1,0.11,0.14,1.18,419.07820000000004,-41.655,-278.85819999999995,175,75
2026-05-09 17:13:45.219,1,-0.0,-0.06,1.1,448.7682,-48.605000000000004,-281.66819999999996,175,75
2026-05-09 17:13:45.275,1,-0.58,-0.47,0.88,449.1382,-135.625,-232.8882,175,75
2026-05-09 17:13:45.286,1,-1.15,-1.1,0.27,387.91819999999996,-244.345,-212.2182,175,75
2026-05-09 17:13:45.301,1,-2.06,-1.33,-0.67,299.0782,-275.565,-169.1682,175,75
2026-05-09 17:13:45.310,1,-3.28,-1.35,-1.23,279.9882,-255.195,-126.41820000000001,175,75
2026-05-09 17:13:45.321,1,-2.8,-1.82,-1.07,338.33820000000003,-209.64499999999998,-47.158199999999994,175,75
2026-05-09 17:13:45.333,1,-4.94,-2.92,-4.44,-29.281800000000004,-459.345,61.87180000000001,175,75
2026-05-09 17:13:45.349,1,-7.55,-1.85,-6.99,-169.70180000000002,-297.63500000000005,168.0318,175,75
2026-05-09 17:13:45.357,1,-8.9,-1.85,-7.54,-201.05180000000001,-57.995,323.03180000000003,175,75
2026-05-09 17:13:45.379,1,0.94,0.68,5.85,-250.01180000000002,335.655,263.7618,175,75
2026-05-09 17:13:45.379,1,-2.62,3.82,4.14,-475.07180000000005,-102.14500000000001,50.7118,175,75
2026-05-09 17:13:45.391,1,2.32,-1.71,0.64,-238.5518,-119.525,193.3918,175,75
2026-05-09 17:13:45.391,1,-0.89,-1.3,-0.55,-270.68179999999995,-241.475,84.1918,175,75
2026-05-09 17:13:45.405,1,-0.73,1.53,-0.63,-218.18179999999998,31.085,151.2618,175,75
2026-05-09 17:13:45.427,1,-0.22,-0.14,1.0,-125.5618,8.955000000000002,65.4118,175,75
2026-05-09 17:13:45.441,1,0.04,-0.14,0.89,-111.11180000000002,-2.4549999999999983,70.7118,175,75
2026-05-09 17:13:45.445,1,0.15,-0.23,0.51,-94.58180000000002,-28.485,45.8318,175,75
2026-05-09 17:13:45.458,1,-0.21,-0.29,0.45,-48.5518,-4.404999999999999,27.6618,175,75
2026-05-09 17:13:45.473,1,0.3,-0.64,0.58,-19.951800000000006,-3.125,9.921800000000001,175,75
2026-05-09 17:13:45.473,1,0.13,-0.74,0.56,-0.8018000000000072,-17.205,-8.3782,175,75
2026-05-09 17:13:45.484,1,0.35,-0.89,0.67,26.028199999999995,-4.954999999999998,-9.2882,175,75
2026-05-09 17:13:45.500,1,0.44,-1.15,0.93,52.48819999999999,-10.985,-13.068200000000001,175,75
2026-05-09 17:13:45.511,1,0.66,-1.31,1.08,63.5282,-8.485,-3.7981999999999996,175,75
2026-05-09 17:13:45.525,1,0.87,-1.53,1.24,71.0282,4.375,9.9818,175,75
2026-05-09 17:13:45.539,1,1.05,-1.93,1.07,81.9382,109.13500000000002,-47.218199999999996,175,75
2026-05-09 17:13:45.539,1,0.6,-0.53,1.59,95.2982,196.51500000000001,-26.238200000000003,175,75
2026-05-09 17:13:45.561,1,0.32,0.63,1.88,1.4481999999999928,-11.294999999999998,32.4818,175,75
2026-05-09 17:13:45.582,1,-0.91,-0.51,0.2,-143.55180000000001,-116.41499999999999,79.06179999999999,175,75
2026-05-09 17:13:45.582,1,-1.37,-0.44,-0.81,-258.18179999999995,-77.63499999999999,131.5618,175,75
2026-05-09 17:13:45.597,1,-1.82,-0.23,-0.77,-285.3718,167.79500000000002,168.1518,175,75
2026-05-09 17:13:45.619,1,-0.74,-0.96,0.4,-295.19180000000006,292.125,191.6218,175,75
2026-05-09 17:13:45.630,1,-0.58,-1.31,1.34,-290.56180000000006,308.155,200.2818,175,75
2026-05-09 17:13:45.645,1,-0.04,-1.24,1.75,-355.3718,217.005,214.5518,175,75
2026-05-09 17:13:45.656,1,0.16,-0.89,1.69,-348.8518,154.625,206.6918,175,75
2026-05-09 17:13:45.678,1,0.31,-0.72,1.78,-349.70180000000005,143.585,202.3018,175,75
2026-05-09 17:13:45.693,1,0.49,-0.56,2.05,-343.6118,128.405,196.8118,175,75
2026-05-09 17:13:45.713,1,0.88,0.04,2.59,-304.4018,80.17500000000001,191.02179999999998,175,75
2026-05-09 17:13:45.738,1,1.33,0.19,3.37,-239.70180000000002,75.655,165.9518,175,75
2026-05-09 17:13:45.749,1,1.55,0.22,3.59,-212.81180000000003,55.415,145.6518,175,75
2026-05-09 17:13:45.759,1,1.61,0.4,3.58,-171.4118,27.064999999999998,114.8618,175,75
2026-05-09 17:13:45.774,1,1.61,0.32,3.66,-71.7218,40.045,68.7018,175,75
2026-05-09 17:13:45.791,1,1.53,0.11,3.69,-22.141800000000003,30.655,41.931799999999996,175,75
2026-05-09 17:13:45.802,1,1.19,-0.37,3.44,36.51819999999999,-9.885,2.2318000000000016,175,75
2026-05-09 17:13:45.805,1,1.05,-0.73,3.06,93.4082,-37.515,-38.6182,175,75
2026-05-09 17:13:45.835,1,0.89,0.01,2.76,230.29819999999998,-82.995,-177.2782,175,75
2026-05-09 17:13:45.862,1,0.53,-1.09,2.16,349.92819999999995,-177.935,-290.0782,175,75
2026-05-09 17:13:45.872,1,-0.15,-1.42,1.53,384.19820000000004,-200.015,-350.3882,175,75
2026-05-09 17:13:45.908,1,-0.62,-2.15,0.73,486.69820000000004,-135.135,-415.7482,175,75
2026-05-09 17:13:45.908,1,-0.8,-2.53,0.65,517.5482,-104.58500000000001,-411.72819999999996,175,75
2026-05-09 17:13:45.952,1,-0.53,-3.17,0.92,559.0182,-131.175,-398.1282,175,75
2026-05-09 17:13:45.952,1,-0.55,-3.33,0.89,571.6981999999999,-167.875,-404.71819999999997,175,75
2026-05-09 17:13:45.973,1,-0.99,-4.06,0.44,583.6482,-62.995,-412.7682,175,75
2026-05-09 17:13:46.006,1,-0.81,-5.03,0.74,613.2782,-30.805,-345.4482,175,75
2026-05-09 17:13:46.006,1,-0.57,-5.36,0.01,597.5482,-22.025,-329.10819999999995,175,75
2026-05-09 17:13:46.019,1,-0.28,-4.85,-0.3,594.8682,82.85499999999999,-304.22819999999996,175,75
2026-05-09 17:13:46.032,1,-0.04,-4.44,-0.27,548.4082,173.955,-277.21819999999997,175,75
2026-05-09 17:13:46.043,1,0.14,-3.83,0.35,546.3882,180.29500000000002,-246.4782,175,75
2026-05-09 17:13:46.043,1,0.2,-3.02,1.18,489.07820000000004,87.54499999999999,-202.6382,175,75
2026-05-09 17:13:46.071,1,0.02,-2.31,1.35,413.03819999999996,-73.065,-168.3082,175,75
2026-05-09 17:13:46.083,1,-0.37,-1.75,0.93,345.1082,-203.065,-146.6082,175,75
2026-05-09 17:13:46.083,1,-0.4,-1.22,0.05,256.9382,-297.755,-135.1382,175,75
2026-05-09 17:13:46.101,1,-0.75,-0.69,-0.82,163.82819999999998,-294.88500000000005,-115.32820000000001,175,75
2026-05-09 17:13:46.113,1,-0.72,-0.08,-1.21,63.64819999999999,-190.495,-72.2182,175,75
2026-05-09 17:13:46.123,1,-0.53,0.76,-0.1,-31.90180000000001,72.79499999999999,-2.158199999999999,175,75
2026-05-09 17:13:46.148,1,-0.44,0.66,0.33,-39.8918,92.975,14.671800000000001,175,75
2026-05-09 17:13:46.162,1,-0.37,0.59,0.54,-55.68180000000001,88.215,29.861800000000002,175,75
2026-05-09 17:13:46.162,1,-0.32,0.54,0.56,-75.8618,65.41499999999999,44.2518,175,75
2026-05-09 17:13:46.178,1,-0.24,0.67,0.54,-97.33180000000002,27.125,56.561800000000005,175,75
2026-05-09 17:13:46.189,1,-0.22,0.79,0.48,-108.12180000000001,-4.094999999999999,61.0218,175,75
2026-05-09 17:13:46.201,1,-0.21,0.97,0.33,-113.9118,-33.425,57.421800000000005,175,75
2026-05-09 17:13:46.208,1,-0.16,1.14,0.3,-114.58180000000002,-39.035,54.6118,175,75
2026-05-09 17:13:46.222,1,-0.12,1.21,0.37,-112.02180000000001,-43.125,53.701800000000006,175,75
2026-05-09 17:13:46.222,1,-0.08,1.26,0.49,-107.27180000000001,-51.905,53.5218,175,75
2026-05-09 17:13:46.246,1,-0.04,1.29,0.59,-101.5918,-60.315,51.6918,175,75
2026-05-09 17:13:46.279,1,-0.01,1.23,0.74,-90.0118,-57.695,53.701800000000006,175,75
2026-05-09 17:13:46.293,1,0.0,1.2,0.82,-88.61180000000002,-49.585,56.5018,175,75
2026-05-09 17:13:46.314,1,0.04,0.99,0.96,-88.30180000000001,-27.755,62.171800000000005,175,75
2026-05-09 17:13:46.315,1,0.03,0.92,0.93,-88.9718,-12.264999999999999,66.0218,175,75
2026-05-09 17:13:46.325,1,0.05,0.84,0.92,-90.0118,9.315000000000001,68.1518,175,75
2026-05-09 17:13:46.335,1,0.11,0.75,0.93,-91.2918,32.185,69.0018,175,75
2026-05-09 17:13:46.346,1,0.15,0.64,1.0,-95.5018,52.915,72.9118,175,75
2026-05-09 17:13:46.373,1,0.28,0.44,1.17,-115.2518,74.13499999999999,87.3618,175,75
2026-05-09 17:13:46.395,1,0.28,0.19,1.31,-136.2918,82.48500000000001,91.9918,175,75
2026-05-09 17:13:46.406,1,0.29,-0.42,1.4,-159.3418,92.065,110.8918,175,75
2026-05-09 17:13:46.421,1,0.27,-0.85,1.41,-177.0218,87.85499999999999,122.3618,175,75
2026-05-09 17:13:46.431,1,0.18,-1.03,1.43,-190.7418,81.025,129.7318,175,75
2026-05-09 17:13:46.431,1,0.2,-1.01,1.42,-197.0218,82.85499999999999,134.61180000000002,175,75
2026-05-09 17:13:46.437,1,0.14,-0.93,1.41,-199.64180000000002,86.875,134.1318,175,75
2026-05-09 17:13:46.456,1,0.06,-0.99,1.51,-203.1218,89.375,138.8218,175,75
2026-05-09 17:13:46.469,1,0.1,-1.17,1.66,-208.30180000000001,82.185,144.1918,175,75
2026-05-09 17:13:46.480,1,0.21,-1.25,1.75,-205.6218,57.065000000000005,148.2118,175,75
2026-05-09 17:13:46.486,1,0.21,-1.04,1.64,-201.6618,26.395000000000003,153.4518,175,75
2026-05-09 17:13:46.553,1,0.13,-0.75,1.47,-182.14180000000002,-28.545,162.9118,175,75
2026-05-09 17:13:46.553,1,1.01,-0.01,1.78,-138.7918,-74.765,171.3818,175,75
2026-05-09 17:13:46.581,1,-2.45,2.43,1.89,-74.2218,-137.385,197.1118,175,75
2026-05-09 17:13:46.581,1,6.26,1.44,4.58,3.8881999999999906,103.215,189.1218,175,75
2026-05-09 17:13:46.591,1,0.47,0.0,6.13,-36.841800000000006,-243.855,79.67179999999999,175,75
2026-05-09 17:13:46.602,1,2.44,-9.71,2.44,-274.0318,-116.965,37.3618,175,75
2026-05-09 17:13:46.618,1,2.63,-1.65,-1.3,-423.67179999999996,-302.20500000000004,103.8818,175,75
2026-05-09 17:13:46.630,1,-1.29,1.72,-1.5,-106.6618,-134.585,107.48179999999999,175,75
2026-05-09 17:13:46.641,1,-0.56,1.94,0.73,88.03819999999999,205.965,152.1718,175,75
2026-05-09 17:13:46.656,1,0.47,0.78,2.69,2.3681999999999945,178.525,103.70179999999999,175,75
2026-05-09 17:13:46.674,1,-0.42,0.27,1.71,-128.61180000000002,-24.215,46.9918,175,75
2026-05-09 17:13:46.688,1,0.24,0.41,0.56,-115.92180000000002,-57.515,55.651799999999994,175,75
2026-05-09 17:13:46.699,1,-0.09,-0.07,0.21,-70.5618,-19.585,41.201800000000006,175,75
2026-05-09 17:13:46.699,1,-0.11,-0.04,0.5,-48.061800000000005,-3.3649999999999984,39.0018,175,75
2026-05-09 17:13:46.723,1,-0.22,0.14,1.11,-21.841800000000006,6.324999999999999,11.321800000000001,175,75
2026-05-09 17:13:46.752,1,-0.05,-0.01,0.72,-16.841800000000006,-10.135,-2.578199999999999,175,75
2026-05-09 17:13:46.774,1,-0.25,-0.16,0.69,37.8582,20.535000000000004,-35.01819999999999,175,75
2026-05-09 17:13:46.774,1,-0.11,-0.31,0.85,67.6682,34.565,-44.5282,175,75
2026-05-09 17:13:46.806,1,0.48,-0.66,0.79,97.3682,28.525,-51.3582,175,75
2026-05-09 17:13:46.816,1,0.49,-1.19,1.31,87.97819999999999,37.005,-31.238200000000003,175,75
2026-05-09 17:13:46.850,1,0.96,0.35,1.54,42.188199999999995,101.875,-50.938199999999995,175,75
2026-05-09 17:13:46.880,1,0.32,0.52,1.39,-6.231800000000007,77.005,-35.7482,175,75
2026-05-09 17:13:46.908,1,-0.57,0.13,0.39,-152.45180000000002,108.035,42.3018,175,75
2026-05-09 17:13:46.918,1,-0.79,0.03,0.53,-183.36180000000002,193.82500000000002,69.4918,175,75
2026-05-09 17:13:46.929,1,-1.11,-0.11,0.8,-196.3518,241.87500000000003,104.31179999999999,175,75
2026-05-09 17:13:46.947,1,-0.36,-0.51,1.17,-213.4218,242.61499999999998,111.4418,175,75
2026-05-09 17:13:46.958,1,0.41,-0.63,1.72,-240.68179999999998,194.625,122.42179999999999,175,75
2026-05-09 17:13:46.973,1,0.51,-0.4,1.64,-257.8718,165.655,115.2218,175,75
2026-05-09 17:13:46.973,1,0.49,-0.16,1.52,-266.2318,149.13500000000002,110.2218,175,75
2026-05-09 17:13:46.985,1,0.5,-0.05,1.55,-268.0018,153.76500000000001,110.7718,175,75
2026-05-09 17:13:46.997,1,0.55,0.01,1.69,-264.95180000000005,150.595,107.3618,175,75
2026-05-09 17:13:47.009,1,0.67,0.05,1.78,-254.7718,118.095,100.4118,175,75
2026-05-09 17:13:47.022,1,0.7,0.15,1.76,-247.14180000000002,84.255,94.98179999999999,175,75
2026-05-09 17:13:47.039,1,0.71,0.26,1.75,-240.56180000000003,60.904999999999994,94.1918,175,75
2026-05-09 17:13:47.039,1,0.66,0.31,1.76,-235.37179999999998,33.955,91.9318,175,75
2026-05-09 17:13:47.063,1,0.62,0.34,1.76,-223.4818,3.155000000000001,86.56179999999999,175,75
2026-05-09 17:13:47.063,1,0.53,0.4,1.7,-198.61180000000002,-26.294999999999998,70.2218,175,75
2026-05-09 17:13:47.086,1,0.46,0.49,1.66,-175.86180000000002,-43.915,51.321799999999996,175,75
2026-05-09 17:13:47.090,1,0.37,0.65,1.53,-139.5218,-53.365,23.1518,175,75
2026-05-09 17:13:47.108,1,0.36,0.85,1.46,-103.8518,-47.385,6.2018,175,75
2026-05-09 17:13:47.118,1,0.31,1.11,1.52,-57.451800000000006,-29.585,-7.7682,175,75
2026-05-09 17:13:47.131,1,0.3,1.2,1.58,-27.631800000000013,-18.244999999999997,-21.6082,175,75
2026-05-09 17:13:47.172,1,0.38,1.59,1.28,125.22819999999999,-22.695,-103.6782,175,75
2026-05-09 17:13:47.187,1,0.43,1.47,1.22,158.64819999999997,-14.825,-114.7782,175,75
2026-05-09 17:13:47.208,1,0.53,1.12,1.08,220.2282,14.375,-139.7782,175,75
2026-05-09 17:13:47.221,1,0.55,1.08,1.04,241.2082,27.425000000000004,-147.3382,175,75
2026-05-09 17:13:47.221,1,0.62,1.08,1.18,261.5782,31.395000000000003,-145.8082,175,75
2026-05-09 17:13:47.231,1,0.56,1.03,1.38,294.5582,-7.994999999999999,-140.6882,175,75
2026-05-09 17:13:47.246,1,0.55,0.78,1.72,312.3682,-128.125,-125.8082,175,75
2026-05-09 17:13:47.257,1,0.42,0.4,1.81,316.20820000000003,-217.325,-146.7882,175,75
2026-05-09 17:13:47.268,1,0.19,0.16,1.72,312.79819999999995,-274.345,-168.00820000000002,175,75
2026-05-09 17:13:47.284,1,-0.03,-0.05,1.45,297.79819999999995,-329.095,-177.2182,175,75
2026-05-09 17:13:47.306,1,-0.38,-0.3,0.8,279.6882,-355.01500000000004,-198.5582,175,75
2026-05-09 17:13:47.317,1,-8.77,-5.9,-5.34,75.59819999999999,-723.485,-181.8482,175,75
2026-05-09 17:13:47.328,1,-6.39,-4.55,-7.54,3.5881999999999934,-446.535,166.5618,175,75
2026-05-09 17:13:47.341,1,4.96,-0.73,3.82,241.63819999999998,685.2950000000001,110.1018,175,75
2026-05-09 17:13:47.357,1,2.82,2.49,4.17,-16.171800000000005,288.585,-5.6282,175,75
2026-05-09 17:13:47.357,1,-0.26,0.84,2.45,109.92819999999999,134.19500000000002,-29.2882,175,75
2026-05-09 17:13:47.374,1,1.55,-2.69,1.51,47.368199999999995,-44.405,-29.168200000000002,175,75
2026-05-09 17:13:47.374,1,0.77,-1.65,0.64,-60.311800000000005,-147.025,19.1318,175,75
2026-05-09 17:13:47.394,1,0.41,0.02,1.7,-17.201800000000006,-51.964999999999996,43.8818,175,75
2026-05-09 17:13:47.407,1,0.24,0.21,1.04,-44.8318,-64.88499999999999,33.0918,175,75
2026-05-09 17:13:47.418,1,0.02,0.21,0.75,2.1281999999999925,-38.795,29.2518,175,75
2026-05-09 17:13:47.429,1,0.22,-0.0,0.87,24.628199999999993,3.6449999999999996,22.4218,175,75
2026-05-09 17:13:47.439,1,-0.12,0.04,0.89,38.038199999999996,-4.824999999999999,3.7018000000000004,175,75
2026-05-09 17:13:47.451,1,-0.21,0.09,1.19,54.7482,34.865,-10.9982,175,75
2026-05-09 17:13:47.473,1,0.01,-0.25,1.27,51.20819999999999,26.575000000000003,-41.3582,175,75
2026-05-09 17:13:47.481,1,-0.04,-0.25,1.38,54.92819999999999,49.315000000000005,-53.5582,175,75
2026-05-09 17:13:47.492,1,0.26,-0.34,1.32,45.59819999999999,46.87500000000001,-62.15820000000001,175,75
2026-05-09 17:13:47.503,1,0.34,-0.46,1.24,31.208199999999994,48.285000000000004,-71.1782,175,75
2026-05-09 17:13:47.516,1,0.5,-0.54,1.29,3.4081999999999937,58.285000000000004,-58.678200000000004,175,75
2026-05-09 17:13:47.528,1,0.7,-0.63,1.36,2.3081999999999923,63.464999999999996,-60.3882,175,75
2026-05-09 17:13:47.538,1,0.87,-0.58,1.41,-3.1818000000000097,53.154999999999994,-54.1682,175,75
2026-05-09 17:13:47.549,1,0.9,-0.51,1.28,-23.79180000000001,54.135,-46.178200000000004,175,75
2026-05-09 17:13:47.560,1,1.09,-0.6,1.13,-42.57180000000001,69.745,-38.798199999999994,175,75
2026-05-09 17:13:47.574,1,1.03,-0.73,1.32,-46.171800000000005,168.155,-33.2482,175,75
2026-05-09 17:13:47.597,1,1.1,-0.62,1.85,-48.24180000000001,255.845,-46.7882,175,75
2026-05-09 17:13:47.620,1,-0.82,-0.17,1.96,-204.58180000000002,179.925,-11.238199999999999,175,75
2026-05-09 17:13:47.620,1,-0.49,-0.59,1.68,-281.17179999999996,81.57499999999999,31.3218,175,75
2026-05-09 17:13:47.631,1,-0.96,-1.06,1.6,-319.8918,-48.305,60.7718,175,75
2026-05-09 17:13:47.643,1,-0.96,-0.97,1.03,-314.2818,-83.185,77.84179999999999,175,75
2026-05-09 17:13:47.668,1,-0.28,-0.52,0.85,-296.9018,-79.155,86.56179999999999,175,75
2026-05-09 17:13:47.678,1,0.37,-0.11,1.1,-266.66179999999997,-76.10499999999999,95.7118,175,75
2026-05-09 17:13:47.678,1,0.53,0.18,1.24,-247.20180000000002,-91.41499999999999,98.6418,175,75
2026-05-09 17:13:47.701,1,0.4,0.8,1.05,-230.8618,-91.655,81.56179999999999,175,75
2026-05-09 17:13:47.711,1,0.37,1.05,1.01,-217.69180000000003,-58.185,79.4918,175,75
2026-05-09 17:13:47.711,1,0.43,1.2,1.15,-192.5718,-25.435,75.8918,175,75
2026-05-09 17:13:47.740,1,0.57,1.31,1.4,-165.6218,-10.805,68.9418,175,75
2026-05-09 17:13:47.750,1,0.72,1.48,1.63,-139.4018,-16.044999999999998,55.1018,175,75
2026-05-09 17:13:47.750,1,0.76,1.77,1.71,-112.6318,-27.085,37.5418,175,75
2026-05-09 17:13:47.762,1,0.73,2.07,1.55,-81.7818,-12.575,7.911800000000001,175,75
2026-05-09 17:13:47.783,1,0.77,2.09,1.4,-43.18180000000001,23.405,-18.0082,175,75
2026-05-09 17:13:47.783,1,0.72,1.94,1.4,-18.731800000000007,69.685,-30.9982,175,75
2026-05-09 17:13:47.793,1,0.81,1.91,1.58,3.468199999999996,92.185,-39.8382,175,75
2026-05-09 17:13:47.826,1,0.86,2.27,1.34,32.12819999999999,30.845,-71.6682,175,75
2026-05-09 17:13:47.842,1,0.82,2.3,1.21,40.718199999999996,5.355,-73.5582,175,75
2026-05-09 17:13:47.842,1,0.8,2.28,1.13,45.83819999999999,-27.814999999999998,-73.18820000000001,175,75
2026-05-09 17:13:47.855,1,0.73,2.17,0.99,51.69819999999999,-59.585,-80.93820000000001,175,75
2026-05-09 17:13:47.867,1,0.71,2.06,0.87,58.038199999999996,-89.215,-96.2382,175,75
2026-05-09 17:13:47.879,1,0.58,1.94,0.78,60.59819999999999,-114.82499999999999,-108.9782,175,75
2026-05-09 17:13:47.889,1,0.54,1.89,0.91,64.4982,-120.495,-119.22820000000002,175,75
2026-05-09 17:13:47.903,1,0.56,1.93,1.44,84.0782,-146.045,-125.56819999999999,175,75
2026-05-09 17:13:47.910,1,0.72,1.62,1.7,115.9082,-184.70499999999998,-169.8382,175,75
2026-05-09 17:13:47.932,1,-6.09,1.6,-1.52,89.8082,-567.8149999999999,-240.2682,175,75
2026-05-09 17:13:47.943,1,-11.68,-6.96,-9.72,-147.7518,-1283.065,-654.4082,175,75
2026-05-09 17:13:47.979,1,2.79,-1.59,6.27,75.22819999999999,860.595,-231.47820000000002,175,75
2026-05-09 17:13:47.979,1,0.8,-5.03,4.74,13.038199999999993,-41.905,-107.0282,175,75
2026-05-09 17:13:47.992,1,2.7,-4.21,2.3,187.1282,-247.995,-3.0081999999999987,175,75
2026-05-09 17:13:48.004,1,1.05,-1.7,-0.15,112.0582,-402.08500000000004,70.4118,175,75
2026-05-09 17:13:48.035,1,1.77,-0.44,0.79,192.9782,206.69500000000002,-97.2782,175,75
2026-05-09 17:13:48.046,1,0.66,0.03,1.94,143.4682,164.13500000000002,-86.7282,175,75
2026-05-09 17:13:48.064,1,0.02,0.33,1.66,34.4982,-173.67499999999998,-54.65820000000001,175,75
2026-05-09 17:13:48.075,1,-1.48,-0.81,0.12,-141.05180000000001,-521.295,17.0518,175,75
2026-05-09 17:13:48.085,1,-0.22,-0.52,-0.4,-249.2818,-481.045,24.9218,175,75
2026-05-09 17:13:48.105,1,-0.3,0.39,-0.32,-282.2718,-307.02500000000003,83.8218,175,75
2026-05-09 17:13:48.121,1,-1.05,-0.67,-1.01,-480.8618,-160.565,158.6418,175,75
2026-05-09 17:13:48.141,1,-0.55,-1.34,-0.29,-466.05179999999996,-80.745,167.1718,175,75
2026-05-09 17:13:48.151,1,-0.3,-1.63,0.3,-434.8918,-55.985,172.5418,175,75
2026-05-09 17:13:48.173,1,-0.29,-1.53,0.62,-471.47180000000003,-54.644999999999996,174.0018,175,75
2026-05-09 17:13:48.173,1,-0.16,-1.15,0.77,-500.7418,-31.784999999999997,171.8118,175,75
2026-05-09 17:13:48.186,1,0.07,-0.9,1.04,-489.8918,-19.154999999999998,171.1418,175,75
2026-05-09 17:13:48.192,1,0.24,-0.69,1.31,-478.6718000000001,-3.914999999999999,166.1418,175,75
2026-05-09 17:13:48.205,1,0.31,-0.34,1.55,-479.22180000000003,-0.8049999999999997,168.1518,175,75
2026-05-09 17:13:48.228,1,0.37,-0.17,1.64,-481.72180000000003,-12.575,164.5518,175,75
2026-05-09 17:13:48.238,1,0.35,-0.14,1.65,-489.7718,-41.415,161.4418,175,75
2026-05-09 17:13:48.238,1,0.27,-0.24,1.65,-491.5318000000001,-35.685,165.9518,175,75
2026-05-09 17:13:48.249,1,0.37,-0.49,1.79,-483.7918000000001,-24.345,162.1718,175,75
2026-05-09 17:13:48.260,1,0.5,-0.65,2.0,-473.18180000000007,-5.434999999999999,160.6518,175,75
2026-05-09 17:13:48.271,1,0.78,-0.89,2.3,-448.42179999999996,31.395000000000003,156.7518,175,75
2026-05-09 17:13:48.290,1,1.09,-0.96,2.62,-413.55179999999996,70.655,156.5618,175,75
2026-05-09 17:13:48.310,1,1.29,-0.69,2.96,-372.94180000000006,117.73500000000001,150.6518,175,75
2026-05-09 17:13:48.319,1,1.54,-0.53,3.17,-343.30179999999996,167.305,134.2518,175,75
2026-05-09 17:13:48.331,1,2.1,0.34,4.01,-210.4418,233.525,52.6018,175,75
2026-05-09 17:13:48.340,1,2.06,0.62,4.0,-125.1918,263.645,-30.3282,175,75
2026-05-09 17:13:48.351,1,2.04,1.41,4.0,-73.6718,283.28499999999997,-78.79820000000001,175,75
2026-05-09 17:13:48.351,1,1.87,2.32,4.1,-17.201800000000006,262.245,-135.2682,175,75
2026-05-09 17:13:48.366,1,1.73,2.56,4.17,90.9082,187.85500000000002,-194.5882,175,75
2026-05-09 17:13:48.373,1,1.56,1.2,3.75,262.9782,83.405,-239.7782,175,75
2026-05-09 17:13:48.393,1,1.41,0.1,3.2,374.43819999999994,-7.994999999999999,-303.1282,175,75
2026-05-09 17:13:48.406,1,1.05,-0.44,2.75,424.19820000000004,-32.455,-313.97819999999996,175,75
2026-05-09 17:13:48.416,1,0.88,-0.77,2.47,433.2182,-61.595,-346.0582,175,75
2026-05-09 17:13:48.427,1,0.71,-0.69,1.92,423.4682,-94.58500000000001,-386.23819999999995,175,75
2026-05-09 17:13:48.437,1,0.42,-0.52,1.17,450.2282,-72.815,-409.65819999999997,175,75
2026-05-09 17:13:48.446,1,0.39,-0.98,1.12,495.4782,-20.255,-424.16819999999996,175,75
2026-05-09 17:13:48.462,1,0.55,-1.67,1.44,547.6082,11.515,-434.28819999999996,175,75
2026-05-09 17:13:48.474,1,0.45,-3.16,1.33,584.4982,-25.744999999999997,-424.77819999999997,175,75
2026-05-09 17:13:48.485,1,-0.19,-3.24,0.83,578.1582,-36.715,-410.3882,175,75
2026-05-09 17:13:48.495,1,-0.51,-2.54,0.15,585.8381999999999,34.505,-377.8282,175,75
2026-05-09 17:13:48.506,1,-0.61,-2.58,0.1,622.3682,86.08500000000001,-351.23819999999995,175,75
2026-05-09 17:13:48.529,1,0.25,-3.0,0.6,653.4082,76.14500000000001,-261.78819999999996,175,75
2026-05-09 17:13:48.540,1,0.44,-3.35,0.7,637.3081999999999,14.375,-247.0282,175,75
2026-05-09 17:13:48.563,1,0.31,-3.57,0.75,636.3281999999999,-52.695,-232.8282,175,75
2026-05-09 17:13:48.563,1,0.04,-4.5,0.32,631.0282,-119.95500000000001,-245.62820000000002,175,75
2026-05-09 17:13:48.575,1,-0.54,-4.94,-0.19,620.4182,-108.185,-235.8082,175,75
2026-05-09 17:13:48.586,1,-3.44,-5.57,-0.86,588.3381999999999,-96.905,-214.9582,175,75
2026-05-09 17:13:48.596,1,1.24,-4.05,0.47,574.6881999999999,-151.715,-156.9682,175,75
2026-05-09 17:13:48.607,1,0.88,-4.2,-0.4,395.3582,-265.015,-210.6282,175,75
2026-05-09 17:13:48.628,1,-1.19,-3.75,-1.1,311.57820000000004,-223.185,-201.0582,175,75
2026-05-09 17:13:48.645,1,0.14,-2.22,0.37,379.8682,-84.345,-213.0682,175,75
2026-05-09 17:13:48.666,1,-0.24,-1.87,1.44,388.6482,-124.58500000000001,-172.2782,175,75
2026-05-09 17:13:48.693,1,-0.2,-1.96,1.88,358.70820000000003,-193.67499999999998,-154.5882,175,75
2026-05-09 17:13:48.705,1,-0.98,-1.07,0.66,192.66819999999998,-349.095,-150.4482,175,75
2026-05-09 17:13:48.717,1,-1.2,-0.3,-0.06,142.0582,-288.485,-131.8482,175,75
2026-05-09 17:13:48.756,1,-0.74,0.76,-0.57,57.66819999999999,95.845,-31.6082,175,75
2026-05-09 17:13:48.762,1,-0.65,0.82,-0.08,28.218199999999996,166.085,-8.798199999999998,175,75
2026-05-09 17:13:48.775,1,-0.38,0.85,0.58,-0.37180000000000746,222.365,15.5318,175,75
2026-05-09 17:13:48.786,1,-0.11,0.97,1.11,-12.201800000000006,200.235,27.9118,175,75
2026-05-09 17:13:48.797,1,0.08,1.12,1.44,-16.47180000000001,157.305,32.6618,175,75
2026-05-09 17:13:48.807,1,0.26,1.28,1.61,-22.511800000000008,109.805,38.821799999999996,175,75
2026-05-09 17:13:48.807,1,0.4,1.41,1.63,-18.61180000000001,51.635,39.6118,175,75
2026-05-09 17:13:48.818,1,0.34,1.35,1.27,-7.271800000000006,-12.634999999999998,20.6518,175,75
2026-05-09 17:13:48.829,1,0.36,1.33,0.97,-7.6318000000000055,-24.765,15.4118,175,75
2026-05-09 17:13:48.852,1,0.36,1.07,0.44,-13.421800000000005,-7.875,9.1318,175,75
2026-05-09 17:13:48.859,1,0.33,0.9,0.51,-15.981800000000007,24.314999999999998,4.981800000000001,175,75
2026-05-09 17:13:48.882,1,0.35,0.88,0.82,-18.551800000000007,48.955000000000005,7.111800000000001,175,75
2026-05-09 17:13:48.893,1,0.39,0.84,1.12,-25.131800000000013,44.075,11.4418,175,75
2026-05-09 17:13:48.913,1,0.38,0.59,1.39,-90.0718,-66.045,53.5818,175,75
2026-05-09 17:13:48.922,1,0.37,0.52,1.31,-104.70180000000002,-74.955,65.5918,175,75
2026-05-09 17:13:48.967,1,0.36,0.06,0.95,-145.9818,-74.82499999999999,75.1618,175,75
2026-05-09 17:13:48.967,1,0.31,-0.06,0.87,-158.9718,-54.765,82.3618,175,75
2026-05-09 17:13:48.984,1,0.23,-0.29,0.85,-170.2518,-10.434999999999999,109.2518,175,75
2026-05-09 17:13:48.995,1,0.04,-0.45,0.89,-173.55180000000001,4.375,114.31179999999999,175,75
2026-05-09 17:13:49.007,1,0.06,-0.72,1.05,-173.1218,49.255,131.9318,175,75
2026-05-09 17:13:49.007,1,0.08,-0.67,1.17,-169.4618,67.79499999999999,144.6718,175,75
2026-05-09 17:13:49.017,1,0.13,-0.56,1.18,-166.5918,73.89500000000001,153.3318,175,75
2026-05-09 17:13:49.017,1,0.05,-0.43,1.14,-169.0318,71.39500000000001,158.52179999999998,175,75
2026-05-09 17:13:49.038,1,0.06,-0.3,1.19,-166.05180000000001,81.935,181.5618,175,75
2026-05-09 17:13:49.047,1,0.17,-0.21,1.25,-162.33180000000002,65.655,192.6018,175,75
2026-05-09 17:13:49.073,1,0.05,0.1,1.04,-159.2818,5.295000000000002,203.3918,175,75
2026-05-09 17:13:49.084,1,-0.03,0.23,1.05,-159.7718,-14.954999999999998,211.8118,175,75
2026-05-09 17:13:49.136,1,-0.12,0.42,1.03,-160.6818,-48.245,219.8018,175,75
2026-05-09 17:13:49.136,1,-0.12,0.6,0.94,-161.4118,-68.425,212.7818,175,75
2026-05-09 17:13:49.147,1,-0.05,0.87,0.96,-161.17180000000002,-71.045,206.1418,175,75
2026-05-09 17:13:49.147,1,-2.21,1.78,1.12,-136.4118,-70.745,234.7318,175,75
2026-05-09 17:13:49.164,1,3.24,1.21,1.65,-123.30180000000001,-197.755,250.9518,175,75
2026-05-09 17:13:49.175,1,2.02,-1.76,1.54,-192.45180000000002,-295.07500000000005,82.3618,175,75
2026-05-09 17:13:49.175,1,-0.59,-0.54,3.15,30.478199999999994,283.155,72.9718,175,75
2026-05-09 17:13:49.189,1,-0.4,-0.93,3.05,104.5582,80.17500000000001,64.7318,175,75
2026-05-09 17:13:49.200,1,-0.38,-1.23,2.56,-0.6818000000000097,-90.625,3.5218000000000007,175,75
2026-05-09 17:13:49.200,1,0.97,-3.12,0.29,-42.87180000000001,-25.075,18.2718,175,75
2026-05-09 17:13:49.211,1,1.05,-3.5,-1.17,-143.8518,-31.354999999999997,22.111800000000002,175,75
2026-05-09 17:13:49.228,1,0.15,-0.63,-0.79,-101.23179999999999,-40.985,54.1918,175,75
2026-05-09 17:13:49.239,1,-0.71,1.1,1.45,-36.90180000000001,123.465,83.45179999999999,175,75
2026-05-09 17:13:49.249,1,0.22,1.33,2.12,-78.18180000000001,36.205,45.1618,175,75
2026-05-09 17:13:49.261,1,-0.29,0.32,0.6,-100.2518,-14.524999999999999,35.0418,175,75
2026-05-09 17:13:49.274,1,0.22,0.42,0.29,-54.5818,16.265,50.2218,175,75
2026-05-09 17:13:49.288,1,-0.13,-0.61,0.54,-24.951800000000006,26.265,46.0818,175,75
2026-05-09 17:13:49.299,1,0.07,0.48,0.91,-65.5018,30.415,19.7318,175,75
2026-05-09 17:13:49.309,1,-0.45,0.31,0.27,-37.0818,-32.144999999999996,-3.3682,175,75
2026-05-09 17:13:49.324,1,-0.22,0.06,0.76,-17.271800000000006,40.355000000000004,-8.4982,175,75
2026-05-09 17:13:49.327,1,-0.41,-0.55,0.81,-11.11180000000001,22.244999999999997,-31.548199999999998,175,75
2026-05-09 17:13:49.342,1,-0.31,-0.92,0.92,-7.811800000000005,37.615,-37.9482,175,75
2026-05-09 17:13:49.353,1,-0.02,-1.16,1.04,-6.961800000000004,12.735,-27.6382,175,75
2026-05-09 17:13:49.368,1,0.07,-1.11,0.98,1.5781999999999954,17.855000000000004,-5.808199999999999,175,75
2026-05-09 17:13:49.378,1,0.52,-1.1,1.34,9.31819999999999,14.195,21.1418,175,75
2026-05-09 17:13:49.389,1,0.71,-1.07,1.47,17.308199999999992,-16.845,45.8918,175,75
2026-05-09 17:13:49.405,1,0.97,-1.03,1.51,-1.8418000000000063,-28.125,64.0018,175,75
2026-05-09 17:13:49.415,1,0.96,-1.35,1.26,-22.871800000000007,34.195,-5.0182,175,75
2026-05-09 17:13:49.445,1,0.87,-0.04,2.02,-43.73180000000001,36.265,-1.2981999999999996,175,75
2026-05-09 17:13:49.456,1,0.43,-0.13,2.06,-83.5518,-13.674999999999999,35.4718,175,75
2026-05-09 17:13:49.473,1,0.36,-0.78,1.58,-177.08180000000002,-99.095,66.5618,175,75
2026-05-09 17:13:49.488,1,-0.02,-0.36,1.51,-222.39180000000002,-77.935,94.8018,175,75
2026-05-09 17:13:49.516,1,0.84,-0.98,0.99,-256.2318,-14.285,141.7518,175,75
2026-05-09 17:13:49.527,1,0.97,-1.05,1.44,-223.8518,73.89500000000001,138.64180000000002,175,75
2026-05-09 17:13:49.535,1,1.04,-0.98,1.67,-189.64180000000002,145.845,139.7318,175,75
2026-05-09 17:13:49.548,1,0.97,-0.72,1.88,-156.17180000000002,213.345,129.1318,175,75
2026-05-09 17:13:49.558,1,0.79,-0.62,2.1,-128.2418,226.205,115.4718,175,75
2026-05-09 17:13:49.558,1,0.63,-0.67,2.32,-95.68180000000001,210.785,95.4718,175,75
2026-05-09 17:13:49.569,1,0.57,-0.72,2.49,-62.3918,160.41500000000002,68.2718,175,75
2026-05-09 17:13:49.584,1,0.53,-0.55,2.37,-35.8018,111.20500000000001,44.73180000000001,175,75
2026-05-09 17:13:49.595,1,0.45,-0.22,1.98,17.248199999999994,75.04499999999999,9.251800000000001,175,75
2026-05-09 17:13:49.612,1,0.4,0.06,1.76,63.408199999999994,63.895,-19.3482,175,75
2026-05-09 17:13:49.626,1,0.34,0.31,1.68,107.2482,61.815000000000005,-53.6182,175,75
2026-05-09 17:13:49.642,1,0.27,0.45,1.64,147.3682,58.525,-83.7382,175,75
2026-05-09 17:13:49.652,1,0.27,0.45,1.61,189.3182,53.464999999999996,-111.4782,175,75
2026-05-09 17:13:49.652,1,0.28,0.48,1.57,226.2082,42.005,-138.1882,175,75
2026-05-09 17:13:49.667,1,0.28,0.48,1.47,271.1482,25.415,-160.2682,175,75
2026-05-09 17:13:49.679,1,0.23,0.4,1.28,317.4882,10.595000000000002,-185.4482,175,75
2026-05-09 17:13:49.693,1,0.19,0.39,1.16,350.3582,8.765,-201.2382,175,75
2026-05-09 17:13:49.717,1,0.2,0.25,1.27,463.7682,6.635000000000002,-220.4482,175,75
2026-05-09 17:13:49.732,1,0.16,0.08,1.34,474.6282,-37.695,-213.9182,175,75
2026-05-09 17:13:49.744,1,0.05,-0.18,1.18,469.4982,-103.42500000000001,-209.6582,175,75
2026-05-09 17:13:49.754,1,-0.51,-0.57,0.37,429.6282,-222.515,-224.8382,175,75
2026-05-09 17:13:49.768,1,-0.99,-0.38,-0.24,389.55819999999994,-247.935,-222.5782,175,75
2026-05-09 17:13:49.807,1,-1.43,-0.23,-0.96,332.3682,-209.885,-203.4982,175,75
2026-05-09 17:13:49.807,1,-2.9,-0.36,-0.46,385.83820000000003,-130.135,-163.7982,175,75
2026-05-09 17:13:49.818,1,-1.38,-1.05,-0.83,280.83820000000003,-293.735,-91.7882,175,75
2026-05-09 17:13:49.832,1,-3.94,0.29,-4.33,-4.281800000000004,-140.925,22.2318,175,75
2026-05-09 17:13:49.856,1,-5.31,-0.1,-3.63,-48.9718,147.85500000000002,168.8218,175,75
2026-05-09 17:13:49.872,1,-3.62,-2.64,0.5,-44.5818,343.215,324.0618,175,75
2026-05-09 17:13:49.877,1,3.66,-8.68,4.09,-125.5018,355.78499999999997,208.2118,175,75
2026-05-09 17:13:49.895,1,3.06,-1.39,2.07,-456.29179999999997,-68.85499999999999,238.8818,175,75
2026-05-09 17:13:49.895,1,-1.51,2.56,0.76,-291.05179999999996,-57.324999999999996,230.1018,175,75
2026-05-09 17:13:49.907,1,0.26,2.55,1.42,-188.9118,11.875,218.1518,175,75
2026-05-09 17:13:49.922,1,-0.24,0.03,0.4,-198.0618,-66.35499999999999,125.34179999999999,175,75
2026-05-09 17:13:49.934,1,-0.29,-0.05,0.56,-117.39180000000002,78.465,138.2718,175,75
2026-05-09 17:13:49.958,1,-0.35,0.09,1.0,-111.2918,15.475000000000001,85.34179999999999,175,75
2026-05-09 17:13:49.981,1,0.01,-0.2,1.03,-81.5918,3.705000000000002,53.5818,175,75
2026-05-09 17:13:50.029,1,0.15,-0.45,1.22,-5.441800000000008,40.965,6.081800000000001,175,75
2026-05-09 17:13:50.039,1,0.44,-0.84,1.19,-18.241800000000005,40.785000000000004,-1.9681999999999995,175,75
2026-05-09 17:13:50.060,1,0.53,-0.89,1.3,-24.091800000000006,32.615,8.2118,175,75
2026-05-09 17:13:50.060,1,0.61,-0.95,1.35,-33.73180000000001,23.825000000000003,17.6618,175,75
2026-05-09 17:13:50.083,1,0.79,-0.58,1.37,-39.281800000000004,44.985,41.5018,175,75
2026-05-09 17:13:50.099,1,0.91,-0.74,1.5,-60.07180000000001,72.185,46.7518,175,75
2026-05-09 17:13:50.113,1,0.97,-0.54,1.67,-73.79180000000001,84.565,49.1318,175,75
2026-05-09 17:13:50.125,1,1.1,-0.42,1.44,-84.89180000000002,118.215,60.8918,175,75
2026-05-09 17:13:50.125,1,1.07,-0.44,1.4,-105.80180000000001,140.905,45.591800000000006,175,75
2026-05-09 17:13:50.139,1,0.54,-0.12,1.52,-128.67180000000002,195.04500000000002,48.761799999999994,175,75
2026-05-09 17:13:50.167,1,0.13,-0.11,2.11,-175.3718,137.675,101.81179999999999,175,75
2026-05-09 17:13:50.178,1,0.23,-0.14,2.0,-197.8118,62.12500000000001,110.8318,175,75
2026-05-09 17:13:50.190,1,0.07,-0.05,1.47,-224.58180000000002,-14.094999999999999,112.9718,175,75
2026-05-09 17:13:50.214,1,0.21,-0.15,1.23,-231.4118,20.845,119.4918,175,75
2026-05-09 17:13:50.225,1,0.68,-0.33,1.62,-215.37179999999998,43.645,111.4418,175,75
2026-05-09 17:13:50.257,1,0.79,0.1,1.84,-180.4418,52.48500000000001,77.7218,175,75
2026-05-09 17:13:50.269,1,0.67,0.16,1.89,-132.45180000000002,67.67500000000001,57.6018,175,75
2026-05-09 17:13:50.287,1,0.65,0.13,1.97,-108.0618,54.684999999999995,32.9118,175,75
2026-05-09 17:13:50.287,1,0.64,0.13,1.95,-88.36180000000002,34.805,6.501800000000001,175,75
2026-05-09 17:13:50.299,1,0.5,0.21,1.77,-51.96180000000001,15.905000000000001,-35.568200000000004,175,75
2026-05-09 17:13:50.321,1,0.36,0.35,1.53,-14.831800000000008,3.0950000000000024,-84.2282,175,75
2026-05-09 17:13:50.321,1,0.36,0.57,1.49,21.878199999999993,14.314999999999998,-118.91820000000001,175,75
2026-05-09 17:13:50.338,1,0.44,0.7,1.62,54.7482,17.365000000000002,-140.3282,175,75
2026-05-09 17:13:50.373,1,0.53,1.23,1.07,172.4882,-38.065,-216.1782,175,75
2026-05-09 17:13:50.397,1,0.49,0.57,0.61,243.7682,-60.135,-275.6282,175,75
2026-05-09 17:13:50.419,1,0.12,0.4,0.52,246.2082,-84.525,-295.9382,175,75
2026-05-09 17:13:50.433,1,-0.38,0.94,0.46,220.9682,-172.635,-292.8282,175,75
2026-05-09 17:13:50.445,1,-0.67,1.27,0.15,189.3182,-252.695,-288.97819999999996,175,75
2026-05-09 17:13:50.462,1,-1.07,1.43,-0.48,142.6682,-321.045,-283.0082,175,75
2026-05-09 17:13:50.463,1,-3.24,1.06,-1.98,77.3682,-458.365,-291.72819999999996,175,75
2026-05-09 17:13:50.485,1,-5.2,0.96,-4.38,16.448199999999993,-511.535,-237.7682,175,75
2026-05-09 17:13:50.485,1,-3.83,0.2,-4.13,-56.781800000000004,-302.02500000000003,-104.2882,175,75
2026-05-09 17:13:50.514,1,-5.73,-1.11,-4.15,-164.83180000000002,-32.935,-3.5581999999999994,175,75
2026-05-09 17:13:50.514,1,-0.08,-0.14,-1.26,-153.0018,-171.595,12.3618,175,75
2026-05-09 17:13:50.530,1,-1.21,-1.34,5.49,228.5882,498.465,90.34179999999999,175,75
2026-05-09 17:13:50.557,1,0.91,-2.03,1.66,-26.29180000000001,-470.495,-18.618199999999998,175,75
2026-05-09 17:13:50.557,1,0.56,-2.64,0.17,8.408199999999994,-176.965,13.6418,175,75
2026-05-09 17:13:50.565,1,2.35,-1.66,-0.45,60.718199999999996,-8.674999999999999,-29.4682,175,75
2026-05-09 17:13:50.579,1,2.01,-1.55,-0.52,79.4982,-234.405,-17.0282,175,75
2026-05-09 17:13:50.590,1,2.11,-0.79,0.69,99.0782,-44.525,-50.3882,175,75
2026-05-09 17:13:50.600,1,1.88,-0.79,1.44,73.94819999999999,-82.38499999999999,-53.8582,175,75
2026-05-09 17:13:50.623,1,2.14,-0.84,1.96,66.6382,-198.125,-95.7482,175,75
2026-05-09 17:13:50.623,1,1.45,-0.46,2.1,63.5282,-287.45500000000004,-134.1682,175,75
2026-05-09 17:13:50.637,1,-0.25,-0.44,1.72,-2.9418000000000077,-478.185,-102.6382,175,75
2026-05-09 17:13:50.668,1,-0.55,0.17,-1.55,-429.2818,-722.025,204.49179999999998,175,75
2026-05-09 17:13:50.690,1,-1.08,-0.39,-2.25,-444.16179999999997,-303.065,188.6418,175,75
2026-05-09 17:13:50.700,1,-0.91,-1.05,-1.66,-428.97180000000003,-11.294999999999998,203.0318,175,75
2026-05-09 17:13:50.712,1,-0.73,-1.65,-0.42,-422.0218,131.815,196.3218,175,75
2026-05-09 17:13:50.712,1,-0.05,-1.82,0.74,-433.7318,159.985,178.0318,175,75
2026-05-09 17:13:50.746,1,0.41,-1.09,1.63,-486.47180000000003,-34.705,126.6318,175,75
2026-05-09 17:13:50.760,1,0.37,-0.75,1.46,-491.84180000000003,-49.155,126.56179999999999,175,75
2026-05-09 17:13:50.770,1,0.34,-0.61,1.3,-476.47180000000003,-35.565,124.73179999999999,175,75
2026-05-09 17:13:50.782,1,0.41,-0.6,1.31,-469.5218,-11.474999999999998,117.3618,175,75
2026-05-09 17:13:50.794,1,0.52,-0.62,1.44,-469.8918,13.465000000000003,106.56179999999999,175,75
2026-05-09 17:13:50.805,1,0.69,-0.63,1.66,-468.7318,26.025,95.6518,175,75
2026-05-09 17:13:50.818,1,0.85,-0.62,2.11,-456.59180000000003,34.985,80.7118,175,75
2026-05-09 17:13:50.823,1,1.0,-0.51,2.36,-440.31180000000006,32.915,77.48179999999999,175,75
2026-05-09 17:13:50.838,1,1.08,-0.38,2.6,-411.59180000000003,42.545,66.6918,175,75
2026-05-09 17:13:50.849,1,1.16,-0.27,2.78,-385.7418,55.23500000000001,59.1918,175,75
2026-05-09 17:13:50.859,1,1.29,-0.14,3.05,-346.17179999999996,64.435,31.5018,175,75
2026-05-09 17:13:50.877,1,1.28,0.13,3.25,-267.3918,68.465,-34.8982,175,75
2026-05-09 17:13:50.890,1,1.23,0.25,3.36,-219.4018,84.13499999999999,-70.5082,175,75
2026-05-09 17:13:50.915,1,1.21,0.34,3.65,-146.3518,100.535,-124.4682,175,75
2026-05-09 17:13:50.915,1,1.17,0.39,3.86,-75.62180000000001,90.35499999999999,-170.50820000000002,175,75
2026-05-09 17:13:50.966,1,0.62,0.49,2.93,149.07819999999998,60.355,-327.4582,175,75
2026-05-09 17:13:50.979,1,0.42,0.34,2.88,221.8182,71.935,-371.84819999999996,175,75
2026-05-09 17:13:51.003,1,-0.26,-1.5,2.15,414.19820000000004,-2.1449999999999996,-485.2682,175,75
2026-05-09 17:13:51.019,1,-0.26,-1.73,2.07,449.07820000000004,-52.815,-490.5682,175,75
2026-05-09 17:13:51.019,1,-0.46,-1.77,1.74,447.8582,-94.64500000000001,-481.41819999999996,175,75
2026-05-09 17:13:51.019,1,-0.76,-1.9,1.36,462.3682,-113.185,-486.78819999999996,175,75
2026-05-09 17:13:51.038,1,-1.06,-2.06,1.12,481.32820000000004,-111.35499999999999,-485.7482,175,75
2026-05-09 17:13:51.043,1,-1.29,-2.33,0.97,504.8682,-89.155,-467.3382,175,75
2026-05-09 17:13:51.062,1,-1.3,-2.6,1.04,530.3582,-74.955,-434.28819999999996,175,75
2026-05-09 17:13:51.066,1,-1.16,-2.97,1.13,548.9482,-95.07499999999999,-402.8282,175,75
2026-05-09 17:13:51.078,1,-1.18,-3.26,1.15,555.3582,-129.765,-381.29819999999995,175,75
2026-05-09 17:13:51.088,1,-1.24,-3.4,1.23,562.9182,-166.905,-365.2682,175,75
2026-05-09 17:13:51.110,1,-1.57,-4.19,1.15,551.3882,-188.42499999999998,-328.6182,175,75
2026-05-09 17:13:51.132,1,-1.38,-4.46,1.78,519.5581999999999,-267.635,-257.8282,175,75
2026-05-09 17:13:51.177,1,-2.46,-3.42,-0.11,351.8782,-323.485,-188.6182,175,75
2026-05-09 17:13:51.177,1,-1.4,-2.32,0.57,406.69820000000004,-140.865,-180.1982,175,75
2026-05-09 17:13:51.199,1,-0.38,-2.02,0.62,365.83820000000003,-127.38499999999999,-124.4082,175,75
2026-05-09 17:13:51.213,1,-0.47,-1.55,0.12,325.2282,-101.715,-134.22820000000002,175,75
2026-05-09 17:13:51.224,1,-0.31,-0.94,-0.06,285.4782,-17.575,-106.0582,175,75
2026-05-09 17:13:51.224,1,-0.49,-0.68,0.18,252.4882,26.025,-104.40820000000001,175,75
2026-05-09 17:13:51.235,1,-0.68,-0.27,0.67,232.0582,40.175000000000004,-73.3082,175,75
2026-05-09 17:13:51.246,1,-0.52,0.1,1.04,202.3082,-1.2349999999999994,-34.1082,175,75
2026-05-09 17:13:51.295,1,-0.06,0.41,0.1,77.66819999999998,-72.63499999999999,8.6418,175,75
2026-05-09 17:13:51.295,1,-0.07,0.55,-0.11,45.3582,-25.134999999999998,18.5218,175,75
2026-05-09 17:13:51.315,1,-0.11,0.65,0.03,22.368199999999995,29.314999999999998,31.8118,175,75
2026-05-09 17:13:51.339,1,0.06,0.85,0.8,-6.051800000000007,19.375,57.7218,175,75
2026-05-09 17:13:51.350,1,0.08,1.0,0.8,-47.02180000000001,-90.745,85.8918,175,75
2026-05-09 17:13:51.379,1,0.12,0.96,0.58,-73.6118,-72.025,101.0218,175,75
2026-05-09 17:13:51.391,1,0.2,0.9,0.66,-80.5618,-58.245,100.2818,175,75
2026-05-09 17:13:51.404,1,0.28,0.85,0.73,-87.6918,-50.685,96.5018,175,75
2026-05-09 17:13:51.442,1,0.33,0.81,0.88,-100.92180000000002,-23.305,96.3218,175,75
2026-05-09 17:13:51.452,1,0.43,0.68,0.92,-107.45180000000002,-24.035,93.6418,175,75
2026-05-09 17:13:51.463,1,0.5,0.52,0.92,-115.5618,-23.244999999999997,85.8318,175,75
2026-05-09 17:13:51.494,1,0.3,-0.03,0.77,-150.6818,29.134999999999998,68.2118,175,75
2026-05-09 17:13:51.507,1,0.24,-0.57,0.92,-165.0718,44.685,70.8318,175,75
2026-05-09 17:13:51.519,1,0.37,-0.97,1.01,-176.9018,34.315,71.2618,175,75
2026-05-09 17:13:51.540,1,0.4,-1.0,1.04,-204.0318,30.355000000000004,83.9418,175,75
2026-05-09 17:13:51.582,1,0.39,-0.53,0.99,-247.81180000000003,10.175,107.5418,175,75
2026-05-09 17:13:51.593,1,0.38,-0.73,0.83,-264.34180000000003,-9.284999999999998,124.4918,175,75
2026-05-09 17:13:51.604,1,0.39,-0.52,0.9,-257.08180000000004,6.145,136.14180000000002,175,75
2026-05-09 17:13:51.631,1,0.27,-0.11,1.19,-235.07180000000002,-6.534999999999998,155.4718,175,75
2026-05-09 17:13:51.657,1,0.18,0.3,1.24,-221.3518,-35.075,174.9218,175,75
2026-05-09 17:13:51.670,1,0.25,0.51,1.42,-208.7318,-50.195,177.6018,175,75
2026-05-09 17:13:51.686,1,0.33,0.69,1.67,-192.08180000000002,-67.455,184.6118,175,75
2026-05-09 17:13:51.696,1,0.41,0.82,1.45,-181.3518,-135.195,174.8618,175,75
2026-05-09 17:13:51.707,1,2.14,-0.5,2.75,-73.3618,219.565,119.92179999999999,175,75
2026-05-09 17:13:51.720,1,2.54,-1.63,3.82,-79.52180000000001,81.755,104.8618,175,75
2026-05-09 17:13:51.733,1,-0.61,-1.88,0.81,-78.7318,-153.855,47.781800000000004,175,75
2026-05-09 17:13:51.765,1,-0.18,-0.48,0.91,-12.941800000000008,56.324999999999996,87.7218,175,75
2026-05-09 17:13:51.853,1,-0.3,0.55,1.07,-6.051800000000007,19.015,23.9418,175,75
2026-05-09 17:13:51.871,1,-0.35,0.38,1.0,-8.671800000000005,23.285000000000004,13.2718,175,75
2026-05-09 17:13:51.889,1,-0.23,0.13,0.74,-5.561800000000005,25.595,-5.4482,175,75
2026-05-09 17:13:51.904,1,0.01,-0.27,0.58,-6.721800000000009,15.655000000000001,-23.0082,175,75
2026-05-09 17:13:51.907,1,0.04,-0.55,0.6,-4.221800000000009,22.365000000000002,-41.548199999999994,175,75
2026-05-09 17:13:51.926,1,0.12,-0.82,0.68,0.3581999999999965,17.735,-50.3882,175,75
2026-05-09 17:13:51.935,1,0.21,-0.96,0.76,4.928199999999997,4.505000000000003,-49.5882,175,75
2026-05-09 17:13:51.935,1,0.3,-0.98,0.86,11.878199999999993,-7.574999999999999,-38.9182,175,75
2026-05-09 17:13:51.959,1,0.53,-0.99,0.91,18.218199999999992,-16.294999999999998,-23.0682,175,75
2026-05-09 17:13:51.966,1,0.83,-1.02,1.02,20.538199999999993,-46.045,-13.8582,175,75
2026-05-09 17:13:51.981,1,0.88,-1.23,0.91,15.598199999999995,-20.625,-6.7882,175,75
2026-05-09 17:13:51.983,1,0.97,-1.36,0.99,-7.1418000000000035,9.015,-19.3482,175,75
2026-05-09 17:13:52.006,1,1.11,-1.06,1.25,-16.781800000000004,25.595,-17.0282,175,75
2026-05-09 17:13:52.006,1,1.24,-0.75,1.72,-22.141800000000003,13.645000000000003,-33.798199999999994,175,75
2026-05-09 17:13:52.027,1,0.93,-0.35,2.17,-43.6118,-15.075,-34.718199999999996,175,75
2026-05-09 17:13:52.047,1,0.63,-0.29,2.28,-110.1318,-112.32499999999999,20.9518,175,75
2026-05-09 17:13:52.058,1,0.62,-0.48,2.07,-168.0618,-185.80499999999998,46.7518,175,75
2026-05-09 17:13:52.070,1,0.24,-0.16,1.94,-208.4818,-221.845,94.1918,175,75
2026-05-09 17:13:52.108,1,0.55,-0.85,1.53,-154.64180000000002,249.37500000000003,122.3018,175,75
2026-05-09 17:13:52.129,1,0.41,-0.86,2.2,-85.1918,378.215,96.0218,175,75
2026-05-09 17:13:52.140,1,0.4,-1.11,2.88,-61.29180000000001,359.195,68.8218,175,75
2026-05-09 17:13:52.153,1,0.52,-1.29,3.3,-67.2018,240.475,42.171800000000005,175,75
2026-05-09 17:13:52.167,1,0.48,-0.71,2.85,-39.52180000000001,84.01500000000001,1.9318000000000008,175,75
2026-05-09 17:13:52.189,1,0.27,-0.04,1.9,51.02819999999999,-0.254999999999999,-61.968199999999996,175,75
2026-05-09 17:13:52.240,1,0.05,0.38,1.49,190.5982,-22.025,-158.6782,175,75
2026-05-09 17:13:52.240,1,0.01,0.6,1.43,231.1482,-28.854999999999997,-179.4082,175,75
2026-05-09 17:13:52.268,1,-0.08,0.46,1.31,315.83820000000003,-36.175,-221.7882,175,75
2026-05-09 17:13:52.278,1,-0.03,0.32,1.25,400.90819999999997,-27.085,-245.62820000000002,175,75
2026-05-09 17:13:52.312,1,-0.38,-0.21,1.0,437.3682,-155.98499999999999,-214.8982,175,75
2026-05-09 17:13:52.325,1,-0.75,-0.43,0.55,415.7182,-210.745,-217.6382,175,75
2026-05-09 17:13:52.335,1,-1.03,-0.36,0.09,400.2282,-229.345,-211.0582,175,75
2026-05-09 17:13:52.357,1,-1.69,-0.34,-0.62,357.4882,-204.405,-184.8382,175,75
2026-05-09 17:13:52.369,1,-1.93,-0.43,-0.94,322.9782,-189.405,-159.8982,175,75
2026-05-09 17:13:52.380,1,-2.05,-0.61,-1.29,285.1082,-171.23499999999999,-126.2382,175,75
2026-05-09 17:13:52.403,1,-1.96,-0.68,-1.53,252.3082,-140.745,-94.1082,175,75
2026-05-09 17:13:52.403,1,-2.51,-0.08,-1.42,232.4882,-37.635,-40.9982,175,75
2026-05-09 17:13:52.427,1,-2.29,0.68,-1.84,59.438199999999995,-71.10499999999999,43.5218,175,75
2026-05-09 17:13:52.437,1,-1.79,0.57,-1.99,-18.79180000000001,-3.545,99.92179999999999,175,75
2026-05-09 17:13:52.452,1,1.57,-2.57,2.06,-31.96180000000001,387.065,109.2518,175,75
2026-05-09 17:13:52.470,1,0.93,-4.38,-1.03,-542.4518,-595.685,128.0318,175,75
2026-05-09 17:13:52.487,1,0.51,1.24,-1.89,-425.7418,-72.38499999999999,294.8018,175,75
2026-05-09 17:13:52.538,1,-0.03,0.43,0.94,-81.4118,38.585,115.4118,175,75
2026-05-09 17:13:52.555,1,-0.19,0.17,1.33,-46.1118,52.855,91.0818,175,75
2026-05-09 17:13:52.567,1,0.03,-0.04,1.31,-54.1618,18.585,80.95179999999999,175,75
2026-05-09 17:13:52.622,1,0.06,-0.22,1.31,-34.46180000000001,16.395000000000003,12.5418,175,75
2026-05-09 17:13:52.630,1,0.0,-0.42,1.35,-23.001800000000003,32.675000000000004,-1.0581999999999994,175,75
2026-05-09 17:13:52.691,1,0.7,-0.69,1.59,-17.271800000000006,56.455000000000005,30.3418,175,75
2026-05-09 17:13:52.704,1,0.69,-0.78,1.54,-36.4718,88.70500000000001,30.3418,175,75
2026-05-09 17:13:52.726,1,0.89,-0.36,1.91,-72.7518,177.85500000000002,34.431799999999996,175,75
2026-05-09 17:13:52.742,1,0.27,0.1,1.88,-119.95180000000002,180.35500000000002,60.281800000000004,175,75
2026-05-09 17:13:52.753,1,-0.11,0.24,1.88,-141.11180000000002,170.535,85.8918,175,75
2026-05-09 17:13:52.779,1,0.1,0.22,1.86,-150.5618,128.095,108.6418,175,75
2026-05-09 17:13:52.790,1,0.13,0.22,1.54,-139.4018,124.625,109.1918,175,75
2026-05-09 17:13:52.834,1,0.9,0.7,2.19,-87.87180000000001,101.63499999999999,90.1018,175,75
2026-05-09 17:13:52.844,1,0.83,0.91,2.12,-74.2218,65.785,88.5818,175,75
2026-05-09 17:13:52.844,1,0.71,0.94,2.01,-57.27180000000001,27.915,78.2718,175,75
2026-05-09 17:13:52.884,1,0.34,0.82,1.68,7.798199999999994,-81.965,19.5518,175,75
2026-05-09 17:13:52.896,1,0.29,0.81,1.5,32.6082,-95.255,-0.38819999999999943,175,75
2026-05-09 17:13:52.907,1,0.28,0.85,1.17,53.27819999999999,-94.345,-28.798199999999998,175,75
2026-05-09 17:13:52.933,1,0.14,1.18,0.64,89.0182,-24.345,-64.1082,175,75
2026-05-09 17:13:52.952,1,0.18,1.39,0.65,153.2182,30.845,-93.79820000000001,175,75
2026-05-09 17:13:52.964,1,0.29,1.36,0.68,179.4382,31.395000000000003,-101.3582,175,75
2026-05-09 17:13:52.979,1,0.51,1.15,0.71,194.13819999999998,22.855000000000004,-123.4982,175,75
2026-05-09 17:13:53.001,1,-4.48,1.48,-0.13,201.1482,-114.095,-129.7782,175,75
2026-05-09 17:13:53.013,1,-2.34,-3.98,-4.68,-69.46180000000001,-443.065,-78.3682,175,75
2026-05-09 17:13:53.038,1,-0.87,1.07,-3.63,128.4082,347.85499999999996,147.1718,175,75
2026-05-09 17:13:53.049,1,3.44,-0.54,-0.08,202.60819999999998,224.805,88.8218,175,75
2026-05-09 17:13:53.049,1,1.69,-0.51,2.32,174.9882,328.895,-69.8982,175,75
2026-05-09 17:13:53.072,1,0.43,-1.59,1.58,86.75819999999999,-146.175,-70.4482,175,75
2026-05-09 17:13:53.082,1,0.07,-1.18,1.62,74.4382,-79.88499999999999,-66.90820000000001,175,75
2026-05-09 17:13:53.115,1,0.09,-1.01,0.86,-2.0818000000000083,-19.215,-35.4482,175,75
2026-05-09 17:13:53.155,1,0.26,0.27,0.43,87.12819999999999,-1.5949999999999989,-78.6782,175,75
2026-05-09 17:13:53.179,1,-1.16,0.53,-0.16,-82.0818,-33.975,-29.048199999999998,175,75
2026-05-09 17:13:53.189,1,-1.55,0.46,-0.19,-116.6618,-0.7449999999999974,16.0218,175,75
2026-05-09 17:13:53.189,1,-1.04,0.26,-0.03,-144.64180000000002,9.985,52.9118,175,75
2026-05-09 17:13:53.210,1,-0.64,0.37,0.27,-177.9418,5.845000000000002,83.2718,175,75
2026-05-09 17:13:53.221,1,-0.33,0.44,0.34,-219.70180000000002,-20.744999999999997,104.06179999999999,175,75
2026-05-09 17:13:53.237,1,-0.15,0.46,0.26,-247.45180000000002,-15.745,119.5518,175,75
2026-05-09 17:13:53.245,1,0.1,0.41,0.45,-251.9018,24.865000000000002,124.5518,175,75
2026-05-09 17:13:53.273,1,0.39,0.47,0.84,-245.8018,52.305,124.5518,175,75
2026-05-09 17:13:53.273,1,0.56,0.55,1.09,-241.8418,55.714999999999996,120.1618,175,75
2026-05-09 17:13:53.276,1,0.76,0.69,1.43,-240.31180000000003,45.475,109.3718,175,75
2026-05-09 17:13:53.292,1,0.9,0.9,1.74,-229.70180000000002,36.515,96.20179999999999,175,75
2026-05-09 17:13:53.305,1,0.99,1.15,1.84,-217.39180000000002,5.655000000000001,80.2818,175,75
2026-05-09 17:13:53.319,1,0.99,1.27,1.78,-202.8118,-17.145,68.2718,175,75
2026-05-09 17:13:53.331,1,0.89,1.36,1.74,-188.55180000000001,-20.744999999999997,57.48180000000001,175,75
2026-05-09 17:13:53.350,1,0.93,1.28,1.82,-159.0318,-32.085,37.7218,175,75
2026-05-09 17:13:53.360,1,0.77,1.19,1.79,-139.1618,-36.175,14.061800000000002,175,75
2026-05-09 17:13:53.372,1,0.79,1.01,1.7,-121.17180000000002,-25.985,-2.158199999999999,175,75
2026-05-09 17:13:53.385,1,0.74,0.79,1.53,-100.0718,10.295000000000002,-25.1382,175,75
2026-05-09 17:13:53.396,1,0.9,0.56,1.57,-68.4218,79.625,-45.1382,175,75
2026-05-09 17:13:53.405,1,1.09,0.26,1.72,-35.62180000000001,128.155,-68.9182,175,75
2026-05-09 17:13:53.418,1,0.24,0.28,1.38,-33.24180000000001,50.355,-39.7782,175,75
2026-05-09 17:13:53.429,1,-3.85,0.21,-1.26,-151.4718,-280.685,29.9218,175,75
2026-05-09 17:13:53.439,1,-1.26,-1.38,-2.58,-343.6118,-510.435,144.4318,175,75
2026-05-09 17:13:53.450,1,-0.53,-3.61,-1.06,-223.3018,-72.995,35.0418,175,75
2026-05-09 17:13:53.462,1,0.34,-1.46,1.79,26.148199999999992,359.255,84.0018,175,75
2026-05-09 17:13:53.466,1,1.38,-0.12,2.89,-168.1818,-86.10499999999999,68.5818,175,75
2026-05-09 17:13:53.508,1,-0.12,0.71,0.09,-113.7918,167.485,91.3818,175,75
2026-05-09 17:13:53.525,1,0.08,0.21,0.84,-74.40180000000001,150.655,90.34179999999999,175,75
2026-05-09 17:13:53.536,1,-0.2,-0.89,0.78,-94.0918,94.375,82.9118,175,75
2026-05-09 17:13:53.536,1,0.09,-0.68,0.43,-116.11180000000002,61.395,98.1518,175,75
2026-05-09 17:13:53.587,1,-0.01,0.4,0.29,-133.7918,58.895,102.5418,175,75
2026-05-09 17:13:53.610,1,0.23,0.72,0.32,-129.0318,33.895,100.2218,175,75
2026-05-09 17:13:53.610,1,0.25,0.8,0.2,-129.89180000000002,22.305,96.9318,175,75
2026-05-09 17:13:53.645,1,0.17,1.26,0.23,-126.4118,-8.915,76.3218,175,75
2026-05-09 17:13:53.658,1,0.14,1.34,0.26,-120.0118,-3.914999999999999,70.3418,175,75
2026-05-09 17:13:53.660,1,0.07,1.38,0.32,-113.18180000000001,-4.584999999999999,65.4118,175,75
2026-05-09 17:13:53.680,1,-0.01,1.38,0.3,-107.9418,-5.074999999999999,59.2518,175,75
2026-05-09 17:13:53.693,1,-0.02,1.43,0.37,-95.37180000000001,0.23499999999999943,49.431799999999996,175,75
2026-05-09 17:13:53.716,1,-0.07,1.39,0.37,-90.0718,0.045000000000001705,44.1918,175,75
2026-05-09 17:13:53.716,1,-0.16,1.35,0.32,-84.40180000000001,2.4250000000000007,37.6018,175,75
2026-05-09 17:13:53.730,1,-0.16,1.34,0.36,-79.0318,9.805,34.311800000000005,175,75
2026-05-09 17:13:53.740,1,-0.15,1.37,0.46,-70.3118,13.285000000000004,31.9318,175,75
2026-05-09 17:13:53.763,1,-0.12,1.35,0.3,-56.35180000000001,21.634999999999998,27.111800000000002,175,75
2026-05-09 17:13:53.774,1,0.01,1.27,0.29,-49.2218,25.115000000000002,24.7318,175,75
2026-05-09 17:13:53.803,1,0.29,1.75,0.19,-48.421800000000005,-5.684999999999999,21.6318,175,75
2026-05-09 17:13:53.821,1,0.28,3.11,-0.48,-16.661800000000007,-30.015,-34.8382,175,75
2026-05-09 17:13:53.832,1,0.65,1.16,0.54,37.728199999999994,22.855000000000004,-0.01819999999999844,175,75
2026-05-09 17:13:53.843,1,-0.17,1.03,0.68,37.368199999999995,1.0250000000000021,-10.1982,175,75
2026-05-09 17:13:53.843,1,-0.22,0.8,0.16,13.098199999999995,-12.084999999999999,-4.658199999999999,175,75
2026-05-09 17:13:53.877,1,-0.25,1.2,0.01,19.928199999999993,1.4550000000000018,-12.0882,175,75
2026-05-09 17:13:53.887,1,0.29,1.3,0.36,17.188199999999995,-10.014999999999999,-19.048199999999998,175,75
2026-05-09 17:13:53.905,1,0.25,1.48,0.39,16.578199999999995,-27.325,-29.348200000000002,175,75
2026-05-09 17:13:53.915,1,0.05,1.63,0.11,19.688199999999995,-43.065,-37.578199999999995,175,75
2026-05-09 17:13:53.956,1,-0.02,1.61,0.4,67.9182,-26.535,-34.5282,175,75
2026-05-09 17:13:53.972,1,0.08,1.4,0.28,97.8582,-9.764999999999999,-37.76819999999999,175,75
2026-05-09 17:13:53.989,1,0.18,1.24,0.28,107.6082,-22.205,-42.218199999999996,175,75
2026-05-09 17:13:53.998,1,0.2,1.17,0.22,108.70819999999999,-23.735,-48.6182,175,75
2026-05-09 17:13:54.013,1,0.18,1.06,0.28,111.0882,-26.235,-53.678200000000004,175,75
2026-05-09 17:13:54.013,1,0.17,0.89,0.32,107.8582,-35.254999999999995,-62.8882,175,75
2026-05-09 17:13:54.047,1,0.19,0.45,0.44,102.8582,-41.655,-69.2282,175,75
2026-05-09 17:13:54.056,1,0.26,0.26,0.34,87.4282,-55.745,-73.7382,175,75
2026-05-09 17:13:54.100,1,0.42,-0.41,0.12,38.27819999999999,-45.075,-92.6982,175,75
2026-05-09 17:13:54.100,1,0.52,-0.45,0.25,62.728199999999994,-35.435,-118.5582,175,75
2026-05-09 17:13:54.110,1,0.71,-0.31,0.45,99.31819999999999,-49.345,-135.7482,175,75
2026-05-09 17:13:54.120,1,0.61,-0.2,0.63,113.3382,-70.86500000000001,-149.3482,175,75
2026-05-09 17:13:54.144,1,0.44,-0.16,0.79,107.97819999999999,-129.465,-167.9482,175,75
2026-05-09 17:13:54.144,1,0.11,-0.19,0.96,112.8582,-155.255,-178.4382,175,75
2026-05-09 17:13:54.172,1,-0.31,-1.21,1.66,67.6082,-252.695,-139.4682,175,75
2026-05-09 17:13:54.210,1,-1.04,-0.64,0.93,-42.811800000000005,-95.13499999999999,-4.5282,175,75
2026-05-09 17:13:54.223,1,-0.83,0.05,0.99,-23.731800000000007,-49.705,-23.308199999999996,175,75
2026-05-09 17:13:54.241,1,-0.86,-1.36,-1.06,-164.7718,65.715,13.5218,175,75
2026-05-09 17:13:54.274,1,-0.62,-0.56,1.45,-28.481800000000007,351.205,6.2018,175,75
2026-05-09 17:13:54.286,1,-0.66,-0.34,2.07,-47.201800000000006,254.01500000000001,1.0818000000000012,175,75
2026-05-09 17:13:54.309,1,-0.41,-0.12,1.59,-99.64180000000002,-44.585,-22.088199999999997,175,75
2026-05-09 17:13:54.348,1,-0.68,0.21,0.57,-126.05180000000001,-162.45499999999998,-84.4682,175,75
2026-05-09 17:13:54.358,1,-1.08,0.44,0.2,-166.5918,-188.855,-137.5782,175,75
2026-05-09 17:13:54.428,1,-2.27,2.64,-0.27,-236.6618,37.305,-280.0782,175,75
2026-05-09 17:13:54.439,1,-2.21,2.66,0.06,-241.1118,152.485,-273.1882,175,75
2026-05-09 17:13:54.508,1,-0.11,1.95,1.54,-327.0218,90.17500000000001,-251.4782,175,75
2026-05-09 17:13:54.519,1,-0.09,1.35,1.61,-322.6318,52.675000000000004,-274.46819999999997,175,75
2026-05-09 17:13:54.519,1,-0.0,1.28,1.69,-324.83180000000004,46.635,-288.2482,175,75
2026-05-09 17:13:54.535,1,0.14,1.32,1.76,-333.3618,8.465,-290.4482,175,75
2026-05-09 17:13:54.546,1,0.14,1.35,1.68,-337.2718,-14.954999999999998,-292.6982,175,75
2026-05-09 17:13:54.558,1,0.17,1.21,1.57,-335.68179999999995,-17.205,-281.54819999999995,175,75
2026-05-09 17:13:54.569,1,0.24,0.9,1.49,-333.6118,-30.075,-277.0882,175,75
2026-05-09 17:13:54.569,1,0.26,0.66,1.52,-324.83180000000004,-19.285,-280.6882,175,75
2026-05-09 17:13:54.580,1,0.32,0.59,1.68,-310.68179999999995,-11.355,-280.0782,175,75
2026-05-09 17:13:54.590,1,0.38,0.55,1.81,-292.7518,-15.625,-280.6282,175,75
2026-05-09 17:13:54.608,1,0.41,0.5,1.84,-273.4818,-18.675,-286.17819999999995,175,75
2026-05-09 17:13:54.619,1,0.42,0.42,1.72,-255.8618,-18.244999999999997,-295.5082,175,75
2026-05-09 17:13:54.644,1,0.43,0.41,1.63,-229.4018,16.695,-302.5782,175,75
2026-05-09 17:13:54.656,1,0.41,0.42,1.67,-203.0618,46.455000000000005,-306.66819999999996,175,75
2026-05-09 17:13:54.670,1,0.44,0.36,1.73,-178.0018,60.044999999999995,-316.41819999999996,175,75
2026-05-09 17:13:54.682,1,0.37,0.32,1.73,-160.4418,74.315,-325.4482,175,75
