Time,ID,Ax,Ay,Az,Gx,Gy,Gz,Height,Weight
2026-05-09 17:05:53.450,1,-0.04,0.02,0.98,-1.1812000000000005,0.019400000000000972,0.3838000000000008,175,75
2026-05-09 17:05:53.450,1,-0.04,0.02,0.97,-0.9412000000000003,-0.05059999999999931,0.3838000000000008,175,75
2026-05-09 17:05:53.460,1,-0.04,0.02,0.98,-1.3612000000000002,-0.05059999999999931,0.3138000000000005,175,75
2026-05-09 17:05:53.470,1,-0.04,0.01,0.97,-1.3612000000000002,-0.23059999999999903,0.4438000000000013,175,75
2026-05-09 17:05:53.490,1,-0.04,0.02,0.98,-1.0612000000000004,-0.23059999999999903,0.2538000000000018,175,75
2026-05-09 17:05:53.510,1,-0.04,0.02,0.98,-1.4912000000000005,-0.1706000000000003,0.3138000000000005,175,75
2026-05-09 17:05:53.520,1,-0.04,0.02,0.98,-1.3612000000000002,0.1994000000000007,0.6838000000000015,175,75
2026-05-09 17:05:53.531,1,-0.04,0.02,0.97,-1.4912000000000005,0.019400000000000972,0.1938000000000013,175,75
2026-05-09 17:05:53.542,1,-0.04,0.02,0.98,-1.2412000000000005,0.2593999999999994,0.623800000000001,175,75
2026-05-09 17:05:53.550,1,-0.04,0.02,0.97,-1.9712000000000005,-0.11059999999999981,0.5038000000000018,175,75
2026-05-09 17:05:53.577,1,-0.05,0.02,0.98,-1.6712000000000002,0.019400000000000972,0.5038000000000018,175,75
2026-05-09 17:05:53.577,1,-0.04,0.02,0.97,-1.8512000000000004,0.4394000000000009,0.4438000000000013,175,75
2026-05-09 17:05:53.617,1,-0.04,0.02,0.98,-1.7312000000000003,0.1394000000000002,0.5038000000000018,175,75
2026-05-09 17:05:53.662,1,-0.04,0.02,0.98,-2.5812000000000004,0.4394000000000009,0.9238000000000017,175,75
2026-05-09 17:05:53.767,1,-0.04,0.02,0.99,-2.7712000000000003,0.6294000000000004,1.0538000000000007,175,75
2026-05-09 17:05:53.767,1,-0.04,0.02,0.97,-2.7112000000000003,0.6294000000000004,0.8038000000000007,175,75
2026-05-09 17:05:53.779,1,-0.05,0.01,0.97,-2.1012000000000004,0.4993999999999996,0.9238000000000017,175,75
2026-05-09 17:05:53.825,1,-0.04,0.02,0.97,-2.6512000000000002,-0.1706000000000003,0.9938000000000002,175,75
2026-05-09 17:05:53.915,1,-0.04,0.02,0.98,-2.7112000000000003,0.7493999999999996,1.1738000000000017,175,75
2026-05-09 17:05:53.915,1,-0.04,0.02,0.98,-3.0112000000000005,0.2593999999999994,1.2338000000000005,175,75
2026-05-09 17:05:53.932,1,-0.05,0.02,0.97,-3.1312000000000006,0.1994000000000007,0.9938000000000002,175,75
2026-05-09 17:05:53.965,1,-0.04,0.02,0.97,-2.8312000000000004,0.6294000000000004,1.0538000000000007,175,75
2026-05-09 17:05:53.977,1,-0.05,0.02,0.98,-3.0112000000000005,0.4993999999999996,1.1738000000000017,175,75
2026-05-09 17:05:53.990,1,-0.04,0.02,0.98,-2.8912000000000004,0.4394000000000009,1.0538000000000007,175,75
2026-05-09 17:05:53.996,1,-0.04,0.02,0.97,-3.0712,0.4394000000000009,0.9938000000000002,175,75
2026-05-09 17:05:53.997,1,-0.05,0.02,0.97,-3.0112000000000005,0.4993999999999996,1.0538000000000007,175,75
2026-05-09 17:05:54.032,1,-0.05,0.02,0.97,-2.9512000000000005,0.5594000000000001,1.2338000000000005,175,75
2026-05-09 17:05:54.040,1,-0.04,0.02,0.97,-3.1312000000000006,0.1994000000000007,1.1138000000000012,175,75
2026-05-09 17:05:54.052,1,-0.04,0.02,0.97,-3.1312000000000006,0.3193999999999999,1.4738000000000007,175,75
2026-05-09 17:05:54.063,1,-0.05,0.02,0.97,-3.2612000000000005,0.3193999999999999,0.9938000000000002,175,75
2026-05-09 17:05:54.073,1,-0.04,0.02,0.98,-3.0712,0.1394000000000002,1.293800000000001,175,75
2026-05-09 17:05:54.088,1,-0.05,0.03,0.97,-3.2612000000000005,-0.11059999999999981,1.3538000000000014,175,75
2026-05-09 17:05:54.088,1,-0.05,0.02,0.98,-2.8912000000000004,0.019400000000000972,1.1738000000000017,175,75
2026-05-09 17:05:54.113,1,-0.05,0.02,0.97,-2.7112000000000003,0.07939999999999969,0.8638000000000012,175,75
2026-05-09 17:05:54.119,1,-0.05,0.02,0.97,-2.5812000000000004,0.2593999999999994,1.1738000000000017,175,75
2026-05-09 17:05:54.145,1,-0.04,0.02,0.97,-2.6512000000000002,0.2593999999999994,1.0538000000000007,175,75
2026-05-09 17:05:54.156,1,-0.05,0.02,0.97,-2.0412000000000003,0.3794000000000004,0.9238000000000017,175,75
2026-05-09 17:05:54.172,1,-0.05,0.02,0.96,-2.1612000000000005,0.3794000000000004,0.9238000000000017,175,75
2026-05-09 17:05:54.182,1,-0.05,0.02,0.97,-2.1012000000000004,0.2593999999999994,0.9938000000000002,175,75
2026-05-09 17:05:54.199,1,-0.05,0.02,0.96,-2.1012000000000004,0.2593999999999994,0.8638000000000012,175,75
2026-05-09 17:05:54.203,1,-0.05,0.02,0.97,-2.0412000000000003,0.3193999999999999,0.7438000000000002,175,75
2026-05-09 17:05:54.248,1,-0.05,0.02,0.97,-1.9112000000000005,0.9893999999999998,0.7438000000000002,175,75
2026-05-09 17:05:54.289,1,-0.05,0.02,0.97,-1.9712000000000005,0.4993999999999996,1.0538000000000007,175,75
2026-05-09 17:05:54.289,1,-0.05,0.02,0.97,-2.1612000000000005,0.6894000000000009,1.0538000000000007,175,75
2026-05-09 17:05:54.300,1,-0.05,0.02,0.97,-1.9112000000000005,0.2593999999999994,0.8638000000000012,175,75
2026-05-09 17:05:54.332,1,-0.05,0.02,0.97,-2.1612000000000005,0.9293999999999993,1.1138000000000012,175,75
2026-05-09 17:05:54.356,1,-0.05,0.02,0.97,-2.4012000000000002,1.4794,1.0538000000000007,175,75
2026-05-09 17:05:54.377,1,-0.05,0.01,0.97,-2.3412,1.599400000000001,0.8638000000000012,175,75
2026-05-09 17:05:54.387,1,-0.05,0.02,0.97,-2.2812,1.599400000000001,0.5638000000000005,175,75
2026-05-09 17:05:54.407,1,-0.06,0.02,0.96,-2.3412,2.8794000000000004,0.8638000000000012,175,75
2026-05-09 17:05:54.427,1,-0.06,0.02,0.97,-2.1012000000000004,3.2493999999999996,0.4438000000000013,175,75
2026-05-09 17:05:54.473,1,-0.06,0.02,0.97,-2.4612000000000003,2.8794000000000004,-0.1061999999999994,175,75
2026-05-09 17:05:54.476,1,-0.05,0.02,0.97,-3.1912000000000003,3.189400000000001,0.3838000000000008,175,75
2026-05-09 17:05:54.498,1,-0.04,0.02,0.97,-3.8612,1.7194000000000003,0.9238000000000017,175,75
2026-05-09 17:05:54.510,1,-0.05,0.01,0.97,-3.8012000000000006,1.7794000000000008,0.6838000000000015,175,75
2026-05-09 17:05:54.522,1,-0.05,0.02,0.97,-4.5412,2.6394,1.413800000000002,175,75
2026-05-09 17:05:54.547,1,-0.05,0.02,0.96,-5.3312,3.609400000000001,1.4738000000000007,175,75
2026-05-09 17:05:54.561,1,-0.05,0.01,0.96,-4.9012,3.7294,1.7238000000000007,175,75
2026-05-09 17:05:54.568,1,-0.05,0.01,0.97,-5.3912,4.2194,1.5938000000000017,175,75
2026-05-09 17:05:54.582,1,-0.05,0.02,0.96,-5.2712,4.1594,1.663800000000002,175,75
2026-05-09 17:05:54.605,1,-0.05,0.02,0.96,-6.2412,4.4094,1.663800000000002,175,75
2026-05-09 17:05:54.616,1,-0.05,0.02,0.96,-6.1812000000000005,4.4094,1.7838000000000012,175,75
2026-05-09 17:05:54.627,1,-0.05,0.02,0.95,-6.7912,4.6494,1.4738000000000007,175,75
2026-05-09 17:05:54.645,1,-0.05,0.02,0.96,-6.4912,5.079400000000001,1.4738000000000007,175,75
2026-05-09 17:05:54.668,1,-0.05,0.01,0.95,-6.3612,5.3194,0.8038000000000007,175,75
2026-05-09 17:05:54.673,1,-0.05,0.02,0.96,-6.6112,5.3194,0.8638000000000012,175,75
2026-05-09 17:05:54.694,1,-0.05,0.02,0.96,-7.4612,5.6894,1.0538000000000007,175,75
2026-05-09 17:05:54.710,1,-0.05,0.01,0.95,-8.5012,5.1994,0.8038000000000007,175,75
2026-05-09 17:05:54.722,1,-0.04,0.01,0.95,-9.1112,5.079400000000001,0.5038000000000018,175,75
2026-05-09 17:05:54.734,1,-0.06,0.02,0.95,-9.5412,5.2594,0.7438000000000002,175,75
2026-05-09 17:05:54.746,1,-0.06,0.02,0.96,-9.8412,5.2594,0.9938000000000002,175,75
2026-05-09 17:05:54.773,1,-0.04,0.01,0.94,-12.0412,6.7194,0.8638000000000012,175,75
2026-05-09 17:05:54.787,1,-0.04,0.02,0.96,-13.2612,5.3194,0.8638000000000012,175,75
2026-05-09 17:05:54.819,1,-0.04,0.01,0.96,-13.2612,4.2194,1.1138000000000012,175,75
2026-05-09 17:05:54.819,1,-0.04,0.01,0.94,-15.2712,4.1594,0.7438000000000002,175,75
2026-05-09 17:05:54.833,1,-0.05,0.01,0.93,-16.3612,3.189400000000001,0.2538000000000018,175,75
2026-05-09 17:05:54.833,1,-0.05,0.01,0.93,-16.6712,2.8794000000000004,-0.1061999999999994,175,75
2026-05-09 17:05:54.906,1,-0.04,0.02,0.94,-24.7212,3.859400000000001,-0.4161999999999981,175,75
2026-05-09 17:05:54.915,1,-0.04,0.01,0.93,-27.0412,2.2094000000000005,-0.4161999999999981,175,75
2026-05-09 17:05:54.987,1,-0.01,-0.02,0.93,-45.5112,-0.1706000000000003,3.6138000000000012,175,75
2026-05-09 17:05:54.987,1,0.01,-0.07,0.93,-49.6012,0.7493999999999996,3.6138000000000012,175,75
2026-05-09 17:05:55.004,1,-0.09,-0.05,0.83,-48.1312,-1.4505999999999997,1.2338000000000005,175,75
2026-05-09 17:05:55.016,1,-0.12,0.0,0.82,-51.0012,-6.2006,-1.0261999999999993,175,75
2026-05-09 17:05:55.027,1,-0.13,0.05,0.92,-56.7312,-7.550600000000001,-3.0961999999999996,175,75
2026-05-09 17:05:55.027,1,-0.1,0.13,0.91,-54.1712,-7.0006,-2.796199999999999,175,75
2026-05-09 17:05:55.058,1,-0.16,0.1,0.6,-42.6512,-7.6705999999999985,-6.6961999999999975,175,75
2026-05-09 17:05:55.071,1,-0.11,0.08,0.63,-40.0812,1.5394000000000005,-5.5962,175,75
2026-05-09 17:05:55.071,1,-0.1,0.07,0.68,-31.5512,8.5494,-6.266199999999998,175,75
2026-05-09 17:05:55.098,1,-0.08,0.05,0.72,-28.5612,10.5594,-7.426199999999998,175,75
2026-05-09 17:05:55.098,1,-0.09,0.05,0.75,-26.7912,13.7994,-7.606199999999998,175,75
2026-05-09 17:05:55.109,1,-0.08,0.03,0.76,-23.3812,15.3794,-8.156199999999998,175,75
2026-05-09 17:05:55.126,1,-0.07,0.01,0.75,-21.5512,16.5394,-8.2162,175,75
2026-05-09 17:05:55.142,1,-0.04,-0.03,0.73,-12.3412,27.7594,-9.8662,175,75
2026-05-09 17:05:55.162,1,-0.01,-0.06,0.69,-7.5212,33.7294,-11.206199999999999,175,75
2026-05-09 17:05:55.186,1,0.01,-0.04,0.66,3.0288000000000004,51.4194,-1.086199999999998,175,75
2026-05-09 17:05:55.201,1,-0.03,-0.08,0.71,4.918799999999999,54.6494,1.5338000000000012,175,75
2026-05-09 17:05:55.206,1,-0.03,-0.1,0.76,11.1388,71.3594,10.013800000000002,175,75
2026-05-09 17:05:55.209,1,0.02,-0.17,0.73,11.928799999999999,66.1094,10.253800000000002,175,75
2026-05-09 17:05:55.243,1,-0.13,-0.12,0.57,9.0588,75.4994,18.003800000000002,175,75
2026-05-09 17:05:55.285,1,-0.5,-0.41,0.34,2.6587999999999994,177.4494,27.5738,175,75
2026-05-09 17:05:55.310,1,-1.04,-0.74,0.18,-82.1012,263.18940000000003,134.0938,175,75
2026-05-09 17:05:55.339,1,-0.97,-0.96,-0.02,-129.4112,223.9194,157.2738,175,75
2026-05-09 17:05:55.356,1,-0.95,-0.92,-0.17,-162.0412,221.0494,176.1138,175,75
2026-05-09 17:05:55.383,1,-0.86,-0.94,-0.12,-175.69119999999998,215.4994,190.8038,175,75
2026-05-09 17:05:55.395,1,-0.73,-0.99,-0.01,-193.1312,192.3894,200.31380000000001,175,75
2026-05-09 17:05:55.427,1,-0.66,-0.71,0.06,-261.06120000000004,51.7794,223.06380000000001,175,75
2026-05-09 17:05:55.437,1,-0.62,-0.58,0.08,-263.74120000000005,38.8594,231.6638,175,75
2026-05-09 17:05:55.460,1,-0.56,-0.43,0.13,-262.95120000000003,31.0494,239.2838,175,75
2026-05-09 17:05:55.460,1,-0.44,-0.3,0.24,-259.4112,32.7594,244.3438,175,75
2026-05-09 17:05:55.473,1,-0.27,-0.16,0.37,-258.6212,32.5794,246.1138,175,75
2026-05-09 17:05:55.484,1,-0.14,-0.04,0.46,-249.8412,31.4794,246.4138,175,75
2026-05-09 17:05:55.504,1,0.22,0.18,0.79,-217.4612,19.8294,230.31380000000001,175,75
2026-05-09 17:05:55.515,1,0.3,0.29,0.89,-196.3612,-6.330599999999999,208.7938,175,75
2026-05-09 17:05:55.529,1,0.32,0.34,0.91,-184.6012,-10.900599999999999,200.2538,175,75
2026-05-09 17:05:55.542,1,0.35,0.4,0.93,-171.3612,-12.9106,188.1238,175,75
2026-05-09 17:05:55.546,1,0.38,0.53,1.01,-156.7912,-12.4806,172.5138,175,75
2026-05-09 17:05:55.560,1,0.42,0.67,1.04,-124.66120000000001,-10.170599999999999,148.5538,175,75
2026-05-09 17:05:55.577,1,0.46,0.74,1.06,-106.5512,-0.6606000000000005,127.9438,175,75
2026-05-09 17:05:55.596,1,0.55,0.81,1.13,-61.2412,34.5894,92.9438,175,75
2026-05-09 17:05:55.653,1,0.67,0.88,1.37,20.4588,65.43939999999999,20.3138,175,75
2026-05-09 17:05:55.665,1,0.6,0.86,1.32,70.21879999999999,25.2594,-32.1862,175,75
2026-05-09 17:05:55.675,1,0.55,0.85,1.21,88.56880000000001,16.909399999999998,-49.9862,175,75
2026-05-09 17:05:55.675,1,0.49,0.82,1.11,103.99879999999999,15.9894,-64.1362,175,75
2026-05-09 17:05:55.724,1,0.31,0.73,1.03,157.83880000000002,23.6094,-114.8062,175,75
2026-05-09 17:05:55.737,1,0.18,0.62,0.95,181.6188,17.5194,-138.4662,175,75
2026-05-09 17:05:55.780,1,0.06,0.51,0.78,207.0488,23.3094,-153.1562,175,75
2026-05-09 17:05:55.801,1,0.01,0.42,0.7,217.8988,26.3594,-157.7262,175,75
2026-05-09 17:05:55.831,1,0.06,0.24,0.57,244.8488,46.5394,-163.2162,175,75
2026-05-09 17:05:55.849,1,0.12,0.14,0.56,251.6188,40.1994,-165.5962,175,75
2026-05-09 17:05:55.849,1,0.16,0.07,0.61,253.56879999999998,34.4094,-165.4162,175,75
2026-05-09 17:05:55.889,1,0.02,-0.14,0.66,254.7888,-29.9206,-178.0962,175,75
2026-05-09 17:05:55.889,1,-0.05,-0.18,0.71,251.8688,-55.96059999999999,-180.5362,175,75
2026-05-09 17:05:55.921,1,-0.18,-0.36,0.98,246.1388,-102.79060000000001,-173.2762,175,75
2026-05-09 17:05:55.933,1,-0.29,-0.45,1.15,246.6188,-153.22060000000002,-180.2262,175,75
2026-05-09 17:05:55.944,1,-0.39,-0.45,1.24,244.05880000000002,-211.0206,-185.0462,175,75
2026-05-09 17:05:55.950,1,-0.49,-0.48,1.25,240.33880000000002,-259.7406,-187.6662,175,75
2026-05-09 17:05:55.967,1,-5.84,-0.05,-0.75,198.2688,-544.2506,-209.3162,175,75
2026-05-09 17:05:55.992,1,-6.45,-4.22,-6.73,157.5988,-1007.5506,-80.5962,175,75
2026-05-09 17:05:55.992,1,-5.11,-2.53,-3.09,-87.34119999999999,-520.7206,233.7938,175,75
2026-05-09 17:05:58.305,1,-0.19,0.53,0.91,42.8388,31.6494,9.943800000000001,175,75
2026-05-09 17:05:58.316,1,-0.19,0.52,0.91,43.138799999999996,31.279400000000003,10.183800000000002,175,75
2026-05-09 17:05:58.328,1,-0.2,0.52,0.92,43.4488,31.409399999999998,10.3038,175,75
2026-05-09 17:05:58.338,1,-0.21,0.52,0.92,44.1188,31.889400000000002,10.373800000000001,175,75
2026-05-09 17:05:58.348,1,-0.22,0.53,0.93,44.9688,32.9294,10.613800000000001,175,75
2026-05-09 17:05:58.366,1,-0.21,0.53,0.93,46.9188,35.059400000000004,10.2438,175,75
2026-05-09 17:05:58.377,1,-0.2,0.53,0.92,47.2888,34.9394,9.823800000000002,175,75
2026-05-09 17:05:58.413,1,-0.2,0.52,0.93,46.8588,33.8494,7.9338000000000015,175,75
2026-05-09 17:05:58.427,1,-0.2,0.52,0.94,46.2488,32.9894,6.833800000000001,175,75
2026-05-09 17:05:58.427,1,-0.2,0.52,0.94,45.888799999999996,31.6494,6.1038000000000014,175,75
2026-05-09 17:05:58.431,1,-0.2,0.52,0.93,45.638799999999996,31.959400000000002,5.613800000000001,175,75
2026-05-09 17:05:58.441,1,-0.2,0.52,0.92,46.2488,32.809400000000004,4.693800000000001,175,75
2026-05-09 17:05:58.453,1,-0.2,0.51,0.93,46.1288,33.1094,4.153800000000001,175,75
2026-05-09 17:05:58.462,1,-0.2,0.5,0.94,45.2188,32.7494,3.413800000000002,175,75
2026-05-09 17:05:58.526,1,-0.19,0.5,0.93,43.6288,32.4994,2.133800000000001,175,75
2026-05-09 17:05:58.537,1,-0.18,0.5,0.92,42.2288,33.0494,1.163800000000002,175,75
2026-05-09 17:05:58.549,1,-0.18,0.5,0.94,41.3688,32.3194,0.9138000000000019,175,75
2026-05-09 17:05:58.549,1,-0.18,0.5,0.95,39.7288,32.1394,1.2238000000000007,175,75
2026-05-09 17:05:58.584,1,-0.18,0.5,0.94,39.5388,30.669400000000003,1.3438000000000017,175,75
2026-05-09 17:05:58.605,1,-0.18,0.49,0.94,38.5688,30.309400000000004,1.7738000000000014,175,75
2026-05-09 17:05:58.605,1,-0.18,0.49,0.93,38.6288,29.8194,2.503800000000002,175,75
2026-05-09 17:05:58.616,1,-0.19,0.48,0.93,38.4488,29.5794,2.7438000000000002,175,75
2026-05-09 17:05:58.630,1,-0.18,0.48,0.93,38.6288,29.7594,3.9038000000000004,175,75
2026-05-09 17:05:58.645,1,-0.19,0.48,0.92,40.2788,28.849400000000003,5.673800000000001,175,75
2026-05-09 17:05:58.666,1,-0.19,0.48,0.91,41.6788,28.1694,6.8938000000000015,175,75
2026-05-09 17:05:58.682,1,-0.19,0.48,0.91,43.138799999999996,29.029400000000003,7.803800000000001,175,75
2026-05-09 17:05:58.682,1,-0.2,0.48,0.91,44.4188,29.389400000000002,7.873800000000001,175,75
2026-05-09 17:05:58.694,1,-0.21,0.47,0.92,44.6088,29.699399999999997,7.803800000000001,175,75
2026-05-09 17:05:58.705,1,-0.21,0.47,0.92,45.2188,30.1894,7.993800000000001,175,75
2026-05-09 17:05:58.705,1,-0.22,0.47,0.93,46.2488,30.739400000000003,8.2338,175,75
2026-05-09 17:05:58.731,1,-0.23,0.47,0.94,47.0388,32.1994,8.2338,175,75
2026-05-09 17:05:58.743,1,-0.22,0.48,0.94,46.9188,32.7494,7.6838000000000015,175,75
2026-05-09 17:05:58.756,1,-0.22,0.48,0.95,47.1688,32.8694,7.623800000000001,175,75
2026-05-09 17:05:58.757,1,-0.22,0.48,0.95,46.7988,32.809400000000004,7.013800000000001,175,75
2026-05-09 17:05:58.776,1,-0.22,0.48,0.96,46.3688,32.9294,7.133800000000001,175,75
2026-05-09 17:05:58.776,1,-0.23,0.49,0.96,45.7588,32.809400000000004,7.073800000000001,175,75
2026-05-09 17:05:58.787,1,-0.22,0.49,0.96,44.9688,32.559400000000004,7.073800000000001,175,75
2026-05-09 17:05:58.800,1,-0.22,0.48,0.97,44.3588,32.9294,7.263800000000001,175,75
2026-05-09 17:05:58.813,1,-0.22,0.47,0.96,43.4488,33.4194,7.193800000000001,175,75
2026-05-09 17:05:58.825,1,-0.22,0.47,0.96,43.388799999999996,33.3594,7.443800000000001,175,75
2026-05-09 17:05:58.839,1,-0.21,0.47,0.96,42.7788,34.1494,7.563800000000001,175,75
2026-05-09 17:05:58.852,1,-0.21,0.47,0.96,42.2288,33.9094,8.0538,175,75
2026-05-09 17:05:58.881,1,-0.21,0.48,0.95,41.9188,34.5794,8.4838,175,75
2026-05-09 17:05:58.917,1,-0.2,0.48,0.94,41.9188,34.8194,8.7238,175,75
2026-05-09 17:05:58.917,1,-0.2,0.47,0.94,41.5588,35.2494,8.4838,175,75
2026-05-09 17:05:58.917,1,-0.21,0.48,0.94,42.2888,35.059400000000004,8.7238,175,75
2026-05-09 17:05:58.943,1,-0.21,0.48,0.95,42.4688,35.4894,8.173800000000002,175,75
2026-05-09 17:05:58.949,1,-0.22,0.47,0.94,42.3488,35.9194,8.4838,175,75
2026-05-09 17:05:58.963,1,-0.22,0.47,0.94,42.8988,35.7394,8.173800000000002,175,75
2026-05-09 17:05:58.974,1,-0.22,0.47,0.95,42.7188,36.0394,7.803800000000001,175,75
2026-05-09 17:05:58.985,1,-0.22,0.47,0.95,43.5688,36.5294,7.563800000000001,175,75
2026-05-09 17:05:58.996,1,-0.22,0.47,0.94,43.8088,36.7694,7.443800000000001,175,75
2026-05-09 17:05:59.004,1,-0.22,0.47,0.93,44.1188,36.1594,7.133800000000001,175,75
2026-05-09 17:05:59.014,1,-0.22,0.47,0.94,43.8088,36.2194,6.523800000000001,175,75
2026-05-09 17:05:59.032,1,-0.22,0.47,0.94,43.5688,35.9794,6.343800000000001,175,75
2026-05-09 17:05:59.036,1,-0.22,0.47,0.95,43.8688,36.1594,6.043800000000001,175,75
2026-05-09 17:05:59.047,1,-0.22,0.46,0.95,43.8088,35.9194,5.673800000000001,175,75
2026-05-09 17:05:59.058,1,-0.22,0.47,0.97,43.1988,35.309400000000004,5.793800000000001,175,75
2026-05-09 17:05:59.070,1,-0.22,0.47,0.96,42.7788,35.059400000000004,6.283800000000001,175,75
2026-05-09 17:05:59.096,1,-0.22,0.46,0.96,42.9588,34.9994,6.463800000000001,175,75
2026-05-09 17:05:59.108,1,-0.22,0.47,0.95,43.2588,35.4894,7.073800000000001,175,75
2026-05-09 17:05:59.124,1,-0.21,0.47,0.94,44.0588,36.5294,7.6838000000000015,175,75
2026-05-09 17:05:59.135,1,-0.21,0.47,0.94,43.5688,36.5894,7.9338000000000015,175,75
2026-05-09 17:05:59.149,1,-0.21,0.45,0.93,43.9288,36.9594,7.503800000000001,175,75
2026-05-09 17:05:59.157,1,-0.21,0.45,0.93,43.138799999999996,36.8894,7.193800000000001,175,75
2026-05-09 17:05:59.161,1,-0.21,0.46,0.92,43.0788,36.5294,6.773800000000001,175,75
2026-05-09 17:05:59.182,1,-0.2,0.45,0.93,41.9188,36.6494,6.283800000000001,175,75
2026-05-09 17:05:59.203,1,-0.19,0.44,0.93,40.2188,36.2194,4.883800000000001,175,75
2026-05-09 17:05:59.210,1,-0.2,0.44,0.94,39.6688,35.4294,4.213800000000001,175,75
2026-05-09 17:05:59.223,1,-0.2,0.44,0.94,39.1788,34.8194,3.963800000000001,175,75
2026-05-09 17:05:59.253,1,-0.2,0.45,0.94,38.2588,34.5194,3.543800000000001,175,75
2026-05-09 17:05:59.253,1,-0.2,0.44,0.93,38.2588,34.6394,3.293800000000001,175,75
2026-05-09 17:05:59.291,1,-0.2,0.45,0.93,37.5888,34.4594,3.8438000000000017,175,75
2026-05-09 17:05:59.313,1,-0.2,0.45,0.93,37.7788,35.2494,4.633800000000001,175,75
2026-05-09 17:05:59.313,1,-0.21,0.45,0.94,38.138799999999996,35.8594,4.633800000000001,175,75
2026-05-09 17:05:59.332,1,-0.21,0.45,0.94,38.8688,35.1894,4.943800000000001,175,75
2026-05-09 17:05:59.342,1,-0.21,0.44,0.94,39.2988,36.2794,5.243800000000001,175,75
2026-05-09 17:05:59.366,1,-0.22,0.45,0.94,39.8488,35.4894,6.403800000000001,175,75
2026-05-09 17:05:59.377,1,-0.22,0.45,0.95,40.0888,35.309400000000004,6.713800000000001,175,75
2026-05-09 17:05:59.377,1,-0.22,0.45,0.95,40.2788,35.1294,7.383800000000001,175,75
2026-05-09 17:05:59.392,1,-0.23,0.45,0.95,40.638799999999996,34.8194,7.803800000000001,175,75
2026-05-09 17:05:59.418,1,-0.22,0.44,0.95,42.5288,34.7594,9.023800000000001,175,75
2026-05-09 17:05:59.429,1,-0.22,0.44,0.93,42.7788,34.8194,9.3938,175,75
2026-05-09 17:05:59.439,1,-0.22,0.44,0.94,43.4488,34.4594,9.453800000000001,175,75
2026-05-09 17:05:59.451,1,-0.21,0.44,0.93,43.8088,34.0894,9.693800000000001,175,75
2026-05-09 17:05:59.464,1,-0.21,0.45,0.94,43.7488,33.8494,9.8838,175,75
2026-05-09 17:05:59.493,1,-0.2,0.44,0.94,43.4488,33.5994,9.823800000000002,175,75
2026-05-09 17:05:59.534,1,-0.2,0.45,0.94,43.2588,33.3594,9.823800000000002,175,75
2026-05-09 17:05:59.547,1,-0.2,0.45,0.93,42.9588,32.9294,10.123800000000001,175,75
2026-05-09 17:05:59.574,1,-0.2,0.45,0.94,41.9788,32.3794,10.4938,175,75
2026-05-09 17:05:59.586,1,-0.2,0.45,0.94,41.7988,32.3794,10.853800000000001,175,75
2026-05-09 17:05:59.586,1,-0.2,0.45,0.94,41.0088,32.0794,10.9838,175,75
2026-05-09 17:05:59.596,1,-0.21,0.44,0.94,40.8288,32.1394,11.043800000000001,175,75
2026-05-09 17:05:59.596,1,-0.21,0.45,0.94,40.3388,31.959400000000002,10.7338,175,75
2026-05-09 17:05:59.610,1,-0.22,0.43,0.94,39.9688,31.409399999999998,10.433800000000002,175,75
2026-05-09 17:05:59.620,1,-0.23,0.44,0.94,39.4788,31.4694,9.693800000000001,175,75
2026-05-09 17:05:59.630,1,-0.23,0.44,0.94,39.9688,31.0394,9.1538,175,75
2026-05-09 17:05:59.641,1,-0.23,0.43,0.95,40.1488,30.1894,8.783800000000001,175,75
2026-05-09 17:05:59.653,1,-0.24,0.43,0.95,40.2788,29.639400000000002,8.603800000000001,175,75
2026-05-09 17:05:59.653,1,-0.24,0.43,0.94,40.2188,29.879399999999997,8.0538,175,75
2026-05-09 17:05:59.675,1,-0.23,0.43,0.95,40.3388,30.129399999999997,7.133800000000001,175,75
2026-05-09 17:05:59.684,1,-0.23,0.44,0.96,39.8488,29.9994,6.1038000000000014,175,75
2026-05-09 17:05:59.715,1,-0.23,0.44,0.96,39.1788,30.129399999999997,6.343800000000001,175,75
2026-05-09 17:05:59.727,1,-0.22,0.44,0.97,37.8388,31.6494,6.043800000000001,175,75
2026-05-09 17:05:59.737,1,-0.23,0.44,0.98,37.2888,31.409399999999998,5.983800000000001,175,75
2026-05-09 17:05:59.737,1,-0.23,0.45,0.98,36.3688,31.349400000000003,6.403800000000001,175,75
2026-05-09 17:05:59.771,1,-0.24,0.45,0.97,34.6088,31.589399999999998,7.073800000000001,175,75
2026-05-09 17:05:59.783,1,-0.23,0.45,0.97,34.4788,31.8294,6.833800000000001,175,75
2026-05-09 17:05:59.783,1,-0.23,0.45,0.96,34.3588,32.3194,7.013800000000001,175,75
2026-05-09 17:05:59.790,1,-0.24,0.45,0.96,34.1788,32.6894,7.073800000000001,175,75
2026-05-09 17:05:59.813,1,-0.24,0.45,0.96,34.2388,32.4994,7.073800000000001,175,75
2026-05-09 17:05:59.825,1,-0.24,0.44,0.96,34.1188,32.7494,6.8938000000000015,175,75
2026-05-09 17:05:59.831,1,-0.25,0.44,0.96,34.6088,33.4194,6.523800000000001,175,75
2026-05-09 17:05:59.848,1,-0.24,0.44,0.96,35.2188,34.0294,6.223800000000001,175,75
2026-05-09 17:05:59.862,1,-0.25,0.44,0.96,35.3388,34.0894,5.983800000000001,175,75
2026-05-09 17:05:59.876,1,-0.25,0.45,0.97,36.0688,34.0894,6.283800000000001,175,75
2026-05-09 17:05:59.887,1,-0.25,0.44,0.96,36.3688,34.2094,6.583800000000001,175,75
2026-05-09 17:05:59.891,1,-0.24,0.44,0.97,37.1088,34.6394,6.953800000000001,175,75
2026-05-09 17:05:59.906,1,-0.24,0.45,0.97,37.4688,34.8794,6.953800000000001,175,75
2026-05-09 17:05:59.918,1,-0.24,0.45,0.98,37.2888,34.9994,7.563800000000001,175,75
2026-05-09 17:05:59.942,1,-0.24,0.45,0.98,37.3488,34.5194,8.353800000000001,175,75
2026-05-09 17:05:59.989,1,-0.22,0.45,0.97,37.4688,33.7794,9.0838,175,75
2026-05-09 17:05:59.989,1,-0.23,0.45,0.97,37.4688,34.1494,9.823800000000002,175,75
2026-05-09 17:06:00.000,1,-0.23,0.44,0.97,36.9188,34.0294,10.183800000000002,175,75
2026-05-09 17:06:00.008,1,-0.23,0.44,0.96,37.2888,34.5794,10.673800000000002,175,75
2026-05-09 17:06:00.010,1,-0.22,0.44,0.96,36.9188,34.3894,10.913800000000002,175,75
2026-05-09 17:06:00.045,1,-0.22,0.44,0.95,37.1688,34.7594,11.2238,175,75
2026-05-09 17:06:00.074,1,-0.22,0.45,0.95,36.8588,35.3694,11.523800000000001,175,75
2026-05-09 17:06:00.093,1,-0.22,0.45,0.96,36.3688,35.4294,11.833800000000002,175,75
2026-05-09 17:06:00.103,1,-0.23,0.45,0.96,36.4288,35.5494,11.8938,175,75
2026-05-09 17:06:00.126,1,-0.23,0.44,0.96,36.1288,35.4294,12.193800000000001,175,75
2026-05-09 17:06:00.149,1,-0.23,0.44,0.95,35.888799999999996,35.5494,12.3238,175,75
2026-05-09 17:06:00.149,1,-0.22,0.44,0.94,35.888799999999996,35.5494,12.443800000000001,175,75
2026-05-09 17:06:00.183,1,-0.22,0.45,0.96,36.0088,34.9394,12.263800000000002,175,75
2026-05-09 17:06:00.183,1,-0.22,0.45,0.95,36.1888,34.5194,12.683800000000002,175,75
2026-05-09 17:06:00.196,1,-0.22,0.46,0.96,35.9488,34.9394,12.3238,175,75
2026-05-09 17:06:00.208,1,-0.23,0.46,0.95,36.7988,34.9994,12.623800000000001,175,75
2026-05-09 17:06:00.229,1,-0.22,0.48,0.95,37.5288,34.3294,12.8038,175,75
2026-05-09 17:06:00.239,1,-0.22,0.48,0.96,38.0788,34.2094,12.933800000000002,175,75
2026-05-09 17:06:00.266,1,-0.23,0.49,0.96,37.7788,32.9294,13.413800000000002,175,75
2026-05-09 17:06:00.270,1,-0.23,0.49,0.98,38.2588,33.1094,13.663800000000002,175,75
2026-05-09 17:06:00.287,1,-0.24,0.49,0.96,38.3288,32.9294,13.293800000000001,175,75
2026-05-09 17:06:00.321,1,-0.26,0.47,0.96,39.4188,33.4794,10.913800000000002,175,75
2026-05-09 17:06:00.333,1,-0.26,0.47,0.96,39.9688,32.8694,10.003800000000002,175,75
2026-05-09 17:06:00.333,1,-0.26,0.47,0.95,40.1488,33.3594,8.783800000000001,175,75
2026-05-09 17:06:00.362,1,-0.26,0.47,0.95,40.638799999999996,33.5394,7.743800000000001,175,75
2026-05-09 17:06:00.362,1,-0.26,0.47,0.95,40.888799999999996,33.0494,6.1038000000000014,175,75
2026-05-09 17:06:00.372,1,-0.27,0.46,0.98,40.3988,32.0194,2.873800000000001,175,75
2026-05-09 17:06:00.382,1,-0.26,0.46,0.98,40.5188,32.1994,2.0138000000000016,175,75
2026-05-09 17:06:00.408,1,-0.25,0.48,0.99,40.0288,32.6894,1.3438000000000017,175,75
2026-05-09 17:06:00.431,1,-0.25,0.48,0.99,39.4788,33.7194,1.953800000000001,175,75
2026-05-09 17:06:00.446,1,-0.23,0.48,1.0,38.8088,33.2994,3.8438000000000017,175,75
2026-05-09 17:06:00.461,1,-0.23,0.49,1.0,38.0788,32.8694,4.333800000000001,175,75
2026-05-09 17:06:00.472,1,-0.23,0.48,1.0,37.2288,32.2594,4.693800000000001,175,75
2026-05-09 17:06:00.482,1,-0.23,0.49,0.99,36.3088,32.559400000000004,5.243800000000001,175,75
2026-05-09 17:06:00.508,1,-0.23,0.48,0.98,36.1888,33.7194,6.283800000000001,175,75
2026-05-09 17:06:00.530,1,-0.23,0.48,0.97,34.7288,33.5994,6.043800000000001,175,75
2026-05-09 17:06:00.555,1,-0.24,0.47,0.97,34.6688,33.5994,6.043800000000001,175,75
2026-05-09 17:06:00.559,1,-0.24,0.47,0.97,34.6688,33.5994,5.243800000000001,175,75
2026-05-09 17:06:00.571,1,-0.24,0.47,0.96,34.6088,34.0294,4.763800000000001,175,75
2026-05-09 17:06:00.589,1,-0.25,0.46,0.96,34.8488,34.4594,4.3938000000000015,175,75
2026-05-09 17:06:00.604,1,-0.25,0.46,0.98,35.0288,34.6394,3.963800000000001,175,75
2026-05-09 17:06:00.618,1,-0.25,0.45,0.98,34.9088,34.5194,3.6038000000000014,175,75
2026-05-09 17:06:00.629,1,-0.25,0.45,0.98,35.3388,34.4594,3.543800000000001,175,75
2026-05-09 17:06:00.635,1,-0.25,0.46,0.97,35.5188,34.6394,3.543800000000001,175,75
2026-05-09 17:06:00.662,1,-0.25,0.46,0.96,36.6188,35.7994,3.413800000000002,175,75
2026-05-09 17:06:00.705,1,-0.24,0.47,0.96,36.9788,36.5894,2.9338000000000015,175,75
2026-05-09 17:06:00.725,1,-0.24,0.46,0.98,37.4688,36.5894,2.9338000000000015,175,75
2026-05-09 17:06:00.725,1,-0.25,0.46,0.99,37.7788,36.7094,3.2338000000000005,175,75
2026-05-09 17:06:00.759,1,-0.26,0.46,0.99,37.2288,36.5294,4.213800000000001,175,75
2026-05-09 17:06:00.759,1,-0.25,0.47,0.99,37.8988,36.9594,5.4338000000000015,175,75
2026-05-09 17:06:00.772,1,-0.24,0.46,1.0,38.6288,37.809400000000004,6.653800000000001,175,75
2026-05-09 17:06:00.786,1,-0.25,0.47,0.97,39.3588,38.2394,9.3938,175,75
2026-05-09 17:06:00.797,1,-0.24,0.47,0.98,39.7288,37.6894,9.823800000000002,175,75
2026-05-09 17:06:00.809,1,-0.23,0.46,0.98,39.2388,37.4994,10.793800000000001,175,75
2026-05-09 17:06:00.831,1,-0.24,0.45,0.97,38.6888,36.2794,11.043800000000001,175,75
2026-05-09 17:06:00.845,1,-0.24,0.46,0.97,38.1988,36.2194,11.2238,175,75
2026-05-09 17:06:00.859,1,-0.23,0.45,0.97,38.4488,36.8294,12.0738,175,75
2026-05-09 17:06:00.872,1,-0.23,0.44,0.96,38.4488,37.2594,12.0738,175,75
2026-05-09 17:06:00.891,1,-0.22,0.45,0.96,37.6488,37.559400000000004,11.953800000000001,175,75
2026-05-09 17:06:00.892,1,-0.23,0.44,0.97,37.2288,38.0494,12.503800000000002,175,75
2026-05-09 17:06:00.905,1,-0.23,0.46,0.98,36.3088,37.7494,12.873800000000001,175,75
2026-05-09 17:06:00.923,1,-0.22,0.46,1.0,34.3588,37.9894,15.183800000000002,175,75
2026-05-09 17:06:00.935,1,-0.22,0.45,0.99,32.4088,38.1094,16.1038,175,75
2026-05-09 17:06:00.935,1,-0.23,0.45,0.99,31.7988,38.1694,17.2638,175,75
2026-05-09 17:06:00.956,1,-0.24,0.45,0.98,30.458799999999997,38.5994,18.483800000000002,175,75
2026-05-09 17:06:00.966,1,-0.23,0.45,0.97,30.458799999999997,38.7194,18.413800000000002,175,75
2026-05-09 17:06:00.978,1,-0.24,0.46,0.97,30.888799999999996,39.3294,18.233800000000002,175,75
2026-05-09 17:06:00.988,1,-0.24,0.46,0.96,31.0088,40.5494,17.9938,175,75
2026-05-09 17:06:01.001,1,-0.24,0.46,0.96,31.3688,40.8594,17.9338,175,75
2026-05-09 17:06:01.012,1,-0.23,0.47,0.97,31.9788,41.7694,17.6838,175,75
2026-05-09 17:06:01.025,1,-0.24,0.48,0.97,32.1688,42.4394,17.873800000000003,175,75
2026-05-09 17:06:01.033,1,-0.23,0.49,0.98,32.2288,42.8694,18.233800000000002,175,75
2026-05-09 17:06:01.043,1,-0.23,0.5,0.97,33.0788,43.8494,18.5438,175,75
2026-05-09 17:06:01.057,1,-0.23,0.52,0.96,33.0188,44.3894,19.2738,175,75
2026-05-09 17:06:01.069,1,-0.23,0.52,0.98,33.0788,44.0894,20.123800000000003,175,75
2026-05-09 17:06:01.080,1,-0.22,0.53,0.99,32.2288,42.9894,21.2838,175,75
2026-05-09 17:06:01.081,1,-0.22,0.53,1.0,31.308799999999998,42.1994,22.193800000000003,175,75
2026-05-09 17:06:01.093,1,-0.22,0.55,0.98,30.2188,42.0194,22.5638,175,75
2026-05-09 17:06:01.114,1,-0.22,0.54,0.98,29.9088,42.1994,24.333800000000004,175,75
2026-05-09 17:06:01.135,1,-0.22,0.54,0.99,29.668799999999997,41.8294,24.3938,175,75
2026-05-09 17:06:01.148,1,-0.23,0.53,0.95,29.4788,41.4694,23.6038,175,75
2026-05-09 17:06:01.166,1,-0.23,0.53,0.95,30.5188,41.1594,21.833800000000004,175,75
2026-05-09 17:06:01.178,1,-0.23,0.53,0.94,31.678800000000003,41.1594,20.7938,175,75
2026-05-09 17:06:01.192,1,-0.24,0.54,0.94,32.5288,40.6694,19.3338,175,75
2026-05-09 17:06:01.205,1,-0.24,0.54,0.94,33.388799999999996,40.9794,17.503800000000002,175,75
2026-05-09 17:06:01.217,1,-0.24,0.55,0.93,35.0288,41.2194,15.613800000000001,175,75
2026-05-09 17:06:01.237,1,-0.22,0.57,0.94,38.388799999999996,41.8294,12.9938,175,75
2026-05-09 17:06:01.261,1,-0.22,0.59,0.93,39.6688,41.7694,11.953800000000001,175,75
2026-05-09 17:06:01.261,1,-0.21,0.6,0.94,41.1288,42.1394,11.343800000000002,175,75
2026-05-09 17:06:01.277,1,-0.21,0.62,0.95,41.8588,41.8894,10.913800000000002,175,75
2026-05-09 17:06:01.277,1,-0.21,0.64,0.94,43.3288,41.8894,10.123800000000001,175,75
2026-05-09 17:06:01.288,1,-0.22,0.65,0.94,43.9288,42.6894,9.3338,175,75
2026-05-09 17:06:01.300,1,-0.23,0.65,0.96,45.2788,43.0494,7.803800000000001,175,75
2026-05-09 17:06:01.314,1,-0.24,0.65,0.96,46.0688,42.4394,6.343800000000001,175,75
2026-05-09 17:06:01.323,1,-0.26,0.64,0.97,46.6788,42.6894,4.513800000000001,175,75
2026-05-09 17:06:01.338,1,-0.26,0.64,0.98,47.2888,42.2594,1.7138000000000009,175,75
2026-05-09 17:06:01.350,1,-0.29,0.64,0.97,47.4688,42.2594,-1.0961999999999996,175,75
2026-05-09 17:06:01.372,1,-0.27,0.57,0.91,52.2288,43.4194,-11.036199999999997,175,75
2026-05-09 17:06:01.412,1,-0.28,0.56,0.92,58.4488,43.3594,-22.0062,175,75
2026-05-09 17:06:01.424,1,-0.27,0.56,0.92,61.4288,44.1494,-24.816200000000002,175,75
2026-05-09 17:06:01.424,1,-0.27,0.57,0.9,65.9488,44.4594,-28.956199999999995,175,75
2026-05-09 17:06:01.451,1,-0.2,0.55,0.89,71.00880000000001,43.1094,-34.3262,175,75
2026-05-09 17:06:01.476,1,-0.14,0.54,0.8,76.3688,42.3194,-43.166199999999996,175,75
2026-05-09 17:06:01.486,1,-0.13,0.53,0.79,78.62880000000001,41.4694,-49.3262,175,75
2026-05-09 17:06:01.497,1,-0.13,0.51,0.79,80.3988,39.4594,-55.056200000000004,175,75
2026-05-09 17:06:01.507,1,-0.15,0.52,0.81,81.9188,36.9594,-60.9062,175,75
2026-05-09 17:06:01.516,1,-0.16,0.53,0.81,81.8588,34.1494,-64.8162,175,75
2026-05-09 17:06:01.564,1,-0.21,0.49,0.82,84.05879999999999,37.3794,-80.4862,175,75
2026-05-09 17:06:01.575,1,-0.22,0.42,0.8,87.58879999999999,43.1094,-86.4562,175,75
2026-05-09 17:06:01.587,1,-0.19,0.3,0.76,93.1388,58.1094,-93.6562,175,75
2026-05-09 17:06:01.594,1,-0.17,0.29,0.8,95.33879999999999,62.4394,-98.1662,175,75
2026-05-09 17:06:01.612,1,-0.16,0.25,0.83,94.4788,61.8294,-103.1662,175,75
2026-05-09 17:06:01.622,1,-0.16,0.24,0.88,94.4188,65.4894,-105.36619999999999,175,75
2026-05-09 17:06:01.634,1,-0.14,0.24,0.96,95.33879999999999,69.2694,-102.9862,175,75
2026-05-09 17:06:01.645,1,-0.17,0.27,1.02,97.9588,75.3694,-97.4362,175,75
2026-05-09 17:06:01.656,1,-0.12,0.27,1.09,97.34880000000001,75.54939999999999,-89.2062,175,75
2026-05-09 17:06:01.669,1,-0.12,0.31,1.14,96.55879999999999,72.1994,-80.9762,175,75
2026-05-09 17:06:01.680,1,-0.12,0.26,1.15,94.2988,64.32939999999999,-71.9462,175,75
2026-05-09 17:06:01.704,1,-0.07,0.1,1.0,91.06880000000001,61.8894,-54.9362,175,75
2026-05-09 17:06:01.728,1,-0.03,-0.04,0.96,89.1788,62.9894,-48.7162,175,75
2026-05-09 17:06:01.739,1,-0.04,-0.09,0.97,88.56880000000001,64.2694,-47.6162,175,75
2026-05-09 17:06:01.759,1,-0.02,-0.12,1.02,85.33879999999999,62.0794,-41.6462,175,75
2026-05-09 17:06:01.774,1,-0.04,-0.07,1.0,81.3688,58.2394,-38.956199999999995,175,75
2026-05-09 17:06:01.785,1,-0.02,-0.05,0.98,78.9288,56.589400000000005,-36.276199999999996,175,75
2026-05-09 17:06:01.800,1,-0.01,-0.08,0.98,74.1188,56.8294,-31.096199999999996,175,75
2026-05-09 17:06:01.810,1,0.0,-0.11,0.98,71.6188,54.8194,-28.596199999999996,175,75
2026-05-09 17:06:01.829,1,0.01,-0.12,0.95,68.3288,52.1394,-25.5462,175,75
2026-05-09 17:06:01.848,1,0.02,-0.11,0.9,65.1488,51.2794,-23.956199999999995,175,75
2026-05-09 17:06:01.874,1,0.06,-0.09,0.89,62.5888,50.129400000000004,-23.416199999999996,175,75
2026-05-09 17:06:01.886,1,0.05,-0.08,0.88,60.2788,48.1094,-24.446199999999997,175,75
2026-05-09 17:06:01.889,1,0.05,-0.09,0.9,57.3488,47.4394,-25.7262,175,75
2026-05-09 17:06:01.904,1,0.06,-0.09,0.94,54.1188,46.409400000000005,-25.6062,175,75
2026-05-09 17:06:01.919,1,0.04,-0.11,0.95,51.0088,44.3894,-25.236199999999997,175,75
2026-05-09 17:06:01.929,1,0.02,-0.11,0.95,49.0588,42.4994,-23.8962,175,75
2026-05-09 17:06:01.940,1,0.0,-0.11,0.95,47.4688,41.4694,-22.316200000000002,175,75
2026-05-09 17:06:01.951,1,0.01,-0.1,0.96,48.0788,42.1994,-19.5062,175,75
2026-05-09 17:06:01.961,1,0.02,-0.1,0.95,48.8088,40.7394,-17.496199999999998,175,75
2026-05-09 17:06:01.971,1,0.04,-0.09,0.94,49.4188,41.0394,-14.816199999999998,175,75
2026-05-09 17:06:01.983,1,0.05,-0.1,0.9,50.2788,40.059400000000004,-13.286199999999997,175,75
2026-05-09 17:06:01.987,1,0.06,-0.12,0.89,51.3088,39.9994,-12.126199999999997,175,75
2026-05-09 17:06:02.011,1,0.11,-0.17,0.89,50.7588,36.3494,-10.4862,175,75
2026-05-09 17:06:02.020,1,0.1,-0.2,0.87,50.3988,35.3694,-10.906199999999998,175,75
2026-05-09 17:06:02.032,1,0.1,-0.21,0.88,50.8288,32.559400000000004,-11.456199999999999,175,75
2026-05-09 17:06:02.074,1,0.08,-0.2,0.91,50.5188,32.3194,-11.156199999999998,175,75
2026-05-09 17:06:02.101,1,0.04,-0.19,0.95,51.6788,28.779400000000003,-8.106199999999998,175,75
2026-05-09 17:06:02.101,1,0.02,-0.17,0.96,53.0788,30.059400000000004,-5.906199999999998,175,75
2026-05-09 17:06:02.120,1,0.03,-0.15,0.93,54.7888,30.669400000000003,-3.836199999999998,175,75
2026-05-09 17:06:02.130,1,0.05,-0.16,0.94,56.7988,32.2594,-1.8261999999999983,175,75
2026-05-09 17:06:02.133,1,0.06,-0.15,0.92,57.5888,33.5394,-1.3961999999999986,175,75
2026-05-09 17:06:02.149,1,0.08,-0.16,0.91,56.1288,33.1694,-1.0961999999999996,175,75
2026-05-09 17:06:02.153,1,0.09,-0.16,0.93,55.7588,31.889400000000002,-1.706199999999999,175,75
2026-05-09 17:06:02.186,1,0.04,-0.17,0.98,52.9588,30.2494,-0.11619999999999919,175,75
2026-05-09 17:06:02.208,1,0.01,-0.17,0.98,51.9788,32.2594,1.8938000000000006,175,75
2026-05-09 17:06:02.219,1,0.0,-0.17,0.98,52.0388,32.559400000000004,2.8038000000000007,175,75
2026-05-09 17:06:02.219,1,0.02,-0.18,0.99,51.9188,32.809400000000004,3.783800000000001,175,75
2026-05-09 17:06:02.231,1,0.02,-0.19,0.98,51.3688,33.4194,4.333800000000001,175,75
2026-05-09 17:06:02.251,1,0.06,-0.22,0.96,51.3088,35.6694,6.583800000000001,175,75
2026-05-09 17:06:02.260,1,0.09,-0.22,0.95,50.4588,35.8594,6.833800000000001,175,75
2026-05-09 17:06:02.294,1,0.07,-0.28,0.91,48.1988,36.4094,4.883800000000001,175,75
2026-05-09 17:06:02.305,1,0.08,-0.29,0.96,46.9788,33.5994,3.9038000000000004,175,75
2026-05-09 17:06:02.316,1,0.06,-0.27,0.99,44.7888,32.8694,3.413800000000002,175,75
2026-05-09 17:06:02.336,1,0.05,-0.22,1.01,43.5088,31.099400000000003,4.213800000000001,175,75
2026-05-09 17:06:02.360,1,0.03,-0.13,0.98,40.8288,30.5494,7.743800000000001,175,75
2026-05-09 17:06:02.398,1,0.06,-0.16,0.95,40.4588,34.6394,7.563800000000001,175,75
2026-05-09 17:06:02.398,1,0.07,-0.16,0.97,41.0688,34.0894,8.413800000000002,175,75
2026-05-09 17:06:02.408,1,0.05,-0.17,0.98,39.7288,34.0294,9.023800000000001,175,75
2026-05-09 17:06:02.418,1,0.03,-0.2,0.99,40.3988,33.7794,9.6338,175,75
2026-05-09 17:06:02.441,1,0.01,-0.23,0.98,40.6988,35.1294,10.123800000000001,175,75
2026-05-09 17:06:02.464,1,0.03,-0.23,0.96,41.4288,34.8194,10.2438,175,75
2026-05-09 17:06:02.474,1,0.05,-0.25,0.98,41.9788,35.1294,9.943800000000001,175,75
2026-05-09 17:06:02.503,1,0.04,-0.23,0.97,40.3388,33.2394,9.6338,175,75
2026-05-09 17:06:02.513,1,0.04,-0.25,0.96,40.3988,33.0494,7.803800000000001,175,75
2026-05-09 17:06:02.524,1,0.04,-0.24,0.97,39.9088,33.2394,7.563800000000001,175,75
2026-05-09 17:06:02.553,1,0.02,-0.2,1.0,37.9588,33.6594,8.7238,175,75
2026-05-09 17:06:02.565,1,0.02,-0.2,0.99,37.0388,35.309400000000004,10.183800000000002,175,75
2026-05-09 17:06:02.585,1,0.03,-0.21,1.0,36.9188,35.3694,10.5538,175,75
2026-05-09 17:06:02.596,1,0.03,-0.19,1.0,34.2988,36.7694,10.793800000000001,175,75
2026-05-09 17:06:02.606,1,0.04,-0.17,1.01,33.4488,36.2194,11.283800000000001,175,75
2026-05-09 17:06:02.617,1,0.03,-0.19,1.0,31.918799999999997,36.5294,11.773800000000001,175,75
2026-05-09 17:06:02.635,1,0.03,-0.22,0.98,31.9788,38.1694,12.3838,175,75
2026-05-09 17:06:02.643,1,0.05,-0.21,0.99,30.9488,38.5994,12.873800000000001,175,75
2026-05-09 17:06:02.651,1,0.04,-0.21,0.98,29.058799999999998,39.6394,14.0838,175,75
2026-05-09 17:06:02.666,1,0.04,-0.19,0.98,28.388799999999996,40.4894,15.3038,175,75
2026-05-09 17:06:02.676,1,0.03,-0.18,1.01,27.778799999999997,41.0394,16.4638,175,75
2026-05-09 17:06:02.686,1,0.03,-0.17,1.0,26.6788,39.9394,17.803800000000003,175,75
2026-05-09 17:06:02.698,1,0.03,-0.17,0.98,26.0088,40.2494,18.6038,175,75
2026-05-09 17:06:02.709,1,0.06,-0.17,0.99,25.7588,39.2094,19.2138,175,75
2026-05-09 17:06:02.713,1,0.04,-0.18,0.96,24.4788,41.7694,20.4338,175,75
2026-05-09 17:06:02.733,1,0.06,-0.19,0.95,23.7488,40.7394,20.373800000000003,175,75
2026-05-09 17:06:02.744,1,0.06,-0.2,0.93,22.5888,41.7694,19.5138,175,75
2026-05-09 17:06:02.744,1,0.06,-0.22,0.92,21.7988,42.1994,18.8438,175,75
2026-05-09 17:06:02.758,1,0.05,-0.22,0.96,20.8288,40.7994,17.503800000000002,175,75
2026-05-09 17:06:02.772,1,0.03,-0.21,0.97,19.058799999999998,40.059400000000004,17.1338,175,75
2026-05-09 17:06:02.782,1,0.01,-0.19,0.98,18.5688,39.1494,17.443800000000003,175,75
2026-05-09 17:06:02.793,1,-0.0,-0.18,0.98,17.5888,39.1494,17.073800000000002,175,75
2026-05-09 17:06:02.804,1,0.0,-0.16,0.97,16.3688,39.0894,17.0138,175,75
2026-05-09 17:06:02.816,1,0.02,-0.16,0.95,15.948799999999999,40.1294,17.443800000000003,175,75
2026-05-09 17:06:02.827,1,0.02,-0.16,0.93,16.308799999999998,41.8894,16.7738,175,75
2026-05-09 17:06:02.839,1,0.05,-0.16,0.93,15.578800000000001,41.7694,16.9538,175,75
2026-05-09 17:06:02.847,1,0.05,-0.15,0.92,15.148800000000001,43.2394,16.8338,175,75
2026-05-09 17:06:02.856,1,0.03,-0.16,0.92,14.608799999999999,42.559400000000004,17.5638,175,75
2026-05-09 17:06:02.868,1,0.01,-0.16,0.96,13.9988,43.0494,18.663800000000002,175,75
2026-05-09 17:06:02.885,1,0.0,-0.13,1.0,13.6888,43.5994,20.983800000000002,175,75
2026-05-09 17:06:02.899,1,0.01,-0.13,0.99,13.3888,41.5294,23.1738,175,75
2026-05-09 17:06:02.910,1,0.01,-0.12,0.98,12.2288,40.2494,25.1838,175,75
2026-05-09 17:06:02.922,1,0.01,-0.11,0.95,12.3488,40.5494,26.8938,175,75
2026-05-09 17:06:02.922,1,0.01,-0.1,0.94,12.3488,40.5494,28.9038,175,75
2026-05-09 17:06:02.943,1,0.0,-0.1,0.94,12.9588,42.3194,31.3438,175,75
2026-05-09 17:06:02.966,1,0.01,-0.12,0.92,15.0288,44.5794,36.463800000000006,175,75
2026-05-09 17:06:02.976,1,0.02,-0.14,0.9,15.698799999999999,46.769400000000005,38.2338,175,75
2026-05-09 17:06:03.002,1,0.01,-0.14,0.92,19.4188,52.9894,41.653800000000004,175,75
2026-05-09 17:06:03.025,1,-0.03,-0.09,0.96,20.8888,51.0394,50.1238,175,75
2026-05-09 17:06:03.040,1,-0.02,-0.08,0.95,23.5088,53.1694,51.223800000000004,175,75
2026-05-09 17:06:03.052,1,-0.01,-0.06,0.93,23.5088,52.3194,52.4438,175,75
2026-05-09 17:06:03.058,1,-0.02,-0.04,0.9,23.2588,52.809400000000004,54.0238,175,75
2026-05-09 17:06:03.066,1,0.01,-0.05,0.88,23.5688,56.2794,56.043800000000005,175,75
2026-05-09 17:06:03.086,1,0.04,-0.07,0.89,23.2588,55.309400000000004,57.5638,175,75
2026-05-09 17:06:03.099,1,0.03,-0.08,0.87,22.1088,55.7994,57.1938,175,75
2026-05-09 17:06:03.099,1,0.05,-0.06,0.85,21.4288,53.2994,55.9138,175,75
2026-05-09 17:06:03.142,1,-0.02,0.07,0.92,13.628799999999998,52.199400000000004,52.3238,175,75
2026-05-09 17:06:03.153,1,-0.06,0.1,0.9,12.108799999999999,55.6094,51.403800000000004,175,75
2026-05-09 17:06:03.165,1,-0.08,0.13,0.88,12.468799999999998,64.7594,51.7738,175,75
2026-05-09 17:06:03.175,1,-0.07,0.15,0.89,11.3688,74.93939999999999,52.5638,175,75
2026-05-09 17:06:03.186,1,-0.03,0.14,0.88,8.9988,79.51939999999999,53.3538,175,75
2026-05-09 17:06:03.197,1,0.03,0.12,0.87,4.2387999999999995,77.1394,53.543800000000005,175,75
2026-05-09 17:06:03.197,1,0.1,0.1,0.84,-2.4712000000000005,71.5894,50.6738,175,75
2026-05-09 17:06:03.229,1,0.19,0.05,0.74,-12.2212,58.7194,41.5938,175,75
2026-05-09 17:06:03.229,1,0.21,0.02,0.75,-13.0212,53.9694,38.4838,175,75
2026-05-09 17:06:03.245,1,0.18,0.01,0.78,-16.1312,40.059400000000004,34.0238,175,75
2026-05-09 17:06:03.258,1,0.13,0.02,0.79,-18.6312,32.3794,31.4038,175,75
2026-05-09 17:06:03.269,1,0.07,0.05,0.78,-19.2412,22.9294,28.6038,175,75
2026-05-09 17:06:03.283,1,0.03,0.15,0.74,-19.0512,26.8294,26.7738,175,75
2026-05-09 17:06:03.310,1,0.04,0.21,0.79,-12.831199999999999,29.699399999999997,24.513800000000003,175,75
2026-05-09 17:06:03.330,1,0.03,0.25,0.79,-14.6012,27.2594,21.833800000000004,175,75
2026-05-09 17:06:03.342,1,0.06,0.24,0.76,-14.661200000000001,29.209400000000002,21.7138,175,75
2026-05-09 17:06:03.358,1,0.05,0.28,0.78,-14.1712,26.959400000000002,21.5238,175,75
2026-05-09 17:06:03.367,1,0.04,0.32,0.79,-15.2112,26.2194,20.8538,175,75
2026-05-09 17:06:03.382,1,0.01,0.34,0.79,-15.4612,26.889400000000002,19.0238,175,75
2026-05-09 17:06:03.412,1,0.0,0.34,0.78,-14.5412,28.1694,18.233800000000002,175,75
2026-05-09 17:06:03.423,1,-0.02,0.33,0.82,-12.7712,27.6294,17.6838,175,75
2026-05-09 17:06:03.465,1,-0.02,0.35,0.8,-10.461200000000002,17.5594,20.983800000000002,175,75
2026-05-09 17:06:03.477,1,-0.02,0.35,0.76,-8.3812,17.2594,21.833800000000004,175,75
2026-05-09 17:06:03.488,1,-0.02,0.35,0.76,-7.2212000000000005,16.0994,21.4638,175,75
2026-05-09 17:06:03.498,1,-0.03,0.32,0.81,-5.091200000000001,12.5594,20.2438,175,75
2026-05-09 17:06:03.498,1,-0.05,0.35,0.81,-4.9112,8.0494,19.0838,175,75
2026-05-09 17:06:03.521,1,-0.03,0.35,0.7,1.7988,12.4994,17.9338,175,75
2026-05-09 17:06:03.521,1,-0.0,0.36,0.71,4.7288,13.6594,17.5638,175,75
2026-05-09 17:06:03.536,1,0.03,0.37,0.71,5.6388,12.2594,16.7738,175,75
2026-05-09 17:06:03.546,1,0.04,0.39,0.69,6.3688,10.6694,15.433800000000002,175,75
2026-05-09 17:06:03.557,1,0.07,0.39,0.71,7.588799999999999,10.2494,14.513800000000002,175,75
2026-05-09 17:06:03.562,1,0.02,0.42,0.72,9.1188,9.6994,14.0838,175,75
2026-05-09 17:06:03.581,1,-0.0,0.42,0.77,9.7288,10.3694,15.433800000000002,175,75
2026-05-09 17:06:03.596,1,-0.02,0.44,0.81,12.038799999999998,7.1394,18.7238,175,75
2026-05-09 17:06:03.665,1,-0.06,0.49,0.8,31.068800000000003,4.9994000000000005,28.6038,175,75
2026-05-09 17:06:03.696,1,-0.13,0.54,0.92,45.0888,0.3094000000000001,41.5938,175,75
2026-05-09 17:06:03.715,1,-0.14,0.53,0.92,48.8088,-2.9206000000000003,46.2838,175,75
2026-05-09 17:06:03.740,1,-0.1,0.48,0.85,58.0188,-2.1305999999999994,52.9938,175,75
2026-05-09 17:06:03.753,1,-0.15,0.51,0.75,62.108799999999995,3.7794000000000008,55.0038,175,75
2026-05-09 17:06:03.772,1,-0.11,0.45,0.73,68.62880000000001,12.9294,55.1838,175,75
2026-05-09 17:06:03.784,1,-0.11,0.42,0.8,74.4188,17.1994,52.6838,175,75
2026-05-09 17:06:03.803,1,-0.15,0.4,0.84,73.56880000000001,13.8494,47.8738,175,75
2026-05-09 17:06:03.814,1,-0.18,0.41,0.86,73.8688,13.1094,44.9438,175,75
2026-05-09 17:06:03.837,1,-0.21,0.41,0.88,73.1988,13.3594,39.573800000000006,175,75
2026-05-09 17:06:03.847,1,-0.22,0.42,0.89,72.58879999999999,14.7594,36.653800000000004,175,75
2026-05-09 17:06:03.853,1,-0.22,0.42,0.91,71.12880000000001,13.4194,34.153800000000004,175,75
2026-05-09 17:06:03.868,1,-0.21,0.41,0.9,68.74879999999999,14.9994,31.0438,175,75
2026-05-09 17:06:03.879,1,-0.21,0.41,0.88,67.03880000000001,18.7794,27.0738,175,75
2026-05-09 17:06:03.901,1,-0.19,0.41,0.92,61.248799999999996,22.4394,20.553800000000003,175,75
2026-05-09 17:06:03.916,1,-0.2,0.41,0.92,56.7988,23.2994,17.623800000000003,175,75
2026-05-09 17:06:03.916,1,-0.2,0.41,0.92,54.8488,23.9694,15.373800000000001,175,75
2026-05-09 17:06:03.939,1,-0.2,0.42,0.93,51.6188,26.349400000000003,12.5638,175,75
2026-05-09 17:06:03.951,1,-0.21,0.43,0.97,46.4288,28.9694,9.273800000000001,175,75
2026-05-09 17:06:03.960,1,-0.23,0.44,0.98,44.2988,29.519399999999997,7.193800000000001,175,75
2026-05-09 17:06:03.978,1,-0.23,0.46,0.99,41.3688,29.029400000000003,6.223800000000001,175,75
2026-05-09 17:06:03.988,1,-0.22,0.45,1.0,37.9588,28.1094,4.763800000000001,175,75
2026-05-09 17:06:04.012,1,-0.21,0.43,0.94,31.558799999999998,29.879399999999997,0.793800000000001,175,75
2026-05-09 17:06:04.034,1,-0.21,0.42,0.94,27.168799999999997,31.0394,-2.1961999999999993,175,75
2026-05-09 17:06:04.046,1,-0.21,0.41,0.93,24.4788,31.2194,-3.5961999999999996,175,75
2026-05-09 17:06:04.057,1,-0.2,0.42,0.94,23.0788,32.1994,-5.176199999999998,175,75
2026-05-09 17:06:04.068,1,-0.2,0.42,0.94,21.6188,33.1694,-6.516199999999998,175,75
2026-05-09 17:06:04.078,1,-0.21,0.44,0.92,20.218799999999998,33.1094,-6.8262,175,75
2026-05-09 17:06:04.089,1,-0.18,0.42,0.93,20.4588,34.0294,-7.5562000000000005,175,75
2026-05-09 17:06:04.106,1,-0.18,0.43,0.9,17.8988,35.2494,-10.4862,175,75
2026-05-09 17:06:04.117,1,-0.17,0.43,0.9,17.3488,35.6094,-11.2162,175,75
2026-05-09 17:06:04.143,1,-0.18,0.43,0.89,15.8888,35.059400000000004,-12.676199999999998,175,75
2026-05-09 17:06:04.155,1,-0.17,0.43,0.9,16.1288,35.6694,-13.286199999999997,175,75
2026-05-09 17:06:04.177,1,-0.17,0.44,0.89,15.578800000000001,33.9094,-13.7762,175,75
2026-05-09 17:06:04.189,1,-0.17,0.43,0.89,16.6788,33.1094,-13.7162,175,75
2026-05-09 17:06:04.200,1,-0.18,0.45,0.9,17.468799999999998,32.9894,-13.3462,175,75
2026-05-09 17:06:04.210,1,-0.18,0.44,0.9,19.1788,32.7494,-12.676199999999998,175,75
2026-05-09 17:06:04.223,1,-0.18,0.44,0.9,20.8888,32.9294,-11.946199999999997,175,75
2026-05-09 17:06:04.246,1,-0.17,0.44,0.91,25.0888,32.7494,-8.7762,175,75
2026-05-09 17:06:04.262,1,-0.18,0.44,0.91,26.0688,31.349400000000003,-7.866199999999999,175,75
2026-05-09 17:06:04.276,1,-0.17,0.44,0.9,26.308799999999998,31.529400000000003,-7.0661999999999985,175,75
2026-05-09 17:06:04.288,1,-0.16,0.45,0.9,28.4488,30.919400000000003,-5.4862,175,75
2026-05-09 17:06:04.302,1,-0.17,0.45,0.9,29.358800000000002,30.8594,-4.1462,175,75
2026-05-09 17:06:04.312,1,-0.17,0.44,0.91,30.7588,30.5494,-2.6761999999999997,175,75
2026-05-09 17:06:04.323,1,-0.17,0.43,0.89,32.8388,29.519399999999997,-0.4861999999999984,175,75
2026-05-09 17:06:04.342,1,-0.18,0.43,0.9,34.2988,29.089399999999998,0.9838000000000005,175,75
2026-05-09 17:06:04.343,1,-0.16,0.43,0.9,35.3988,29.519399999999997,1.7138000000000009,175,75
2026-05-09 17:06:04.366,1,-0.16,0.41,0.9,37.5888,31.709400000000002,3.413800000000002,175,75
2026-05-09 17:06:04.377,1,-0.18,0.42,0.9,38.0188,30.919400000000003,5.373800000000001,175,75
2026-05-09 17:06:04.377,1,-0.17,0.41,0.92,39.1188,30.059400000000004,6.163800000000001,175,75
2026-05-09 17:06:04.388,1,-0.18,0.41,0.91,39.3588,29.699399999999997,7.743800000000001,175,75
2026-05-09 17:06:04.398,1,-0.17,0.42,0.92,39.7288,29.459400000000002,8.603800000000001,175,75
2026-05-09 17:06:04.422,1,-0.19,0.42,0.93,40.1488,30.2494,10.7338,175,75
2026-05-09 17:06:04.436,1,-0.19,0.41,0.92,40.888799999999996,31.2194,11.583800000000002,175,75
2026-05-09 17:06:04.448,1,-0.19,0.41,0.92,40.3988,32.6894,12.3838,175,75
2026-05-09 17:06:04.460,1,-0.19,0.41,0.93,40.888799999999996,34.1494,12.933800000000002,175,75
2026-05-09 17:06:04.471,1,-0.21,0.41,0.94,40.5788,34.3294,13.603800000000001,175,75
2026-05-09 17:06:04.480,1,-0.2,0.43,0.94,40.9488,34.4594,13.4838,175,75
2026-05-09 17:06:04.494,1,-0.2,0.43,0.95,40.7588,34.5794,13.7238,175,75
2026-05-09 17:06:04.534,1,-0.21,0.44,0.94,39.8488,34.6994,14.1538,175,75
2026-05-09 17:06:04.545,1,-0.21,0.44,0.94,39.8488,36.6494,14.763800000000002,175,75
2026-05-09 17:06:04.545,1,-0.22,0.44,0.93,40.0288,36.8894,14.693800000000001,175,75
2026-05-09 17:06:04.552,1,-0.22,0.43,0.95,39.6688,37.559400000000004,15.123800000000001,175,75
2026-05-09 17:06:04.583,1,-0.22,0.43,0.95,40.2188,37.3194,15.793800000000001,175,75
2026-05-09 17:06:04.595,1,-0.22,0.43,0.94,40.7588,37.3794,16.0438,175,75
2026-05-09 17:06:04.608,1,-0.23,0.44,0.93,40.9488,37.3194,15.5538,175,75
2026-05-09 17:06:04.619,1,-0.22,0.43,0.93,41.2488,37.4994,14.693800000000001,175,75
2026-05-09 17:06:04.653,1,-0.22,0.44,0.92,41.3688,37.0194,13.543800000000001,175,75
2026-05-09 17:06:04.665,1,-0.23,0.44,0.93,42.1088,36.0994,11.833800000000002,175,75
2026-05-09 17:06:04.673,1,-0.21,0.45,0.94,43.1988,35.8594,10.5538,175,75
2026-05-09 17:06:04.684,1,-0.2,0.44,0.95,44.4788,38.0494,9.763800000000002,175,75
2026-05-09 17:06:04.715,1,-0.23,0.47,0.94,44.0588,36.8894,9.0838,175,75
2026-05-09 17:06:04.728,1,-0.22,0.47,0.94,42.4088,35.6094,7.9338000000000015,175,75
2026-05-09 17:06:04.739,1,-0.2,0.47,0.93,42.9588,36.5894,7.803800000000001,175,75
2026-05-09 17:06:04.750,1,-0.2,0.48,0.91,42.7188,38.1094,7.443800000000001,175,75
2026-05-09 17:06:04.779,1,-0.18,0.48,0.91,43.2588,38.5394,6.713800000000001,175,75
2026-05-09 17:06:04.807,1,-0.18,0.47,0.91,43.0188,37.559400000000004,5.4338000000000015,175,75
2026-05-09 17:06:04.828,1,-0.19,0.45,0.92,43.8088,37.6294,3.9038000000000004,175,75
2026-05-09 17:06:04.839,1,-0.2,0.43,0.91,44.6688,37.4394,2.7438000000000002,175,75
2026-05-09 17:06:04.850,1,-0.19,0.43,0.91,46.3688,38.0494,2.6838000000000015,175,75
2026-05-09 17:06:04.898,1,-0.2,0.39,0.91,48.3288,37.6294,0.8538000000000014,175,75
2026-05-09 17:06:04.909,1,-0.19,0.4,0.89,49.4788,38.2994,0.5538000000000007,175,75
2026-05-09 17:06:04.920,1,-0.19,0.41,0.9,50.9488,38.7794,0.49380000000000024,175,75
2026-05-09 17:06:04.932,1,-0.17,0.41,0.91,50.638799999999996,38.9094,0.9138000000000019,175,75
2026-05-09 17:06:04.952,1,-0.17,0.4,0.91,50.9488,38.7794,1.163800000000002,175,75
2026-05-09 17:06:04.952,1,-0.17,0.4,0.9,50.1488,39.6994,2.133800000000001,175,75
2026-05-09 17:06:04.962,1,-0.16,0.39,0.9,49.6088,40.4294,2.8038000000000007,175,75
2026-05-09 17:06:04.973,1,-0.17,0.37,0.9,49.1788,42.4394,4.513800000000001,175,75
2026-05-09 17:06:04.995,1,-0.16,0.38,0.91,48.5688,43.5994,6.463800000000001,175,75
2026-05-09 17:06:05.004,1,-0.13,0.37,0.91,49.1188,46.2194,8.843800000000002,175,75
2026-05-09 17:06:05.045,1,-0.15,0.37,0.92,48.8688,49.5794,15.183800000000002,175,75
2026-05-09 17:06:05.045,1,-0.14,0.37,0.91,48.6888,49.3294,17.073800000000002,175,75
2026-05-09 17:06:05.056,1,-0.14,0.37,0.92,49.2388,49.3894,19.0838,175,75
2026-05-09 17:06:05.129,1,-0.19,0.37,0.93,48.7488,44.5194,22.3838,175,75
2026-05-09 17:06:05.129,1,-0.22,0.39,0.92,49.2388,43.1094,23.2938,175,75
2026-05-09 17:06:05.129,1,-0.2,0.39,0.93,50.3988,43.4194,23.3538,175,75
2026-05-09 17:06:05.129,1,-0.19,0.38,0.9,52.2888,43.2994,23.2938,175,75
2026-05-09 17:06:05.139,1,-0.19,0.38,0.89,53.6288,44.3894,23.8438,175,75
2026-05-09 17:06:05.152,1,-0.19,0.4,0.89,55.7588,43.1094,24.2138,175,75
2026-05-09 17:06:05.163,1,-0.18,0.41,0.89,57.2888,43.6594,25.1838,175,75
2026-05-09 17:06:05.174,1,-0.19,0.41,0.89,57.8988,43.2994,24.8838,175,75
2026-05-09 17:06:05.181,1,-0.18,0.42,0.88,59.238800000000005,42.6894,25.0638,175,75
2026-05-09 17:06:05.192,1,-0.17,0.43,0.87,60.578799999999994,43.1094,24.763800000000003,175,75
2026-05-09 17:06:05.202,1,-0.16,0.43,0.85,61.79879999999999,43.9694,24.2138,175,75
2026-05-09 17:06:05.214,1,-0.15,0.41,0.83,63.998799999999996,46.6494,23.233800000000002,175,75
2026-05-09 17:06:05.214,1,-0.15,0.42,0.82,67.52879999999999,46.8894,23.1738,175,75
2026-05-09 17:06:05.244,1,-0.14,0.41,0.8,71.06880000000001,47.809400000000004,23.233800000000002,175,75
2026-05-09 17:06:05.264,1,-0.14,0.4,0.79,75.21879999999999,49.8194,23.1138,175,75
2026-05-09 17:06:05.273,1,-0.14,0.41,0.81,81.49879999999999,50.3694,24.333800000000004,175,75
2026-05-09 17:06:05.273,1,-0.13,0.44,0.83,85.75880000000001,48.659400000000005,27.193800000000003,175,75
2026-05-09 17:06:05.295,1,-0.16,0.5,0.87,96.12880000000001,45.9194,31.463800000000003,175,75
2026-05-09 17:06:05.307,1,-0.18,0.53,0.88,102.71879999999999,44.3294,33.963800000000006,175,75
2026-05-09 17:06:05.323,1,-0.18,0.54,0.9,111.7388,42.9894,37.2638,175,75
2026-05-09 17:06:05.341,1,-0.15,0.52,0.88,126.55880000000002,45.979400000000005,42.3838,175,75
2026-05-09 17:06:05.351,1,-0.12,0.44,0.82,138.4488,60.1894,44.8838,175,75
2026-05-09 17:06:05.362,1,-0.19,0.43,0.81,142.52880000000002,64.93939999999999,44.333800000000004,175,75
2026-05-09 17:06:05.371,1,-0.22,0.44,0.83,143.6288,64.93939999999999,42.933800000000005,175,75
2026-05-09 17:06:05.381,1,-0.23,0.4,0.85,144.9088,64.3894,39.0938,175,75
2026-05-09 17:06:05.396,1,-0.32,0.4,0.84,147.77880000000002,67.1994,34.6338,175,75
2026-05-09 17:06:05.409,1,-0.32,0.32,0.9,153.2588,69.4494,30.1838,175,75
2026-05-09 17:06:05.420,1,-0.33,0.29,0.87,156.18880000000001,69.6394,26.7138,175,75
2026-05-09 17:06:05.420,1,-0.29,0.25,0.84,160.3988,76.1594,24.0938,175,75
2026-05-09 17:06:05.453,1,-0.23,0.2,0.77,164.8488,85.4294,19.2738,175,75
2026-05-09 17:06:05.461,1,-0.24,0.26,0.76,171.8588,105.12939999999999,20.6738,175,75
2026-05-09 17:06:05.478,1,-0.06,0.14,0.77,184.5388,105.6694,22.1338,175,75
2026-05-09 17:06:05.489,1,-0.08,0.22,0.81,189.2988,112.4994,26.2238,175,75
2026-05-09 17:06:05.506,1,-0.05,0.2,0.88,195.33880000000002,113.23939999999999,28.483800000000002,175,75
2026-05-09 17:06:05.519,1,-0.08,0.26,0.88,196.0688,116.34939999999999,33.7838,175,75
2026-05-09 17:06:05.519,1,-0.08,0.26,0.91,199.7888,125.2494,39.943799999999996,175,75
2026-05-09 17:06:05.534,1,-0.04,0.24,0.95,204.3588,135.1294,49.0238,175,75
2026-05-09 17:06:05.561,1,-0.0,0.13,0.93,202.46880000000002,148.8494,64.5738,175,75
2026-05-09 17:06:05.568,1,0.05,0.02,0.97,206.24880000000002,149.14939999999999,68.96379999999999,175,75
2026-05-09 17:06:05.605,1,0.02,-0.16,1.03,204.5388,141.27939999999998,80.8538,175,75
2026-05-09 17:06:05.616,1,0.02,-0.18,1.08,207.4088,133.5394,85.49380000000001,175,75
2026-05-09 17:06:05.627,1,0.0,-0.16,1.06,206.8588,130.1894,89.1538,175,75
2026-05-09 17:06:05.637,1,-0.01,-0.08,1.04,208.5088,131.6494,94.63380000000001,175,75
2026-05-09 17:06:05.637,1,-0.02,-0.06,1.01,210.27880000000002,137.8094,97.6838,175,75
2026-05-09 17:06:05.648,1,0.03,-0.08,1.02,210.21880000000002,142.0794,98.9638,175,75
2026-05-09 17:06:05.660,1,0.05,-0.09,1.01,209.4188,145.8594,99.2138,175,75
2026-05-09 17:06:05.671,1,0.09,-0.09,1.01,206.49880000000002,148.1094,100.6138,175,75
2026-05-09 17:06:05.682,1,0.14,-0.13,1.01,200.21880000000002,147.4994,100.49380000000001,175,75
2026-05-09 17:06:05.692,1,0.15,-0.17,1.01,192.9588,144.02939999999998,99.6938,175,75
2026-05-09 17:06:05.703,1,0.13,-0.26,1.1,186.3688,139.8194,97.3238,175,75
2026-05-09 17:06:05.725,1,0.08,-0.34,1.15,178.99880000000002,130.0594,94.2138,175,75
2026-05-09 17:06:05.736,1,-0.04,-0.4,1.16,174.6088,122.2594,91.9538,175,75
2026-05-09 17:06:05.746,1,-0.07,-0.47,1.22,175.8888,117.1994,91.8938,175,75
2026-05-09 17:06:05.766,1,-0.0,-0.39,1.15,174.4788,111.70939999999999,87.13380000000001,175,75
2026-05-09 17:06:05.778,1,0.05,-0.32,1.12,173.1988,111.2194,83.9638,175,75
2026-05-09 17:06:05.802,1,0.15,-0.28,1.17,164.8488,120.2494,78.2938,175,75
2026-05-09 17:06:05.818,1,0.15,-0.26,1.13,154.5388,115.9794,73.5438,175,75
2026-05-09 17:06:05.838,1,0.16,-0.29,1.15,136.7988,106.15939999999999,61.7738,175,75
2026-05-09 17:06:05.850,1,0.12,-0.35,1.26,126.3688,89.0294,56.2838,175,75
2026-05-09 17:06:05.881,1,-0.0,-0.49,1.32,112.03880000000001,60.6694,47.1338,175,75
2026-05-09 17:06:05.893,1,-0.05,-0.65,1.19,104.2988,50.4294,36.403800000000004,175,75
2026-05-09 17:06:05.904,1,-0.02,-0.66,1.19,104.78880000000001,52.379400000000004,30.983800000000002,175,75
2026-05-09 17:06:05.922,1,0.02,-0.59,1.23,102.8988,49.089400000000005,24.3938,175,75
2026-05-09 17:06:05.937,1,0.08,-0.43,1.14,95.8888,47.4994,12.873800000000001,175,75
2026-05-09 17:06:05.967,1,0.21,-0.37,1.12,82.1688,46.769400000000005,7.623800000000001,175,75
2026-05-09 17:06:05.978,1,0.21,-0.41,1.18,71.18879999999999,41.6494,6.163800000000001,175,75
2026-05-09 17:06:05.988,1,0.19,-0.43,1.17,61.738800000000005,37.6894,5.493800000000001,175,75
2026-05-09 17:06:05.995,1,0.09,-0.48,1.22,55.0888,37.3794,4.573800000000001,175,75
2026-05-09 17:06:06.002,1,0.04,-0.52,1.26,53.2588,34.4594,3.963800000000001,175,75
2026-05-09 17:06:06.020,1,0.02,-0.53,1.26,53.6888,35.9794,3.6038000000000014,175,75
2026-05-09 17:06:06.026,1,-0.01,-0.5,1.4,59.4188,43.2994,6.583800000000001,175,75
2026-05-09 17:06:06.049,1,0.13,-0.44,1.58,64.3588,36.1594,10.913800000000002,175,75
2026-05-09 17:06:06.066,1,-0.11,-0.37,1.01,34.1788,16.4694,14.943800000000001,175,75
2026-05-09 17:06:06.094,1,0.01,-0.49,1.39,50.3388,42.3194,3.2338000000000005,175,75
2026-05-09 17:06:06.104,1,0.01,-0.56,1.5,51.9188,43.6594,9.693800000000001,175,75
2026-05-09 17:06:06.129,1,0.02,-0.47,1.38,41.4288,36.3494,13.0538,175,75
2026-05-09 17:06:06.141,1,-0.03,-0.44,1.2,39.2388,41.8294,11.4038,175,75
2026-05-09 17:06:06.154,1,0.0,-0.47,1.15,39.9688,50.7394,8.7238,175,75
2026-05-09 17:06:06.154,1,-0.02,-0.49,1.15,45.4588,73.5994,6.8938000000000015,175,75
2026-05-09 17:06:06.164,1,0.04,-0.45,1.22,46.5588,77.7494,8.0538,175,75
2026-05-09 17:06:06.174,1,0.1,-0.49,1.19,44.2988,77.37939999999999,6.343800000000001,175,75
2026-05-09 17:06:06.213,1,0.13,-0.49,1.18,45.7588,60.5494,6.403800000000001,175,75
2026-05-09 17:06:06.223,1,0.15,-0.46,1.17,46.1888,52.4394,10.003800000000002,175,75
2026-05-09 17:06:06.244,1,0.17,-0.41,1.17,49.4788,51.6494,13.113800000000001,175,75
2026-05-09 17:06:06.255,1,0.13,-0.39,1.17,53.2588,49.5794,15.183800000000002,175,75
2026-05-09 17:06:06.255,1,0.12,-0.39,1.18,55.0888,48.2994,15.613800000000001,175,75
2026-05-09 17:06:06.280,1,0.1,-0.38,1.2,56.9188,44.7594,14.943800000000001,175,75
2026-05-09 17:06:06.290,1,0.11,-0.38,1.23,58.5688,44.3294,14.823800000000002,175,75
2026-05-09 17:06:06.314,1,0.0,-0.34,1.31,60.1488,34.3894,11.4038,175,75
2026-05-09 17:06:06.359,1,0.02,-0.34,1.32,65.1488,20.1294,11.833800000000002,175,75
2026-05-09 17:06:06.375,1,0.1,-0.38,1.11,61.6788,25.8594,5.1838000000000015,175,75
2026-05-09 17:06:06.397,1,0.17,-0.45,1.05,62.2888,36.8894,-1.6461999999999986,175,75
2026-05-09 17:06:06.397,1,0.19,-0.5,1.09,61.4288,38.1694,-7.4361999999999995,175,75
2026-05-09 17:06:06.409,1,0.18,-0.51,1.16,59.29879999999999,35.9194,-12.4362,175,75
2026-05-09 17:06:06.431,1,0.09,-0.48,1.27,52.6488,21.6494,-17.676199999999998,175,75
2026-05-09 17:06:06.441,1,0.07,-0.48,1.3,53.7488,19.459400000000002,-17.676199999999998,175,75
2026-05-09 17:06:06.457,1,0.08,-0.47,1.3,55.2188,18.7794,-16.516199999999998,175,75
2026-05-09 17:06:06.467,1,0.12,-0.49,1.29,60.6988,20.7394,-14.816199999999998,175,75
2026-05-09 17:06:06.486,1,0.12,-0.49,1.26,63.628800000000005,22.6894,-13.3462,175,75
2026-05-09 17:06:06.497,1,0.15,-0.49,1.24,64.3588,21.6494,-12.6162,175,75
2026-05-09 17:06:06.511,1,0.15,-0.48,1.23,64.96879999999999,21.409399999999998,-13.106199999999998,175,75
2026-05-09 17:06:06.511,1,0.18,-0.46,1.21,65.9488,22.8694,-12.316199999999998,175,75
2026-05-09 17:06:06.529,1,0.17,-0.41,1.24,67.58879999999999,23.5394,-12.196199999999997,175,75
2026-05-09 17:06:06.559,1,0.13,-0.37,1.29,67.77879999999999,18.7194,-15.6662,175,75
2026-05-09 17:06:06.576,1,0.11,-0.38,1.32,67.83879999999999,17.7494,-17.496199999999998,175,75
2026-05-09 17:06:06.592,1,0.06,-0.45,1.35,72.03880000000001,11.9594,-26.456199999999995,175,75
2026-05-09 17:06:06.604,1,0.07,-0.48,1.35,71.06880000000001,8.3594,-29.876199999999997,175,75
2026-05-09 17:06:06.616,1,0.01,-0.47,1.35,71.06880000000001,11.2194,-34.0162,175,75
2026-05-09 17:06:06.643,1,0.02,-0.57,1.51,75.1488,20.6694,-40.6062,175,75
2026-05-09 17:06:06.661,1,0.01,-0.78,1.55,75.8888,19.6994,-48.346199999999996,175,75
2026-05-09 17:06:06.689,1,0.06,-1.0,1.59,71.9188,32.9894,-52.066199999999995,175,75
2026-05-09 17:06:06.702,1,0.08,-1.26,1.58,66.3688,53.7194,-51.276199999999996,175,75
2026-05-09 17:06:06.724,1,0.14,-1.31,1.61,65.27879999999999,69.57939999999999,-42.4962,175,75
2026-05-09 17:06:06.724,1,0.15,-1.14,1.61,68.1988,84.0294,-42.0062,175,75
2026-05-09 17:06:06.746,1,0.18,-0.91,1.68,77.40880000000001,103.4194,-45.5462,175,75
2026-05-09 17:06:06.757,1,0.11,-0.58,1.78,87.1088,117.68939999999999,-43.7162,175,75
2026-05-09 17:06:06.777,1,0.19,-0.1,1.73,101.7388,103.3594,-14.086199999999998,175,75
2026-05-09 17:06:06.792,1,0.02,0.06,1.53,89.78880000000001,62.019400000000005,-12.6162,175,75
2026-05-09 17:06:06.803,1,0.1,-0.04,1.1,81.7988,52.559400000000004,7.993800000000001,175,75
2026-05-09 17:06:06.821,1,0.62,-0.08,1.72,84.05879999999999,37.6294,26.0438,175,75
2026-05-09 17:06:06.851,1,0.5,-0.03,2.37,74.05879999999999,-87.8006,38.8438,175,75
2026-05-09 17:06:06.861,1,0.67,-0.09,2.48,73.62880000000001,-157.0706,33.293800000000005,175,75
2026-05-09 17:06:06.868,1,0.49,-0.15,2.16,67.6488,-238.7806,24.333800000000004,175,75
2026-05-09 17:06:06.897,1,0.26,-0.07,1.46,36.1288,-238.41060000000002,19.4538,175,75
2026-05-09 17:06:06.915,1,-1.17,0.41,1.23,30.3388,-193.5906,58.4838,175,75
2026-05-09 17:06:06.928,1,0.16,0.13,1.13,59.1788,-62.130599999999994,87.38380000000001,175,75
2026-05-09 17:06:06.928,1,1.08,-1.02,0.02,-0.7012,-170.1806,26.2838,175,75
2026-05-09 17:06:06.940,1,-0.72,-0.88,-1.01,-38.3212,27.9294,24.763800000000003,175,75
2026-05-09 17:06:06.949,1,0.12,-0.67,0.84,17.8388,308.7194,57.9938,175,75
2026-05-09 17:06:06.977,1,1.2,-0.95,2.43,35.3388,222.3794,61.583800000000004,175,75
2026-05-09 17:06:06.989,1,0.66,-0.82,2.97,34.3588,91.5294,39.153800000000004,175,75
2026-05-09 17:06:07.001,1,0.08,-0.84,2.87,39.4188,3.849400000000001,47.0738,175,75
2026-05-09 17:06:07.001,1,0.08,-1.78,2.45,0.6387999999999998,-26.9506,57.1338,175,75
2026-05-09 17:06:07.014,1,0.49,-2.28,1.75,-64.3012,-59.7506,58.543800000000005,175,75
2026-05-09 17:06:07.024,1,0.56,-1.18,1.11,-96.74119999999999,-47.5006,74.69380000000001,175,75
2026-05-09 17:06:07.025,1,0.3,-0.41,0.96,-77.47120000000001,-17.860599999999998,78.3538,175,75
2026-05-09 17:06:07.061,1,-0.19,-0.29,1.19,6.1888000000000005,55.2494,76.6538,175,75
2026-05-09 17:06:07.061,1,-0.01,-0.41,1.26,29.358800000000002,84.51939999999999,63.3538,175,75
2026-05-09 17:06:07.093,1,-0.06,-0.52,1.29,41.0088,82.68939999999999,49.0238,175,75
2026-05-09 17:06:07.109,1,0.03,-0.65,1.48,53.2588,66.8894,32.0138,175,75
2026-05-09 17:06:07.155,1,0.03,-0.54,1.45,48.0788,40.3694,20.733800000000002,175,75
2026-05-09 17:06:07.181,1,0.05,-0.56,1.48,49.3588,40.4294,17.443800000000003,175,75
2026-05-09 17:06:07.192,1,0.07,-0.6,1.52,48.138799999999996,37.2594,13.173800000000002,175,75
2026-05-09 17:06:07.209,1,0.06,-0.6,1.55,45.4588,38.5394,12.0738,175,75
2026-05-09 17:06:07.209,1,0.06,-0.6,1.56,41.8588,41.2194,12.013800000000002,175,75
2026-05-09 17:06:07.234,1,0.06,-0.54,1.55,33.4488,49.699400000000004,12.7438,175,75
2026-05-09 17:06:07.244,1,0.03,-0.49,1.54,32.7788,48.2394,11.953800000000001,175,75
2026-05-09 17:06:07.279,1,0.1,-0.52,1.45,28.748800000000003,43.9694,6.223800000000001,175,75
2026-05-09 17:06:07.318,1,-0.03,-0.4,1.62,22.6488,21.2194,6.343800000000001,175,75
2026-05-09 17:06:07.359,1,0.01,-0.46,1.46,30.2188,34.5194,3.293800000000001,175,75
2026-05-09 17:06:07.359,1,0.03,-0.49,1.47,29.358800000000002,34.8794,1.3438000000000017,175,75
2026-05-09 17:06:07.371,1,0.04,-0.47,1.51,28.3288,33.6594,2.873800000000001,175,75
2026-05-09 17:06:07.384,1,0.01,-0.48,1.58,28.1988,31.589399999999998,1.7138000000000009,175,75
2026-05-09 17:06:07.395,1,-0.0,-0.5,1.67,27.108800000000002,26.0394,1.8938000000000006,175,75
2026-05-09 17:06:07.424,1,-0.05,-0.48,1.64,20.2788,12.439400000000001,-0.9061999999999983,175,75
2026-05-09 17:06:07.459,1,0.01,-0.49,1.39,19.7288,4.519400000000001,-7.8062000000000005,175,75
2026-05-09 17:06:07.459,1,0.04,-0.46,1.27,23.1988,-0.1205999999999996,-10.8462,175,75
2026-05-09 17:06:07.469,1,0.08,-0.45,1.2,29.608800000000002,-0.730599999999999,-13.5962,175,75
2026-05-09 17:06:07.482,1,0.1,-0.5,1.19,38.5688,6.6494,-18.3462,175,75
2026-05-09 17:06:07.492,1,0.13,-0.6,1.29,49.0588,17.6294,-20.6062,175,75
2026-05-09 17:06:07.512,1,0.14,-0.71,1.41,56.9788,19.2694,-21.766199999999998,175,75
2026-05-09 17:06:07.512,1,0.16,-0.75,1.41,56.9788,17.5594,-20.916199999999996,175,75
2026-05-09 17:06:07.543,1,0.17,-0.77,1.41,55.2188,13.0494,-22.9262,175,75
2026-05-09 17:06:07.554,1,0.22,-0.79,1.49,49.7288,5.7994,-25.1162,175,75
2026-05-09 17:06:07.559,1,0.22,-0.78,1.54,47.9588,3.5394000000000005,-25.306199999999997,175,75
2026-05-09 17:06:07.627,1,0.23,-0.65,1.51,46.1288,2.3194,-21.8262,175,75
2026-05-09 17:06:07.635,1,0.27,-0.6,1.54,44.5388,1.099400000000001,-20.1162,175,75
2026-05-09 17:06:07.646,1,0.31,-0.57,1.57,42.7188,-3.1106,-18.1662,175,75
2026-05-09 17:06:07.657,1,0.31,-0.53,1.6,38.5688,-9.870600000000001,-15.726199999999999,175,75
2026-05-09 17:06:07.657,1,0.33,-0.48,1.58,31.7988,-20.550599999999996,-14.016199999999998,175,75
2026-05-09 17:06:07.668,1,0.31,-0.45,1.58,23.5688,-34.5706,-12.7362,175,75
2026-05-09 17:06:07.679,1,0.31,-0.41,1.57,16.558799999999998,-48.7206,-11.456199999999999,175,75
2026-05-09 17:06:07.693,1,0.26,-0.38,1.57,8.8688,-63.410599999999995,-12.0062,175,75
2026-05-09 17:06:07.733,1,0.02,-0.31,1.71,-10.2712,-87.31060000000001,-6.036199999999997,175,75
2026-05-09 17:06:07.744,1,-0.01,-0.33,1.72,-13.0212,-86.34060000000001,-4.6961999999999975,175,75
2026-05-09 17:06:07.755,1,-0.09,-0.3,1.72,-16.8612,-82.01060000000001,-1.6461999999999986,175,75
2026-05-09 17:06:07.766,1,-0.04,-0.26,1.74,-19.9112,-77.92060000000001,3.0538000000000007,175,75
2026-05-09 17:06:07.783,1,-0.08,-0.25,1.62,-28.7512,-73.29060000000001,8.173800000000002,175,75
2026-05-09 17:06:07.805,1,-0.03,-0.34,1.67,-26.4912,-48.5306,10.3038,175,75
2026-05-09 17:06:07.815,1,-0.12,-0.45,1.73,-22.9612,-30.2406,11.103800000000001,175,75
2026-05-09 17:06:07.849,1,0.11,-0.6,1.52,-19.3612,25.2494,25.373800000000003,175,75
2026-05-09 17:06:07.861,1,0.15,-0.51,1.44,-21.7412,35.9194,32.0138,175,75
2026-05-09 17:06:07.882,1,0.25,-0.36,1.48,-18.261200000000002,45.4894,41.9538,175,75
2026-05-09 17:06:07.894,1,0.12,-0.49,1.58,-10.7012,55.5494,38.6638,175,75
2026-05-09 17:06:07.917,1,0.11,-0.99,1.64,0.3987999999999996,65.7394,40.183800000000005,175,75
2026-05-09 17:06:07.928,1,0.14,-1.11,1.69,-0.8212000000000002,63.909400000000005,40.6138,175,75
2026-05-09 17:06:07.934,1,0.14,-1.14,1.65,-8.4412,52.199400000000004,41.5938,175,75
2026-05-09 17:06:07.958,1,0.09,-1.08,1.56,-16.6112,47.559400000000004,40.8538,175,75
2026-05-09 17:06:07.958,1,0.11,-0.99,1.43,-20.0912,51.0394,37.323800000000006,175,75
2026-05-09 17:06:07.978,1,0.23,-1.2,1.32,-8.0812,63.1094,19.4538,175,75
2026-05-09 17:06:07.996,1,0.35,-1.2,1.22,-0.8812000000000006,54.269400000000005,12.623800000000001,175,75
2026-05-09 17:06:08.008,1,0.36,-0.88,1.17,5.0288,42.7494,5.553800000000001,175,75
2026-05-09 17:06:08.022,1,0.31,-0.49,1.13,12.588799999999999,42.2594,6.283800000000001,175,75
2026-05-09 17:06:08.034,1,0.25,-0.33,1.12,18.6288,39.5194,7.443800000000001,175,75
2026-05-09 17:06:08.034,1,0.1,-0.2,1.14,27.288800000000002,43.5394,11.163800000000002,175,75
2026-05-09 17:06:08.055,1,0.08,-0.06,1.08,44.4188,37.6294,8.9038,175,75
2026-05-09 17:06:08.079,1,0.11,-0.04,0.95,53.1988,50.059400000000004,2.9338000000000015,175,75
2026-05-09 17:06:08.104,1,0.1,-0.06,0.95,56.0688,54.449400000000004,-0.2361999999999984,175,75
2026-05-09 17:06:08.104,1,0.18,-0.08,1.01,59.358799999999995,64.9994,-5.786199999999997,175,75
2026-05-09 17:06:08.122,1,0.44,0.02,1.58,102.9588,104.8194,-27.2562,175,75
2026-05-09 17:06:08.156,1,0.65,-0.03,1.55,171.18880000000001,142.6894,-57.00619999999999,175,75
2026-05-09 17:06:08.175,1,0.64,-0.18,1.31,189.6688,172.1994,-71.1562,175,75
2026-05-09 17:06:08.187,1,0.65,-0.3,1.23,202.58880000000002,202.86939999999998,-80.6662,175,75
2026-05-09 17:06:08.187,1,0.65,-0.4,1.18,216.55880000000002,229.5194,-87.3162,175,75
2026-05-09 17:06:08.199,1,0.65,-0.55,1.16,231.8588,248.2394,-92.7362,175,75
2026-05-09 17:06:08.240,1,0.54,-0.94,1.15,244.5388,260.6094,-111.2162,175,75
2026-05-09 17:06:08.272,1,0.16,-1.18,1.16,216.7388,197.6894,-100.0562,175,75
2026-05-09 17:06:08.293,1,0.07,-1.0,1.25,168.3288,129.0894,-84.8162,175,75
2026-05-09 17:06:08.306,1,0.08,-0.9,1.2,131.8588,78.5394,-74.0162,175,75
2026-05-09 17:06:08.322,1,0.05,-0.93,1.06,102.40880000000001,47.559400000000004,-63.476200000000006,175,75
2026-05-09 17:06:08.367,1,-0.19,-0.68,0.71,44.8488,104.32939999999999,-27.196199999999997,175,75
2026-05-09 17:06:08.367,1,-0.21,-0.6,0.78,34.5388,136.2794,-16.036199999999997,175,75
2026-05-09 17:06:08.401,1,-0.18,-0.68,1.11,8.7488,181.64939999999999,6.403800000000001,175,75
2026-05-09 17:06:08.411,1,-0.17,-0.66,1.19,-2.8312000000000004,189.9394,14.3938,175,75
2026-05-09 17:06:08.435,1,-0.08,-0.62,1.32,-31.2512,195.1294,37.9938,175,75
2026-05-09 17:06:08.453,1,-0.05,-0.59,1.34,-35.581199999999995,196.2194,41.8338,175,75
2026-05-09 17:06:08.482,1,0.03,-0.56,1.4,-44.2412,190.9794,47.6238,175,75
2026-05-09 17:06:08.482,1,0.06,-0.52,1.42,-47.7112,188.4794,49.5738,175,75
2026-05-09 17:06:08.492,1,0.08,-0.49,1.46,-50.3312,183.77939999999998,52.3238,175,75
2026-05-09 17:06:08.517,1,0.1,-0.47,1.49,-53.0212,175.6694,55.793800000000005,175,75
2026-05-09 17:06:08.517,1,0.12,-0.45,1.51,-56.3712,163.1094,57.9338,175,75
2026-05-09 17:06:08.530,1,0.13,-0.45,1.52,-57.7112,155.05939999999998,59.2738,175,75
2026-05-09 17:06:08.553,1,0.12,-0.43,1.52,-60.5212,146.4094,60.2438,175,75
2026-05-09 17:06:08.564,1,0.11,-0.39,1.54,-62.2212,138.7194,61.403800000000004,175,75
2026-05-09 17:06:08.576,1,0.11,-0.34,1.59,-67.41120000000001,106.15939999999999,68.72380000000001,175,75
2026-05-09 17:06:08.590,1,0.15,-0.33,1.6,-70.21119999999999,93.1694,70.9838,175,75
2026-05-09 17:06:08.613,1,-0.32,-0.22,1.67,-91.31120000000001,109.6994,64.3338,175,75
2026-05-09 17:06:08.624,1,0.16,-0.2,2.18,-59.5412,131.7094,79.0938,175,75
2026-05-09 17:06:08.635,1,0.6,-0.3,3.05,-33.4412,103.1094,93.2938,175,75
2026-05-09 17:06:08.646,1,1.7,-0.75,3.8,-8.8112,4.3294,81.6538,175,75
2026-05-09 17:06:08.677,1,-0.48,-0.9,4.64,45.888799999999996,-74.87060000000001,51.5238,175,75
2026-05-09 17:06:08.716,1,-1.14,-1.99,2.17,45.7588,-126.8906,113.5438,175,75
2026-05-09 17:06:08.716,1,0.26,-1.41,1.51,59.4188,4.0893999999999995,99.0938,175,75
2026-05-09 17:06:08.726,1,1.17,-0.9,0.41,58.4488,49.3894,82.1938,175,75
2026-05-09 17:06:08.764,1,0.53,-1.08,-0.23,42.9588,30.1894,35.6738,175,75
2026-05-09 17:06:08.775,1,0.09,-0.55,0.93,42.4688,77.5594,44.5738,175,75
2026-05-09 17:06:08.775,1,-0.24,-0.34,1.91,49.8488,125.73939999999999,52.1938,175,75
2026-05-09 17:06:08.785,1,-0.16,-0.35,2.43,57.1688,115.73939999999999,57.6838,175,75
2026-05-09 17:06:08.800,1,0.17,-0.5,1.4,2.8987999999999996,-32.800599999999996,48.8438,175,75
2026-05-09 17:06:08.812,1,0.21,-0.39,0.98,1.2487999999999992,-32.370599999999996,41.2238,175,75
2026-05-09 17:06:08.812,1,-0.0,-0.42,1.08,18.4488,-17.0706,32.2638,175,75
2026-05-09 17:06:08.848,1,-0.0,-0.57,1.42,34.4188,11.8294,24.3938,175,75
2026-05-09 17:06:08.861,1,0.02,-0.53,1.36,34.0588,21.349400000000003,22.1338,175,75
2026-05-09 17:06:08.899,1,0.05,-0.55,1.36,38.138799999999996,29.699399999999997,16.3438,175,75
2026-05-09 17:06:08.923,1,0.07,-0.49,1.39,39.5388,13.2994,12.7438,175,75
2026-05-09 17:06:08.959,1,0.04,-0.48,1.39,45.2788,19.459400000000002,9.8838,175,75
2026-05-09 17:06:08.981,1,0.05,-0.48,1.38,48.8688,18.659399999999998,6.773800000000001,175,75
2026-05-09 17:06:09.007,1,0.03,-0.47,1.41,50.888799999999996,18.4194,6.343800000000001,175,75
2026-05-09 17:06:09.007,1,0.02,-0.46,1.41,54.4188,21.8294,6.1038000000000014,175,75
2026-05-09 17:06:09.017,1,0.06,-0.46,1.41,59.358799999999995,25.6094,6.653800000000001,175,75
2026-05-09 17:06:09.038,1,0.06,-0.45,1.39,62.5288,28.1094,6.773800000000001,175,75
2026-05-09 17:06:09.051,1,0.08,-0.51,1.42,67.9588,28.3594,7.9338000000000015,175,75
2026-05-09 17:06:09.062,1,0.07,-0.51,1.42,70.9488,25.2494,7.873800000000001,175,75
2026-05-09 17:06:09.073,1,0.06,-0.51,1.42,72.40880000000001,24.7594,7.323800000000001,175,75
2026-05-09 17:06:09.111,1,0.04,-0.54,1.44,77.03880000000001,25.8594,4.883800000000001,175,75
2026-05-09 17:06:09.121,1,0.03,-0.54,1.43,79.1788,27.6894,3.2338000000000005,175,75
2026-05-09 17:06:09.132,1,0.03,-0.54,1.44,81.3688,28.5394,1.5238000000000014,175,75
2026-05-09 17:06:09.158,1,0.01,-0.55,1.47,83.3888,34.1494,0.06380000000000052,175,75
2026-05-09 17:06:09.202,1,0.11,-0.56,1.56,76.4288,49.1494,8.9638,175,75
2026-05-09 17:06:09.214,1,0.11,-0.56,1.6,72.77879999999999,48.1694,10.0638,175,75
2026-05-09 17:06:09.226,1,0.09,-0.56,1.61,68.50880000000001,54.1494,11.6538,175,75
2026-05-09 17:06:09.238,1,0.11,-0.56,1.64,67.03880000000001,59.269400000000005,12.683800000000002,175,75
2026-05-09 17:06:09.238,1,0.12,-0.55,1.67,63.628800000000005,58.5994,14.273800000000001,175,75
2026-05-09 17:06:09.249,1,0.1,-0.53,1.68,56.6188,56.2794,16.163800000000002,175,75
2026-05-09 17:06:09.258,1,0.11,-0.52,1.68,53.0788,56.6494,17.9938,175,75
2026-05-09 17:06:09.273,1,0.11,-0.52,1.69,47.3488,54.269400000000005,20.003800000000002,175,75
2026-05-09 17:06:09.279,1,0.1,-0.51,1.7,42.6488,55.8594,22.803800000000003,175,75
2026-05-09 17:06:09.305,1,0.12,-0.5,1.71,37.3488,56.2794,25.4338,175,75
2026-05-09 17:06:09.305,1,0.1,-0.5,1.68,33.5688,56.8894,27.3238,175,75
2026-05-09 17:06:09.316,1,0.09,-0.5,1.66,27.4088,59.5794,30.553800000000003,175,75
2026-05-09 17:06:09.327,1,0.1,-0.5,1.65,21.0088,61.949400000000004,35.6738,175,75
2026-05-09 17:06:09.337,1,0.08,-0.46,1.69,16.9188,63.7794,39.573800000000006,175,75
2026-05-09 17:06:09.353,1,0.07,-0.4,1.74,13.3888,64.6394,45.4338,175,75
2026-05-09 17:06:09.369,1,0.02,-0.39,1.71,10.0288,63.1694,49.333800000000004,175,75
2026-05-09 17:06:09.384,1,0.09,-0.39,1.64,8.4488,60.129400000000004,51.833800000000004,175,75
2026-05-09 17:06:09.389,1,0.02,-0.43,1.48,3.4488000000000003,53.479400000000005,49.6938,175,75
2026-05-09 17:06:09.412,1,0.07,-0.46,1.52,2.1087999999999996,54.089400000000005,52.9938,175,75
2026-05-09 17:06:09.412,1,0.05,-0.5,1.58,3.4488000000000003,49.3894,53.293800000000005,175,75
2026-05-09 17:06:09.422,1,-0.0,-0.5,1.57,1.4287999999999998,41.5894,52.7438,175,75
2026-05-09 17:06:09.436,1,-0.01,-0.55,1.52,0.7587999999999999,34.1494,50.6738,175,75
2026-05-09 17:06:09.448,1,-0.1,-0.58,1.4,-3.4412000000000003,36.2794,47.2638,175,75
2026-05-09 17:06:09.459,1,-0.03,-0.64,1.4,-2.7712000000000003,43.4194,47.7438,175,75
2026-05-09 17:06:09.469,1,-0.03,-0.7,1.4,-1.3112000000000004,50.979400000000005,45.7338,175,75
2026-05-09 17:06:09.483,1,0.01,-0.7,1.4,-1.2512000000000003,54.269400000000005,45.6138,175,75
2026-05-09 17:06:09.483,1,0.05,-0.71,1.42,0.028799999999999493,59.269400000000005,45.4338,175,75
2026-05-09 17:06:09.514,1,0.01,-0.91,1.42,-12.411200000000001,60.1894,40.0038,175,75
2026-05-09 17:06:09.537,1,0.01,-1.04,1.73,-31.4312,65.4894,45.5538,175,75
2026-05-09 17:06:09.548,1,0.1,-1.05,1.67,-32.961200000000005,72.4994,53.293800000000005,175,75
2026-05-09 17:06:09.558,1,0.18,-1.09,1.47,-39.1712,83.59939999999999,53.9638,175,75
2026-05-09 17:06:09.558,1,0.27,-1.24,1.39,-56.3112,107.8094,52.5038,175,75
2026-05-09 17:06:09.569,1,0.4,-1.35,1.47,-66.9212,127.9294,52.8038,175,75
2026-05-09 17:06:09.592,1,0.61,-1.43,1.78,-95.7012,155.9794,56.043800000000005,175,75
2026-05-09 17:06:09.604,1,0.56,-1.38,1.8,-102.8912,162.3194,57.5038,175,75
2026-05-09 17:06:09.614,1,0.57,-1.33,1.75,-102.1012,155.1294,57.4438,175,75
2026-05-09 17:06:09.627,1,0.38,-1.26,1.73,-94.3612,146.4694,59.5138,175,75
2026-05-09 17:06:09.630,1,0.08,-1.07,1.74,-88.1412,148.77939999999998,72.8738,175,75
2026-05-09 17:06:09.644,1,0.05,-0.99,1.87,-82.71119999999999,149.3894,96.5238,175,75
2026-05-09 17:06:09.650,1,0.21,-1.09,1.91,-74.5412,133.9694,99.8238,175,75
2026-05-09 17:06:09.682,1,0.09,-1.15,1.8,-77.7712,93.4794,81.5238,175,75
2026-05-09 17:06:09.695,1,-0.11,-0.76,1.68,-73.93119999999999,93.65939999999999,65.6738,175,75
2026-05-09 17:06:09.706,1,-0.36,-0.59,1.59,-64.0512,55.979400000000005,65.4938,175,75
2026-05-09 17:06:09.717,1,-0.8,-0.51,1.21,-60.7612,31.889400000000002,61.2838,175,75
2026-05-09 17:06:09.726,1,-0.1,-0.83,1.41,-46.3712,70.3094,58.0538,175,75
2026-05-09 17:06:09.742,1,0.13,-1.03,1.69,-11.6112,64.6394,31.3438,175,75
2026-05-09 17:06:09.777,1,-0.32,-0.44,0.84,20.6388,74.57939999999999,11.833800000000002,175,75
2026-05-09 17:06:09.802,1,-0.1,-0.49,1.02,60.3388,91.4694,-26.0362,175,75
2026-05-09 17:06:09.810,1,-0.14,-0.45,1.02,65.8288,69.6394,-38.2862,175,75
2026-05-09 17:06:09.821,1,-0.22,-0.44,0.93,70.9488,40.9794,-51.3362,175,75
2026-05-09 17:06:09.838,1,-0.34,-0.46,0.82,77.1688,20.8594,-60.4862,175,75
2026-05-09 17:06:09.838,1,-0.41,-0.41,0.76,80.27879999999999,7.3794,-70.4862,175,75
2026-05-09 17:06:09.860,1,-0.49,-0.3,0.74,83.62880000000001,-10.6106,-77.7362,175,75
2026-05-09 17:06:09.876,1,-0.58,-0.16,0.78,87.46879999999999,-54.510600000000004,-85.6662,175,75
2026-05-09 17:06:09.896,1,-0.61,-0.18,0.63,88.1388,-91.09060000000001,-93.5962,175,75
2026-05-09 17:06:09.922,1,-0.72,-0.18,0.48,94.1788,-86.0306,-97.1262,175,75
2026-05-09 17:06:09.949,1,-0.76,0.1,0.49,104.78880000000001,-41.340599999999995,-94.2062,175,75
2026-05-09 17:06:09.974,1,-0.71,0.12,0.53,116.7388,-9.080599999999999,-88.8362,175,75
2026-05-09 17:06:09.990,1,-0.7,0.17,0.59,119.1188,-2.0106,-84.6262,175,75
2026-05-09 17:06:09.990,1,-0.69,0.21,0.64,118.1988,-7.130599999999999,-77.1262,175,75
2026-05-09 17:06:10.002,1,-0.65,0.25,0.65,114.2388,-13.2306,-71.9462,175,75
2026-05-09 17:06:10.010,1,-0.66,0.29,0.63,108.1988,-21.6406,-67.25619999999999,175,75
2026-05-09 17:06:10.024,1,-0.63,0.32,0.62,103.0788,-23.290599999999998,-62.4962,175,75
2026-05-09 17:06:10.050,1,-0.55,0.39,0.67,89.1788,-30.300599999999996,-51.706199999999995,175,75
2026-05-09 17:06:10.063,1,-0.51,0.42,0.69,81.7988,-32.620599999999996,-46.8262,175,75
2026-05-09 17:06:10.075,1,-0.46,0.45,0.72,71.6788,-32.2506,-39.6962,175,75
2026-05-09 17:06:10.075,1,-0.42,0.51,0.75,63.4488,-30.8506,-31.586199999999998,175,75
2026-05-09 17:06:10.086,1,-0.33,0.57,0.82,56.7388,-25.970599999999997,-23.416199999999996,175,75
2026-05-09 17:06:10.096,1,-0.23,0.63,0.89,45.5788,-22.440599999999996,-12.9862,175,75
2026-05-09 17:06:10.108,1,-0.16,0.66,0.91,35.5788,-19.1406,-5.906199999999998,175,75
2026-05-09 17:06:10.167,1,0.16,0.75,1.19,14.9088,-8.4106,15.2438,175,75
2026-05-09 17:06:10.167,1,0.26,0.76,1.28,5.828799999999999,-10.120600000000001,21.163800000000002,175,75
2026-05-09 17:06:10.199,1,0.51,0.76,1.49,-11.981200000000001,-7.5006,33.1138,175,75
2026-05-09 17:06:10.199,1,0.59,0.73,1.56,-19.8512,-5.300600000000001,37.8038,175,75
2026-05-09 17:06:10.221,1,0.67,0.7,1.62,-25.4612,-2.0706000000000007,42.683800000000005,175,75
2026-05-09 17:06:10.221,1,0.75,0.67,1.66,-30.6412,1.4093999999999998,45.1838,175,75
2026-05-09 17:06:10.232,1,0.81,0.63,1.68,-35.7012,11.9594,47.4438,175,75
2026-05-09 17:06:10.264,1,0.87,0.57,1.79,-40.0312,28.5394,49.2138,175,75
2026-05-09 17:06:10.264,1,0.89,0.56,1.82,-42.7712,31.959400000000002,50.0038,175,75
2026-05-09 17:06:10.285,1,0.87,0.53,1.83,-46.9812,24.7594,43.3538,175,75
2026-05-09 17:06:10.296,1,0.77,0.59,1.88,-48.3212,13.9094,40.183800000000005,175,75
2026-05-09 17:06:10.311,1,0.63,0.68,1.77,-41.5512,-17.2506,37.5638,175,75
2026-05-09 17:06:10.342,1,0.54,0.65,1.6,-38.0812,-19.5706,32.1338,175,75
2026-05-09 17:06:10.361,1,0.35,0.58,1.29,-23.8112,13.5394,18.6038,175,75
2026-05-09 17:06:10.373,1,0.26,0.49,1.16,-5.7012,62.019400000000005,-2.0661999999999985,175,75
2026-05-09 17:06:10.384,1,0.27,0.37,1.17,6.1288,89.6994,-14.876199999999997,175,75
2026-05-09 17:06:10.395,1,0.27,0.21,1.21,18.3888,104.87939999999999,-28.8962,175,75
2026-05-09 17:06:10.424,1,0.19,-0.05,1.19,43.9988,111.2794,-53.596199999999996,175,75
2026-05-09 17:06:10.424,1,0.17,-0.29,1.19,56.1288,107.8694,-69.1462,175,75
2026-05-09 17:06:10.435,1,0.2,-0.47,1.26,68.68879999999999,102.1994,-80.2362,175,75
2026-05-09 17:06:10.446,1,0.21,-0.67,1.35,83.1388,87.01939999999999,-90.0562,175,75
2026-05-09 17:06:10.458,1,0.19,-0.83,1.39,96.6188,77.4994,-99.6262,175,75
2026-05-09 17:06:10.470,1,0.2,-0.93,1.54,113.62880000000001,64.9994,-112.9862,175,75
2026-05-09 17:06:10.482,1,0.19,-1.06,1.56,138.0788,37.6294,-128.0462,175,75
2026-05-09 17:06:10.507,1,0.3,-1.29,1.65,185.21880000000002,40.6694,-133.8362,175,75
2026-05-09 17:06:10.521,1,0.32,-1.42,1.7,205.33880000000002,37.3794,-131.8862,175,75
2026-05-09 17:06:10.533,1,0.33,-1.52,1.71,222.8988,35.9194,-129.3262,175,75
2026-05-09 17:06:10.544,1,0.34,-1.66,1.77,244.2388,34.2094,-125.2362,175,75
2026-05-09 17:06:10.544,1,0.33,-1.84,1.88,260.5188,31.709400000000002,-120.84620000000001,175,75
2026-05-09 17:06:10.565,1,0.34,-2.0,2.05,285.8888,11.2794,-104.4462,175,75
2026-05-09 17:06:10.578,1,0.4,-2.05,2.11,292.3488,-5.0006,-101.2762,175,75
2026-05-09 17:06:10.599,1,0.43,-2.18,2.03,297.5288,-9.330599999999999,-96.7662,175,75
2026-05-09 17:06:10.612,1,0.46,-2.19,2.01,295.4588,-4.630599999999999,-96.7062,175,75
2026-05-09 17:06:10.624,1,0.47,-2.19,1.99,290.2788,-0.4206000000000003,-96.1562,175,75
2026-05-09 17:06:10.640,1,0.5,-2.11,2.01,271.24879999999996,7.4994000000000005,-93.0462,175,75
2026-05-09 17:06:10.652,1,0.56,-1.94,1.99,259.11879999999996,7.079400000000001,-89.75619999999999,175,75
2026-05-09 17:06:10.663,1,0.57,-1.74,1.93,246.4288,6.8894,-84.9962,175,75
2026-05-09 17:06:10.674,1,0.57,-1.54,1.89,229.4188,16.8294,-78.4062,175,75
2026-05-09 17:06:10.687,1,0.54,-1.37,1.89,216.18880000000001,29.029400000000003,-69.6962,175,75
2026-05-09 17:06:10.709,1,0.48,-1.05,1.96,196.8588,44.2694,-61.586200000000005,175,75
2026-05-09 17:06:10.723,1,0.43,-0.93,1.95,188.3888,50.4894,-67.25619999999999,175,75
2026-05-09 17:06:10.766,1,0.43,-0.68,1.84,148.99880000000002,-3.1106,-41.1562,175,75
2026-05-09 17:06:10.768,1,0.48,-0.67,1.76,138.8688,-14.0206,-41.5862,175,75
2026-05-09 17:06:10.778,1,0.5,-0.63,1.69,129.2988,-17.440599999999996,-42.8062,175,75
2026-05-09 17:06:10.786,1,0.45,-0.51,1.65,118.68879999999999,-14.2006,-43.6562,175,75
2026-05-09 17:06:10.800,1,0.4,-0.4,1.64,112.34880000000001,-10.3606,-40.2362,175,75
2026-05-09 17:06:10.823,1,0.34,-0.31,1.64,98.25880000000001,-5.6705999999999985,-30.846199999999996,175,75
2026-05-09 17:06:10.834,1,0.32,-0.28,1.64,89.1788,-6.400599999999999,-25.5462,175,75
2026-05-09 17:06:10.846,1,0.29,-0.26,1.64,80.4588,-8.4706,-20.666199999999996,175,75
2026-05-09 17:06:10.859,1,0.28,-0.23,1.65,72.8988,-10.670599999999999,-15.546199999999999,175,75
2026-05-09 17:06:10.871,1,0.26,-0.21,1.66,62.348800000000004,-16.0306,-8.106199999999998,175,75
2026-05-09 17:06:10.894,1,0.25,-0.19,1.59,47.5288,-24.3906,1.3438000000000017,175,75
2026-05-09 17:06:10.923,1,0.25,-0.16,1.52,28.0788,-12.560599999999999,13.2338,175,75
2026-05-09 17:06:10.933,1,0.25,-0.14,1.54,22.9588,-5.6705999999999985,18.9038,175,75
2026-05-09 17:06:10.933,1,0.26,-0.15,1.54,18.2588,-1.5206,22.6838,175,75
2026-05-09 17:06:10.964,1,0.27,-0.13,1.57,8.3288,5.2494000000000005,33.0538,175,75
2026-05-09 17:06:10.975,1,0.28,-0.16,1.57,4.418799999999999,6.0994,35.3738,175,75
2026-05-09 17:06:10.986,1,0.27,-0.18,1.58,0.028799999999999493,7.9294,37.5038,175,75
2026-05-09 17:06:10.997,1,0.27,-0.21,1.6,-4.4812,12.1394,42.7438,175,75
2026-05-09 17:06:10.997,1,0.27,-0.23,1.61,-8.2612,15.6094,45.0638,175,75
2026-05-09 17:06:11.022,1,0.28,-0.24,1.62,-12.5312,18.4194,49.153800000000004,175,75
2026-05-09 17:06:11.022,1,0.29,-0.29,1.64,-18.0212,22.4394,55.0038,175,75
2026-05-09 17:06:11.031,1,0.29,-0.33,1.65,-23.6312,24.1494,60.4338,175,75
2026-05-09 17:06:11.049,1,0.3,-0.35,1.64,-28.9312,24.5194,66.3438,175,75
2026-05-09 17:06:11.060,1,0.32,-0.38,1.65,-33.9912,25.3094,70.5538,175,75
2026-05-09 17:06:11.070,1,0.35,-0.43,1.65,-39.111200000000004,24.1494,74.0838,175,75
2026-05-09 17:06:11.082,1,0.35,-0.5,1.65,-45.9412,20.9794,76.8938,175,75
2026-05-09 17:06:11.104,1,0.37,-0.65,1.75,-66.2512,1.5893999999999995,91.2238,175,75
2026-05-09 17:06:11.115,1,0.35,-0.69,1.72,-79.1112,-21.830599999999997,98.6638,175,75
2026-05-09 17:06:11.128,1,0.31,-0.71,1.66,-91.6712,-38.050599999999996,106.7738,175,75
2026-05-09 17:06:11.143,1,0.27,-0.59,1.57,-104.5412,-45.480599999999995,121.7738,175,75
2026-05-09 17:06:11.163,1,0.19,-0.72,2.15,-86.1312,36.3494,107.2638,175,75
2026-05-09 17:06:11.176,1,6.08,-3.06,6.96,143.0188,685.3094,29.823800000000002,175,75
2026-05-09 17:06:11.188,1,1.76,-0.78,5.21,94.2988,-496.89059999999995,1.5938000000000017,175,75
2026-05-09 17:06:11.210,1,-0.48,-0.75,-1.86,50.2788,-205.6106,103.9638,175,75
2026-05-09 17:06:11.234,1,0.32,-1.47,-0.15,-124.24119999999999,263.5994,138.2938,175,75
2026-05-09 17:06:11.234,1,0.77,-1.33,0.88,-70.94120000000001,246.9594,61.2838,175,75
2026-05-09 17:06:11.265,1,0.06,-0.92,2.0,40.5788,309.5794,136.5238,175,75
2026-05-09 17:06:11.279,1,-0.02,-0.14,2.11,-21.6712,-65.42060000000001,83.8438,175,75
2026-05-09 17:06:11.299,1,-0.55,-0.26,1.71,-19.0512,-51.340599999999995,74.63380000000001,175,75
2026-05-09 17:06:11.306,1,0.35,-0.85,1.31,-17.891199999999998,-11.580599999999999,71.5238,175,75
2026-05-09 17:06:11.319,1,-0.02,-0.99,1.29,-18.2012,19.9994,65.0038,175,75
2026-05-09 17:06:11.335,1,0.08,-0.75,1.49,-7.1012,65.54939999999999,61.2838,175,75
2026-05-09 17:06:11.340,1,0.27,-0.63,1.8,-1.6712000000000002,68.7794,59.333800000000004,175,75
2026-05-09 17:06:11.403,1,0.35,-0.62,1.76,5.088799999999999,16.8294,51.223800000000004,175,75
2026-05-09 17:06:11.414,1,0.34,-0.64,1.76,4.0588,16.2794,50.4338,175,75
2026-05-09 17:06:11.439,1,0.25,-0.63,1.63,7.0388,15.3694,44.5738,175,75
2026-05-09 17:06:11.439,1,0.31,-0.62,1.61,10.0288,27.8694,42.683800000000005,175,75
2026-05-09 17:06:11.449,1,0.31,-0.63,1.61,18.5688,31.529400000000003,41.5238,175,75
2026-05-09 17:06:11.460,1,0.25,-0.62,1.53,31.6188,45.7394,39.5138,175,75
2026-05-09 17:06:11.503,1,0.22,-0.63,1.83,52.9588,72.8694,33.2338,175,75
2026-05-09 17:06:11.515,1,0.18,-0.6,1.88,48.0788,63.479400000000005,32.193799999999996,175,75
2026-05-09 17:06:11.526,1,0.19,-0.57,1.89,42.5888,50.6694,29.2738,175,75
2026-05-09 17:06:11.528,1,0.17,-0.55,1.84,38.3288,43.4194,26.4038,175,75
2026-05-09 17:06:11.543,1,0.2,-0.57,1.82,35.2188,39.9994,24.2138,175,75
2026-05-09 17:06:11.587,1,0.21,-0.6,1.72,31.248800000000003,37.4394,20.4338,175,75
2026-05-09 17:06:11.607,1,0.26,-0.59,1.76,31.6188,37.809400000000004,18.483800000000002,175,75
2026-05-09 17:06:11.644,1,0.18,-0.57,1.72,31.678800000000003,37.6894,17.2638,175,75
2026-05-09 17:06:11.644,1,0.2,-0.56,1.72,34.0588,39.1494,17.0138,175,75
2026-05-09 17:06:11.663,1,0.19,-0.55,1.76,35.5188,35.7394,14.8838,175,75
2026-05-09 17:06:11.689,1,0.23,-0.6,1.72,32.9588,35.7394,13.413800000000002,175,75
2026-05-09 17:06:11.704,1,0.25,-0.59,1.73,32.8388,36.2794,14.023800000000001,175,75
2026-05-09 17:06:11.716,1,0.21,-0.59,1.76,32.8388,35.5494,14.1538,175,75
2026-05-09 17:06:11.767,1,0.19,-0.58,1.74,31.6188,29.699399999999997,11.163800000000002,175,75
2026-05-09 17:06:11.767,1,0.2,-0.58,1.76,31.9788,29.699399999999997,11.283800000000001,175,75
2026-05-09 17:06:11.778,1,0.21,-0.59,1.73,31.498800000000003,26.889400000000002,10.613800000000001,175,75
2026-05-09 17:06:11.811,1,0.2,-0.58,1.72,32.3488,22.9294,9.453800000000001,175,75
2026-05-09 17:06:11.834,1,0.2,-0.57,1.72,34.3588,20.3094,8.663800000000002,175,75
2026-05-09 17:06:11.856,1,0.21,-0.57,1.71,35.2188,20.8594,8.4838,175,75
2026-05-09 17:06:11.868,1,0.23,-0.56,1.74,35.3388,21.349400000000003,9.1538,175,75
2026-05-09 17:06:11.884,1,0.24,-0.55,1.73,34.1788,22.5594,9.453800000000001,175,75
2026-05-09 17:06:11.896,1,0.24,-0.54,1.74,32.7188,22.2594,10.9838,175,75
2026-05-09 17:06:11.907,1,0.25,-0.57,1.75,31.0088,25.3094,14.0838,175,75
2026-05-09 17:06:11.937,1,0.23,-0.57,1.76,28.0788,26.889400000000002,16.5838,175,75
2026-05-09 17:06:11.949,1,0.21,-0.59,1.86,20.3988,30.7994,19.8838,175,75
2026-05-09 17:06:11.949,1,0.21,-0.6,1.87,15.518799999999999,30.309400000000004,21.1038,175,75
2026-05-09 17:06:11.961,1,0.21,-0.59,1.88,8.6288,28.4794,22.3838,175,75
2026-05-09 17:06:12.011,1,0.22,-0.58,1.78,-7.831200000000001,26.099400000000003,27.623800000000003,175,75
2026-05-09 17:06:12.023,1,0.22,-0.59,1.74,-10.0912,24.459400000000002,30.003800000000002,175,75
2026-05-09 17:06:12.023,1,0.2,-0.59,1.71,-10.641200000000001,24.389400000000002,31.163800000000002,175,75
2026-05-09 17:06:12.040,1,0.18,-0.57,1.66,-9.661200000000001,25.4294,32.3838,175,75
2026-05-09 17:06:12.040,1,0.19,-0.54,1.62,-8.571200000000001,26.709400000000002,33.6038,175,75
2026-05-09 17:06:12.050,1,0.16,-0.51,1.59,-4.7212000000000005,30.739400000000003,33.293800000000005,175,75
2026-05-09 17:06:12.064,1,0.17,-0.53,1.55,0.8887999999999998,32.809400000000004,33.2338,175,75
2026-05-09 17:06:12.076,1,0.16,-0.56,1.54,4.5388,34.5794,33.6038,175,75
2026-05-09 17:06:12.087,1,0.17,-0.57,1.54,7.8988,38.0494,33.3538,175,75
2026-05-09 17:06:12.104,1,0.17,-0.59,1.54,12.288799999999998,42.1394,33.8438,175,75
2026-05-09 17:06:12.134,1,0.14,-0.54,1.58,18.9288,50.309400000000004,35.3738,175,75
2026-05-09 17:06:12.134,1,0.15,-0.54,1.63,20.7588,51.769400000000005,34.8838,175,75
2026-05-09 17:06:12.145,1,0.17,-0.56,1.64,19.1788,47.3194,35.433800000000005,175,75
2026-05-09 17:06:12.159,1,0.12,-0.56,1.63,16.1888,43.2394,34.213800000000006,175,75
2026-05-09 17:06:12.190,1,0.09,-0.59,1.65,12.288799999999998,44.1494,32.933800000000005,175,75
2026-05-09 17:06:12.201,1,0.08,-0.55,1.63,9.3588,46.4694,31.163800000000002,175,75
2026-05-09 17:06:12.212,1,0.11,-0.54,1.62,9.178799999999999,46.589400000000005,30.123800000000003,175,75
2026-05-09 17:06:12.223,1,0.11,-0.54,1.61,7.7188,45.129400000000004,30.123800000000003,175,75
2026-05-09 17:06:12.236,1,0.1,-0.56,1.59,7.0388,44.699400000000004,28.9038,175,75
2026-05-09 17:06:12.246,1,0.08,-0.6,1.6,5.828799999999999,49.3894,28.413800000000002,175,75
2026-05-09 17:06:12.259,1,0.07,-0.59,1.66,1.8587999999999996,52.9294,28.1138,175,75
2026-05-09 17:06:12.271,1,0.08,-0.58,1.68,-0.5811999999999999,52.6894,27.9938,175,75
2026-05-09 17:06:12.282,1,0.06,-0.56,1.69,-0.6412000000000004,47.2594,27.873800000000003,175,75
2026-05-09 17:06:12.294,1,0.05,-0.53,1.64,-2.2812,43.2994,27.1338,175,75
2026-05-09 17:06:12.307,1,0.04,-0.51,1.55,-2.5912,39.5794,25.003800000000002,175,75
2026-05-09 17:06:12.318,1,0.02,-0.47,1.45,-1.6112000000000002,36.6494,23.663800000000002,175,75
2026-05-09 17:06:12.326,1,0.08,-0.46,1.36,-0.031200000000000117,33.3594,22.013800000000003,175,75
2026-05-09 17:06:12.342,1,0.08,-0.46,1.33,3.3287999999999993,32.0794,18.233800000000002,175,75
2026-05-09 17:06:12.353,1,0.04,-0.45,1.4,7.588799999999999,32.3194,15.183800000000002,175,75
2026-05-09 17:06:12.372,1,0.03,-0.47,1.38,12.4088,28.779400000000003,12.443800000000001,175,75
2026-05-09 17:06:12.384,1,0.04,-0.52,1.39,15.398800000000001,29.5794,10.373800000000001,175,75
2026-05-09 17:06:12.384,1,0.06,-0.52,1.42,18.5088,30.3694,10.123800000000001,175,75
2026-05-09 17:06:12.404,1,0.06,-0.56,1.42,21.0688,28.7194,9.023800000000001,175,75
2026-05-09 17:06:12.416,1,0.05,-0.59,1.41,25.0288,29.5794,7.503800000000001,175,75
2026-05-09 17:06:12.416,1,0.03,-0.59,1.43,29.1188,30.6094,6.833800000000001,175,75
2026-05-09 17:06:12.440,1,0.05,-0.58,1.44,31.428800000000003,29.5794,5.673800000000001,175,75
2026-05-09 17:06:12.479,1,0.01,-0.59,1.45,40.2788,27.5594,1.2238000000000007,175,75
2026-05-09 17:06:12.479,1,0.02,-0.6,1.48,43.7488,28.2994,0.6738000000000017,175,75
2026-05-09 17:06:12.485,1,0.05,-0.6,1.49,47.3488,24.7594,1.1038000000000014,175,75
2026-05-09 17:06:12.516,1,0.07,-0.58,1.45,50.3388,26.8294,1.4038000000000004,175,75
2026-05-09 17:06:12.526,1,0.09,-0.57,1.46,51.0688,28.0494,1.5238000000000014,175,75
2026-05-09 17:06:12.560,1,0.09,-0.57,1.46,51.3088,36.1594,3.1738000000000017,175,75
2026-05-09 17:06:12.567,1,0.11,-0.53,1.5,50.9488,41.8294,6.343800000000001,175,75
2026-05-09 17:06:12.598,1,0.1,-0.5,1.51,48.0788,44.3894,6.713800000000001,175,75
2026-05-09 17:06:12.598,1,0.09,-0.46,1.52,45.3388,45.8594,7.993800000000001,175,75
2026-05-09 17:06:12.605,1,0.08,-0.43,1.54,42.4088,48.1094,9.513800000000002,175,75
2026-05-09 17:06:12.617,1,0.08,-0.42,1.55,40.4588,48.479400000000005,10.183800000000002,175,75
2026-05-09 17:06:12.648,1,0.1,-0.4,1.47,31.428800000000003,49.519400000000005,14.0838,175,75
2026-05-09 17:06:12.660,1,0.12,-0.4,1.43,29.668799999999997,51.589400000000005,14.453800000000001,175,75
2026-05-09 17:06:12.673,1,0.12,-0.4,1.39,26.558799999999998,56.2194,16.0438,175,75
2026-05-09 17:06:12.718,1,0.15,-0.39,1.44,21.4988,60.9194,18.1738,175,75
2026-05-09 17:06:12.752,1,0.05,-0.39,1.61,-1.3712000000000004,43.2994,30.553800000000003,175,75
2026-05-09 17:06:12.763,1,0.03,-0.43,1.61,-5.581200000000001,37.809400000000004,32.683800000000005,175,75
2026-05-09 17:06:12.763,1,0.03,-0.5,1.6,-8.0812,35.1294,35.2438,175,75
2026-05-09 17:06:12.777,1,0.04,-0.54,1.54,-9.6012,32.2594,37.5638,175,75
2026-05-09 17:06:12.777,1,0.06,-0.57,1.46,-11.801200000000001,31.159399999999998,39.0238,175,75
2026-05-09 17:06:12.788,1,0.04,-0.59,1.41,-12.891200000000001,37.559400000000004,40.433800000000005,175,75
2026-05-09 17:06:12.813,1,0.03,-0.7,1.39,-12.6512,57.6894,43.4838,175,75
2026-05-09 17:06:12.846,1,-0.0,-0.74,1.46,-16.9212,63.909400000000005,45.3038,175,75
2026-05-09 17:06:12.859,1,0.01,-0.76,1.46,-18.9312,68.04939999999999,46.8938,175,75
2026-05-09 17:06:12.871,1,0.04,-0.77,1.46,-23.3212,73.29939999999999,49.0238,175,75
2026-05-09 17:06:12.894,1,0.07,-0.81,1.5,-34.8512,83.1094,51.7738,175,75
2026-05-09 17:06:12.907,1,0.1,-0.89,1.46,-37.5312,84.7594,50.0038,175,75
2026-05-09 17:06:12.932,1,0.13,-1.17,1.48,-45.5812,91.2194,36.2838,175,75
2026-05-09 17:06:12.944,1,0.14,-1.21,1.52,-45.3912,106.8894,32.683800000000005,175,75
2026-05-09 17:06:12.955,1,0.32,-1.2,1.57,-45.5812,109.0294,33.963800000000006,175,75
2026-05-09 17:06:12.976,1,0.62,-1.15,1.71,-55.4612,104.9994,26.6538,175,75
2026-05-09 17:06:12.987,1,0.65,-1.26,1.83,-60.8812,98.90939999999999,18.6038,175,75
2026-05-09 17:06:12.998,1,0.51,-1.25,1.87,-67.1012,82.37939999999999,12.8038,175,75
2026-05-09 17:06:13.009,1,0.15,-1.13,1.69,-75.09119999999999,55.7994,8.7238,175,75
2026-05-09 17:06:13.024,1,0.08,-1.06,1.68,-79.0512,51.5294,14.763800000000002,175,75
2026-05-09 17:06:13.056,1,0.17,-0.94,1.89,-80.5212,26.589399999999998,3.2338000000000005,175,75
2026-05-09 17:06:13.066,1,0.11,-0.69,1.94,-73.3212,3.4794,-10.1162,175,75
2026-05-09 17:06:13.077,1,-0.68,-0.46,1.3,-88.2012,-113.23060000000001,-10.3062,175,75
2026-05-09 17:06:13.104,1,-0.8,-0.83,1.09,-90.15119999999999,-78.65060000000001,17.323800000000002,175,75
2026-05-09 17:06:13.129,1,0.14,-0.76,1.79,-13.0812,-35.120599999999996,-17.4362,175,75
2026-05-09 17:06:13.141,1,-0.04,-0.74,1.38,-6.0712,-32.190599999999996,-29.016199999999998,175,75
2026-05-09 17:06:13.161,1,-0.37,-0.61,1.09,32.2888,73.8494,-44.0162,175,75
2026-05-09 17:06:13.183,1,-0.29,-0.67,1.15,52.3488,69.0294,-49.1462,175,75
2026-05-09 17:06:13.205,1,-0.37,-0.64,0.85,71.6188,44.6394,-69.9362,175,75
2026-05-09 17:06:13.215,1,-0.44,-0.64,0.72,78.99879999999999,45.979400000000005,-78.4062,175,75
2026-05-09 17:06:13.238,1,-0.57,-0.48,0.76,96.00880000000001,26.4694,-94.2062,175,75
2026-05-09 17:06:13.249,1,-0.62,-0.41,0.78,98.68879999999999,-5.730600000000001,-99.9362,175,75
2026-05-09 17:06:13.263,1,-0.7,-0.43,0.74,95.75880000000001,-58.5306,-106.3962,175,75
2026-05-09 17:06:13.274,1,-0.8,-0.4,0.61,91.9788,-83.04060000000001,-108.8962,175,75
2026-05-09 17:06:13.292,1,-0.85,-0.33,0.51,88.25880000000001,-88.9606,-110.11619999999999,175,75
2026-05-09 17:06:13.316,1,-0.88,-0.16,0.41,86.3688,-64.45060000000001,-110.0562,175,75
2026-05-09 17:06:13.328,1,-0.89,-0.08,0.42,88.3288,-51.5806,-107.1262,175,75
2026-05-09 17:06:13.338,1,-0.9,-0.05,0.42,89.90880000000001,-40.120599999999996,-106.7662,175,75
2026-05-09 17:06:13.370,1,-0.8,0.14,0.61,84.7288,-23.230599999999995,-91.7662,175,75
2026-05-09 17:06:13.404,1,-0.7,0.28,0.73,72.8988,-29.080599999999997,-72.86619999999999,175,75
2026-05-09 17:06:13.415,1,-0.67,0.34,0.71,65.8288,-32.980599999999995,-68.5362,175,75
2026-05-09 17:06:13.429,1,-0.57,0.37,0.7,54.4188,-30.2406,-60.426199999999994,175,75
2026-05-09 17:06:13.441,1,-0.47,0.37,0.72,48.7488,-25.0606,-57.806200000000004,175,75
2026-05-09 17:06:13.463,1,-0.29,0.44,0.74,32.4088,-15.060599999999999,-49.6962,175,75
2026-05-09 17:06:13.474,1,-0.14,0.48,0.82,25.4588,-5.6106,-46.3962,175,75
2026-05-09 17:06:13.485,1,0.01,0.49,0.89,18.7488,3.7194000000000003,-45.5462,175,75
2026-05-09 17:06:13.494,1,0.27,0.51,0.99,6.678799999999999,26.279400000000003,-48.2262,175,75
2026-05-09 17:06:13.506,1,0.52,0.63,1.12,-9.8512,28.4194,-48.346199999999996,175,75
2026-05-09 17:06:13.519,1,0.26,0.79,1.08,-27.4112,9.2094,-46.8262,175,75
2026-05-09 17:06:13.519,1,0.35,0.84,1.29,-41.6712,16.709400000000002,-36.3962,175,75
2026-05-09 17:06:13.548,1,0.42,0.75,1.46,-73.2612,-10.9106,-30.6062,175,75
2026-05-09 17:06:13.558,1,0.41,0.82,1.42,-87.96119999999999,-1.150599999999999,-22.6762,175,75
2026-05-09 17:06:13.579,1,0.54,0.82,1.58,-88.99119999999999,26.4694,-8.476199999999999,175,75
2026-05-09 17:06:13.594,1,0.59,0.8,1.65,-91.8612,30.309400000000004,-4.626199999999997,175,75
2026-05-09 17:06:13.601,1,0.62,0.82,1.68,-93.0812,31.8294,-3.046199999999999,175,75
2026-05-09 17:06:13.619,1,0.69,0.77,1.81,-94.3612,17.8694,-1.456199999999999,175,75
2026-05-09 17:06:13.629,1,0.66,0.74,1.8,-96.25120000000001,7.2594,-0.6061999999999994,175,75
2026-05-09 17:06:13.649,1,0.59,0.71,1.75,-97.28120000000001,1.9594000000000005,0.6738000000000017,175,75
2026-05-09 17:06:13.659,1,0.55,0.68,1.72,-95.5212,1.4694000000000003,1.7738000000000014,175,75
2026-05-09 17:06:13.663,1,0.51,0.66,1.65,-92.22120000000001,4.6394,4.3938000000000015,175,75
2026-05-09 17:06:13.683,1,0.48,0.64,1.61,-88.2012,9.3294,5.063800000000001,175,75
2026-05-09 17:06:13.695,1,0.46,0.61,1.58,-82.16120000000001,12.1994,4.453800000000001,175,75
2026-05-09 17:06:13.717,1,0.42,0.55,1.49,-67.41120000000001,15.2494,-1.9461999999999993,175,75
2026-05-09 17:06:13.717,1,0.4,0.48,1.45,-57.4112,16.959400000000002,-8.836199999999998,175,75
2026-05-09 17:06:13.745,1,0.33,0.37,1.38,-36.4912,23.849400000000003,-23.2262,175,75
2026-05-09 17:06:13.756,1,0.32,0.29,1.38,-15.151200000000001,28.909399999999998,-33.776199999999996,175,75
2026-05-09 17:06:13.788,1,0.22,-0.13,1.55,63.8088,16.3494,-59.816199999999995,175,75
2026-05-09 17:06:13.799,1,0.17,-0.34,1.49,86.24879999999999,7.8094,-69.8762,175,75
2026-05-09 17:06:13.817,1,0.14,-0.65,1.47,133.1988,8.5394,-87.1962,175,75
2026-05-09 17:06:13.828,1,0.19,-0.8,1.52,162.3488,11.5894,-93.8962,175,75
2026-05-09 17:06:13.848,1,0.28,-0.93,1.56,192.1088,3.7794000000000008,-102.6762,175,75
2026-05-09 17:06:13.874,1,0.37,-1.16,1.7,235.4588,-23.410599999999995,-116.33619999999999,175,75
2026-05-09 17:06:13.910,1,0.41,-1.52,1.86,270.2788,-84.3306,-123.4762,175,75
2026-05-09 17:06:13.931,1,0.22,-2.01,2.06,306.42879999999997,-164.8706,-127.61619999999999,175,75
2026-05-09 17:06:13.931,1,0.13,-2.13,2.0,311.55879999999996,-177.9206,-123.1662,175,75
2026-05-09 17:06:13.961,1,0.05,-2.22,1.93,316.06879999999995,-181.5206,-116.4562,175,75
2026-05-09 17:06:13.961,1,0.14,-2.45,2.01,332.8388,-163.6506,-104.75619999999999,175,75
2026-05-09 17:06:13.985,1,0.17,-2.54,2.02,330.3988,-164.94060000000002,-100.0562,175,75
2026-05-09 17:06:13.996,1,0.17,-2.59,1.98,326.73879999999997,-162.6206,-95.11619999999999,175,75
2026-05-09 17:06:14.028,1,0.12,-2.33,1.93,291.67879999999997,-148.2906,-68.1062,175,75
2026-05-09 17:06:14.040,1,0.09,-1.88,1.75,253.01880000000003,-137.5006,-54.3262,175,75
2026-05-09 17:06:14.054,1,0.12,-1.58,1.7,226.30880000000002,-117.19060000000002,-47.0662,175,75
2026-05-09 17:06:14.075,1,0.22,-1.4,1.77,212.2888,-104.0806,-39.9362,175,75
2026-05-09 17:06:14.075,1,0.3,-1.21,1.8,188.1988,-100.0006,-36.096199999999996,175,75
2026-05-09 17:06:14.102,1,0.31,-1.09,1.69,166.6188,-97.2506,-34.0862,175,75
2026-05-09 17:06:14.102,1,0.28,-0.98,1.59,151.9188,-88.4106,-30.6062,175,75
2026-05-09 17:06:14.110,1,0.27,-0.85,1.52,142.0388,-74.0206,-29.206199999999995,175,75
2026-05-09 17:06:14.132,1,0.24,-0.73,1.51,131.9788,-60.3606,-24.9362,175,75
2026-05-09 17:06:14.135,1,0.2,-0.65,1.51,121.7988,-48.7206,-20.236199999999997,175,75
2026-05-09 17:06:14.152,1,0.21,-0.62,1.55,114.84880000000001,-40.9706,-16.2762,175,75
2026-05-09 17:06:14.163,1,0.21,-0.6,1.59,107.1688,-38.9006,-12.4362,175,75
2026-05-09 17:06:14.174,1,0.19,-0.52,1.59,96.3688,-40.0006,-8.476199999999999,175,75
2026-05-09 17:06:14.202,1,0.15,-0.39,1.52,78.1388,-36.9506,1.3438000000000017,175,75
2026-05-09 17:06:14.202,1,0.15,-0.35,1.48,70.6388,-34.4506,7.013800000000001,175,75
2026-05-09 17:06:14.216,1,0.16,-0.32,1.45,65.33879999999999,-31.7006,10.613800000000001,175,75
2026-05-09 17:06:14.216,1,0.16,-0.29,1.41,60.828799999999994,-28.720599999999997,13.663800000000002,175,75
2026-05-09 17:06:14.229,1,0.16,-0.27,1.38,54.7288,-25.790599999999998,17.7438,175,75
2026-05-09 17:06:14.248,1,0.15,-0.25,1.35,47.0388,-23.050599999999996,22.013800000000003,175,75
2026-05-09 17:06:14.285,1,0.16,-0.2,1.41,22.4088,-21.2806,37.443799999999996,175,75
2026-05-09 17:06:14.342,1,0.18,-0.14,1.4,-8.4412,-22.3106,61.583800000000004,175,75
2026-05-09 17:06:14.342,1,0.17,-0.16,1.4,-12.411200000000001,-21.520599999999995,65.43379999999999,175,75
2026-05-09 17:06:14.354,1,0.2,-0.2,1.38,-17.1012,-21.0306,68.9038,175,75
2026-05-09 17:06:14.359,1,0.22,-0.26,1.37,-23.9312,-16.6406,72.9938,175,75
2026-05-09 17:06:14.383,1,0.22,-0.28,1.36,-29.9112,-13.0406,77.13380000000001,175,75
2026-05-09 17:06:14.410,1,0.25,-0.33,1.43,-43.5712,-16.090600000000002,93.1138,175,75
2026-05-09 17:06:14.422,1,0.24,-0.39,1.4,-48.9312,-21.830599999999997,96.7138,175,75
2026-05-09 17:06:14.433,1,0.25,-0.44,1.38,-54.9112,-26.4606,103.2938,175,75
2026-05-09 17:06:14.457,1,0.23,-0.54,1.37,-64.8512,-40.480599999999995,115.7938,175,75
2026-05-09 17:06:14.467,1,0.23,-0.58,1.36,-68.5012,-47.370599999999996,123.4138,175,75
2026-05-09 17:06:14.479,1,0.2,-0.6,1.32,-71.25120000000001,-52.5006,127.38380000000001,175,75
2026-05-09 17:06:14.489,1,0.18,-0.61,1.28,-71.31120000000001,-54.3906,132.2638,175,75
2026-05-09 17:06:14.501,1,0.15,-0.62,1.27,-71.00120000000001,-52.8606,137.0138,175,75
2026-05-09 17:06:14.512,1,0.13,-0.63,1.23,-67.5312,-46.340599999999995,142.3838,175,75
2026-05-09 17:06:14.523,1,0.13,-0.64,1.16,-60.8812,-36.340599999999995,145.8538,175,75
2026-05-09 17:06:14.536,1,0.14,-0.69,1.1,-52.5912,-23.110599999999998,144.1538,175,75
2026-05-09 17:06:14.566,1,0.21,-0.71,1.07,-43.5012,-0.2406000000000006,141.1038,175,75
2026-05-09 17:06:14.580,1,1.42,-0.98,2.81,7.2888,227.2594,138.5438,175,75
2026-05-09 17:06:14.580,1,6.92,-3.83,6.65,195.21880000000002,520.7394,61.5238,175,75
2026-05-09 17:06:14.614,1,2.79,-3.28,6.46,-0.5811999999999999,-556.0906,30.733800000000002,175,75
2026-05-09 17:06:14.647,1,-2.95,0.75,-2.26,5.338799999999999,-412.9206,-17.7362,175,75
2026-05-09 17:06:14.657,1,-0.33,0.81,-1.4,-23.2012,-37.6806,133.6038,175,75
2026-05-09 17:06:14.670,1,0.69,-0.56,-0.34,-49.111200000000004,160.36939999999998,97.8738,175,75
2026-05-09 17:06:14.766,1,0.18,-0.5,1.99,9.2988,20.9194,61.583800000000004,175,75
2026-05-09 17:06:14.786,1,-0.01,-0.58,1.65,17.3488,37.6294,37.8038,175,75
2026-05-09 17:06:14.799,1,0.01,-0.77,1.78,16.9788,48.2994,38.293800000000005,175,75
2026-05-09 17:06:14.799,1,0.22,-0.93,1.8,14.418800000000001,43.4194,33.4138,175,75
2026-05-09 17:06:14.830,1,0.22,-0.58,1.57,7.6488,-18.470599999999997,21.163800000000002,175,75
2026-05-09 17:06:14.841,1,0.22,-0.58,1.54,9.1188,-15.9706,17.5638,175,75
2026-05-09 17:06:14.865,1,0.16,-0.61,1.53,27.528799999999997,11.0994,12.683800000000002,175,75
2026-05-09 17:06:14.886,1,0.16,-0.62,1.59,33.0188,15.5494,9.8838,175,75
2026-05-09 17:06:14.892,1,0.16,-0.58,1.57,45.4588,22.5594,4.573800000000001,175,75
2026-05-09 17:06:14.916,1,0.19,-0.58,1.59,49.1188,25.9194,1.5238000000000014,175,75
2026-05-09 17:06:14.960,1,0.2,-0.57,1.65,54.9688,16.0394,-1.0361999999999991,175,75
2026-05-09 17:06:14.999,1,0.21,-0.56,1.69,58.0188,18.7194,-2.8061999999999987,175,75
2026-05-09 17:06:15.026,1,0.22,-0.55,1.67,59.7288,18.2394,-3.166199999999998,175,75
2026-05-09 17:06:15.129,1,0.27,-0.6,1.71,67.9588,51.6494,2.383800000000001,175,75
2026-05-09 17:06:15.180,1,0.28,-0.59,1.76,62.468799999999995,43.7794,6.583800000000001,175,75
2026-05-09 17:06:15.285,1,0.26,-0.59,1.76,49.8488,48.909400000000005,12.193800000000001,175,75
2026-05-09 17:06:15.322,1,0.25,-0.58,1.79,48.5688,49.7594,13.4838,175,75
2026-05-09 17:06:15.373,1,0.23,-0.59,1.79,42.8388,44.7594,11.103800000000001,175,75
2026-05-09 17:06:15.436,1,0.2,-0.57,1.79,34.3588,37.6294,9.693800000000001,175,75
2026-05-09 17:06:15.449,1,0.2,-0.57,1.83,30.1488,38.7794,8.843800000000002,175,75
2026-05-09 17:06:15.449,1,0.25,-0.62,1.89,21.0088,29.7594,8.0538,175,75
2026-05-09 17:06:15.515,1,-0.02,-0.62,1.42,29.538800000000002,-1.0305999999999997,10.9838,175,75
2026-05-09 17:06:15.537,1,0.28,-0.63,2.21,40.2188,25.2494,-2.6761999999999997,175,75
2026-05-09 17:06:15.571,1,0.31,-0.73,1.8,33.3288,-2.0106,-10.6662,175,75
2026-05-09 17:06:15.591,1,0.17,-0.63,1.47,22.2888,1.0394000000000005,-9.696199999999997,175,75
2026-05-09 17:06:15.601,1,0.35,-0.55,1.4,24.6688,25.3094,-6.276199999999999,175,75
2026-05-09 17:06:15.612,1,0.28,-0.72,1.38,45.5188,62.019400000000005,-7.616199999999999,175,75
2026-05-09 17:06:15.667,1,0.45,-0.94,1.88,46.1288,49.3894,-12.196199999999997,175,75
2026-05-09 17:06:15.727,1,0.3,-0.61,1.58,40.888799999999996,-26.0306,-36.2162,175,75
2026-05-09 17:06:15.727,1,0.39,-0.59,1.68,51.1888,13.4794,-37.4962,175,75
2026-05-09 17:06:15.860,1,0.81,-1.0,2.28,168.5688,117.8694,-114.75619999999999,175,75
2026-05-09 17:06:15.872,1,0.74,-0.93,2.16,161.0688,89.3894,-116.3962,175,75
2026-05-09 17:06:15.872,1,0.71,-0.91,2.05,156.6788,71.1594,-118.28620000000001,175,75
2026-05-09 17:06:15.897,1,0.63,-0.87,1.89,139.1188,36.5294,-114.8162,175,75
2026-05-09 17:06:15.932,1,0.47,-0.77,1.59,117.9588,25.3094,-110.7862,175,75
2026-05-09 17:06:15.978,1,0.24,-0.41,1.56,79.96879999999999,119.45939999999999,-82.61619999999999,175,75
2026-05-09 17:06:16.010,1,0.24,-0.35,1.5,50.2188,116.40939999999999,-64.6262,175,75
2026-05-09 17:06:16.022,1,0.19,-0.28,1.57,5.518799999999999,103.29939999999999,-36.706199999999995,175,75
2026-05-09 17:06:16.034,1,0.18,-0.26,1.59,-15.6412,81.70939999999999,-23.2862,175,75
2026-05-09 17:06:16.069,1,0.14,-0.3,1.65,-37.8312,68.8494,-5.6662,175,75
2026-05-09 17:06:16.079,1,0.13,-0.33,1.66,-43.5712,68.1094,-0.3061999999999987,175,75
2026-05-09 17:06:16.120,1,0.1,-0.38,1.7,-53.4412,71.3494,9.6338,175,75
2026-05-09 17:06:16.130,1,0.1,-0.39,1.77,-58.8112,75.4294,17.803800000000003,175,75
2026-05-09 17:06:16.141,1,0.08,-0.41,1.83,-62.0412,78.59939999999999,24.0238,175,75
2026-05-09 17:06:16.175,1,0.07,-0.47,1.91,-69.78120000000001,83.84939999999999,39.573800000000006,175,75
2026-05-09 17:06:16.186,1,0.09,-0.51,1.95,-71.19120000000001,88.4794,46.1038,175,75
2026-05-09 17:06:16.203,1,0.12,-0.55,2.01,-71.49119999999999,96.15939999999999,52.4438,175,75
2026-05-09 17:06:16.203,1,0.15,-0.58,2.03,-69.8512,99.93939999999999,55.793800000000005,175,75
2026-05-09 17:06:16.216,1,0.18,-0.61,2.07,-66.8612,102.37939999999999,59.2738,175,75
2026-05-09 17:06:16.266,1,0.19,-0.64,2.06,-64.8512,104.93939999999999,62.5638,175,75
2026-05-09 17:06:16.307,1,0.29,-0.72,2.15,-58.2012,121.2194,70.0638,175,75
2026-05-09 17:06:16.320,1,0.34,-0.74,2.2,-56.4312,119.93939999999999,71.0438,175,75
2026-05-09 17:06:16.340,1,0.38,-0.73,2.24,-51.5512,109.0294,69.63380000000001,175,75
2026-05-09 17:06:16.367,1,0.48,-0.51,2.17,-0.27120000000000033,81.0394,53.293800000000005,175,75
2026-05-09 17:06:16.391,1,0.87,-1.12,4.23,97.03880000000001,319.1494,53.2338,175,75
2026-05-09 17:06:16.409,1,2.08,-2.01,5.17,106.00880000000001,2.9894,60.2438,175,75
2026-05-09 17:06:16.509,1,0.14,-0.62,1.28,17.468799999999998,13.9094,50.4938,175,75
2026-05-09 17:06:16.540,1,0.23,-0.67,1.68,38.388799999999996,52.379400000000004,42.8038,175,75
2026-05-09 17:06:16.571,1,0.24,-0.71,1.51,49.1788,56.409400000000005,48.723800000000004,175,75
2026-05-09 17:06:16.603,1,0.31,-0.6,1.65,57.7788,52.9894,51.1638,175,75
2026-05-09 17:06:16.614,1,0.14,-0.61,1.69,55.638799999999996,47.4394,40.3738,175,75
2026-05-09 17:06:16.705,1,0.09,-0.57,1.7,53.138799999999996,50.979400000000005,17.5638,175,75
2026-05-09 17:06:16.737,1,0.09,-0.56,1.69,52.8388,47.6894,11.8938,175,75
2026-05-09 17:06:16.761,1,0.15,-0.57,1.68,53.6288,42.9894,8.113800000000001,175,75
2026-05-09 17:06:16.805,1,0.15,-0.57,1.69,55.3988,46.5294,8.603800000000001,175,75
2026-05-09 17:06:16.816,1,0.15,-0.56,1.71,53.6288,50.129400000000004,9.3938,175,75
2026-05-09 17:06:16.826,1,0.16,-0.56,1.73,52.8988,53.659400000000005,9.823800000000002,175,75
2026-05-09 17:06:16.866,1,0.16,-0.58,1.76,49.9088,52.4394,9.573800000000002,175,75
2026-05-09 17:06:16.911,1,0.13,-0.54,1.74,46.6788,50.4294,8.9638,175,75
2026-05-09 17:06:16.984,1,0.14,-0.54,1.73,45.0288,37.1994,3.963800000000001,175,75
2026-05-09 17:06:17.033,1,0.15,-0.57,1.75,41.9788,37.0194,2.133800000000001,175,75
2026-05-09 17:06:17.033,1,0.16,-0.57,1.73,40.9488,37.8694,2.2638000000000016,175,75
2026-05-09 17:06:17.092,1,0.17,-0.58,1.71,39.4788,41.2794,3.1138000000000012,175,75
2026-05-09 17:06:17.112,1,0.18,-0.57,1.73,38.9288,44.4594,5.123800000000001,175,75
2026-05-09 17:06:17.177,1,0.16,-0.53,1.76,23.6288,54.5794,16.893800000000002,175,75
2026-05-09 17:06:17.208,1,0.15,-0.53,1.76,21.2488,50.6694,18.663800000000002,175,75
2026-05-09 17:06:17.231,1,0.15,-0.55,1.74,19.5388,46.2794,19.8838,175,75
2026-05-09 17:06:17.245,1,0.14,-0.55,1.73,19.3588,44.699400000000004,20.303800000000003,175,75
2026-05-09 17:06:17.245,1,0.13,-0.55,1.69,19.4788,44.2094,20.733800000000002,175,75
2026-05-09 17:06:17.278,1,0.15,-0.53,1.65,24.1788,44.9394,24.3938,175,75
2026-05-09 17:06:17.374,1,0.05,-0.51,1.76,22.468799999999998,33.0494,25.733800000000002,175,75
2026-05-09 17:06:17.439,1,0.09,-0.58,1.63,8.7488,40.1294,23.8438,175,75
2026-05-09 17:06:17.468,1,0.09,-0.55,1.57,12.9588,44.3294,23.483800000000002,175,75
2026-05-09 17:06:17.468,1,0.08,-0.53,1.56,14.418800000000001,42.9294,22.9338,175,75
2026-05-09 17:06:17.496,1,0.06,-0.52,1.56,17.2888,43.7194,21.833800000000004,175,75
2026-05-09 17:06:17.518,1,0.03,-0.5,1.57,24.6088,44.2094,16.3438,175,75
2026-05-09 17:06:17.540,1,0.02,-0.52,1.57,28.928800000000003,38.4194,8.113800000000001,175,75
2026-05-09 17:06:17.565,1,0.03,-0.55,1.56,29.2988,35.7994,4.3938000000000015,175,75
2026-05-09 17:06:17.575,1,0.04,-0.56,1.55,30.1488,35.059400000000004,1.5938000000000017,175,75
2026-05-09 17:06:17.587,1,0.04,-0.57,1.56,30.9488,34.3294,-0.5461999999999989,175,75
2026-05-09 17:06:17.587,1,0.04,-0.57,1.56,31.858800000000002,33.9094,-2.0061999999999998,175,75
2026-05-09 17:06:17.597,1,0.05,-0.57,1.57,33.8688,34.8794,-2.9261999999999997,175,75
2026-05-09 17:06:17.608,1,0.07,-0.63,1.56,35.6988,38.0494,-5.976199999999999,175,75
2026-05-09 17:06:17.619,1,0.07,-0.64,1.58,37.1088,39.6994,-6.456199999999999,175,75
2026-05-09 17:06:17.648,1,0.08,-0.63,1.58,39.0588,40.1894,-7.0062,175,75
2026-05-09 17:06:17.659,1,0.11,-0.61,1.56,38.8688,40.309400000000004,-5.786199999999997,175,75
2026-05-09 17:06:17.670,1,0.11,-0.59,1.53,39.2388,43.5994,-5.726199999999999,175,75
2026-05-09 17:06:17.730,1,0.09,-0.54,1.62,37.7788,45.9194,-2.616199999999999,175,75
2026-05-09 17:06:17.741,1,0.08,-0.5,1.59,35.3388,47.199400000000004,0.9838000000000005,175,75
2026-05-09 17:06:17.817,1,0.07,-0.42,1.69,27.288800000000002,43.5994,8.7238,175,75
2026-05-09 17:06:17.917,1,0.11,-0.34,1.66,8.0788,39.6994,29.4538,175,75
2026-05-09 17:06:17.934,1,0.06,-0.44,1.53,-9.051200000000001,6.0394000000000005,40.8538,175,75
2026-05-09 17:06:17.963,1,0.09,-0.43,1.38,-12.1012,14.1494,41.5238,175,75
2026-05-09 17:06:18.027,1,0.13,-0.54,1.34,-13.0212,19.389400000000002,39.693799999999996,175,75
2026-05-09 17:06:18.055,1,0.07,-0.65,1.44,-12.411200000000001,22.4394,38.903800000000004,175,75
2026-05-09 17:06:18.089,1,0.01,-0.71,1.47,-13.8112,26.279400000000003,37.6238,175,75
2026-05-09 17:06:18.089,1,0.0,-0.8,1.47,-13.6312,35.9194,37.323800000000006,175,75
2026-05-09 17:06:18.151,1,0.15,-0.96,1.62,-22.7712,79.1494,39.5138,175,75
2026-05-09 17:06:18.161,1,0.12,-1.17,1.8,-48.1412,65.54939999999999,24.6338,175,75
2026-05-09 17:06:18.175,1,0.38,-1.01,1.61,-46.2512,71.8894,38.7238,175,75
2026-05-09 17:06:18.186,1,0.62,-1.07,1.45,-57.2812,98.7194,26.1038,175,75
2026-05-09 17:06:18.206,1,0.63,-1.05,1.82,-67.8312,99.6994,27.193800000000003,175,75
2026-05-09 17:06:18.244,1,0.28,-1.08,1.89,-104.4812,28.9694,64.69380000000001,175,75
2026-05-09 17:06:18.269,1,-0.02,-0.48,1.55,-108.3212,3.1693999999999996,51.043800000000005,175,75
2026-05-09 17:06:18.287,1,0.51,-0.7,1.88,-25.5212,113.29939999999999,8.413800000000002,175,75
2026-05-09 17:06:18.298,1,0.6,-0.64,2.26,29.9088,146.58939999999998,-22.556199999999997,175,75
2026-05-09 17:06:18.321,1,0.63,-0.36,2.26,66.7988,133.1694,-34.3262,175,75
2026-05-09 17:06:18.336,1,0.43,-0.29,1.98,91.6188,123.3594,-49.1462,175,75
2026-05-09 17:06:18.348,1,0.32,-0.44,1.83,137.46880000000002,141.8294,-84.75619999999999,175,75
2026-05-09 17:06:18.359,1,0.38,-0.51,1.94,167.6488,141.0394,-102.86619999999999,175,75
2026-05-09 17:06:18.376,1,0.42,-0.61,1.95,192.83880000000002,120.48939999999999,-118.4762,175,75
2026-05-09 17:06:18.422,1,0.08,-0.83,1.69,273.68879999999996,65.4294,-165.7262,175,75
2026-05-09 17:06:18.434,1,-0.03,-0.99,1.71,303.1988,23.7194,-170.9162,175,75
2026-05-09 17:06:18.471,1,-0.14,-1.16,1.62,318.62879999999996,-21.2806,-172.43619999999999,175,75
2026-05-09 17:06:18.492,1,-0.21,-1.25,1.63,321.12879999999996,-41.090599999999995,-174.8162,175,75
2026-05-09 17:06:18.513,1,-0.32,-1.44,1.55,328.0788,-56.5806,-151.1562,175,75
2026-05-09 17:06:18.549,1,-0.42,-1.53,1.42,316.36879999999996,-86.70060000000001,-127.80619999999999,175,75
2026-05-09 17:06:18.560,1,-0.47,-1.46,1.33,309.29879999999997,-79.6906,-113.4062,175,75
2026-05-09 17:06:18.595,1,-0.46,-1.22,1.39,271.00879999999995,-90.79060000000001,-66.1562,175,75
2026-05-09 17:06:18.597,1,-0.43,-1.13,1.38,255.57880000000003,-91.5806,-56.7662,175,75
2026-05-09 17:06:18.612,1,-0.36,-1.01,1.35,238.1988,-93.1106,-43.8362,175,75
2026-05-09 17:06:18.618,1,-0.28,-0.9,1.32,219.6688,-90.67060000000001,-31.6462,175,75
2026-05-09 17:06:18.631,1,-0.22,-0.81,1.31,203.4488,-91.0306,-20.7262,175,75
2026-05-09 17:06:18.654,1,-0.15,-0.68,1.15,159.1188,-98.04060000000001,-6.886199999999999,175,75
2026-05-09 17:06:18.664,1,-0.11,-0.64,1.0,142.46880000000002,-89.81060000000001,-9.446199999999997,175,75
2026-05-09 17:06:18.686,1,-0.11,-0.26,1.16,115.08879999999999,-38.840599999999995,5.733800000000001,175,75
2026-05-09 17:06:18.711,1,-0.06,-0.16,1.18,90.4588,-25.910599999999995,31.2838,175,75
2026-05-09 17:06:18.725,1,-0.05,-0.18,1.1,71.4288,-18.840600000000002,39.2738,175,75
2026-05-09 17:06:18.725,1,-0.02,-0.13,1.07,47.8988,-7.370600000000001,49.6338,175,75
2026-05-09 17:06:18.736,1,0.02,-0.1,1.11,36.3088,3.1693999999999996,59.2738,175,75
2026-05-09 17:06:18.758,1,0.08,-0.14,1.18,21.4288,10.9194,69.3938,175,75
2026-05-09 17:06:18.769,1,0.11,-0.16,1.22,8.4488,12.1994,77.13380000000001,175,75
2026-05-09 17:06:18.770,1,0.14,-0.15,1.23,-2.0412000000000003,11.9594,84.3938,175,75
2026-05-09 17:06:18.782,1,0.15,-0.17,1.25,-9.7212,12.1994,89.8238,175,75
2026-05-09 17:06:18.792,1,0.16,-0.23,1.3,-27.9612,11.4094,100.9838,175,75
2026-05-09 17:06:18.881,1,0.21,-0.41,1.44,-52.1612,-16.4606,113.0538,175,75
2026-05-09 17:06:18.900,1,0.2,-0.47,1.42,-57.8912,-29.510599999999997,115.4338,175,75
2026-05-09 17:06:18.933,1,0.14,-0.49,1.35,-65.6412,-39.020599999999995,121.5238,175,75
2026-05-09 17:06:18.965,1,0.12,-0.55,1.38,-75.3312,-46.090599999999995,131.16379999999998,175,75
2026-05-09 17:06:18.965,1,0.1,-0.61,1.38,-81.19120000000001,-52.8606,137.3238,175,75
2026-05-09 17:06:18.968,1,0.08,-0.65,1.36,-84.1112,-57.010600000000004,142.2638,175,75
2026-05-09 17:06:19.007,1,-0.38,-0.72,2.04,-71.00120000000001,2.3194,145.6138,175,75
2026-05-09 17:06:19.057,1,1.91,-1.86,4.52,-50.6412,-700.0606,51.1638,175,75
2026-05-09 17:06:19.081,1,-0.34,-0.53,2.01,-1.4312000000000005,112.3194,141.0438,175,75
2026-05-09 17:06:19.115,1,0.09,-0.61,1.32,-28.0812,34.9394,107.74380000000001,175,75
2026-05-09 17:06:19.142,1,0.33,-0.98,2.28,1.2487999999999992,67.4994,76.4038,175,75
2026-05-09 17:06:19.175,1,0.18,-0.61,1.55,-34.4812,-16.2806,52.6838,175,75
2026-05-09 17:06:19.187,1,0.26,-0.66,1.56,-29.8512,-18.040599999999998,49.6338,175,75
2026-05-09 17:06:19.200,1,0.18,-0.62,1.53,-27.281200000000002,-24.870599999999996,44.333800000000004,175,75
2026-05-09 17:06:19.213,1,0.18,-0.54,1.48,-25.1512,-17.440599999999996,40.183800000000005,175,75
2026-05-09 17:06:19.213,1,0.16,-0.55,1.43,-17.4712,-6.0906,38.543800000000005,175,75
2026-05-09 17:06:19.242,1,0.2,-0.6,1.41,-5.581200000000001,5.6694,37.8038,175,75
2026-05-09 17:06:19.310,1,0.22,-0.57,1.41,29.848799999999997,54.9394,34.213800000000006,175,75
2026-05-09 17:06:19.322,1,0.27,-0.63,1.59,31.558799999999998,53.479400000000005,33.543800000000005,175,75
2026-05-09 17:06:19.348,1,0.23,-0.66,1.54,31.1288,36.1594,32.933800000000005,175,75
2026-05-09 17:06:19.348,1,0.2,-0.62,1.57,31.068800000000003,34.7594,31.2238,175,75
2026-05-09 17:06:19.358,1,0.13,-0.58,1.6,30.028799999999997,29.639400000000002,28.5438,175,75
2026-05-09 17:06:19.409,1,0.2,-0.64,1.77,30.638799999999996,40.2494,22.193800000000003,175,75
2026-05-09 17:06:19.420,1,0.11,-0.64,1.48,32.2888,54.269400000000005,22.193800000000003,175,75
2026-05-09 17:06:19.443,1,0.2,-0.66,1.61,30.278799999999997,63.479400000000005,23.3538,175,75
2026-05-09 17:06:19.481,1,0.21,-0.59,1.58,26.558799999999998,51.769400000000005,24.763800000000003,175,75
2026-05-09 17:06:19.510,1,0.19,-0.58,1.57,25.0288,48.7794,24.5738,175,75
2026-05-09 17:06:19.552,1,0.14,-0.5,1.57,22.7788,42.809400000000004,25.6738,175,75
2026-05-09 17:06:19.576,1,0.12,-0.48,1.56,22.5288,41.7094,25.4938,175,75
2026-05-09 17:06:19.576,1,0.11,-0.48,1.55,22.4088,42.0794,24.763800000000003,175,75
2026-05-09 17:06:19.672,1,0.11,-0.48,1.49,22.718799999999998,45.5494,25.4338,175,75
2026-05-09 17:06:19.672,1,0.18,-0.46,1.53,18.8688,46.409400000000005,27.263800000000003,175,75
2026-05-09 17:06:19.683,1,0.17,-0.43,1.61,16.8588,44.2094,28.7838,175,75
2026-05-09 17:06:19.708,1,0.13,-0.46,1.47,-1.8612000000000002,36.8894,42.443799999999996,175,75
2026-05-09 17:06:19.708,1,0.12,-0.5,1.47,-3.8712000000000004,43.3594,42.5038,175,75
