Time,ID,Ax,Ay,Az,Gx,Gy,Gz,Height,Weight
2026-05-09 15:10:58.015,2,0.43,0.11,1.62,39.8482,-24.022399999999998,4.567000000000001,175,75
2026-05-09 15:10:58.015,2,0.42,0.11,1.63,41.678200000000004,-21.822400000000002,5.297000000000001,175,75
2026-05-09 15:10:58.027,2,0.39,0.1,1.68,48.6282,-20.7824,5.487000000000001,175,75
2026-05-09 15:10:58.080,2,0.4,0.11,1.71,53.2082,-44.1424,-2.262999999999999,175,75
2026-05-09 15:10:58.090,2,0.43,0.16,1.65,46.6782,-64.38239999999999,-5.612999999999999,175,75
2026-05-09 15:10:58.104,2,0.41,0.2,1.59,47.288199999999996,-56.9424,1.7670000000000008,175,75
2026-05-09 15:10:58.132,2,0.35,0.16,1.58,26.068199999999997,-70.9724,4.807,175,75
2026-05-09 15:10:58.144,2,0.34,0.16,1.55,20.5182,-77.67240000000001,2.307000000000001,175,75
2026-05-09 15:10:58.169,2,0.34,0.14,1.47,9.118199999999998,-87.19239999999999,5.487000000000001,175,75
2026-05-09 15:10:58.180,2,0.32,0.11,1.43,2.9581999999999997,-89.0824,10.487000000000002,175,75
2026-05-09 15:10:58.196,2,0.29,0.03,1.33,-10.761800000000001,-103.9624,16.097,175,75
2026-05-09 15:10:58.212,2,0.28,-0.02,1.25,-22.7718,-131.9424,17.797,175,75
2026-05-09 15:10:58.223,2,0.04,-0.01,1.0,-68.99180000000001,-181.8224,-3.1129999999999987,175,75
2026-05-09 15:10:58.269,2,-0.22,0.14,0.61,-105.8818,-210.17239999999998,-17.813,175,75
2026-05-09 15:10:58.329,2,0.18,0.13,0.31,-140.21179999999998,-149.3224,41.087,175,75
2026-05-09 15:10:58.336,2,0.07,0.11,0.23,-144.90179999999998,-110.42240000000001,90.667,175,75
2026-05-09 15:10:58.395,2,-0.23,-0.15,0.16,-187.1018,-40.6024,121.887,175,75
2026-05-09 15:10:58.408,2,-0.26,-0.26,0.14,-206.9218,-16.7624,117.307,175,75
2026-05-09 15:10:58.408,2,-0.2,-0.37,0.14,-217.8918,6.037600000000001,114.937,175,75
2026-05-09 15:10:58.478,2,0.09,-0.7,0.34,-226.6718,107.9976,152.617,175,75
2026-05-09 15:10:58.489,2,0.23,-0.99,0.33,-232.1618,105.79759999999999,150.417,175,75
2026-05-09 15:10:58.551,2,0.28,-1.5,0.36,-236.3718,85.67760000000001,133.52700000000002,175,75
2026-05-09 15:10:58.580,2,0.39,-1.13,0.46,-233.93179999999998,133.9676,95.84700000000001,175,75
2026-05-09 15:10:58.592,2,0.7,-1.35,0.76,-230.0918,212.6876,94.137,175,75
2026-05-09 15:10:58.619,2,0.66,-1.37,1.01,-211.43179999999998,245.91760000000002,70.787,175,75
2026-05-09 15:10:58.619,2,0.66,-1.16,1.21,-186.43179999999998,212.1976,30.787000000000003,175,75
2026-05-09 15:10:58.644,2,0.64,-0.83,1.36,-165.21179999999998,141.10760000000002,-16.892999999999997,175,75
2026-05-09 15:10:58.657,2,0.67,-0.3,1.42,-134.90179999999998,168.9676,-43.423,175,75
2026-05-09 15:10:58.689,2,0.72,0.05,1.57,-95.0918,206.5876,-42.083,175,75
2026-05-09 15:10:58.699,2,0.7,0.18,1.67,-71.2518,204.4576,-42.693,175,75
2026-05-09 15:10:58.722,2,0.7,0.31,1.76,-45.3918,177.9976,-48.543,175,75
2026-05-09 15:10:58.741,2,0.66,0.38,1.81,-36.6118,152.32760000000002,-59.643,175,75
2026-05-09 15:10:58.741,2,0.61,0.6,1.79,-27.461800000000004,126.2276,-89.513,175,75
2026-05-09 15:10:58.751,2,0.64,0.68,1.76,-17.951800000000002,117.6276,-93.663,175,75
2026-05-09 15:10:58.751,2,0.65,0.77,1.75,-6.251799999999999,115.9176,-85.863,175,75
2026-05-09 15:10:58.762,2,0.66,0.88,1.71,6.498199999999999,120.42760000000001,-69.763,175,75
2026-05-09 15:10:58.766,2,0.64,1.0,1.69,21.5582,122.6876,-50.983,175,75
2026-05-09 15:10:58.797,2,0.62,1.09,1.67,34.9082,121.64760000000001,-41.533,175,75
2026-05-09 15:10:58.819,2,0.63,1.11,1.85,44.5482,148.5376,-50.003,175,75
2026-05-09 15:10:58.819,2,0.68,1.11,1.92,50.5182,167.5676,-60.193,175,75
2026-05-09 15:10:58.896,2,0.94,0.4,2.33,100.51820000000001,46.897600000000004,-27.323,175,75
2026-05-09 15:10:58.896,2,0.88,0.05,2.34,107.9582,-4.082399999999999,14.137,175,75
2026-05-09 15:10:58.908,2,1.22,-0.73,2.16,124.66820000000001,-39.5724,-3.543,175,75
2026-05-09 15:10:58.946,2,0.99,-0.17,1.73,257.71819999999997,126.64760000000001,19.197,175,75
2026-05-09 15:10:59.047,2,1.06,-1.09,2.14,265.7682,41.5276,-18.232999999999997,175,75
2026-05-09 15:10:59.061,2,1.23,-1.52,2.26,273.8782,22.0176,-78.053,175,75
2026-05-09 15:10:59.073,2,2.04,-1.5,2.05,278.7582,1.2876000000000012,-52.933,175,75
2026-05-09 15:10:59.089,2,1.63,-1.22,1.45,305.0382,-38.5924,0.2970000000000006,175,75
2026-05-09 15:10:59.100,2,1.73,-1.14,1.42,306.3182,-72.86240000000001,-8.422999999999998,175,75
2026-05-09 15:10:59.133,2,1.61,-1.23,1.3,326.7382,12.447600000000001,17.307000000000002,175,75
2026-05-09 15:10:59.133,2,1.59,-1.2,1.0,335.70820000000003,-169.3824,5.9670000000000005,175,75
2026-05-09 15:10:59.180,2,1.1,-1.26,0.92,381.2582,-183.0424,-149.393,175,75
2026-05-09 15:10:59.188,2,0.94,-1.31,0.84,383.3282,-173.4124,-178.783,175,75
2026-05-09 15:10:59.223,2,0.95,-1.6,0.86,384.3582,-111.0324,-228.303,175,75
2026-05-09 15:10:59.255,2,1.03,-1.59,0.83,380.45820000000003,-102.5524,-226.953,175,75
2026-05-09 15:10:59.255,2,0.99,-1.19,0.76,365.8882,-109.44239999999999,-213.543,175,75
2026-05-09 15:10:59.255,2,0.87,-0.82,0.71,363.7582,-102.4324,-205.063,175,75
2026-05-09 15:10:59.268,2,0.75,-0.59,0.71,366.5582,-86.94239999999999,-196.533,175,75
2026-05-09 15:10:59.283,2,0.54,-0.27,0.79,375.2782,-13.1024,-180.733,175,75
2026-05-09 15:10:59.295,2,0.6,-0.1,0.88,365.0382,29.217599999999997,-159.033,175,75
2026-05-09 15:10:59.306,2,0.69,0.03,0.88,354.5482,23.477600000000002,-149.093,175,75
2026-05-09 15:10:59.306,2,0.79,0.2,0.87,342.6582,-13.5924,-140.373,175,75
2026-05-09 15:10:59.323,2,0.74,0.33,0.83,332.7182,-66.7024,-132.993,175,75
2026-05-09 15:10:59.341,2,0.57,0.55,0.53,309.5482,-171.2124,-143.903,175,75
2026-05-09 15:10:59.346,2,0.37,0.64,0.35,295.2182,-186.4624,-168.543,175,75
2026-05-09 15:10:59.358,2,0.07,0.75,0.21,292.0482,-104.5024,-173.783,175,75
2026-05-09 15:10:59.358,2,-0.04,0.87,0.06,310.2182,7.997600000000002,-154.943,175,75
2026-05-09 15:10:59.372,2,-0.05,0.87,0.15,313.8182,102.86760000000001,-136.283,175,75
2026-05-09 15:10:59.397,2,-0.04,0.92,0.54,242.0482,210.1276,-93.603,175,75
2026-05-09 15:10:59.433,2,0.02,0.98,0.57,236.06820000000002,190.6176,-89.643,175,75
2026-05-09 15:10:59.444,2,0.2,1.07,0.52,242.4082,97.01759999999999,-81.953,175,75
2026-05-09 15:10:59.448,2,0.21,1.12,0.46,241.5582,30.1276,-70.003,175,75
2026-05-09 15:10:59.470,2,0.05,1.14,0.4,214.0582,-15.542399999999999,-49.033,175,75
2026-05-09 15:10:59.516,2,-0.14,1.1,0.23,152.22820000000002,26.897600000000004,-29.702999999999996,175,75
2026-05-09 15:10:59.606,2,-0.35,1.2,0.14,31.6782,156.3476,-4.393,175,75
2026-05-09 15:10:59.641,2,-0.32,1.2,0.21,3.9381999999999993,212.9976,10.237000000000002,175,75
2026-05-09 15:10:59.656,2,-0.3,1.15,0.33,-28.321800000000003,250.0676,23.717000000000002,175,75
2026-05-09 15:10:59.666,2,-0.4,0.95,0.58,-108.93180000000001,318.4776,40.967,175,75
2026-05-09 15:10:59.666,2,-0.47,0.76,0.67,-162.0418,345.3076,53.897,175,75
2026-05-09 15:10:59.678,2,-0.52,0.59,0.76,-209.7218,359.69759999999997,73.107,175,75
2026-05-09 15:10:59.678,2,-0.44,0.32,0.87,-279.9018,362.13759999999996,118.227,175,75
2026-05-09 15:10:59.690,2,-0.13,-0.04,0.96,-361.6718,327.50759999999997,190.847,175,75
2026-05-09 15:10:59.690,2,1.46,-1.42,1.07,-476.1218,195.9776,269.077,175,75
2026-05-09 15:10:59.701,2,0.35,-1.71,0.89,-498.3218,70.4976,151.887,175,75
2026-05-09 15:10:59.711,2,0.71,-3.25,0.67,-631.3718,-93.10239999999999,327.18699999999995,175,75
2026-05-09 15:10:59.723,2,0.33,-3.45,0.47,-712.9518,-107.19239999999999,429.74699999999996,175,75
2026-05-09 15:10:59.747,2,-0.13,-4.19,0.04,-719.2318,-86.3324,444.017,175,75
2026-05-09 15:10:59.786,2,0.75,-6.14,-0.25,-694.4218,-69.2024,442.06699999999995,175,75
2026-05-09 15:10:59.846,2,1.23,-6.5,-0.5,-647.0418,-65.7824,512.497,175,75
2026-05-09 15:10:59.860,2,0.91,-6.83,-0.54,-590.5717999999999,38.2976,584.197,175,75
2026-05-09 15:10:59.860,2,0.3,-7.27,-0.4,-571.4318,275.5576,594.1370000000001,175,75
2026-05-09 15:10:59.872,2,0.42,-6.95,0.45,-512.8318,491.4676,439.387,175,75
2026-05-09 15:10:59.899,2,0.58,-6.33,1.22,-453.6218,487.19759999999997,334.74699999999996,175,75
2026-05-09 15:10:59.899,2,0.71,-5.73,1.79,-426.79179999999997,470.6176,261.94699999999995,175,75
2026-05-09 15:10:59.899,2,0.97,-4.41,2.67,-416.0018,362.01759999999996,147.987,175,75
2026-05-09 15:10:59.925,2,0.96,-3.18,2.71,-436.79179999999997,145.3676,88.287,175,75
2026-05-09 15:10:59.925,2,0.84,-2.67,2.33,-416.9818,53.3576,71.337,175,75
2026-05-09 15:10:59.927,2,0.54,-1.97,1.91,-366.5518,102.01759999999999,35.417,175,75
2026-05-09 15:10:59.947,2,0.26,-1.41,1.96,-320.0918,238.8476,32.797,175,75
2026-05-09 15:10:59.972,2,0.06,-0.95,2.23,-261.7318,367.6276,26.517000000000003,175,75
2026-05-09 15:10:59.986,2,0.15,-0.62,2.56,-197.5918,414.08759999999995,-11.712999999999997,175,75
2026-05-09 15:10:59.998,2,0.12,-0.11,3.04,-210.7018,181.5876,14.017,175,75
2026-05-09 15:10:59.998,2,0.23,0.48,3.23,-251.2418,183.1176,-10.863,175,75
2026-05-09 15:11:00.024,2,-0.12,0.88,3.1,-260.4518,204.6976,-163.97299999999998,175,75
2026-05-09 15:11:00.024,2,0.07,0.53,3.27,-222.71179999999998,181.5276,-201.043,175,75
2026-05-09 15:11:00.036,2,0.17,0.29,3.5,-187.5318,153.0576,-184.513,175,75
2026-05-09 15:11:00.036,2,-0.02,0.32,3.61,-142.77179999999998,124.2176,-140.493,175,75
2026-05-09 15:11:00.047,2,-0.05,0.65,3.46,-86.0018,69.2776,-112.873,175,75
2026-05-09 15:11:00.059,2,-0.06,0.83,3.31,-44.0518,35.3676,-120.123,175,75
2026-05-09 15:11:00.071,2,-0.25,0.89,3.15,8.998199999999999,77.80760000000001,-134.213,175,75
2026-05-09 15:11:00.071,2,0.05,0.97,3.15,60.7082,154.1476,-140.193,175,75
2026-05-09 15:11:00.134,2,0.09,0.92,1.96,76.12819999999999,-148.7124,98.657,175,75
2026-05-09 15:11:00.172,2,-0.91,0.92,1.58,92.4682,-90.2424,126.027,175,75
2026-05-09 15:11:00.184,2,4.17,-1.17,2.69,142.7782,35.8576,-98.233,175,75
2026-05-09 15:11:00.214,2,1.5,0.31,1.81,226.2482,442.6276,-204.033,175,75
2026-05-09 15:11:00.280,2,1.07,0.5,2.32,284.1782,380.00759999999997,30.297,175,75
2026-05-09 15:11:00.298,2,2.66,-0.42,2.75,335.5782,-220.36239999999998,190.727,175,75
2026-05-09 15:11:00.309,2,2.71,-1.24,2.48,361.0682,-383.4724,126.337,175,75
2026-05-09 15:11:00.325,2,2.75,-1.71,1.83,354.7282,-388.7724,55.237,175,75
2026-05-09 15:11:00.325,2,3.08,-2.02,0.78,361.9882,-371.0924,-37.693,175,75
2026-05-09 15:11:00.337,2,2.87,-1.88,-1.2,350.0982,-336.8824,-294.70300000000003,175,75
2026-05-09 15:11:00.337,2,2.47,-2.33,-1.22,344.1182,-52.3724,-406.103,175,75
2026-05-09 15:11:00.367,2,2.28,-3.03,-0.51,372.4082,19.9476,-466.103,175,75
2026-05-09 15:11:00.383,2,2.35,-3.44,-0.32,376.9882,-18.0424,-488.423,175,75
2026-05-09 15:11:00.404,2,1.76,-3.49,-0.25,344.8482,-158.4124,-502.26300000000003,175,75
2026-05-09 15:11:00.422,2,1.41,-3.11,-0.32,326.6782,-191.2724,-504.70300000000003,175,75
2026-05-09 15:11:00.443,2,0.79,-2.26,-0.38,311.1282,-143.2824,-464.273,175,75
2026-05-09 15:11:00.454,2,0.58,-1.58,0.14,346.3782,-31.522399999999998,-400.12300000000005,175,75
2026-05-09 15:11:00.479,2,0.21,-1.08,0.57,347.83820000000003,-73.2824,-329.273,175,75
2026-05-09 15:11:00.479,2,0.12,-0.87,0.63,327.6582,-99.63239999999999,-317.56300000000005,175,75
2026-05-09 15:11:00.505,2,-0.04,-0.53,0.67,310.2182,-107.5524,-297.50300000000004,175,75
2026-05-09 15:11:00.520,2,-0.04,-0.39,0.68,306.8582,-98.7724,-285.733,175,75
2026-05-09 15:11:00.530,2,-0.07,-0.28,0.7,298.4482,-95.17240000000001,-270.733,175,75
2026-05-09 15:11:00.540,2,-0.22,-0.15,0.68,275.70820000000003,-94.69239999999999,-248.543,175,75
2026-05-09 15:11:00.571,2,-0.5,0.03,0.75,220.2782,7.927600000000002,-232.203,175,75
2026-05-09 15:11:00.582,2,-0.54,0.02,0.77,208.0182,25.2476,-220.493,175,75
2026-05-09 15:11:00.593,2,-0.6,0.04,0.75,192.7182,35.0676,-211.403,175,75
2026-05-09 15:11:00.593,2,-0.68,0.08,0.73,176.06820000000002,42.257600000000004,-206.22299999999998,175,75
2026-05-09 15:11:00.604,2,-0.79,0.15,0.69,160.5182,47.327600000000004,-204.393,175,75
2026-05-09 15:11:00.616,2,-0.89,0.22,0.61,148.6882,51.3476,-206.043,175,75
2026-05-09 15:11:00.638,2,-1.0,0.54,0.34,191.3782,19.5776,-230.613,175,75
2026-05-09 15:11:00.661,2,-0.96,0.67,0.32,217.0482,-0.5423999999999989,-232.563,175,75
2026-05-09 15:11:00.661,2,-0.86,0.76,0.33,225.2182,-15.9724,-237.143,175,75
2026-05-09 15:11:00.684,2,-0.81,0.81,0.38,211.8582,-17.8624,-245.493,175,75
2026-05-09 15:11:00.695,2,-0.8,0.82,0.5,177.6582,9.947600000000001,-255.31300000000002,175,75
2026-05-09 15:11:00.708,2,-0.67,0.82,0.63,124.84819999999999,72.2576,-251.41299999999998,175,75
2026-05-09 15:11:00.708,2,-0.4,0.9,0.57,36.0082,160.85760000000002,-206.343,175,75
2026-05-09 15:11:00.719,2,-0.55,1.01,0.51,-28.071800000000003,225.2476,-156.533,175,75
2026-05-09 15:11:00.742,2,-0.74,1.09,0.42,-70.7618,286.3476,-112.263,175,75
2026-05-09 15:11:00.753,2,-0.53,1.18,0.41,-73.87180000000001,273.1176,-77.443,175,75
2026-05-09 15:11:00.753,2,-0.24,1.21,0.56,-66.7918,229.2776,-24.883,175,75
2026-05-09 15:11:00.764,2,0.02,1.24,0.65,-67.95179999999999,181.7176,40.967,175,75
2026-05-09 15:11:00.774,2,0.2,1.28,0.62,-82.1618,92.6876,107.987,175,75
2026-05-09 15:11:00.794,2,0.49,1.25,0.54,-132.5318,-111.5224,221.337,175,75
2026-05-09 15:11:00.805,2,0.74,1.17,0.31,-141.18179999999998,-194.9324,308.897,175,75
2026-05-09 15:11:00.835,2,-0.45,0.58,-0.31,-165.5118,80.79759999999999,241.697,175,75
2026-05-09 15:11:00.848,2,-0.2,0.39,-0.06,-222.71179999999998,281.5276,336.157,175,75
2026-05-09 15:11:00.858,2,-0.27,0.22,0.11,-251.55180000000001,375.6176,401.397,175,75
2026-05-09 15:11:00.869,2,-0.19,-0.1,0.28,-289.4218,470.4276,475.48699999999997,175,75
2026-05-09 15:11:00.881,2,0.01,-0.52,0.39,-324.4818,526.7176,529.1370000000001,175,75
2026-05-09 15:11:00.907,2,0.35,-1.39,0.41,-362.3418,579.5776,474.56699999999995,175,75
2026-05-09 15:11:00.907,2,0.2,-1.92,0.46,-393.1418,580.7976,424.267,175,75
2026-05-09 15:11:00.936,2,0.58,-3.36,0.82,-542.2818,457.44759999999997,469.56699999999995,175,75
2026-05-09 15:11:00.936,2,0.54,-3.54,0.87,-555.4518,375.4276,454.267,175,75
2026-05-09 15:11:00.960,2,0.6,-3.77,1.02,-550.1518,215.2476,397.49699999999996,175,75
2026-05-09 15:11:00.960,2,0.77,-3.91,1.12,-555.4518,84.88759999999999,355.417,175,75
2026-05-09 15:11:00.981,2,0.98,-3.88,1.09,-575.7018,-46.7624,333.347,175,75
2026-05-09 15:11:01.031,2,1.97,-4.23,-0.79,-493.2618,-197.92239999999998,421.337,175,75
2026-05-09 15:11:01.042,2,0.8,-4.15,-0.97,-416.5518,177.9276,472.06699999999995,175,75
2026-05-09 15:11:01.055,2,0.94,-4.01,-0.37,-386.79179999999997,322.50759999999997,366.217,175,75
2026-05-09 15:11:01.069,2,0.96,-3.53,0.32,-354.66179999999997,419.82759999999996,285.417,175,75
2026-05-09 15:11:01.079,2,1.11,-3.18,0.79,-335.0318,482.32759999999996,219.137,175,75
2026-05-09 15:11:01.094,2,1.27,-2.89,1.28,-317.4018,512.0176,165.907,175,75
2026-05-09 15:11:01.094,2,1.31,-2.61,1.7,-296.0618,517.1376,130.667,175,75
2026-05-09 15:11:01.120,2,0.87,-1.74,2.2,-220.3918,380.00759999999997,-19.392999999999997,175,75
2026-05-09 15:11:01.148,2,1.25,-0.93,2.39,-217.5318,100.1276,-71.473,175,75
2026-05-09 15:11:01.159,2,0.81,-0.6,2.18,-218.4418,77.01759999999999,-79.273,175,75
2026-05-09 15:11:01.159,2,0.58,-0.27,2.01,-216.5518,111.2876,-101.533,175,75
2026-05-09 15:11:01.181,2,0.56,0.42,2.15,-209.8418,249.6376,-122.993,175,75
2026-05-09 15:11:01.208,2,0.47,0.77,2.37,-207.1618,314.57759999999996,-149.513,175,75
2026-05-09 15:11:01.208,2,0.25,1.05,2.43,-171.18179999999998,377.13759999999996,-203.173,175,75
2026-05-09 15:11:01.218,2,0.0,1.12,2.27,-108.3818,382.32759999999996,-245.923,175,75
2026-05-09 15:11:01.230,2,0.16,1.09,2.06,-24.421799999999998,288.7276,-264.213,175,75
2026-05-09 15:11:01.233,2,0.06,1.01,1.94,41.678200000000004,167.32760000000002,-255.92299999999997,175,75
2026-05-09 15:11:01.241,2,0.36,0.96,2.06,82.10820000000001,115.0676,-185.553,175,75
2026-05-09 15:11:01.284,2,-0.09,1.3,1.6,44.0582,173.9076,25.847,175,75
2026-05-09 15:11:01.284,2,0.26,1.16,1.89,40.1582,171.8976,4.077000000000001,175,75
2026-05-09 15:11:01.295,2,0.23,0.97,2.06,44.5482,211.8976,-8.363,175,75
2026-05-09 15:11:01.308,2,0.46,0.84,2.11,61.7382,237.32760000000002,-15.433,175,75
2026-05-09 15:11:01.321,2,0.49,0.76,2.08,93.44819999999999,211.10760000000002,-27.872999999999998,175,75
2026-05-09 15:11:01.321,2,0.32,0.72,1.96,123.9982,144.1476,-35.433,175,75
2026-05-09 15:11:01.344,2,0.2,0.75,1.89,140.7682,67.86760000000001,-41.592999999999996,175,75
2026-05-09 15:11:01.344,2,-0.0,0.79,1.83,133.2682,36.647600000000004,-41.413,175,75
2026-05-09 15:11:01.373,2,-0.2,0.9,1.61,119.66820000000001,37.6876,-24.273,175,75
2026-05-09 15:11:01.373,2,0.02,0.88,1.6,116.06819999999999,48.7876,0.6070000000000011,175,75
2026-05-09 15:11:01.399,2,1.18,0.52,2.07,106.7382,21.467599999999997,24.627000000000002,175,75
2026-05-09 15:11:01.409,2,-0.41,0.13,2.02,129.4282,292.7476,-42.202999999999996,175,75
2026-05-09 15:11:01.409,2,-0.12,0.21,1.76,152.34820000000002,385.6776,15.297,175,75
2026-05-09 15:11:01.420,2,1.88,0.49,1.98,169.6082,260.7976,25.607000000000003,175,75
2026-05-09 15:11:01.430,2,1.13,1.08,2.54,184.1782,59.8276,105.117,175,75
2026-05-09 15:11:01.430,2,1.28,0.92,2.76,163.3282,-7.492399999999999,155.607,175,75
2026-05-09 15:11:01.471,2,0.89,-0.59,1.99,205.8282,-103.7724,131.15699999999998,175,75
2026-05-09 15:11:01.483,2,1.46,-0.65,1.94,239.2982,-62.0024,114.447,175,75
2026-05-09 15:11:01.493,2,1.55,-0.71,2.01,264.8482,-52.6124,123.407,175,75
2026-05-09 15:11:01.493,2,1.61,-0.85,2.05,279.4882,-24.6924,110.417,175,75
2026-05-09 15:11:01.516,2,1.84,-0.75,2.09,290.8882,-40.7224,95.357,175,75
2026-05-09 15:11:01.527,2,1.97,-0.69,2.11,312.5982,-51.6424,86.827,175,75
2026-05-09 15:11:01.587,2,1.91,-0.89,2.14,354.4882,-45.3024,84.327,175,75
2026-05-09 15:11:01.613,2,1.99,-1.01,2.2,375.5182,-49.0224,77.377,175,75
2026-05-09 15:11:01.613,2,2.2,-1.15,2.3,401.0682,-97.2524,52.187000000000005,175,75
2026-05-09 15:11:01.624,2,2.44,-1.45,2.21,419.9082,-177.92239999999998,-11.102999999999998,175,75
2026-05-09 15:11:01.634,2,2.49,-1.57,2.07,426.1282,-204.6324,-44.823,175,75
2026-05-09 15:11:01.658,2,2.66,-1.66,1.69,461.5582,-240.9124,-122.503,175,75
2026-05-09 15:11:01.672,2,2.69,-1.78,1.49,489.2982,-241.2724,-165.003,175,75
2026-05-09 15:11:01.672,2,2.66,-2.1,1.35,516.5581999999999,-219.4424,-210.923,175,75
2026-05-09 15:11:01.683,2,2.28,-2.76,1.4,539.5482,-132.1924,-258.423,175,75
2026-05-09 15:11:01.694,2,2.01,-3.71,1.45,547.8382,-17.4924,-290.613,175,75
2026-05-09 15:11:01.700,2,2.08,-4.3,1.32,531.2582,12.387599999999999,-290.923,175,75
2026-05-09 15:11:01.712,2,1.99,-3.25,1.07,526.0082,-86.1524,-288.783,175,75
2026-05-09 15:11:01.725,2,1.96,-2.5,0.93,541.7382,-115.54239999999999,-292.26300000000003,175,75
2026-05-09 15:11:01.725,2,1.88,-2.11,0.85,560.2782,-94.44239999999999,-280.49300000000005,175,75
2026-05-09 15:11:01.747,2,1.37,-2.13,0.99,574.3582,10.067600000000002,-243.903,175,75
2026-05-09 15:11:01.765,2,1.43,-1.97,1.17,567.9582,-3.412399999999999,-224.033,175,75
2026-05-09 15:11:01.776,2,1.45,-1.77,1.25,554.6682,-70.85239999999999,-208.233,175,75
2026-05-09 15:11:01.787,2,1.22,-1.64,1.17,528.7582,-146.1524,-211.533,175,75
2026-05-09 15:11:01.799,2,0.99,-1.44,0.83,467.0482,-218.4124,-226.22299999999998,175,75
2026-05-09 15:11:01.810,2,0.83,-1.23,0.63,434.3582,-252.92239999999998,-236.713,175,75
2026-05-09 15:11:01.821,2,0.51,-1.04,0.39,399.1182,-294.6324,-253.91299999999998,175,75
2026-05-09 15:11:01.831,2,-0.1,-0.6,-0.17,323.3282,-271.2124,-338.173,175,75
2026-05-09 15:11:01.866,2,0.16,0.03,-0.34,316.0082,-21.1524,-293.843,175,75
2026-05-09 15:11:01.913,2,-0.08,-0.0,0.36,292.95820000000003,117.13759999999999,-148.423,175,75
2026-05-09 15:11:01.946,2,-1.25,0.19,0.43,177.59820000000002,39.2176,-206.533,175,75
2026-05-09 15:11:01.966,2,-1.24,0.31,0.37,166.4382,80.9176,-202.623,175,75
2026-05-09 15:11:01.967,2,-1.24,0.41,0.31,165.7082,84.6976,-188.233,175,75
2026-05-09 15:11:01.982,2,-1.38,0.51,0.36,157.53820000000002,90.73760000000001,-181.953,175,75
2026-05-09 15:11:01.991,2,-1.44,0.61,0.46,132.1082,126.16760000000002,-186.043,175,75
2026-05-09 15:11:02.003,2,-1.39,0.68,0.57,93.50819999999999,170.2476,-194.213,175,75
2026-05-09 15:11:02.026,2,-1.3,0.66,0.8,-8.6218,256.3476,-192.753,175,75
2026-05-09 15:11:02.043,2,-1.07,0.67,0.91,-76.7918,294.94759999999997,-150.863,175,75
2026-05-09 15:11:02.055,2,-0.82,0.78,0.98,-128.6218,309.88759999999996,-57.693,175,75
2026-05-09 15:11:02.079,2,-0.54,0.81,1.15,-215.7618,205.1876,188.107,175,75
2026-05-09 15:11:02.111,2,-0.21,0.45,1.2,-279.35179999999997,86.7776,334.56699999999995,175,75
2026-05-09 15:11:02.123,2,-0.11,0.12,1.13,-347.7118,61.897600000000004,475.54699999999997,175,75
2026-05-09 15:11:02.133,2,-0.08,0.05,1.03,-367.7718,63.3576,555.177,175,75
2026-05-09 15:11:02.153,2,0.14,-0.31,1.12,-360.5118,144.57760000000002,519.9970000000001,175,75
2026-05-09 15:11:02.198,2,1.82,-3.16,0.82,-370.2718,34.6376,550.967,175,75
2026-05-09 15:11:02.243,2,0.56,-4.85,-2.18,-416.79179999999997,-421.5824,655.907,175,75
2026-05-09 15:11:02.265,2,1.39,-5.57,-3.47,-378.9318,-338.6524,617.3770000000001,175,75
2026-05-09 15:11:02.265,2,1.75,-5.15,-3.79,-289.2318,-213.6524,767.2470000000001,175,75
2026-05-09 15:11:02.287,2,0.11,-5.75,-3.67,-347.5318,178.60760000000002,736.517,175,75
2026-05-09 15:11:02.308,2,0.24,-5.6,-3.23,-387.4018,341.64759999999995,678.347,175,75
2026-05-09 15:11:02.332,2,-0.22,-4.03,-0.42,-281.85179999999997,875.5576,444.74699999999996,175,75
2026-05-09 15:11:02.356,2,0.08,-3.69,0.53,-207.5918,936.4676,349.80699999999996,175,75
2026-05-09 15:11:02.368,2,0.09,-3.69,1.31,-137.77179999999998,914.4576,278.167,175,75
2026-05-09 15:11:02.375,2,0.11,-3.79,2.07,-86.98179999999999,822.6276,162.797,175,75
2026-05-09 15:11:02.407,2,0.79,-2.57,2.51,-356.7318,-40.9124,-149.703,175,75
2026-05-09 15:11:02.423,2,0.75,-1.87,1.86,-402.4018,-117.13239999999999,-150.673,175,75
2026-05-09 15:11:02.448,2,-0.08,-0.79,1.83,-313.0118,88.4176,-117.993,175,75
2026-05-09 15:11:02.448,2,0.16,-0.38,1.99,-246.79179999999997,218.7276,-112.203,175,75
2026-05-09 15:11:02.460,2,-0.37,0.02,2.47,-191.6718,291.5276,-85.733,175,75
2026-05-09 15:11:02.495,2,-1.41,1.22,3.66,-70.33179999999999,590.5576,-303.483,175,75
2026-05-09 15:11:02.514,2,-1.18,1.35,3.73,56.4982,364.14759999999995,-369.213,175,75
2026-05-09 15:11:02.526,2,-1.0,1.16,3.69,161.5582,155.5576,-368.723,175,75
2026-05-09 15:11:02.526,2,-0.88,0.93,3.5,238.50820000000002,11.287600000000001,-329.033,175,75
2026-05-09 15:11:02.539,2,-0.32,0.71,3.58,235.9482,13.177600000000002,-213.303,175,75
2026-05-09 15:11:02.557,2,-1.11,1.24,3.12,115.88820000000001,140.6776,43.957,175,75
2026-05-09 15:11:02.568,2,-1.66,1.17,2.81,55.5182,151.7776,78.047,175,75
2026-05-09 15:11:02.575,2,1.73,1.02,3.37,30.3982,78.29759999999999,79.627,175,75
2026-05-09 15:11:02.610,2,-0.06,0.63,2.65,92.10820000000001,-98.89240000000001,131.827,175,75
2026-05-09 15:11:02.620,2,0.13,0.66,2.37,131.2482,-231.0924,153.467,175,75
2026-05-09 15:11:02.630,2,0.44,0.58,2.28,166.06820000000002,-279.4424,162.497,175,75
2026-05-09 15:11:02.644,2,0.75,0.34,2.2,192.6582,-222.4924,167.247,175,75
2026-05-09 15:11:02.655,2,1.0,0.1,2.11,206.9882,-164.08239999999998,187.067,175,75
2026-05-09 15:11:02.688,2,0.76,-0.25,1.77,237.28820000000002,-27.8624,241.827,175,75
2026-05-09 15:11:02.701,2,-0.4,-0.94,1.27,255.5782,127.5076,-49.643,175,75
2026-05-09 15:11:02.724,2,0.65,-1.83,1.15,335.7682,43.2976,-268.30300000000005,175,75
2026-05-09 15:11:02.724,2,7.89,-1.07,2.59,443.8182,-314.93240000000003,-201.893,175,75
2026-05-09 15:11:02.735,2,3.82,-0.29,1.83,414.6682,-159.3224,175.297,175,75
2026-05-09 15:11:02.763,2,3.04,-2.55,0.93,433.3282,-270.54240000000004,-83.423,175,75
2026-05-09 15:11:02.763,2,3.48,-3.05,0.37,432.7182,-330.11240000000004,-157.813,175,75
2026-05-09 15:11:02.775,2,4.01,-3.15,-0.56,386.1882,-425.54240000000004,-235.493,175,75
2026-05-09 15:11:02.787,2,3.98,-2.92,-1.12,365.0982,-492.0024,-269.033,175,75
2026-05-09 15:11:02.810,2,3.04,-2.81,-1.45,350.33820000000003,-481.2724,-326.103,175,75
2026-05-09 15:11:02.821,2,2.36,-2.78,-2.0,320.70820000000003,-305.30240000000003,-403.173,175,75
2026-05-09 15:11:02.832,2,2.07,-2.78,-2.12,299.3582,-133.8324,-433.483,175,75
2026-05-09 15:11:02.832,2,2.16,-2.58,-1.72,299.1782,34.8876,-476.043,175,75
2026-05-09 15:11:02.855,2,2.23,-2.72,-1.12,324.1782,74.6976,-501.593,175,75
2026-05-09 15:11:02.867,2,2.15,-3.1,-0.57,329.1782,32.507600000000004,-509.883,175,75
2026-05-09 15:11:02.888,2,1.87,-3.06,-0.43,330.2782,-15.2424,-510.55300000000005,175,75
2026-05-09 15:11:02.900,2,1.24,-2.42,-0.09,342.2282,-49.6324,-500.19300000000004,175,75
2026-05-09 15:11:02.911,2,1.02,-2.19,0.08,349.0582,-27.6724,-480.55300000000005,175,75
2026-05-09 15:11:02.933,2,0.73,-1.92,0.29,358.9382,-17.4924,-446.593,175,75
2026-05-09 15:11:02.933,2,0.54,-1.61,0.52,372.7782,-27.8624,-415.19300000000004,175,75
2026-05-09 15:11:02.948,2,0.47,-1.36,0.68,375.39820000000003,-45.9124,-391.95300000000003,175,75
2026-05-09 15:11:02.969,2,0.18,-0.94,0.74,361.3782,-143.2824,-357.32300000000004,175,75
2026-05-09 15:11:02.983,2,0.09,-0.73,0.71,339.4282,-169.9924,-344.093,175,75
2026-05-09 15:11:02.996,2,-0.15,-0.44,0.65,308.2682,-139.9324,-317.99300000000005,175,75
2026-05-09 15:11:03.016,2,-0.28,-0.31,0.6,305.8882,-95.66239999999999,-303.843,175,75
2026-05-09 15:11:03.016,2,-0.36,-0.25,0.55,300.45820000000003,-78.5324,-294.64300000000003,175,75
2026-05-09 15:11:03.048,2,-0.49,-0.04,0.47,268.8782,-89.44239999999999,-285.31300000000005,175,75
2026-05-09 15:11:03.048,2,-0.52,0.02,0.47,243.8782,-78.5924,-280.983,175,75
2026-05-09 15:11:03.075,2,-0.53,0.08,0.39,191.6782,8.537600000000001,-245.493,175,75
2026-05-09 15:11:03.086,2,-0.51,0.11,0.39,186.00820000000002,56.5276,-229.583,175,75
2026-05-09 15:11:03.097,2,-0.37,0.16,0.46,190.8882,94.39760000000001,-211.47299999999998,175,75
2026-05-09 15:11:03.108,2,-0.26,0.22,0.59,194.6682,113.8476,-186.043,175,75
2026-05-09 15:11:03.116,2,-0.19,0.27,0.72,190.3382,114.88759999999999,-159.943,175,75
2026-05-09 15:11:03.127,2,-0.2,0.33,0.78,179.6682,95.55760000000001,-147.263,175,75
2026-05-09 15:11:03.148,2,-0.26,0.42,0.77,161.7382,55.9776,-142.933,175,75
2026-05-09 15:11:03.182,2,-0.42,0.54,0.62,119.60820000000001,-16.8824,-157.563,175,75
2026-05-09 15:11:03.182,2,-0.44,0.57,0.58,105.4582,-17.9224,-163.603,175,75
2026-05-09 15:11:03.194,2,-0.46,0.7,0.58,107.53819999999999,10.247600000000002,-161.953,175,75
2026-05-09 15:11:03.194,2,-0.34,0.75,0.51,122.10820000000001,33.9676,-149.703,175,75
2026-05-09 15:11:03.205,2,-0.33,0.79,0.52,130.6482,58.4776,-126.893,175,75
2026-05-09 15:11:03.244,2,-0.3,0.84,0.7,47.718199999999996,174.1476,-95.983,175,75
2026-05-09 15:11:03.256,2,-0.25,0.91,0.74,35.0982,196.2276,-86.893,175,75
2026-05-09 15:11:03.281,2,-0.08,1.0,0.86,38.6282,178.35760000000002,-65.123,175,75
2026-05-09 15:11:03.291,2,0.02,1.01,0.89,35.3982,144.2176,-59.033,175,75
2026-05-09 15:11:03.302,2,0.11,1.05,0.87,25.888199999999998,93.23760000000001,-50.433,175,75
2026-05-09 15:11:03.355,2,0.05,1.28,0.36,-13.4418,-17.4924,76.277,175,75
2026-05-09 15:11:03.356,2,0.03,1.24,0.3,-19.291800000000002,22.327600000000004,136.217,175,75
2026-05-09 15:11:03.404,2,-0.42,1.18,0.14,-93.5618,408.1776,132.677,175,75
2026-05-09 15:11:03.415,2,0.0,1.19,0.11,-114.90180000000001,414.88759999999996,185.727,175,75
2026-05-09 15:11:03.427,2,0.26,0.65,0.46,-207.40179999999998,397.6276,333.407,175,75
2026-05-09 15:11:03.439,2,0.69,-0.19,0.37,-244.90179999999998,438.1176,324.387,175,75
2026-05-09 15:11:03.450,2,1.18,-0.62,0.23,-271.6718,368.4176,347.73699999999997,175,75
2026-05-09 15:11:03.460,2,1.84,-1.06,0.12,-309.54179999999997,228.4776,402.61699999999996,175,75
2026-05-09 15:11:03.473,2,1.94,-1.19,-0.01,-351.6718,35.0676,458.227,175,75
2026-05-09 15:11:03.502,2,1.68,-1.15,-0.16,-375.0918,-73.7124,522.437,175,75
2026-05-09 15:11:03.512,2,1.16,-1.27,-0.43,-379.7818,-116.0324,572.2470000000001,175,75
2026-05-09 15:11:03.512,2,0.97,-1.61,-0.75,-378.1418,-133.0424,571.767,175,75
2026-05-09 15:11:03.524,2,1.05,-2.21,-1.15,-379.7818,-158.7724,541.697,175,75
2026-05-09 15:11:03.534,2,1.29,-2.75,-1.48,-380.9418,-143.0424,528.897,175,75
2026-05-09 15:11:03.547,2,1.23,-2.8,-1.66,-366.0618,-35.422399999999996,549.077,175,75
2026-05-09 15:11:03.547,2,1.47,-2.84,-1.52,-353.0718,49.4576,532.557,175,75
2026-05-09 15:11:03.569,2,1.9,-3.1,-1.08,-344.4818,104.33760000000001,513.467,175,75
2026-05-09 15:11:03.569,2,1.92,-3.44,-0.68,-353.1418,115.79759999999999,493.837,175,75
2026-05-09 15:11:03.581,2,1.83,-3.84,-0.35,-379.1118,95.61760000000001,460.29699999999997,175,75
2026-05-09 15:11:03.602,2,1.56,-3.93,-0.17,-424.7218,26.107599999999998,368.167,175,75
2026-05-09 15:11:03.602,2,1.44,-3.56,-0.23,-426.4318,63.3576,329.80699999999996,175,75
2026-05-09 15:11:03.624,2,1.09,-2.9,0.14,-370.6418,354.57759999999996,268.407,175,75
2026-05-09 15:11:03.638,2,0.96,-2.76,0.73,-334.0518,473.9076,212.377,175,75
2026-05-09 15:11:03.651,2,1.03,-2.48,1.35,-278.0718,606.6476,173.597,175,75
2026-05-09 15:11:03.673,2,0.93,-2.1,1.77,-228.0118,678.5376,146.457,175,75
2026-05-09 15:11:03.684,2,0.52,-1.44,2.16,-146.43179999999998,699.5176,51.947,175,75
2026-05-09 15:11:03.696,2,1.42,-0.97,2.61,-91.98179999999999,495.4276,-35.673,175,75
2026-05-09 15:11:03.706,2,0.16,-0.32,2.74,-69.2918,262.8076,-28.423000000000002,175,75
2026-05-09 15:11:03.767,2,-0.31,0.99,1.89,-141.9818,112.80760000000001,-206.893,175,75
2026-05-09 15:11:03.778,2,-0.21,1.38,1.49,-27.461800000000004,102.1976,-273.233,175,75
2026-05-09 15:11:03.789,2,0.11,1.44,1.33,63.5082,28.4176,-287.01300000000003,175,75
2026-05-09 15:11:03.802,2,1.08,1.52,1.49,95.94819999999999,-10.9124,-59.583,175,75
2026-05-09 15:11:03.813,2,-0.02,1.69,1.33,96.6782,1.5876000000000001,30.547,175,75
2026-05-09 15:11:03.813,2,-0.49,1.53,1.25,93.9382,16.1076,31.397000000000002,175,75
2026-05-09 15:11:03.824,2,-0.31,1.11,1.42,57.5982,70.30760000000001,38.527,175,75
2026-05-09 15:11:03.840,2,-0.18,0.9,1.6,7.108199999999999,156.0376,81.697,175,75
2026-05-09 15:11:03.851,2,1.5,1.03,1.99,-19.7218,115.61760000000001,74.267,175,75
2026-05-09 15:11:03.862,2,-0.17,0.9,2.08,4.9681999999999995,117.01759999999999,35.237,175,75
2026-05-09 15:11:03.873,2,0.63,0.82,2.23,38.3882,120.1276,0.11700000000000088,175,75
2026-05-09 15:11:03.898,2,0.58,0.75,2.13,70.09819999999999,37.077600000000004,-35.923,175,75
2026-05-09 15:11:03.916,2,0.45,0.75,1.96,88.44819999999999,-29.6324,-62.443,175,75
2026-05-09 15:11:03.930,2,0.08,1.11,1.55,101.00819999999999,61.7176,-13.843,175,75
2026-05-09 15:11:03.953,2,1.54,0.49,2.13,109.60820000000001,140.1276,1.3970000000000011,175,75
2026-05-09 15:11:03.970,2,0.93,-0.32,1.98,154.6082,588.1175999999999,1.887000000000001,175,75
2026-05-09 15:11:03.996,2,1.05,0.61,2.75,165.7082,318.7276,126.577,175,75
2026-05-09 15:11:04.012,2,1.54,0.06,2.77,179.9082,193.7876,181.27700000000002,175,75
2026-05-09 15:11:04.025,2,1.66,-0.23,2.85,182.1082,108.35759999999999,199.627,175,75
2026-05-09 15:11:04.037,2,1.65,-0.36,2.91,202.8982,30.007600000000004,218.287,175,75
2026-05-09 15:11:04.047,2,1.55,-0.85,3.01,286.7982,-116.76239999999999,203.467,175,75
2026-05-09 15:11:04.055,2,1.56,-1.14,3.02,294.0582,-151.58239999999998,185.847,175,75
2026-05-09 15:11:04.068,2,1.61,-1.35,2.8,284.9082,-183.5324,162.307,175,75
2026-05-09 15:11:04.079,2,1.71,-1.39,2.54,284.1782,-204.3824,138.347,175,75
2026-05-09 15:11:04.122,2,2.13,-1.36,2.07,413.9982,-79.7524,113.287,175,75
2026-05-09 15:11:04.122,2,2.13,-1.45,2.11,422.7782,-84.0824,102.437,175,75
2026-05-09 15:11:04.149,2,2.03,-1.72,2.03,454.4282,-154.0224,44.387,175,75
2026-05-09 15:11:04.181,2,2.02,-1.94,1.69,488.8782,-246.4624,-107.873,175,75
2026-05-09 15:11:04.195,2,1.88,-2.22,1.49,494.6682,-238.6524,-160.673,175,75
2026-05-09 15:11:04.207,2,1.67,-2.65,1.31,502.4682,-200.5424,-195.193,175,75
2026-05-09 15:11:04.219,2,1.66,-3.11,1.1,501.1882,-144.5024,-212.203,175,75
2026-05-09 15:11:04.231,2,1.72,-3.0,1.01,492.4682,-146.0324,-211.833,175,75
2026-05-09 15:11:04.242,2,1.74,-2.66,0.9,486.2582,-154.4424,-210.613,175,75
2026-05-09 15:11:04.253,2,1.61,-2.24,0.78,487.7182,-156.58239999999998,-209.643,175,75
2026-05-09 15:11:04.278,2,1.11,-1.91,0.72,494.1782,-108.6524,-222.753,175,75
2026-05-09 15:11:04.289,2,1.0,-1.81,0.76,486.1282,-91.94239999999999,-229.333,175,75
2026-05-09 15:11:04.289,2,1.02,-1.64,0.81,473.3882,-90.60239999999999,-235.613,175,75
2026-05-09 15:11:04.301,2,1.04,-1.43,0.8,455.1582,-113.7724,-236.833,175,75
2026-05-09 15:11:04.325,2,0.86,-1.1,0.57,405.70820000000003,-181.8224,-240.733,175,75
2026-05-09 15:11:04.339,2,0.65,-0.92,0.41,374.2382,-237.1324,-253.72299999999998,175,75
2026-05-09 15:11:04.349,2,0.34,-0.75,0.23,343.0182,-261.3324,-276.593,175,75
2026-05-09 15:11:04.358,2,0.12,-0.54,0.04,312.5982,-250.8524,-299.39300000000003,175,75
2026-05-09 15:11:04.389,2,0.02,0.01,-0.28,278.6282,-131.2724,-297.69300000000004,175,75
2026-05-09 15:11:04.389,2,-0.01,0.24,-0.33,279.1182,-19.1424,-268.30300000000005,175,75
2026-05-09 15:11:04.400,2,-0.07,0.36,-0.29,279.7282,81.3476,-243.423,175,75
2026-05-09 15:11:04.410,2,0.05,0.4,-0.11,277.6582,166.8376,-219.393,175,75
2026-05-09 15:11:04.448,2,-0.07,0.46,0.35,264.6682,155.6176,-148.663,175,75
2026-05-09 15:11:04.487,2,-0.89,0.45,0.14,214.4882,11.227600000000002,-146.593,175,75
2026-05-09 15:11:04.510,2,-0.93,0.37,0.22,141.4982,75.61760000000001,-147.873,175,75
2026-05-09 15:11:04.520,2,-0.87,0.43,0.23,84.1182,167.9976,-124.213,175,75
2026-05-09 15:11:04.520,2,-0.86,0.57,0.26,42.048199999999994,269.75759999999997,-73.843,175,75
2026-05-09 15:11:04.533,2,-0.93,0.62,0.32,20.0382,334.08759999999995,-40.123,175,75
2026-05-09 15:11:04.561,2,-0.85,0.46,0.65,-48.1418,362.8076,25.237000000000002,175,75
2026-05-09 15:11:04.575,2,-0.68,0.42,0.87,-129.1118,329.63759999999996,84.197,175,75
2026-05-09 15:11:04.597,2,-0.6,0.38,1.02,-180.21179999999998,308.1176,119.56700000000001,175,75
2026-05-09 15:11:04.627,2,0.39,0.06,1.28,-294.35179999999997,268.2376,169.997,175,75
2026-05-09 15:11:04.639,2,0.35,-0.03,1.18,-311.79179999999997,183.1176,95.117,175,75
2026-05-09 15:11:04.651,2,0.38,-0.07,1.19,-343.6218,34.827600000000004,138.167,175,75
2026-05-09 15:11:04.663,2,0.9,-0.34,1.29,-420.2118,-134.5024,217.187,175,75
2026-05-09 15:11:04.687,2,0.65,-0.57,1.17,-468.8118,-145.3024,286.277,175,75
2026-05-09 15:11:04.699,2,0.54,-0.86,0.86,-497.4018,-83.8324,352.30699999999996,175,75
2026-05-09 15:11:04.713,2,0.45,-1.25,0.66,-509.42179999999996,-29.4424,410.17699999999996,175,75
2026-05-09 15:11:04.713,2,0.71,-1.73,0.29,-515.8818,-23.772399999999998,441.94699999999995,175,75
2026-05-09 15:11:04.727,2,0.73,-2.15,0.13,-511.8518,-40.7224,463.657,175,75
2026-05-09 15:11:04.737,2,0.99,-2.84,-0.08,-492.8318,-37.9824,500.60699999999997,175,75
2026-05-09 15:11:04.758,2,1.5,-3.56,-0.18,-472.4018,-15.8524,562.9870000000001,175,75
2026-05-09 15:11:04.761,2,1.7,-3.92,-0.21,-468.9918,6.717600000000001,640.297,175,75
2026-05-09 15:11:04.785,2,1.5,-4.17,-0.31,-490.5718,24.6976,720.6070000000001,175,75
2026-05-09 15:11:04.785,2,1.13,-4.53,-0.56,-517.7718,24.4576,765.847,175,75
2026-05-09 15:11:04.816,2,0.56,-5.33,-1.02,-516.6718,27.6276,772.2470000000001,175,75
2026-05-09 15:11:04.830,2,0.2,-6.92,-1.28,-444.1118,137.9276,579.9970000000001,175,75
2026-05-09 15:11:04.840,2,0.91,-6.71,-0.79,-432.2218,187.7476,443.777,175,75
2026-05-09 15:11:04.867,2,0.53,-4.64,0.13,-407.7118,503.7876,364.327,175,75
2026-05-09 15:11:04.882,2,0.61,-3.85,0.61,-335.5118,579.7576,309.137,175,75
2026-05-09 15:11:04.893,2,0.6,-3.4,1.19,-266.3118,608.4775999999999,265.417,175,75
2026-05-09 15:11:04.903,2,0.58,-3.18,1.89,-218.8118,601.6476,205.487,175,75
2026-05-09 15:11:04.917,2,0.71,-3.03,2.5,-219.5418,414.75759999999997,83.777,175,75
2026-05-09 15:11:04.931,2,0.67,-2.93,3.02,-287.5318,171.8376,-0.9229999999999992,175,75
2026-05-09 15:11:04.931,2,0.79,-2.54,2.81,-348.6218,58.7276,-31.412999999999997,175,75
2026-05-09 15:11:04.942,2,0.66,-1.99,2.4,-377.5918,16.7176,-42.323,175,75
2026-05-09 15:11:04.954,2,0.25,-1.34,2.08,-370.8218,53.2376,-44.702999999999996,175,75
2026-05-09 15:11:04.977,2,0.12,0.1,2.47,-243.8718,310.9176,-69.943,175,75
2026-05-09 15:11:04.997,2,-0.65,0.93,3.06,-215.3918,323.6076,-111.473,175,75
2026-05-09 15:11:05.010,2,-0.71,1.24,2.93,-181.0618,297.56759999999997,-199.333,175,75
2026-05-09 15:11:05.024,2,-0.87,1.17,2.84,-143.7518,233.9076,-257.44300000000004,175,75
2026-05-09 15:11:05.029,2,-0.82,0.9,3.04,-93.0118,176.5876,-275.733,175,75
2026-05-09 15:11:05.041,2,-0.78,0.75,3.27,-64.42179999999999,188.5376,-244.823,175,75
2026-05-09 15:11:05.059,2,-0.67,0.82,3.43,-36.1218,211.8376,-184.823,175,75
2026-05-09 15:11:05.074,2,-0.27,1.06,3.52,-6.061800000000002,110.79759999999999,-72.143,175,75
2026-05-09 15:11:05.105,2,-0.24,1.22,2.95,-13.681800000000003,-65.4224,86.09700000000001,175,75
2026-05-09 15:11:05.117,2,-0.22,1.04,2.77,-12.1618,-81.0324,100.84700000000001,175,75
2026-05-09 15:11:05.127,2,-0.12,0.91,2.59,-0.8818000000000001,-25.0524,115.057,175,75
2026-05-09 15:11:05.139,2,0.08,0.87,2.49,17.1682,35.1276,116.517,175,75
2026-05-09 15:11:05.152,2,0.3,0.82,2.44,47.538199999999996,84.14760000000001,111.45700000000001,175,75
2026-05-09 15:11:05.163,2,0.66,0.73,2.47,85.4582,105.2476,102.307,175,75
2026-05-09 15:11:05.163,2,0.58,0.64,2.49,117.9582,126.16760000000002,103.227,175,75
2026-05-09 15:11:05.182,2,0.82,0.56,2.46,155.8882,112.6276,101.397,175,75
2026-05-09 15:11:05.207,2,0.46,0.39,2.43,183.2082,71.89760000000001,108.777,175,75
2026-05-09 15:11:05.219,2,0.18,0.12,2.24,184.1182,104.7576,152.677,175,75
2026-05-09 15:11:05.234,2,1.77,-0.7,2.72,177.34820000000002,-114.57239999999999,350.417,175,75
2026-05-09 15:11:05.242,2,1.36,-1.59,2.89,217.4082,-106.70240000000001,265.417,175,75
2026-05-09 15:11:05.256,2,2.11,-1.55,1.91,255.3982,-3.712399999999999,72.247,175,75
2026-05-09 15:11:05.268,2,1.68,-1.62,2.31,348.3882,-350.7224,97.677,175,75
2026-05-09 15:11:05.286,2,2.25,-2.22,1.83,370.45820000000003,-298.5324,-35.803,175,75
2026-05-09 15:11:05.294,2,2.34,-2.84,1.48,357.3482,-334.7524,-143.663,175,75
2026-05-09 15:11:05.312,2,2.62,-3.03,1.0,368.14820000000003,-359.3224,-222.083,175,75
2026-05-09 15:11:05.312,2,2.84,-3.15,0.32,383.0182,-399.0224,-302.93300000000005,175,75
2026-05-09 15:11:05.350,2,2.16,-2.94,-1.11,403.0782,-142.7424,-303.973,175,75
2026-05-09 15:11:05.362,2,2.79,-2.91,-1.25,407.6582,-32.672399999999996,-325.37300000000005,175,75
2026-05-09 15:11:05.372,2,2.97,-2.83,-1.11,418.0182,10.7376,-345.37300000000005,175,75
2026-05-09 15:11:05.408,2,2.75,-2.94,-1.02,390.8282,-83.04239999999999,-444.39300000000003,175,75
2026-05-09 15:11:05.414,2,2.22,-2.83,-0.9,398.5082,-32.8624,-458.783,175,75
2026-05-09 15:11:05.437,2,1.02,-4.29,-0.6,486.7982,-16.5824,-569.823,175,75
2026-05-09 15:11:05.449,2,3.76,-2.13,0.38,393.3882,-87.92240000000001,-535.433,175,75
2026-05-09 15:11:05.466,2,1.14,-0.92,0.08,344.9682,-8.282399999999999,-340.25300000000004,175,75
2026-05-09 15:11:05.491,2,-0.04,-1.19,0.2,380.0382,-90.11240000000001,-301.043,175,75
2026-05-09 15:11:05.514,2,0.6,-0.7,0.73,332.89820000000003,17.997600000000002,-224.643,175,75
2026-05-09 15:11:05.527,2,0.38,-0.6,0.83,329.2982,-34.6924,-222.933,175,75
2026-05-09 15:11:05.566,2,0.07,-0.1,0.82,243.0782,-140.6024,-214.453,175,75
2026-05-09 15:11:05.638,2,-0.47,0.2,0.71,189.6682,102.6276,-184.823,175,75
2026-05-09 15:11:05.653,2,-0.35,0.32,0.89,191.1882,139.88760000000002,-166.403,175,75
2026-05-09 15:11:05.687,2,-0.24,0.42,1.0,171.00820000000002,76.7176,-147.623,175,75
2026-05-09 15:11:05.700,2,-0.27,0.44,0.96,161.1282,47.7476,-142.753,175,75
2026-05-09 15:11:05.710,2,-0.34,0.47,0.91,149.6082,25.367600000000003,-141.47299999999998,175,75
2026-05-09 15:11:05.738,2,-0.36,0.68,0.74,154.1782,18.6076,-138.483,175,75
2026-05-09 15:11:05.762,2,-0.31,0.72,0.7,168.0182,10.7976,-129.583,175,75
2026-05-09 15:11:05.762,2,-0.29,0.75,0.69,174.2982,5.307600000000001,-117.203,175,75
2026-05-09 15:11:05.793,2,-0.28,0.89,0.58,110.1582,25.677599999999998,-75.063,175,75
2026-05-09 15:11:05.824,2,-0.32,1.05,0.47,53.0182,60.007600000000004,-49.153,175,75
2026-05-09 15:11:05.824,2,-0.32,1.12,0.42,47.5982,67.5676,-33.723,175,75
2026-05-09 15:11:05.839,2,-0.32,1.2,0.39,44.3582,72.13759999999999,-16.593,175,75
2026-05-09 15:11:05.850,2,-0.3,1.29,0.33,38.688199999999995,77.6276,6.157000000000001,175,75
2026-05-09 15:11:05.873,2,-0.36,1.26,0.17,-34.961800000000004,163.7876,126.277,175,75
2026-05-09 15:11:05.889,2,-0.35,1.11,0.13,-88.87180000000001,223.8476,167.557,175,75
2026-05-09 15:11:05.899,2,-0.31,0.96,0.15,-126.61179999999999,288.9076,182.497,175,75
2026-05-09 15:11:05.921,2,-0.24,0.86,0.24,-168.2618,368.2976,214.807,175,75
2026-05-09 15:11:05.933,2,-0.1,0.67,0.42,-221.7318,431.4676,272.85699999999997,175,75
2026-05-09 15:11:05.944,2,0.2,0.3,0.64,-287.5918,458.8476,319.62699999999995,175,75
2026-05-09 15:11:05.966,2,0.93,-0.84,0.78,-406.0618,408.9676,357.49699999999996,175,75
2026-05-09 15:11:05.970,2,1.12,-1.32,0.69,-447.8318,332.25759999999997,373.287,175,75
2026-05-09 15:11:05.982,2,1.27,-1.86,0.68,-481.6718,219.2176,406.337,175,75
2026-05-09 15:11:05.993,2,1.32,-2.12,0.66,-513.6218,103.4176,456.027,175,75
2026-05-09 15:11:06.007,2,1.27,-2.24,0.63,-538.0118,25.367600000000003,493.587,175,75
2026-05-09 15:11:06.019,2,1.27,-2.32,0.49,-555.5717999999999,-39.752399999999994,519.447,175,75
2026-05-09 15:11:06.056,2,0.08,-3.5,-1.01,-560.3918,-29.1424,572.437,175,75
2026-05-09 15:11:06.068,2,0.11,-4.21,-1.3,-534.1718,111.1676,547.8570000000001,175,75
2026-05-09 15:11:06.080,2,0.71,-5.07,-1.15,-482.5918,244.9476,512.737,175,75
2026-05-09 15:11:06.096,2,1.5,-5.18,-0.12,-435.7618,358.2976,464.87699999999995,175,75
2026-05-09 15:11:06.109,2,1.69,-5.15,0.27,-459.4218,370.2476,439.017,175,75
2026-05-09 15:11:06.154,2,0.45,-3.94,0.67,-433.7418,463.1776,270.35699999999997,175,75
2026-05-09 15:11:06.179,2,0.3,-2.22,1.89,-241.9218,561.7776,9.017000000000001,175,75
2026-05-09 15:11:06.193,2,0.36,-1.87,2.17,-187.1018,522.0776,-62.813,175,75
2026-05-09 15:11:06.207,2,0.72,-1.7,2.61,-148.8118,420.7976,-140.373,175,75
2026-05-09 15:11:06.217,2,1.82,-1.27,2.93,-161.0618,217.7476,-76.65299999999999,175,75
2026-05-09 15:11:06.228,2,0.65,-0.99,2.65,-168.0718,197.32760000000002,-70.863,175,75
2026-05-09 15:11:06.239,2,0.39,-0.85,2.32,-179.6618,210.1276,-121.283,175,75
2026-05-09 15:11:06.257,2,0.27,-0.6,2.18,-171.7318,199.3976,-141.653,175,75
2026-05-09 15:11:06.268,2,0.07,0.02,2.14,-98.99180000000001,240.5576,-161.403,175,75
2026-05-09 15:11:06.278,2,0.13,0.21,2.13,-71.92179999999999,242.9276,-158.303,175,75
2026-05-09 15:11:06.290,2,-0.11,0.46,2.25,-80.39179999999999,261.5276,-148.663,175,75
2026-05-09 15:11:06.301,2,-0.21,0.73,2.37,-87.65180000000001,308.8476,-152.993,175,75
2026-05-09 15:11:06.312,2,-0.29,0.94,2.42,-78.8118,346.58759999999995,-176.773,175,75
2026-05-09 15:11:06.334,2,-0.34,1.0,2.32,-0.5718000000000014,319.63759999999996,-212.813,175,75
2026-05-09 15:11:06.358,2,-0.34,1.02,2.2,97.16820000000001,183.7276,-179.333,175,75
2026-05-09 15:11:06.399,2,-0.27,1.36,2.06,104.2382,128.9676,45.357,175,75
2026-05-09 15:11:06.415,2,0.32,1.22,2.2,99.0582,51.1676,51.577,175,75
2026-05-09 15:11:06.415,2,-0.04,1.01,2.3,100.3982,32.8076,50.547000000000004,175,75
2026-05-09 15:11:06.424,2,0.19,0.8,2.3,109.29820000000001,31.647600000000004,59.627,175,75
2026-05-09 15:11:06.435,2,0.37,0.66,2.22,134.2982,-10.8524,78.657,175,75
2026-05-09 15:11:06.460,2,0.26,0.5,2.07,169.2382,-32.4324,116.157,175,75
2026-05-09 15:11:06.472,2,0.17,0.43,1.93,176.4982,5.677600000000002,130.90699999999998,175,75
2026-05-09 15:11:06.508,2,0.18,-0.31,1.93,209.1782,157.1976,-123.78299999999999,175,75
2026-05-09 15:11:06.518,2,3.16,0.21,2.9,214.9682,184.82760000000002,-17.993,175,75
2026-05-09 15:11:06.558,2,1.06,0.67,2.61,197.4082,301.2276,199.937,175,75
2026-05-09 15:11:06.608,2,1.22,-0.35,2.87,194.9082,0.30760000000000076,196.577,175,75
2026-05-09 15:11:06.608,2,1.31,-0.52,2.61,211.7382,-16.9424,211.887,175,75
2026-05-09 15:11:06.619,2,1.2,-0.72,2.47,228.6882,-108.89240000000001,209.687,175,75
2026-05-09 15:11:06.642,2,1.67,-1.25,2.57,299.6682,-160.11239999999998,162.127,175,75
2026-05-09 15:11:06.655,2,1.77,-1.23,2.48,311.6782,-183.5324,151.767,175,75
2026-05-09 15:11:06.655,2,1.79,-1.18,2.36,337.5382,-200.3024,141.827,175,75
2026-05-09 15:11:06.669,2,1.9,-1.16,2.29,378.2682,-214.8724,128.107,175,75
2026-05-09 15:11:06.697,2,1.86,-1.55,2.16,432.83820000000003,-285.85240000000005,58.467,175,75
2026-05-09 15:11:06.697,2,1.78,-1.77,2.06,443.5082,-305.24240000000003,13.407,175,75
2026-05-09 15:11:06.708,2,1.68,-2.04,1.92,450.2182,-322.1924,-44.513,175,75
2026-05-09 15:11:06.727,2,1.74,-2.27,1.71,456.1282,-340.9724,-102.323,175,75
2026-05-09 15:11:06.737,2,1.76,-2.41,1.49,462.7782,-356.3924,-153.173,175,75
2026-05-09 15:11:06.748,2,1.7,-2.52,1.2,467.89820000000003,-356.2124,-204.883,175,75
2026-05-09 15:11:06.748,2,1.62,-2.55,0.93,468.14820000000003,-343.16240000000005,-245.863,175,75
2026-05-09 15:11:06.774,2,1.36,-2.34,0.5,464.6082,-219.3824,-288.05300000000005,175,75
2026-05-09 15:11:06.780,2,1.36,-2.24,0.39,459.5482,-158.9624,-291.283,175,75
2026-05-09 15:11:06.794,2,1.26,-2.03,0.41,461.5582,-71.94239999999999,-274.39300000000003,175,75
2026-05-09 15:11:06.811,2,1.27,-1.82,0.47,460.2782,-8.7724,-257.32300000000004,175,75
2026-05-09 15:11:06.835,2,1.09,-1.28,0.83,439.8482,-31.1524,-233.72299999999998,175,75
2026-05-09 15:11:06.856,2,0.87,-1.1,0.82,420.1582,-61.5824,-242.383,175,75
2026-05-09 15:11:06.922,2,0.4,-0.19,0.28,324.5482,-120.60239999999999,-283.30300000000005,175,75
2026-05-09 15:11:06.948,2,0.24,0.15,0.08,302.4082,-11.5824,-275.31300000000005,175,75
2026-05-09 15:11:06.953,2,0.22,0.29,0.03,302.0482,46.647600000000004,-256.713,175,75
2026-05-09 15:11:06.971,2,0.17,0.4,0.06,301.1882,94.63759999999999,-237.323,175,75
2026-05-09 15:11:06.983,2,0.18,0.49,0.13,299.6082,125.1276,-220.493,175,75
2026-05-09 15:11:06.989,2,0.2,0.54,0.23,303.2682,137.2576,-204.763,175,75
2026-05-09 15:11:07.001,2,0.19,0.57,0.31,306.4982,134.4576,-190.613,175,75
2026-05-09 15:11:07.008,2,0.18,0.59,0.38,305.0382,118.60760000000002,-176.163,175,75
2026-05-09 15:11:07.025,2,0.14,0.6,0.42,296.4382,95.2476,-167.143,175,75
2026-05-09 15:11:07.025,2,0.08,0.62,0.47,283.7582,73.9076,-161.533,175,75
2026-05-09 15:11:07.057,2,-0.03,0.67,0.48,234.1782,36.5276,-150.673,175,75
2026-05-09 15:11:07.064,2,-0.13,0.7,0.44,214.6082,35.3076,-141.833,175,75
2026-05-09 15:11:07.077,2,-0.22,0.72,0.39,201.1882,40.1276,-130.673,175,75
2026-05-09 15:11:07.088,2,-0.31,0.73,0.35,189.78820000000002,47.8076,-118.363,175,75
2026-05-09 15:11:07.107,2,-0.54,0.79,0.33,161.1882,90.61760000000001,-96.65299999999999,175,75
2026-05-09 15:11:07.118,2,-0.59,0.81,0.35,143.0182,125.67760000000001,-90.923,175,75
2026-05-09 15:11:07.118,2,-0.64,0.83,0.43,116.12819999999999,177.5076,-85.733,175,75
2026-05-09 15:11:07.140,2,-0.56,0.79,0.54,77.04820000000001,239.6976,-76.103,175,75
2026-05-09 15:11:07.150,2,-0.48,0.76,0.6,41.0082,262.19759999999997,-62.753,175,75
2026-05-09 15:11:07.204,2,-0.16,0.77,0.79,-63.6218,174.3976,6.577000000000001,175,75
2026-05-09 15:11:07.219,2,-0.27,1.07,0.8,-94.7218,104.82759999999999,71.397,175,75
2026-05-09 15:11:07.229,2,-0.64,1.13,0.81,-106.18180000000001,123.7876,78.657,175,75
2026-05-09 15:11:07.240,2,-0.72,1.02,0.79,-124.17179999999999,167.4476,94.447,175,75
2026-05-09 15:11:07.252,2,-0.57,0.71,0.7,-187.65179999999998,228.5376,200.237,175,75
2026-05-09 15:11:07.304,2,0.78,-0.69,1.02,-337.6518,297.32759999999996,337.49699999999996,175,75
2026-05-09 15:11:07.322,2,1.22,-1.04,1.37,-412.9518,259.57759999999996,430.967,175,75
2026-05-09 15:11:07.350,2,1.13,-2.19,0.95,-450.8218,-262.9824,577.2470000000001,175,75
2026-05-09 15:11:07.360,2,0.85,-2.84,0.75,-441.9218,-467.86240000000004,596.8870000000001,175,75
2026-05-09 15:11:07.380,2,0.78,-3.41,0.2,-438.6818,-544.5724,591.947,175,75
2026-05-09 15:11:07.439,2,1.26,-5.56,-3.4,-279.54179999999997,-2.612399999999999,690.177,175,75
2026-05-09 15:11:07.450,2,0.99,-5.19,-3.39,-311.1818,96.0376,617.1270000000001,175,75
2026-05-09 15:11:07.463,2,0.48,-4.53,-3.17,-361.9218,290.3676,555.297,175,75
2026-05-09 15:11:07.473,2,-0.06,-3.92,-2.43,-364.29179999999997,571.3475999999999,454.327,175,75
2026-05-09 15:11:07.486,2,-0.07,-3.94,-1.07,-313.9318,784.8276,337.98699999999997,175,75
2026-05-09 15:11:07.499,2,0.23,-4.12,-0.16,-283.3218,911.3475999999999,285.847,175,75
2026-05-09 15:11:07.524,2,0.16,-3.12,1.47,-140.27179999999998,873.9676,98.527,175,75
2026-05-09 15:11:07.537,2,0.42,-2.88,2.58,-55.7618,692.5676,-95.063,175,75
2026-05-09 15:11:07.542,2,0.89,-2.95,3.58,-107.5918,403.2376,-228.72299999999998,175,75
2026-05-09 15:11:07.557,2,2.77,-2.44,4.05,-223.8718,158.60760000000002,-238.363,175,75
2026-05-09 15:11:07.576,2,0.57,-1.42,3.09,-334.1718,-31.092399999999998,-129.703,175,75
2026-05-09 15:11:07.590,2,-0.3,-1.31,2.12,-371.9818,-110.9724,-209.453,175,75
2026-05-09 15:11:07.601,2,-0.8,-0.97,2.03,-342.2818,-3.532399999999999,-213.543,175,75
2026-05-09 15:11:07.638,2,-1.72,0.31,2.68,-104.7218,495.4276,-275.80300000000005,175,75
2026-05-09 15:11:07.648,2,-2.1,0.98,2.99,-49.2318,575.7976,-315.613,175,75
2026-05-09 15:11:07.666,2,-1.61,1.84,2.77,131.9282,201.2876,-450.863,175,75
2026-05-09 15:11:07.700,2,0.11,1.37,3.14,141.6782,-37.4324,-46.772999999999996,175,75
2026-05-09 15:11:07.700,2,-1.97,1.26,2.31,99.66820000000001,-16.3924,59.077,175,75
2026-05-09 15:11:07.722,2,-1.99,1.0,2.17,89.9682,-27.1924,69.327,175,75
2026-05-09 15:11:07.722,2,-1.43,0.6,2.53,57.0482,58.84760000000001,113.837,175,75
2026-05-09 15:11:07.731,2,-0.48,0.42,2.66,5.338199999999999,186.2876,202.307,175,75
2026-05-09 15:11:07.761,2,-0.39,0.7,2.38,5.948199999999999,82.7476,202.497,175,75
2026-05-09 15:11:07.761,2,-0.12,0.61,2.08,31.618199999999998,-86.4624,183.957,175,75
2026-05-09 15:11:07.777,2,0.01,0.43,2.16,69.7282,-173.9624,176.397,175,75
2026-05-09 15:11:07.810,2,0.38,0.04,2.13,167.9582,-25.4224,163.837,175,75
2026-05-09 15:11:07.821,2,0.53,-0.12,2.16,197.22820000000002,-47.1924,149.387,175,75
2026-05-09 15:11:07.833,2,0.5,-0.4,2.18,215.2782,-79.63239999999999,108.227,175,75
2026-05-09 15:11:07.861,2,1.33,-0.3,2.08,268.7582,-200.11239999999998,16.157,175,75
2026-05-09 15:11:07.877,2,1.52,-0.6,2.01,309.3582,-239.0224,48.587,175,75
2026-05-09 15:11:07.904,2,1.27,-1.3,1.82,330.8882,-215.2424,25.417,175,75
2026-05-09 15:11:07.927,2,1.71,-2.36,1.33,341.2582,-199.14239999999998,-68.843,175,75
2026-05-09 15:11:07.927,2,1.82,-2.54,1.14,375.0982,-193.2224,-105.193,175,75
2026-05-09 15:11:07.937,2,1.85,-2.75,0.84,426.7982,-206.58239999999998,-162.693,175,75
2026-05-09 15:11:07.947,2,2.08,-3.07,0.62,452.95820000000003,-227.5524,-227.623,175,75
2026-05-09 15:11:07.972,2,2.44,-3.48,0.23,476.7982,-257.1324,-317.56300000000005,175,75
2026-05-09 15:11:08.002,2,3.05,-3.97,-0.63,512.2282,-88.41239999999999,-310.00300000000004,175,75
2026-05-09 15:11:08.037,2,3.08,-4.28,-0.78,517.5982,-98.8324,-413.233,175,75
2026-05-09 15:11:08.037,2,2.24,-4.05,-0.76,513.4481999999999,-138.0424,-438.843,175,75
2026-05-09 15:11:08.049,2,3.21,-3.42,-0.28,492.7182,16.407600000000002,-439.333,175,75
2026-05-09 15:11:08.082,2,3.13,-3.64,-0.89,446.1882,-109.8124,-504.39300000000003,175,75
2026-05-09 15:11:08.082,2,1.13,-3.9,-0.46,513.2082,-45.3024,-455.00300000000004,175,75
2026-05-09 15:11:08.103,2,1.45,-3.07,0.78,532.8982,58.6076,-349.093,175,75
2026-05-09 15:11:08.113,2,0.89,-3.05,0.91,514.6082,-68.41239999999999,-340.00300000000004,175,75
2026-05-09 15:11:08.144,2,0.39,-2.32,0.62,418.2682,-149.4424,-348.05300000000005,175,75
2026-05-09 15:11:08.144,2,0.4,-1.87,0.46,393.5682,-158.7124,-325.06300000000005,175,75
2026-05-09 15:11:08.154,2,0.17,-1.53,0.37,383.5682,-147.92239999999998,-298.783,175,75
2026-05-09 15:11:08.166,2,-0.02,-1.26,0.36,385.8882,-118.41239999999999,-276.343,175,75
2026-05-09 15:11:08.215,2,-0.26,-0.97,0.44,346.2582,-98.5924,-237.383,175,75
2026-05-09 15:11:08.381,2,-0.34,0.17,0.77,185.2782,64.2176,-126.16300000000001,175,75
2026-05-09 15:11:08.419,2,-0.35,0.39,0.69,155.09820000000002,-15.8524,-136.773,175,75
2026-05-09 15:11:08.419,2,-0.35,0.54,0.62,166.7982,-38.0424,-136.953,175,75
2026-05-09 15:11:08.470,2,-0.43,0.76,0.52,199.84820000000002,-78.16239999999999,-137.933,175,75
2026-05-09 15:11:08.487,2,-0.31,0.82,0.52,177.34820000000002,-50.5424,-124.333,175,75
2026-05-09 15:11:08.498,2,-0.22,1.14,0.44,26.3782,76.95760000000001,-57.933,175,75
2026-05-09 15:11:08.499,2,-0.21,1.17,0.43,7.348199999999999,120.79760000000002,-55.613,175,75
2026-05-09 15:11:08.576,2,-0.01,1.48,0.37,-4.111800000000001,137.7476,-9.152999999999999,175,75
2026-05-09 15:11:08.588,2,-0.17,1.44,0.24,-52.5318,190.91760000000002,57.797000000000004,175,75
2026-05-09 15:11:08.600,2,-0.32,1.37,0.23,-86.7918,243.8476,89.937,175,75
2026-05-09 15:11:08.611,2,-0.36,1.05,0.39,-164.1118,388.2976,153.467,175,75
2026-05-09 15:11:08.639,2,0.39,0.15,0.75,-306.79179999999997,421.1076,285.417,175,75
2026-05-09 15:11:08.654,2,0.7,-0.54,0.7,-322.2818,398.7876,234.807,175,75
2026-05-09 15:11:08.661,2,0.89,-1.0,0.67,-364.7818,289.08759999999995,281.337,175,75
2026-05-09 15:11:08.672,2,1.04,-1.34,0.64,-408.8118,218.60760000000002,312.85699999999997,175,75
2026-05-09 15:11:08.692,2,1.0,-1.63,0.65,-460.5118,155.9776,347.43699999999995,175,75
2026-05-09 15:11:08.715,2,1.27,-1.98,0.51,-546.6118,4.457600000000001,445.23699999999997,175,75
2026-05-09 15:11:08.726,2,1.25,-1.91,0.31,-543.7418,-109.20240000000001,511.157,175,75
2026-05-09 15:11:08.726,2,0.98,-1.97,0.06,-514.2318,-198.83239999999998,551.087,175,75
2026-05-09 15:11:08.738,2,0.67,-2.16,-0.18,-483.4418,-225.6624,573.897,175,75
2026-05-09 15:11:08.744,2,0.59,-2.54,-0.5,-463.1418,-207.1924,587.0070000000001,175,75
2026-05-09 15:11:08.768,2,0.94,-3.34,-1.06,-445.5118,-117.67240000000001,639.327,175,75
2026-05-09 15:11:08.768,2,0.53,-3.94,-1.32,-415.7018,-8.222399999999999,672.7370000000001,175,75
2026-05-09 15:11:08.776,2,0.42,-4.77,-1.51,-398.3218,71.7176,634.5070000000001,175,75
2026-05-09 15:11:08.787,2,0.47,-5.23,-1.35,-389.29179999999997,149.57760000000002,533.347,175,75
2026-05-09 15:11:08.797,2,0.88,-5.1,-0.9,-388.2018,211.7176,418.897,175,75
2026-05-09 15:11:08.808,2,0.97,-3.95,0.08,-366.6118,400.06759999999997,303.347,175,75
2026-05-09 15:11:08.831,2,0.94,-3.29,0.58,-333.7418,522.2576,251.827,175,75
2026-05-09 15:11:08.831,2,0.94,-2.86,0.97,-290.3318,580.2476,208.467,175,75
2026-05-09 15:11:08.842,2,0.71,-2.22,1.53,-225.8818,601.9576,139.137,175,75
2026-05-09 15:11:08.856,2,0.53,-1.67,1.83,-174.6018,547.1976,63.227000000000004,175,75
2026-05-09 15:11:08.866,2,0.34,-1.19,1.98,-124.96179999999998,414.82759999999996,-28.912999999999997,175,75
2026-05-09 15:11:08.877,2,0.39,-0.82,2.12,-87.2818,211.8376,-127.203,175,75
2026-05-09 15:11:08.888,2,0.79,-0.42,2.01,-128.7518,-29.022399999999998,-93.303,175,75
2026-05-09 15:11:08.921,2,0.31,0.29,1.51,-203.5018,170.85760000000002,-148.783,175,75
2026-05-09 15:11:08.924,2,0.23,0.46,1.57,-183.99179999999998,271.4676,-136.043,175,75
2026-05-09 15:11:08.935,2,0.16,0.7,1.76,-148.6218,390.6776,-132.323,175,75
2026-05-09 15:11:08.961,2,0.16,0.9,1.98,-55.7018,485.6776,-149.393,175,75
2026-05-09 15:11:08.983,2,0.1,0.91,1.94,10.2182,405.1876,-144.273,175,75
2026-05-09 15:11:08.983,2,0.04,0.98,1.9,57.0482,260.8576,-137.933,175,75
2026-05-09 15:11:08.993,2,-0.08,1.04,1.89,83.7482,162.1976,-138.603,175,75
2026-05-09 15:11:09.017,2,0.23,1.05,2.04,65.2782,177.2576,-72.203,175,75
2026-05-09 15:11:09.074,2,-0.03,1.31,1.86,126.2482,151.4676,-47.083,175,75
2026-05-09 15:11:09.087,2,0.64,1.02,2.6,138.1482,54.457600000000006,11.767,175,75
2026-05-09 15:11:09.098,2,0.43,0.37,2.41,110.7082,296.4076,-12.383,175,75
2026-05-09 15:11:09.109,2,0.64,0.76,1.67,108.1482,325.00759999999997,-59.882999999999996,175,75
2026-05-09 15:11:09.120,2,0.85,0.89,1.73,118.87819999999999,222.01760000000002,41.337,175,75
2026-05-09 15:11:09.132,2,0.18,0.83,2.2,147.7182,224.6976,62.187000000000005,175,75
2026-05-09 15:11:09.175,2,1.28,0.32,2.52,168.9982,66.5276,180.057,175,75
2026-05-09 15:11:09.188,2,1.23,0.2,2.43,185.5182,16.407600000000002,181.827,175,75
2026-05-09 15:11:09.198,2,1.41,-0.0,2.49,203.7482,-21.522399999999998,168.717,175,75
2026-05-09 15:11:09.210,2,1.7,-0.27,2.68,223.0782,-63.4124,156.157,175,75
2026-05-09 15:11:09.259,2,1.55,-0.57,2.04,267.2882,-78.41239999999999,100.297,175,75
2026-05-09 15:11:09.269,2,1.79,-0.74,2.05,297.89820000000003,14.947600000000001,109.327,175,75
2026-05-09 15:11:09.296,2,2.09,-0.9,2.29,333.5082,2.9276,128.527,175,75
2026-05-09 15:11:09.296,2,2.13,-0.92,2.4,360.7682,-44.6924,135.487,175,75
2026-05-09 15:11:09.316,2,2.09,-1.0,2.52,404.4282,-115.91239999999999,128.527,175,75
2026-05-09 15:11:09.328,2,2.12,-1.13,2.59,427.0482,-162.98239999999998,109.387,175,75
2026-05-09 15:11:09.338,2,2.17,-1.27,2.49,436.9882,-214.20239999999998,74.877,175,75
2026-05-09 15:11:09.349,2,2.27,-1.4,2.22,450.9482,-265.6624,28.957,175,75
2026-05-09 15:11:09.360,2,2.28,-1.65,1.87,492.5982,-300.42240000000004,-34.213,175,75
2026-05-09 15:11:09.372,2,2.31,-1.96,1.58,535.7082,-295.85240000000005,-73.603,175,75
2026-05-09 15:11:09.372,2,2.24,-2.21,1.38,561.9882,-269.0224,-95.493,175,75
2026-05-09 15:11:09.384,2,2.02,-2.43,1.26,573.2682,-207.4924,-120.673,175,75
2026-05-09 15:11:09.443,2,1.33,-2.16,0.63,486.6782,-244.9924,-250.67299999999997,175,75
2026-05-09 15:11:09.459,2,1.13,-1.79,0.44,458.3282,-239.0224,-266.283,175,75
2026-05-09 15:11:09.463,2,0.98,-1.53,0.31,440.1582,-232.67239999999998,-272.69300000000004,175,75
2026-05-09 15:11:09.476,2,0.63,-1.22,0.08,413.14820000000003,-229.8124,-285.12300000000005,175,75
2026-05-09 15:11:09.490,2,0.23,-0.95,-0.14,382.2282,-210.9124,-311.413,175,75
2026-05-09 15:11:09.502,2,0.12,-0.56,-0.34,354.1782,-160.3024,-325.06300000000005,175,75
2026-05-09 15:11:09.531,2,0.08,0.2,-0.17,324.1782,57.507600000000004,-254.093,175,75
2026-05-09 15:11:09.541,2,0.22,0.29,-0.04,315.33820000000003,92.6276,-226.103,175,75
2026-05-09 15:11:09.580,2,-0.15,0.26,0.16,259.3582,-23.772399999999998,-188.843,175,75
2026-05-09 15:11:09.580,2,-0.37,0.36,0.08,250.6482,-49.2024,-188.233,175,75
2026-05-09 15:11:09.595,2,-0.6,0.45,-0.01,247.4682,-63.2824,-187.013,175,75
2026-05-09 15:11:09.607,2,-0.79,0.53,-0.12,243.0182,-68.5924,-184.453,175,75
2026-05-09 15:11:09.644,2,-0.62,0.91,-0.19,125.4582,46.897600000000004,-133.97299999999998,175,75
2026-05-09 15:11:09.644,2,-0.72,0.98,-0.08,82.59819999999999,133.9676,-98.053,175,75
2026-05-09 15:11:09.660,2,-0.89,0.98,0.05,48.0182,229.1476,-75.673,175,75
2026-05-09 15:11:09.674,2,-0.99,0.86,0.22,12.108199999999998,342.50759999999997,-65.313,175,75
2026-05-09 15:11:09.674,2,-1.06,0.75,0.35,-7.7718000000000025,392.6276,-59.882999999999996,175,75
2026-05-09 15:11:09.686,2,-1.14,0.67,0.52,-28.991799999999998,420.3076,-49.702999999999996,175,75
2026-05-09 15:11:09.708,2,-1.0,0.59,0.65,-53.2018,397.8676,-32.143,175,75
2026-05-09 15:11:09.718,2,-0.84,0.51,0.83,-85.8218,325.5576,3.657000000000001,175,75
2026-05-09 15:11:09.731,2,-0.76,0.4,1.01,-129.5418,251.64759999999998,53.837,175,75
2026-05-09 15:11:09.753,2,-0.7,0.24,1.02,-220.0318,113.4176,159.387,175,75
2026-05-09 15:11:09.759,2,-0.75,0.17,0.95,-265.4518,38.7276,218.287,175,75
2026-05-09 15:11:09.771,2,-0.81,0.06,0.84,-316.1818,-24.632399999999997,305.29699999999997,175,75
2026-05-09 15:11:09.781,2,-0.6,-0.2,0.72,-349.7218,-29.932399999999998,396.157,175,75
2026-05-09 15:11:09.838,2,-0.83,-1.11,0.35,-350.0318,90.61760000000001,282.73699999999997,175,75
2026-05-09 15:11:09.847,2,0.24,-1.48,0.3,-336.79179999999997,77.86760000000001,350.667,175,75
2026-05-09 15:11:09.859,2,0.14,-2.08,0.67,-335.2718,128.4776,419.62699999999995,175,75
2026-05-09 15:11:09.869,2,0.38,-2.6,0.67,-400.3318,171.10760000000002,474.327,175,75
2026-05-09 15:11:09.879,2,0.46,-3.1,0.78,-503.07179999999994,178.7276,495.967,175,75
2026-05-09 15:11:09.890,2,0.75,-3.61,0.77,-568.5018,89.2176,488.10699999999997,175,75
2026-05-09 15:11:09.935,2,1.37,-4.68,0.54,-564.9618,-162.0724,539.447,175,75
2026-05-09 15:11:09.947,2,1.11,-5.1,-0.01,-562.3418,-246.4624,594.7470000000001,175,75
2026-05-09 15:11:09.959,2,0.67,-5.38,-0.82,-544.3518,-203.5924,608.227,175,75
2026-05-09 15:11:09.970,2,0.55,-5.84,-1.39,-500.0918,-80.7824,582.6170000000001,175,75
2026-05-09 15:11:09.980,2,0.83,-6.48,-1.56,-455.5118,62.3276,569.7470000000001,175,75
2026-05-09 15:11:09.992,2,1.32,-6.77,-1.19,-410.5118,222.5676,583.837,175,75
2026-05-09 15:11:10.003,2,1.81,-6.51,-0.51,-390.4518,323.8476,573.657,175,75
2026-05-09 15:11:10.003,2,1.77,-6.01,0.15,-394.35179999999997,338.7876,530.177,175,75
2026-05-09 15:11:10.029,2,1.2,-4.72,0.92,-393.7418,302.7476,324.017,175,75
2026-05-09 15:11:10.060,2,1.33,-3.33,1.47,-334.66179999999997,241.8376,147.307,175,75
2026-05-09 15:11:10.060,2,1.46,-2.77,1.57,-309.7818,212.32760000000002,97.437,175,75
2026-05-09 15:11:10.074,2,1.48,-2.4,1.65,-296.9818,201.7776,72.857,175,75
2026-05-09 15:11:10.085,2,1.35,-2.02,1.7,-283.9318,219.0876,61.277,175,75
2026-05-09 15:11:10.085,2,1.14,-1.64,1.78,-268.9918,257.25759999999997,53.777,175,75
2026-05-09 15:11:10.107,2,1.35,-0.6,2.44,-195.3918,299.33759999999995,36.457,175,75
2026-05-09 15:11:10.125,2,0.62,0.08,2.61,-174.6618,214.88760000000002,-9.273,175,75
2026-05-09 15:11:10.147,2,0.23,0.88,2.89,-267.16179999999997,191.8976,-100.553,175,75
2026-05-09 15:11:10.158,2,0.26,0.92,2.77,-257.10179999999997,196.7776,-148.173,175,75
2026-05-09 15:11:10.161,2,0.4,0.77,2.66,-218.2018,176.7176,-168.483,175,75
2026-05-09 15:11:10.173,2,0.49,0.63,2.77,-141.8518,143.7876,-144.213,175,75
2026-05-09 15:11:10.189,2,0.4,0.82,2.89,-35.7018,145.0076,-103.54299999999999,175,75
2026-05-09 15:11:10.210,2,0.36,0.89,2.88,8.938199999999998,103.6676,-101.833,175,75
2026-05-09 15:11:10.222,2,0.26,0.85,2.87,21.0082,72.6276,-103.303,175,75
2026-05-09 15:11:10.222,2,0.23,0.77,2.81,12.9582,50.4976,-98.783,175,75
2026-05-09 15:11:10.233,2,0.21,0.77,2.68,-7.041800000000002,41.7776,-87.143,175,75
2026-05-09 15:11:10.247,2,0.2,0.86,2.49,-21.851800000000004,53.2376,-69.943,175,75
2026-05-09 15:11:10.264,2,0.3,0.94,2.35,-15.5718,78.7276,-50.613,175,75
2026-05-09 15:11:10.302,2,0.45,1.01,2.28,64.3582,173.66760000000002,7.067,175,75
2026-05-09 15:11:10.302,2,0.45,0.86,2.4,112.4682,193.4776,23.167,175,75
2026-05-09 15:11:10.302,2,0.61,0.82,2.4,136.1882,152.8076,29.017000000000003,175,75
2026-05-09 15:11:10.313,2,0.54,0.8,2.35,151.3782,84.39760000000001,26.217000000000002,175,75
2026-05-09 15:11:10.352,2,2.26,0.62,1.86,161.1282,-268.8924,-13.722999999999999,175,75
2026-05-09 15:11:10.376,2,1.17,0.29,1.42,150.8282,95.85759999999999,-3.6629999999999994,175,75
2026-05-09 15:11:10.390,2,0.8,0.21,1.16,169.4882,176.4076,-46.283,175,75
2026-05-09 15:11:10.412,2,1.96,-0.32,1.93,301.3782,116.95760000000001,81.157,175,75
2026-05-09 15:11:10.422,2,2.08,-0.85,1.68,325.39820000000003,43.1176,47.987,175,75
2026-05-09 15:11:10.449,2,2.78,-0.86,1.14,273.20820000000003,-288.04240000000004,-132.563,175,75
2026-05-09 15:11:10.490,2,2.47,-1.2,-0.43,305.9482,-171.64239999999998,-162.263,175,75
2026-05-09 15:11:10.557,2,2.35,-1.44,-0.45,306.2582,66.5276,-204.453,175,75
2026-05-09 15:11:10.557,2,2.42,-1.28,-0.23,328.14820000000003,126.7776,-223.233,175,75
2026-05-09 15:11:10.567,2,2.61,-1.23,-0.02,350.8282,153.66760000000002,-233.663,175,75
2026-05-09 15:11:10.583,2,2.62,-1.44,0.4,377.1682,14.217600000000001,-261.163,175,75
2026-05-09 15:11:10.594,2,2.55,-1.62,0.39,390.5782,-47.1924,-289.093,175,75
2026-05-09 15:11:10.605,2,2.32,-1.64,0.34,392.83820000000003,-72.2524,-297.083,175,75
2026-05-09 15:11:10.678,2,1.87,-1.61,0.3,398.5682,-55.602399999999996,-309.333,175,75
2026-05-09 15:11:10.765,2,1.58,-1.5,0.39,404.2982,-68.16239999999999,-297.75300000000004,175,75
2026-05-09 15:11:10.765,2,1.42,-1.4,0.42,404.0582,-72.61240000000001,-289.88300000000004,175,75
2026-05-09 15:11:10.780,2,1.06,-1.12,0.43,399.4882,-65.1724,-263.30300000000005,175,75
2026-05-09 15:11:10.793,2,0.83,-0.94,0.43,394.4282,-53.8924,-247.623,175,75
2026-05-09 15:11:10.793,2,0.66,-0.75,0.32,386.8582,-56.7024,-236.893,175,75
2026-05-09 15:11:10.802,2,0.43,-0.6,0.29,380.39820000000003,-60.9124,-239.643,175,75
2026-05-09 15:11:10.808,2,0.3,-0.4,0.3,378.0182,-24.1424,-242.753,175,75
2026-05-09 15:11:10.816,2,0.32,-0.28,0.29,376.1282,7.8675999999999995,-232.323,175,75
2026-05-09 15:11:10.859,2,0.06,0.13,0.27,281.7982,11.037600000000001,-161.163,175,75
2026-05-09 15:11:10.859,2,0.05,0.22,0.24,267.40819999999997,-2.372399999999999,-161.403,175,75
2026-05-09 15:11:10.938,2,-0.13,0.33,0.26,241.06820000000002,-7.072399999999999,-162.873,175,75
2026-05-09 15:11:10.950,2,-0.2,0.4,0.31,230.2782,13.787600000000001,-161.833,175,75
2026-05-09 15:11:10.962,2,-0.08,0.44,0.3,246.4382,38.7876,-147.873,175,75
2026-05-09 15:11:10.998,2,-0.11,0.33,0.32,230.2182,5.1876000000000015,-135.863,175,75
2026-05-09 15:11:11.082,2,0.04,1.09,0.43,103.1482,8.0576,-84.823,175,75
2026-05-09 15:11:11.094,2,0.06,1.13,0.42,70.57820000000001,-17.002399999999998,-70.803,175,75
2026-05-09 15:11:11.106,2,-0.02,1.29,0.08,-28.0118,-138.9624,-31.533,175,75
2026-05-09 15:11:11.117,2,-0.31,1.6,-0.36,-30.821800000000003,-116.0924,2.4370000000000007,175,75
2026-05-09 15:11:11.127,2,-0.49,1.69,-0.51,-27.461800000000004,-54.2024,15.117,175,75
2026-05-09 15:11:11.191,2,-0.38,0.86,0.45,-251.85179999999997,510.73759999999993,152.557,175,75
2026-05-09 15:11:11.201,2,-0.07,0.35,0.76,-330.0318,481.2276,226.697,175,75
2026-05-09 15:11:11.211,2,0.15,0.11,0.88,-366.9218,435.06759999999997,279.56699999999995,175,75
2026-05-09 15:11:11.211,2,0.36,-0.15,0.98,-404.60179999999997,382.44759999999997,348.10699999999997,175,75
2026-05-09 15:11:11.247,2,0.69,-2.09,0.82,-542.4018,-10.1124,296.94699999999995,175,75
2026-05-09 15:11:11.280,2,0.9,-2.16,0.68,-564.5418,-84.44239999999999,329.87699999999995,175,75
2026-05-09 15:11:11.292,2,0.89,-2.34,0.42,-563.6218,-134.3824,367.43699999999995,175,75
2026-05-09 15:11:11.302,2,0.8,-2.55,0.15,-547.3418,-159.14239999999998,395.05699999999996,175,75
2026-05-09 15:11:11.324,2,0.98,-3.31,-0.31,-475.3918,-124.63239999999999,450.17699999999996,175,75
2026-05-09 15:11:11.334,2,1.3,-3.76,-0.31,-449.0518,-89.32239999999999,495.727,175,75
2026-05-09 15:11:11.334,2,1.37,-4.17,-0.32,-434.4218,-53.9624,551.697,175,75
2026-05-09 15:11:11.345,2,1.25,-4.61,-0.39,-426.3718,-44.1424,550.907,175,75
2026-05-09 15:11:11.359,2,1.11,-4.74,-0.39,-422.8918,-48.1624,515.727,175,75
2026-05-09 15:11:11.372,2,0.82,-4.52,-0.33,-423.2618,1.8976000000000006,444.387,175,75
2026-05-09 15:11:11.385,2,0.72,-3.77,-0.08,-383.3218,212.2576,344.267,175,75
2026-05-09 15:11:11.398,2,0.79,-3.29,0.3,-333.5018,328.5376,306.517,175,75
2026-05-09 15:11:11.419,2,0.94,-2.53,1.2,-253.3218,457.7476,240.727,175,75
2026-05-09 15:11:11.430,2,0.72,-2.11,1.56,-229.7818,443.7276,189.877,175,75
2026-05-09 15:11:11.440,2,0.46,-1.54,1.73,-202.65179999999998,368.0576,122.307,175,75
2026-05-09 15:11:11.451,2,0.36,-1.05,1.8,-168.99179999999998,249.14759999999998,45.487,175,75
2026-05-09 15:11:11.451,2,0.42,-0.78,1.8,-150.7018,163.7876,-4.582999999999999,175,75
2026-05-09 15:11:11.474,2,0.62,-0.31,1.73,-170.0318,35.0676,-1.9529999999999994,175,75
2026-05-09 15:11:11.474,2,0.56,-0.15,1.63,-174.4818,62.627599999999994,-16.412999999999997,175,75
2026-05-09 15:11:11.487,2,0.57,0.08,1.53,-166.7318,112.32759999999999,-23.363,175,75
2026-05-09 15:11:11.499,2,0.52,0.32,1.48,-141.9218,149.9476,-18.113,175,75
2026-05-09 15:11:11.499,2,0.41,0.38,1.45,-128.3218,176.8976,-17.322999999999997,175,75
2026-05-09 15:11:11.512,2,0.31,0.51,1.51,-125.15179999999998,222.38760000000002,-25.372999999999998,175,75
2026-05-09 15:11:11.512,2,0.23,0.63,1.55,-120.33179999999999,287.32759999999996,-41.653,175,75
2026-05-09 15:11:11.524,2,0.13,0.74,1.61,-113.8118,340.3676,-58.363,175,75
2026-05-09 15:11:11.534,2,-0.03,0.87,1.7,-103.3818,398.6076,-81.40299999999999,175,75
2026-05-09 15:11:11.569,2,-0.44,1.2,2.19,-42.531800000000004,557.3276,-197.203,175,75
2026-05-09 15:11:11.581,2,-0.17,1.04,2.54,-26.431800000000003,502.6876,-225.193,175,75
2026-05-09 15:11:11.594,2,-0.31,0.93,2.81,-23.071800000000003,462.25759999999997,-231.593,175,75
2026-05-09 15:11:11.594,2,-0.01,0.92,3.14,-29.2318,432.9276,-215.433,175,75
2026-05-09 15:11:11.606,2,0.39,1.19,3.07,-49.351800000000004,384.88759999999996,-104.883,175,75
2026-05-09 15:11:11.616,2,0.21,1.6,2.84,-48.3818,286.2276,5.297000000000001,175,75
2026-05-09 15:11:11.626,2,-0.47,1.49,2.69,-18.1418,188.5376,18.347,175,75
2026-05-09 15:11:11.642,2,-0.5,1.14,2.27,26.1282,148.0576,28.107000000000003,175,75
2026-05-09 15:11:11.652,2,0.25,0.52,3.08,54.788199999999996,37.6276,70.547,175,75
2026-05-09 15:11:11.653,2,0.08,-0.41,2.97,46.7982,323.0576,49.197,175,75
2026-05-09 15:11:11.709,2,0.79,0.52,2.77,89.1182,294.94759999999997,191.887,175,75
2026-05-09 15:11:11.722,2,0.8,0.22,3.14,86.06819999999999,194.88760000000002,218.467,175,75
2026-05-09 15:11:11.734,2,0.82,0.03,3.33,96.12819999999999,112.1976,220.907,175,75
2026-05-09 15:11:11.747,2,0.59,-0.34,3.23,112.9582,-20.2424,220.787,175,75
2026-05-09 15:11:11.760,2,0.53,-0.62,3.17,127.22819999999999,-107.8024,212.437,175,75
2026-05-09 15:11:11.772,2,0.66,-0.79,3.13,146.6782,-169.8724,203.107,175,75
2026-05-09 15:11:11.782,2,0.85,-0.8,2.98,161.7382,-185.7224,209.327,175,75
2026-05-09 15:11:11.803,2,1.13,-0.64,2.43,202.1082,-92.3724,222.987,175,75
2026-05-09 15:11:11.811,2,1.19,-0.68,2.36,228.4482,-30.7824,235.487,175,75
2026-05-09 15:11:11.811,2,1.24,-0.76,2.47,255.1582,22.3876,249.937,175,75
2026-05-09 15:11:11.830,2,1.44,-0.85,2.79,287.6582,33.9076,267.73699999999997,175,75
2026-05-09 15:11:11.830,2,1.56,-0.94,3.1,326.3182,-35.3024,273.777,175,75
2026-05-09 15:11:11.850,2,1.69,-1.15,3.36,355.70820000000003,-138.89239999999998,264.017,175,75
2026-05-09 15:11:11.893,2,1.7,-1.7,2.9,393.3882,-348.2824,182.557,175,75
2026-05-09 15:11:11.893,2,1.61,-2.08,2.6,431.3782,-349.5024,134.327,175,75
2026-05-09 15:11:11.908,2,1.56,-2.65,2.28,481.3782,-340.85240000000005,82.007,175,75
2026-05-09 15:11:11.920,2,1.55,-3.24,2.01,525.4582,-345.60240000000005,34.997,175,75
2026-05-09 15:11:11.937,2,1.47,-3.6,1.76,555.4582,-340.36240000000004,-4.032999999999999,175,75
2026-05-09 15:11:11.947,2,1.39,-3.59,1.47,561.6182,-320.60240000000005,-30.192999999999998,175,75
2026-05-09 15:11:11.958,2,1.32,-3.37,1.15,556.8582,-296.7624,-56.163,175,75
2026-05-09 15:11:11.970,2,1.35,-3.08,0.9,556.8582,-281.2724,-78.783,175,75
2026-05-09 15:11:11.970,2,1.43,-2.69,0.72,563.9982,-272.1924,-97.323,175,75
2026-05-09 15:11:12.003,2,1.12,-2.08,0.65,546.0682,-239.3824,-101.343,175,75
2026-05-09 15:11:12.017,2,0.91,-1.81,0.62,517.6582,-223.83239999999998,-108.423,175,75
2026-05-09 15:11:12.027,2,0.76,-1.53,0.53,484.7282,-235.9724,-124.213,175,75
2026-05-09 15:11:12.047,2,0.58,-1.3,0.37,454.7282,-270.9724,-142.993,175,75
2026-05-09 15:11:12.047,2,0.26,-1.1,0.16,423.5682,-304.99240000000003,-178.113,175,75
2026-05-09 15:11:12.059,2,-0.03,-0.89,-0.02,387.5382,-309.1424,-226.343,175,75
2026-05-09 15:11:12.071,2,-0.38,-0.55,-0.16,337.0482,-274.5024,-290.863,175,75
2026-05-09 15:11:12.083,2,-0.11,-0.16,-0.4,300.7682,-197.5524,-345.31300000000005,175,75
2026-05-09 15:11:12.100,2,0.23,0.23,-0.41,344.5482,-105.11240000000001,-282.93300000000005,175,75
2026-05-09 15:11:12.108,2,-0.04,0.52,-0.39,402.2282,1.2276000000000007,-184.213,175,75
2026-05-09 15:11:12.114,2,-0.26,0.46,-0.4,430.1582,51.1676,-132.933,175,75
2026-05-09 15:11:12.124,2,-0.36,0.27,-0.24,379.3582,20.6176,-144.583,175,75
2026-05-09 15:11:12.144,2,-0.63,0.28,-0.03,294.1182,38.7276,-154.823,175,75
2026-05-09 15:11:12.144,2,-0.71,0.38,-0.07,236.9282,60.73760000000001,-142.993,175,75
2026-05-09 15:11:12.155,2,-0.91,0.53,-0.21,182.7782,65.42760000000001,-126.10300000000001,175,75
2026-05-09 15:11:12.166,2,-1.21,0.65,-0.28,140.4582,80.73760000000001,-121.163,175,75
2026-05-09 15:11:12.193,2,-1.37,0.75,-0.25,90.3382,144.63760000000002,-126.16300000000001,175,75
2026-05-09 15:11:12.193,2,-1.15,0.79,-0.14,46.4982,215.1276,-111.953,175,75
2026-05-09 15:11:12.228,2,-0.62,0.74,0.23,-43.6818,325.9776,12.557,175,75
2026-05-09 15:11:12.239,2,-0.46,0.45,0.38,-127.0418,280.6176,130.607,175,75
2026-05-09 15:11:12.276,2,-0.13,-0.71,0.21,-213.68179999999998,35.2476,139.567,175,75
2026-05-09 15:11:12.338,2,1.32,-1.87,-0.37,-438.6218,-123.35239999999999,295.907,175,75
2026-05-09 15:11:12.359,2,1.62,-3.05,-1.0,-583.3818,-85.0524,282.18699999999995,175,75
2026-05-09 15:11:12.370,2,1.87,-3.76,-1.09,-638.5618,82.01759999999999,284.017,175,75
2026-05-09 15:11:12.387,2,2.63,-4.38,-1.24,-704.2918,318.1176,248.227,175,75
2026-05-09 15:11:12.387,2,3.23,-4.64,-0.88,-707.8318,504.8876,173.657,175,75
2026-05-09 15:11:12.398,2,3.67,-5.02,-0.03,-695.9418,631.1075999999999,69.937,175,75
2026-05-09 15:11:12.436,2,4.51,-5.33,1.58,-661.1818,731.6476,-100.123,175,75
2026-05-09 15:11:12.436,2,5.47,-5.05,5.56,-581.7318,484.0276,-370.923,175,75
2026-05-09 15:11:12.469,2,3.37,-4.73,5.72,-484.9018,57.8676,-558.663,175,75
2026-05-09 15:11:12.469,2,2.16,-3.7,4.35,-510.94179999999994,176.0376,-636.283,175,75
2026-05-09 15:11:12.495,2,0.43,-1.86,4.06,-260.7618,698.5376,-634.5129999999999,175,75
2026-05-09 15:11:12.495,2,0.37,-1.1,4.53,-107.1018,788.2375999999999,-589.943,175,75
2026-05-09 15:11:12.520,2,-0.12,-0.39,5.08,111.5582,409.82759999999996,-478.783,175,75
2026-05-09 15:11:12.532,2,-0.2,-0.61,4.94,167.34820000000002,155.2476,-433.843,175,75
2026-05-09 15:11:12.543,2,-0.44,-0.98,4.39,168.6282,-150.5424,-397.50300000000004,175,75
2026-05-09 15:11:12.558,2,-0.66,-1.13,3.81,92.7182,-264.2024,-391.413,175,75
2026-05-09 15:11:12.564,2,-0.88,-0.95,2.72,47.7782,-188.5324,-390.25300000000004,175,75
2026-05-09 15:11:12.583,2,-0.96,-0.6,1.97,44.7282,-61.1524,-387.93300000000005,175,75
2026-05-09 15:11:12.594,2,-1.13,-0.18,1.57,63.0782,49.8876,-361.223,175,75
2026-05-09 15:11:12.604,2,-1.36,0.23,1.25,92.4682,172.9276,-325.863,175,75
2026-05-09 15:11:12.624,2,-1.55,0.87,1.06,135.2182,349.14759999999995,-264.64300000000003,175,75
2026-05-09 15:11:12.638,2,-1.36,1.01,1.07,136.8582,377.01759999999996,-234.703,175,75
2026-05-09 15:11:12.651,2,-1.19,0.95,1.04,133.8782,325.06759999999997,-212.753,175,75
2026-05-09 15:11:12.671,2,-1.22,0.59,0.95,119.0582,9.0276,-152.753,175,75
2026-05-09 15:11:12.681,2,-1.25,0.64,0.84,104.29820000000001,-115.2424,-128.423,175,75
2026-05-09 15:11:12.714,2,-1.36,0.71,0.74,83.2082,-174.6324,-103.783,175,75
2026-05-09 15:11:12.749,2,-1.57,0.51,0.47,40.8882,45.6776,-27.262999999999998,175,75
2026-05-09 15:11:12.760,2,-1.34,0.53,0.63,50.5782,156.0376,0.9670000000000005,175,75
2026-05-09 15:11:12.760,2,-1.12,0.57,0.77,53.148199999999996,179.0276,15.967000000000002,175,75
2026-05-09 15:11:12.772,2,-0.92,0.55,0.95,50.4582,155.91760000000002,26.637,175,75
2026-05-09 15:11:12.785,2,-0.78,0.56,1.06,43.6282,104.45760000000001,38.287,175,75
2026-05-09 15:11:12.791,2,-0.7,0.61,1.06,36.1282,43.1176,46.337,175,75
2026-05-09 15:11:12.829,2,-0.74,0.63,0.87,10.278199999999998,-12.9224,49.137,175,75
2026-05-09 15:11:12.841,2,-0.63,0.44,0.72,-6.7318,71.89760000000001,57.497,175,75
2026-05-09 15:11:12.853,2,-0.55,0.46,0.8,-19.4218,118.60760000000002,70.357,175,75
2026-05-09 15:11:12.853,2,-0.51,0.5,1.04,-34.8418,180.85760000000002,88.407,175,75
2026-05-09 15:11:12.868,2,-0.94,0.62,1.23,-57.5318,201.3476,81.947,175,75
2026-05-09 15:11:12.878,2,-0.74,-0.82,2.0,-38.6218,123.9076,-23.543,175,75
2026-05-09 15:11:12.886,2,-0.11,0.09,2.59,-43.9318,444.75759999999997,109.267,175,75
2026-05-09 15:11:12.897,2,1.11,2.28,0.85,-135.8818,251.83759999999998,179.267,175,75
2026-05-09 15:11:12.908,2,-0.84,1.82,0.9,-153.6218,7.807600000000001,167.857,175,75
2026-05-09 15:11:12.920,2,-1.32,1.08,1.5,-138.3218,202.5076,197.497,175,75
2026-05-09 15:11:12.930,2,-0.94,1.18,1.43,-144.7818,367.25759999999997,287.43699999999995,175,75
2026-05-09 15:11:12.941,2,-0.16,1.21,1.62,-167.0418,370.00759999999997,307.61699999999996,175,75
2026-05-09 15:11:12.948,2,0.05,1.01,2.57,-222.65179999999998,364.2176,315.23699999999997,175,75
2026-05-09 15:11:12.963,2,-0.03,0.89,3.0,-281.0018,442.19759999999997,324.68699999999995,175,75
2026-05-09 15:11:12.993,2,0.02,1.67,2.94,-226.9218,393.8476,294.327,175,75
2026-05-09 15:11:12.998,2,-0.3,1.3,4.0,-146.2518,343.6676,269.74699999999996,175,75
2026-05-09 15:11:13.005,2,-0.93,0.6,4.92,-92.95179999999999,308.3576,231.27700000000002,175,75
2026-05-09 15:11:13.019,2,-0.93,0.4,5.21,-73.5618,200.6176,215.357,175,75
2026-05-09 15:11:13.029,2,-0.5,0.97,5.19,-97.77180000000001,-80.85239999999999,223.347,175,75
2026-05-09 15:11:13.040,2,-0.04,1.95,4.96,-100.0918,-309.6924,234.197,175,75
2026-05-09 15:11:13.056,2,0.31,2.34,3.85,43.6282,-410.42240000000004,262.06699999999995,175,75
2026-05-09 15:11:13.069,2,0.68,2.01,3.42,100.7082,-389.5024,306.087,175,75
2026-05-09 15:11:13.081,2,0.9,1.58,3.21,111.85820000000001,-330.11240000000004,339.80699999999996,175,75
2026-05-09 15:11:13.100,2,1.02,1.22,3.17,100.76820000000001,-253.89239999999998,335.35699999999997,175,75
2026-05-09 15:11:13.100,2,0.96,0.94,3.12,103.07820000000001,-151.70239999999998,298.287,175,75
2026-05-09 15:11:13.122,2,0.94,0.69,2.99,183.4482,-56.9424,240.787,175,75
2026-05-09 15:11:13.122,2,1.08,0.79,2.93,234.3582,-128.3524,232.917,175,75
2026-05-09 15:11:13.152,2,1.33,1.12,2.76,265.3382,-304.8124,265.23699999999997,175,75
2026-05-09 15:11:13.155,2,1.18,1.34,2.18,255.5782,-336.3324,286.767,175,75
2026-05-09 15:11:13.170,2,1.1,1.33,1.73,267.65819999999997,-364.1424,293.467,175,75
2026-05-09 15:11:13.170,2,1.37,1.2,1.42,284.4282,-395.66240000000005,294.44699999999995,175,75
2026-05-09 15:11:13.184,2,1.21,0.87,1.28,293.7582,-366.6424,264.327,175,75
2026-05-09 15:11:13.194,2,0.7,0.78,1.15,294.7882,-259.3824,231.827,175,75
2026-05-09 15:11:13.207,2,0.69,0.79,0.83,292.5382,-124.26239999999999,176.947,175,75
2026-05-09 15:11:13.222,2,1.43,0.96,0.39,257.1082,-50.422399999999996,83.287,175,75
2026-05-09 15:11:13.233,2,1.49,1.23,0.29,244.4882,-83.9624,76.697,175,75
2026-05-09 15:11:13.296,2,1.18,0.55,0.39,163.81820000000002,4.397600000000001,153.287,175,75
2026-05-09 15:11:13.333,2,1.47,0.64,0.13,147.9582,-136.2724,87.247,175,75
2026-05-09 15:11:13.358,2,0.1,0.76,-0.03,116.7382,-50.4824,11.027000000000001,175,75
2026-05-09 15:11:13.369,2,0.22,0.65,0.08,76.37819999999999,25.857599999999998,45.417,175,75
2026-05-09 15:11:13.393,2,0.47,0.55,0.25,-10.881800000000002,30.187600000000003,43.347,175,75
2026-05-09 15:11:13.407,2,0.52,0.58,0.25,-34.2918,-10.3624,15.786999999999999,175,75
2026-05-09 15:11:13.407,2,0.46,0.59,0.2,-40.6418,-42.9824,-7.813,175,75
2026-05-09 15:11:13.450,2,0.29,0.58,0.14,-42.281800000000004,-68.2824,-41.163,175,75
2026-05-09 15:11:13.458,2,0.08,0.53,0.24,-54.2318,-37.6124,-88.54299999999999,175,75
2026-05-09 15:11:13.470,2,0.06,0.54,0.37,-72.2818,-12.9224,-93.663,175,75
2026-05-09 15:11:13.470,2,0.06,0.56,0.49,-88.7518,-1.0923999999999996,-89.703,175,75
2026-05-09 15:11:13.480,2,0.06,0.6,0.62,-112.83179999999999,5.2476,-77.083,175,75
2026-05-09 15:11:13.518,2,0.04,0.62,0.77,-154.1118,-13.282399999999999,-49.153,175,75
2026-05-09 15:11:13.518,2,0.03,0.63,0.8,-177.77179999999998,-41.5224,-31.772999999999996,175,75
2026-05-09 15:11:13.530,2,0.01,0.64,0.79,-192.1018,-73.8324,-24.093,175,75
2026-05-09 15:11:13.552,2,-0.42,0.61,0.68,-210.8218,-175.3024,-83.173,175,75
2026-05-09 15:11:13.567,2,-0.52,0.58,0.71,-217.8318,-179.08239999999998,-82.203,175,75
2026-05-09 15:11:13.578,2,-0.5,0.51,0.76,-230.3918,-152.2524,-75.063,175,75
2026-05-09 15:11:13.597,2,-0.24,0.44,0.83,-265.2118,-70.7824,-55.062999999999995,175,75
2026-05-09 15:11:13.612,2,-0.09,0.45,0.85,-288.3218,-25.9724,-23.543,175,75
2026-05-09 15:11:13.612,2,-0.06,0.47,0.9,-314.8418,24.827600000000004,18.657,175,75
2026-05-09 15:11:13.623,2,-0.23,0.42,0.98,-350.3918,91.89760000000001,52.617000000000004,175,75
2026-05-09 15:11:13.634,2,-0.44,0.27,1.08,-394.7818,173.9676,67.797,175,75
2026-05-09 15:11:13.644,2,-0.55,-0.0,1.23,-457.2818,266.5276,81.637,175,75
2026-05-09 15:11:13.681,2,0.39,-2.13,2.44,-698.1418,382.25759999999997,-33.483,175,75
2026-05-09 15:11:13.788,2,1.78,-4.25,1.67,-893.8718,-374.5024,253.227,175,75
2026-05-09 15:11:13.793,2,2.31,-6.22,0.61,-710.1518,82.2576,433.777,175,75
2026-05-09 15:11:13.835,2,1.73,-6.81,1.39,-708.1418,250.85760000000002,249.387,175,75
2026-05-09 15:11:13.846,2,1.31,-5.66,1.33,-645.2118,469.57759999999996,102.06700000000001,175,75
2026-05-09 15:11:13.861,2,0.86,-5.17,1.67,-583.1418,654.0876,23.407,175,75
2026-05-09 15:11:13.875,2,0.6,-4.56,2.13,-498.5618,798.1776,-67.813,175,75
2026-05-09 15:11:13.922,2,-0.28,-2.16,3.91,-135.0918,557.3276,-309.70300000000003,175,75
2026-05-09 15:11:13.957,2,-0.43,-0.31,3.1,-115.64179999999999,171.5276,-273.843,175,75
2026-05-09 15:11:13.968,2,-0.55,0.0,2.59,-150.4518,149.88760000000002,-198.663,175,75
2026-05-09 15:11:13.997,2,-1.13,0.58,1.93,-193.93179999999998,77.92760000000001,-112.443,175,75
2026-05-09 15:11:14.010,2,-1.3,1.13,1.47,-141.0018,-16.4624,-94.213,175,75
2026-05-09 15:11:14.039,2,-1.08,1.24,1.51,-1.0018000000000011,10.677600000000002,-131.283,175,75
2026-05-09 15:11:14.051,2,0.0,0.89,1.72,50.5782,83.7876,-41.893,175,75
2026-05-09 15:11:14.059,2,-0.51,0.87,1.53,51.4382,119.14760000000001,70.237,175,75
2026-05-09 15:11:14.064,2,-0.77,0.89,1.34,58.9982,86.64760000000001,79.997,175,75
2026-05-09 15:11:14.151,2,-0.36,1.08,1.74,36.0082,136.9576,56.887,175,75
2026-05-09 15:11:14.168,2,-0.63,1.1,1.49,55.7682,63.9676,99.877,175,75
2026-05-09 15:11:14.186,2,-0.61,0.25,2.67,47.718199999999996,359.75759999999997,83.047,175,75
2026-05-09 15:11:14.200,2,0.3,0.26,2.27,43.2082,473.0576,80.117,175,75
2026-05-09 15:11:14.217,2,-0.72,0.19,2.2,-19.291800000000002,264.88759999999996,179.447,175,75
2026-05-09 15:11:14.229,2,-0.75,-0.04,2.37,-13.3218,412.9276,207.917,175,75
2026-05-09 15:11:14.254,2,-0.06,-0.11,2.63,-52.711800000000004,407.6876,277.49699999999996,175,75
2026-05-09 15:11:14.264,2,0.09,-0.54,3.13,-61.251799999999996,360.8576,285.11699999999996,175,75
2026-05-09 15:11:14.302,2,-0.49,-1.28,3.79,-11.431800000000003,105.36760000000001,319.74699999999996,175,75
2026-05-09 15:11:14.314,2,-0.52,-1.42,3.98,12.5382,-39.502399999999994,320.48699999999997,175,75
2026-05-09 15:11:14.325,2,-0.37,-1.62,4.21,-0.4518000000000004,-120.9724,336.457,175,75
2026-05-09 15:11:14.325,2,-0.14,-1.49,3.9,-11.431800000000003,-152.0024,371.457,175,75
2026-05-09 15:11:14.353,2,-0.02,-1.52,3.5,61.0682,-143.6524,434.077,175,75
2026-05-09 15:11:14.375,2,0.08,-1.73,3.41,156.9882,-142.8024,500.17699999999996,175,75
2026-05-09 15:11:14.400,2,-0.13,-2.22,3.71,269.1782,-208.4724,540.1170000000001,175,75
2026-05-09 15:11:14.412,2,-0.19,-2.41,3.86,308.8782,-266.7624,549.807,175,75
2026-05-09 15:11:14.423,2,0.19,-2.66,3.7,330.64820000000003,-374.2624,539.9970000000001,175,75
2026-05-09 15:11:14.440,2,0.4,-2.81,3.41,338.5682,-412.61240000000004,545.667,175,75
2026-05-09 15:11:14.456,2,0.23,-3.32,2.68,400.5782,-459.0224,585.4870000000001,175,75
2026-05-09 15:11:14.474,2,-0.19,-3.67,2.43,443.0782,-441.7624,580.2370000000001,175,75
2026-05-09 15:11:14.485,2,-0.68,-3.85,2.24,476.4382,-402.67240000000004,530.847,175,75
2026-05-09 15:11:14.508,2,-0.9,-3.54,1.71,496.2582,-321.5824,294.19699999999995,175,75
2026-05-09 15:11:14.522,2,-0.43,-2.83,1.38,484.3582,-303.9624,199.447,175,75
2026-05-09 15:11:14.533,2,-0.04,-2.15,1.07,480.7682,-314.5724,144.937,175,75
2026-05-09 15:11:14.550,2,0.22,-1.65,0.82,484.7882,-347.86240000000004,112.307,175,75
2026-05-09 15:11:14.560,2,0.38,-1.39,0.66,481.7382,-378.10240000000005,91.397,175,75
2026-05-09 15:11:14.572,2,0.49,-1.13,0.47,472.83820000000003,-406.8224,72.617,175,75
2026-05-09 15:11:14.572,2,0.47,-0.79,0.25,465.70820000000003,-442.3124,51.517,175,75
2026-05-09 15:11:14.597,2,-0.12,-0.31,0.07,460.5182,-389.3824,5.057,175,75
2026-05-09 15:11:14.607,2,-0.24,-0.12,-0.12,445.9482,-314.93240000000003,-43.973,175,75
2026-05-09 15:11:14.627,2,0.02,0.18,-0.28,488.8182,-157.0724,-64.453,175,75
2026-05-09 15:11:14.672,2,-0.81,0.42,-0.31,362.5382,-23.772399999999998,-55.062999999999995,175,75
2026-05-09 15:11:14.681,2,-0.81,0.51,-0.28,231.1282,74.7576,-84.333,175,75
2026-05-09 15:11:14.693,2,-0.62,0.61,-0.23,139.78820000000002,112.13759999999999,-105.983,175,75
2026-05-09 15:11:14.693,2,-0.48,0.72,-0.19,75.76820000000001,120.9776,-118.363,175,75
2026-05-09 15:11:14.734,2,-0.28,1.2,-0.01,66.5582,167.9976,12.677,175,75
2026-05-09 15:11:14.767,2,-0.18,0.85,0.43,-15.3918,201.5276,121.277,175,75
2026-05-09 15:11:14.778,2,-0.1,0.75,0.57,-79.96180000000001,190.2476,148.957,175,75
2026-05-09 15:11:14.791,2,-0.01,0.73,0.64,-139.0518,167.07760000000002,169.137,175,75
2026-05-09 15:11:14.797,2,0.09,0.75,0.68,-175.7618,136.4676,179.567,175,75
2026-05-09 15:11:14.809,2,0.28,0.72,0.7,-191.3118,104.14760000000001,161.02700000000002,175,75
2026-05-09 15:11:14.838,2,1.25,0.44,0.76,-216.6118,-87.07239999999999,198.77700000000002,175,75
2026-05-09 15:11:14.875,2,2.23,0.2,0.43,-311.1818,-379.5024,337.37699999999995,175,75
2026-05-09 15:11:14.893,2,2.58,0.08,0.12,-285.9418,-484.8124,377.37699999999995,175,75
2026-05-09 15:11:14.893,2,2.78,-0.18,-0.46,-249.96179999999998,-579.6324000000001,434.44699999999995,175,75
2026-05-09 15:11:14.918,2,2.28,-1.02,-1.55,-274.29179999999997,-532.3724,487.79699999999997,175,75
2026-05-09 15:11:14.941,2,2.64,-2.24,-3.0,-322.2218,-150.3024,371.397,175,75
2026-05-09 15:11:14.964,2,4.66,-2.57,-1.72,-356.85179999999997,164.9476,233.047,175,75
2026-05-09 15:11:14.974,2,5.9,-3.07,-0.15,-466.9818,162.9276,64.267,175,75
2026-05-09 15:11:14.986,2,5.84,-3.57,0.52,-523.9918,135.79760000000002,-56.342999999999996,175,75
2026-05-09 15:11:15.008,2,5.41,-3.96,0.93,-551.3118,167.7476,-181.47299999999998,175,75
2026-05-09 15:11:15.008,2,4.59,-4.23,1.28,-558.2618,268.1776,-325.673,175,75
2026-05-09 15:11:15.030,2,3.4,-3.94,1.68,-540.2718,467.9976,-477.99300000000005,175,75
2026-05-09 15:11:15.034,2,2.14,-3.11,2.13,-479.7218,696.3475999999999,-593.843,175,75
2026-05-09 15:11:15.047,2,0.9,-2.32,2.61,-385.3918,943.7876,-686.223,175,75
2026-05-09 15:11:15.059,2,-0.16,-1.58,2.99,-281.4918,1151.1076,-738.603,175,75
2026-05-09 15:11:15.070,2,-1.46,-0.41,3.3,-85.27180000000001,1376.1676,-723.233,175,75
2026-05-09 15:11:15.081,2,-1.75,0.45,2.86,77.59819999999999,1371.6476,-636.8929999999999,175,75
2026-05-09 15:11:15.092,2,-1.96,0.69,3.18,101.6182,1215.3076,-509.213,175,75
2026-05-09 15:11:15.105,2,-2.04,0.85,3.67,62.468199999999996,1129.3976,-386.163,175,75
2026-05-09 15:11:15.105,2,-1.45,1.12,3.78,63.0782,956.7176,-244.643,175,75
2026-05-09 15:11:15.116,2,-0.2,0.94,4.02,225.09820000000002,650.4276,-188.843,175,75
2026-05-09 15:11:15.130,2,-0.23,0.41,3.19,398.8182,80.61760000000001,-177.083,175,75
2026-05-09 15:11:15.160,2,-1.12,0.32,0.92,177.34820000000002,-480.9724,-215.003,175,75
2026-05-09 15:11:15.172,2,-2.08,1.26,-0.37,195.3982,-158.3524,-136.47299999999998,175,75
2026-05-09 15:11:15.197,2,-1.97,0.49,-0.48,174.4882,350.6776,-45.733,175,75
2026-05-09 15:11:15.205,2,-2.06,0.73,0.1,80.76820000000001,446.1676,-16.593,175,75
2026-05-09 15:11:15.216,2,-1.55,0.81,0.44,69.78819999999999,473.6076,43.717,175,75
2026-05-09 15:11:15.236,2,-1.03,0.61,0.62,69.7282,368.6676,74.387,175,75
2026-05-09 15:11:15.253,2,-0.8,0.57,0.8,38.6282,154.7576,107.187,175,75
2026-05-09 15:11:15.253,2,-0.71,0.65,0.67,5.398199999999999,-15.052399999999999,123.59700000000001,175,75
2026-05-09 15:11:15.266,2,-0.77,0.66,0.52,-2.9518000000000004,-77.3724,131.15699999999998,175,75
2026-05-09 15:11:15.273,2,-0.89,0.5,0.4,-4.9618,-52.922399999999996,130.90699999999998,175,75
2026-05-09 15:11:15.283,2,-0.94,0.28,0.42,-15.0318,44.757600000000004,118.777,175,75
2026-05-09 15:11:15.305,2,-0.84,0.2,0.7,-22.5918,170.4276,104.937,175,75
2026-05-09 15:11:15.330,2,-0.57,0.4,1.05,-58.6818,251.58759999999998,80.357,175,75
2026-05-09 15:11:15.362,2,-0.73,0.18,1.22,-100.0918,273.2376,52.007000000000005,175,75
2026-05-09 15:11:15.373,2,-0.72,0.25,1.32,-114.42179999999999,280.9176,52.247,175,75
2026-05-09 15:11:15.373,2,-0.73,0.26,1.42,-129.96179999999998,277.19759999999997,54.017,175,75
2026-05-09 15:11:15.385,2,-0.78,0.27,1.47,-149.3518,265.9176,57.677,175,75
2026-05-09 15:11:15.395,2,-1.7,0.21,1.35,-168.5018,227.6276,66.697,175,75
2026-05-09 15:11:15.419,2,-1.22,-1.05,1.9,-149.6018,174.82760000000002,-45.193,175,75
2026-05-09 15:11:15.419,2,-0.21,-0.47,3.0,-181.1218,546.4676,143.107,175,75
2026-05-09 15:11:15.445,2,-0.12,1.79,1.35,-313.6818,242.5076,142.987,175,75
2026-05-09 15:11:15.445,2,-1.13,-0.03,2.19,-294.66179999999997,155.9776,82.06700000000001,175,75
2026-05-09 15:11:15.467,2,-0.5,-0.51,2.71,-347.4018,270.5576,222.797,175,75
2026-05-09 15:11:15.489,2,-1.08,0.07,2.55,-345.8818,237.9976,293.467,175,75
2026-05-09 15:11:15.500,2,-1.54,0.05,2.19,-327.2218,308.1176,328.957,175,75
2026-05-09 15:11:15.528,2,-2.1,-0.05,3.72,-53.141799999999996,412.9976,222.617,175,75
2026-05-09 15:11:15.543,2,-1.42,-1.26,5.04,-18.5618,344.45759999999996,224.747,175,75
2026-05-09 15:11:15.551,2,-1.36,0.34,4.77,-181.49179999999998,91.10759999999999,348.167,175,75
2026-05-09 15:11:15.580,2,-1.38,1.1,3.99,-235.3918,-117.3124,342.67699999999996,175,75
2026-05-09 15:11:15.580,2,-0.76,1.55,3.58,-219.90179999999998,-145.9124,372.55699999999996,175,75
2026-05-09 15:11:15.593,2,-0.76,1.66,3.33,-149.2318,-20.8524,384.017,175,75
2026-05-09 15:11:15.607,2,-0.74,-0.04,4.02,-114.8418,385.06759999999997,336.337,175,75
2026-05-09 15:11:15.623,2,-0.89,-0.2,4.35,-87.65180000000001,443.7276,328.407,175,75
2026-05-09 15:11:15.623,2,-0.93,0.04,4.34,-43.6218,418.3576,348.04699999999997,175,75
2026-05-09 15:11:15.635,2,-0.8,0.44,4.37,-25.031800000000004,339.94759999999997,372.61699999999996,175,75
2026-05-09 15:11:15.645,2,-0.39,0.8,4.43,-40.8218,219.82760000000002,393.587,175,75
2026-05-09 15:11:15.657,2,-0.19,0.91,4.24,-75.27180000000001,139.0276,406.577,175,75
2026-05-09 15:11:15.669,2,-0.21,1.04,4.05,-75.8818,98.9676,408.347,175,75
2026-05-09 15:11:15.680,2,-0.24,1.01,3.88,-43.0118,100.36760000000001,410.17699999999996,175,75
2026-05-09 15:11:15.689,2,-0.08,0.84,3.67,-7.7118,93.4176,423.897,175,75
2026-05-09 15:11:15.720,2,0.34,0.37,3.41,20.1582,7.747600000000002,461.457,175,75
2026-05-09 15:11:15.730,2,0.72,0.35,3.24,31.2482,-45.602399999999996,469.077,175,75
2026-05-09 15:11:15.755,2,0.48,0.77,2.98,133.44819999999999,-63.4124,432.49699999999996,175,75
2026-05-09 15:11:15.755,2,0.44,0.78,2.88,179.9682,-15.8524,415.967,175,75
2026-05-09 15:11:15.766,2,1.08,0.66,2.91,205.7082,-46.5824,397.98699999999997,175,75
2026-05-09 15:11:15.779,2,1.27,0.64,2.8,211.9282,-166.58239999999998,385.967,175,75
2026-05-09 15:11:15.791,2,1.41,1.1,2.19,225.7682,-431.2124,374.87699999999995,175,75
2026-05-09 15:11:15.802,2,0.79,1.14,1.87,277.6582,-465.9724,385.29699999999997,175,75
2026-05-09 15:11:15.825,2,0.64,0.83,1.64,326.9282,-408.6524,419.387,175,75
2026-05-09 15:11:15.849,2,0.81,-0.22,0.89,291.1882,-259.2624,337.24699999999996,175,75
2026-05-09 15:11:15.862,2,0.96,-0.23,0.28,169.4882,-255.17239999999998,101.827,175,75
2026-05-09 15:11:15.885,2,1.21,0.21,0.1,171.6182,-247.1324,13.717000000000002,175,75
2026-05-09 15:11:15.896,2,1.02,0.54,0.01,203.6282,-237.98239999999998,-24.883,175,75
2026-05-09 15:11:15.914,2,0.78,0.63,-0.0,248.0182,-225.0524,-32.992999999999995,175,75
2026-05-09 15:11:15.926,2,0.67,0.66,-0.04,277.0482,-183.9624,1.4570000000000007,175,75
2026-05-09 15:11:15.938,2,0.47,0.67,-0.11,264.1182,-122.07239999999999,41.767,175,75
2026-05-09 15:11:15.943,2,0.37,0.62,-0.15,218.2082,-48.2224,42.737,175,75
2026-05-09 15:11:15.953,2,0.3,0.53,-0.08,145.2782,47.9276,20.057000000000002,175,75
2026-05-09 15:11:15.979,2,0.41,0.62,0.3,95.3982,151.4676,-18.843,175,75
2026-05-09 15:11:15.988,2,0.45,0.69,0.42,105.3982,141.5876,-37.503,175,75
2026-05-09 15:11:16.009,2,0.53,0.81,0.63,101.7382,42.6276,-49.452999999999996,175,75
2026-05-09 15:11:16.026,2,0.31,0.88,0.65,41.3182,-86.4624,-38.603,175,75
2026-05-09 15:11:16.048,2,0.2,0.87,0.58,16.7382,-118.7724,-40.253,175,75
2026-05-09 15:11:16.058,2,0.13,0.86,0.52,2.3481999999999985,-127.19239999999999,-44.702999999999996,175,75
2026-05-09 15:11:16.076,2,-0.02,0.93,0.49,-14.3518,-70.60239999999999,-42.202999999999996,175,75
2026-05-09 15:11:16.088,2,-0.03,0.95,0.56,-18.7518,-27.252399999999998,-34.393,175,75
2026-05-09 15:11:16.110,2,0.1,0.9,0.7,-32.0418,33.7276,-15.922999999999998,175,75
2026-05-09 15:11:16.110,2,0.1,0.86,0.71,-38.6218,14.087600000000002,-9.032999999999998,175,75
2026-05-09 15:11:16.122,2,0.09,0.86,0.7,-45.7018,-21.272399999999998,-5.122999999999998,175,75
2026-05-09 15:11:16.153,2,0.07,0.89,0.66,-50.3318,-75.7224,-6.102999999999999,175,75
2026-05-09 15:11:16.164,2,-0.19,0.94,0.56,-51.5518,-81.0324,29.507,175,75
2026-05-09 15:11:16.176,2,-0.24,1.02,0.52,-52.5318,-27.0724,49.687000000000005,175,75
2026-05-09 15:11:16.192,2,-0.11,1.09,0.53,-49.1718,108.4776,88.227,175,75
2026-05-09 15:11:16.205,2,0.03,1.02,0.61,-55.94180000000001,151.4676,106.767,175,75
2026-05-09 15:11:16.229,2,-0.02,0.94,0.73,-77.0418,179.3376,125.237,175,75
2026-05-09 15:11:16.243,2,-0.11,0.94,0.83,-109.05180000000001,203.60760000000002,142.677,175,75
2026-05-09 15:11:16.267,2,0.1,0.8,1.03,-243.1418,234.3976,199.747,175,75
2026-05-09 15:11:16.281,2,0.31,0.57,1.04,-303.8718,225.73760000000001,237.187,175,75
2026-05-09 15:11:16.292,2,0.66,0.1,1.15,-361.4918,205.85760000000002,255.177,175,75
2026-05-09 15:11:16.303,2,0.82,-0.34,1.19,-396.79179999999997,218.1776,233.77700000000002,175,75
2026-05-09 15:11:16.313,2,1.09,-0.7,1.23,-437.16179999999997,238.29760000000002,262.43699999999995,175,75
2026-05-09 15:11:16.323,2,1.5,-1.06,1.25,-480.1518,215.2476,308.287,175,75
2026-05-09 15:11:16.336,2,1.53,-1.41,1.29,-530.2718,128.9076,336.767,175,75
2026-05-09 15:11:16.346,2,1.77,-1.9,1.33,-573.7418,25.2476,336.517,175,75
2026-05-09 15:11:16.354,2,2.07,-2.42,1.39,-609.6618,-102.92240000000001,355.35699999999997,175,75
2026-05-09 15:11:16.379,2,2.28,-2.78,1.05,-618.6218,-227.92239999999998,414.74699999999996,175,75
2026-05-09 15:11:16.395,2,2.54,-2.92,0.54,-596.9818,-292.1324,468.717,175,75
2026-05-09 15:11:16.407,2,2.28,-2.8,-0.31,-548.0118,-265.3624,557.187,175,75
2026-05-09 15:11:16.407,2,1.41,-3.09,-0.9,-523.3217999999999,-146.2724,567.9870000000001,175,75
2026-05-09 15:11:16.415,2,1.61,-4.04,-1.35,-485.6418,65.9176,507.85699999999997,175,75
2026-05-09 15:11:16.436,2,2.61,-5.33,-0.1,-524.4218,465.06759999999997,395.417,175,75
2026-05-09 15:11:16.451,2,3.12,-5.54,0.66,-568.7418,478.9076,315.54699999999997,175,75
2026-05-09 15:11:16.481,2,2.27,-3.93,1.64,-576.6118,370.2476,103.777,175,75
2026-05-09 15:11:16.497,2,1.79,-3.19,1.91,-529.6018,485.3076,39.567,175,75
2026-05-09 15:11:16.530,2,1.25,-2.05,2.71,-369.66179999999997,598.6075999999999,-143.72299999999998,175,75
2026-05-09 15:11:16.557,2,0.6,-0.81,3.35,-181.6118,379.45759999999996,-223.903,175,75
2026-05-09 15:11:16.568,2,0.47,-0.2,3.08,-103.5018,253.66760000000002,-218.843,175,75
2026-05-09 15:11:16.587,2,0.53,0.6,2.49,-161.1218,47.6876,-144.823,175,75
2026-05-09 15:11:16.618,2,0.31,0.69,2.05,-157.77179999999998,50.6776,-119.393,175,75
2026-05-09 15:11:16.629,2,-0.51,0.53,1.69,-101.43180000000001,169.7576,-106.593,175,75
2026-05-09 15:11:16.632,2,-0.78,0.58,1.68,-67.5918,277.8076,-115.063,175,75
2026-05-09 15:11:16.645,2,-0.85,0.7,1.73,-30.1518,370.7376,-133.053,175,75
2026-05-09 15:11:16.668,2,-0.9,0.8,2.06,-2.341800000000001,437.6276,-145.923,175,75
2026-05-09 15:11:16.674,2,-0.85,0.91,2.22,-12.8918,440.3076,-135.313,175,75
2026-05-09 15:11:16.695,2,-0.68,1.17,2.2,-27.8318,390.7976,-101.533,175,75
2026-05-09 15:11:16.707,2,-0.66,1.38,2.17,-25.7018,319.14759999999995,-69.763,175,75
2026-05-09 15:11:16.714,2,-0.6,1.46,2.13,11.988199999999999,229.82760000000002,-37.753,175,75
2026-05-09 15:11:16.726,2,-0.59,1.05,2.08,44.6082,156.2876,-31.223,175,75
2026-05-09 15:11:16.737,2,-0.86,0.76,1.98,53.3882,147.07760000000002,-5.002999999999999,175,75
2026-05-09 15:11:16.751,2,-0.77,0.83,1.99,52.0482,173.7276,21.767000000000003,175,75
2026-05-09 15:11:16.762,2,-0.79,0.96,1.97,58.6882,193.0576,40.357,175,75
2026-05-09 15:11:16.762,2,-0.77,0.9,1.88,66.7382,174.0276,62.307,175,75
2026-05-09 15:11:16.775,2,-1.19,0.96,1.53,82.28819999999999,145.6776,97.247,175,75
2026-05-09 15:11:16.787,2,-0.87,0.06,2.46,68.07820000000001,112.5676,49.327,175,75
2026-05-09 15:11:16.821,2,0.63,0.84,2.17,10.338199999999999,439.2776,154.197,175,75
2026-05-09 15:11:16.821,2,0.1,0.98,2.22,-37.5918,235.0076,224.507,175,75
2026-05-09 15:11:16.834,2,-0.61,0.18,3.05,-30.3318,270.00759999999997,228.287,175,75
2026-05-09 15:11:16.861,2,-0.16,-0.46,3.04,-46.3118,355.1876,264.87699999999995,175,75
2026-05-09 15:11:16.872,2,-0.01,-0.68,3.0,-72.65180000000001,298.1776,283.897,175,75
2026-05-09 15:11:16.884,2,-0.2,-0.8,3.28,-38.3218,291.83759999999995,296.577,175,75
2026-05-09 15:11:16.897,2,-0.4,-1.19,3.85,20.5782,268.2976,320.727,175,75
2026-05-09 15:11:16.916,2,-0.23,-0.97,4.04,3.148199999999999,76.2876,365.907,175,75
2026-05-09 15:11:16.927,2,-0.2,-0.91,3.79,11.248199999999999,-6.212399999999999,393.04699999999997,175,75
2026-05-09 15:11:16.943,2,-0.23,-0.96,3.53,39.7882,-37.4324,418.587,175,75
2026-05-09 15:11:16.962,2,-0.32,-1.07,3.42,74.6082,-38.4724,444.267,175,75
2026-05-09 15:11:16.962,2,-0.4,-1.26,3.39,119.35820000000001,-39.8124,471.027,175,75
2026-05-09 15:11:16.976,2,-0.36,-1.48,3.54,167.6582,-56.5224,497.30699999999996,175,75
2026-05-09 15:11:16.998,2,-0.11,-1.78,3.61,228.1482,-101.5224,581.767,175,75
2026-05-09 15:11:17.019,2,-0.03,-2.24,3.63,260.9482,-98.2824,605.667,175,75
2026-05-09 15:11:17.031,2,-0.04,-2.8,3.56,295.8882,-52.1924,639.8770000000001,175,75
2026-05-09 15:11:17.041,2,-0.15,-3.56,3.54,333.20820000000003,-23.9624,682.2470000000001,175,75
2026-05-09 15:11:17.054,2,-0.18,-4.09,3.6,360.33820000000003,-39.632400000000004,723.777,175,75
2026-05-09 15:11:17.054,2,-0.23,-4.11,3.61,385.5182,-86.2124,737.437,175,75
2026-05-09 15:11:17.064,2,-0.27,-3.68,3.51,406.8582,-149.4424,713.777,175,75
2026-05-09 15:11:17.078,2,-0.2,-3.11,3.22,420.2782,-190.6624,646.027,175,75
2026-05-09 15:11:17.093,2,-0.03,-2.86,2.95,435.39820000000003,-213.5324,590.547,175,75
2026-05-09 15:11:17.100,2,0.16,-2.69,2.67,448.0182,-229.20239999999998,549.937,175,75
2026-05-09 15:11:17.124,2,0.77,-2.07,1.8,479.6682,-234.8124,478.04699999999997,175,75
2026-05-09 15:11:17.141,2,0.94,-1.81,1.55,494.4282,-245.48239999999998,461.637,175,75
2026-05-09 15:11:17.157,2,0.83,-1.58,1.4,514.1182,-255.17239999999998,427.85699999999997,175,75
2026-05-09 15:11:17.169,2,0.69,-1.51,1.3,515.5781999999999,-246.33239999999998,396.087,175,75
2026-05-09 15:11:17.181,2,0.66,-1.4,0.84,452.5982,-275.7824,250.607,175,75
2026-05-09 15:11:17.218,2,1.09,-1.09,-0.01,387.6582,-495.85240000000005,66.767,175,75
2026-05-09 15:11:17.228,2,0.7,-0.8,-0.48,351.5582,-638.2224,-54.333,175,75
2026-05-09 15:11:17.228,2,0.35,-0.45,-0.81,340.39820000000003,-632.8024,-135.063,175,75
2026-05-09 15:11:17.249,2,-0.71,0.53,-1.78,495.2182,-156.2124,-120.063,175,75
2026-05-09 15:11:17.269,2,-0.62,0.78,-1.51,466.0682,-18.2224,-148.113,175,75
2026-05-09 15:11:17.302,2,-0.56,1.21,-0.73,188.6282,305.7976,-94.703,175,75
2026-05-09 15:11:17.337,2,-0.6,1.39,0.09,-36.2518,464.0276,-27.323,175,75
2026-05-09 15:11:17.347,2,-0.71,1.19,0.31,-47.3418,494.45759999999996,-29.583,175,75
2026-05-09 15:11:17.370,2,-0.93,0.82,0.68,-105.27180000000001,525.3675999999999,-16.773,175,75
2026-05-09 15:11:17.380,2,-0.85,0.69,0.78,-156.3718,481.7176,-5.672999999999999,175,75
2026-05-09 15:11:17.391,2,-0.71,0.6,0.88,-202.5918,406.0376,9.507000000000001,175,75
2026-05-09 15:11:17.409,2,-0.17,0.23,1.28,-362.10179999999997,190.85760000000002,106.217,175,75
2026-05-09 15:11:17.421,2,0.09,0.07,1.23,-433.0118,81.58760000000001,189.877,175,75
2026-05-09 15:11:17.448,2,0.31,-0.05,1.17,-476.6718,-22.132399999999997,266.887,175,75
2026-05-09 15:11:17.462,2,1.16,-0.72,1.09,-475.3918,-227.0724,90.237,175,75
2026-05-09 15:11:17.522,2,1.52,-0.55,0.85,-405.8818,-451.5824,358.10699999999997,175,75
2026-05-09 15:11:17.546,2,0.66,-0.79,0.69,-433.2018,-447.43240000000003,672.917,175,75
2026-05-09 15:11:17.573,2,0.6,-2.28,-0.12,-407.8318,-502.0024,773.527,175,75
2026-05-09 15:11:17.611,2,0.5,-3.51,-0.83,-299.35179999999997,-492.86240000000004,755.6070000000001,175,75
2026-05-09 15:11:17.640,2,0.63,-4.87,-1.46,-185.27179999999998,-535.0524,652.677,175,75
2026-05-09 15:11:17.652,2,0.75,-5.47,-1.93,-169.0518,-524.4424,531.087,175,75
2026-05-09 15:11:17.679,2,0.89,-4.17,-2.47,-224.7218,96.5276,478.777,175,75
2026-05-09 15:11:17.696,2,1.55,-3.9,-0.39,-167.8318,254.45759999999999,182.307,175,75
2026-05-09 15:11:17.718,2,1.83,-1.31,1.3,-176.1218,287.38759999999996,122.797,175,75
2026-05-09 15:11:17.718,2,1.82,-1.09,1.43,-163.8718,224.7576,146.827,175,75
2026-05-09 15:11:17.730,2,1.46,-1.13,1.57,-147.8918,187.13760000000002,143.227,175,75
2026-05-09 15:11:17.754,2,1.11,-0.89,1.94,-115.15180000000001,215.85760000000002,113.227,175,75
2026-05-09 15:11:17.772,2,0.97,-0.41,2.2,-61.3718,182.32760000000002,83.777,175,75
2026-05-09 15:11:17.782,2,0.95,-0.13,2.38,-14.6618,89.45760000000001,38.777,175,75
2026-05-09 15:11:17.793,2,0.89,0.24,2.75,-59.111799999999995,-166.0324,-13.363,175,75
2026-05-09 15:11:17.804,2,0.8,0.53,2.54,-106.0618,-239.20239999999998,-24.942999999999998,175,75
2026-05-09 15:11:17.840,2,0.39,1.17,1.56,39.0582,-25.912399999999998,-261.413,175,75
2026-05-09 15:11:17.859,2,0.77,0.83,1.79,92.34819999999999,-10.3624,-202.813,175,75
2026-05-09 15:11:17.883,2,0.71,1.18,1.61,21.928199999999997,-120.0524,28.347,175,75
2026-05-09 15:11:17.883,2,0.7,1.07,1.65,8.8182,-207.86239999999998,57.497,175,75
2026-05-09 15:11:17.907,2,0.38,0.69,1.5,11.0682,-178.6524,104.56700000000001,175,75
2026-05-09 15:11:17.931,2,0.01,0.87,1.32,16.9882,-33.282399999999996,63.717,175,75
2026-05-09 15:11:17.944,2,0.14,0.81,1.45,17.8382,33.2376,-35.803,175,75
2026-05-09 15:11:17.979,2,0.08,0.79,1.3,42.5382,-149.26239999999999,-139.153,175,75
2026-05-09 15:11:18.000,2,-0.04,0.82,1.23,56.7382,-163.89239999999998,-150.803,175,75
2026-05-09 15:11:18.012,2,-0.13,0.79,1.2,62.2282,-154.4424,-151.043,175,75
2026-05-09 15:11:18.031,2,0.14,0.57,1.31,52.6582,-182.2524,-112.813,175,75
2026-05-09 15:11:18.040,2,0.14,0.48,1.13,37.5982,-217.3724,-74.583,175,75
2026-05-09 15:11:18.068,2,-0.0,0.18,1.03,-0.7018000000000004,-368.2824,42.067,175,75
2026-05-09 15:11:18.077,2,-1.02,0.32,0.72,-1.8518000000000008,-351.4624,95.967,175,75
2026-05-09 15:11:18.097,2,-0.38,-0.68,0.54,18.6882,-229.8724,-108.843,175,75
2026-05-09 15:11:18.097,2,-1.89,-0.51,0.34,17.4082,-55.7824,-279.45300000000003,175,75
2026-05-09 15:11:18.106,2,0.23,-0.6,-0.12,42.718199999999996,-40.8524,-297.50300000000004,175,75
2026-05-09 15:11:18.113,2,1.43,0.12,-0.02,85.4582,-177.1324,-217.263,175,75
2026-05-09 15:11:18.138,2,-0.56,0.5,0.5,155.5182,-80.11240000000001,51.947,175,75
2026-05-09 15:11:18.138,2,-0.76,0.09,0.16,134.4882,-39.8124,82.307,175,75
2026-05-09 15:11:18.149,2,-0.61,-0.53,-0.2,95.2182,-80.66239999999999,94.447,175,75
2026-05-09 15:11:18.165,2,-1.09,-1.13,-0.08,30.708199999999998,-75.91239999999999,36.087,175,75
2026-05-09 15:11:18.173,2,-1.32,-1.17,-0.06,12.838199999999999,10.857600000000001,43.047000000000004,175,75
2026-05-09 15:11:18.184,2,-0.92,-0.95,-0.2,28.5082,51.5276,29.877000000000002,175,75
2026-05-09 15:11:18.200,2,-0.5,-0.71,-0.12,66.2482,-29.3824,10.297,175,75
2026-05-09 15:11:18.208,2,-0.29,-0.72,0.18,113.7482,-154.8724,-22.262999999999998,175,75
2026-05-09 15:11:18.219,2,-0.24,-0.95,0.19,98.56819999999999,-252.61239999999998,-33.423,175,75
2026-05-09 15:11:18.249,2,-0.99,-0.71,-0.28,-37.2218,-297.92240000000004,-79.583,175,75
2026-05-09 15:11:18.311,2,-0.54,-0.3,-0.25,148.6882,112.1976,43.717,175,75
2026-05-09 15:11:18.311,2,-0.32,-0.48,0.12,111.9282,128.1776,80.787,175,75
2026-05-09 15:11:18.334,2,-0.72,-0.16,0.34,14.848199999999999,216.2276,34.387,175,75
2026-05-09 15:11:18.360,2,-0.2,-0.18,0.49,12.7182,-0.8523999999999994,-37.202999999999996,175,75
2026-05-09 15:11:18.392,2,-0.07,-0.41,0.5,5.158199999999999,-168.2824,-47.013,175,75
2026-05-09 15:11:18.408,2,-0.22,-0.39,0.41,-15.9418,-183.9624,-47.503,175,75
2026-05-09 15:11:18.408,2,-0.34,-0.31,0.28,-30.1518,-150.6624,-51.103,175,75
2026-05-09 15:11:18.420,2,-0.31,-0.23,0.16,-28.751800000000003,-102.3724,-49.272999999999996,175,75
2026-05-09 15:11:18.460,2,0.04,-0.04,0.18,10.2182,14.0276,-9.152999999999999,175,75
2026-05-09 15:11:18.479,2,0.2,-0.12,0.34,12.8982,55.127599999999994,10.847000000000001,175,75
2026-05-09 15:11:18.497,2,0.29,-0.17,0.5,9.2982,70.9776,9.937000000000001,175,75
2026-05-09 15:11:18.509,2,0.36,-0.21,0.63,13.8782,73.7276,-1.8329999999999993,175,75
2026-05-09 15:11:18.541,2,0.91,-0.35,1.1,55.0982,98.4176,-44.092999999999996,175,75
2026-05-09 15:11:18.563,2,0.97,-0.44,1.4,93.26820000000001,44.6976,-32.083,175,75
2026-05-09 15:11:18.630,2,0.77,-0.44,1.55,136.9282,-26.092399999999998,-127.32300000000001,175,75
2026-05-09 15:11:18.684,2,0.62,-0.53,1.25,122.8382,-202.1924,-133.303,175,75
2026-05-09 15:11:18.699,2,0.55,-0.59,1.14,117.16820000000001,-211.64239999999998,-142.503,175,75
2026-05-09 15:11:18.716,2,0.45,-0.66,0.73,95.94819999999999,-234.3224,-156.103,175,75
2026-05-09 15:11:18.729,2,0.39,-0.57,0.47,66.2482,-295.9724,-176.533,175,75
2026-05-09 15:11:18.742,2,0.4,-0.51,0.34,31.4982,-346.5824,-210.863,175,75
2026-05-09 15:11:18.791,2,0.12,-0.6,-0.44,-168.1418,-218.0424,-116.593,175,75
2026-05-09 15:11:18.811,2,0.07,-0.66,-0.64,-226.3718,-144.20239999999998,-104.823,175,75
2026-05-09 15:11:18.839,2,0.24,-0.89,-0.66,-218.0118,-45.6624,-96.833,175,75
2026-05-09 15:11:18.868,2,0.03,-0.63,-0.63,-196.9818,-0.6023999999999994,-111.953,175,75
2026-05-09 15:11:18.877,2,0.26,-0.48,-0.6,-189.7218,6.7776,-134.093,175,75
2026-05-09 15:11:18.887,2,0.4,-0.4,-0.58,-191.1218,17.4476,-133.363,175,75
2026-05-09 15:11:18.901,2,0.49,-0.44,-0.5,-203.2018,61.647600000000004,-141.953,175,75
2026-05-09 15:11:18.913,2,0.61,-0.53,-0.32,-202.8318,87.1976,-152.873,175,75
2026-05-09 15:11:18.929,2,0.69,-0.53,-0.13,-201.43179999999998,121.3476,-159.153,175,75
2026-05-09 15:11:18.952,2,0.75,-0.45,0.31,-184.2318,198.4776,-184.823,175,75
2026-05-09 15:11:18.952,2,0.81,-0.47,0.49,-163.4418,218.60760000000002,-204.513,175,75
2026-05-09 15:11:18.964,2,0.88,-0.49,0.67,-132.77179999999998,228.0576,-219.213,175,75
2026-05-09 15:11:18.975,2,0.85,-0.45,0.83,-105.64179999999999,225.1276,-228.363,175,75
2026-05-09 15:11:18.988,2,0.78,-0.37,1.05,-80.21180000000001,239.3376,-238.113,175,75
2026-05-09 15:11:19.001,2,0.73,-0.24,1.28,-50.4518,280.9776,-246.043,175,75
2026-05-09 15:11:19.022,2,0.81,-0.13,1.5,-20.3318,304.39759999999995,-238.97299999999998,175,75
2026-05-09 15:11:19.022,2,0.77,0.04,1.72,5.398199999999999,263.7276,-223.903,175,75
2026-05-09 15:11:19.034,2,0.6,0.2,1.81,32.1682,175.0676,-212.693,175,75
2026-05-09 15:11:19.071,2,0.48,0.3,1.83,58.2682,41.3476,-188.233,175,75
2026-05-09 15:11:19.082,2,0.46,0.34,1.67,72.7182,30.1276,-167.623,175,75
2026-05-09 15:11:19.092,2,0.45,0.41,1.55,89.0582,36.3476,-148.783,175,75
2026-05-09 15:11:19.104,2,0.46,0.43,1.64,124.84819999999999,114.2776,-119.883,175,75
2026-05-09 15:11:19.114,2,0.55,0.26,1.83,146.4982,163.23760000000001,-108.233,175,75
2026-05-09 15:11:19.135,2,0.52,-0.17,2.22,178.2682,167.8076,-87.323,175,75
2026-05-09 15:11:19.145,2,0.23,-0.21,2.33,185.09820000000002,165.4976,-86.163,175,75
2026-05-09 15:11:19.159,2,-0.02,-0.14,2.28,199.0582,157.38760000000002,-97.263,175,75
2026-05-09 15:11:19.193,2,-0.02,-0.13,2.21,268.0782,5.0076,-127.38300000000001,175,75
2026-05-09 15:11:19.208,2,0.22,-0.22,2.11,280.2182,-18.6524,-102.993,175,75
2026-05-09 15:11:19.220,2,0.25,-0.44,2.08,298.20820000000003,18.1776,-89.883,175,75
2026-05-09 15:11:19.235,2,0.34,-0.68,2.03,318.9982,42.9276,-80.43299999999999,175,75
2026-05-09 15:11:19.246,2,0.26,-0.85,2.06,339.9082,51.7776,-68.54299999999999,175,75
2026-05-09 15:11:19.260,2,0.13,-0.98,2.12,354.1782,57.257600000000004,-75.803,175,75
2026-05-09 15:11:19.271,2,0.14,-1.11,2.23,366.0682,59.9476,-104.213,175,75
2026-05-09 15:11:19.283,2,0.01,-1.13,2.23,365.8882,53.2376,-110.493,175,75
2026-05-09 15:11:19.294,2,0.09,-1.31,2.06,369.9682,22.4476,-110.193,175,75
2026-05-09 15:11:19.304,2,-0.6,-1.78,2.74,404.9082,31.037599999999998,-294.153,175,75
2026-05-09 15:11:19.318,2,1.18,-0.94,2.16,346.0082,132.9976,-41.283,175,75
2026-05-09 15:11:19.336,2,-0.47,-0.77,2.3,356.0082,83.9076,-5.862999999999999,175,75
2026-05-09 15:11:19.346,2,-0.71,-1.3,2.72,413.7582,139.88760000000002,-22.503,175,75
2026-05-09 15:11:19.346,2,-0.11,-2.0,3.02,391.4382,168.1776,33.837,175,75
2026-05-09 15:11:19.361,2,-0.04,-2.11,3.08,400.7682,104.39760000000001,77.437,175,75
2026-05-09 15:11:19.372,2,0.18,-2.7,3.39,440.33820000000003,18.5376,97.127,175,75
2026-05-09 15:11:19.385,2,0.33,-3.32,3.32,444.1182,11.6476,121.397,175,75
2026-05-09 15:11:19.408,2,0.42,-4.77,2.83,510.64820000000003,106.3476,129.93699999999998,175,75
2026-05-09 15:11:19.418,2,1.09,-5.28,2.86,590.5182,114.57759999999999,165.057,175,75
2026-05-09 15:11:19.432,2,1.77,-5.45,3.14,639.2982,78.7876,203.167,175,75
2026-05-09 15:11:19.442,2,2.0,-6.18,3.43,660.7082,-17.6124,230.727,175,75
2026-05-09 15:11:19.453,2,1.99,-7.06,3.36,661.7982,-97.98240000000001,228.407,175,75
2026-05-09 15:11:19.453,2,1.97,-7.92,3.04,677.2882,-156.70239999999998,217.187,175,75
2026-05-09 15:11:19.465,2,2.0,-8.27,2.65,721.0082,-185.8524,194.017,175,75
2026-05-09 15:11:19.489,2,1.99,-8.28,2.79,820.9482,-232.8024,140.727,175,75
2026-05-09 15:11:19.499,2,1.58,-8.51,2.77,811.1282,-274.3224,80.117,175,75
2026-05-09 15:11:19.522,2,1.77,-8.75,2.42,793.8782,-373.8924,-15.192999999999998,175,75
2026-05-09 15:11:19.533,2,2.52,-8.42,1.87,776.5582,-442.80240000000003,-82.143,175,75
2026-05-09 15:11:19.533,2,2.16,-8.27,1.29,753.1482,-384.1424,-110.063,175,75
2026-05-09 15:11:19.543,2,1.82,-8.07,0.93,734.7882,-292.1324,-164.333,175,75
2026-05-09 15:11:19.558,2,1.94,-7.55,0.69,724.9682,-190.17239999999998,-209.883,175,75
2026-05-09 15:11:19.584,2,2.26,-6.97,0.73,736.6782000000001,-126.39240000000001,-248.363,175,75
2026-05-09 15:11:19.584,2,2.49,-6.63,1.02,733.8782,-116.82239999999999,-267.62300000000005,175,75
2026-05-09 15:11:19.594,2,2.4,-6.5,1.08,715.8882,-128.9624,-285.863,175,75
2026-05-09 15:11:19.606,2,2.27,-6.36,0.97,696.4982,-146.39239999999998,-305.19300000000004,175,75
2026-05-09 15:11:19.620,2,1.99,-5.83,0.74,673.7582,-142.4324,-329.033,175,75
2026-05-09 15:11:19.642,2,1.79,-5.23,0.6,647.5982,-106.0924,-340.12300000000005,175,75
2026-05-09 15:11:19.652,2,1.47,-4.25,0.45,604.2982,-34.632400000000004,-334.64300000000003,175,75
2026-05-09 15:11:19.668,2,1.36,-3.8,0.46,586.6782000000001,-0.9723999999999986,-322.32300000000004,175,75
2026-05-09 15:11:19.668,2,1.22,-3.27,0.52,566.3182,35.1276,-300.37300000000005,175,75
2026-05-09 15:11:19.680,2,1.1,-2.79,0.56,545.3382,57.507600000000004,-273.233,175,75
2026-05-09 15:11:19.692,2,0.94,-2.33,0.51,521.6182,51.4676,-245.733,175,75
2026-05-09 15:11:19.704,2,0.76,-1.94,0.4,502.4682,34.6376,-230.553,175,75
2026-05-09 15:11:19.704,2,0.6,-1.58,0.37,485.45820000000003,23.967599999999997,-220.313,175,75
2026-05-09 15:11:19.748,2,0.43,-0.58,0.46,429.6082,60.73760000000001,-145.923,175,75
2026-05-09 15:11:19.759,2,0.34,-0.4,0.47,409.7282,38.9076,-123.423,175,75
2026-05-09 15:11:19.772,2,0.28,-0.28,0.37,379.9082,-14.0824,-117.013,175,75
2026-05-09 15:11:19.790,2,-0.0,-0.24,0.4,353.5682,-42.1924,-125.923,175,75
2026-05-09 15:11:19.805,2,-0.24,-0.06,0.27,296.0082,-9.812399999999998,-132.933,175,75
2026-05-09 15:11:19.805,2,-0.29,0.09,0.24,274.0582,17.2576,-125.31299999999999,175,75
2026-05-09 15:11:19.818,2,-0.48,0.28,0.29,252.4682,64.6976,-110.313,175,75
2026-05-09 15:11:19.838,2,-0.58,0.44,0.4,237.7782,128.5376,-98.723,175,75
2026-05-09 15:11:19.851,2,-0.54,0.58,0.49,231.9282,176.6476,-87.693,175,75
2026-05-09 15:11:19.873,2,-0.53,0.71,0.7,217.7782,226.7176,-70.673,175,75
2026-05-09 15:11:19.883,2,-0.59,0.74,0.94,186.9282,295.5576,-51.342999999999996,175,75
2026-05-09 15:11:19.900,2,-0.63,0.75,1.04,167.7182,330.7376,-42.503,175,75
2026-05-09 15:11:19.912,2,-0.72,0.77,1.15,141.9282,369.2176,-33.053,175,75
2026-05-09 15:11:19.923,2,-0.79,0.77,1.23,125.3382,384.14759999999995,-27.202999999999996,175,75
2026-05-09 15:11:19.946,2,-0.86,0.73,1.34,103.56819999999999,382.7476,-14.512999999999998,175,75
2026-05-09 15:11:19.958,2,-0.82,0.65,1.41,86.2482,347.50759999999997,5.9670000000000005,175,75
2026-05-09 15:11:19.958,2,-0.67,0.6,1.45,70.3382,281.3476,35.547,175,75
2026-05-09 15:11:19.969,2,-0.5,0.59,1.48,58.0782,220.4976,63.657000000000004,175,75
2026-05-09 15:11:19.981,2,-0.24,0.6,1.43,44.4882,147.2576,100.727,175,75
2026-05-09 15:11:20.002,2,-0.19,0.39,1.14,10.8882,11.9576,121.577,175,75
2026-05-09 15:11:20.013,2,0.11,0.23,0.78,-9.111800000000002,-74.8124,162.437,175,75
2026-05-09 15:11:20.051,2,1.38,-0.17,0.2,-169.96179999999998,-113.35239999999999,261.457,175,75
2026-05-09 15:11:20.051,2,1.71,0.01,-0.15,-208.3818,-93.2224,362.49699999999996,175,75
2026-05-09 15:11:20.076,2,1.15,-0.79,-0.66,-255.5118,102.07759999999999,502.79699999999997,175,75
2026-05-09 15:11:20.088,2,1.9,-1.66,-0.65,-259.60179999999997,127.13760000000002,489.267,175,75
2026-05-09 15:11:20.106,2,2.71,-2.19,-0.39,-227.0418,138.1776,496.887,175,75
2026-05-09 15:11:20.116,2,3.36,-2.5,0.19,-206.6118,168.5376,526.457,175,75
2026-05-09 15:11:20.144,2,3.83,-2.31,1.21,-314.1118,20.4276,479.137,175,75
2026-05-09 15:11:20.159,2,3.75,-2.31,1.61,-313.4418,-6.0924,438.467,175,75
2026-05-09 15:11:20.172,2,3.61,-2.22,2.07,-299.4818,-49.5724,396.887,175,75
2026-05-09 15:11:20.180,2,3.25,-2.03,2.2,-301.9218,-122.8024,345.35699999999997,175,75
2026-05-09 15:11:20.191,2,3.0,-1.59,1.94,-305.3318,-247.86239999999998,281.767,175,75
2026-05-09 15:11:20.205,2,2.53,-1.2,1.36,-288.8118,-267.0024,241.397,175,75
2026-05-09 15:11:20.220,2,1.89,-0.86,0.92,-261.6718,-157.0024,205.607,175,75
2026-05-09 15:11:20.258,2,1.57,-0.1,1.98,-109.23179999999999,265.06759999999997,166.097,175,75
2026-05-09 15:11:20.270,2,1.17,0.09,2.37,-86.3118,262.50759999999997,180.177,175,75
2026-05-09 15:11:20.293,2,0.85,0.19,2.47,-74.3518,238.1176,149.017,175,75
2026-05-09 15:11:20.293,2,0.67,0.33,2.57,-74.17179999999999,151.8976,96.337,175,75
2026-05-09 15:11:20.314,2,0.65,0.54,2.56,-120.15179999999998,-160.7224,37.987,175,75
2026-05-09 15:11:20.314,2,0.61,0.75,2.39,-154.6618,-278.9624,28.717000000000002,175,75
2026-05-09 15:11:20.338,2,0.64,0.93,1.98,-172.40179999999998,-361.3324,9.567,175,75
2026-05-09 15:11:20.350,2,0.62,0.99,1.67,-163.2018,-393.04240000000004,-6.162999999999999,175,75
2026-05-09 15:11:20.417,2,0.63,0.82,1.1,-25.9418,-179.8124,-31.952999999999996,175,75
2026-05-09 15:11:20.440,2,0.61,0.73,1.19,-44.8418,24.6976,107.437,175,75
2026-05-09 15:11:20.453,2,0.54,0.49,1.44,-81.8518,51.7176,142.737,175,75
2026-05-09 15:11:20.453,2,0.48,0.49,1.28,-88.5618,53.6676,154.747,175,75
2026-05-09 15:11:20.457,2,0.34,0.59,1.08,-84.5418,28.6676,150.547,175,75
2026-05-09 15:11:20.474,2,0.02,0.77,0.94,-66.67179999999999,12.997600000000002,114.877,175,75
2026-05-09 15:11:20.494,2,-0.13,0.98,1.06,2.8381999999999987,112.92760000000001,-43.483,175,75
2026-05-09 15:11:20.504,2,0.25,0.94,1.19,33.2682,84.51759999999999,-107.753,175,75
2026-05-09 15:11:20.528,2,0.12,0.94,0.96,33.9982,-121.4624,-179.703,175,75
2026-05-09 15:11:20.540,2,0.01,0.97,0.85,20.1582,-194.3824,-188.233,175,75
2026-05-09 15:11:20.552,2,0.16,0.9,0.76,2.408199999999999,-248.5324,-161.283,175,75
2026-05-09 15:11:20.564,2,0.04,0.87,0.61,2.168199999999999,-227.1924,-24.273,175,75
2026-05-09 15:11:20.604,2,-0.51,-0.0,0.35,25.2782,-220.0524,225.117,175,75
2026-05-09 15:11:20.614,2,-0.21,-1.25,0.12,31.5582,-111.88239999999999,-179.033,175,75
2026-05-09 15:11:20.614,2,-0.67,-1.38,0.12,-33.0118,81.2276,-249.033,175,75
2026-05-09 15:11:20.624,2,2.81,0.32,-0.65,56.5582,61.037600000000005,-70.983,175,75
2026-05-09 15:11:20.667,2,-0.05,0.77,-0.07,86.5582,13.967600000000001,27.067,175,75
2026-05-09 15:11:20.679,2,-0.02,-0.26,-0.36,52.7782,1.1676000000000002,78.34700000000001,175,75
2026-05-09 15:11:20.692,2,-0.29,-0.56,-0.4,59.4282,137.07760000000002,71.45700000000001,175,75
2026-05-09 15:11:20.705,2,-0.2,-0.48,-0.5,44.788199999999996,258.7876,103.107,175,75
2026-05-09 15:11:20.725,2,-0.23,-0.0,0.04,52.538199999999996,298.1776,108.527,175,75
2026-05-09 15:11:20.738,2,0.08,0.01,0.45,96.79820000000001,280.6776,83.657,175,75
2026-05-09 15:11:20.751,2,0.91,-0.41,0.54,99.0582,-20.3024,33.167,175,75
2026-05-09 15:11:20.768,2,0.83,-0.44,0.55,53.3282,-244.5024,27.247,175,75
2026-05-09 15:11:20.785,2,0.18,-0.23,0.14,-24.541800000000002,-473.4724,-25.433,175,75
2026-05-09 15:11:20.804,2,-0.26,-0.17,-0.21,-30.1518,-383.2224,-49.213,175,75
2026-05-09 15:11:20.819,2,-0.6,0.06,-0.71,35.7682,-81.5224,-46.533,175,75
2026-05-09 15:11:20.819,2,-0.1,0.15,-0.72,90.03819999999999,41.7776,-32.202999999999996,175,75
2026-05-09 15:11:20.831,2,0.12,0.15,-0.1,122.16820000000001,105.0076,-3.973,175,75
2026-05-09 15:11:20.844,2,0.32,0.09,0.36,114.9082,154.63760000000002,36.027,175,75
2026-05-09 15:11:20.855,2,0.56,0.02,0.43,82.7782,113.4176,85.787,175,75
2026-05-09 15:11:20.887,2,0.51,0.02,0.38,56.4382,39.397600000000004,113.527,175,75
2026-05-09 15:11:20.899,2,0.19,-0.04,0.32,37.7782,-25.1124,74.507,175,75
2026-05-09 15:11:20.899,2,-0.25,-0.12,0.23,36.2482,-31.272399999999998,-5.553,175,75
2026-05-09 15:11:20.928,2,0.12,-0.16,0.19,37.048199999999994,-18.9624,-51.893,175,75
2026-05-09 15:11:20.928,2,0.42,-0.05,0.25,37.5382,-8.472399999999999,-56.833,175,75
2026-05-09 15:11:20.951,2,0.47,0.13,0.28,43.9382,7.3276,27.127000000000002,175,75
2026-05-09 15:11:20.962,2,0.36,0.01,0.26,38.688199999999995,5.6175999999999995,33.837,175,75
2026-05-09 15:11:20.968,2,0.08,-0.13,0.24,30.5782,31.037599999999998,20.237000000000002,175,75
2026-05-09 15:11:20.994,2,0.46,-1.17,0.61,28.568199999999997,145.85760000000002,-44.943,175,75
2026-05-09 15:11:21.046,2,0.75,-1.13,0.73,49.4282,91.0376,2.3770000000000007,175,75
2026-05-09 15:11:21.046,2,0.56,-0.52,0.62,70.8882,18.7876,3.657000000000001,175,75
2026-05-09 15:11:21.046,2,0.4,0.05,0.52,93.50819999999999,-65.36240000000001,-20.732999999999997,175,75
2026-05-09 15:11:21.095,2,1.21,-0.27,1.25,109.0582,330.3076,108.59700000000001,175,75
2026-05-09 15:11:21.107,2,0.58,-0.44,1.36,136.4382,387.8076,32.307,175,75
2026-05-09 15:11:21.107,2,1.03,-0.56,1.54,155.5782,365.7376,32.987,175,75
2026-05-09 15:11:21.151,2,1.06,0.05,2.16,158.9982,-152.1924,-16.043,175,75
2026-05-09 15:11:21.151,2,0.95,-0.02,2.05,127.4682,-215.6024,-28.113,175,75
2026-05-09 15:11:21.163,2,0.82,-0.09,1.84,89.72819999999999,-233.2824,-40.193,175,75
2026-05-09 15:11:21.173,2,0.71,-0.12,1.63,61.1882,-229.0224,-55.923,175,75
2026-05-09 15:11:21.199,2,0.81,-0.14,1.56,86.06819999999999,-153.1024,-67.563,175,75
2026-05-09 15:11:21.209,2,0.95,-0.37,1.71,110.88820000000001,-137.6724,-46.413,175,75
2026-05-09 15:11:21.220,2,0.89,-0.55,1.76,110.57820000000001,-150.5424,-37.933,175,75
2026-05-09 15:11:21.242,2,0.8,-0.59,1.71,95.76820000000001,-186.2124,-32.202999999999996,175,75
2026-05-09 15:11:21.257,2,0.77,-0.59,1.31,86.4382,-261.7624,-38.483,175,75
2026-05-09 15:11:21.302,2,1.18,-0.52,0.63,42.7782,-353.4724,-64.763,175,75
2026-05-09 15:11:21.330,2,0.89,-0.36,-0.04,-71.73179999999999,-301.4624,-65.673,175,75
2026-05-09 15:11:21.354,2,0.54,-0.4,-0.69,-145.7018,-90.85239999999999,-112.383,175,75
2026-05-09 15:11:21.378,2,0.98,-0.69,-0.48,-155.9418,-11.5224,-142.693,175,75
2026-05-09 15:11:21.390,2,1.31,-0.99,-0.24,-196.3718,25.007600000000004,-139.333,175,75
2026-05-09 15:11:21.401,2,1.46,-1.16,-0.15,-237.71179999999998,39.5176,-119.643,175,75
2026-05-09 15:11:21.412,2,1.28,-1.16,-0.16,-244.72179999999997,27.7476,-111.65299999999999,175,75
2026-05-09 15:11:21.422,2,1.05,-1.05,-0.24,-222.8918,-1.8823999999999987,-114.033,175,75
2026-05-09 15:11:21.435,2,1.13,-0.98,-0.13,-199.7218,4.8276,-134.583,175,75
2026-05-09 15:11:21.445,2,1.26,-0.89,0.03,-191.6718,31.037599999999998,-140.193,175,75
2026-05-09 15:11:21.457,2,1.29,-0.75,0.19,-183.8718,44.9476,-159.093,175,75
2026-05-09 15:11:21.479,2,1.19,-0.56,0.42,-156.1218,23.177599999999998,-212.933,175,75
2026-05-09 15:11:21.571,2,0.63,-0.19,0.33,-76.55180000000001,113.9676,-263.843,175,75
