Time,ID,Ax,Ay,Az,Gx,Gy,Gz,Height,Weight
2026-05-07 18:34:13.325,2,0.26,0.19,0.33,-55.032999999999994,101.5012,-10.839199999999998,175,75
2026-05-07 18:34:13.344,2,0.26,0.13,0.38,-55.272999999999996,134.3112,-18.709200000000003,175,75
2026-05-07 18:34:13.357,2,0.31,0.11,0.42,-60.452999999999996,144.3112,-23.589199999999998,175,75
2026-05-07 18:34:13.417,2,0.39,0.1,0.67,-69.293,185.2812,-54.319199999999995,175,75
2026-05-07 18:34:13.478,2,0.33,0.0,1.03,-45.153,137.2312,-63.099199999999996,175,75
2026-05-07 18:34:13.506,2,0.32,-0.05,1.06,-39.293,102.9712,-58.8292,175,75
2026-05-07 18:34:13.506,2,0.32,-0.06,1.04,-37.533,96.99119999999999,-56.3892,175,75
2026-05-07 18:34:13.547,2,0.31,-0.05,1.02,-34.543,79.3112,-47.8592,175,75
2026-05-07 18:34:13.547,2,0.31,-0.08,1.02,-32.283,72.9112,-44.25920000000001,175,75
2026-05-07 18:34:13.564,2,0.3,-0.15,1.04,-32.653,63.88119999999999,-39.0792,175,75
2026-05-07 18:34:13.573,2,0.24,-0.22,1.07,-30.092999999999996,64.8612,-25.6592,175,75
2026-05-07 18:34:13.580,2,0.25,-0.18,1.08,-29.603,60.5912,-19.9292,175,75
2026-05-07 18:34:13.597,2,0.23,-0.12,1.1,-28.442999999999998,56.7512,-15.659199999999998,175,75
2026-05-07 18:34:13.597,2,0.24,-0.02,1.14,-25.213,55.0412,-8.6492,175,75
2026-05-07 18:34:13.624,2,0.29,0.08,1.15,-25.213,46.3812,-2.9192,175,75
2026-05-07 18:34:13.676,2,0.23,0.44,1.34,-6.252999999999999,66.5012,11.840799999999998,175,75
2026-05-07 18:34:13.698,2,0.12,0.49,1.25,1.987,-45.448800000000006,10.740799999999998,175,75
2026-05-07 18:34:13.704,2,0.07,0.55,1.14,-6.372999999999999,-86.0588,18.180799999999998,175,75
2026-05-07 18:34:13.734,2,-0.06,0.66,1.11,-9.482999999999999,-78.4388,24.950799999999997,175,75
2026-05-07 18:34:13.734,2,-0.02,0.8,1.15,-0.032999999999999474,-42.028800000000004,33.550799999999995,175,75
2026-05-07 18:34:13.766,2,0.4,0.85,1.78,61.917,-46.9088,25.500799999999998,175,75
2026-05-07 18:34:13.814,2,0.21,1.28,0.82,121.797,-1.178799999999999,0.37079999999999913,175,75
2026-05-07 18:34:13.814,2,0.42,0.84,1.08,134.237,77.3012,18.970799999999997,175,75
2026-05-07 18:34:13.832,2,1.01,-0.26,1.78,136.857,-7.6388,30.1308,175,75
2026-05-07 18:34:13.845,2,0.89,-0.47,1.8,132.657,-128.8588,48.6108,175,75
2026-05-07 18:34:13.862,2,0.58,-0.42,1.27,98.20700000000001,-206.47879999999998,50.440799999999996,175,75
2026-05-07 18:34:13.868,2,0.51,-0.28,0.96,87.467,-175.62879999999998,42.8108,175,75
2026-05-07 18:34:13.905,2,-0.33,0.08,0.57,112.777,-102.6388,80.5008,175,75
2026-05-07 18:34:13.918,2,0.57,-0.35,1.04,120.457,60.161199999999994,37.8708,175,75
2026-05-07 18:34:13.939,2,1.01,-0.38,1.8,107.34700000000001,-69.95880000000001,52.8708,175,75
2026-05-07 18:34:13.951,2,0.9,-0.21,1.65,89.667,-109.7788,35.5008,175,75
2026-05-07 18:34:13.978,2,0.9,0.08,1.1,91.187,-74.5288,34.9508,175,75
2026-05-07 18:34:14.008,2,0.76,0.11,1.02,115.767,1.9911999999999992,37.7508,175,75
2026-05-07 18:34:14.040,2,0.58,0.09,1.43,160.517,107.4212,45.3108,175,75
2026-05-07 18:34:14.059,2,0.48,0.03,1.99,178.687,49.1212,13.790799999999999,175,75
2026-05-07 18:34:14.070,2,0.42,0.39,1.73,151.437,-100.50880000000001,21.470799999999997,175,75
2026-05-07 18:34:14.070,2,0.36,0.57,1.52,152.407,-138.12879999999998,27.8708,175,75
2026-05-07 18:34:14.070,2,0.26,0.64,1.35,160.707,-129.8388,20.3108,175,75
2026-05-07 18:34:14.109,2,0.32,0.24,1.74,220.02700000000002,38.4512,-9.809200000000004,175,75
2026-05-07 18:34:14.137,2,0.3,0.07,1.82,212.287,2.6012000000000004,-9.6892,175,75
2026-05-07 18:34:14.137,2,0.16,-0.05,1.79,209.907,-48.7988,-0.4192,175,75
2026-05-07 18:34:14.181,2,0.0,-0.18,1.73,217.837,-78.7988,8.550799999999999,175,75
2026-05-07 18:34:14.189,2,0.15,-0.57,1.52,206.317,-92.1588,-1.4492000000000012,175,75
2026-05-07 18:34:14.205,2,0.07,-0.57,1.27,227.717,-29.3488,8.8508,175,75
2026-05-07 18:34:14.232,2,0.08,-0.42,1.33,227.957,26.2612,22.5108,175,75
2026-05-07 18:34:14.238,2,0.18,-0.33,1.43,208.327,38.821200000000005,39.3408,175,75
2026-05-07 18:34:14.304,2,0.24,-0.26,1.48,195.157,36.0212,52.1408,175,75
2026-05-07 18:34:14.304,2,0.3,-0.13,1.52,179.05700000000002,22.9112,65.5608,175,75
2026-05-07 18:34:14.314,2,0.39,0.01,1.53,163.877,11.4412,78.4808,175,75
2026-05-07 18:34:14.326,2,0.51,0.21,1.6,146.677,-9.288800000000002,97.6308,175,75
2026-05-07 18:34:14.338,2,0.4,0.29,1.58,142.837,-76.11880000000001,110.3708,175,75
2026-05-07 18:34:14.348,2,0.34,0.34,1.48,149.177,-109.89880000000001,110.0708,175,75
2026-05-07 18:34:14.354,2,0.37,0.49,1.34,170.767,-117.88880000000002,95.9208,175,75
2026-05-07 18:34:14.364,2,0.33,0.59,1.27,181.497,-114.22879999999999,90.0708,175,75
2026-05-07 18:34:14.382,2,0.17,0.7,1.18,192.597,-87.9488,84.5808,175,75
2026-05-07 18:34:14.444,2,0.05,0.72,1.14,198.877,-55.8788,83.7308,175,75
2026-05-07 18:34:14.456,2,-0.08,0.67,1.16,209.357,11.3812,94.2808,175,75
2026-05-07 18:34:14.456,2,-0.1,0.63,1.21,209.607,19.2512,99.5208,175,75
2026-05-07 18:34:14.456,2,-0.08,0.55,1.31,206.677,-11.358799999999999,99.4008,175,75
2026-05-07 18:34:14.467,2,-0.18,0.52,1.28,208.937,-51.6088,98.4808,175,75
2026-05-07 18:34:14.517,2,-0.72,0.24,0.88,204.05700000000002,-148.7988,106.9008,175,75
2026-05-07 18:34:14.517,2,-0.99,-0.09,0.54,205.337,-205.0788,111.4708,175,75
2026-05-07 18:34:14.530,2,-1.14,-0.25,0.4,202.467,-216.0588,109.4008,175,75
2026-05-07 18:34:14.556,2,-1.44,-0.48,0.12,188.567,-213.4388,100.1308,175,75
2026-05-07 18:34:14.588,2,-1.94,-0.7,-0.58,116.677,-133.6188,42.020799999999994,175,75
2026-05-07 18:34:14.588,2,-2.08,-0.7,-0.82,61.73700000000001,-72.0288,3.8507999999999996,175,75
2026-05-07 18:34:14.622,2,-1.81,-0.86,-0.85,18.747,43.3912,10.980799999999999,175,75
2026-05-07 18:34:14.622,2,-1.41,-1.09,-0.72,-37.592999999999996,213.7012,149.6408,175,75
2026-05-07 18:34:14.632,2,-1.6,-1.48,-0.59,-104.483,350.0412,287.0808,175,75
2026-05-07 18:34:14.632,2,-1.28,-2.27,-0.53,-206.063,424.8012,343.55080000000004,175,75
2026-05-07 18:34:14.653,2,-0.64,-4.49,0.14,-397.83299999999997,192.1712,147.6308,175,75
2026-05-07 18:34:14.676,2,0.29,-4.49,0.6,-625.033,199.2512,164.6408,175,75
2026-05-07 18:34:14.687,2,-0.08,-5.59,0.57,-707.343,245.9512,187.75080000000003,175,75
2026-05-07 18:34:14.697,2,-0.06,-6.93,0.72,-729.173,324.8012,134.76080000000002,175,75
2026-05-07 18:34:14.705,2,0.03,-7.64,1.09,-742.533,408.1512,99.7608,175,75
2026-05-07 18:34:14.752,2,0.65,-6.77,2.94,-689.293,433.82120000000003,-38.1592,175,75
2026-05-07 18:34:14.780,2,0.58,-6.19,3.41,-655.453,305.8912,-94.3792,175,75
2026-05-07 18:34:14.780,2,0.39,-5.06,3.36,-627.833,201.62120000000002,-128.2792,175,75
2026-05-07 18:34:14.791,2,-0.11,-2.82,2.75,-523.013,230.1012,-148.88920000000002,175,75
2026-05-07 18:34:14.801,2,-0.3,-1.76,2.37,-416.983,374.1212,-145.1092,175,75
2026-05-07 18:34:14.814,2,0.39,-0.97,2.04,-254.603,435.2212,-155.3592,175,75
2026-05-07 18:34:14.826,2,0.34,-0.86,2.46,-147.403,426.69120000000004,-134.49919999999997,175,75
2026-05-07 18:34:14.837,2,-0.14,-1.08,3.06,-96.12299999999999,420.5912,-117.6092,175,75
2026-05-07 18:34:14.848,2,-0.44,-1.08,3.45,-87.283,291.8712,-137.42919999999998,175,75
2026-05-07 18:34:14.858,2,-0.85,-0.63,3.49,-92.593,98.5212,-176.99919999999997,175,75
2026-05-07 18:34:14.886,2,-0.32,0.63,2.28,-136.183,-50.50880000000001,-152.18920000000003,175,75
2026-05-07 18:34:14.905,2,-0.74,1.04,2.18,-124.783,45.0412,-128.88920000000002,175,75
2026-05-07 18:34:14.905,2,-1.13,1.04,2.3,-98.083,141.5612,-168.5892,175,75
2026-05-07 18:34:14.922,2,-1.08,0.74,2.62,-38.443,261.6912,-184.37920000000003,175,75
2026-05-07 18:34:14.932,2,-1.01,0.5,2.9,3.8770000000000007,253.9412,-159.31920000000002,175,75
2026-05-07 18:34:14.947,2,-1.18,0.43,3.06,35.097,198.9412,-134.49919999999997,175,75
2026-05-07 18:34:14.961,2,-1.19,0.6,3.08,74.907,90.10119999999999,-109.80919999999999,175,75
2026-05-07 18:34:14.969,2,-1.02,0.8,2.75,108.447,-19.838800000000003,-69.9892,175,75
2026-05-07 18:34:14.987,2,-1.16,0.73,2.21,114.667,-68.1288,-32.489200000000004,175,75
2026-05-07 18:34:15.000,2,-1.27,0.62,2.05,114.607,-39.778800000000004,-33.4092,175,75
2026-05-07 18:34:15.017,2,-1.21,0.51,1.84,155.827,11.2012,-28.1592,175,75
2026-05-07 18:34:15.028,2,-1.16,0.5,1.8,178.447,12.421199999999999,-17.489200000000004,175,75
2026-05-07 18:34:15.040,2,-1.11,0.47,1.77,187.957,4.001199999999999,-6.519200000000001,175,75
2026-05-07 18:34:15.040,2,-0.97,0.43,1.72,185.517,-11.178799999999999,2.9407999999999994,175,75
2026-05-07 18:34:15.054,2,-0.89,0.39,1.61,180.02700000000002,-27.088800000000003,13.180799999999998,175,75
2026-05-07 18:34:15.066,2,-0.93,0.41,1.5,181.677,-43.3788,25.130799999999997,175,75
2026-05-07 18:34:15.110,2,-1.81,0.42,1.68,199.667,-74.5888,39.2808,175,75
2026-05-07 18:34:15.110,2,-0.95,0.04,1.58,202.227,-117.3388,-9.019199999999998,175,75
2026-05-07 18:34:15.123,2,0.17,-0.23,1.42,173.017,-138.3088,-1.2692000000000014,175,75
2026-05-07 18:34:15.133,2,-0.47,0.12,1.15,186.317,-148.1888,33.4208,175,75
2026-05-07 18:34:15.142,2,-0.49,0.48,0.83,202.837,-140.1388,26.9608,175,75
2026-05-07 18:34:15.159,2,-1.0,0.52,0.85,226.917,-50.9988,42.5108,175,75
2026-05-07 18:34:15.170,2,-0.88,0.37,0.87,260.457,67.9712,60.5608,175,75
2026-05-07 18:34:15.195,2,-0.4,0.19,1.36,265.337,76.4412,88.4208,175,75
2026-05-07 18:34:15.206,2,-0.36,-0.06,1.58,243.877,4.3712,92.8108,175,75
2026-05-07 18:34:15.219,2,-0.14,-0.82,1.8,217.77700000000002,-99.1688,97.6908,175,75
2026-05-07 18:34:15.230,2,0.09,-1.7,1.88,214.727,-146.47879999999998,88.0008,175,75
2026-05-07 18:34:15.238,2,0.18,-2.25,1.96,238.137,-145.56879999999998,85.6208,175,75
2026-05-07 18:34:15.244,2,0.22,-2.7,1.94,285.947,-144.4688,103.7908,175,75
2026-05-07 18:34:15.262,2,0.17,-3.21,1.96,342.227,-174.16879999999998,114.5808,175,75
2026-05-07 18:34:15.270,2,0.51,-3.43,1.91,411.797,-207.6388,121.6608,175,75
2026-05-07 18:34:15.283,2,0.93,-3.61,1.85,477.657,-208.2488,119.8908,175,75
2026-05-07 18:34:15.296,2,1.06,-4.1,1.92,541.067,-167.2788,134.0908,175,75
2026-05-07 18:34:15.310,2,1.4,-4.61,2.02,586.987,-136.78879999999998,145.9808,175,75
2026-05-07 18:34:15.320,2,1.63,-4.76,2.1,613.017,-160.87879999999998,157.51080000000002,175,75
2026-05-07 18:34:15.335,2,1.62,-4.87,2.18,623.267,-219.5288,160.25080000000003,175,75
2026-05-07 18:34:15.343,2,1.18,-5.06,2.15,614.847,-327.8888,161.3508,175,75
2026-05-07 18:34:15.369,2,0.41,-4.94,1.71,551.377,-453.1888,80.9808,175,75
2026-05-07 18:34:15.369,2,0.19,-4.4,1.28,486.987,-472.7688,15.130799999999999,175,75
2026-05-07 18:34:15.379,2,0.08,-3.89,0.83,432.047,-469.2888,-41.2692,175,75
2026-05-07 18:34:15.391,2,0.03,-3.44,0.43,397.107,-451.6088,-85.2992,175,75
2026-05-07 18:34:15.406,2,-0.01,-2.72,-0.02,383.817,-388.3788,-122.12920000000001,175,75
2026-05-07 18:34:15.435,2,-0.29,-1.25,-0.2,387.047,-161.66879999999998,-103.58919999999999,175,75
2026-05-07 18:34:15.447,2,-0.39,-0.67,0.03,372.837,-30.328799999999998,-83.9492,175,75
2026-05-07 18:34:15.459,2,-0.35,-0.29,0.16,357.957,40.7712,-66.3892,175,75
2026-05-07 18:34:15.469,2,-0.3,-0.05,0.29,338.387,66.8112,-54.869200000000006,175,75
2026-05-07 18:34:15.473,2,-0.27,0.19,0.42,309.237,68.6412,-46.5192,175,75
2026-05-07 18:34:15.496,2,-0.21,0.51,0.61,257.107,26.2612,-28.279200000000003,175,75
2026-05-07 18:34:15.507,2,-0.25,0.6,0.64,240.707,3.9412000000000003,-13.949200000000005,175,75
2026-05-07 18:34:15.523,2,-0.39,0.62,0.66,215.157,-26.298800000000004,0.6207999999999991,175,75
2026-05-07 18:34:15.536,2,-0.44,0.63,0.65,200.947,-33.4988,1.6607999999999983,175,75
2026-05-07 18:34:15.566,2,-0.52,0.72,0.6,179.727,-48.308800000000005,5.3108,175,75
2026-05-07 18:34:15.584,2,-0.52,0.83,0.61,157.047,-53.00880000000001,5.680799999999998,175,75
2026-05-07 18:34:15.595,2,-0.5,0.87,0.61,144.787,-48.1888,8.2408,175,75
2026-05-07 18:34:15.603,2,-0.49,0.91,0.6,134.05700000000002,-42.8888,8.8508,175,75
2026-05-07 18:34:15.616,2,-0.51,0.91,0.61,125.637,-36.178799999999995,8.1208,175,75
2026-05-07 18:34:15.636,2,-0.54,0.87,0.6,113.81700000000001,-30.8088,3.120799999999999,175,75
2026-05-07 18:34:15.647,2,-0.58,0.83,0.61,109.48700000000001,-34.7188,-5.049200000000003,175,75
2026-05-07 18:34:15.658,2,-0.62,0.8,0.59,105.827,-38.068799999999996,-13.339199999999998,175,75
2026-05-07 18:34:15.680,2,-0.67,0.79,0.57,102.34700000000001,-35.3288,-20.2992,175,75
2026-05-07 18:34:15.700,2,-0.76,0.78,0.52,102.837,-8.9788,-24.319200000000002,175,75
2026-05-07 18:34:15.709,2,-0.76,0.78,0.52,100.827,11.8712,-25.1092,175,75
2026-05-07 18:34:15.733,2,-0.72,0.81,0.54,93.687,69.2512,-20.4792,175,75
2026-05-07 18:34:15.763,2,-0.66,0.82,0.57,90.767,97.4812,-9.8692,175,75
2026-05-07 18:34:15.785,2,-0.6,0.74,0.62,78.077,88.3312,5.980799999999999,175,75
2026-05-07 18:34:15.817,2,-0.54,0.54,0.64,53.077000000000005,60.5312,30.1308,175,75
2026-05-07 18:34:15.825,2,-0.54,0.46,0.61,39.297000000000004,55.831199999999995,26.2308,175,75
2026-05-07 18:34:15.837,2,-0.56,0.39,0.63,21.436999999999998,58.3912,22.5108,175,75
2026-05-07 18:34:15.860,2,-0.34,0.24,0.63,-56.183,66.8712,11.050799999999999,175,75
2026-05-07 18:34:15.860,2,-0.27,0.22,0.58,-105.093,59.0612,10.4408,175,75
2026-05-07 18:34:15.889,2,-0.39,0.21,0.53,-242.653,74.7312,38.0008,175,75
2026-05-07 18:34:15.900,2,-0.46,0.1,0.57,-307.163,127.7212,64.76079999999999,175,75
2026-05-07 18:34:15.911,2,-0.41,-0.11,0.65,-365.823,198.3912,96.4708,175,75
2026-05-07 18:34:15.930,2,0.17,-0.6,0.79,-448.683,295.0412,128.4808,175,75
2026-05-07 18:34:15.930,2,0.83,-1.1,0.86,-510.033,306.8112,130.2508,175,75
2026-05-07 18:34:15.953,2,0.39,-1.72,0.66,-616.123,210.1612,140.5608,175,75
2026-05-07 18:34:15.967,2,0.07,-2.34,0.78,-658.503,291.0212,123.6108,175,75
2026-05-07 18:34:15.991,2,0.61,-3.94,1.84,-717.773,660.8911999999999,5.190799999999999,175,75
2026-05-07 18:34:16.016,2,2.0,-3.99,4.01,-654.723,733.2711999999999,-148.4092,175,75
2026-05-07 18:34:16.028,2,1.06,-3.8,4.89,-690.513,358.82120000000003,-104.1392,175,75
2026-05-07 18:34:16.043,2,0.81,-4.01,4.86,-655.643,308.88120000000004,-112.6092,175,75
2026-05-07 18:34:16.043,2,0.19,-3.76,4.09,-558.813,112.54119999999999,-155.3592,175,75
2026-05-07 18:34:16.054,2,-0.6,-3.47,3.45,-485.823,-24.408800000000003,-273.7692,175,75
2026-05-07 18:34:16.062,2,-0.42,-3.12,3.1,-479.783,-16.6088,-342.9792,175,75
2026-05-07 18:34:16.071,2,-0.03,-2.67,2.7,-479.723,15.341199999999999,-356.5792,175,75
2026-05-07 18:34:16.085,2,0.62,-2.23,2.12,-443.873,85.04119999999999,-296.5792,175,75
2026-05-07 18:34:16.100,2,0.04,-1.89,1.65,-321.313,223.52120000000002,-209.55919999999998,175,75
2026-05-07 18:34:16.111,2,-0.38,-1.85,1.76,-207.283,320.95120000000003,-220.29919999999998,175,75
2026-05-07 18:34:16.136,2,0.16,-1.56,2.31,-92.343,293.45120000000003,-194.80919999999998,175,75
2026-05-07 18:34:16.146,2,-0.23,-1.31,2.43,-56.433,122.9712,-153.88920000000002,175,75
2026-05-07 18:34:16.158,2,-0.58,-1.25,2.42,-43.992999999999995,52.3612,-149.74919999999997,175,75
2026-05-07 18:34:16.202,2,-0.66,-0.18,1.67,-6.922999999999999,-72.1588,-97.7392,175,75
2026-05-07 18:34:16.227,2,-0.4,0.39,1.48,28.507000000000005,-89.0488,-81.14920000000001,175,75
2026-05-07 18:34:16.238,2,-0.41,0.66,1.33,45.767,-74.1088,-70.7792,175,75
2026-05-07 18:34:16.256,2,-0.75,0.93,1.17,87.837,20.5912,-74.0192,175,75
2026-05-07 18:34:16.262,2,-0.77,0.98,1.19,105.887,76.9912,-68.4692,175,75
2026-05-07 18:34:16.271,2,-0.68,0.89,1.36,121.31700000000001,129.3112,-60.419200000000004,175,75
2026-05-07 18:34:16.286,2,-0.48,0.81,1.49,124.547,124.49119999999999,-64.4392,175,75
2026-05-07 18:34:16.311,2,-0.49,0.96,1.67,129.05700000000002,6.9312000000000005,-54.0192,175,75
2026-05-07 18:34:16.320,2,-0.41,1.08,1.59,125.517,-51.3588,-53.949200000000005,175,75
2026-05-07 18:34:16.346,2,-0.23,0.94,1.16,118.507,-82.45880000000001,-61.3892,175,75
2026-05-07 18:34:16.352,2,-0.3,0.88,1.17,135.767,-25.7488,-61.8792,175,75
2026-05-07 18:34:16.387,2,0.03,0.49,1.13,138.017,15.0412,-56.6392,175,75
2026-05-07 18:34:16.416,2,0.42,0.02,1.36,155.887,18.9412,-62.429199999999994,175,75
2026-05-07 18:34:16.441,2,0.28,-0.5,1.35,166.797,-56.2388,-63.8292,175,75
2026-05-07 18:34:16.464,2,0.46,-0.85,1.1,168.137,-43.61880000000001,-28.2192,175,75
2026-05-07 18:34:16.464,2,0.5,-0.99,1.01,179.847,-13.858799999999999,-14.749200000000002,175,75
2026-05-07 18:34:16.509,2,1.21,-0.84,1.76,234.417,12.4812,25.0708,175,75
2026-05-07 18:34:16.532,2,0.51,-1.12,1.89,234.237,-249.5888,19.220799999999997,175,75
2026-05-07 18:34:16.561,2,0.13,-1.18,0.72,239.967,-232.7688,-9.629200000000004,175,75
2026-05-07 18:34:16.571,2,-0.14,-1.06,0.57,254.17700000000002,-112.39880000000001,-4.2592,175,75
2026-05-07 18:34:16.581,2,-0.22,-0.92,0.55,261.91700000000003,-1.0588000000000015,1.7807999999999993,175,75
2026-05-07 18:34:16.618,2,-0.05,-0.52,0.86,271.497,177.4812,20.1308,175,75
2026-05-07 18:34:16.629,2,0.33,-0.27,1.63,294.967,65.2212,20.3708,175,75
2026-05-07 18:34:16.666,2,0.04,-0.11,1.5,250.827,-82.2188,24.950799999999997,175,75
2026-05-07 18:34:16.714,2,-0.12,0.28,1.36,280.027,3.2712000000000003,4.5808,175,75
2026-05-07 18:34:16.726,2,-0.12,0.29,1.56,288.207,12.1112,-0.9692000000000007,175,75
2026-05-07 18:34:16.726,2,-0.18,0.28,1.71,288.267,12.8412,-1.2092000000000027,175,75
2026-05-07 18:34:16.753,2,-0.18,0.19,2.0,279.787,-3.5588000000000015,9.460799999999999,175,75
2026-05-07 18:34:16.784,2,-0.15,-1.22,2.47,268.207,-85.8088,120.6208,175,75
2026-05-07 18:34:16.795,2,-0.47,-1.65,2.46,262.837,-69.7188,167.69080000000002,175,75
2026-05-07 18:34:16.816,2,-1.11,-1.91,2.15,282.527,-27.948800000000002,166.4708,175,75
2026-05-07 18:34:16.828,2,-1.35,-1.57,1.94,330.637,-15.018799999999999,66.0508,175,75
2026-05-07 18:34:16.838,2,-0.6,-1.17,2.2,372.777,-3.5588000000000015,-38.4092,175,75
2026-05-07 18:34:16.850,2,0.56,-1.12,2.71,391.797,-1.0588000000000015,-60.53920000000001,175,75
2026-05-07 18:34:16.860,2,0.78,-1.27,2.85,368.387,24.9212,28.0608,175,75
2026-05-07 18:34:16.883,2,-0.17,-1.05,2.48,347.107,-142.3988,270.3708,175,75
2026-05-07 18:34:16.933,2,0.03,-1.16,1.88,389.847,-53.00880000000001,144.5208,175,75
2026-05-07 18:34:16.943,2,0.02,-1.07,1.73,377.957,-33.1288,186.05079999999998,175,75
2026-05-07 18:34:16.956,2,-0.14,-1.05,1.56,362.777,-20.8088,217.75080000000003,175,75
2026-05-07 18:34:16.969,2,-0.32,-1.06,1.43,358.017,-9.468800000000002,227.94080000000002,175,75
2026-05-07 18:34:16.972,2,-0.45,-1.06,1.3,362.227,5.411199999999999,215.74079999999998,175,75
2026-05-07 18:34:17.011,2,-0.15,-1.0,1.0,326.91700000000003,44.7312,211.5308,175,75
2026-05-07 18:34:17.022,2,-0.07,-0.91,0.75,300.217,-13.0688,213.00080000000003,175,75
2026-05-07 18:34:17.037,2,-0.13,-0.83,0.57,279.607,-79.2288,208.7308,175,75
2026-05-07 18:34:17.050,2,-0.15,-0.89,0.19,244.357,-191.5488,184.1608,175,75
2026-05-07 18:34:17.082,2,-2.45,-1.04,-1.68,156.737,-466.3588,111.0508,175,75
2026-05-07 18:34:17.093,2,-3.01,-1.01,-2.21,140.767,-358.4388,110.1908,175,75
2026-05-07 18:34:17.104,2,-3.06,-0.98,-2.68,104.297,-135.1388,180.74079999999998,175,75
2026-05-07 18:34:17.116,2,-2.81,-1.16,-2.77,8.327,114.2512,280.2508,175,75
2026-05-07 18:34:17.127,2,-2.1,-1.56,-2.53,-115.273,261.8112,303.7908,175,75
2026-05-07 18:34:17.138,2,-1.29,-1.72,-1.81,-211.793,387.4812,317.87080000000003,175,75
2026-05-07 18:34:17.149,2,-0.8,-1.92,-1.39,-229.543,369.3112,326.5908,175,75
2026-05-07 18:34:17.172,2,-0.62,-3.05,-0.38,-350.643,268.8212,299.5808,175,75
2026-05-07 18:34:17.172,2,-0.58,-3.82,-0.15,-415.033,264.4312,257.6308,175,75
2026-05-07 18:34:17.197,2,-0.51,-4.98,0.19,-483.813,300.7112,214.4608,175,75
2026-05-07 18:34:17.209,2,-0.3,-5.8,0.44,-538.383,344.7312,182.45080000000002,175,75
2026-05-07 18:34:17.221,2,0.51,-5.74,1.45,-616.313,515.1012,106.2908,175,75
2026-05-07 18:34:17.246,2,1.11,-6.36,2.4,-590.703,457.3612,56.5908,175,75
2026-05-07 18:34:17.256,2,1.24,-6.41,3.0,-586.673,361.7512,10.1908,175,75
2026-05-07 18:34:17.267,2,1.27,-6.16,3.67,-597.953,253.8812,-52.6092,175,75
2026-05-07 18:34:17.279,2,1.22,-5.49,3.55,-617.713,178.09120000000001,-48.4092,175,75
2026-05-07 18:34:17.296,2,0.42,-3.41,2.25,-520.883,-10.3888,-57.059200000000004,175,75
2026-05-07 18:34:17.307,2,-0.11,-2.82,1.87,-480.093,76.9912,-76.2092,175,75
2026-05-07 18:34:17.319,2,-0.0,-2.09,1.61,-404.173,351.32120000000003,-119.0792,175,75
2026-05-07 18:34:17.330,2,0.46,-1.65,1.76,-312.223,569.1311999999999,-131.1492,175,75
2026-05-07 18:34:17.341,2,0.46,-1.39,2.65,-199.97299999999998,741.0812,-132.9792,175,75
2026-05-07 18:34:17.355,2,1.21,-1.09,3.52,-182.713,625.4712,-181.75920000000002,175,75
2026-05-07 18:34:17.366,2,0.14,-0.74,4.05,-236.433,248.3912,-168.6492,175,75
2026-05-07 18:34:17.382,2,-0.52,0.65,3.76,-210.093,51.38119999999999,-196.93920000000003,175,75
2026-05-07 18:34:17.396,2,-0.08,1.17,2.99,-82.533,-59.778800000000004,-143.7692,175,75
2026-05-07 18:34:17.403,2,-0.35,1.02,2.64,4.727,-86.4188,-86.2092,175,75
2026-05-07 18:34:17.422,2,-0.96,0.51,2.49,-24.903,87.9712,-134.92919999999998,175,75
2026-05-07 18:34:17.456,2,-0.66,0.79,3.04,133.207,118.4512,-96.5192,175,75
2026-05-07 18:34:17.479,2,-0.92,0.74,2.96,143.077,-29.718799999999998,-77.9792,175,75
2026-05-07 18:34:17.488,2,-0.95,0.75,2.59,139.487,-120.32880000000002,-51.209199999999996,175,75
2026-05-07 18:34:17.528,2,-1.16,0.1,1.81,186.55700000000002,-40.568799999999996,-36.9392,175,75
2026-05-07 18:34:17.550,2,-1.19,0.1,1.76,222.107,-10.448800000000002,-34.989200000000004,175,75
2026-05-07 18:34:17.566,2,-1.15,0.11,1.74,249.48700000000002,10.831199999999999,-29.559200000000004,175,75
2026-05-07 18:34:17.577,2,-1.11,0.12,1.72,259.967,30.6512,-13.339199999999998,175,75
2026-05-07 18:34:17.619,2,-1.03,-0.01,1.68,268.627,21.141199999999998,13.480799999999999,175,75
2026-05-07 18:34:17.642,2,-0.9,-0.12,1.6,273.327,-14.898800000000001,24.8908,175,75
2026-05-07 18:34:17.652,2,-0.93,-0.14,1.56,273.447,-53.97880000000001,36.410799999999995,175,75
2026-05-07 18:34:17.667,2,-1.2,-0.14,1.56,274.727,-105.6888,52.020799999999994,175,75
2026-05-07 18:34:17.677,2,-1.36,-0.14,1.49,281.497,-135.9388,58.7308,175,75
2026-05-07 18:34:17.688,2,-1.83,-0.45,1.66,297.047,-177.69879999999998,20.500799999999998,175,75
2026-05-07 18:34:17.688,2,-0.42,-1.35,1.59,278.077,-209.8388,-109.9892,175,75
2026-05-07 18:34:17.716,2,0.41,-0.82,1.41,281.857,-55.50880000000001,27.3908,175,75
2026-05-07 18:34:17.726,2,-0.29,0.15,0.36,283.877,-171.66879999999998,69.76079999999999,175,75
2026-05-07 18:34:17.737,2,-1.28,0.06,0.72,309.487,-98.1888,33.2408,175,75
2026-05-07 18:34:17.772,2,-0.19,-0.65,1.59,345.827,138.3912,82.6908,175,75
2026-05-07 18:34:17.772,2,0.02,-1.06,1.88,297.287,13.8812,99.2808,175,75
2026-05-07 18:34:17.783,2,0.09,-1.67,1.98,279.057,-109.7188,97.0208,175,75
2026-05-07 18:34:17.795,2,0.2,-2.44,1.91,278.747,-207.6388,97.2608,175,75
2026-05-07 18:34:17.806,2,0.34,-2.8,1.83,286.007,-219.16879999999998,103.3008,175,75
2026-05-07 18:34:17.806,2,0.28,-2.92,1.89,303.507,-186.1188,103.7908,175,75
2026-05-07 18:34:17.816,2,0.49,-3.01,1.98,337.287,-147.0288,114.0908,175,75
2026-05-07 18:34:17.839,2,0.51,-3.07,1.86,409.967,-195.2688,140.3108,175,75
2026-05-07 18:34:17.850,2,0.87,-3.17,1.87,457.837,-159.1088,136.11079999999998,175,75
2026-05-07 18:34:17.850,2,1.4,-3.94,2.04,539.547,-95.3888,182.26080000000002,175,75
2026-05-07 18:34:17.869,2,1.47,-4.09,2.28,568.327,-114.2888,194.4608,175,75
2026-05-07 18:34:17.894,2,1.49,-4.14,2.56,573.207,-166.47879999999998,215.92079999999999,175,75
2026-05-07 18:34:17.918,2,0.66,-4.08,1.9,511.85699999999997,-390.1988,133.1808,175,75
2026-05-07 18:34:17.929,2,0.97,-2.85,0.9,432.837,-458.1888,58.1808,175,75
2026-05-07 18:34:17.942,2,-0.04,-1.87,0.22,361.127,-361.54879999999997,-1.5792000000000002,175,75
2026-05-07 18:34:17.952,2,-0.17,-1.38,-0.13,336.377,-262.9488,-50.2992,175,75
2026-05-07 18:34:17.965,2,0.08,-0.22,-0.06,355.157,-54.838800000000006,-28.0392,175,75
2026-05-07 18:34:17.976,2,0.07,0.18,0.15,363.077,13.2712,-6.269200000000001,175,75
2026-05-07 18:34:17.988,2,0.02,0.49,0.35,342.717,36.321200000000005,-2.9192,175,75
2026-05-07 18:34:18.002,2,-0.04,0.64,0.47,310.947,26.751199999999997,-6.879200000000001,175,75
2026-05-07 18:34:18.016,2,-0.09,0.75,0.55,267.107,-0.6288,-9.559200000000004,175,75
2026-05-07 18:34:18.028,2,-0.19,0.79,0.57,227.227,-31.7888,-11.7592,175,75
2026-05-07 18:34:18.038,2,-0.35,0.77,0.51,193.327,-63.1288,-10.479199999999999,175,75
2026-05-07 18:34:18.044,2,-0.49,0.74,0.45,176.677,-72.9488,-14.0792,175,75
2026-05-07 18:34:18.066,2,-0.53,0.74,0.41,167.287,-39.898799999999994,-20.599200000000003,175,75
2026-05-07 18:34:18.077,2,-0.51,0.78,0.43,160.767,-10.808800000000002,-15.7192,175,75
2026-05-07 18:34:18.087,2,-0.47,0.84,0.45,149.297,2.2311999999999994,-7.919200000000004,175,75
2026-05-07 18:34:18.100,2,-0.43,0.89,0.48,135.27700000000002,-0.748800000000001,-2.0592000000000006,175,75
2026-05-07 18:34:18.113,2,-0.41,0.93,0.51,121.987,-12.2788,-0.5991999999999997,175,75
2026-05-07 18:34:18.126,2,-0.39,0.94,0.53,109.727,-29.408800000000003,-1.4492000000000012,175,75
2026-05-07 18:34:18.136,2,-0.41,0.93,0.52,105.217,-48.2488,-4.199200000000001,175,75
2026-05-07 18:34:18.147,2,-0.44,0.89,0.54,103.507,-60.8788,-7.549199999999999,175,75
2026-05-07 18:34:18.159,2,-0.47,0.84,0.55,101.007,-68.00880000000001,-12.429200000000002,175,75
2026-05-07 18:34:18.170,2,-0.53,0.81,0.55,95.027,-74.8388,-19.559200000000004,175,75
2026-05-07 18:34:18.184,2,-0.59,0.8,0.52,83.81700000000001,-70.8788,-35.239200000000004,175,75
2026-05-07 18:34:18.211,2,-0.63,0.82,0.44,73.62700000000001,-67.8288,-41.6392,175,75
2026-05-07 18:34:18.211,2,-0.63,0.83,0.4,70.09700000000001,-49.0488,-42.1892,175,75
2026-05-07 18:34:18.235,2,-0.62,0.84,0.37,65.767,-11.238800000000001,-43.8292,175,75
2026-05-07 18:34:18.247,2,-0.59,0.86,0.4,59.967,43.0912,-40.479200000000006,175,75
2026-05-07 18:34:18.261,2,-0.54,0.85,0.48,54.17700000000001,88.7012,-30.9692,175,75
2026-05-07 18:34:18.261,2,-0.43,0.82,0.56,49.057,116.6912,-25.779200000000003,175,75
2026-05-07 18:34:18.285,2,-0.4,0.83,0.58,44.547000000000004,115.8312,-20.599200000000003,175,75
2026-05-07 18:34:18.288,2,-0.5,0.89,0.54,44.967000000000006,82.0512,-13.889200000000002,175,75
2026-05-07 18:34:18.303,2,-0.63,0.92,0.53,47.167,56.081199999999995,-10.239200000000004,175,75
2026-05-07 18:34:18.327,2,-0.62,0.86,0.53,26.377000000000002,66.8712,-2.3092000000000006,175,75
2026-05-07 18:34:18.339,2,-0.55,0.78,0.55,-0.9429999999999996,95.8312,7.020799999999998,175,75
2026-05-07 18:34:18.362,2,-0.48,0.56,0.62,-61.253,181.08120000000002,29.8908,175,75
2026-05-07 18:34:18.381,2,-0.32,0.45,0.8,-143.623,213.15120000000002,42.020799999999994,175,75
2026-05-07 18:34:18.398,2,-0.16,0.39,0.87,-191.003,214.12120000000002,41.410799999999995,175,75
2026-05-07 18:34:18.409,2,-0.03,0.31,0.88,-234.903,203.3912,43.6108,175,75
2026-05-07 18:34:18.414,2,0.0,0.21,0.83,-291.183,186.3212,53.9708,175,75
2026-05-07 18:34:18.427,2,0.03,0.05,0.82,-343.683,184.80120000000002,70.6208,175,75
2026-05-07 18:34:18.438,2,0.33,-0.34,0.86,-410.453,211.2612,86.8408,175,75
2026-05-07 18:34:18.448,2,0.87,-0.76,0.93,-460.093,235.2212,89.5208,175,75
2026-05-07 18:34:18.459,2,0.78,-1.08,0.91,-514.053,242.9112,117.6908,175,75
2026-05-07 18:34:18.473,2,0.36,-1.2,0.96,-547.713,274.5512,125.1908,175,75
2026-05-07 18:34:18.483,2,0.17,-1.47,1.14,-581.063,333.1512,105.9208,175,75
2026-05-07 18:34:18.494,2,0.26,-1.89,1.52,-610.763,422.6612,71.9608,175,75
2026-05-07 18:34:18.505,2,0.94,-2.69,2.06,-630.823,538.3312,12.390799999999999,175,75
2026-05-07 18:34:18.516,2,1.41,-3.26,2.34,-613.933,519.1912,-30.5392,175,75
2026-05-07 18:34:18.527,2,1.37,-3.33,2.84,-586.733,438.45120000000003,-50.2392,175,75
2026-05-07 18:34:18.538,2,1.56,-3.2,3.56,-566.313,360.8312,-84.0192,175,75
2026-05-07 18:34:18.549,2,1.59,-2.96,3.92,-570.883,292.9712,-100.4792,175,75
2026-05-07 18:34:18.549,2,1.45,-2.77,3.78,-563.143,210.0412,-116.3292,175,75
2026-05-07 18:34:18.572,2,0.85,-2.66,3.12,-495.883,125.04119999999999,-172.48919999999998,175,75
2026-05-07 18:34:18.572,2,0.53,-2.68,2.73,-451.373,101.2012,-241.93919999999997,175,75
2026-05-07 18:34:18.586,2,0.6,-2.67,2.5,-428.933,109.8012,-287.7392,175,75
2026-05-07 18:34:18.597,2,0.64,-2.42,2.19,-394.783,186.08120000000002,-277.3692,175,75
2026-05-07 18:34:18.608,2,0.15,-2.15,1.85,-322.713,308.2112,-267.5492,175,75
2026-05-07 18:34:18.619,2,-0.4,-1.92,1.81,-248.383,405.3412,-260.4792,175,75
2026-05-07 18:34:18.636,2,-0.73,-1.8,2.04,-161.183,535.7112,-281.0292,175,75
2026-05-07 18:34:18.642,2,-0.54,-1.64,2.23,-93.143,605.6511999999999,-292.2492,175,75
2026-05-07 18:34:18.658,2,0.36,-1.23,2.57,-27.473,544.5512,-263.2192,175,75
2026-05-07 18:34:18.668,2,0.04,-0.94,2.54,1.0070000000000014,293.94120000000004,-211.0892,175,75
2026-05-07 18:34:18.679,2,-0.27,-0.89,2.27,-9.293,160.2212,-210.9092,175,75
2026-05-07 18:34:18.691,2,-0.28,-0.73,1.92,-22.893,104.3712,-191.75920000000002,175,75
2026-05-07 18:34:18.701,2,-0.43,-0.53,1.67,-20.583,84.6712,-157.6692,175,75
2026-05-07 18:34:18.714,2,-0.7,-0.3,1.58,1.0070000000000014,93.2712,-133.4692,175,75
2026-05-07 18:34:18.726,2,-0.69,-0.08,1.6,23.137,95.2212,-119.86919999999999,175,75
2026-05-07 18:34:18.737,2,-0.57,0.08,1.66,31.677,58.0912,-105.77919999999999,175,75
2026-05-07 18:34:18.751,2,-0.47,0.3,1.69,29.417,-13.2488,-86.3892,175,75
2026-05-07 18:34:18.762,2,-0.39,0.47,1.64,25.577000000000005,-59.7188,-74.4392,175,75
2026-05-07 18:34:18.762,2,-0.35,0.6,1.53,25.577000000000005,-95.2688,-68.5292,175,75
2026-05-07 18:34:18.774,2,-0.39,0.65,1.4,30.637,-105.6288,-64.8092,175,75
2026-05-07 18:34:18.785,2,-0.55,0.69,1.22,42.897000000000006,-88.00880000000001,-63.099199999999996,175,75
2026-05-07 18:34:18.823,2,-0.76,0.82,1.12,91.917,-5.998799999999999,-58.4092,175,75
2026-05-07 18:34:18.823,2,-0.61,0.87,1.21,94.48700000000001,-8.858799999999999,-55.7792,175,75
2026-05-07 18:34:18.830,2,-0.55,0.97,1.31,94.117,-17.338800000000003,-51.6392,175,75
2026-05-07 18:34:18.842,2,-0.74,1.09,1.44,105.70700000000001,-26.6088,-45.479200000000006,175,75
2026-05-07 18:34:18.856,2,-0.39,1.03,1.46,118.62700000000001,-89.1688,-58.64920000000001,175,75
2026-05-07 18:34:18.893,2,-0.68,0.96,1.17,106.677,-90.1388,-52.059200000000004,175,75
2026-05-07 18:34:18.893,2,0.13,1.04,0.74,142.717,-61.6088,-49.9892,175,75
2026-05-07 18:34:18.902,2,-0.42,0.9,0.82,142.047,-70.50880000000001,-43.7692,175,75
2026-05-07 18:34:18.919,2,-0.33,0.56,0.97,141.247,17.4212,-41.5192,175,75
2026-05-07 18:34:18.922,2,0.03,0.3,1.03,146.187,52.1112,-28.1592,175,75
2026-05-07 18:34:18.922,2,0.18,0.11,1.21,148.387,36.8112,-21.7592,175,75
2026-05-07 18:34:18.944,2,0.31,-0.16,1.35,147.77700000000002,2.841199999999999,-24.019199999999998,175,75
2026-05-07 18:34:18.951,2,0.25,-0.4,1.36,144.847,-30.078799999999998,-18.949200000000005,175,75
2026-05-07 18:34:18.978,2,0.04,-0.63,1.31,132.957,-30.938799999999997,21.720799999999997,175,75
2026-05-07 18:34:18.989,2,0.25,-0.49,1.33,130.097,-14.3488,40.1308,175,75
2026-05-07 18:34:19.000,2,0.53,-0.27,1.38,131.187,-9.2288,59.6408,175,75
2026-05-07 18:34:19.000,2,0.66,-0.15,1.49,136.497,-11.5488,66.7808,175,75
2026-05-07 18:34:19.010,2,0.85,-0.15,1.63,148.937,-25.018800000000002,73.4208,175,75
2026-05-07 18:34:19.021,2,0.93,-0.3,1.79,169.487,-71.4788,78.9708,175,75
2026-05-07 18:34:19.036,2,0.88,-0.41,1.85,182.227,-112.8288,80.4408,175,75
2026-05-07 18:34:19.036,2,0.77,-0.47,1.83,189.607,-146.6088,81.1708,175,75
2026-05-07 18:34:19.050,2,0.63,-0.49,1.72,192.837,-169.1088,81.8408,175,75
2026-05-07 18:34:19.061,2,0.43,-0.52,1.5,196.917,-180.19879999999998,80.3108,175,75
2026-05-07 18:34:19.073,2,0.32,-0.57,1.32,201.497,-165.87879999999998,71.9608,175,75
2026-05-07 18:34:19.084,2,0.28,-0.56,1.23,213.507,-119.5288,63.0008,175,75
2026-05-07 18:34:19.096,2,0.26,-0.48,1.25,226.247,-66.5488,61.1708,175,75
2026-05-07 18:34:19.103,2,0.24,-0.31,1.36,237.52700000000002,-26.2388,64.52080000000001,175,75
2026-05-07 18:34:19.128,2,0.28,-0.15,1.52,242.407,-17.0288,65.74080000000001,175,75
2026-05-07 18:34:19.150,2,0.24,0.12,1.69,241.617,-65.9988,66.2308,175,75
2026-05-07 18:34:19.161,2,0.19,0.24,1.7,242.957,-77.0288,60.6808,175,75
2026-05-07 18:34:19.177,2,0.11,0.37,1.71,249.54700000000003,-73.4388,52.690799999999996,175,75
2026-05-07 18:34:19.188,2,0.06,0.49,1.74,257.227,-63.06880000000001,45.3708,175,75
2026-05-07 18:34:19.199,2,-0.01,0.58,1.78,265.397,-51.2988,40.1308,175,75
2026-05-07 18:34:19.199,2,-0.04,0.62,1.84,275.337,-46.8488,34.6408,175,75
2026-05-07 18:34:19.209,2,-0.05,0.59,1.93,283.017,-47.5788,30.0708,175,75
2026-05-07 18:34:19.221,2,-0.07,0.45,2.05,290.277,-53.3788,33.7308,175,75
2026-05-07 18:34:19.231,2,-0.12,0.35,2.11,295.887,-55.0188,38.4208,175,75
2026-05-07 18:34:19.246,2,-0.09,0.15,2.21,304.66700000000003,-60.808800000000005,42.330799999999996,175,75
2026-05-07 18:34:19.266,2,0.05,-0.31,2.4,302.657,-61.78880000000001,51.7208,175,75
2026-05-07 18:34:19.293,2,0.09,-0.71,2.68,297.657,-70.2688,48.550799999999995,175,75
2026-05-07 18:34:19.303,2,0.02,-1.2,2.82,279.907,-74.0488,83.9708,175,75
2026-05-07 18:34:19.326,2,-0.22,-1.64,2.65,257.837,-112.2788,205.44080000000002,175,75
2026-05-07 18:34:19.336,2,-0.66,-1.56,2.28,295.337,-122.1588,121.2908,175,75
2026-05-07 18:34:19.358,2,-0.2,-1.62,2.1,338.017,-119.3488,-15.779200000000003,175,75
2026-05-07 18:34:19.358,2,0.43,-1.58,2.24,352.657,-141.9688,-51.819199999999995,175,75
2026-05-07 18:34:19.370,2,0.67,-1.42,2.35,351.187,-143.6188,-23.889200000000002,175,75
2026-05-07 18:34:19.373,2,0.58,-1.15,2.22,341.007,-110.9988,32.260799999999996,175,75
2026-05-07 18:34:19.385,2,0.42,-0.91,1.95,336.377,-97.39880000000001,89.0308,175,75
2026-05-07 18:34:19.403,2,0.21,-0.84,1.77,339.607,-109.3488,108.0008,175,75
2026-05-07 18:34:19.403,2,0.02,-0.89,1.62,344.057,-90.0788,95.4408,175,75
2026-05-07 18:34:19.415,2,-0.03,-0.94,1.49,348.997,-58.1888,79.8908,175,75
2026-05-07 18:34:19.429,2,0.02,-0.88,1.41,355.887,-12.578800000000001,72.0808,175,75
2026-05-07 18:34:19.457,2,-0.04,-0.63,1.39,349.967,41.8712,120.0108,175,75
2026-05-07 18:34:19.498,2,-0.35,-0.71,1.03,303.137,34.3112,133.7308,175,75
2026-05-07 18:34:19.510,2,-0.44,-0.64,0.85,283.937,37.1712,124.2208,175,75
2026-05-07 18:34:19.522,2,-0.49,-0.51,0.72,264.41700000000003,43.331199999999995,126.1108,175,75
2026-05-07 18:34:19.522,2,-0.51,-0.43,0.63,251.497,41.9912,130.3108,175,75
2026-05-07 18:34:19.545,2,-0.54,-0.34,0.48,237.347,19.1912,135.5608,175,75
2026-05-07 18:34:19.566,2,-0.6,-0.25,0.11,211.067,-102.3388,133.42079999999999,175,75
2026-05-07 18:34:19.587,2,-1.19,-0.26,-0.4,205.02700000000002,-221.41879999999998,137.0208,175,75
2026-05-07 18:34:19.598,2,-1.47,-0.43,-0.78,194.05700000000002,-250.8788,137.1408,175,75
2026-05-07 18:34:19.609,2,-1.88,-0.55,-1.18,152.347,-209.28879999999998,146.9608,175,75
2026-05-07 18:34:19.622,2,-1.84,-0.58,-1.53,78.20700000000001,-82.39880000000001,182.63080000000002,175,75
2026-05-07 18:34:19.622,2,-1.36,-0.65,-1.79,6.247000000000002,1.1411999999999995,208.24079999999998,175,75
2026-05-07 18:34:19.636,2,-1.13,-0.69,-1.73,-89.233,133.7612,246.3508,175,75
2026-05-07 18:34:19.648,2,-0.67,-0.95,-1.57,-136.00300000000001,206.08120000000002,259.0908,175,75
2026-05-07 18:34:19.664,2,-0.53,-1.22,-1.3,-169.603,211.62120000000002,268.7908,175,75
2026-05-07 18:34:19.671,2,-0.4,-1.56,-0.98,-212.653,201.99120000000002,270.2508,175,75
2026-05-07 18:34:19.686,2,-0.16,-2.04,-0.7,-270.33299999999997,188.33120000000002,248.7308,175,75
2026-05-07 18:34:19.690,2,0.11,-2.46,-0.53,-326.063,181.93120000000002,232.51080000000002,175,75
2026-05-07 18:34:19.708,2,-0.01,-3.07,-0.36,-402.533,185.77120000000002,225.44080000000002,175,75
2026-05-07 18:34:19.719,2,-0.07,-3.88,-0.19,-466.003,254.6112,203.8508,175,75
2026-05-07 18:34:19.719,2,0.25,-4.54,0.03,-507.043,311.5012,191.4108,175,75
2026-05-07 18:34:19.753,2,0.7,-5.19,0.93,-556.733,373.2712,164.8308,175,75
2026-05-07 18:34:19.753,2,1.07,-5.47,1.36,-574.483,374.9812,128.1208,175,75
2026-05-07 18:34:19.776,2,1.71,-5.93,2.16,-609.663,318.0312,73.0608,175,75
2026-05-07 18:34:19.812,2,1.32,-5.41,2.76,-597.403,81.99119999999999,11.7808,175,75
2026-05-07 18:34:19.812,2,1.07,-4.54,2.46,-576.253,-17.518800000000002,-8.4692,175,75
2026-05-07 18:34:19.823,2,0.73,-3.63,1.96,-551.673,-11.668800000000001,-25.7192,175,75
2026-05-07 18:34:19.823,2,0.44,-2.91,1.57,-514.783,69.7312,-37.129200000000004,175,75
2026-05-07 18:34:19.862,2,0.41,-1.47,1.51,-331.003,477.3612,-88.03920000000001,175,75
2026-05-07 18:34:19.862,2,0.62,-1.08,2.03,-221.493,664.1311999999999,-94.4992,175,75
2026-05-07 18:34:19.875,2,1.61,-0.83,3.46,-129.293,393.3912,-136.32920000000001,175,75
2026-05-07 18:34:19.886,2,0.04,-0.56,3.85,-167.713,227.7812,-110.77919999999999,175,75
2026-05-07 18:34:19.897,2,-0.18,-0.2,4.05,-155.513,137.5412,-149.92919999999998,175,75
2026-05-07 18:34:19.909,2,-0.31,0.11,3.42,-88.143,-15.7488,-179.74919999999997,175,75
2026-05-07 18:34:19.939,2,-0.38,0.6,2.28,-26.433,-99.89880000000001,-95.9092,175,75
2026-05-07 18:34:19.969,2,-0.16,0.98,2.34,13.877,107.9712,-126.5792,175,75
2026-05-07 18:34:19.991,2,-0.4,0.58,2.94,133.687,49.6112,-111.1492,175,75
2026-05-07 18:34:20.001,2,-0.48,0.56,2.97,143.137,-11.7288,-111.3292,175,75
2026-05-07 18:34:20.001,2,-0.56,0.63,2.83,143.327,-79.5288,-101.7592,175,75
2026-05-07 18:34:20.025,2,-0.71,0.55,2.26,143.687,-168.1888,-61.75920000000001,175,75
2026-05-07 18:34:20.041,2,-0.77,0.36,2.07,143.267,-160.2688,-60.419200000000004,175,75
2026-05-07 18:34:20.054,2,-0.87,0.22,1.88,144.667,-127.0288,-66.7592,175,75
2026-05-07 18:34:20.081,2,-0.91,0.19,1.66,213.877,-31.0588,-78.7692,175,75
2026-05-07 18:34:20.107,2,-0.92,0.08,1.64,229.847,-6.358799999999999,-57.979200000000006,175,75
2026-05-07 18:34:20.120,2,-0.91,0.06,1.61,240.947,-13.738800000000001,-50.53920000000001,175,75
2026-05-07 18:34:20.130,2,-0.89,0.05,1.55,252.46699999999998,-31.968799999999998,-40.3592,175,75
2026-05-07 18:34:20.140,2,-0.94,0.05,1.51,258.267,-55.3888,-29.199200000000005,175,75
2026-05-07 18:34:20.154,2,-1.05,0.01,1.52,262.227,-58.1288,-24.629200000000004,175,75
2026-05-07 18:34:20.179,2,-1.24,-0.53,1.64,298.747,-78.7988,-88.03920000000001,175,75
2026-05-07 18:34:20.182,2,0.47,-0.78,1.53,261.187,-74.5288,-94.6892,175,75
2026-05-07 18:34:20.217,2,-0.75,0.08,0.68,287.957,-97.8888,-28.2192,175,75
2026-05-07 18:34:20.250,2,-0.55,-0.64,1.57,298.937,143.58120000000002,50.5008,175,75
2026-05-07 18:34:20.264,2,-0.37,-1.1,1.7,256.497,44.431200000000004,64.76079999999999,175,75
2026-05-07 18:34:20.276,2,-0.32,-1.61,1.75,228.567,-32.8288,77.6308,175,75
2026-05-07 18:34:20.317,2,-0.18,-2.6,1.7,256.007,27.0512,193.42079999999999,175,75
2026-05-07 18:34:20.336,2,-0.03,-2.46,1.87,291.317,-22.768800000000002,204.5208,175,75
2026-05-07 18:34:20.378,2,0.56,-3.16,1.86,457.287,-303.4988,244.5808,175,75
2026-05-07 18:34:20.389,2,0.72,-3.7,1.73,489.41700000000003,-260.0788,240.25080000000003,175,75
2026-05-07 18:34:20.408,2,0.89,-4.13,1.71,532.287,-232.8288,255.50080000000003,175,75
2026-05-07 18:34:20.420,2,0.79,-4.23,1.94,583.327,-282.6388,256.7808,175,75
2026-05-07 18:34:20.420,2,0.51,-4.14,2.14,611.917,-342.5188,237.51080000000002,175,75
2026-05-07 18:34:20.446,2,0.32,-3.82,1.52,523.567,-383.55879999999996,108.4208,175,75
2026-05-07 18:34:20.460,2,0.5,-3.42,0.99,477.16700000000003,-383.1288,58.120799999999996,175,75
2026-05-07 18:34:20.481,2,0.55,-2.36,0.32,474.607,-312.2188,32.6308,175,75
2026-05-07 18:34:20.493,2,0.33,-1.7,0.2,486.617,-210.56879999999998,41.050799999999995,175,75
2026-05-07 18:34:20.505,2,0.2,-1.27,0.26,474.117,-126.35880000000002,44.160799999999995,175,75
2026-05-07 18:34:20.519,2,0.17,-0.88,0.35,438.817,-58.4388,45.7408,175,75
2026-05-07 18:34:20.582,2,0.03,0.25,0.58,280.577,-82.2188,11.050799999999999,175,75
2026-05-07 18:34:20.590,2,-0.01,0.34,0.53,247.957,-94.5288,-0.779200000000003,175,75
2026-05-07 18:34:20.613,2,-0.13,0.42,0.47,208.207,-96.3588,-16.209200000000003,175,75
2026-05-07 18:34:20.623,2,-0.27,0.43,0.44,189.237,-77.2188,-22.7992,175,75
2026-05-07 18:34:20.638,2,-0.43,0.47,0.41,177.77700000000002,-57.39880000000001,-25.779200000000003,175,75
2026-05-07 18:34:20.648,2,-0.57,0.51,0.43,164.117,-36.5488,-33.4092,175,75
2026-05-07 18:34:20.658,2,-0.64,0.55,0.45,155.397,-16.2988,-36.8192,175,75
2026-05-07 18:34:20.663,2,-0.64,0.6,0.46,146.127,-5.8088000000000015,-36.9392,175,75
2026-05-07 18:34:20.672,2,-0.62,0.63,0.49,131.187,-0.1387999999999998,-37.739200000000004,175,75
2026-05-07 18:34:20.683,2,-0.6,0.63,0.5,111.497,3.7611999999999988,-35.9092,175,75
2026-05-07 18:34:20.706,2,-0.62,0.6,0.51,97.047,1.3211999999999993,-33.6492,175,75
2026-05-07 18:34:20.706,2,-0.66,0.55,0.47,94.117,-4.348800000000001,-36.0292,175,75
2026-05-07 18:34:20.719,2,-0.78,0.51,0.45,95.217,-14.2288,-41.75920000000001,175,75
2026-05-07 18:34:20.742,2,-1.03,0.47,0.46,87.657,-9.3488,-50.9092,175,75
2026-05-07 18:34:20.752,2,-1.09,0.48,0.44,83.327,3.8811999999999998,-55.3592,175,75
2026-05-07 18:34:20.765,2,-1.14,0.51,0.38,78.137,9.8012,-59.199200000000005,175,75
2026-05-07 18:34:20.794,2,-1.03,0.48,0.31,41.377,32.6612,-46.14920000000001,175,75
2026-05-07 18:34:20.831,2,-1.0,0.45,0.24,1.6170000000000009,34.431200000000004,-37.669200000000004,175,75
2026-05-07 18:34:20.831,2,-1.04,0.47,0.2,-16.552999999999997,53.4512,-31.209200000000003,175,75
2026-05-07 18:34:20.836,2,-1.16,0.54,0.13,-31.923000000000002,71.38119999999999,-26.209200000000003,175,75
2026-05-07 18:34:20.847,2,-1.18,0.53,0.11,-46.183,89.7312,-18.4092,175,75
2026-05-07 18:34:20.857,2,-1.12,0.44,0.2,-78.26299999999999,143.0312,4.220799999999997,175,75
2026-05-07 18:34:20.871,2,-0.88,0.32,0.29,-133.203,200.9512,25.9808,175,75
2026-05-07 18:34:20.916,2,-0.36,-0.14,0.73,-295.883,219.8612,56.050799999999995,175,75
2026-05-07 18:34:20.926,2,0.09,-0.43,0.85,-365.273,205.1012,40.5608,175,75
2026-05-07 18:34:20.941,2,0.15,-0.71,0.93,-475.513,186.99120000000002,64.76079999999999,175,75
2026-05-07 18:34:20.974,2,-0.27,-1.32,1.02,-568.383,232.30120000000002,79.1608,175,75
2026-05-07 18:34:20.974,2,-0.48,-2.07,1.18,-612.533,260.9512,48.6108,175,75
2026-05-07 18:34:20.987,2,-0.82,-2.91,1.65,-638.143,355.5912,20.4408,175,75
2026-05-07 18:34:20.998,2,-0.54,-4.0,2.07,-631.923,523.4512,-48.2192,175,75
2026-05-07 18:34:21.011,2,0.01,-4.85,2.39,-620.453,611.6912,-96.6992,175,75
2026-05-07 18:34:21.017,2,-0.33,-5.02,3.49,-612.533,733.6411999999999,-166.2092,175,75
2026-05-07 18:34:21.026,2,-0.42,-4.68,4.25,-602.713,827.6012,-248.1592,175,75
2026-05-07 18:34:21.042,2,2.21,-4.61,5.26,-619.783,705.0412,-326.38919999999996,175,75
2026-05-07 18:34:21.051,2,-0.49,-4.57,5.87,-739.1129999999999,172.05120000000002,-183.4692,175,75
2026-05-07 18:34:21.054,2,-0.5,-5.12,5.32,-708.143,216.5012,-257.5492,175,75
2026-05-07 18:34:21.073,2,-0.73,-4.66,3.98,-627.283,-106.7288,-348.6492,175,75
2026-05-07 18:34:21.089,2,-0.78,-4.11,3.72,-612.403,-119.4688,-396.44919999999996,175,75
2026-05-07 18:34:21.089,2,-0.07,-3.59,3.26,-611.253,-46.3588,-377.3692,175,75
2026-05-07 18:34:21.101,2,0.29,-3.02,2.52,-572.043,51.7512,-264.4992,175,75
2026-05-07 18:34:21.112,2,-0.45,-2.44,2.11,-491.063,203.15120000000002,-181.2692,175,75
2026-05-07 18:34:21.125,2,-1.08,-1.89,1.98,-399.113,362.6012,-176.1492,175,75
2026-05-07 18:34:21.140,2,-1.55,-0.64,2.02,-157.953,638.8811999999999,-191.93920000000003,175,75
2026-05-07 18:34:21.156,2,-1.31,-0.26,2.31,-40.213,681.7511999999999,-191.75920000000002,175,75
2026-05-07 18:34:21.168,2,0.65,-0.21,3.12,37.717000000000006,472.1112,-167.48919999999998,175,75
2026-05-07 18:34:21.188,2,-0.54,-0.0,3.12,7.107000000000001,84.8612,-94.1992,175,75
2026-05-07 18:34:21.198,2,-0.76,0.05,2.45,-31.732999999999997,-30.5688,-123.8892,175,75
2026-05-07 18:34:21.210,2,-0.81,0.27,1.9,-40.823,-84.2288,-86.6392,175,75
2026-05-07 18:34:21.222,2,-0.86,0.49,1.61,-31.552999999999997,-77.7688,-72.3692,175,75
2026-05-07 18:34:21.234,2,-0.82,0.67,1.47,-14.363,-42.5788,-82.3092,175,75
2026-05-07 18:34:21.240,2,-0.62,0.8,1.4,15.517000000000001,12.2312,-88.7692,175,75
2026-05-07 18:34:21.268,2,-0.43,0.78,1.57,61.187,83.21119999999999,-72.8592,175,75
2026-05-07 18:34:21.281,2,-0.36,0.72,1.79,67.227,68.7012,-77.6692,175,75
2026-05-07 18:34:21.281,2,-0.27,0.72,1.89,63.387,33.7612,-77.9792,175,75
2026-05-07 18:34:21.292,2,-0.18,0.76,1.9,57.227000000000004,-19.718799999999998,-69.0792,175,75
2026-05-07 18:34:21.326,2,-0.14,0.77,1.62,45.827000000000005,-113.0688,-56.9992,175,75
2026-05-07 18:34:21.337,2,-0.13,0.74,1.52,44.357,-121.9088,-57.7992,175,75
2026-05-07 18:34:21.349,2,-0.09,0.7,1.48,44.727000000000004,-116.7888,-61.6392,175,75
2026-05-07 18:34:21.349,2,-0.07,0.63,1.47,45.767,-102.3388,-64.9292,175,75
2026-05-07 18:34:21.360,2,-0.03,0.46,1.55,44.237,-79.28880000000001,-65.8392,175,75
2026-05-07 18:34:21.365,2,-0.08,0.29,1.58,41.617000000000004,-67.8288,-63.4092,175,75
2026-05-07 18:34:21.387,2,-0.27,0.07,1.38,47.837,-41.9688,-53.2792,175,75
2026-05-07 18:34:21.397,2,-0.29,-0.04,1.28,58.20700000000001,-18.9188,-50.479200000000006,175,75
2026-05-07 18:34:21.424,2,0.02,-0.1,1.08,84.057,37.051199999999994,-30.3592,175,75
2026-05-07 18:34:21.473,2,0.88,-0.43,1.61,123.62700000000001,-144.4688,61.9608,175,75
2026-05-07 18:34:21.484,2,0.25,-0.42,1.54,146.187,-164.40879999999999,48.1208,175,75
2026-05-07 18:34:21.503,2,0.55,0.02,0.69,138.747,-242.15879999999999,57.0208,175,75
2026-05-07 18:34:21.526,2,0.33,-0.05,0.5,146.187,-130.9988,44.3408,175,75
2026-05-07 18:34:21.542,2,0.56,-0.05,0.54,162.407,55.8912,55.7408,175,75
2026-05-07 18:34:21.566,2,0.59,-0.14,0.78,138.747,21.8112,44.7008,175,75
2026-05-07 18:34:21.597,2,0.54,0.33,0.81,133.137,-58.7388,9.9508,175,75
2026-05-07 18:34:21.600,2,0.54,0.51,0.77,136.617,-69.95880000000001,-0.779200000000003,175,75
2026-05-07 18:34:21.616,2,0.54,0.68,0.72,140.707,-69.28880000000001,-12.739200000000004,175,75
2026-05-07 18:34:21.628,2,0.54,0.72,0.7,143.207,-61.11880000000001,-22.129200000000004,175,75
2026-05-07 18:34:21.647,2,0.5,0.56,0.78,137.897,-40.9388,-48.339200000000005,175,75
2026-05-07 18:34:21.658,2,0.47,0.4,0.81,136.987,-38.918800000000005,-53.2792,175,75
2026-05-07 18:34:21.666,2,0.38,0.17,0.83,136.737,-36.5488,-54.9892,175,75
2026-05-07 18:34:21.680,2,0.36,0.03,0.81,135.097,-21.908800000000003,-50.53920000000001,175,75
2026-05-07 18:34:21.705,2,0.51,-0.04,0.82,131.317,12.171199999999999,-30.3592,175,75
2026-05-07 18:34:21.725,2,0.87,0.21,1.01,139.357,59.551199999999994,-9.989200000000004,175,75
2026-05-07 18:34:21.735,2,1.12,0.24,1.19,148.017,39.6712,-1.029200000000003,175,75
2026-05-07 18:34:21.748,2,0.99,0.2,1.37,155.097,-19.898799999999998,8.000799999999998,175,75
2026-05-07 18:34:21.761,2,0.83,0.17,1.46,153.567,-69.95880000000001,13.180799999999998,175,75
2026-05-07 18:34:21.772,2,0.75,0.18,1.4,148.997,-98.2488,15.130799999999999,175,75
2026-05-07 18:34:21.772,2,0.66,0.21,1.32,150.637,-116.0588,17.5708,175,75
2026-05-07 18:34:21.792,2,0.6,0.17,1.24,162.467,-125.5688,11.960799999999999,175,75
2026-05-07 18:34:21.804,2,0.51,0.08,1.13,177.347,-112.0888,11.170799999999998,175,75
2026-05-07 18:34:21.804,2,0.33,0.06,1.0,188.387,-84.0488,12.260799999999998,175,75
2026-05-07 18:34:21.826,2,0.25,0.06,0.88,193.817,-37.4588,8.670799999999998,175,75
2026-05-07 18:34:21.840,2,0.2,0.07,0.83,196.377,13.331199999999999,11.900799999999998,175,75
2026-05-07 18:34:21.850,2,0.2,0.17,0.83,204.487,81.2612,22.6308,175,75
2026-05-07 18:34:21.861,2,0.32,0.26,0.96,221.437,133.9412,30.3708,175,75
2026-05-07 18:34:21.864,2,0.36,0.34,1.09,238.627,149.9212,39.830799999999996,175,75
2026-05-07 18:34:21.879,2,0.34,0.46,1.28,256.377,122.7812,46.050799999999995,175,75
2026-05-07 18:34:21.890,2,0.36,0.53,1.46,259.847,78.5212,38.300799999999995,175,75
2026-05-07 18:34:21.911,2,0.43,0.61,1.7,236.677,-4.468800000000002,33.9708,175,75
2026-05-07 18:34:21.936,2,0.51,0.46,1.69,216.377,-140.6888,64.3408,175,75
2026-05-07 18:34:21.957,2,0.52,0.14,1.48,220.517,-202.0888,55.8608,175,75
2026-05-07 18:34:21.962,2,0.42,0.03,1.34,225.637,-195.9988,36.1708,175,75
2026-05-07 18:34:21.991,2,0.49,-0.13,1.27,256.857,-150.19879999999998,1.840799999999998,175,75
2026-05-07 18:34:21.991,2,0.57,-0.25,1.35,269.787,-144.16879999999998,-3.0991999999999997,175,75
2026-05-07 18:34:22.021,2,0.44,-0.68,1.09,266.187,-163.5588,-18.1592,175,75
2026-05-07 18:34:22.055,2,0.19,-0.56,0.57,248.507,-128.97879999999998,-72.6092,175,75
2026-05-07 18:34:22.064,2,0.12,-0.19,0.35,259.41700000000003,-77.0288,-84.9892,175,75
2026-05-07 18:34:22.071,2,0.17,0.02,0.28,272.837,-23.188799999999997,-80.3592,175,75
2026-05-07 18:34:22.108,2,0.27,0.27,0.39,235.157,181.08120000000002,11.1108,175,75
2026-05-07 18:34:22.133,2,0.32,0.23,0.55,210.457,178.52120000000002,56.6608,175,75
2026-05-07 18:34:22.153,2,0.33,0.11,0.53,197.467,104.1912,55.6208,175,75
2026-05-07 18:34:22.181,2,0.01,-0.05,0.23,116.31700000000001,-50.3288,37.2008,175,75
2026-05-07 18:34:22.181,2,-0.27,-0.04,0.1,90.09700000000001,-67.6388,33.910799999999995,175,75
2026-05-07 18:34:22.201,2,-0.82,0.1,-0.29,36.617000000000004,46.081199999999995,38.8508,175,75
2026-05-07 18:34:22.244,2,-1.14,-0.34,-0.3,-36.313,175.59120000000001,102.3308,175,75
2026-05-07 18:34:22.244,2,-1.35,-0.73,-0.33,-104.483,225.83120000000002,120.0708,175,75
2026-05-07 18:34:22.275,2,-1.91,-1.39,-0.45,-264.363,274.3112,119.2208,175,75
2026-05-07 18:34:22.287,2,-1.88,-1.65,-0.37,-293.753,304.8612,119.0308,175,75
2026-05-07 18:34:22.300,2,-1.73,-1.98,-0.18,-337.043,355.7712,125.6208,175,75
2026-05-07 18:34:22.309,2,-1.59,-2.3,0.05,-393.993,397.4812,152.3908,175,75
2026-05-07 18:34:22.314,2,-1.49,-2.63,0.17,-433.993,403.3312,165.01080000000002,175,75
2026-05-07 18:34:22.326,2,-1.45,-3.2,0.44,-478.143,378.82120000000003,173.42079999999999,175,75
2026-05-07 18:34:22.343,2,-1.43,-3.68,0.72,-508.323,367.6612,170.37079999999997,175,75
2026-05-07 18:34:22.355,2,-1.37,-4.24,1.02,-564.973,353.70120000000003,170.9808,175,75
2026-05-07 18:34:22.366,2,-1.43,-5.21,1.32,-646.373,348.2712,179.4608,175,75
2026-05-07 18:34:22.389,2,-1.73,-7.03,1.78,-723.503,373.5212,123.9108,175,75
2026-05-07 18:34:22.399,2,-1.29,-7.43,2.2,-732.223,400.3412,77.3308,175,75
2026-05-07 18:34:22.417,2,-0.79,-7.64,2.66,-744.603,379.5512,49.6408,175,75
2026-05-07 18:34:22.429,2,-0.52,-7.81,2.96,-760.093,327.4812,48.3608,175,75
2026-05-07 18:34:22.440,2,-0.43,-7.81,3.12,-756.923,270.0412,46.660799999999995,175,75
2026-05-07 18:34:22.440,2,-0.44,-7.31,3.12,-735.703,221.2612,44.520799999999994,175,75
2026-05-07 18:34:22.445,2,-0.55,-6.35,2.91,-696.8629999999999,200.65120000000002,31.3508,175,75
2026-05-07 18:34:22.461,2,-0.56,-5.22,2.64,-633.563,253.7012,-10.659199999999998,175,75
2026-05-07 18:34:22.471,2,-0.51,-4.28,2.46,-560.513,367.6012,-34.8692,175,75
2026-05-07 18:34:22.486,2,-0.55,-3.13,2.39,-431.003,563.3312,-37.9792,175,75
2026-05-07 18:34:22.497,2,-0.49,-2.31,2.53,-291.923,688.9412,-48.339200000000005,175,75
2026-05-07 18:34:22.507,2,0.19,-1.88,3.03,-204.363,689.1912,-77.0592,175,75
2026-05-07 18:34:22.518,2,0.75,-1.6,4.0,-177.953,359.4912,-74.0192,175,75
2026-05-07 18:34:22.526,2,-0.04,-0.55,4.15,-198.873,241.3212,-39.3792,175,75
2026-05-07 18:34:22.542,2,-0.37,0.05,3.78,-171.433,107.54119999999999,-105.65920000000001,175,75
2026-05-07 18:34:22.542,2,-0.38,0.52,3.1,-123.563,-14.3488,-206.99919999999997,175,75
2026-05-07 18:34:22.570,2,0.65,0.98,2.25,-66.863,-56.668800000000005,-77.3092,175,75
2026-05-07 18:34:22.574,2,-0.17,1.22,1.98,-55.943,-11.1188,-9.989200000000004,175,75
2026-05-07 18:34:22.598,2,-0.53,1.07,2.2,-65.703,47.301199999999994,-115.71920000000001,175,75
2026-05-07 18:34:22.598,2,-0.15,0.85,2.22,-65.273,127.9712,-150.5992,175,75
2026-05-07 18:34:22.611,2,-0.09,0.71,2.35,-46.003,118.9412,-128.1592,175,75
2026-05-07 18:34:22.627,2,-0.32,0.68,2.49,-16.673,55.9512,-111.5792,175,75
2026-05-07 18:34:22.642,2,-0.46,0.69,2.49,3.2670000000000012,16.871199999999998,-114.31920000000001,175,75
2026-05-07 18:34:22.642,2,-0.5,0.78,2.35,13.747000000000002,-2.6388,-108.7692,175,75
2026-05-07 18:34:22.654,2,-0.52,0.92,2.2,26.377000000000002,-15.3888,-97.4292,175,75
2026-05-07 18:34:22.668,2,-0.52,0.99,2.14,41.437000000000005,-18.4988,-88.7092,175,75
2026-05-07 18:34:22.676,2,-0.57,0.98,2.14,55.516999999999996,-11.358799999999999,-84.3192,175,75
2026-05-07 18:34:22.689,2,-0.65,0.96,2.15,66.12700000000001,-13.4388,-81.7592,175,75
2026-05-07 18:34:22.696,2,-0.71,0.95,2.15,77.717,-20.268800000000002,-77.3092,175,75
2026-05-07 18:34:22.708,2,-0.73,0.93,2.1,93.937,-33.308800000000005,-66.3292,175,75
2026-05-07 18:34:22.723,2,-0.75,0.9,1.97,111.797,-37.8288,-50.0492,175,75
2026-05-07 18:34:22.736,2,-0.82,0.84,1.81,128.877,-19.838800000000003,-34.809200000000004,175,75
2026-05-07 18:34:22.742,2,-0.85,0.77,1.67,146.617,3.8211999999999993,-22.9792,175,75
2026-05-07 18:34:22.756,2,-0.78,0.69,1.6,161.677,5.8911999999999995,-16.209200000000003,175,75
2026-05-07 18:34:22.790,2,-0.76,0.5,1.61,195.27700000000002,13.1512,-11.029200000000003,175,75
2026-05-07 18:34:22.790,2,-0.66,0.37,1.76,210.157,11.3812,-18.709200000000003,175,75
2026-05-07 18:34:22.801,2,-0.67,0.27,1.7,221.437,-10.198800000000002,-18.889200000000002,175,75
2026-05-07 18:34:22.812,2,-1.51,0.36,1.69,227.467,-39.1088,-3.0991999999999997,175,75
2026-05-07 18:34:22.812,2,-1.0,0.3,1.54,222.717,-118.4388,-61.209199999999996,175,75
2026-05-07 18:34:22.826,2,1.62,-0.65,1.73,176.677,-106.6088,-152.24919999999997,175,75
2026-05-07 18:34:22.849,2,-1.25,0.83,0.7,211.677,-110.8788,-31.639200000000002,175,75
2026-05-07 18:34:22.861,2,-1.06,0.72,0.61,273.387,172.1112,-35.9092,175,75
2026-05-07 18:34:22.897,2,0.25,-0.02,1.77,206.247,264.7312,44.7608,175,75
2026-05-07 18:34:22.908,2,0.75,-0.76,1.98,175.27700000000002,107.60119999999999,60.370799999999996,175,75
2026-05-07 18:34:22.920,2,0.76,-1.6,1.96,191.987,-34.3488,55.8608,175,75
2026-05-07 18:34:22.933,2,0.67,-1.88,1.78,235.637,-89.3488,63.7308,175,75
2026-05-07 18:34:22.945,2,0.6,-1.82,1.66,283.267,-116.23880000000001,89.2808,175,75
2026-05-07 18:34:22.968,2,1.43,-1.9,1.93,337.837,-181.3588,81.6608,175,75
2026-05-07 18:34:22.991,2,1.39,-2.62,1.88,358.387,-236.5488,75.5008,175,75
2026-05-07 18:34:22.999,2,1.44,-2.99,1.7,385.277,-273.9788,69.8308,175,75
2026-05-07 18:34:23.011,2,1.4,-3.12,1.51,406.377,-300.0788,70.07079999999999,175,75
2026-05-07 18:34:23.011,2,1.26,-3.19,1.38,430.277,-305.5088,63.9708,175,75
2026-05-07 18:34:23.031,2,1.2,-3.49,1.32,495.217,-280.7488,9.220799999999999,175,75
2026-05-07 18:34:23.041,2,1.3,-3.6,1.23,503.87699999999995,-294.8988,-24.989200000000004,175,75
2026-05-07 18:34:23.052,2,1.23,-3.59,1.01,483.877,-311.9688,-50.419200000000004,175,75
2026-05-07 18:34:23.073,2,1.12,-3.5,0.74,451.437,-322.5188,-75.7792,175,75
2026-05-07 18:34:23.073,2,0.99,-3.3,0.53,428.937,-310.5088,-90.4792,175,75
2026-05-07 18:34:23.089,2,0.87,-2.91,0.32,415.097,-258.0088,-104.0192,175,75
2026-05-07 18:34:23.110,2,0.88,-2.51,0.25,415.517,-197.7688,-99.6292,175,75
2026-05-07 18:34:23.110,2,0.89,-2.17,0.33,416.187,-149.9588,-81.0292,175,75
2026-05-07 18:34:23.142,2,0.09,-1.25,0.6,342.107,-174.1088,-49.9892,175,75
2026-05-07 18:34:23.156,2,-0.07,-1.01,0.55,304.547,-179.9588,-78.1592,175,75
2026-05-07 18:34:23.167,2,-0.06,-0.8,0.47,275.217,-179.8988,-105.90920000000001,175,75
2026-05-07 18:34:23.178,2,0.0,-0.45,0.35,254.72699999999998,-181.6088,-121.2092,175,75
2026-05-07 18:34:23.190,2,-0.01,-0.18,0.33,248.567,-176.90879999999999,-118.27919999999999,175,75
2026-05-07 18:34:23.202,2,-0.08,0.11,0.34,241.797,-146.72879999999998,-111.2092,175,75
2026-05-07 18:34:23.217,2,-0.17,0.3,0.38,228.017,-102.5188,-100.7192,175,75
2026-05-07 18:34:23.217,2,-0.21,0.41,0.41,210.767,-67.0288,-90.8392,175,75
2026-05-07 18:34:23.237,2,-0.35,0.47,0.53,146.437,-4.9588,-76.2692,175,75
2026-05-07 18:34:23.257,2,-0.46,0.5,0.55,117.467,21.9312,-67.6092,175,75
2026-05-07 18:34:23.283,2,-0.53,0.63,0.59,117.047,7.7212,-73.64920000000001,175,75
2026-05-07 18:34:23.309,2,-0.48,0.83,0.55,101.857,-47.948800000000006,-69.0192,175,75
2026-05-07 18:34:23.321,2,-0.52,0.88,0.52,94.667,-46.058800000000005,-64.0192,175,75
2026-05-07 18:34:23.340,2,-0.62,0.92,0.49,82.227,-13.7988,-58.2792,175,75
2026-05-07 18:34:23.356,2,-0.66,0.93,0.47,80.45700000000001,-1.418800000000001,-54.4392,175,75
2026-05-07 18:34:23.380,2,-0.75,0.85,0.47,72.107,22.4812,-52.1892,175,75
2026-05-07 18:34:23.380,2,-0.83,0.8,0.46,67.657,33.941199999999995,-53.64920000000001,175,75
2026-05-07 18:34:23.407,2,-1.19,0.71,0.48,64.177,79.1912,-59.199200000000005,175,75
2026-05-07 18:34:23.426,2,-1.22,0.67,0.57,49.967000000000006,130.9512,-72.3692,175,75
2026-05-07 18:34:23.446,2,-1.2,0.64,0.59,36.737,130.5312,-75.1092,175,75
2026-05-07 18:34:23.470,2,-1.29,0.53,0.57,16.797000000000004,102.7212,-65.1092,175,75
2026-05-07 18:34:23.482,2,-1.19,0.44,0.51,2.1670000000000016,93.0312,-53.03920000000001,175,75
2026-05-07 18:34:23.493,2,-1.2,0.42,0.46,-7.773,87.2312,-53.4092,175,75
2026-05-07 18:34:23.506,2,-1.27,0.4,0.46,-28.012999999999998,97.9712,-50.419200000000004,175,75
2026-05-07 18:34:23.520,2,-1.15,0.38,0.47,-51.793,129.4312,-37.4292,175,75
2026-05-07 18:34:23.570,2,-0.72,0.35,0.48,-175.153,197.6012,29.520799999999998,175,75
2026-05-07 18:34:23.580,2,-0.74,0.3,0.48,-209.233,193.33120000000002,44.400800000000004,175,75
2026-05-07 18:34:23.595,2,-0.62,-0.02,0.5,-304.363,206.5612,83.5508,175,75
2026-05-07 18:34:23.600,2,-0.59,-0.28,0.54,-351.863,234.55120000000002,93.85079999999999,175,75
2026-05-07 18:34:23.623,2,-0.3,-1.12,0.65,-480.153,330.6512,108.9708,175,75
2026-05-07 18:34:23.633,2,-0.34,-1.8,0.71,-566.433,370.1612,135.3108,175,75
2026-05-07 18:34:23.677,2,-1.17,-5.0,1.63,-681.8629999999999,655.4712,18.5508,175,75
2026-05-07 18:34:23.688,2,-0.52,-6.4,2.42,-689.233,817.9112,-127.12920000000001,175,75
2026-05-07 18:34:23.699,2,-0.32,-6.42,3.55,-679.973,921.4412,-209.25920000000002,175,75
2026-05-07 18:34:23.704,2,-0.21,-6.01,4.5,-660.763,1000.5912,-280.4792,175,75
2026-05-07 18:34:23.717,2,-0.25,-5.68,5.32,-624.543,974.4312,-373.8292,175,75
2026-05-07 18:34:23.723,2,-1.0,-5.78,6.57,-719.053,224.6712,-219.0192,175,75
2026-05-07 18:34:23.737,2,-0.79,-6.08,5.26,-683.623,275.1612,-335.3592,175,75
2026-05-07 18:34:23.748,2,-1.17,-5.14,3.88,-661.433,-90.3888,-441.5792,175,75
2026-05-07 18:34:23.788,2,-0.26,-2.39,2.38,-406.433,380.4112,-192.79919999999998,175,75
2026-05-07 18:34:23.800,2,-0.81,-2.01,2.5,-301.433,458.5212,-196.81920000000002,175,75
2026-05-07 18:34:23.811,2,-0.91,-1.5,2.61,-200.093,457.3012,-206.99919999999997,175,75
2026-05-07 18:34:23.815,2,-0.96,-1.13,2.65,-130.333,397.4212,-207.8592,175,75
2026-05-07 18:34:23.825,2,-0.88,-0.83,2.7,-78.993,334.5512,-207.42919999999998,175,75
2026-05-07 18:34:23.837,2,-0.44,-0.62,2.7,-57.102999999999994,268.8812,-186.63920000000002,175,75
2026-05-07 18:34:23.845,2,-0.34,-0.45,2.56,-58.143,192.5412,-136.38920000000002,175,75
2026-05-07 18:34:23.862,2,-0.54,-0.32,2.35,-59.782999999999994,129.1912,-117.24919999999999,175,75
2026-05-07 18:34:23.871,2,-0.65,-0.22,2.22,-55.272999999999996,90.8312,-116.5192,175,75
2026-05-07 18:34:23.874,2,-0.72,-0.04,2.12,-48.753,50.831199999999995,-113.09920000000001,175,75
2026-05-07 18:34:23.901,2,-0.85,0.28,1.96,-42.473,11.751199999999999,-104.37920000000001,175,75
2026-05-07 18:34:23.901,2,-0.92,0.55,1.89,-39.723,6.6912,-96.5792,175,75
2026-05-07 18:34:23.911,2,-0.83,0.98,1.85,-33.202999999999996,14.1212,-93.2792,175,75
2026-05-07 18:34:23.932,2,-0.53,1.38,1.87,-6.372999999999999,41.2612,-71.4492,175,75
2026-05-07 18:34:23.944,2,-0.54,1.19,1.86,6.127000000000001,49.0612,-57.979200000000006,175,75
2026-05-07 18:34:23.956,2,-0.59,1.05,1.87,14.177000000000001,53.6412,-56.14920000000001,175,75
2026-05-07 18:34:23.966,2,-0.64,0.99,1.83,30.457,52.911199999999994,-52.059200000000004,175,75
2026-05-07 18:34:23.977,2,-0.59,1.06,1.85,52.467000000000006,39.2512,-49.0192,175,75
2026-05-07 18:34:23.988,2,-0.48,1.15,1.91,74.23700000000001,20.8312,-46.209199999999996,175,75
2026-05-07 18:34:24.016,2,-0.36,1.01,1.89,99.057,-29.898799999999998,-28.339199999999998,175,75
2026-05-07 18:34:24.016,2,-0.29,0.82,1.82,107.287,-49.588800000000006,-26.1492,175,75
2026-05-07 18:34:24.027,2,-0.23,0.58,1.66,115.277,-70.3288,-26.9392,175,75
2026-05-07 18:34:24.038,2,-0.2,0.37,1.55,117.407,-94.5888,-32.5492,175,75
2026-05-07 18:34:24.054,2,-0.11,0.25,1.49,120.457,-86.9688,-42.1292,175,75
2026-05-07 18:34:24.082,2,0.85,-0.02,1.41,160.637,-31.8488,-100.7192,175,75
2026-05-07 18:34:24.092,2,0.82,-0.23,1.13,147.957,0.16119999999999912,-78.9492,175,75
2026-05-07 18:34:24.117,2,0.79,-0.22,1.01,131.247,-18.128800000000002,-51.6392,175,75
2026-05-07 18:34:24.133,2,0.83,-0.52,1.25,143.747,20.711199999999998,-16.029200000000003,175,75
2026-05-07 18:34:24.146,2,0.89,-0.49,1.24,137.717,-30.198800000000002,-7.489200000000004,175,75
2026-05-07 18:34:24.157,2,0.75,-0.62,1.2,131.497,-88.00880000000001,-4.809200000000001,175,75
2026-05-07 18:34:24.184,2,0.67,-0.85,0.92,132.52700000000002,-128.7988,11.290799999999999,175,75
2026-05-07 18:34:24.184,2,0.66,-0.71,0.8,137.107,-109.8388,19.4608,175,75
2026-05-07 18:34:24.210,2,0.66,-0.47,0.65,148.387,-67.3388,26.1708,175,75
2026-05-07 18:34:24.210,2,0.6,-0.31,0.62,158.687,-20.878800000000002,33.1208,175,75
2026-05-07 18:34:24.232,2,0.53,-0.21,0.68,165.457,45.3412,43.550799999999995,175,75
2026-05-07 18:34:24.232,2,0.59,-0.11,0.73,164.727,92.9112,53.7908,175,75
2026-05-07 18:34:24.244,2,0.57,0.03,0.76,161.677,89.43119999999999,57.6308,175,75
2026-05-07 18:34:24.255,2,0.46,0.16,0.78,158.077,65.5312,56.3508,175,75
2026-05-07 18:34:24.266,2,0.32,0.25,0.9,153.747,37.2312,48.1208,175,75
2026-05-07 18:34:24.277,2,0.3,0.33,1.05,145.827,15.6512,31.840799999999998,175,75
2026-05-07 18:34:24.300,2,0.3,0.46,1.16,138.747,-24.5288,20.9208,175,75
2026-05-07 18:34:24.310,2,0.29,0.68,1.13,126.737,-66.5488,4.220799999999997,175,75
2026-05-07 18:34:24.326,2,0.31,0.72,1.07,126.797,-67.45880000000001,-4.2592,175,75
2026-05-07 18:34:24.326,2,0.34,0.66,1.02,130.397,-59.7188,-8.8292,175,75
2026-05-07 18:34:24.363,2,0.12,0.06,0.97,149.847,21.3812,3.550799999999999,175,75
2026-05-07 18:34:24.387,2,0.27,-0.17,1.41,175.397,19.7312,-21.269199999999998,175,75
2026-05-07 18:34:24.417,2,0.68,-0.26,1.56,171.55700000000002,-50.9988,7.3308,175,75
2026-05-07 18:34:24.428,2,0.6,-0.21,1.23,154.237,-80.8088,14.830799999999998,175,75
2026-05-07 18:34:24.442,2,0.71,0.1,1.1,173.137,-47.948800000000006,11.7808,175,75
2026-05-07 18:34:24.453,2,0.73,0.21,1.24,196.247,-12.8888,35.2508,175,75
2026-05-07 18:34:24.468,2,0.67,0.14,1.39,208.077,-17.948800000000002,55.3108,175,75
2026-05-07 18:34:24.479,2,0.53,-0.05,1.56,198.017,-69.7788,57.260799999999996,175,75
2026-05-07 18:34:24.492,2,0.45,-0.13,1.6,188.387,-99.4088,56.5308,175,75
2026-05-07 18:34:24.505,2,0.36,-0.15,1.48,187.717,-122.82880000000002,55.5608,175,75
2026-05-07 18:34:24.517,2,0.25,-0.12,1.24,197.227,-123.67880000000001,54.0908,175,75
2026-05-07 18:34:24.527,2,0.15,-0.07,1.05,202.407,-105.8088,49.7608,175,75
2026-05-07 18:34:24.539,2,0.2,0.01,0.9,211.067,-61.11880000000001,35.9208,175,75
2026-05-07 18:34:24.550,2,0.33,0.08,0.94,230.397,7.781199999999999,22.9408,175,75
2026-05-07 18:34:24.554,2,0.43,0.18,0.99,251.497,63.941199999999995,28.3008,175,75
2026-05-07 18:34:24.576,2,0.41,0.36,1.21,290.397,101.0212,42.330799999999996,175,75
2026-05-07 18:34:24.588,2,0.36,0.39,1.39,300.337,83.0312,38.7308,175,75
2026-05-07 18:34:24.605,2,0.31,0.35,1.51,294.967,63.0312,37.260799999999996,175,75
2026-05-07 18:34:24.616,2,0.3,0.28,1.61,277.227,31.6912,42.020799999999994,175,75
2026-05-07 18:34:24.616,2,0.29,0.21,1.64,257.777,-9.6588,51.3508,175,75
2026-05-07 18:34:24.631,2,0.33,0.15,1.62,244.607,-60.1388,60.5008,175,75
2026-05-07 18:34:24.631,2,0.28,0.11,1.52,243.207,-103.4988,65.8008,175,75
2026-05-07 18:34:24.642,2,0.22,0.09,1.39,248.627,-124.10880000000002,60.5608,175,75
2026-05-07 18:34:24.651,2,0.14,0.07,1.24,253.507,-127.94879999999999,45.0708,175,75
2026-05-07 18:34:24.661,2,0.06,0.04,1.1,255.15699999999998,-108.5588,27.3908,175,75
2026-05-07 18:34:24.673,2,-0.02,0.04,1.0,257.467,-73.4988,23.0608,175,75
2026-05-07 18:34:24.686,2,-0.04,0.03,0.95,260.517,-45.808800000000005,23.000799999999998,175,75
2026-05-07 18:34:24.697,2,-0.06,-0.02,0.96,262.527,-13.858799999999999,20.9808,175,75
2026-05-07 18:34:24.723,2,-0.1,-0.12,1.0,261.677,41.6212,17.3908,175,75
2026-05-07 18:34:24.734,2,-0.15,-0.04,0.92,252.16700000000003,26.8112,11.230799999999999,175,75
2026-05-07 18:34:24.747,2,-0.21,0.03,0.79,244.357,21.3812,11.230799999999999,175,75
2026-05-07 18:34:24.754,2,-0.31,0.08,0.68,239.357,22.4812,22.6308,175,75
2026-05-07 18:34:24.778,2,-0.59,0.11,0.58,207.957,77.6612,41.7808,175,75
2026-05-07 18:34:24.794,2,-0.49,0.09,0.52,179.117,103.88119999999999,52.5108,175,75
2026-05-07 18:34:24.805,2,-0.26,0.04,0.41,144.05700000000002,99.0612,64.7008,175,75
2026-05-07 18:34:24.818,2,-0.11,-0.02,0.26,82.95700000000001,58.7012,81.9608,175,75
2026-05-07 18:34:24.828,2,-0.2,-0.08,0.03,16.917,17.4812,103.85079999999999,175,75
2026-05-07 18:34:24.840,2,-0.41,-0.17,-0.16,-21.433,1.9911999999999992,117.2008,175,75
2026-05-07 18:34:24.850,2,-0.88,-0.34,-0.37,-64.543,30.6512,130.3108,175,75
2026-05-07 18:34:24.877,2,-0.16,-1.6,-0.67,-284.233,344.4912,105.6808,175,75
2026-05-07 18:34:24.891,2,-0.32,-1.63,-0.39,-335.093,422.1712,101.96079999999999,175,75
2026-05-07 18:34:24.903,2,-0.55,-1.74,-0.15,-388.503,470.0412,71.4108,175,75
2026-05-07 18:34:24.912,2,-0.66,-1.93,-0.03,-437.473,470.4712,10.250799999999998,175,75
2026-05-07 18:34:24.924,2,-0.52,-2.16,0.11,-461.123,481.9912,-53.589200000000005,175,75
2026-05-07 18:34:24.945,2,0.73,-2.33,0.66,-490.58299999999997,536.8711999999999,-146.2692,175,75
2026-05-07 18:34:24.957,2,0.74,-2.26,0.9,-508.08299999999997,532.2312,-159.25920000000002,175,75
2026-05-07 18:34:24.972,2,0.55,-2.34,1.06,-513.323,482.6012,-210.9092,175,75
2026-05-07 18:34:24.983,2,0.35,-2.7,1.23,-506.253,438.3312,-266.5792,175,75
2026-05-07 18:34:25.018,2,0.46,-4.26,2.42,-467.043,620.8911999999999,-454.0192,175,75
2026-05-07 18:34:25.030,2,0.6,-4.65,2.77,-425.153,668.0311999999999,-489.4392,175,75
2026-05-07 18:34:25.030,2,0.36,-4.79,3.04,-355.883,677.6612,-509.8692,175,75
2026-05-07 18:34:25.041,2,-0.23,-4.47,3.18,-243.873,674.5512,-518.1591999999999,175,75
2026-05-07 18:34:25.057,2,-0.97,-3.62,3.22,-116.733,673.0311999999999,-506.0892,175,75
2026-05-07 18:34:25.068,2,-1.47,-3.06,3.41,-32.833,721.3811999999999,-503.5892,175,75
2026-05-07 18:34:25.093,2,-0.5,-2.12,4.16,112.95700000000001,844.8012,-425.7192,175,75
2026-05-07 18:34:25.104,2,-0.78,-1.62,4.01,139.847,649.9812,-324.25919999999996,175,75
2026-05-07 18:34:25.105,2,-1.71,-1.38,3.76,205.217,461.9912,-302.9192,175,75
2026-05-07 18:34:25.122,2,-1.42,-1.09,3.53,244.357,321.8712,-293.2192,175,75
2026-05-07 18:34:25.147,2,-1.43,-0.5,2.46,197.467,83.7612,-193.82920000000001,175,75
2026-05-07 18:34:25.159,2,-1.37,-0.16,2.0,194.177,63.27119999999999,-158.4092,175,75
2026-05-07 18:34:25.164,2,-1.32,0.17,1.65,197.837,67.0512,-109.86919999999999,175,75
2026-05-07 18:34:25.177,2,-1.4,0.39,1.4,204.117,98.1512,-65.2392,175,75
2026-05-07 18:34:25.188,2,-1.49,0.5,1.27,212.407,153.8812,-31.269199999999998,175,75
2026-05-07 18:34:25.198,2,-1.5,0.46,1.29,223.507,174.12120000000002,-6.639200000000002,175,75
2026-05-07 18:34:25.208,2,-1.43,0.34,1.4,233.387,157.4212,18.2408,175,75
2026-05-07 18:34:25.248,2,-0.97,0.25,1.46,224.787,-31.6688,51.2308,175,75
2026-05-07 18:34:25.269,2,-1.03,0.21,1.05,204.727,-92.8288,42.020799999999994,175,75
2026-05-07 18:34:25.288,2,-1.12,0.26,0.74,197.897,-39.9588,30.6208,175,75
2026-05-07 18:34:25.301,2,-1.23,0.31,0.71,207.107,27.6612,27.750799999999998,175,75
2026-05-07 18:34:25.309,2,-1.14,0.39,0.68,213.447,98.4512,33.1808,175,75
2026-05-07 18:34:25.365,2,-0.86,0.1,1.06,176.437,46.931200000000004,85.3108,175,75
2026-05-07 18:34:25.374,2,-0.72,0.12,0.92,170.707,33.3912,98.2408,175,75
2026-05-07 18:34:25.387,2,-0.8,0.2,0.82,161.857,26.441200000000002,110.3108,175,75
2026-05-07 18:34:25.399,2,-1.01,0.24,0.74,156.247,57.1712,122.6908,175,75
2026-05-07 18:34:25.405,2,-1.91,0.33,0.85,152.717,66.6912,128.4808,175,75
2026-05-07 18:34:25.418,2,-0.98,-1.15,1.14,206.067,221.7512,4.7608,175,75
2026-05-07 18:34:25.445,2,-0.59,1.79,0.56,78.137,173.3912,197.3308,175,75
2026-05-07 18:34:25.468,2,-0.82,-0.39,1.35,147.167,164.49120000000002,202.1408,175,75
2026-05-07 18:34:25.479,2,-0.13,-0.04,1.71,103.56700000000001,224.55120000000002,219.5208,175,75
2026-05-07 18:34:25.493,2,0.02,0.35,1.97,66.37700000000001,218.6412,220.37079999999997,175,75
2026-05-07 18:34:25.493,2,-0.01,0.25,2.11,91.187,154.8612,218.55079999999998,175,75
2026-05-07 18:34:25.504,2,-0.04,0.46,2.29,124.417,100.71119999999999,220.31079999999997,175,75
2026-05-07 18:34:25.538,2,0.37,0.93,2.25,145.457,45.9512,229.4008,175,75
2026-05-07 18:34:25.559,2,0.54,1.24,2.08,161.987,29.9812,247.26080000000002,175,75
2026-05-07 18:34:25.559,2,0.63,1.46,2.0,170.517,50.101200000000006,255.9808,175,75
2026-05-07 18:34:25.581,2,0.59,1.55,2.03,158.137,106.38119999999999,252.45080000000002,175,75
2026-05-07 18:34:25.581,2,0.53,1.53,2.24,134.907,155.77120000000002,256.7808,175,75
2026-05-07 18:34:25.593,2,0.95,1.42,2.62,104.727,180.1012,245.56079999999997,175,75
2026-05-07 18:34:25.617,2,0.46,1.57,2.68,157.407,-193.7988,191.8408,175,75
2026-05-07 18:34:25.640,2,0.67,1.68,2.57,171.247,-265.8788,184.5808,175,75
2026-05-07 18:34:25.640,2,0.56,1.61,2.06,170.767,-294.6588,180.68079999999998,175,75
2026-05-07 18:34:25.655,2,0.66,1.51,1.62,176.127,-305.5688,168.61079999999998,175,75
2026-05-07 18:34:25.666,2,0.67,1.5,1.34,188.507,-307.5188,165.25080000000003,175,75
2026-05-07 18:34:25.673,2,0.53,1.5,1.11,216.317,-293.1888,165.44080000000002,175,75
2026-05-07 18:34:25.692,2,0.42,1.55,0.91,246.127,-274.7188,165.92079999999999,175,75
2026-05-07 18:34:25.704,2,0.29,1.63,0.78,265.157,-258.1888,161.9008,175,75
2026-05-07 18:34:25.722,2,0.27,1.72,0.71,266.557,-240.62879999999998,160.62079999999997,175,75
2026-05-07 18:34:25.737,2,0.3,1.68,0.73,243.567,-216.41879999999998,160.19080000000002,175,75
2026-05-07 18:34:25.748,2,0.25,1.5,0.7,200.637,-170.1388,164.5208,175,75
2026-05-07 18:34:25.748,2,0.12,1.37,0.63,175.27700000000002,-149.5288,168.12079999999997,175,75
2026-05-07 18:34:25.764,2,-0.09,1.04,0.52,178.267,-160.2688,165.68079999999998,175,75
2026-05-07 18:34:25.777,2,-0.11,0.91,0.5,185.827,-176.47879999999998,160.01080000000002,175,75
2026-05-07 18:34:25.794,2,-0.26,0.77,0.38,192.897,-178.8588,139.5208,175,75
2026-05-07 18:34:25.819,2,-0.47,0.74,0.23,206.497,-114.5888,107.2008,175,75
2026-05-07 18:34:25.829,2,-0.62,0.72,0.28,215.887,-15.7488,108.3008,175,75
2026-05-07 18:34:25.840,2,-0.64,0.6,0.4,206.187,89.7312,119.7008,175,75
2026-05-07 18:34:25.855,2,-0.61,0.5,0.56,183.327,161.99120000000002,132.20080000000002,175,75
2026-05-07 18:34:25.866,2,-0.58,0.43,0.68,159.117,208.8812,141.9008,175,75
2026-05-07 18:34:25.877,2,-0.5,0.36,0.75,136.987,223.52120000000002,145.6208,175,75
2026-05-07 18:34:25.888,2,-0.38,0.32,0.75,124.787,177.84120000000001,138.61079999999998,175,75
2026-05-07 18:34:25.893,2,-0.36,0.32,0.73,124.487,109.49119999999999,132.3308,175,75
2026-05-07 18:34:25.920,2,-0.57,0.33,0.68,140.397,-25.5688,115.9808,175,75
2026-05-07 18:34:25.931,2,-0.7,0.33,0.61,143.507,-39.168800000000005,97.4508,175,75
2026-05-07 18:34:25.942,2,-0.82,0.31,0.57,138.817,-9.108799999999999,78.3008,175,75
2026-05-07 18:34:25.945,2,-0.87,0.29,0.55,131.917,55.161199999999994,62.510799999999996,175,75
2026-05-07 18:34:25.968,2,-0.74,0.27,0.65,122.167,202.9112,67.2008,175,75
2026-05-07 18:34:25.991,2,-0.55,0.31,0.8,117.837,274.7312,90.2508,175,75
2026-05-07 18:34:26.001,2,-0.49,0.34,0.88,115.517,267.3612,92.6908,175,75
2026-05-07 18:34:26.018,2,-0.57,0.33,1.06,100.157,205.8912,86.0508,175,75
2026-05-07 18:34:26.029,2,-0.59,0.29,1.14,86.557,183.27120000000002,81.35079999999999,175,75
2026-05-07 18:34:26.044,2,-0.59,0.25,1.17,69.727,162.9712,75.1908,175,75
2026-05-07 18:34:26.044,2,-0.63,0.23,1.2,49.607,146.08120000000002,69.4608,175,75
2026-05-07 18:34:26.061,2,-0.66,0.11,1.23,26.377000000000002,142.6012,71.5308,175,75
2026-05-07 18:34:26.072,2,-0.63,-0.03,1.26,6.737,144.2512,79.5808,175,75
2026-05-07 18:34:26.089,2,-0.59,-0.18,1.23,-24.113,133.3312,89.4008,175,75
2026-05-07 18:34:26.099,2,-0.55,-0.24,1.2,-58.683,114.3712,81.5908,175,75
2026-05-07 18:34:26.105,2,-0.64,-0.29,1.14,-96.733,119.1212,59.580799999999996,175,75
2026-05-07 18:34:26.117,2,-0.68,-0.33,1.11,-151.793,177.7212,34.7008,175,75
2026-05-07 18:34:26.130,2,-0.69,-0.35,1.02,-204.423,239.3112,25.860799999999998,175,75
2026-05-07 18:34:26.141,2,-0.59,-0.47,1.01,-265.333,299.8612,35.010799999999996,175,75
2026-05-07 18:34:26.151,2,-0.51,-0.8,1.11,-352.593,395.5312,71.35079999999999,175,75
2026-05-07 18:34:26.167,2,-0.73,-1.54,1.37,-514.9730000000001,616.2012,198.55079999999998,175,75
2026-05-07 18:34:26.221,2,-2.55,-5.37,1.11,-542.103,811.2012,227.63080000000002,175,75
2026-05-07 18:34:26.221,2,-3.79,-5.74,0.76,-362.403,629.6111999999999,77.3908,175,75
2026-05-07 18:34:26.240,2,-4.87,-6.57,2.01,-300.58299999999997,880.4112,-129.0192,175,75
2026-05-07 18:34:26.257,2,-3.37,-4.75,3.92,-448.143,1370.7112,-222.79919999999998,175,75
2026-05-07 18:34:26.272,2,-3.38,-4.18,4.23,-382.653,1218.3912,-264.8692,175,75
2026-05-07 18:34:26.295,2,-3.41,-3.4,3.94,-257.283,688.9412,-432.6092,175,75
2026-05-07 18:34:26.301,2,-3.06,-3.38,3.78,-303.813,593.5812,-457.5492,175,75
2026-05-07 18:34:26.315,2,-2.45,-3.52,3.47,-345.643,527.9712,-439.9292,175,75
2026-05-07 18:34:26.329,2,-1.94,-3.42,3.0,-328.873,423.5212,-387.9792,175,75
2026-05-07 18:34:26.340,2,-1.83,-2.76,2.63,-286.433,308.1512,-338.8292,175,75
2026-05-07 18:34:26.352,2,-1.76,-2.26,2.44,-258.683,236.6912,-311.3292,175,75
2026-05-07 18:34:26.363,2,-1.56,-1.76,2.21,-231.373,137.4812,-284.8092,175,75
2026-05-07 18:34:26.363,2,-1.36,-1.32,2.04,-211.063,60.3412,-262.12919999999997,175,75
2026-05-07 18:34:26.382,2,-1.23,-0.89,1.87,-190.453,7.5412,-242.8592,175,75
2026-05-07 18:34:26.393,2,-1.14,-0.67,1.77,-177.533,-6.7288,-230.23919999999998,175,75
2026-05-07 18:34:26.407,2,-0.9,-0.58,1.6,-163.143,-13.4988,-209.07920000000001,175,75
2026-05-07 18:34:26.407,2,-0.77,-0.68,1.49,-159.843,-17.768800000000002,-184.31920000000002,175,75
2026-05-07 18:34:26.427,2,-0.71,-0.79,1.36,-167.593,-7.2788,-154.68920000000003,175,75
2026-05-07 18:34:26.427,2,-0.81,-0.76,1.27,-178.683,10.3412,-135.4792,175,75
2026-05-07 18:34:26.448,2,-0.99,-0.59,1.17,-187.22299999999998,39.8612,-118.33919999999999,175,75
2026-05-07 18:34:26.459,2,-1.31,-0.08,0.99,-155.763,132.0512,-102.4292,175,75
2026-05-07 18:34:26.474,2,-1.39,0.2,1.02,-115.093,237.3612,-109.0192,175,75
2026-05-07 18:34:26.484,2,-1.32,0.36,1.2,-69.903,389.8612,-111.5792,175,75
2026-05-07 18:34:26.507,2,-1.18,0.49,1.41,-38.263,512.8412,-100.2992,175,75
2026-05-07 18:34:26.510,2,-0.5,0.71,1.71,-4.482999999999999,535.7711999999999,-104.0792,175,75
2026-05-07 18:34:26.524,2,-0.76,0.87,1.96,22.467000000000006,454.19120000000004,-116.2092,175,75
2026-05-07 18:34:26.549,2,-0.56,1.08,2.07,4.847000000000001,369.4912,-65.2992,175,75
2026-05-07 18:34:26.560,2,-0.5,1.27,2.04,-19.052999999999997,274.1212,-15.539200000000001,175,75
2026-05-07 18:34:26.565,2,-0.65,1.1,1.99,-29.113,120.4112,11.720799999999999,175,75
2026-05-07 18:34:26.587,2,-0.65,0.98,1.84,-5.942999999999999,83.1512,15.310799999999999,175,75
2026-05-07 18:34:26.587,2,-0.62,1.05,1.74,16.436999999999998,63.941199999999995,15.980799999999999,175,75
2026-05-07 18:34:26.600,2,-0.56,1.19,1.6,42.167,51.2612,19.220799999999997,175,75
2026-05-07 18:34:26.612,2,-0.49,1.23,1.54,56.797,47.301199999999994,28.0608,175,75
2026-05-07 18:34:26.623,2,-0.37,1.05,1.48,59.907,68.5212,36.3508,175,75
2026-05-07 18:34:26.636,2,-0.38,0.83,1.43,65.827,97.9712,27.200799999999997,175,75
2026-05-07 18:34:26.646,2,-0.18,0.69,1.51,75.577,136.2012,14.0308,175,75
2026-05-07 18:34:26.670,2,0.09,0.69,1.71,85.277,166.02120000000002,11.660799999999998,175,75
2026-05-07 18:34:26.687,2,0.52,0.66,2.14,92.107,144.49120000000002,4.090799999999998,175,75
2026-05-07 18:34:26.687,2,0.61,0.5,2.39,91.857,83.0312,-4.869200000000003,175,75
2026-05-07 18:34:26.696,2,0.12,0.22,2.42,93.62700000000001,12.6612,-14.319200000000002,175,75
2026-05-07 18:34:26.716,2,1.89,-0.54,1.91,94.607,-50.808800000000005,-81.5792,175,75
2026-05-07 18:34:26.727,2,0.28,-0.36,1.58,70.277,-139.5288,-9.199200000000005,175,75
2026-05-07 18:34:26.737,2,0.65,-0.1,1.28,71.437,33.2712,-37.9792,175,75
2026-05-07 18:34:26.748,2,0.89,0.39,0.95,71.31700000000001,102.7212,10.8608,175,75
2026-05-07 18:34:26.760,2,0.4,0.08,1.34,71.437,212.30120000000002,7.140799999999999,175,75
2026-05-07 18:34:26.772,2,0.87,-0.28,1.63,71.37700000000001,290.8312,41.2308,175,75
2026-05-07 18:34:26.782,2,0.81,-0.41,1.96,51.247,254.0012,57.510799999999996,175,75
2026-05-07 18:34:26.791,2,0.87,-0.41,2.07,31.737000000000002,146.5612,61.8408,175,75
2026-05-07 18:34:26.804,2,0.83,-0.36,2.0,21.617000000000004,49.9812,63.9108,175,75
2026-05-07 18:34:26.811,2,0.63,-0.27,1.72,16.436999999999998,-40.6288,65.2508,175,75
2026-05-07 18:34:26.824,2,0.52,-0.11,1.51,18.817,-61.8488,65.4408,175,75
2026-05-07 18:34:26.840,2,0.5,0.15,1.4,28.687000000000005,-44.778800000000004,64.4608,175,75
2026-05-07 18:34:26.851,2,0.56,0.43,1.43,41.737,-5.448800000000002,65.9208,175,75
2026-05-07 18:34:26.862,2,0.75,0.68,1.58,52.467000000000006,20.2212,65.3708,175,75
2026-05-07 18:34:26.873,2,0.86,0.82,1.79,63.266999999999996,-5.8088000000000015,56.3508,175,75
2026-05-07 18:34:26.873,2,0.68,0.84,1.81,72.047,-48.7988,49.8908,175,75
2026-05-07 18:34:26.895,2,0.49,0.72,1.68,78.20700000000001,-87.9488,43.8508,175,75
2026-05-07 18:34:26.911,2,0.22,0.21,1.56,82.107,-91.8488,41.7208,175,75
2026-05-07 18:34:26.921,2,0.22,0.03,1.52,85.027,-70.6288,39.9508,175,75
2026-05-07 18:34:26.934,2,0.26,-0.02,1.44,86.31700000000001,-43.1888,40.010799999999996,175,75
2026-05-07 18:34:26.944,2,0.33,0.18,1.31,89.117,-14.0488,46.1708,175,75
2026-05-07 18:34:26.975,2,0.53,0.21,1.49,102.95700000000001,19.8012,68.24080000000001,175,75
2026-05-07 18:34:26.987,2,0.44,0.19,1.58,99.177,6.8111999999999995,69.5808,175,75
2026-05-07 18:34:26.997,2,0.3,0.26,1.56,94.48700000000001,-16.7288,71.7808,175,75
2026-05-07 18:34:27.011,2,0.2,0.32,1.54,90.577,-63.918800000000005,70.9208,175,75
2026-05-07 18:34:27.023,2,0.17,0.34,1.48,86.31700000000001,-81.17880000000001,72.7508,175,75
2026-05-07 18:34:27.034,2,0.12,0.37,1.36,80.827,-93.4388,72.7508,175,75
2026-05-07 18:34:27.045,2,0.07,0.38,1.28,76.98700000000001,-94.1688,69.9508,175,75
2026-05-07 18:34:27.062,2,0.02,0.4,1.17,74.117,-82.1588,65.74080000000001,175,75
2026-05-07 18:34:27.073,2,0.02,0.42,1.1,75.277,-64.4688,62.7508,175,75
2026-05-07 18:34:27.084,2,0.01,0.44,1.07,79.48700000000001,-43.678799999999995,58.7908,175,75
2026-05-07 18:34:27.096,2,-0.06,0.49,1.04,88.20700000000001,-16.6688,55.8608,175,75
2026-05-07 18:34:27.102,2,-0.15,0.59,0.99,101.557,7.6011999999999995,52.3908,175,75
2026-05-07 18:34:27.119,2,-0.23,0.69,0.96,112.837,24.8612,50.440799999999996,175,75
2026-05-07 18:34:27.149,2,-0.23,1.02,0.94,131.917,63.4512,70.9208,175,75
2026-05-07 18:34:27.161,2,-0.15,1.06,0.98,124.05700000000002,54.9212,88.9108,175,75
2026-05-07 18:34:27.172,2,-0.09,1.01,1.05,113.327,41.441199999999995,115.1308,175,75
2026-05-07 18:34:27.182,2,-0.11,0.89,1.1,111.247,22.2312,132.6908,175,75
2026-05-07 18:34:27.194,2,-0.14,0.74,1.14,116.12700000000001,-7.518799999999999,138.67079999999999,175,75
2026-05-07 18:34:27.209,2,-0.15,0.53,1.19,120.33699999999999,-50.0788,141.17079999999999,175,75
2026-05-07 18:34:27.219,2,-0.16,0.39,1.21,116.557,-79.6588,145.80079999999998,175,75
2026-05-07 18:34:27.227,2,-0.18,0.26,1.2,105.767,-105.3288,152.75080000000003,175,75
2026-05-07 18:34:27.238,2,-0.19,0.14,1.19,90.70700000000001,-128.00879999999998,158.8508,175,75
2026-05-07 18:34:27.244,2,-0.1,-0.01,1.19,70.09700000000001,-157.2788,160.9808,175,75
2026-05-07 18:34:27.263,2,-0.07,-0.16,1.2,43.567,-190.7488,155.07080000000002,175,75
2026-05-07 18:34:27.275,2,-0.1,-0.24,1.14,21.247,-199.1088,147.0208,175,75
2026-05-07 18:34:27.288,2,-0.08,-0.3,0.95,-23.143,-176.47879999999998,125.0708,175,75
2026-05-07 18:34:27.312,2,0.05,-0.11,0.76,-47.772999999999996,-109.28880000000001,110.7408,175,75
2026-05-07 18:34:27.323,2,0.3,0.04,0.81,-47.403,-48.7988,124.2208,175,75
2026-05-07 18:34:27.375,2,1.32,-0.03,1.54,-103.993,-228.37879999999998,158.55079999999998,175,75
2026-05-07 18:34:27.385,2,1.21,0.04,1.25,-111.313,-274.8988,182.0808,175,75
2026-05-07 18:34:27.395,2,1.03,0.0,0.94,-115.76299999999999,-303.4988,192.26080000000002,175,75
2026-05-07 18:34:27.406,2,0.71,-0.13,0.67,-128.083,-295.7488,183.61079999999998,175,75
2026-05-07 18:34:27.420,2,0.71,-0.32,0.31,-152.283,-284.8988,146.5308,175,75
2026-05-07 18:34:27.420,2,0.55,-0.3,0.14,-165.94299999999998,-260.80879999999996,108.5508,175,75
2026-05-07 18:34:27.432,2,0.61,-0.09,-0.04,-162.103,-197.2188,78.6708,175,75
2026-05-07 18:34:27.448,2,0.92,0.23,-0.13,-133.383,-87.0288,57.080799999999996,175,75
2026-05-07 18:34:27.464,2,1.2,0.34,-0.2,-105.51299999999999,1.501199999999999,67.8708,175,75
2026-05-07 18:34:27.476,2,1.1,-0.02,-0.06,-104.483,113.3912,55.5008,175,75
2026-05-07 18:34:27.497,2,1.4,-0.67,0.32,-116.493,187.6012,-19.019199999999998,175,75
2026-05-07 18:34:27.509,2,1.52,-0.88,0.49,-111.253,167.1712,-53.1592,175,75
2026-05-07 18:34:27.520,2,1.38,-1.02,0.64,-105.583,133.7612,-96.7592,175,75
2026-05-07 18:34:27.535,2,0.89,-0.94,0.67,-100.823,147.30120000000002,-144.31920000000002,175,75
2026-05-07 18:34:27.545,2,0.61,-0.82,0.59,-94.723,178.7012,-171.1492,175,75
2026-05-07 18:34:27.545,2,0.39,-0.74,0.56,-83.993,207.9712,-183.7692,175,75
2026-05-07 18:34:27.567,2,0.25,-0.79,0.62,-69.423,261.6912,-183.1592,175,75
2026-05-07 18:34:27.579,2,0.43,-0.95,0.7,-63.382999999999996,297.6012,-184.43920000000003,175,75
2026-05-07 18:34:27.587,2,0.67,-1.11,0.86,-56.492999999999995,323.76120000000003,-195.3592,175,75
2026-05-07 18:34:27.598,2,1.13,-1.29,1.1,-30.512999999999998,344.1212,-208.4092,175,75
2026-05-07 18:34:27.609,2,1.37,-1.34,1.36,12.657000000000002,329.6712,-204.86919999999998,175,75
2026-05-07 18:34:27.623,2,1.51,-1.38,1.68,76.247,302.4212,-200.3592,175,75
2026-05-07 18:34:27.635,2,1.38,-1.39,2.12,199.847,291.6212,-182.9192,175,75
2026-05-07 18:34:27.656,2,1.27,-1.33,2.21,281.437,254.6712,-172.48919999999998,175,75
2026-05-07 18:34:27.657,2,1.08,-1.21,2.24,331.317,218.7612,-191.32920000000001,175,75
2026-05-07 18:34:27.674,2,0.97,-1.02,2.17,359.057,206.62120000000002,-240.29919999999998,175,75
2026-05-07 18:34:27.698,2,0.84,-0.25,2.02,362.467,120.8312,-349.19919999999996,175,75
2026-05-07 18:34:27.708,2,0.9,0.16,1.6,332.287,37.6612,-423.5292,175,75
2026-05-07 18:34:27.719,2,0.6,0.4,1.23,292.227,0.1012000000000004,-479.7492,175,75
2026-05-07 18:34:27.736,2,0.37,0.79,0.89,237.407,7.361199999999999,-509.80920000000003,175,75
2026-05-07 18:34:27.746,2,0.26,1.42,0.76,203.877,58.821200000000005,-410.1092,175,75
2026-05-07 18:34:27.759,2,-0.71,1.78,0.82,172.107,197.7212,-326.38919999999996,175,75
2026-05-07 18:34:27.770,2,-1.28,1.9,0.94,156.857,378.70120000000003,-342.6692,175,75
2026-05-07 18:34:27.800,2,-1.22,1.31,1.24,128.207,446.32120000000003,-294.5592,175,75
2026-05-07 18:34:27.806,2,-1.54,1.22,1.33,93.997,267.0512,-181.1492,175,75
2026-05-07 18:34:27.814,2,-1.7,1.47,1.59,73.387,137.2312,-100.8392,175,75
2026-05-07 18:34:27.840,2,-0.83,1.91,1.4,90.157,79.8612,49.0908,175,75
2026-05-07 18:34:27.851,2,-0.47,1.66,1.26,107.227,75.6512,79.2208,175,75
2026-05-07 18:34:27.887,2,-0.47,0.29,0.87,45.217000000000006,-55.1388,-198.88920000000002,175,75
2026-05-07 18:34:27.921,2,-1.51,0.64,0.92,10.517000000000001,2.9711999999999996,-138.7092,175,75
2026-05-07 18:34:27.923,2,-1.45,0.28,0.84,-14.602999999999998,68.2112,-85.9692,175,75
2026-05-07 18:34:27.979,2,-2.16,0.39,1.78,-20.153,193.8812,28.7308,175,75
2026-05-07 18:34:28.002,2,1.91,-1.57,3.05,-5.452999999999999,-70.3888,78.24080000000001,175,75
2026-05-07 18:34:28.017,2,-1.6,1.73,1.65,50.767,-489.6588,37.6308,175,75
2026-05-07 18:34:28.028,2,-1.43,0.99,0.87,-3.6229999999999993,-142.8888,85.8008,175,75
2026-05-07 18:34:28.043,2,-0.96,1.21,0.13,64.787,203.21120000000002,92.3908,175,75
2026-05-07 18:34:28.052,2,-0.16,1.37,0.62,147.897,356.32120000000003,135.2508,175,75
2026-05-07 18:34:28.069,2,-0.25,1.32,1.79,173.017,404.7312,154.5208,175,75
2026-05-07 18:34:28.082,2,-0.12,1.45,2.4,141.187,376.8112,183.67079999999999,175,75
2026-05-07 18:34:28.094,2,0.24,1.81,2.93,114.84700000000001,183.09120000000001,189.76080000000002,175,75
2026-05-07 18:34:28.109,2,0.14,1.84,2.91,105.577,-473.67879999999997,121.1708,175,75
2026-05-07 18:34:28.112,2,-0.27,1.61,2.04,95.027,-622.0288,101.8408,175,75
2026-05-07 18:34:28.131,2,-0.63,1.71,1.42,107.527,-613.8588000000001,100.2508,175,75
2026-05-07 18:34:28.144,2,-0.8,1.86,0.9,141.497,-467.2788,111.4708,175,75
2026-05-07 18:34:28.154,2,-0.61,1.96,0.63,157.347,-310.5088,122.6308,175,75
2026-05-07 18:34:28.165,2,-0.37,2.04,0.58,165.397,-67.2188,126.35079999999999,175,75
2026-05-07 18:34:28.176,2,-0.12,2.1,0.72,142.657,71.4412,126.96079999999999,175,75
2026-05-07 18:34:28.190,2,0.14,2.15,0.92,120.767,149.80120000000002,130.2508,175,75
2026-05-07 18:34:28.208,2,0.47,2.05,1.39,94.607,120.4712,128.55079999999998,175,75
2026-05-07 18:34:28.219,2,0.44,1.97,1.48,86.437,68.7012,128.0608,175,75
2026-05-07 18:34:28.229,2,0.45,1.97,1.48,81.437,6.8712,131.17079999999999,175,75
2026-05-07 18:34:28.241,2,0.51,2.0,1.4,80.767,-53.4388,128.9108,175,75
2026-05-07 18:34:28.252,2,0.46,1.97,1.26,79.787,-108.7388,125.2508,175,75
2026-05-07 18:34:28.264,2,0.37,1.91,1.18,79.057,-134.28879999999998,122.7508,175,75
2026-05-07 18:34:28.281,2,0.24,1.7,1.14,69.48700000000001,-143.37879999999998,119.7608,175,75
2026-05-07 18:34:28.291,2,0.17,1.62,1.08,70.09700000000001,-148.7388,119.5208,175,75
2026-05-07 18:34:28.312,2,-0.04,1.48,1.0,78.507,-154.5888,120.3708,175,75
2026-05-07 18:34:28.312,2,-0.11,1.38,0.94,86.557,-152.3988,120.5008,175,75
2026-05-07 18:34:28.324,2,-0.17,1.23,0.84,93.997,-154.22879999999998,117.8708,175,75
2026-05-07 18:34:28.380,2,-0.54,0.84,0.69,96.98700000000001,3.331199999999999,108.3008,175,75
2026-05-07 18:34:28.397,2,-0.49,0.77,0.77,101.31700000000001,81.93119999999999,113.1208,175,75
2026-05-07 18:34:28.404,2,-0.41,0.72,0.87,106.187,142.6012,116.5908,175,75
2026-05-07 18:34:28.419,2,-0.24,0.69,0.98,111.247,136.3212,105.6208,175,75
2026-05-07 18:34:28.444,2,-0.27,0.65,1.24,116.187,-20.078799999999998,97.6908,175,75
2026-05-07 18:34:28.472,2,-0.34,0.76,1.11,106.617,-137.5788,128.36079999999998,175,75
2026-05-07 18:34:28.483,2,-0.43,0.73,0.87,114.48700000000001,-193.6788,136.6608,175,75
2026-05-07 18:34:28.495,2,-0.53,0.67,0.81,110.637,-190.19879999999998,119.0908,175,75
2026-05-07 18:34:28.505,2,-0.64,0.66,0.73,109.727,-164.8388,102.4508,175,75
2026-05-07 18:34:28.529,2,-0.68,0.8,0.55,138.387,-45.6288,77.8708,175,75
2026-05-07 18:34:28.544,2,-0.51,1.0,0.61,179.357,82.1112,98.7908,175,75
2026-05-07 18:34:28.566,2,-0.53,0.98,0.74,191.797,169.8612,141.4708,175,75
2026-05-07 18:34:28.588,2,-0.71,0.83,0.73,201.857,159.0612,180.9808,175,75
2026-05-07 18:34:28.602,2,-0.78,0.81,0.72,205.457,126.0212,199.4608,175,75
2026-05-07 18:34:28.612,2,-0.78,0.77,0.74,204.05700000000002,120.9512,224.0308,175,75
2026-05-07 18:34:28.629,2,-0.74,0.66,0.74,194.297,139.37120000000002,256.7208,175,75
2026-05-07 18:34:28.648,2,-0.62,0.29,0.72,147.657,190.2212,324.7008,175,75
2026-05-07 18:34:28.667,2,-0.46,-0.1,0.83,94.357,212.2312,369.2208,175,75
2026-05-07 18:34:28.679,2,-0.26,-0.32,0.95,65.637,209.80120000000002,395.2508,175,75
2026-05-07 18:34:28.686,2,-0.05,-0.53,1.11,38.997,185.83120000000002,418.18080000000003,175,75
2026-05-07 18:34:28.699,2,0.35,-0.78,1.29,11.737,120.2212,435.31080000000003,175,75
2026-05-07 18:34:28.709,2,0.82,-1.14,1.63,-29.363,-65.3888,458.0008,175,75
2026-05-07 18:34:28.716,2,0.73,-1.26,1.8,-59.543,-184.8988,486.3508,175,75
2026-05-07 18:34:28.727,2,0.6,-1.28,1.69,-81.063,-280.7488,506.2308,175,75
2026-05-07 18:34:28.756,2,0.38,-1.79,0.42,-138.44299999999998,-370.2688,448.55080000000004,175,75
2026-05-07 18:34:28.768,2,0.34,-2.11,0.02,-166.373,-413.73879999999997,458.4208,175,75
2026-05-07 18:34:28.790,2,-0.02,-2.95,-0.67,-183.753,-297.0888,527.0208,175,75
2026-05-07 18:34:28.800,2,-0.22,-3.2,-1.02,-173.993,-250.1388,458.36080000000004,175,75
2026-05-07 18:34:28.812,2,0.33,-3.34,-1.51,-182.283,-268.30879999999996,150.9808,175,75
2026-05-07 18:34:28.824,2,0.48,-2.66,-1.55,-196.313,-230.3888,75.3108,175,75
2026-05-07 18:34:28.838,2,0.81,-1.9,-1.6,-200.093,-150.19879999999998,29.2808,175,75
2026-05-07 18:34:28.850,2,1.54,-1.52,-1.69,-183.683,-127.39880000000001,51.3508,175,75
2026-05-07 18:34:28.863,2,1.22,-0.93,-1.67,-143.683,-36.178799999999995,214.4608,175,75
2026-05-07 18:34:28.874,2,0.71,-1.0,-1.67,-121.673,77.6612,210.80079999999998,175,75
2026-05-07 18:34:28.910,2,0.62,-1.25,-0.68,-125.823,337.1712,110.2508,175,75
2026-05-07 18:34:28.920,2,0.74,-0.98,-0.31,-119.29299999999999,389.7312,71.29079999999999,175,75
2026-05-07 18:34:28.925,2,0.94,-0.74,0.08,-121.12299999999999,409.0012,35.8608,175,75
2026-05-07 18:34:28.940,2,1.11,-0.68,0.42,-126.553,374.9812,4.160799999999998,175,75
2026-05-07 18:34:28.951,2,1.09,-0.74,0.63,-126.553,296.69120000000004,-18.529200000000003,175,75
2026-05-07 18:34:28.962,2,0.75,-0.76,0.78,-121.063,229.9812,-33.7692,175,75
2026-05-07 18:34:28.973,2,0.33,-0.74,0.84,-112.893,228.15120000000002,-63.4692,175,75
2026-05-07 18:34:28.973,2,0.17,-0.66,0.85,-108.143,286.20120000000003,-98.1592,175,75
2026-05-07 18:34:28.984,2,0.28,-0.52,0.88,-94.053,344.0012,-117.24919999999999,175,75
2026-05-07 18:34:28.995,2,0.35,-0.38,0.98,-62.342999999999996,386.7512,-130.7192,175,75
2026-05-07 18:34:29.006,2,0.17,-0.22,1.08,-25.273,408.1512,-131.32920000000001,175,75
2026-05-07 18:34:29.026,2,-0.02,-0.09,1.18,14.787,389.1212,-126.93920000000001,175,75
2026-05-07 18:34:29.027,2,-0.24,0.03,1.37,51.067,362.7212,-128.2792,175,75
2026-05-07 18:34:29.037,2,-0.43,0.2,1.69,87.657,331.5012,-149.86919999999998,175,75
2026-05-07 18:34:29.075,2,0.14,0.56,1.81,97.95700000000001,107.54119999999999,-126.4492,175,75
2026-05-07 18:34:29.088,2,-0.13,0.7,1.61,104.967,5.5312,-40.599199999999996,175,75
2026-05-07 18:34:29.108,2,-0.35,0.24,1.22,126.18700000000001,-65.9388,-73.4692,175,75
2026-05-07 18:34:29.120,2,-0.43,0.17,1.05,133.077,-43.61880000000001,-89.6292,175,75
2026-05-07 18:34:29.131,2,-0.37,0.24,1.16,149.297,-11.788800000000002,-96.8192,175,75
2026-05-07 18:34:29.171,2,-0.75,0.23,1.41,151.377,-124.4688,-91.5792,175,75
2026-05-07 18:34:29.185,2,1.33,-0.3,1.04,100.947,-203.6188,-141.81920000000002,175,75
2026-05-07 18:34:29.199,2,0.37,0.01,0.73,98.137,-65.3888,-145.1692,175,75
2026-05-07 18:34:29.219,2,0.02,0.37,0.19,127.89699999999999,28.3312,-135.5992,175,75
2026-05-07 18:34:29.219,2,-0.56,-0.06,0.5,178.207,222.4212,-131.99919999999997,175,75
2026-05-07 18:34:29.236,2,-0.08,-0.29,0.74,212.657,413.76120000000003,-80.4792,175,75
2026-05-07 18:34:29.251,2,0.18,-0.21,1.13,222.407,474.6712,-41.3892,175,75
2026-05-07 18:34:29.265,2,0.42,-0.26,1.44,218.077,411.26120000000003,-0.539200000000001,175,75
2026-05-07 18:34:29.300,2,0.57,-0.38,2.07,180.637,-150.6888,62.690799999999996,175,75
2026-05-07 18:34:29.319,2,-0.02,-0.51,1.6,154.667,-353.8588,74.6408,175,75
2026-05-07 18:34:29.323,2,-0.11,-0.46,1.35,153.267,-384.1688,78.24080000000001,175,75
2026-05-07 18:34:29.355,2,-0.53,-0.24,0.76,172.957,-422.3988,73.1208,175,75
2026-05-07 18:34:29.367,2,-0.83,-0.27,0.71,183.877,-385.5088,61.050799999999995,175,75
2026-05-07 18:34:29.385,2,-0.48,-0.38,0.64,199.117,-200.8088,56.5908,175,75
2026-05-07 18:34:29.398,2,-0.33,-0.19,0.69,206.617,-158.91879999999998,70.1908,175,75
2026-05-07 18:34:29.417,2,-0.31,0.04,0.8,212.897,-139.7788,82.8708,175,75
2026-05-07 18:34:29.433,2,0.02,0.19,0.93,211.187,-189.5888,98.1208,175,75
2026-05-07 18:34:29.438,2,-0.36,0.28,0.87,207.047,-294.7188,110.1908,175,75
2026-05-07 18:34:29.463,2,-0.53,0.25,0.99,177.167,-344.04879999999997,79.6408,175,75
2026-05-07 18:34:29.490,2,-0.36,0.2,0.84,148.387,-365.8788,55.800799999999995,175,75
2026-05-07 18:34:29.503,2,-0.4,0.16,0.8,147.347,-363.4388,47.8708,175,75
2026-05-07 18:34:29.518,2,-0.58,-0.14,0.81,145.827,-304.8988,45.190799999999996,175,75
2026-05-07 18:34:29.540,2,-0.34,-0.62,0.83,150.097,-214.8988,24.2808,175,75
2026-05-07 18:34:29.551,2,-0.37,-0.84,0.89,155.397,-183.6788,29.0308,175,75
2026-05-07 18:34:29.562,2,-0.63,-0.97,0.99,163.327,-131.90879999999999,65.8608,175,75
2026-05-07 18:34:29.575,2,-0.67,-1.03,1.03,173.327,-95.0188,91.7208,175,75
2026-05-07 18:34:29.586,2,-0.77,-0.9,1.25,206.917,-87.45880000000001,101.4108,175,75
2026-05-07 18:34:29.608,2,-0.85,-0.74,1.35,232.717,-94.3488,97.9408,175,75
2026-05-07 18:34:29.619,2,-0.84,-0.72,1.45,245.217,-105.6288,99.9508,175,75
2026-05-07 18:34:29.633,2,-0.73,-0.8,1.44,249.17700000000002,-146.66879999999998,116.2308,175,75
2026-05-07 18:34:29.633,2,-0.54,-0.92,1.39,237.597,-213.6788,128.36079999999998,175,75
2026-05-07 18:34:29.646,2,-0.47,-1.14,1.34,220.337,-264.9588,105.8608,175,75
2026-05-07 18:34:29.660,2,-0.41,-1.31,1.2,213.447,-251.72879999999998,72.3308,175,75
2026-05-07 18:34:29.670,2,-0.28,-1.48,0.92,208.327,-226.0588,30.680799999999998,175,75
2026-05-07 18:34:29.682,2,-0.1,-1.53,0.62,208.747,-204.34879999999998,-13.099200000000003,175,75
2026-05-07 18:34:29.693,2,-0.01,-1.5,0.43,215.887,-174.7188,-52.919200000000004,175,75
2026-05-07 18:34:29.730,2,0.07,-0.73,0.43,252.71699999999998,80.4112,-72.9792,175,75
2026-05-07 18:34:29.786,2,0.58,-0.79,1.05,215.27700000000002,60.8912,20.1308,175,75
2026-05-07 18:34:29.812,2,-0.53,-0.54,0.51,86.917,-196.84879999999998,-33.949200000000005,175,75
2026-05-07 18:34:29.824,2,-0.69,-0.09,0.07,59.727000000000004,-267.8888,-87.2492,175,75
2026-05-07 18:34:29.837,2,-0.62,0.18,-0.14,79.23700000000001,-305.0188,-83.3392,175,75
2026-05-07 18:34:29.849,2,-0.49,0.47,-0.31,106.437,-335.1988,-45.2992,175,75
2026-05-07 18:34:29.856,2,-0.44,0.69,-0.52,116.12700000000001,-359.8388,-1.9992000000000019,175,75
2026-05-07 18:34:29.868,2,-0.58,0.8,-0.76,98.077,-377.7688,29.520799999999998,175,75
2026-05-07 18:34:29.878,2,-1.0,0.78,-0.89,52.717000000000006,-341.4788,36.7208,175,75
2026-05-07 18:34:29.889,2,-1.16,0.63,-1.11,-25.092999999999996,-224.16879999999998,55.7408,175,75
2026-05-07 18:34:29.900,2,-1.0,0.44,-1.17,-79.483,-121.29880000000001,78.9108,175,75
2026-05-07 18:34:29.911,2,-0.74,0.18,-1.11,-104.483,-58.308800000000005,90.5608,175,75
2026-05-07 18:34:29.944,2,-0.32,-0.52,-1.08,-193.383,-201.9688,72.7508,175,75
2026-05-07 18:34:29.955,2,-0.59,-0.72,-1.14,-238.933,-168.5588,96.5908,175,75
2026-05-07 18:34:29.971,2,-0.54,-1.23,-1.17,-262.403,-67.1588,115.0708,175,75
2026-05-07 18:34:30.019,2,0.4,-2.7,-1.13,-341.253,-86.8488,93.1808,175,75
2026-05-07 18:34:30.043,2,-0.12,-3.0,-1.15,-376.253,91.99119999999999,78.4808,175,75
2026-05-07 18:34:30.043,2,-0.19,-3.31,-1.0,-380.33299999999997,216.93120000000002,43.7308,175,75
2026-05-07 18:34:30.053,2,-0.09,-3.35,-0.78,-385.393,348.82120000000003,4.090799999999998,175,75
2026-05-07 18:34:30.064,2,0.0,-3.07,-0.47,-381.673,483.76120000000003,-42.429199999999994,175,75
2026-05-07 18:34:30.078,2,-0.06,-2.66,-0.04,-361.373,623.0912,-96.0292,175,75
2026-05-07 18:34:30.091,2,-0.12,-2.38,0.35,-331.613,734.8611999999999,-146.69920000000002,175,75
2026-05-07 18:34:30.102,2,-0.21,-2.06,0.84,-291.313,829.9212,-200.4792,175,75
2026-05-07 18:34:30.114,2,-0.25,-1.76,1.28,-260.033,894.9812,-242.54919999999998,175,75
2026-05-07 18:34:30.125,2,-0.28,-1.38,1.64,-237.533,932.6612,-285.2392,175,75
2026-05-07 18:34:30.140,2,-0.45,-0.92,1.89,-211.063,941.3811999999999,-320.7792,175,75
2026-05-07 18:34:30.164,2,-0.91,-0.34,2.26,-79.053,914.0612,-328.1592,175,75
2026-05-07 18:34:30.194,2,-1.35,0.26,2.2,93.81700000000001,736.0211999999999,-257.3092,175,75
2026-05-07 18:34:30.207,2,-1.1,0.73,2.0,95.767,616.3811999999999,-212.24919999999997,175,75
2026-05-07 18:34:30.238,2,-1.1,0.85,1.54,112.227,472.6612,-132.6092,175,75
2026-05-07 18:34:30.251,2,-1.08,0.8,1.47,112.95700000000001,424.0612,-101.8792,175,75
2026-05-07 18:34:30.263,2,-1.01,0.86,1.42,99.177,373.94120000000004,-69.4992,175,75
2026-05-07 18:34:30.274,2,-0.87,1.0,1.34,92.227,307.6612,-42.1892,175,75
2026-05-07 18:34:30.293,2,-0.94,0.83,1.29,102.107,176.6912,-9.989200000000004,175,75
2026-05-07 18:34:30.301,2,-1.04,0.79,1.27,103.077,143.33120000000002,0.5608000000000004,175,75
2026-05-07 18:34:30.321,2,-1.07,0.8,1.21,108.327,131.3212,15.680799999999998,175,75
2026-05-07 18:34:30.321,2,-1.09,0.8,1.2,111.98700000000001,133.8212,26.7808,175,75
2026-05-07 18:34:30.345,2,-1.14,0.84,1.16,111.917,149.0012,44.2208,175,75
2026-05-07 18:34:30.355,2,-1.11,0.83,1.17,110.45700000000001,159.8612,60.620799999999996,175,75
2026-05-07 18:34:30.356,2,-1.05,0.77,1.16,109.177,154.80120000000002,79.5808,175,75
2026-05-07 18:34:30.388,2,-1.01,0.7,1.09,107.287,124.6112,107.1408,175,75
2026-05-07 18:34:30.416,2,-1.03,0.61,1.12,101.06700000000001,132.5412,143.9708,175,75
2026-05-07 18:34:30.449,2,-0.97,0.4,1.18,89.117,116.8712,171.17079999999999,175,75
2026-05-07 18:34:30.460,2,-0.97,0.36,1.12,88.447,119.0612,186.4108,175,75
2026-05-07 18:34:30.471,2,-1.09,0.42,1.11,85.887,126.8712,194.3408,175,75
2026-05-07 18:34:30.485,2,-2.72,0.07,1.57,100.217,147.1712,197.57080000000002,175,75
2026-05-07 18:34:30.510,2,1.24,-0.55,1.72,120.33699999999999,214.6112,209.8308,175,75
2026-05-07 18:34:30.537,2,-1.08,1.01,0.91,18.076999999999998,-16.4788,238.06079999999997,175,75
2026-05-07 18:34:30.552,2,-1.86,0.06,1.26,82.167,121.1412,263.0008,175,75
2026-05-07 18:34:30.576,2,-0.34,0.75,2.05,52.047000000000004,107.9112,341.1708,175,75
2026-05-07 18:34:30.610,2,-0.24,0.9,2.01,37.047000000000004,149.3112,365.5008,175,75
2026-05-07 18:34:30.624,2,-0.25,0.94,2.33,45.157000000000004,301.69120000000004,385.1908,175,75
2026-05-07 18:34:30.635,2,0.71,1.35,3.15,99.547,265.1012,366.05080000000004,175,75
2026-05-07 18:34:30.670,2,-0.14,1.47,3.64,132.77700000000002,-99.1688,274.7608,175,75
2026-05-07 18:34:30.698,2,0.33,1.23,2.61,128.387,-72.2788,245.74079999999998,175,75
2026-05-07 18:34:30.720,2,0.6,1.51,2.71,211.737,145.65120000000002,234.5208,175,75
2026-05-07 18:34:30.736,2,0.44,1.51,2.85,227.717,124.2512,209.5208,175,75
2026-05-07 18:34:30.736,2,0.32,1.54,2.83,213.627,79.6112,189.8308,175,75
2026-05-07 18:34:30.770,2,0.14,1.62,2.39,176.187,-56.2988,187.63080000000002,175,75
2026-05-07 18:34:30.770,2,0.05,1.57,2.21,179.847,-91.17880000000001,188.00080000000003,175,75
2026-05-07 18:34:30.802,2,-0.01,1.48,1.57,200.27700000000002,-156.2988,203.67079999999999,175,75
2026-05-07 18:34:30.808,2,0.01,1.49,1.4,202.837,-176.47879999999998,219.95080000000002,175,75
2026-05-07 18:34:30.831,2,-0.13,1.31,1.19,192.52700000000002,-190.50879999999998,237.0208,175,75
2026-05-07 18:34:30.876,2,-0.5,0.66,0.99,163.267,-71.11880000000001,234.5208,175,75
2026-05-07 18:34:30.889,2,-0.44,0.58,0.98,178.017,-61.47880000000001,229.1608,175,75
2026-05-07 18:34:30.901,2,-0.37,0.52,1.0,196.317,-85.1988,222.3908,175,75
2026-05-07 18:34:30.923,2,-0.36,0.48,0.98,210.217,-134.9588,214.2208,175,75
2026-05-07 18:34:30.934,2,-0.49,0.44,0.85,208.937,-191.2988,191.9008,175,75
2026-05-07 18:34:30.976,2,-0.59,0.29,0.75,189.487,-148.6188,166.8408,175,75
2026-05-07 18:34:30.988,2,-0.67,0.22,0.73,184.907,-82.8888,158.7908,175,75
2026-05-07 18:34:30.998,2,-0.69,0.16,0.79,186.377,14.4312,153.36079999999998,175,75
2026-05-07 18:34:31.019,2,-0.49,0.16,1.12,200.517,124.8612,139.3408,175,75
2026-05-07 18:34:31.030,2,-0.6,0.16,1.21,202.047,61.7512,131.7208,175,75
2026-05-07 18:34:31.041,2,-0.66,0.14,1.26,200.397,13.581199999999999,123.6708,175,75
2026-05-07 18:34:31.065,2,-0.73,0.05,1.21,195.887,-38.068799999999996,102.0808,175,75
2026-05-07 18:34:31.077,2,-0.72,0.04,1.11,194.607,-40.9988,85.6808,175,75
2026-05-07 18:34:31.087,2,-0.72,0.09,0.98,196.677,-34.168800000000005,63.2408,175,75
2026-05-07 18:34:31.109,2,-0.67,0.39,0.77,214.547,23.2712,2.870799999999999,175,75
2026-05-07 18:34:31.122,2,-0.57,0.52,0.74,217.657,62.051199999999994,-18.769199999999998,175,75
2026-05-07 18:34:31.135,2,-0.41,0.62,0.77,211.007,100.2812,-14.379200000000004,175,75
2026-05-07 18:34:31.150,2,-0.37,0.72,0.75,195.27700000000002,153.15120000000002,43.2408,175,75
2026-05-07 18:34:31.182,2,-1.0,0.52,0.91,126.24700000000001,277.2312,182.81079999999997,175,75
2026-05-07 18:34:31.194,2,-1.04,0.36,1.1,94.117,361.69120000000004,223.61079999999998,175,75
2026-05-07 18:34:31.209,2,-0.69,0.27,1.22,71.06700000000001,372.5412,243.61079999999998,175,75
2026-05-07 18:34:31.209,2,-0.73,0.08,1.26,41.857,288.76120000000003,260.1308,175,75
2026-05-07 18:34:31.232,2,-0.62,-0.2,1.3,-3.3229999999999986,179.0012,298.4208,175,75
2026-05-07 18:34:31.244,2,-0.37,-0.48,1.26,-69.363,60.3412,351.5908,175,75
2026-05-07 18:34:31.291,2,-0.06,-2.36,0.4,-341.433,-69.7188,684.4608000000001,175,75
2026-05-07 18:34:31.303,2,-0.26,-2.99,-0.33,-386.793,-60.0788,769.4008,175,75
2026-05-07 18:34:31.314,2,-1.26,-3.36,-0.87,-396.863,-139.5888,789.2808,175,75
2026-05-07 18:34:31.331,2,-2.34,-6.43,-2.32,-292.223,-60.7488,351.8408,175,75
2026-05-07 18:34:31.355,2,0.3,-4.49,-1.99,-257.653,187.5412,164.2208,175,75
2026-05-07 18:34:31.366,2,0.3,-3.72,-1.8,-203.563,376.1412,299.0908,175,75
2026-05-07 18:34:31.372,2,0.31,-3.4,-1.37,-143.623,540.8911999999999,411.8408,175,75
2026-05-07 18:34:31.391,2,-0.21,-3.48,-0.94,-83.203,639.8611999999999,291.9008,175,75
2026-05-07 18:34:31.402,2,0.59,-2.97,0.4,-21.183,656.9911999999999,51.9608,175,75
2026-05-07 18:34:31.436,2,1.27,-1.85,1.36,-102.04299999999999,433.88120000000004,-20.839199999999998,175,75
2026-05-07 18:34:31.453,2,0.7,-1.38,1.42,-155.513,441.69120000000004,-19.4392,175,75
2026-05-07 18:34:31.453,2,0.23,-0.97,1.34,-186.553,492.6612,-32.669200000000004,175,75
2026-05-07 18:34:31.463,2,-0.08,-0.57,1.37,-186.373,549.6712,-56.9392,175,75
2026-05-07 18:34:31.496,2,0.24,-0.14,2.07,-104.173,581.6912,-120.1692,175,75
2026-05-07 18:34:31.508,2,-0.05,-0.12,2.35,-87.65299999999999,601.9312,-126.87920000000001,175,75
2026-05-07 18:34:31.508,2,-0.61,-0.08,2.53,-65.453,619.5512,-144.55919999999998,175,75
2026-05-07 18:34:31.519,2,-1.11,0.05,2.7,-37.223,589.8611999999999,-158.82920000000001,175,75
2026-05-07 18:34:31.530,2,-1.44,0.27,2.72,-4.232999999999999,535.2212,-168.5292,175,75
2026-05-07 18:34:31.542,2,-1.17,0.6,2.74,39.667,449.7312,-187.05919999999998,175,75
2026-05-07 18:34:31.552,2,0.19,0.89,2.84,80.217,273.1512,-124.49919999999999,175,75
2026-05-07 18:34:31.559,2,-0.01,1.14,2.55,80.027,144.6112,-3.8892000000000024,175,75
2026-05-07 18:34:31.571,2,-0.36,1.11,2.17,66.187,15.7712,26.7808,175,75
2026-05-07 18:34:31.597,2,-0.43,0.71,1.65,51.497,10.9512,-12.309200000000004,175,75
2026-05-07 18:34:31.604,2,-0.45,0.68,1.46,75.157,44.6112,-11.519199999999998,175,75
2026-05-07 18:34:31.638,2,-0.2,0.55,1.65,151.377,68.8212,-28.8292,175,75
2026-05-07 18:34:31.650,2,-0.11,0.39,1.76,146.127,0.0411999999999999,-23.8292,175,75
2026-05-07 18:34:31.661,2,-0.13,0.22,1.81,135.827,-61.11880000000001,-22.1892,175,75
2026-05-07 18:34:31.672,2,-0.22,0.09,1.7,127.047,-91.9688,-17.309200000000004,175,75
2026-05-07 18:34:31.684,2,-0.33,-0.3,1.35,134.667,-90.9988,-33.7692,175,75
2026-05-07 18:34:31.699,2,-0.16,-0.51,1.11,133.627,-138.3088,-37.1892,175,75
2026-05-07 18:34:31.711,2,-0.02,-0.64,0.86,118.077,-225.1388,-40.53920000000001,175,75
2026-05-07 18:34:31.723,2,-0.05,-0.61,0.76,106.437,-236.5488,-33.8292,175,75
2026-05-07 18:34:31.741,2,-0.01,-0.53,0.68,104.787,-178.6788,-19.019199999999998,175,75
2026-05-07 18:34:31.751,2,0.26,-0.48,0.69,110.577,-59.588800000000006,2.870799999999999,175,75
2026-05-07 18:34:31.758,2,0.56,-0.54,0.78,130.27700000000002,36.2612,19.1608,175,75
2026-05-07 18:34:31.768,2,0.03,-0.53,0.95,169.667,20.3412,47.2608,175,75
2026-05-07 18:34:31.776,2,0.59,-1.18,1.2,190.02700000000002,-39.778800000000004,-21.519199999999998,175,75
2026-05-07 18:34:31.786,2,1.54,-0.72,0.81,155.02700000000002,-87.8888,17.0808,175,75
2026-05-07 18:34:31.802,2,0.57,-0.37,0.58,160.27700000000002,-16.9088,38.7908,175,75
2026-05-07 18:34:31.817,2,0.76,0.23,0.08,169.967,-28.618800000000004,53.1208,175,75
2026-05-07 18:34:31.825,2,0.29,0.27,0.26,177.717,58.1512,60.5608,175,75
2026-05-07 18:34:31.840,2,0.72,0.09,0.33,179.547,156.7512,78.4808,175,75
2026-05-07 18:34:31.850,2,1.07,0.16,0.75,170.097,193.21120000000002,92.5108,175,75
2026-05-07 18:34:31.869,2,1.18,0.53,1.02,135.397,3.8211999999999993,47.330799999999996,175,75
2026-05-07 18:34:31.880,2,0.99,0.63,0.86,132.047,-76.4788,5.250799999999998,175,75
2026-05-07 18:34:31.904,2,0.77,0.67,0.71,136.737,-65.0188,-26.449200000000005,175,75
2026-05-07 18:34:31.915,2,0.54,0.67,0.65,146.127,-15.3888,-39.199200000000005,175,75
2026-05-07 18:34:31.915,2,0.33,0.6,0.72,157.837,83.7012,-43.1592,175,75
2026-05-07 18:34:31.930,2,0.42,0.44,0.79,160.517,146.4412,-38.5292,175,75
2026-05-07 18:34:31.940,2,0.52,0.18,0.91,157.167,177.7812,-28.339199999999998,175,75
2026-05-07 18:34:31.952,2,0.61,-0.2,1.1,150.457,169.0612,-20.169200000000004,175,75
2026-05-07 18:34:31.955,2,0.65,-0.44,1.23,143.747,133.0312,-13.279200000000003,175,75
2026-05-07 18:34:31.970,2,0.61,-0.49,1.37,135.517,64.1212,-4.809200000000001,175,75
2026-05-07 18:34:31.981,2,0.57,-0.16,1.48,127.167,17.8412,4.700799999999997,175,75
2026-05-07 18:34:32.004,2,0.8,0.22,1.58,122.46700000000001,0.1012000000000004,5.620799999999999,175,75
2026-05-07 18:34:32.029,2,0.83,0.29,1.78,121.12700000000001,-84.5888,9.2808,175,75
2026-05-07 18:34:32.040,2,0.63,0.14,1.62,123.87700000000001,-102.6388,8.360799999999998,175,75
2026-05-07 18:34:32.040,2,0.44,0.09,1.46,127.46700000000001,-100.3888,7.940799999999999,175,75
2026-05-07 18:34:32.051,2,0.21,0.14,1.26,134.967,-73.9788,5.0108,175,75
2026-05-07 18:34:32.084,2,-0.13,0.3,1.11,162.77700000000002,26.0212,9.9508,175,75
2026-05-07 18:34:32.094,2,-0.15,0.33,1.16,175.827,67.6612,18.610799999999998,175,75
2026-05-07 18:34:32.094,2,-0.14,0.36,1.2,185.27700000000002,90.10119999999999,27.200799999999997,175,75
2026-05-07 18:34:32.106,2,-0.06,0.4,1.23,192.167,94.0612,38.9708,175,75
2026-05-07 18:34:32.127,2,0.01,0.45,1.27,194.787,82.8412,47.330799999999996,175,75
2026-05-07 18:34:32.140,2,0.0,0.53,1.33,201.247,78.6412,57.260799999999996,175,75
2026-05-07 18:34:32.150,2,-0.01,0.56,1.39,213.017,65.1012,64.9508,175,75
2026-05-07 18:34:32.161,2,-0.07,0.59,1.44,222.347,40.5312,68.3608,175,75
2026-05-07 18:34:32.176,2,-0.16,0.65,1.51,227.657,9.0612,68.79079999999999,175,75
2026-05-07 18:34:32.176,2,-0.18,0.67,1.56,223.877,-8.0088,69.3408,175,75
2026-05-07 18:34:32.190,2,-0.11,0.62,1.65,210.637,-34.288799999999995,76.9008,175,75
2026-05-07 18:34:32.200,2,-0.0,0.4,1.69,189.547,-85.1388,92.6908,175,75
2026-05-07 18:34:32.223,2,-0.04,0.15,1.7,177.167,-130.62879999999998,109.8908,175,75
2026-05-07 18:34:32.223,2,-0.11,-0.07,1.59,178.877,-174.9588,124.5808,175,75
2026-05-07 18:34:32.259,2,-0.49,-0.13,1.09,189.05700000000002,-221.3588,109.5808,175,75
2026-05-07 18:34:32.271,2,-0.46,-0.14,1.0,188.447,-219.5888,96.8408,175,75
2026-05-07 18:34:32.303,2,-0.2,-0.03,0.71,174.297,-217.3388,116.1708,175,75
2026-05-07 18:34:32.323,2,-0.14,0.02,0.58,162.227,-179.7788,172.20080000000002,175,75
2026-05-07 18:34:32.364,2,0.37,-0.19,0.19,87.717,-237.3988,153.67079999999999,175,75
2026-05-07 18:34:32.388,2,0.23,-0.2,-0.03,66.12700000000001,-303.2488,138.24079999999998,175,75
2026-05-07 18:34:32.393,2,-0.2,-0.15,-0.34,36.067,-353.1288,129.70080000000002,175,75
2026-05-07 18:34:32.407,2,-0.69,-0.1,-0.62,-2.5329999999999995,-289.5888,119.8308,175,75
2026-05-07 18:34:32.420,2,-0.67,0.01,-1.09,-50.333,-111.8488,117.5708,175,75
2026-05-07 18:34:32.432,2,-0.25,0.11,-1.28,-79.113,27.9112,143.36079999999998,175,75
2026-05-07 18:34:32.445,2,-0.03,0.03,-1.06,-130.703,178.6412,164.4008,175,75
2026-05-07 18:34:32.445,2,0.2,-0.14,-0.77,-166.063,246.6912,148.30079999999998,175,75
2026-05-07 18:34:32.455,2,0.49,-0.27,-0.46,-197.403,268.2712,132.20080000000002,175,75
2026-05-07 18:34:32.477,2,0.66,-0.17,-0.34,-219.233,200.59120000000001,111.35079999999999,175,75
2026-05-07 18:34:32.489,2,0.58,0.0,-0.23,-231.123,141.9312,98.4808,175,75
2026-05-07 18:34:32.499,2,0.74,0.23,-0.11,-238.083,119.0012,101.8408,175,75
2026-05-07 18:34:32.520,2,2.08,-0.14,0.14,-240.093,172.4212,134.8908,175,75
2026-05-07 18:34:32.526,2,2.84,-0.8,0.37,-263.683,141.62120000000002,111.2308,175,75
2026-05-07 18:34:32.566,2,2.27,-1.7,-0.27,-327.283,-283.4388,44.8908,175,75
2026-05-07 18:34:32.580,2,2.21,-1.2,-0.63,-319.483,-199.5288,11.840799999999998,175,75
2026-05-07 18:34:32.593,2,2.49,-1.0,-0.45,-305.643,133.7612,-2.7992000000000026,175,75
2026-05-07 18:34:32.613,2,2.26,-1.39,0.21,-308.383,256.0812,-54.319199999999995,175,75
2026-05-07 18:34:32.624,2,1.83,-1.47,0.81,-293.383,282.1112,-92.1892,175,75
2026-05-07 18:34:32.628,2,1.13,-1.25,1.29,-260.88300000000004,282.4212,-128.1592,175,75
2026-05-07 18:34:32.650,2,1.05,-0.97,1.66,-199.113,287.6612,-167.79919999999998,175,75
2026-05-07 18:34:32.662,2,1.18,-0.77,1.97,-142.953,244.0612,-191.5192,175,75
2026-05-07 18:34:32.662,2,0.88,-0.56,2.12,-124.783,208.8812,-190.9092,175,75
2026-05-07 18:34:32.675,2,0.4,-0.19,2.16,-115.393,188.09120000000001,-185.7792,175,75
2026-05-07 18:34:32.702,2,-0.07,0.12,2.09,-79.363,163.27120000000002,-196.5192,175,75
2026-05-07 18:34:32.712,2,-0.26,0.39,1.97,-17.223,116.6912,-200.1092,175,75
2026-05-07 18:34:32.720,2,-0.25,0.57,1.87,28.567,65.4112,-173.4092,175,75
2026-05-07 18:34:32.736,2,-0.18,0.78,1.74,58.937,11.2012,-107.7392,175,75
2026-05-07 18:34:32.749,2,-0.4,0.86,1.58,66.247,-42.2188,-58.1592,175,75
2026-05-07 18:34:32.749,2,-0.5,0.77,1.51,57.167,-69.3488,-45.6592,175,75
2026-05-07 18:34:32.761,2,-0.54,0.64,1.43,43.327000000000005,-67.39880000000001,-41.3292,175,75
2026-05-07 18:34:32.771,2,-0.59,0.53,1.35,39.177,-51.058800000000005,-38.4692,175,75
2026-05-07 18:34:32.780,2,-0.68,0.47,1.3,46.557,-43.61880000000001,-43.709199999999996,175,75
2026-05-07 18:34:32.795,2,-0.86,0.46,1.2,57.527,-37.8888,-53.2792,175,75
2026-05-07 18:34:32.830,2,-1.03,0.55,1.07,65.397,-39.3488,-64.3192,175,75
2026-05-07 18:34:32.859,2,-1.25,0.8,0.84,66.187,-21.118800000000004,-76.8792,175,75
2026-05-07 18:34:32.873,2,-1.19,1.14,0.75,62.047,-4.898800000000001,-61.75920000000001,175,75
2026-05-07 18:34:32.897,2,-1.09,0.69,0.87,34.907000000000004,-8.378800000000002,90.8608,175,75
2026-05-07 18:34:32.910,2,-0.76,0.65,0.89,35.637,-67.0888,99.6408,175,75
2026-05-07 18:34:32.920,2,-1.2,0.66,0.86,46.987,-135.0788,76.7808,175,75
2026-05-07 18:34:32.931,2,-1.26,0.75,0.72,56.06700000000001,-134.8988,59.580799999999996,175,75
2026-05-07 18:34:32.942,2,-1.06,0.8,0.64,60.217,-135.56879999999998,50.8608,175,75
2026-05-07 18:34:32.942,2,-0.88,0.89,0.55,59.48700000000001,-141.1188,60.5608,175,75
2026-05-07 18:34:32.954,2,-0.98,0.97,0.56,55.887,-130.7488,79.52080000000001,175,75
2026-05-07 18:34:32.964,2,-1.1,0.94,0.61,47.287000000000006,-95.9988,97.5108,175,75
2026-05-07 18:34:32.964,2,-0.94,0.84,0.61,34.237,-77.8288,119.4008,175,75
2026-05-07 18:34:32.976,2,-0.6,0.73,0.65,19.727000000000004,-111.3588,138.42079999999999,175,75
2026-05-07 18:34:32.990,2,-0.75,0.65,0.75,14.117000000000003,-195.3288,135.1308,175,75
2026-05-07 18:34:33.015,2,-1.79,0.71,0.86,24.967000000000006,-122.51880000000001,135.6808,175,75
2026-05-07 18:34:33.026,2,0.95,0.34,0.32,5.827000000000002,-285.9388,157.81079999999997,175,75
2026-05-07 18:34:33.037,2,0.3,0.13,0.6,-6.4929999999999986,-466.7888,157.3308,175,75
2026-05-07 18:34:33.047,2,-1.1,0.58,0.29,27.407000000000004,-319.3488,155.01080000000002,175,75
2026-05-07 18:34:33.059,2,-0.6,0.61,-0.31,50.337,-219.7188,115.5008,175,75
2026-05-07 18:34:33.070,2,-0.31,0.66,-0.13,63.62700000000001,-77.8888,183.7308,175,75
2026-05-07 18:34:33.080,2,-0.07,0.43,-0.07,59.417,9.671199999999999,208.18079999999998,175,75
2026-05-07 18:34:33.116,2,0.84,-0.33,-0.07,32.897000000000006,-253.0688,199.8308,175,75
2026-05-07 18:34:33.116,2,0.49,-0.38,-0.18,20.707,-328.0088,196.2908,175,75
2026-05-07 18:34:33.131,2,0.37,-0.54,-0.42,9.057,-370.1388,173.00080000000003,175,75
2026-05-07 18:34:33.145,2,0.51,-0.64,-0.62,10.027,-368.55879999999996,154.0308,175,75
2026-05-07 18:34:33.155,2,0.56,-0.64,-0.91,27.527,-357.0888,144.0908,175,75
2026-05-07 18:34:33.177,2,-0.06,-0.73,-1.53,66.98700000000001,-327.3988,95.4408,175,75
2026-05-07 18:34:33.189,2,-0.26,-0.79,-1.72,78.267,-243.49880000000002,74.9508,175,75
2026-05-07 18:34:33.199,2,-0.37,-0.84,-1.8,84.057,-92.6388,66.9608,175,75
2026-05-07 18:34:33.216,2,-0.16,-0.72,-1.42,54.84700000000001,117.4812,63.7908,175,75
2026-05-07 18:34:33.226,2,-0.23,-0.53,-1.12,37.467000000000006,140.8912,70.6808,175,75
2026-05-07 18:34:33.240,2,-0.09,-0.35,-0.76,24.967000000000006,162.4812,77.3308,175,75
2026-05-07 18:34:33.254,2,0.62,-0.54,-0.52,10.637000000000002,108.3312,83.0008,175,75
2026-05-07 18:34:33.276,2,0.39,-0.75,-0.43,-11.183,-12.768799999999999,82.9408,175,75
2026-05-07 18:34:33.287,2,0.27,-0.75,-0.53,-19.423,-33.918800000000005,62.1408,175,75
2026-05-07 18:34:33.299,2,0.03,-0.99,-0.59,-25.703,-18.5588,76.9008,175,75
2026-05-07 18:34:33.326,2,-0.21,-1.53,-0.51,-50.333,118.9412,93.9708,175,75
2026-05-07 18:34:33.340,2,0.1,-1.43,-0.4,-47.282999999999994,163.58120000000002,48.8508,175,75
2026-05-07 18:34:33.343,2,0.22,-0.95,-0.25,-21.003,139.0612,15.4408,175,75
2026-05-07 18:34:33.373,2,0.52,-0.13,-0.07,15.157000000000002,24.9812,-14.809200000000004,175,75
2026-05-07 18:34:33.373,2,0.53,0.15,-0.04,8.207000000000003,-17.088800000000003,-1.5192000000000014,175,75
2026-05-07 18:34:33.385,2,0.3,0.34,-0.12,-18.503,-41.9088,14.2808,175,75
2026-05-07 18:34:33.396,2,0.04,0.18,-0.19,-43.443,-30.7488,20.4408,175,75
2026-05-07 18:34:33.408,2,-0.07,-0.08,-0.22,-48.503,8.941199999999998,26.3508,175,75
2026-05-07 18:34:33.426,2,0.01,-0.28,-0.17,-34.173,55.711200000000005,24.090799999999998,175,75
2026-05-07 18:34:33.437,2,0.32,-0.27,-0.03,-11.672999999999998,66.2012,6.290799999999997,175,75
2026-05-07 18:34:33.451,2,0.54,-0.2,0.1,-0.8829999999999991,29.0612,-7.129200000000001,175,75
2026-05-07 18:34:33.462,2,0.53,-0.22,0.17,-3.142999999999999,-11.1188,-8.589199999999998,175,75
2026-05-07 18:34:33.472,2,0.42,-0.32,0.17,-7.042999999999999,-23.0688,-10.659199999999998,175,75
2026-05-07 18:34:33.493,2,0.38,-0.42,0.01,-8.142999999999999,-12.768799999999999,-35.8392,175,75
2026-05-07 18:34:33.504,2,0.47,-0.35,0.02,-13.992999999999999,12.6612,-42.8592,175,75
2026-05-07 18:34:33.514,2,0.56,-0.26,0.06,-21.183,40.9512,-40.599199999999996,175,75
2026-05-07 18:34:33.525,2,0.56,-0.22,0.14,-23.872999999999998,59.9812,-40.419200000000004,175,75
2026-05-07 18:34:33.537,2,0.54,-0.29,0.33,-16.732999999999997,71.9912,-43.4092,175,75
2026-05-07 18:34:33.549,2,0.54,-0.37,0.46,-6.672999999999999,68.3312,-45.0492,175,75
2026-05-07 18:34:33.554,2,0.55,-0.4,0.57,1.3170000000000002,37.6612,-49.6892,175,75
2026-05-07 18:34:33.567,2,0.53,-0.4,0.62,7.227000000000002,0.8911999999999995,-57.979200000000006,175,75
2026-05-07 18:34:33.587,2,0.5,-0.41,0.66,12.957000000000003,-38.97880000000001,-70.7192,175,75
2026-05-07 18:34:33.600,2,0.44,-0.41,0.62,14.547000000000002,-53.06880000000001,-80.1692,175,75
2026-05-07 18:34:33.600,2,0.34,-0.37,0.59,17.657000000000004,-40.6888,-85.9692,175,75
2026-05-07 18:34:33.622,2,0.32,-0.36,0.59,24.787000000000006,-17.218799999999998,-89.0792,175,75
2026-05-07 18:34:33.632,2,0.46,-0.39,0.65,39.177,7.4212,-94.5592,175,75
2026-05-07 18:34:33.643,2,0.49,-0.42,0.79,51.377,21.6912,-99.9292,175,75
2026-05-07 18:34:33.654,2,0.44,-0.42,0.88,58.937,28.4512,-105.0492,175,75
2026-05-07 18:34:33.666,2,0.43,-0.39,0.91,64.117,16.2012,-113.8292,175,75
2026-05-07 18:34:33.677,2,0.39,-0.37,0.91,67.167,-6.178799999999999,-126.93920000000001,175,75
2026-05-07 18:34:33.687,2,0.31,-0.3,0.89,67.167,-15.9388,-142.54919999999998,175,75
2026-05-07 18:34:33.700,2,0.38,-0.22,0.79,65.637,-15.268799999999999,-156.75920000000002,175,75
2026-05-07 18:34:33.706,2,0.36,-0.1,0.7,68.87700000000001,14.5512,-159.80919999999998,175,75
2026-05-07 18:34:33.717,2,0.33,-0.1,0.69,81.247,80.8312,-150.6592,175,75
2026-05-07 18:34:33.730,2,0.2,-0.16,0.86,106.007,166.2012,-145.4192,175,75
2026-05-07 18:34:33.739,2,0.24,-0.17,1.02,129.607,206.5012,-148.5892,175,75
2026-05-07 18:34:33.746,2,0.38,-0.12,1.22,160.217,218.09120000000001,-156.99919999999997,175,75
2026-05-07 18:34:33.759,2,0.6,-0.1,1.41,193.877,182.1712,-174.98919999999998,175,75
2026-05-07 18:34:33.773,2,0.62,-0.08,1.56,214.237,149.55120000000002,-186.87920000000003,175,75
2026-05-07 18:34:33.791,2,0.71,-0.06,1.64,228.817,128.2112,-190.4192,175,75
2026-05-07 18:34:33.791,2,0.38,-0.07,1.71,242.227,127.2312,-171.99919999999997,175,75
2026-05-07 18:34:33.812,2,0.44,-0.21,1.98,268.627,122.1112,-147.30919999999998,175,75
2026-05-07 18:34:33.823,2,0.71,-0.62,2.2,287.837,-10.268799999999999,-129.25920000000002,175,75
2026-05-07 18:34:33.842,2,0.94,-1.01,1.98,268.207,-266.7888,-86.5792,175,75
2026-05-07 18:34:33.857,2,0.74,-1.14,1.49,244.607,-300.5088,-113.09920000000001,175,75
2026-05-07 18:34:33.882,2,0.31,-1.48,0.82,220.577,-136.72879999999998,-209.74919999999997,175,75
2026-05-07 18:34:33.894,2,0.35,-1.31,0.86,237.167,-44.0488,-223.7692,175,75
2026-05-07 18:34:33.905,2,0.49,-1.0,1.39,277.657,25.9512,-210.6592,175,75
2026-05-07 18:34:33.920,2,0.52,-1.1,1.75,268.567,-17.4588,-183.3392,175,75
2026-05-07 18:34:33.931,2,0.41,-1.19,1.86,234.967,-70.2688,-156.63920000000002,175,75
2026-05-07 18:34:33.941,2,0.25,-1.34,1.88,167.837,-160.87879999999998,-133.2792,175,75
2026-05-07 18:34:33.969,2,-0.44,-1.39,1.28,107.167,-143.06879999999998,-172.24919999999997,175,75
2026-05-07 18:34:33.980,2,-0.7,-1.17,1.12,133.747,-103.9188,-194.43920000000003,175,75
2026-05-07 18:34:33.995,2,-0.84,-0.92,1.13,170.02700000000002,-60.1388,-214.74919999999997,175,75
2026-05-07 18:34:34.021,2,-0.91,-0.49,1.25,206.377,23.941200000000002,-199.55919999999998,175,75
2026-05-07 18:34:34.032,2,-0.67,-0.38,1.26,207.717,22.4212,-176.81920000000002,175,75
2026-05-07 18:34:34.044,2,-0.62,-0.42,1.25,205.947,29.8612,-164.0192,175,75
2026-05-07 18:34:34.062,2,-0.56,-0.51,1.17,203.327,47.721199999999996,-139.49919999999997,175,75
2026-05-07 18:34:34.072,2,-0.65,-0.61,1.17,199.967,56.7512,-103.03920000000001,175,75
2026-05-07 18:34:34.083,2,-0.83,-0.65,1.27,205.577,72.2312,-68.3392,175,75
2026-05-07 18:34:34.090,2,-0.87,-0.62,1.37,219.727,52.8412,-56.5192,175,75
2026-05-07 18:34:34.110,2,-0.78,-0.6,1.62,233.507,-95.6288,-75.7192,175,75
2026-05-07 18:34:34.151,2,-0.97,-0.47,0.92,187.897,-277.1588,-27.3692,175,75
2026-05-07 18:34:34.161,2,-1.53,-0.34,0.79,203.327,-299.7188,-10.7192,175,75
2026-05-07 18:34:34.171,2,-1.97,-0.32,0.66,228.137,-225.8088,-14.4392,175,75
2026-05-07 18:34:34.183,2,-1.88,-0.36,0.57,246.91700000000003,-73.3788,-37.669200000000004,175,75
2026-05-07 18:34:34.195,2,-1.39,-0.33,0.63,262.527,51.2612,-20.599200000000003,175,75
2026-05-07 18:34:34.206,2,-1.09,-0.26,0.87,284.177,136.9312,45.2508,175,75
2026-05-07 18:34:34.235,2,-1.16,-0.41,1.38,313.877,103.9412,88.9708,175,75
2026-05-07 18:34:34.235,2,-1.15,-0.57,1.55,307.107,-23.128800000000002,75.01079999999999,175,75
2026-05-07 18:34:34.246,2,-1.23,-0.6,1.56,273.017,-125.9988,80.9808,175,75
2026-05-07 18:34:34.267,2,-1.31,-0.5,1.29,233.747,-221.1188,98.3008,175,75
2026-05-07 18:34:34.280,2,-1.83,-0.61,1.06,246.187,-199.65879999999999,100.3708,175,75
2026-05-07 18:34:34.289,2,-2.12,-0.55,0.96,265.097,-153.7988,108.9108,175,75
2026-05-07 18:34:34.341,2,-1.45,0.07,0.54,247.527,-20.268800000000002,252.75080000000003,175,75
2026-05-07 18:34:34.351,2,-2.45,-0.96,1.3,320.397,152.1712,198.61079999999998,175,75
2026-05-07 18:34:34.362,2,-1.36,-2.53,1.52,396.437,331.9312,239.1608,175,75
2026-05-07 18:34:34.376,2,-0.64,-2.93,2.68,331.617,139.5512,357.2008,175,75
2026-05-07 18:34:34.411,2,-0.81,-3.42,3.01,280.027,-353.67879999999997,379.2208,175,75
2026-05-07 18:34:34.422,2,-0.97,-4.48,2.71,329.66700000000003,-475.80879999999996,358.55080000000004,175,75
2026-05-07 18:34:34.433,2,-1.14,-5.17,2.39,382.957,-435.8788,357.6308,175,75
2026-05-07 18:34:34.451,2,-0.65,-4.65,2.16,475.397,-278.1888,317.0208,175,75
2026-05-07 18:34:34.456,2,-0.26,-4.53,2.35,523.1370000000001,-300.6888,306.2908,175,75
2026-05-07 18:34:34.468,2,-0.34,-4.82,2.53,551.437,-396.9688,322.4508,175,75
