Time,ID,Ax,Ay,Az,Gx,Gy,Gz,Height,Weight
2026-05-09 15:07:00.197,2,1.62,-1.08,1.37,-122.78099999999999,96.5588,-103.81719999999999,175,75
2026-05-09 15:07:00.211,2,1.73,-0.83,1.29,-159.861,100.0288,-55.097199999999994,175,75
2026-05-09 15:07:00.215,2,1.49,-0.58,1.2,-170.041,117.8988,-17.3572,175,75
2026-05-09 15:07:00.234,2,1.24,-0.62,1.26,-104.98100000000001,178.68880000000001,-37.3572,175,75
2026-05-09 15:07:00.257,2,1.06,-0.56,1.53,-31.260999999999996,244.8488,-66.0172,175,75
2026-05-09 15:07:00.291,2,0.94,-0.35,1.67,-9.001,247.28880000000004,-71.31719999999999,175,75
2026-05-09 15:07:00.335,2,0.86,-0.38,2.02,43.559000000000005,129.6688,26.242800000000003,175,75
2026-05-09 15:07:00.347,2,0.92,-0.42,2.02,52.279,79.72879999999999,29.5928,175,75
2026-05-09 15:07:00.359,2,0.93,-0.41,1.97,55.879000000000005,46.6188,29.8428,175,75
2026-05-09 15:07:00.371,2,1.14,-0.46,1.88,70.26899999999999,6.0687999999999995,20.692800000000002,175,75
2026-05-09 15:07:00.395,2,0.92,-0.38,1.72,92.45899999999999,33.748799999999996,10.2628,175,75
2026-05-09 15:07:00.409,2,0.9,-0.42,1.6,115.389,11.9288,-0.21720000000000006,175,75
2026-05-09 15:07:00.421,2,0.9,-0.46,1.58,120.26899999999999,4.0588,7.702800000000001,175,75
2026-05-09 15:07:00.432,2,0.9,-0.55,1.52,126.54899999999999,-14.2912,16.672800000000002,175,75
2026-05-09 15:07:00.446,2,0.94,-0.65,1.43,135.749,-49.9712,23.1328,175,75
2026-05-09 15:07:00.456,2,0.97,-0.67,1.36,143.499,-71.1212,24.7828,175,75
2026-05-09 15:07:00.466,2,0.98,-0.61,1.24,154.839,-73.3812,28.0728,175,75
2026-05-09 15:07:00.478,2,0.9,-0.56,1.14,165.749,-54.5412,33.4328,175,75
2026-05-09 15:07:00.488,2,0.92,-0.62,1.09,175.199,-25.821199999999997,40.0828,175,75
2026-05-09 15:07:00.503,2,1.11,-0.76,1.05,176.479,-21.9212,50.0828,175,75
2026-05-09 15:07:00.519,2,1.33,-0.96,1.1,173.979,-36.6112,54.0428,175,75
2026-05-09 15:07:00.529,2,1.66,-1.37,1.04,176.419,-34.6612,37.522800000000004,175,75
2026-05-09 15:07:00.544,2,1.83,-1.4,0.92,184.71900000000002,-38.7512,42.1528,175,75
2026-05-09 15:07:00.556,2,2.09,-1.55,0.79,203.06900000000002,-66.7312,39.412800000000004,175,75
2026-05-09 15:07:00.578,2,2.22,-2.01,0.71,229.109,-104.2312,37.522800000000004,175,75
2026-05-09 15:07:00.603,2,2.45,-2.23,0.51,237.339,-152.8912,1.1227999999999998,175,75
2026-05-09 15:07:00.613,2,2.79,-2.1,0.33,237.21900000000002,-187.3412,-21.257199999999997,175,75
2026-05-09 15:07:00.639,2,2.94,-1.82,-0.04,255.749,-237.9512,-53.3872,175,75
2026-05-09 15:07:00.639,2,2.76,-1.92,-0.17,270.019,-243.50119999999998,-77.59719999999999,175,75
2026-05-09 15:07:00.677,2,2.15,-2.27,-0.35,273.12899999999996,-114.9712,-141.25719999999998,175,75
2026-05-09 15:07:00.705,2,2.1,-2.08,-0.28,278.18899999999996,5.518800000000001,-164.8572,175,75
2026-05-09 15:07:00.720,2,2.13,-1.94,-0.18,286.729,10.5188,-173.69719999999998,175,75
2026-05-09 15:07:00.720,2,2.07,-1.8,-0.06,290.87899999999996,15.708799999999998,-176.56719999999999,175,75
2026-05-09 15:07:00.737,2,1.98,-1.63,0.02,294.049,29.9688,-175.5272,175,75
2026-05-09 15:07:00.750,2,1.93,-1.5,0.04,296.669,37.1688,-173.4572,175,75
2026-05-09 15:07:00.776,2,1.87,-1.42,0.11,296.359,54.6688,-164.8572,175,75
2026-05-09 15:07:00.776,2,1.75,-1.42,0.23,291.299,75.7688,-155.9572,175,75
2026-05-09 15:07:00.781,2,1.69,-1.4,0.36,287.88899999999995,109.8488,-145.3472,175,75
2026-05-09 15:07:00.811,2,1.77,-1.37,0.49,284.289,135.45880000000002,-133.3272,175,75
2026-05-09 15:07:00.811,2,1.8,-1.31,0.57,281.239,131.3188,-125.5272,175,75
2026-05-09 15:07:00.861,2,1.79,-0.81,0.71,273.919,13.818800000000001,-140.03719999999998,175,75
2026-05-09 15:07:00.862,2,1.64,-0.69,0.71,279.959,23.748799999999996,-139.6072,175,75
2026-05-09 15:07:00.885,2,1.56,-0.7,0.82,283.00899999999996,51.9888,-125.5272,175,75
2026-05-09 15:07:00.898,2,1.58,-0.84,1.0,278.739,84.2388,-108.3872,175,75
2026-05-09 15:07:00.907,2,1.72,-1.0,1.15,268.739,93.8788,-97.53720000000001,175,75
2026-05-09 15:07:00.931,2,1.66,-0.98,1.2,248.739,26.0088,-98.3272,175,75
2026-05-09 15:07:00.932,2,1.57,-0.82,1.11,241.179,-9.9612,-103.4572,175,75
2026-05-09 15:07:00.949,2,1.53,-0.71,1.03,235.749,-30.331200000000003,-101.56719999999999,175,75
2026-05-09 15:07:00.959,2,1.45,-0.57,0.94,228.309,-36.1812,-86.25720000000001,175,75
2026-05-09 15:07:00.961,2,1.32,-0.49,0.91,225.079,-16.7312,-67.41720000000001,175,75
2026-05-09 15:07:00.976,2,1.25,-0.46,0.93,224.109,9.4888,-52.1072,175,75
2026-05-09 15:07:01.027,2,1.25,-0.51,1.04,178.739,-18.6812,5.4528,175,75
2026-05-09 15:07:01.055,2,1.08,-0.42,0.74,135.809,-49.8412,35.5128,175,75
2026-05-09 15:07:01.065,2,1.02,-0.38,0.62,126.84899999999999,-53.2612,43.6228,175,75
2026-05-09 15:07:01.086,2,1.0,-0.35,0.51,116.669,-61.0612,50.3928,175,75
2026-05-09 15:07:01.096,2,0.96,-0.33,0.45,108.06899999999999,-65.6412,58.8628,175,75
2026-05-09 15:07:01.123,2,0.82,-0.29,0.13,63.439,-89.3612,101.06280000000001,175,75
2026-05-09 15:07:01.143,2,0.85,-0.59,-0.24,-4.191000000000001,-133.3812,140.5128,175,75
2026-05-09 15:07:01.152,2,0.73,-0.75,-0.54,-46.561,-156.5512,157.3428,175,75
2026-05-09 15:07:01.163,2,0.53,-0.87,-0.83,-79.671,-179.4212,176.8528,175,75
2026-05-09 15:07:01.170,2,0.38,-1.02,-1.05,-104.98100000000001,-183.6212,197.46280000000002,175,75
2026-05-09 15:07:01.185,2,0.27,-1.25,-1.27,-130.65099999999998,-170.76119999999997,224.1728,175,75
2026-05-09 15:07:01.193,2,0.11,-1.55,-1.57,-168.15099999999998,-136.6712,263.0728,175,75
2026-05-09 15:07:01.216,2,-0.11,-2.32,-1.92,-255.16099999999997,-40.4512,354.2328,175,75
2026-05-09 15:07:01.232,2,-0.11,-2.85,-2.0,-331.62100000000004,29.1188,399.3528,175,75
2026-05-09 15:07:01.243,2,-0.04,-3.28,-2.09,-394.25100000000003,64.1188,430.51279999999997,175,75
2026-05-09 15:07:01.251,2,-0.07,-4.07,-2.08,-443.271,129.11880000000002,460.8728,175,75
2026-05-09 15:07:01.264,2,0.18,-4.87,-2.15,-451.261,171.92880000000002,477.95279999999997,175,75
2026-05-09 15:07:01.277,2,0.46,-5.61,-2.05,-450.891,176.98880000000003,495.02279999999996,175,75
2026-05-09 15:07:01.308,2,1.3,-6.22,-1.2,-424.981,113.0188,456.8528,175,75
2026-05-09 15:07:01.329,2,1.2,-6.29,-0.55,-465.221,-138.32119999999998,397.70279999999997,175,75
2026-05-09 15:07:01.348,2,1.18,-6.2,-0.9,-505.8310000000001,-139.0512,325.7528,175,75
2026-05-09 15:07:01.350,2,1.72,-5.74,-1.25,-501.321,-114.05120000000001,305.51279999999997,175,75
2026-05-09 15:07:01.363,2,1.82,-4.84,-1.3,-429.37100000000004,-26.1212,346.1828,175,75
2026-05-09 15:07:01.377,2,1.45,-4.48,-1.01,-384.00100000000003,89.8488,342.58279999999996,175,75
2026-05-09 15:07:01.388,2,1.44,-4.28,-0.57,-364.731,185.8288,322.40279999999996,175,75
2026-05-09 15:07:01.399,2,1.15,-3.94,-0.01,-351.81100000000004,281.4388,303.2528,175,75
2026-05-09 15:07:01.403,2,1.07,-3.68,0.36,-336.201,363.9988,253.74280000000002,175,75
2026-05-09 15:07:01.424,2,1.3,-3.48,0.65,-316.69100000000003,401.3788,200.02280000000002,175,75
2026-05-09 15:07:01.427,2,1.52,-3.14,1.22,-296.81100000000004,434.5488,146.4228,175,75
2026-05-09 15:07:01.438,2,1.61,-2.75,1.58,-294.55100000000004,474.4288,123.80279999999999,175,75
2026-05-09 15:07:01.448,2,2.16,-2.29,1.83,-264.981,431.3788,93.43280000000001,175,75
2026-05-09 15:07:01.465,2,1.68,-1.97,2.1,-217.971,255.5188,98.62280000000001,175,75
2026-05-09 15:07:01.475,2,1.04,-1.47,2.8,-208.581,273.6888,95.4528,175,75
2026-05-09 15:07:01.509,2,0.84,-1.12,2.97,-128.701,46.6188,-103.99719999999999,175,75
2026-05-09 15:07:01.533,2,1.64,-0.41,2.12,-94.921,-6.9212,27.0328,175,75
2026-05-09 15:07:01.546,2,1.14,0.07,2.03,-87.721,23.9388,59.1128,175,75
2026-05-09 15:07:01.594,2,1.23,-0.42,2.43,-61.501,141.0688,-0.28719999999999857,175,75
2026-05-09 15:07:01.627,2,1.2,-0.27,2.2,-16.201,171.73880000000003,37.4628,175,75
2026-05-09 15:07:01.644,2,1.2,-0.46,2.24,47.279,258.5688,22.0328,175,75
2026-05-09 15:07:01.659,2,1.17,-0.51,2.33,87.829,265.0288,1.1227999999999998,175,75
2026-05-09 15:07:01.667,2,1.25,-0.46,2.33,112.51899999999999,237.0488,-5.587199999999999,175,75
2026-05-09 15:07:01.680,2,1.2,-0.4,2.32,121.359,191.73880000000003,2.2128000000000014,175,75
2026-05-09 15:07:01.696,2,1.22,-0.35,2.17,121.84899999999999,127.89880000000001,6.972800000000001,175,75
2026-05-09 15:07:01.713,2,2.64,-0.33,1.98,141.78900000000002,-6.731199999999999,-0.15719999999999956,175,75
2026-05-09 15:07:01.749,2,2.47,-1.04,2.65,100.999,-66.6712,53.7428,175,75
2026-05-09 15:07:01.749,2,1.61,-0.88,1.85,98.009,118.0188,50.4528,175,75
2026-05-09 15:07:01.749,2,1.7,-1.1,0.95,130.019,161.92880000000002,-79.5472,175,75
2026-05-09 15:07:01.784,2,2.23,-1.15,1.16,279.959,135.21880000000002,58.1928,175,75
2026-05-09 15:07:01.810,2,2.72,-1.67,1.34,300.50899999999996,34.428799999999995,51.6728,175,75
2026-05-09 15:07:01.810,2,2.88,-2.12,1.33,295.68899999999996,-24.901200000000003,27.2128,175,75
2026-05-09 15:07:01.821,2,3.17,-2.36,1.16,295.80899999999997,-60.4512,-1.8071999999999981,175,75
2026-05-09 15:07:01.838,2,3.48,-2.54,0.73,301.789,-121.0612,-48.9372,175,75
2026-05-09 15:07:01.850,2,4.15,-2.29,-0.14,308.18899999999996,-213.01119999999997,-136.0772,175,75
2026-05-09 15:07:01.859,2,4.13,-2.35,-0.38,309.469,-274.4212,-170.7072,175,75
2026-05-09 15:07:01.865,2,4.16,-2.67,-0.69,304.659,-342.77119999999996,-225.0972,175,75
2026-05-09 15:07:01.899,2,3.75,-2.91,-1.13,280.68899999999996,-401.7312,-281.7472,175,75
2026-05-09 15:07:01.929,2,2.37,-2.51,-2.37,197.399,-170.94119999999998,-410.5872,175,75
2026-05-09 15:07:01.944,2,2.33,-2.28,-2.17,191.179,-37.3412,-418.6972,175,75
2026-05-09 15:07:01.954,2,2.42,-2.2,-1.68,205.079,43.4488,-430.34720000000004,175,75
2026-05-09 15:07:01.976,2,2.26,-2.39,-0.95,198.799,-16.8612,-453.4572,175,75
2026-05-09 15:07:01.986,2,1.78,-2.21,-0.64,200.019,-102.5912,-472.29720000000003,175,75
2026-05-09 15:07:02.008,2,0.75,-1.49,-0.43,175.329,-71.3712,-426.6272,175,75
2026-05-09 15:07:02.058,2,0.59,-0.93,0.17,232.339,103.9388,-353.1472,175,75
2026-05-09 15:07:02.058,2,0.96,-0.96,0.38,253.979,127.04879999999999,-332.10720000000003,175,75
2026-05-09 15:07:02.096,2,0.88,-0.97,0.68,245.50900000000001,79.3588,-287.35720000000003,175,75
2026-05-09 15:07:02.107,2,0.76,-0.94,0.77,236.479,60.8888,-277.65720000000005,175,75
2026-05-09 15:07:02.121,2,0.74,-0.85,0.79,231.239,37.8388,-267.1772,175,75
2026-05-09 15:07:02.121,2,0.73,-0.82,0.78,231.059,14.848799999999999,-261.2572,175,75
2026-05-09 15:07:02.133,2,0.73,-0.85,0.78,234.109,-7.5912,-259.1272,175,75
2026-05-09 15:07:02.156,2,0.55,-1.04,0.74,229.46900000000002,-39.6012,-260.09720000000004,175,75
2026-05-09 15:07:02.180,2,0.39,-0.99,0.61,212.699,-27.9512,-256.8672,175,75
2026-05-09 15:07:02.180,2,0.31,-0.94,0.55,204.28900000000002,-23.7512,-251.31719999999999,175,75
2026-05-09 15:07:02.191,2,0.25,-0.91,0.5,199.169,0.6387999999999998,-244.8572,175,75
2026-05-09 15:07:02.202,2,0.22,-0.95,0.48,199.28900000000002,30.1588,-234.3672,175,75
2026-05-09 15:07:02.202,2,0.25,-1.01,0.48,197.889,62.288799999999995,-224.1272,175,75
2026-05-09 15:07:02.239,2,0.35,-0.86,0.51,181.609,111.9888,-192.1772,175,75
2026-05-09 15:07:02.256,2,0.39,-0.81,0.55,176.549,106.6788,-186.13719999999998,175,75
2026-05-09 15:07:02.268,2,0.43,-0.69,0.52,169.40900000000002,112.0488,-178.5772,175,75
2026-05-09 15:07:02.280,2,0.46,-0.61,0.53,159.049,109.9688,-170.88719999999998,175,75
2026-05-09 15:07:02.297,2,0.59,-0.46,0.48,127.089,109.72879999999999,-154.6072,175,75
2026-05-09 15:07:02.309,2,0.58,-0.39,0.45,114.289,110.33879999999999,-149.06719999999999,175,75
2026-05-09 15:07:02.320,2,0.62,-0.31,0.46,100.809,119.9688,-142.7172,175,75
2026-05-09 15:07:02.363,2,0.84,0.04,0.4,48.979,68.7488,-116.43719999999999,175,75
2026-05-09 15:07:02.364,2,0.9,0.1,0.4,36.729,39.2988,-109.7972,175,75
2026-05-09 15:07:02.386,2,0.83,0.27,0.01,25.569000000000003,-124.8412,-93.5172,175,75
2026-05-09 15:07:02.400,2,0.76,0.39,-0.25,25.389000000000003,-223.6212,-71.49719999999999,175,75
2026-05-09 15:07:02.415,2,0.66,0.51,-0.55,5.749,-261.7312,-26.627200000000002,175,75
2026-05-09 15:07:02.427,2,0.4,0.55,-0.81,-19.801000000000002,-233.75119999999998,8.372800000000002,175,75
2026-05-09 15:07:02.452,2,0.05,0.55,-1.12,-47.541,-139.97119999999998,48.6828,175,75
2026-05-09 15:07:02.452,2,-0.17,0.52,-1.3,-61.811,-0.09120000000000061,95.87280000000001,175,75
2026-05-09 15:07:02.476,2,-0.24,0.52,-1.32,-62.660999999999994,123.5688,140.1428,175,75
2026-05-09 15:07:02.487,2,-0.17,0.5,-1.15,-51.141,283.8788,214.8428,175,75
2026-05-09 15:07:02.499,2,-0.0,0.36,-0.91,-57.481,366.5588,275.51279999999997,175,75
2026-05-09 15:07:02.509,2,0.09,0.16,-0.67,-82.661,414.60880000000003,325.20279999999997,175,75
2026-05-09 15:07:02.524,2,0.79,-0.63,-0.4,-192.541,392.4688,423.5028,175,75
2026-05-09 15:07:02.537,2,1.06,-0.98,-0.38,-232.84099999999998,324.5488,440.6328,175,75
2026-05-09 15:07:02.537,2,1.18,-1.32,-0.36,-266.50100000000003,247.22880000000004,447.21279999999996,175,75
2026-05-09 15:07:02.552,2,1.03,-1.58,-0.29,-300.101,166.98880000000003,470.9328,175,75
2026-05-09 15:07:02.563,2,0.96,-1.74,-0.37,-324.55100000000004,102.9588,499.1128,175,75
2026-05-09 15:07:02.586,2,1.19,-2.18,-0.8,-356.261,-57.1012,515.6328,175,75
2026-05-09 15:07:02.618,2,1.45,-2.86,-1.55,-382.231,-47.1012,573.9227999999999,175,75
2026-05-09 15:07:02.643,2,1.21,-2.75,-1.55,-328.94100000000003,-49.111200000000004,590.3928,175,75
2026-05-09 15:07:02.657,2,1.68,-3.39,-1.39,-301.93100000000004,-73.0712,590.0228,175,75
2026-05-09 15:07:02.668,2,2.01,-4.0,-1.29,-306.38100000000003,-106.0012,565.3928,175,75
2026-05-09 15:07:02.680,2,2.47,-4.67,-1.32,-319.00100000000003,-175.51119999999997,538.9828,175,75
2026-05-09 15:07:02.690,2,2.33,-4.48,-1.37,-308.091,-240.57119999999998,525.1428,175,75
2026-05-09 15:07:02.705,2,1.88,-3.98,-1.48,-279.12100000000004,-186.31119999999999,501.9728,175,75
2026-05-09 15:07:02.705,2,1.86,-3.85,-1.67,-265.161,-94.8412,481.0628,175,75
2026-05-09 15:07:02.715,2,1.85,-3.92,-1.74,-262.171,27.288799999999995,465.08279999999996,175,75
2026-05-09 15:07:02.726,2,1.98,-3.88,-1.58,-262.971,216.3788,445.14279999999997,175,75
2026-05-09 15:07:02.736,2,2.06,-3.68,-1.21,-261.081,331.3188,419.78279999999995,175,75
2026-05-09 15:07:02.748,2,1.96,-3.52,-0.64,-251.441,416.0688,373.6228,175,75
2026-05-09 15:07:02.769,2,1.9,-3.42,-0.03,-243.03099999999998,491.3188,311.2428,175,75
2026-05-09 15:07:02.783,2,1.79,-2.8,0.99,-248.271,605.2188,195.2628,175,75
2026-05-09 15:07:02.799,2,2.04,-2.18,1.26,-219.801,563.2088,130.2028,175,75
2026-05-09 15:07:02.811,2,2.16,-1.62,1.5,-174.801,388.5088,90.6928,175,75
2026-05-09 15:07:02.811,2,1.49,-1.31,1.61,-151.501,301.3788,69.2928,175,75
2026-05-09 15:07:02.822,2,1.15,-0.93,1.7,-146.381,351.0688,7.462800000000001,175,75
2026-05-09 15:07:02.830,2,1.24,-0.73,1.67,-171.99099999999999,381.0088,-9.127199999999998,175,75
2026-05-09 15:07:02.860,2,0.96,-0.11,2.08,-170.221,435.9488,-91.1372,175,75
2026-05-09 15:07:02.874,2,1.23,-0.26,2.18,-123.94100000000002,340.4588,-79.06719999999999,175,75
2026-05-09 15:07:02.889,2,1.03,-0.25,2.03,-76.93100000000001,76.0688,32.2128,175,75
2026-05-09 15:07:02.903,2,0.89,-0.13,1.86,-60.651,24.488799999999998,40.2628,175,75
2026-05-09 15:07:02.916,2,0.73,0.06,1.62,-40.161,65.8888,18.0128,175,75
2026-05-09 15:07:02.940,2,1.01,0.06,1.8,13.439,198.8188,-21.5672,175,75
2026-05-09 15:07:02.964,2,0.68,-0.07,1.85,46.849000000000004,177.77880000000002,-6.987199999999998,175,75
2026-05-09 15:07:02.985,2,1.86,-0.21,2.13,54.169000000000004,79.1788,8.4328,175,75
2026-05-09 15:07:02.999,2,1.08,-0.3,2.26,50.199000000000005,134.7288,48.5028,175,75
2026-05-09 15:07:03.004,2,1.37,-0.19,1.76,76.419,171.3188,5.9328,175,75
2026-05-09 15:07:03.016,2,1.73,-0.34,1.72,93.439,106.5588,-17.7172,175,75
2026-05-09 15:07:03.036,2,1.12,-0.45,1.63,99.65899999999999,203.3888,59.842800000000004,175,75
2026-05-09 15:07:03.048,2,1.52,-0.67,1.55,117.76899999999999,230.8288,84.53280000000001,175,75
2026-05-09 15:07:03.060,2,2.03,-0.74,1.84,149.65900000000002,220.02880000000002,91.3628,175,75
2026-05-09 15:07:03.070,2,2.39,-0.67,2.17,166.669,213.5688,92.58279999999999,175,75
2026-05-09 15:07:03.070,2,2.39,-0.65,2.39,171.419,169.42880000000002,87.7628,175,75
2026-05-09 15:07:03.101,2,2.26,-0.78,2.46,172.399,118.9988,88.37280000000001,175,75
2026-05-09 15:07:03.101,2,2.27,-1.02,2.46,180.87900000000002,56.61879999999999,90.6928,175,75
2026-05-09 15:07:03.125,2,2.37,-1.35,2.42,204.71900000000002,-4.9612,85.1428,175,75
2026-05-09 15:07:03.151,2,2.69,-1.81,2.04,259.959,-27.651200000000003,62.7628,175,75
2026-05-09 15:07:03.181,2,2.83,-1.85,1.82,314.049,-21.0612,65.1428,175,75
2026-05-09 15:07:03.182,2,2.84,-1.93,1.8,332.519,-37.9512,63.4328,175,75
2026-05-09 15:07:03.193,2,2.74,-2.06,1.81,355.62899999999996,-70.6412,51.1828,175,75
2026-05-09 15:07:03.204,2,2.74,-2.26,1.9,378.799,-112.0412,28.622799999999998,175,75
2026-05-09 15:07:03.215,2,2.71,-2.47,1.86,391.609,-164.1712,-10.217199999999998,175,75
2026-05-09 15:07:03.227,2,2.65,-2.53,1.7,390.50899999999996,-185.6412,-42.7872,175,75
2026-05-09 15:07:03.245,2,2.64,-2.69,0.72,409.719,-182.3412,-136.4972,175,75
2026-05-09 15:07:03.251,2,2.68,-2.78,0.43,440.44899999999996,-183.44119999999998,-168.81719999999999,175,75
2026-05-09 15:07:03.264,2,2.54,-2.81,0.34,466.909,-171.1812,-191.4972,175,75
2026-05-09 15:07:03.281,2,2.25,-2.81,0.37,491.669,-129.2912,-209.4872,175,75
2026-05-09 15:07:03.292,2,2.03,-2.92,0.47,514.659,-45.8812,-233.5772,175,75
2026-05-09 15:07:03.306,2,2.15,-3.35,0.66,519.899,16.248800000000003,-272.78720000000004,175,75
2026-05-09 15:07:03.326,2,2.49,-4.0,0.67,493.979,-113.2612,-300.8872,175,75
2026-05-09 15:07:03.358,2,2.36,-3.64,0.47,459.529,-194.1112,-298.0872,175,75
2026-05-09 15:07:03.377,2,1.99,-3.07,0.15,440.269,-238.6212,-317.47720000000004,175,75
2026-05-09 15:07:03.387,2,1.5,-2.56,-0.23,453.24899999999997,-180.0912,-366.9272,175,75
2026-05-09 15:07:03.398,2,1.3,-2.23,-0.27,447.88899999999995,22.6588,-357.96720000000005,175,75
2026-05-09 15:07:03.423,2,1.54,-1.79,-0.02,434.049,97.5288,-343.0872,175,75
2026-05-09 15:07:03.433,2,1.62,-1.58,0.06,427.579,59.668800000000005,-338.8172,175,75
2026-05-09 15:07:03.462,2,1.2,-1.27,-0.16,386.969,-95.4512,-348.3872,175,75
2026-05-09 15:07:03.468,2,0.99,-1.24,-0.29,357.69899999999996,-86.7312,-360.34720000000004,175,75
2026-05-09 15:07:03.483,2,0.83,-1.16,-0.34,329.469,-33.3212,-360.5272,175,75
2026-05-09 15:07:03.495,2,0.72,-1.04,-0.39,308.61899999999997,44.428799999999995,-352.65720000000005,175,75
2026-05-09 15:07:03.541,2,0.45,-0.6,0.08,294.229,254.17880000000002,-275.21720000000005,175,75
2026-05-09 15:07:03.553,2,0.23,-0.55,0.27,294.049,286.1288,-248.51719999999997,175,75
2026-05-09 15:07:03.566,2,0.13,-0.4,0.32,316.789,292.7788,-197.53719999999998,175,75
2026-05-09 15:07:03.580,2,0.61,-0.71,0.1,285.68899999999996,120.39880000000001,-148.0272,175,75
2026-05-09 15:07:03.593,2,0.3,-0.8,0.33,209.34900000000002,2.1088000000000005,-85.28720000000001,175,75
2026-05-09 15:07:03.631,2,-1.5,-0.43,0.34,150.93900000000002,375.5788,-60.037200000000006,175,75
2026-05-09 15:07:03.646,2,0.19,-1.08,0.03,68.249,368.8788,59.7128,175,75
2026-05-09 15:07:03.660,2,0.79,-1.21,-0.19,-27.540999999999997,191.18880000000001,228.1328,175,75
2026-05-09 15:07:03.671,2,0.61,-1.4,-0.1,-125.771,39.0588,383.7428,175,75
2026-05-09 15:07:03.699,2,-0.81,-1.91,-0.52,-249.55100000000002,133.0788,487.8228,175,75
2026-05-09 15:07:03.711,2,0.11,-3.6,-1.11,-355.891,133.74880000000002,463.8628,175,75
2026-05-09 15:07:03.723,2,0.51,-4.06,-1.13,-423.88100000000003,36.1888,533.7428,175,75
2026-05-09 15:07:03.735,2,0.34,-4.27,-1.17,-456.321,54.428799999999995,682.9528,175,75
2026-05-09 15:07:03.747,2,0.08,-4.49,-1.33,-465.531,133.8188,759.4128,175,75
2026-05-09 15:07:03.765,2,0.25,-5.19,-1.51,-490.041,180.33880000000002,768.9227999999999,175,75
2026-05-09 15:07:03.781,2,0.41,-6.39,-1.28,-478.581,159.6688,701.3628,175,75
2026-05-09 15:07:03.791,2,0.75,-7.04,-0.79,-422.971,118.6888,658.9227999999999,175,75
2026-05-09 15:07:03.791,2,1.48,-8.21,-0.67,-385.771,24.668799999999997,623.0128,175,75
2026-05-09 15:07:03.805,2,1.7,-8.27,-0.2,-402.721,-63.141200000000005,594.5328,175,75
2026-05-09 15:07:03.819,2,1.93,-7.91,-0.26,-479.06100000000004,-77.5312,573.9828,175,75
2026-05-09 15:07:03.831,2,2.17,-7.42,-1.13,-502.541,-88.6212,556.5427999999999,175,75
2026-05-09 15:07:03.841,2,2.05,-7.12,-1.58,-445.831,-59.9012,547.4028,175,75
2026-05-09 15:07:03.847,2,2.08,-6.81,-1.57,-351.261,61.1888,541.9128,175,75
2026-05-09 15:07:03.862,2,2.2,-6.41,-1.13,-332.171,156.7988,522.8228,175,75
2026-05-09 15:07:03.862,2,2.22,-5.84,-0.65,-340.531,202.3488,477.70279999999997,175,75
2026-05-09 15:07:03.872,2,2.19,-5.11,-0.18,-340.041,214.96880000000002,420.08279999999996,175,75
2026-05-09 15:07:03.884,2,2.23,-4.37,0.26,-321.44100000000003,207.6588,355.08279999999996,175,75
2026-05-09 15:07:03.901,2,2.46,-3.72,0.5,-313.94100000000003,191.0688,301.6128,175,75
2026-05-09 15:07:03.913,2,2.6,-3.26,0.48,-325.891,149.6688,263.3128,175,75
2026-05-09 15:07:03.924,2,2.04,-2.78,0.46,-324.12100000000004,146.67880000000002,230.5728,175,75
2026-05-09 15:07:03.946,2,1.59,-2.33,0.52,-288.091,248.74880000000002,179.8428,175,75
2026-05-09 15:07:03.962,2,1.65,-1.98,0.83,-244.611,368.8188,140.4528,175,75
2026-05-09 15:07:03.973,2,2.0,-1.6,1.37,-200.101,464.4888,127.15280000000001,175,75
2026-05-09 15:07:03.985,2,2.46,-1.47,1.62,-168.581,391.0688,121.3628,175,75
2026-05-09 15:07:03.996,2,1.79,-1.13,2.04,-168.15099999999998,307.22880000000004,107.40280000000001,175,75
2026-05-09 15:07:03.996,2,1.41,-0.79,2.46,-162.721,332.59880000000004,63.7428,175,75
2026-05-09 15:07:04.007,2,1.4,-0.49,2.68,-139.12099999999998,348.3888,-47.907199999999996,175,75
2026-05-09 15:07:04.022,2,1.43,-0.62,2.74,-131.321,272.8988,-115.5872,175,75
2026-05-09 15:07:04.032,2,1.37,-0.4,2.58,-206.691,57.778800000000004,37.4028,175,75
2026-05-09 15:07:04.066,2,1.25,-0.35,2.23,-144.731,-62.891200000000005,62.7028,175,75
2026-05-09 15:07:04.076,2,1.02,-0.48,2.19,-113.70100000000001,-0.09120000000000061,59.4728,175,75
2026-05-09 15:07:04.088,2,0.87,-0.49,2.22,-94.491,77.3488,26.672800000000002,175,75
2026-05-09 15:07:04.101,2,0.91,-0.43,2.26,-74.311,116.3188,-12.357199999999999,175,75
2026-05-09 15:07:04.123,2,0.95,-0.31,2.21,-44.981,145.5188,-26.9272,175,75
2026-05-09 15:07:04.136,2,1.0,-0.13,2.11,-19.981,160.5788,6.1228,175,75
2026-05-09 15:07:04.136,2,0.93,-0.05,2.09,-0.10099999999999998,162.52880000000002,33.8628,175,75
2026-05-09 15:07:04.153,2,0.93,-0.19,2.17,16.419,164.9088,39.7128,175,75
2026-05-09 15:07:04.153,2,0.94,-0.36,2.23,27.519,164.2988,38.9828,175,75
2026-05-09 15:07:04.167,2,0.97,-0.5,2.26,44.349000000000004,152.1088,33.8628,175,75
2026-05-09 15:07:04.175,2,0.94,-0.53,2.25,66.419,119.60879999999999,22.2128,175,75
2026-05-09 15:07:04.186,2,1.05,-0.5,2.17,83.919,68.7488,9.902800000000001,175,75
2026-05-09 15:07:04.203,2,1.24,-0.4,1.99,92.949,23.6888,20.0228,175,75
2026-05-09 15:07:04.215,2,1.21,-0.27,1.79,100.62899999999999,2.2888,37.2128,175,75
2026-05-09 15:07:04.234,2,0.48,-0.12,1.53,125.939,11.8588,32.5828,175,75
2026-05-09 15:07:04.238,2,2.81,-0.56,1.86,135.93900000000002,-56.9812,4.962800000000001,175,75
2026-05-09 15:07:04.268,2,1.26,-0.72,2.03,114.40899999999999,-14.9012,66.9728,175,75
2026-05-09 15:07:04.296,2,1.85,-0.62,1.4,145.68900000000002,-47.5912,0.5728000000000009,175,75
2026-05-09 15:07:04.318,2,1.64,-0.79,1.3,161.78900000000002,-49.4212,-40.3472,175,75
2026-05-09 15:07:04.318,2,1.78,-0.74,1.06,182.519,47.8388,32.8228,175,75
2026-05-09 15:07:04.328,2,2.18,-0.96,0.93,225.999,79.2388,66.6128,175,75
2026-05-09 15:07:04.344,2,2.64,-1.61,1.13,268.739,39.8488,68.1928,175,75
2026-05-09 15:07:04.357,2,2.82,-2.31,0.97,282.63899999999995,-96.6712,23.2528,175,75
2026-05-09 15:07:04.368,2,3.18,-2.29,0.7,278.18899999999996,-128.0712,-8.3872,175,75
2026-05-09 15:07:04.380,2,3.68,-2.08,0.28,271.729,-179.1712,-51.1372,175,75
2026-05-09 15:07:04.380,2,3.89,-1.93,0.03,266.729,-224.4212,-84.7372,175,75
2026-05-09 15:07:04.402,2,3.89,-2.06,-0.28,260.269,-286.3712,-131.3772,175,75
2026-05-09 15:07:04.419,2,3.16,-2.92,-1.41,236.239,-324.4812,-268.2072,175,75
2026-05-09 15:07:04.442,2,2.77,-2.76,-2.0,209.40900000000002,-183.8712,-332.53720000000004,175,75
2026-05-09 15:07:04.451,2,2.7,-2.36,-2.03,190.329,-127.2212,-364.4272,175,75
2026-05-09 15:07:04.479,2,2.59,-2.13,-1.97,143.619,-108.6212,-403.3872,175,75
2026-05-09 15:07:04.498,2,2.36,-2.26,-1.89,117.829,-90.4512,-418.9372,175,75
2026-05-09 15:07:04.498,2,2.22,-2.33,-1.77,104.719,-61.5512,-430.09720000000004,175,75
2026-05-09 15:07:04.516,2,2.01,-2.27,-1.55,100.509,-28.071199999999997,-437.47720000000004,175,75
2026-05-09 15:07:04.531,2,1.58,-1.88,-0.98,116.90899999999999,38.5088,-438.2672,175,75
2026-05-09 15:07:04.548,2,1.4,-1.76,-0.58,136.359,92.6588,-425.8872,175,75
2026-05-09 15:07:04.564,2,1.22,-1.67,-0.21,158.679,128.5088,-402.65720000000005,175,75
2026-05-09 15:07:04.588,2,1.12,-1.57,0.13,184.229,149.6688,-382.47720000000004,175,75
2026-05-09 15:07:04.589,2,1.17,-1.5,0.31,198.859,142.52880000000002,-368.8772,175,75
2026-05-09 15:07:04.592,2,1.22,-1.42,0.48,208.919,116.3188,-354.48720000000003,175,75
2026-05-09 15:07:04.629,2,0.89,-1.12,0.61,218.06900000000002,-49.2912,-330.15720000000005,175,75
2026-05-09 15:07:04.640,2,0.76,-1.07,0.62,209.779,-63.501200000000004,-321.8072,175,75
2026-05-09 15:07:04.650,2,0.69,-1.02,0.6,205.079,-33.9912,-316.7472,175,75
2026-05-09 15:07:04.662,2,0.66,-0.96,0.59,202.519,20.038800000000002,-308.0272,175,75
2026-05-09 15:07:04.669,2,0.73,-0.92,0.61,202.889,72.8988,-294.97720000000004,175,75
2026-05-09 15:07:04.678,2,0.72,-0.91,0.62,203.559,89.2388,-283.8772,175,75
2026-05-09 15:07:04.685,2,0.59,-0.94,0.68,204.049,98.7488,-272.41720000000004,175,75
2026-05-09 15:07:04.714,2,0.48,-0.91,0.68,204.229,103.9388,-266.3172,175,75
2026-05-09 15:07:04.735,2,0.45,-0.86,0.67,206.78900000000002,92.9588,-265.34720000000004,175,75
2026-05-09 15:07:04.735,2,0.44,-0.79,0.64,208.619,76.3788,-264.60720000000003,175,75
2026-05-09 15:07:04.752,2,0.45,-0.78,0.63,208.919,71.8588,-260.7072,175,75
2026-05-09 15:07:04.767,2,0.48,-0.8,0.63,206.84900000000002,75.5188,-251.19719999999998,175,75
2026-05-09 15:07:04.768,2,0.42,-0.82,0.64,200.87900000000002,86.4988,-237.9672,175,75
2026-05-09 15:07:04.777,2,0.34,-0.85,0.63,192.15900000000002,105.8288,-228.69719999999998,175,75
2026-05-09 15:07:04.785,2,0.28,-0.82,0.63,184.049,123.8788,-225.28719999999998,175,75
2026-05-09 15:07:04.797,2,0.28,-0.76,0.62,179.899,135.9488,-223.3272,175,75
2026-05-09 15:07:04.808,2,0.31,-0.7,0.62,177.029,145.70880000000002,-215.9572,175,75
2026-05-09 15:07:04.825,2,0.37,-0.63,0.63,173.799,148.99880000000002,-195.7672,175,75
2026-05-09 15:07:04.834,2,0.41,-0.62,0.64,171.609,152.5988,-185.28719999999998,175,75
2026-05-09 15:07:04.835,2,0.47,-0.58,0.64,166.669,158.5088,-171.56719999999999,175,75
2026-05-09 15:07:04.854,2,0.43,-0.51,0.66,162.089,164.9088,-160.9572,175,75
2026-05-09 15:07:04.870,2,0.4,-0.44,0.65,159.65900000000002,169.23880000000003,-151.9272,175,75
2026-05-09 15:07:04.899,2,0.49,-0.28,0.58,164.959,140.02880000000002,-135.28719999999998,175,75
2026-05-09 15:07:04.922,2,0.74,-0.16,0.49,149.40900000000002,26.1888,-110.5872,175,75
2026-05-09 15:07:04.939,2,0.78,0.01,0.2,108.79899999999999,-102.4712,-54.9772,175,75
2026-05-09 15:07:04.951,2,0.78,0.15,-0.08,92.339,-149.29119999999998,-28.577199999999998,175,75
2026-05-09 15:07:04.961,2,0.73,0.18,-0.35,65.749,-153.8712,-41.1972,175,75
2026-05-09 15:07:04.968,2,0.46,0.19,-0.61,32.029,-100.3912,-24.4272,175,75
2026-05-09 15:07:04.986,2,0.47,0.35,-0.86,7.459,19.668799999999997,31.852800000000002,175,75
2026-05-09 15:07:05.004,2,0.35,0.5,-0.92,-0.7709999999999999,166.0688,78.1928,175,75
2026-05-09 15:07:05.018,2,0.5,0.59,-0.76,16.969,352.8988,185.5128,175,75
2026-05-09 15:07:05.018,2,0.75,0.29,-0.57,-19.610999999999997,376.9888,253.80280000000002,175,75
2026-05-09 15:07:05.040,2,0.64,-0.19,-0.21,-107.54100000000001,414.35880000000003,308.5028,175,75
2026-05-09 15:07:05.050,2,0.7,-0.45,-0.07,-159.251,437.28880000000004,344.65279999999996,175,75
2026-05-09 15:07:05.050,2,0.86,-0.72,0.0,-206.62099999999998,436.7388,384.84279999999995,175,75
2026-05-09 15:07:05.061,2,1.1,-0.98,-0.04,-242.171,394.5488,412.70279999999997,175,75
2026-05-09 15:07:05.087,2,1.81,-1.82,-0.23,-319.31100000000004,126.67880000000001,421.9128,175,75
2026-05-09 15:07:05.098,2,1.83,-2.1,-0.48,-353.211,-34.6612,462.03279999999995,175,75
2026-05-09 15:07:05.109,2,1.39,-2.19,-0.74,-357.841,-123.9912,512.4628,175,75
2026-05-09 15:07:05.136,2,1.16,-2.66,-1.35,-357.05100000000004,-139.2312,553.3728,175,75
2026-05-09 15:07:05.148,2,1.14,-2.98,-1.62,-358.761,-131.06119999999999,554.5928,175,75
2026-05-09 15:07:05.172,2,1.25,-3.43,-1.97,-329.37100000000004,-78.8712,547.6428,175,75
2026-05-09 15:07:05.185,2,1.86,-3.57,-1.97,-276.261,-48.2612,537.8928,175,75
2026-05-09 15:07:05.201,2,2.54,-3.51,-1.57,-236.62099999999998,-21.9812,546.6727999999999,175,75
2026-05-09 15:07:05.215,2,2.58,-3.48,-1.24,-231.81099999999998,-38.3212,551.1228,175,75
2026-05-09 15:07:05.219,2,2.4,-3.63,-1.13,-250.53099999999998,-101.9212,523.3128,175,75
2026-05-09 15:07:05.230,2,2.26,-3.77,-1.19,-282.601,-200.6412,484.90279999999996,175,75
2026-05-09 15:07:05.245,2,2.18,-3.7,-1.56,-304.37100000000004,-233.07119999999998,452.09279999999995,175,75
2026-05-09 15:07:05.255,2,2.03,-3.57,-1.92,-308.211,-191.7312,437.28279999999995,175,75
2026-05-09 15:07:05.255,2,1.79,-3.45,-2.19,-301.87100000000004,-62.6512,421.6128,175,75
2026-05-09 15:07:05.267,2,1.79,-3.4,-2.07,-292.971,143.20880000000002,417.40279999999996,175,75
2026-05-09 15:07:05.278,2,1.85,-3.43,-1.7,-298.271,287.4688,408.8628,175,75
2026-05-09 15:07:05.304,2,1.89,-3.51,-0.61,-322.36100000000005,452.16880000000003,337.58279999999996,175,75
2026-05-09 15:07:05.322,2,1.61,-3.34,0.04,-329.06100000000004,487.34880000000004,276.1828,175,75
2026-05-09 15:07:05.333,2,1.34,-3.05,0.57,-319.80100000000004,543.6887999999999,211.4828,175,75
2026-05-09 15:07:05.342,2,1.54,-2.38,1.13,-247.051,549.2388,95.81280000000001,175,75
2026-05-09 15:07:05.355,2,1.9,-2.06,1.44,-221.021,519.8488,46.7328,175,75
2026-05-09 15:07:05.368,2,2.59,-1.69,1.74,-209.671,336.0688,21.422800000000002,175,75
2026-05-09 15:07:05.379,2,1.46,-1.26,1.89,-236.021,164.8488,25.1428,175,75
2026-05-09 15:07:05.384,2,1.3,-0.99,1.91,-220.65099999999998,194.5488,-26.017200000000003,175,75
2026-05-09 15:07:05.398,2,1.39,-0.91,1.61,-203.881,205.70880000000002,-57.847199999999994,175,75
2026-05-09 15:07:05.410,2,1.27,-0.74,1.51,-196.81099999999998,201.3788,-50.4672,175,75
2026-05-09 15:07:05.410,2,0.98,-0.55,1.49,-176.261,229.8488,-47.1072,175,75
2026-05-09 15:07:05.415,2,0.77,-0.41,1.59,-131.321,302.59880000000004,-60.157199999999996,175,75
2026-05-09 15:07:05.429,2,0.77,-0.36,1.75,-93.15100000000001,357.6588,-76.68719999999999,175,75
2026-05-09 15:07:05.454,2,0.86,-0.16,2.02,-12.841,351.7388,-91.9272,175,75
2026-05-09 15:07:05.484,2,0.98,0.06,2.06,36.909,93.9988,-9.3672,175,75
2026-05-09 15:07:05.497,2,0.93,-0.1,1.99,33.679,28.6888,8.0128,175,75
2026-05-09 15:07:05.519,2,1.04,-0.32,1.9,44.719,-12.4612,-3.9372000000000007,175,75
2026-05-09 15:07:05.534,2,1.09,-0.37,1.79,61.969,1.9887999999999995,-6.8672,175,75
2026-05-09 15:07:05.534,2,0.99,-0.34,1.58,80.87899999999999,18.818800000000003,-11.197199999999999,175,75
2026-05-09 15:07:05.559,2,1.51,-0.41,1.52,118.439,135.02880000000002,-64.91720000000001,175,75
2026-05-09 15:07:05.570,2,1.76,-0.6,1.74,115.87899999999999,215.21880000000002,-40.0972,175,75
2026-05-09 15:07:05.581,2,0.87,-0.16,1.7,140.199,371.0688,8.5628,175,75
2026-05-09 15:07:05.581,2,1.97,-0.3,1.84,166.84900000000002,239.17880000000002,-5.647199999999998,175,75
2026-05-09 15:07:05.604,2,1.92,-0.64,2.02,160.019,186.18880000000001,45.812799999999996,175,75
2026-05-09 15:07:05.628,2,2.28,-0.68,1.89,195.449,129.11880000000002,63.5628,175,75
2026-05-09 15:07:05.639,2,2.4,-0.73,2.11,212.279,67.1688,61.1228,175,75
2026-05-09 15:07:05.663,2,2.84,-1.41,1.7,233.309,-7.8911999999999995,39.1128,175,75
2026-05-09 15:07:05.677,2,2.96,-1.51,1.53,259.229,-9.5412,30.9328,175,75
2026-05-09 15:07:05.726,2,2.99,-1.71,1.38,317.519,-41.181200000000004,-22.7172,175,75
2026-05-09 15:07:05.747,2,2.86,-1.88,1.25,328.37899999999996,-50.5112,-41.6872,175,75
2026-05-09 15:07:05.758,2,2.71,-1.96,1.03,339.169,-52.4012,-64.7972,175,75
2026-05-09 15:07:05.764,2,2.61,-1.93,0.88,345.329,-45.571200000000005,-79.3072,175,75
2026-05-09 15:07:05.795,2,2.66,-1.84,0.68,361.969,-7.7712,-100.34719999999999,175,75
2026-05-09 15:07:05.795,2,2.63,-1.78,0.65,371.419,3.2088,-107.78720000000001,175,75
2026-05-09 15:07:05.809,2,2.59,-1.74,0.66,380.87899999999996,9.6088,-115.5872,175,75
2026-05-09 15:07:05.845,2,2.67,-2.05,0.78,418.12899999999996,-75.7012,-187.8472,175,75
2026-05-09 15:07:05.860,2,2.67,-2.26,0.77,422.089,-113.8712,-216.31719999999999,175,75
2026-05-09 15:07:05.860,2,2.57,-2.45,0.68,418.06899999999996,-156.5512,-251.56719999999999,175,75
2026-05-09 15:07:05.883,2,2.35,-2.7,0.54,401.419,-190.3312,-287.35720000000003,175,75
2026-05-09 15:07:05.906,2,2.25,-3.13,-0.04,325.019,-283.9312,-347.96720000000005,175,75
2026-05-09 15:07:05.917,2,1.97,-2.8,-0.35,297.94899999999996,-280.0912,-372.59720000000004,175,75
2026-05-09 15:07:05.928,2,1.56,-2.28,-0.71,294.169,-194.54119999999998,-400.7072,175,75
2026-05-09 15:07:05.939,2,1.44,-2.01,-0.89,310.38899999999995,-80.7612,-404.73720000000003,175,75
2026-05-09 15:07:05.945,2,1.44,-1.74,-0.84,340.99899999999997,82.9588,-385.40720000000005,175,75
2026-05-09 15:07:05.971,2,1.57,-1.55,-0.11,372.029,251.73880000000003,-339.3072,175,75
2026-05-09 15:07:05.996,2,1.7,-1.5,0.04,363.49899999999997,200.27880000000002,-329.85720000000003,175,75
2026-05-09 15:07:06.020,2,1.7,-1.39,0.01,347.029,103.7488,-334.2472,175,75
2026-05-09 15:07:06.020,2,1.64,-1.26,-0.1,328.859,-7.0412,-349.2472,175,75
2026-05-09 15:07:06.031,2,1.5,-1.18,-0.2,308.979,-90.0312,-362.71720000000005,175,75
2026-05-09 15:07:06.041,2,1.38,-1.14,-0.3,292.519,-109.66120000000001,-366.9272,175,75
2026-05-09 15:07:06.041,2,1.05,-1.08,-0.48,274.049,-75.2112,-363.8772,175,75
2026-05-09 15:07:06.101,2,0.84,-0.59,-0.69,246.96900000000002,126.3788,-326.0772,175,75
2026-05-09 15:07:06.101,2,0.78,-0.51,-0.56,247.889,173.8188,-300.7072,175,75
2026-05-09 15:07:06.113,2,0.71,-0.49,-0.41,247.399,202.1688,-280.09720000000004,175,75
2026-05-09 15:07:06.126,2,0.52,-0.47,-0.2,238.739,216.24880000000002,-251.07719999999998,175,75
2026-05-09 15:07:06.156,2,0.35,-0.41,-0.03,236.669,217.1688,-238.3272,175,75
2026-05-09 15:07:06.167,2,0.36,-0.37,-0.01,240.50900000000001,211.8588,-222.47719999999998,175,75
2026-05-09 15:07:06.167,2,0.41,-0.31,0.05,233.249,190.27880000000002,-212.3572,175,75
2026-05-09 15:07:06.178,2,0.3,-0.3,0.16,193.799,165.39880000000002,-172.78719999999998,175,75
2026-05-09 15:07:06.189,2,0.11,-0.34,0.2,166.299,181.24880000000002,-142.47719999999998,175,75
2026-05-09 15:07:06.236,2,-0.18,-0.42,0.33,113.73899999999999,259.66880000000003,-86.9872,175,75
2026-05-09 15:07:06.236,2,-0.26,-0.41,0.31,89.529,262.10880000000003,-67.1772,175,75
2026-05-09 15:07:06.248,2,-0.36,-0.44,0.27,59.719,219.42880000000002,-43.0272,175,75
2026-05-09 15:07:06.248,2,-0.45,-0.49,0.3,27.399,193.1388,-13.327199999999998,175,75
2026-05-09 15:07:06.258,2,-0.47,-0.54,0.41,-31.440999999999995,200.33880000000002,60.2028,175,75
2026-05-09 15:07:06.274,2,-0.16,-0.66,0.41,-136.99099999999999,244.23880000000003,234.2328,175,75
2026-05-09 15:07:06.327,2,0.18,-1.08,0.68,-236.99099999999999,222.46880000000002,424.1128,175,75
2026-05-09 15:07:06.338,2,0.35,-1.41,0.57,-273.211,266.2488,425.51279999999997,175,75
2026-05-09 15:07:06.367,2,0.38,-1.93,0.3,-303.701,-35.1512,393.01279999999997,175,75
2026-05-09 15:07:06.418,2,0.43,-2.79,-0.45,-398.091,-261.1812,509.2328,175,75
2026-05-09 15:07:06.429,2,0.65,-3.22,-1.02,-362.721,-139.3612,571.7927999999999,175,75
2026-05-09 15:07:06.443,2,1.2,-3.75,-1.57,-301.87100000000004,-93.2012,634.9628,175,75
2026-05-09 15:07:06.443,2,1.45,-4.23,-1.8,-255.831,-164.97119999999998,674.5928,175,75
2026-05-09 15:07:06.455,2,1.28,-4.57,-1.93,-233.941,-180.2112,711.0627999999999,175,75
2026-05-09 15:07:06.465,2,0.95,-4.99,-2.18,-218.03099999999998,-142.3412,735.9327999999999,175,75
2026-05-09 15:07:06.477,2,0.94,-5.6,-2.57,-211.56099999999998,-85.3312,732.8228,175,75
2026-05-09 15:07:06.477,2,1.26,-5.86,-2.74,-209.801,-69.0512,719.5328,175,75
2026-05-09 15:07:06.489,2,1.78,-5.88,-2.74,-219.981,-64.7212,711.4828,175,75
2026-05-09 15:07:06.500,2,1.58,-5.87,-2.84,-248.03099999999998,-51.0612,713.0728,175,75
2026-05-09 15:07:06.511,2,1.22,-5.92,-2.97,-287.30100000000004,-1.1811999999999996,663.8027999999999,175,75
2026-05-09 15:07:06.549,2,1.35,-4.6,-2.08,-343.761,329.1788,546.1827999999999,175,75
2026-05-09 15:07:06.581,2,1.86,-4.03,0.17,-280.591,615.7687999999999,369.59279999999995,175,75
2026-05-09 15:07:06.605,2,2.21,-3.9,1.2,-223.15099999999998,491.3788,234.11280000000002,175,75
2026-05-09 15:07:06.605,2,2.25,-3.25,1.35,-235.101,212.5988,141.9128,175,75
2026-05-09 15:07:06.614,2,1.55,-2.83,1.39,-270.711,28.5088,45.5128,175,75
2026-05-09 15:07:06.627,2,1.5,-2.62,1.21,-320.161,9.7888,-62.847199999999994,175,75
2026-05-09 15:07:06.665,2,1.47,-0.91,1.79,-177.301,470.7088,27.4028,175,75
2026-05-09 15:07:06.680,2,0.66,-0.5,2.02,-92.971,512.2887999999999,-15.767199999999999,175,75
2026-05-09 15:07:06.702,2,0.05,-0.2,2.12,-23.881,540.6388,-76.62719999999999,175,75
2026-05-09 15:07:06.702,2,-0.3,0.03,2.27,23.249000000000002,530.0387999999999,-144.8572,175,75
2026-05-09 15:07:06.714,2,-0.4,-0.03,2.48,65.329,471.0088,-223.38719999999998,175,75
2026-05-09 15:07:06.725,2,0.72,-0.24,3.04,28.738999999999997,388.8788,-165.5272,175,75
2026-05-09 15:07:06.736,2,-0.0,0.37,2.61,-80.04100000000001,160.21880000000002,48.9228,175,75
2026-05-09 15:07:06.748,2,0.44,0.06,2.78,-62.171,-52.1012,31.5428,175,75
2026-05-09 15:07:06.758,2,0.19,-0.38,2.57,-25.161,-91.7912,50.6328,175,75
2026-05-09 15:07:06.778,2,0.19,-0.55,2.18,10.939,-118.6212,70.3228,175,75
2026-05-09 15:07:06.797,2,0.08,-0.34,1.73,55.329,-106.6712,60.0828,175,75
2026-05-09 15:07:06.805,2,0.54,-0.3,1.71,71.17899999999999,-91.3112,33.7428,175,75
2026-05-09 15:07:06.816,2,0.75,-0.32,1.79,82.399,-49.7212,32.2128,175,75
2026-05-09 15:07:06.851,2,1.58,-1.08,2.23,147.029,-89.05120000000001,44.9028,175,75
2026-05-09 15:07:06.862,2,0.82,-0.61,1.97,130.329,109.2388,121.8528,175,75
2026-05-09 15:07:06.874,2,1.6,-0.47,1.77,144.46900000000002,-71.6112,25.4528,175,75
2026-05-09 15:07:06.888,2,1.84,-0.35,1.64,148.979,-101.4312,41.7928,175,75
2026-05-09 15:07:06.899,2,1.43,-0.17,1.26,164.169,-76.0612,107.7028,175,75
2026-05-09 15:07:06.937,2,2.66,-1.64,0.88,232.579,144.7288,99.1128,175,75
2026-05-09 15:07:06.961,2,3.48,-1.03,1.84,297.029,-125.7612,89.2328,175,75
2026-05-09 15:07:06.961,2,3.49,-1.36,1.73,262.399,-215.1512,65.3928,175,75
2026-05-09 15:07:06.976,2,3.44,-1.8,0.86,214.109,-238.1412,3.072800000000001,175,75
2026-05-09 15:07:06.986,2,3.85,-1.95,0.07,229.529,-241.6712,-66.9872,175,75
2026-05-09 15:07:07.014,2,4.19,-2.03,-0.44,277.519,-289.4212,-113.75719999999998,175,75
2026-05-09 15:07:07.028,2,3.95,-2.13,-0.55,305.74899999999997,-330.7012,-160.1572,175,75
2026-05-09 15:07:07.028,2,3.67,-2.26,-0.79,308.55899999999997,-312.65119999999996,-199.91719999999998,175,75
2026-05-09 15:07:07.038,2,3.74,-2.5,-1.32,289.409,-268.5012,-271.98720000000003,175,75
2026-05-09 15:07:07.051,2,3.53,-2.45,-1.71,286.359,-286.9212,-337.29720000000003,175,75
2026-05-09 15:07:07.064,2,3.18,-2.32,-1.94,276.789,-312.2212,-400.40720000000005,175,75
2026-05-09 15:07:07.088,2,2.63,-2.5,-2.12,216.179,-228.1412,-478.9372,175,75
2026-05-09 15:07:07.103,2,2.03,-2.66,-2.15,139.049,-131.31119999999999,-523.1472,175,75
2026-05-09 15:07:07.115,2,1.78,-2.54,-2.06,125.449,-72.5312,-523.7572,175,75
2026-05-09 15:07:07.143,2,1.51,-2.1,-1.58,131.78900000000002,97.0488,-490.46720000000005,175,75
2026-05-09 15:07:07.195,2,1.15,-1.46,-0.21,217.699,212.5988,-399.3672,175,75
2026-05-09 15:07:07.211,2,0.97,-1.18,0.13,242.829,189.6088,-361.5672,175,75
2026-05-09 15:07:07.215,2,1.05,-1.09,0.21,245.809,144.42880000000002,-344.0672,175,75
2026-05-09 15:07:07.268,2,0.58,-0.81,0.39,229.65900000000002,36.7988,-314.1272,175,75
2026-05-09 15:07:07.273,2,0.57,-0.77,0.4,226.419,30.7688,-303.1472,175,75
2026-05-09 15:07:07.289,2,0.49,-0.75,0.4,220.50900000000001,29.428799999999995,-286.98720000000003,175,75
2026-05-09 15:07:07.304,2,0.36,-0.76,0.42,212.889,37.7788,-273.8772,175,75
2026-05-09 15:07:07.321,2,0.28,-0.76,0.43,206.419,55.2188,-265.7072,175,75
2026-05-09 15:07:07.321,2,0.32,-0.76,0.43,202.21900000000002,76.4388,-259.60720000000003,175,75
2026-05-09 15:07:07.332,2,0.35,-0.72,0.44,197.339,79.0588,-246.9872,175,75
2026-05-09 15:07:07.360,2,0.27,-0.67,0.46,189.049,60.33879999999999,-224.3672,175,75
2026-05-09 15:07:07.372,2,0.19,-0.61,0.48,182.029,60.4588,-217.2972,175,75
2026-05-09 15:07:07.383,2,0.16,-0.55,0.47,182.639,71.4388,-214.1872,175,75
2026-05-09 15:07:07.506,2,0.38,-0.34,0.47,99.169,122.4088,-148.4572,175,75
2026-05-09 15:07:07.529,2,0.32,-0.24,0.49,96.119,150.8288,-123.38719999999998,175,75
2026-05-09 15:07:07.529,2,0.26,-0.18,0.51,97.51899999999999,150.5788,-118.2672,175,75
2026-05-09 15:07:07.594,2,0.47,0.18,0.46,12.459,1.1288,-18.2072,175,75
2026-05-09 15:07:07.607,2,0.41,0.22,0.4,-2.721,-11.0012,12.402800000000001,175,75
2026-05-09 15:07:07.631,2,1.08,0.03,-0.02,-38.641,67.4088,201.7928,175,75
2026-05-09 15:07:07.637,2,0.6,-0.18,-0.05,-47.231,153.5088,173.2528,175,75
2026-05-09 15:07:07.662,2,0.96,-0.17,-0.13,-97.661,283.2688,354.1728,175,75
2026-05-09 15:07:07.662,2,1.47,-0.49,-0.22,-128.15099999999998,246.1288,375.9328,175,75
2026-05-09 15:07:07.662,2,1.36,-0.78,-0.18,-159.43099999999998,209.3588,399.1728,175,75
2026-05-09 15:07:07.692,2,1.69,-1.69,-0.74,-237.971,58.9388,513.8628,175,75
2026-05-09 15:07:07.703,2,1.51,-1.75,-0.92,-229.981,-21.5512,538.2528,175,75
2026-05-09 15:07:07.738,2,1.57,-1.95,-1.2,-218.821,-52.8312,570.3928,175,75
2026-05-09 15:07:07.748,2,1.61,-2.03,-1.26,-235.34099999999998,-60.821200000000005,588.0128,175,75
2026-05-09 15:07:07.748,2,1.77,-2.25,-1.31,-256.81100000000004,-64.1112,594.9628,175,75
2026-05-09 15:07:07.760,2,1.53,-2.46,-1.34,-280.101,-81.0612,621.8528,175,75
2026-05-09 15:07:07.772,2,1.38,-2.68,-1.45,-294.19100000000003,-92.5312,646.7927999999999,175,75
2026-05-09 15:07:07.778,2,1.37,-2.88,-1.64,-283.331,-112.7112,643.5028,175,75
2026-05-09 15:07:07.784,2,1.24,-3.1,-1.76,-247.601,-141.06119999999999,591.3628,175,75
2026-05-09 15:07:07.833,2,1.63,-3.66,-1.85,-202.78099999999998,-224.2312,432.76279999999997,175,75
2026-05-09 15:07:07.899,2,1.57,-3.59,-0.46,-231.87099999999998,507.95880000000005,334.59279999999995,175,75
2026-05-09 15:07:07.899,2,1.7,-3.38,0.04,-222.421,549.4287999999999,270.9328,175,75
2026-05-09 15:07:07.912,2,1.84,-3.09,0.46,-222.911,546.1288,221.8528,175,75
2026-05-09 15:07:07.933,2,1.72,-2.73,0.8,-221.201,511.0088,194.9028,175,75
2026-05-09 15:07:07.961,2,1.73,-2.04,1.2,-161.99099999999999,344.78880000000004,102.40280000000001,175,75
2026-05-09 15:07:07.972,2,1.74,-1.89,1.33,-125.341,194.96880000000002,23.9828,175,75
2026-05-09 15:07:07.990,2,1.69,-1.65,1.27,-148.941,56.7388,-114.5472,175,75
2026-05-09 15:07:08.018,2,1.82,-0.75,1.17,-196.62099999999998,161.18880000000001,-110.6472,175,75
2026-05-09 15:07:08.030,2,1.2,0.07,1.24,-101.32100000000001,368.2088,-46.9272,175,75
2026-05-09 15:07:08.035,2,1.16,0.05,1.41,-52.231,420.4588,-78.2672,175,75
2026-05-09 15:07:08.079,2,0.96,-0.15,1.66,11.419,439.5488,-115.34719999999999,175,75
2026-05-09 15:07:08.102,2,1.17,0.09,1.8,29.109,175.39880000000002,-16.4372,175,75
2026-05-09 15:07:08.102,2,1.21,-0.21,1.77,31.729,134.23880000000003,-13.2072,175,75
2026-05-09 15:07:08.152,2,0.91,-0.62,1.82,54.959,139.5488,-46.1372,175,75
2026-05-09 15:07:08.163,2,0.89,-0.56,1.84,79.719,139.96880000000002,-70.5272,175,75
2026-05-09 15:07:08.212,2,1.07,-0.3,1.55,130.879,101.8588,43.6828,175,75
2026-05-09 15:07:08.224,2,2.96,-1.03,2.1,182.769,188.6288,22.4628,175,75
2026-05-09 15:07:08.249,2,2.64,-1.26,2.23,212.399,-35.5712,48.2528,175,75
2026-05-09 15:07:08.290,2,2.43,-1.45,1.53,269.899,-20.941200000000002,50.8128,175,75
2026-05-09 15:07:08.312,2,2.42,-1.76,1.53,300.62899999999996,-10.7012,50.022800000000004,175,75
2026-05-09 15:07:08.337,2,2.75,-2.03,1.43,330.56899999999996,-39.7812,28.622799999999998,175,75
2026-05-09 15:07:08.349,2,2.83,-2.12,1.3,345.269,-83.3212,-7.237199999999998,175,75
2026-05-09 15:07:08.360,2,2.77,-2.13,1.22,348.739,-88.8712,-25.5272,175,75
2026-05-09 15:07:08.371,2,2.71,-2.14,1.14,353.919,-87.2812,-44.6772,175,75
2026-05-09 15:07:08.397,2,2.77,-2.22,1.06,360.74899999999997,-79.1712,-63.6972,175,75
2026-05-09 15:07:08.397,2,2.88,-2.33,0.97,367.339,-76.6712,-84.8572,175,75
2026-05-09 15:07:08.408,2,2.94,-2.32,0.71,384.289,-81.55120000000001,-137.53719999999998,175,75
2026-05-09 15:07:08.433,2,2.9,-2.27,0.48,408.24899999999997,-65.1512,-193.1472,175,75
2026-05-09 15:07:08.435,2,2.87,-2.44,0.44,412.089,-44.9712,-215.4672,175,75
2026-05-09 15:07:08.472,2,2.84,-3.49,0.47,420.50899999999996,-87.5312,-302.35720000000003,175,75
2026-05-09 15:07:08.483,2,2.58,-3.72,0.39,421.179,-130.94119999999998,-313.8172,175,75
2026-05-09 15:07:08.506,2,2.38,-3.63,-0.13,397.339,-178.38119999999998,-330.15720000000005,175,75
2026-05-09 15:07:08.537,2,2.04,-2.38,-0.58,414.349,10.0388,-367.35720000000003,175,75
2026-05-09 15:07:08.614,2,2.12,-1.92,-0.1,336.299,-137.8912,-381.0772,175,75
2026-05-09 15:07:08.614,2,1.9,-1.81,-0.3,308.55899999999997,-186.6112,-397.23720000000003,175,75
2026-05-09 15:07:08.614,2,1.59,-1.67,-0.56,280.44899999999996,-198.44119999999998,-415.5872,175,75
2026-05-09 15:07:08.661,2,1.12,-0.89,-0.69,234.169,273.8188,-372.65720000000005,175,75
2026-05-09 15:07:08.694,2,1.24,-0.96,0.16,258.24899999999997,281.6788,-319.54720000000003,175,75
2026-05-09 15:07:08.734,2,0.87,-0.72,0.23,221.059,140.0988,-313.9372,175,75
2026-05-09 15:07:08.909,2,0.46,0.12,0.86,118.979,200.5188,-35.4672,175,75
2026-05-09 15:07:08.920,2,0.4,0.16,0.89,106.90899999999999,199.6688,-6.017199999999999,175,75
2026-05-09 15:07:08.934,2,0.45,0.21,0.86,65.26899999999999,228.8188,103.50280000000001,175,75
2026-05-09 15:07:08.957,2,0.45,0.14,0.84,29.409,245.9488,171.4828,175,75
2026-05-09 15:07:08.980,2,0.52,-0.23,0.71,-62.841,261.6788,304.84279999999995,175,75
2026-05-09 15:07:09.039,2,1.81,-2.99,-0.22,-271.99100000000004,-163.44119999999998,550.2028,175,75
2026-05-09 15:07:09.072,2,-0.21,-3.77,-2.48,-222.111,-400.21119999999996,690.5128,175,75
2026-05-09 15:07:09.108,2,0.46,-4.57,-3.66,-117.54100000000001,-272.89119999999997,586.8528,175,75
2026-05-09 15:07:09.129,2,1.29,-4.87,-3.68,-89.061,-293.6812,579.4128,175,75
2026-05-09 15:07:09.140,2,1.06,-5.1,-3.91,-149.861,-192.4012,714.2328,175,75
2026-05-09 15:07:09.159,2,0.78,-5.15,-3.97,-205.71099999999998,-133.8712,705.8728,175,75
2026-05-09 15:07:09.170,2,0.48,-5.29,-3.92,-241.99099999999999,-45.4512,660.0828,175,75
2026-05-09 15:07:09.170,2,0.52,-5.48,-3.76,-281.321,72.1088,610.8728,175,75
2026-05-09 15:07:09.184,2,0.85,-5.63,-3.38,-325.341,235.1588,570.3928,175,75
2026-05-09 15:07:09.196,2,1.12,-5.58,-2.91,-354.00100000000003,374.2988,550.3928,175,75
2026-05-09 15:07:09.196,2,1.12,-5.33,-2.25,-366.87100000000004,510.2788,536.4828,175,75
2026-05-09 15:07:09.230,2,1.45,-4.83,-0.44,-326.38100000000003,730.5788,446.0028,175,75
2026-05-09 15:07:09.230,2,1.62,-4.69,0.68,-272.721,734.1188,333.8028,175,75
2026-05-09 15:07:09.264,2,1.64,-3.16,2.39,-170.161,353.4488,-35.2872,175,75
2026-05-09 15:07:09.264,2,0.96,-2.75,2.86,-169.43099999999998,110.7688,-88.6372,175,75
2026-05-09 15:07:09.276,2,0.85,-2.37,3.05,-180.28099999999998,101.9288,-136.0772,175,75
2026-05-09 15:07:09.288,2,0.92,-2.0,2.87,-211.691,173.2688,-186.4372,175,75
2026-05-09 15:07:09.288,2,0.91,-1.49,2.97,-258.581,223.74880000000002,-210.9572,175,75
2026-05-09 15:07:09.302,2,0.41,-0.72,3.24,-262.171,377.8988,-279.1272,175,75
2026-05-09 15:07:09.319,2,0.47,-0.13,3.29,-195.101,505.7688,-373.8772,175,75
2026-05-09 15:07:09.319,2,0.31,0.08,3.16,-89.861,525.2188,-454.91720000000004,175,75
2026-05-09 15:07:09.368,2,-0.27,0.42,2.96,15.509,242.0488,32.4628,175,75
2026-05-09 15:07:09.392,2,0.5,-1.1,2.92,22.399,32.288799999999995,-19.9172,175,75
2026-05-09 15:07:09.392,2,0.54,-1.15,2.54,36.549,55.8288,8.192800000000002,175,75
2026-05-09 15:07:09.416,2,0.98,-0.66,1.98,189.229,114.8488,-32.477199999999996,175,75
2026-05-09 15:07:09.424,2,1.64,-0.81,2.08,221.299,99.5488,-72.59719999999999,175,75
2026-05-09 15:07:09.463,2,1.8,-1.1,1.52,195.199,19.9688,14.652800000000001,175,75
2026-05-09 15:07:09.497,2,1.45,-1.45,0.44,218.249,319.60880000000003,-94.18719999999999,175,75
2026-05-09 15:07:09.512,2,2.72,-1.3,0.75,259.589,163.20880000000002,-22.1072,175,75
2026-05-09 15:07:09.525,2,1.82,-0.92,0.89,293.679,186.61880000000002,67.4628,175,75
2026-05-09 15:07:09.710,2,2.43,-1.21,0.9,326.669,199.42880000000002,71.7328,175,75
2026-05-09 15:07:09.710,2,3.05,-1.77,1.35,334.409,-52.2812,66.8528,175,75
2026-05-09 15:07:09.710,2,2.86,-2.34,0.06,283.49899999999997,-210.88119999999998,-66.8672,175,75
2026-05-09 15:07:09.710,2,3.31,-2.48,-0.51,292.769,-284.1712,-126.0172,175,75
2026-05-09 15:07:09.710,2,3.2,-2.47,-0.74,311.11899999999997,-325.39119999999997,-164.1272,175,75
2026-05-09 15:07:09.711,2,2.86,-2.02,-1.68,279.959,-255.76119999999997,-255.82719999999998,175,75
2026-05-09 15:07:09.752,2,2.01,-2.12,-1.65,181.729,-53.931200000000004,-439.60720000000003,175,75
2026-05-09 15:07:09.752,2,1.51,-1.95,-1.53,175.62900000000002,60.7088,-444.3072,175,75
2026-05-09 15:07:09.752,2,1.46,-1.93,-1.29,187.579,115.0988,-436.4372,175,75
2026-05-09 15:07:09.989,2,1.44,-1.92,-1.02,199.959,147.2888,-427.35720000000003,175,75
2026-05-09 15:07:09.989,2,0.65,-0.97,-0.31,208.499,194.5488,-344.48720000000003,175,75
2026-05-09 15:07:09.989,2,0.72,-0.95,-0.2,228.499,231.24880000000002,-329.3072,175,75
2026-05-09 15:07:09.989,2,0.89,-0.92,-0.04,245.449,244.9088,-304.3672,175,75
2026-05-09 15:07:09.989,2,0.76,-0.82,0.23,253.12900000000002,212.3488,-259.54720000000003,175,75
2026-05-09 15:07:09.989,2,0.64,-0.71,0.29,246.90900000000002,146.8588,-246.6272,175,75
2026-05-09 15:07:09.990,2,0.57,-0.66,0.28,231.119,46.248799999999996,-239.4272,175,75
2026-05-09 15:07:10.006,2,0.67,-0.25,0.39,168.919,137.2888,-126.9872,175,75
2026-05-09 15:07:10.131,2,0.72,-0.22,0.4,152.829,108.2688,-122.2972,175,75
2026-05-09 15:07:10.131,2,0.77,-0.21,0.36,138.00900000000001,75.7688,-118.69719999999998,175,75
2026-05-09 15:07:10.132,2,0.67,-0.08,0.27,101.54899999999999,34.608799999999995,-96.37719999999999,175,75
2026-05-09 15:07:10.132,2,0.66,-0.03,0.27,94.169,55.1588,-88.2672,175,75
2026-05-09 15:07:10.132,2,0.67,-0.01,0.27,85.329,79.4288,-80.40719999999999,175,75
2026-05-09 15:07:10.132,2,0.68,-0.0,0.29,69.779,112.1088,-68.93719999999999,175,75
2026-05-09 15:07:10.132,2,0.68,0.02,0.31,60.879000000000005,128.4488,-61.1372,175,75
2026-05-09 15:07:10.132,2,0.72,0.05,0.34,53.189,140.7688,-53.3272,175,75
2026-05-09 15:07:10.268,2,0.8,0.11,0.32,46.479,141.24880000000002,-42.2372,175,75
2026-05-09 15:07:10.268,2,0.82,0.18,0.3,41.059000000000005,128.93880000000001,-31.687199999999997,175,75
2026-05-09 15:07:10.268,2,0.74,0.31,0.26,26.969,88.8188,-1.0771999999999977,175,75
2026-05-09 15:07:10.268,2,0.69,0.34,0.23,15.629,88.9988,26.852800000000002,175,75
2026-05-09 15:07:10.268,2,0.64,0.35,0.19,2.949,105.94879999999999,55.9328,175,75
2026-05-09 15:07:10.268,2,0.61,0.36,0.14,-10.591,129.42880000000002,87.52279999999999,175,75
2026-05-09 15:07:10.268,2,0.58,0.37,0.1,-26.320999999999998,159.11880000000002,122.8928,175,75
2026-05-09 15:07:10.268,2,0.51,0.32,0.1,-51.260999999999996,211.18880000000001,171.6728,175,75
2026-05-09 15:07:10.455,2,1.33,-2.63,-0.72,-394.80100000000004,-95.4512,540.2028,175,75
2026-05-09 15:07:10.455,2,1.26,-2.84,-1.22,-414.86100000000005,-67.9512,615.1428,175,75
2026-05-09 15:07:10.455,2,1.12,-2.9,-1.46,-408.391,-56.0612,648.2528,175,75
2026-05-09 15:07:10.455,2,1.03,-3.19,-1.54,-387.30100000000004,-26.1212,659.8428,175,75
2026-05-09 15:07:10.456,2,0.95,-3.76,-1.54,-352.541,23.6288,668.0128,175,75
2026-05-09 15:07:10.456,2,1.11,-4.37,-1.42,-322.231,43.3288,637.9528,175,75
2026-05-09 15:07:10.456,2,1.13,-4.79,-1.24,-307.231,26.3788,600.1428,175,75
2026-05-09 15:07:10.456,2,1.02,-5.16,-0.97,-320.711,1.4388000000000005,549.1128,175,75
2026-05-09 15:07:10.456,2,1.02,-5.34,-0.94,-351.99100000000004,7.4688,514.3528,175,75
2026-05-09 15:07:10.456,2,1.59,-5.31,-1.35,-396.141,81.1888,441.9128,175,75
2026-05-09 15:07:10.463,2,1.48,-4.86,-1.41,-369.921,199.6688,446.3628,175,75
2026-05-09 15:07:10.480,2,1.34,-4.4,-1.19,-320.771,362.9588,412.8228,175,75
2026-05-09 15:07:10.698,2,1.17,-3.14,1.01,-218.761,599.8488,203.2528,175,75
2026-05-09 15:07:10.698,2,1.77,-2.2,1.36,-162.661,356.0088,31.242800000000003,175,75
2026-05-09 15:07:10.698,2,1.58,-1.99,1.51,-164.671,104.9088,-28.087200000000003,175,75
2026-05-09 15:07:10.698,2,1.45,-1.82,1.43,-203.821,30.888799999999996,-66.1372,175,75
2026-05-09 15:07:10.821,2,1.18,-0.47,2.0,-45.951,288.1388,-63.9372,175,75
2026-05-09 15:07:10.821,2,0.7,-0.15,1.7,-58.88099999999999,278.3888,25.6928,175,75
2026-05-09 15:07:10.821,2,0.59,-0.2,1.82,-29.430999999999997,351.3188,19.8428,175,75
2026-05-09 15:07:10.821,2,0.68,-0.27,2.08,11.359,422.22880000000004,-9.4272,175,75
2026-05-09 15:07:10.821,2,0.89,-0.3,2.31,43.799,417.8988,-46.3772,175,75
2026-05-09 15:07:10.821,2,0.95,-0.2,2.43,56.549,346.1288,-59.6072,175,75
2026-05-09 15:07:11.105,2,1.08,0.06,2.32,47.769,125.57879999999999,7.402800000000001,175,75
2026-05-09 15:07:11.105,2,0.76,0.07,2.01,50.199000000000005,55.0288,37.4028,175,75
2026-05-09 15:07:11.105,2,0.96,-0.96,2.36,70.139,131.98880000000003,85.2028,175,75
2026-05-09 15:07:11.105,2,2.25,-0.44,2.72,122.949,41.928799999999995,108.74279999999999,175,75
2026-05-09 15:07:11.105,2,2.31,-0.68,2.42,120.749,7.4688,114.71279999999999,175,75
2026-05-09 15:07:11.105,2,2.19,-0.87,2.17,137.639,-58.751200000000004,132.0328,175,75
2026-05-09 15:07:11.105,2,2.47,-1.61,2.09,239.28900000000002,3.9987999999999992,60.6928,175,75
2026-05-09 15:07:11.106,2,2.8,-1.49,1.9,283.979,29.428799999999995,54.0428,175,75
2026-05-09 15:07:11.106,2,2.63,-1.88,1.88,322.88899999999995,-24.3612,46.062799999999996,175,75
2026-05-09 15:07:11.106,2,2.62,-2.04,1.8,339.839,-59.7812,33.562799999999996,175,75
2026-05-09 15:07:11.106,2,2.36,-2.86,-0.05,433.55899999999997,-216.9812,-239.7972,175,75
2026-05-09 15:07:11.106,2,2.06,-3.02,-0.18,448.799,-152.9512,-262.71720000000005,175,75
2026-05-09 15:07:11.106,2,2.02,-3.06,-0.31,448.61899999999997,-85.8812,-279.73720000000003,175,75
2026-05-09 15:07:11.212,2,2.09,-2.83,-0.39,442.579,-41.1212,-289.3072,175,75
2026-05-09 15:07:11.212,2,1.77,-2.28,-0.15,445.56899999999996,-58.3812,-302.90720000000005,175,75
2026-05-09 15:07:11.213,2,1.69,-2.22,-0.12,432.339,-62.891200000000005,-309.1872,175,75
2026-05-09 15:07:11.213,2,1.23,-1.63,-0.59,347.399,-110.5112,-336.4372,175,75
2026-05-09 15:07:11.213,2,0.81,-1.25,-0.8,322.399,-123.2612,-348.5772,175,75
2026-05-09 15:07:11.241,2,0.79,-0.56,-0.76,289.779,20.038800000000002,-345.6472,175,75
2026-05-09 15:07:11.254,2,0.93,-0.72,-0.15,282.94899999999996,281.9888,-222.7172,175,75
2026-05-09 15:07:11.350,2,0.19,-0.9,0.26,278.55899999999997,190.21880000000002,-128.38719999999998,175,75
2026-05-09 15:07:11.361,2,0.11,-0.95,0.28,266.419,183.0788,-123.5172,175,75
2026-05-09 15:07:11.361,2,0.05,-0.94,0.31,249.959,183.0788,-110.8272,175,75
2026-05-09 15:07:11.380,2,0.18,-0.78,0.21,217.949,170.45880000000002,-61.1972,175,75
2026-05-09 15:07:11.611,2,1.72,-2.53,0.87,-340.771,519.7887999999999,606.0028,175,75
2026-05-09 15:07:11.612,2,0.72,-3.92,0.14,-459.86100000000005,-253.56119999999999,493.5028,175,75
2026-05-09 15:07:11.612,2,0.34,-4.31,0.09,-477.841,-275.7612,489.3528,175,75
2026-05-09 15:07:11.612,2,0.85,-5.3,-0.32,-515.341,-208.38119999999998,496.8528,175,75
2026-05-09 15:07:11.612,2,1.66,-5.86,-0.76,-535.771,-197.10119999999998,519.5928,175,75
2026-05-09 15:07:11.958,2,1.41,-6.42,-1.85,-370.471,21.7988,701.3027999999999,175,75
2026-05-09 15:07:11.958,2,1.49,-6.96,-1.88,-376.56100000000004,149.7888,678.6228,175,75
2026-05-09 15:07:11.958,2,1.86,-6.92,-1.58,-359.671,280.09880000000004,661.0627999999999,175,75
2026-05-09 15:07:11.958,2,2.83,-3.46,0.45,-380.951,-188.26119999999997,249.6528,175,75
2026-05-09 15:07:11.958,2,2.18,-2.78,0.03,-354.06100000000004,-98.5012,254.0428,175,75
2026-05-09 15:07:11.958,2,1.7,-1.88,1.04,-203.881,568.3288,147.2828,175,75
2026-05-09 15:07:11.958,2,2.33,-1.65,1.54,-161.99099999999999,584.6088,131.8528,175,75
2026-05-09 15:07:11.958,2,2.68,-1.32,1.89,-106.501,386.3188,103.0728,175,75
2026-05-09 15:07:11.958,2,1.18,-0.72,2.44,-131.751,227.4088,41.1228,175,75
2026-05-09 15:07:11.958,2,0.99,-0.39,2.37,-147.721,242.71880000000002,-56.867200000000004,175,75
2026-05-09 15:07:11.958,2,1.43,0.28,2.36,-177.301,168.5688,-1.3771999999999984,175,75
2026-05-09 15:07:11.958,2,1.14,-0.14,2.47,-148.641,27.2288,-22.907199999999996,175,75
2026-05-09 15:07:11.958,2,1.15,-0.36,1.92,-94.671,-28.141199999999998,29.2928,175,75
2026-05-09 15:07:11.958,2,1.25,-0.35,1.64,-38.641,73.7488,-18.0272,175,75
2026-05-09 15:07:11.958,2,1.4,-0.16,1.5,3.499,111.0088,-20.9572,175,75
2026-05-09 15:07:12.167,2,2.56,-0.65,1.87,34.899,80.1588,-42.2972,175,75
2026-05-09 15:07:12.167,2,1.92,-0.7,0.79,183.37900000000002,-47.6512,-39.8572,175,75
2026-05-09 15:07:12.167,2,2.36,-0.91,0.69,183.00900000000001,-14.6012,-37.8472,175,75
2026-05-09 15:07:12.167,2,2.49,-0.94,0.66,180.449,-5.2712,-23.327199999999998,175,75
2026-05-09 15:07:12.167,2,2.82,-1.37,-0.12,210.449,-126.4912,-131.3772,175,75
2026-05-09 15:07:12.340,2,2.84,-1.43,-0.36,217.21900000000002,-151.79119999999998,-148.4572,175,75
2026-05-09 15:07:12.340,2,2.73,-1.48,-0.54,223.619,-139.1112,-164.06719999999999,175,75
2026-05-09 15:07:12.340,2,2.61,-1.56,-0.7,229.169,-94.05120000000001,-176.31719999999999,175,75
2026-05-09 15:07:12.340,2,2.46,-1.67,-1.11,171.479,-73.6812,-311.9272,175,75
2026-05-09 15:07:12.431,2,1.85,-1.68,-1.07,152.15900000000002,-95.5712,-357.1772,175,75
2026-05-09 15:07:12.431,2,1.39,-1.49,-0.84,138.18900000000002,13.938799999999999,-379.1272,175,75
2026-05-09 15:07:12.448,2,1.22,-1.35,-0.74,146.299,42.5288,-366.0772,175,75
2026-05-09 15:07:12.598,2,0.75,-0.46,0.37,184.109,107.5988,-229.1872,175,75
2026-05-09 15:07:13.081,2,0.45,-0.28,0.51,137.519,104.1188,-177.47719999999998,175,75
2026-05-09 15:07:13.081,2,0.57,-0.27,0.68,111.54899999999999,143.93880000000001,-123.2672,175,75
2026-05-09 15:07:13.081,2,0.65,-0.13,0.71,117.219,131.24880000000002,-115.34719999999999,175,75
2026-05-09 15:07:13.081,2,0.76,-0.05,0.73,104.65899999999999,88.5088,-88.2672,175,75
2026-05-09 15:07:13.081,2,0.76,-0.07,0.72,91.84899999999999,65.7688,-67.90719999999999,175,75
2026-05-09 15:07:13.081,2,0.73,-0.09,0.7,78.499,46.4388,-44.4272,175,75
2026-05-09 15:07:13.081,2,0.69,-0.12,0.64,65.26899999999999,30.708799999999997,-7.537199999999999,175,75
2026-05-09 15:07:13.082,2,0.73,-0.16,0.6,59.899,24.5488,23.9828,175,75
2026-05-09 15:07:13.082,2,0.87,-0.21,0.54,55.449000000000005,14.7888,60.022800000000004,175,75
2026-05-09 15:07:13.082,2,1.27,-0.83,0.09,-37.481,207.77880000000002,353.9828,175,75
2026-05-09 15:07:13.082,2,1.42,-1.65,-0.01,-93.331,208.93880000000001,476.7928,175,75
2026-05-09 15:07:13.082,2,1.73,-2.07,-0.16,-122.97100000000002,156.61880000000002,503.2528,175,75
2026-05-09 15:07:13.082,2,1.82,-2.41,-0.26,-156.87099999999998,82.7188,520.8728,175,75
2026-05-09 15:07:13.083,2,0.71,-2.93,-1.11,-260.161,24.428799999999995,623.1328,175,75
2026-05-09 15:07:13.083,2,0.83,-3.78,-1.64,-266.38100000000003,64.1188,596.8528,175,75
2026-05-09 15:07:13.083,2,0.91,-4.23,-1.8,-283.761,88.3888,590.6328,175,75
2026-05-09 15:07:13.083,2,0.88,-4.42,-1.81,-301.50100000000003,120.94879999999999,603.8628,175,75
2026-05-09 15:07:13.083,2,0.73,-4.58,-1.67,-318.641,185.8888,622.4628,175,75
2026-05-09 15:07:13.083,2,0.84,-5.05,-1.32,-343.271,234.7288,571.0627999999999,175,75
2026-05-09 15:07:13.083,2,0.98,-5.11,-1.08,-350.041,195.21880000000002,508.0728,175,75
2026-05-09 15:07:13.083,2,1.19,-4.95,-0.82,-357.661,142.89880000000002,441.4828,175,75
2026-05-09 15:07:13.083,2,1.33,-3.67,-0.59,-361.56100000000004,136.49880000000002,379.1128,175,75
2026-05-09 15:07:13.083,2,1.15,-3.42,-0.57,-359.981,174.7288,339.2328,175,75
2026-05-09 15:07:13.083,2,1.21,-2.98,-0.19,-335.411,262.0488,225.08280000000002,175,75
2026-05-09 15:07:13.084,2,1.73,-2.16,0.99,-276.321,391.7388,82.03280000000001,175,75
2026-05-09 15:07:13.187,2,1.65,-2.56,1.34,-262.911,196.43880000000001,87.03280000000001,175,75
2026-05-09 15:07:13.187,2,1.17,-2.32,1.29,-262.841,194.7288,47.8228,175,75
2026-05-09 15:07:13.187,2,1.04,-1.63,1.35,-234.801,249.78880000000004,-16.2572,175,75
2026-05-09 15:07:13.187,2,1.43,-1.04,2.12,-157.541,326.7988,-58.757200000000005,175,75
2026-05-09 15:07:13.188,2,1.33,-0.75,2.08,-163.15099999999998,403.5088,-50.8272,175,75
2026-05-09 15:07:13.188,2,1.23,-0.56,1.96,-145.34099999999998,423.8788,-45.2872,175,75
2026-05-09 15:07:13.227,2,1.03,-0.48,1.86,-119.671,430.2188,-34.7372,175,75
2026-05-09 15:07:13.228,2,0.8,-0.28,1.88,-87.54100000000001,453.5088,-21.7472,175,75
2026-05-09 15:07:13.400,2,1.01,-0.24,2.78,31.549,431.9288,1.1828000000000003,175,75
2026-05-09 15:07:13.400,2,1.04,-0.17,2.97,32.889,351.1888,-10.7072,175,75
2026-05-09 15:07:13.400,2,1.14,0.25,2.51,56.969,80.7688,18.0728,175,75
2026-05-09 15:07:13.400,2,1.78,0.18,2.52,80.329,-77.6512,51.6728,175,75
2026-05-09 15:07:13.400,2,1.49,-0.11,2.55,72.279,-134.4812,80.3228,175,75
2026-05-09 15:07:13.400,2,1.57,-0.5,1.65,101.29899999999999,-35.0912,26.0028,175,75
2026-05-09 15:07:13.400,2,1.77,-0.7,1.15,149.779,137.95880000000002,-30.3472,175,75
2026-05-09 15:07:13.401,2,1.43,-0.51,1.37,215.68900000000002,270.5788,20.0828,175,75
2026-05-09 15:07:13.401,2,1.62,-0.7,1.67,222.949,279.66880000000003,36.1828,175,75
2026-05-09 15:07:13.401,2,1.91,-1.1,2.0,217.339,231.0688,64.1128,175,75
2026-05-09 15:07:13.503,2,2.91,-1.19,1.71,220.449,-127.8312,28.742800000000003,175,75
2026-05-09 15:07:13.503,2,2.73,-1.49,1.39,240.019,-106.4312,-6.987199999999998,175,75
2026-05-09 15:07:13.503,2,2.96,-1.39,1.03,309.409,-32.1012,-27.9672,175,75
2026-05-09 15:07:13.503,2,2.91,-1.38,1.05,326.359,-31.251199999999997,-31.5672,175,75
2026-05-09 15:07:13.503,2,2.73,-1.44,1.15,345.19899999999996,-43.071200000000005,-36.6872,175,75
2026-05-09 15:07:13.503,2,2.53,-1.51,1.19,360.50899999999996,-64.4212,-41.9872,175,75
2026-05-09 15:07:13.503,2,2.29,-1.64,1.14,376.299,-92.0412,-53.5772,175,75
2026-05-09 15:07:13.552,2,2.01,-1.91,0.87,401.179,-106.0612,-78.6372,175,75
2026-05-09 15:07:13.552,2,2.08,-2.11,0.66,411.849,-117.6512,-97.2972,175,75
2026-05-09 15:07:13.552,2,2.05,-2.24,0.53,425.80899999999997,-125.7012,-112.2372,175,75
2026-05-09 15:07:13.571,2,2.05,-2.23,0.38,440.079,-126.4912,-123.2672,175,75
2026-05-09 15:07:13.705,2,2.05,-1.96,0.14,442.94899999999996,-142.4012,-204.2472,175,75
2026-05-09 15:07:13.705,2,2.09,-1.95,0.06,436.789,-128.50119999999998,-235.6472,175,75
2026-05-09 15:07:13.705,2,2.04,-1.94,0.01,428.24899999999997,-117.4712,-254.7972,175,75
2026-05-09 15:07:13.705,2,1.94,-1.94,-0.05,418.06899999999996,-101.2512,-270.6472,175,75
2026-05-09 15:07:13.705,2,1.83,-1.93,-0.12,404.049,-70.6412,-284.1272,175,75
2026-05-09 15:07:13.705,2,1.55,-1.66,-0.22,379.589,-13.5612,-295.34720000000004,175,75
2026-05-09 15:07:13.805,2,1.35,-1.08,-0.31,350.62899999999996,20.2188,-297.29720000000003,175,75
2026-05-09 15:07:13.805,2,1.33,-0.83,-0.41,335.68899999999996,16.6188,-297.65720000000005,175,75
2026-05-09 15:07:13.805,2,1.2,-0.08,-0.33,275.44899999999996,87.83879999999999,-239.4872,175,75
2026-05-09 15:07:13.805,2,1.09,-0.03,-0.36,262.089,98.0188,-217.7172,175,75
2026-05-09 15:07:13.805,2,1.04,-0.02,-0.32,253.37900000000002,76.4988,-207.47719999999998,175,75
2026-05-09 15:07:14.001,2,0.71,0.13,-0.28,232.889,36.9888,-151.9872,175,75
2026-05-09 15:07:14.001,2,0.53,0.05,-0.23,194.46900000000002,70.33879999999999,-130.4672,175,75
2026-05-09 15:07:14.001,2,0.37,-0.15,0.19,106.29899999999999,274.9088,-57.4772,175,75
2026-05-09 15:07:14.002,2,0.36,-0.39,0.56,67.76899999999999,232.3488,13.1928,175,75
2026-05-09 15:07:14.002,2,0.36,-0.35,0.44,-71.441,21.3788,42.522800000000004,175,75
2026-05-09 15:07:14.002,2,0.3,-0.29,0.35,-93.391,-63.681200000000004,48.2528,175,75
2026-05-09 15:07:14.002,2,0.23,-0.45,0.39,-118.70100000000001,-99.2912,154.4128,175,75
2026-05-09 15:07:14.002,2,0.18,-0.62,0.37,-123.581,9.298800000000002,278.0728,175,75
2026-05-09 15:07:14.016,2,0.5,-0.84,0.21,-125.47100000000002,84.4888,377.52279999999996,175,75
2026-05-09 15:07:14.119,2,1.41,-2.41,-0.07,-278.271,46.248799999999996,370.3228,175,75
2026-05-09 15:07:14.119,2,1.74,-2.84,-0.22,-315.101,-30.571199999999997,345.6328,175,75
2026-05-09 15:07:14.139,2,2.01,-4.1,-2.45,-476.261,-93.0112,362.40279999999996,175,75
2026-05-09 15:07:14.162,2,3.21,-3.84,-2.93,-435.411,132.6588,402.34279999999995,175,75
2026-05-09 15:07:14.282,2,5.2,-4.87,-1.27,-437.601,381.9888,368.4328,175,75
2026-05-09 15:07:14.282,2,5.56,-4.88,-0.01,-599.8009999999999,276.4388,-64.06719999999999,175,75
2026-05-09 15:07:14.282,2,4.28,-4.42,1.56,-551.9309999999999,424.66880000000003,-250.21720000000002,175,75
2026-05-09 15:07:14.282,2,3.24,-3.85,2.12,-490.341,541.3188,-312.90720000000005,175,75
2026-05-09 15:07:14.296,2,2.61,-3.25,2.44,-420.651,661.7388,-335.5872,175,75
2026-05-09 15:07:14.401,2,1.9,-2.55,2.7,-322.781,820.9488,-347.10720000000003,175,75
2026-05-09 15:07:14.401,2,0.34,-1.14,3.77,164.46900000000002,210.27880000000002,-336.3772,175,75
2026-05-09 15:07:14.451,2,0.08,-1.18,3.11,56.789,-290.4512,-411.6272,175,75
2026-05-09 15:07:14.451,2,-1.32,-0.5,0.05,-21.141,-104.9012,-263.9972,175,75
2026-05-09 15:07:14.451,2,-1.58,-0.11,0.1,36.419,538.6288,-232.1072,175,75
2026-05-09 15:07:14.711,2,-0.36,-0.59,1.29,1.479,-113.5012,-74.4272,175,75
2026-05-09 15:07:14.711,2,-0.47,-0.54,1.06,18.189,-202.6512,-32.0472,175,75
2026-05-09 15:07:14.711,2,-0.53,-0.43,0.67,1.359,-121.1212,3.8028000000000013,175,75
2026-05-09 15:07:14.711,2,0.27,-0.22,1.66,-86.32100000000001,169.96880000000002,211.24280000000002,175,75
2026-05-09 15:07:14.711,2,0.14,0.1,1.27,-80.04100000000001,170.45880000000002,261.8528,175,75
2026-05-09 15:07:14.727,2,1.23,-1.02,2.65,-44.921,429.1188,302.95279999999997,175,75
2026-05-09 15:07:14.727,2,1.11,-0.71,3.14,-25.161,169.23880000000003,288.4328,175,75
2026-05-09 15:07:14.808,2,1.43,0.71,4.13,-65.34100000000001,-100.6412,244.0428,175,75
2026-05-09 15:07:14.808,2,2.37,-0.04,3.31,13.559000000000001,-159.60119999999998,218.80280000000002,175,75
2026-05-09 15:07:14.808,2,1.91,0.37,2.68,68.679,-69.9712,245.4528,175,75
2026-05-09 15:07:14.808,2,1.53,0.49,2.45,121.29899999999999,2.4087999999999994,254.4128,175,75
2026-05-09 15:07:14.855,2,2.06,-0.31,3.75,192.639,14.908800000000001,258.7428,175,75
2026-05-09 15:07:14.855,2,2.18,-0.32,3.54,187.519,-61.861200000000004,268.9828,175,75
2026-05-09 15:07:14.855,2,2.35,-0.35,2.65,204.049,-175.4512,268.6828,175,75
2026-05-09 15:07:14.865,2,2.21,-0.4,2.22,217.889,-171.5512,241.0028,175,75
2026-05-09 15:07:14.897,2,2.18,-0.39,1.85,248.979,-130.0912,213.68280000000001,175,75
2026-05-09 15:07:14.944,2,2.39,-0.31,1.67,285.68899999999996,-125.0312,200.2628,175,75
2026-05-09 15:07:14.944,2,2.18,-0.17,1.59,299.289,-130.7012,189.5328,175,75
2026-05-09 15:07:15.024,2,1.64,0.02,1.43,302.519,-101.0612,188.74280000000002,175,75
2026-05-09 15:07:15.024,2,0.63,-0.33,-0.27,258.49899999999997,-203.32119999999998,6.482800000000001,175,75
2026-05-09 15:07:15.039,2,0.53,-0.42,-0.22,242.279,-55.641200000000005,12.0328,175,75
2026-05-09 15:07:15.039,2,0.78,-0.46,-0.2,212.829,51.068799999999996,16.4828,175,75
2026-05-09 15:07:15.065,2,1.2,-0.34,-0.02,112.76899999999999,-5.2712,-16.8072,175,75
2026-05-09 15:07:15.085,2,1.14,-0.35,0.02,101.119,-37.2212,-21.7472,175,75
2026-05-09 15:07:15.255,2,0.84,-0.24,0.12,-7.911,-90.8212,-67.78720000000001,175,75
2026-05-09 15:07:15.255,2,0.55,-0.21,0.1,-66.87100000000001,-37.2212,-33.4572,175,75
2026-05-09 15:07:15.255,2,0.61,-0.27,0.27,-120.711,80.8288,-1.6271999999999984,175,75
2026-05-09 15:07:15.255,2,0.64,-0.18,0.36,-116.381,71.6188,8.0728,175,75
2026-05-09 15:07:15.255,2,0.76,-0.1,0.46,-116.691,61.61879999999999,23.2528,175,75
2026-05-09 15:07:15.302,2,1.17,-0.31,0.73,-230.471,97.8988,93.80279999999999,175,75
2026-05-09 15:07:15.471,2,1.07,-0.39,0.81,-276.99100000000004,16.318800000000003,95.08279999999999,175,75
2026-05-09 15:07:15.471,2,0.94,-0.48,0.89,-399.86100000000005,58.568799999999996,144.96280000000002,175,75
2026-05-09 15:07:15.471,2,1.03,-0.65,0.91,-451.50100000000003,106.1888,165.2028,175,75
2026-05-09 15:07:15.471,2,1.5,-1.6,1.25,-601.381,262.10880000000003,178.86280000000002,175,75
2026-05-09 15:07:15.471,2,2.03,-2.15,1.28,-630.9509999999999,274.1788,170.2028,175,75
2026-05-09 15:07:15.471,2,2.32,-2.58,1.57,-663.091,201.49880000000002,163.3128,175,75
2026-05-09 15:07:15.471,2,2.33,-3.34,1.79,-681.021,70.94879999999999,108.8628,175,75
2026-05-09 15:07:15.472,2,2.66,-3.43,1.77,-674.001,45.2188,110.93280000000001,175,75
2026-05-09 15:07:15.472,2,2.84,-3.2,1.58,-672.231,17.108800000000002,151.30280000000002,175,75
2026-05-09 15:07:15.472,2,2.75,-3.11,1.4,-674.611,22.8988,153.86280000000002,175,75
2026-05-09 15:07:15.472,2,3.5,-4.58,1.69,-669.1909999999999,120.1588,98.74279999999999,175,75
2026-05-09 15:07:15.472,2,3.69,-4.85,1.86,-660.531,96.7388,72.1528,175,75
2026-05-09 15:07:15.498,2,3.83,-4.9,1.93,-651.621,60.8888,58.2528,175,75
2026-05-09 15:07:15.498,2,3.69,-4.87,1.9,-646.4409999999999,31.678799999999995,49.4128,175,75
2026-05-09 15:07:15.622,2,2.6,-4.33,1.57,-608.391,135.33880000000002,2.5828000000000007,175,75
2026-05-09 15:07:15.622,2,2.28,-4.04,1.55,-571.991,263.4488,-26.377200000000002,175,75
2026-05-09 15:07:15.622,2,2.17,-3.89,1.64,-530.711,374.78880000000004,-54.1872,175,75
2026-05-09 15:07:15.622,2,2.07,-3.74,1.84,-487.601,458.3888,-88.99719999999999,175,75
2026-05-09 15:07:15.622,2,2.01,-3.57,2.14,-432.36100000000005,507.34880000000004,-128.1472,175,75
2026-05-09 15:07:15.657,2,1.7,-3.12,2.68,-355.831,436.0088,-184.8572,175,75
2026-05-09 15:07:15.657,2,1.36,-2.75,2.78,-324.00100000000003,353.9388,-201.8672,175,75
2026-05-09 15:07:15.657,2,1.09,-2.39,2.69,-284.37100000000004,267.59880000000004,-211.6272,175,75
2026-05-09 15:07:15.660,2,0.68,-1.88,2.4,-211.62099999999998,144.6688,-211.31719999999999,175,75
2026-05-09 15:07:15.853,2,0.38,-1.62,2.27,-191.691,111.3188,-202.7172,175,75
2026-05-09 15:07:15.853,2,0.1,-1.31,2.07,-177.111,89.6088,-177.7172,175,75
2026-05-09 15:07:15.853,2,-0.07,-0.93,1.89,-152.051,32.8988,-150.4072,175,75
2026-05-09 15:07:15.853,2,-0.15,-0.54,1.74,-133.271,-24.4812,-115.7072,175,75
2026-05-09 15:07:15.853,2,-0.22,-0.17,1.62,-34.981,286.0088,8.7428,175,75
2026-05-09 15:07:15.853,2,0.25,-0.0,2.04,-38.760999999999996,202.83880000000002,17.8928,175,75
2026-05-09 15:07:15.853,2,0.32,-0.12,2.02,-41.080999999999996,150.8888,25.4528,175,75
2026-05-09 15:07:15.854,2,0.32,-0.79,1.93,-22.301000000000002,155.39880000000002,117.09280000000001,175,75
2026-05-09 15:07:15.910,2,0.45,-1.01,2.09,-14.371,238.8188,129.9628,175,75
2026-05-09 15:07:15.953,2,1.12,-1.54,2.57,-24.981,125.82879999999999,249.7828,175,75
2026-05-09 15:07:15.953,2,0.83,-1.93,2.43,0.38900000000000023,52.5988,254.8428,175,75
2026-05-09 15:07:16.027,2,1.35,-1.91,2.97,50.809000000000005,13.3288,306.3628,175,75
2026-05-09 15:07:16.027,2,1.41,-1.81,2.98,56.119,-39.6612,313.1328,175,75
2026-05-09 15:07:16.027,2,1.38,-1.74,2.92,66.239,-95.0912,323.1928,175,75
2026-05-09 15:07:16.027,2,1.35,-1.68,2.85,85.689,-142.53119999999998,334.4728,175,75
2026-05-09 15:07:16.073,2,1.14,-1.43,2.76,168.679,-241.06119999999999,365.39279999999997,175,75
2026-05-09 15:07:16.073,2,1.02,-1.48,2.8,206.78900000000002,-296.7312,389.3528,175,75
2026-05-09 15:07:16.073,2,0.91,-1.74,3.12,244.169,-344.90119999999996,422.21279999999996,175,75
2026-05-09 15:07:16.262,2,1.82,-2.34,0.62,514.349,-309.5412,-151.13719999999998,175,75
2026-05-09 15:07:16.262,2,1.52,-2.23,0.54,465.93899999999996,-301.9212,-165.03719999999998,175,75
2026-05-09 15:07:16.262,2,1.34,-2.08,0.34,409.289,-303.3812,-182.78719999999998,175,75
2026-05-09 15:07:16.367,2,1.18,-1.92,0.18,368.919,-316.8612,-198.0272,175,75
2026-05-09 15:07:16.367,2,0.83,-1.69,-0.05,328.859,-325.8812,-224.06719999999999,175,75
2026-05-09 15:07:16.367,2,0.12,-0.93,-0.34,246.119,-232.8912,-313.6972,175,75
2026-05-09 15:07:16.367,2,-0.6,-0.56,-0.34,193.979,-18.8712,-150.3472,175,75
2026-05-09 15:07:16.367,2,-0.85,-0.51,-0.34,157.339,109.72879999999999,-120.09719999999999,175,75
2026-05-09 15:07:16.367,2,-0.61,-0.41,-0.34,116.479,186.92880000000002,-102.90719999999999,175,75
2026-05-09 15:07:16.367,2,-0.34,-0.31,-0.3,74.289,176.0088,-90.9572,175,75
2026-05-09 15:07:16.384,2,-0.36,0.07,-0.17,-17.171,114.7888,-41.9272,175,75
2026-05-09 15:07:16.741,2,0.05,0.43,-0.11,-68.031,121.2488,126.18280000000001,175,75
2026-05-09 15:07:16.741,2,0.21,0.3,0.06,-122.841,90.8288,271.3628,175,75
2026-05-09 15:07:16.741,2,0.5,-0.07,0.2,-174.671,49.1188,356.5428,175,75
2026-05-09 15:07:16.741,2,0.71,-0.34,0.27,-219.801,-11.4912,431.5428,175,75
2026-05-09 15:07:16.741,2,0.84,-0.45,0.27,-245.951,-68.6812,480.7528,175,75
2026-05-09 15:07:16.741,2,1.5,-0.85,-0.2,-195.71099999999998,-132.28119999999998,355.6928,175,75
2026-05-09 15:07:16.741,2,1.99,-0.64,-0.47,-215.041,-172.53119999999998,436.3628,175,75
2026-05-09 15:07:16.741,2,2.4,-1.23,-0.57,-204.731,-230.88119999999998,474.71279999999996,175,75
2026-05-09 15:07:16.742,2,3.17,-3.07,-1.85,-263.391,-544.9612000000001,442.21279999999996,175,75
2026-05-09 15:07:16.742,2,5.05,-4.44,-2.74,-432.05100000000004,7.958799999999998,160.8728,175,75
2026-05-09 15:07:16.742,2,4.54,-4.45,-2.27,-562.4209999999999,322.8388,-22.9672,175,75
2026-05-09 15:07:16.742,2,4.21,-4.55,-0.09,-495.161,700.5187999999999,-245.34720000000002,175,75
2026-05-09 15:07:16.742,2,1.83,-3.81,2.22,-240.34099999999998,736.5587999999999,-548.1472,175,75
2026-05-09 15:07:16.742,2,1.14,-3.2,2.46,-160.411,797.6587999999999,-577.9072,175,75
2026-05-09 15:07:16.762,2,0.62,-2.58,2.53,-82.661,847.4087999999999,-574.2472,175,75
2026-05-09 15:07:16.762,2,0.25,-2.04,2.35,-1.8710000000000004,851.1288,-533.5172,175,75
2026-05-09 15:07:16.762,2,0.01,-1.58,2.26,65.139,827.5387999999999,-484.97720000000004,175,75
2026-05-09 15:07:16.966,2,0.15,-0.22,1.6,202.639,500.6388,-273.5172,175,75
2026-05-09 15:07:16.966,2,0.14,-0.18,1.4,191.84900000000002,328.8188,-232.53719999999998,175,75
2026-05-09 15:07:16.966,2,-0.03,-0.19,1.14,167.21900000000002,160.7688,-200.6472,175,75
2026-05-09 15:07:16.966,2,-0.14,-0.33,0.81,138.00900000000001,24.848799999999997,-173.2672,175,75
2026-05-09 15:07:16.966,2,-0.75,0.07,-0.16,41.479,196.92880000000002,14.4128,175,75
2026-05-09 15:07:16.966,2,-0.53,-0.08,0.09,59.109,266.7388,32.3428,175,75
2026-05-09 15:07:16.966,2,-0.39,-0.3,0.41,45.509,285.6388,43.6228,175,75
2026-05-09 15:07:16.966,2,-0.29,-0.65,0.82,-3.271000000000001,210.33880000000002,34.3528,175,75
2026-05-09 15:07:16.966,2,-0.06,-0.75,0.99,-19.551000000000002,173.1388,38.312799999999996,175,75
2026-05-09 15:07:16.966,2,0.13,-0.63,0.88,-23.641,128.8788,49.2328,175,75
2026-05-09 15:07:16.966,2,0.12,-0.59,0.77,-29.370999999999995,105.1588,56.9728,175,75
2026-05-09 15:07:16.994,2,-0.34,-0.59,0.54,-46.260999999999996,211.0688,73.7428,175,75
2026-05-09 15:07:17.103,2,-0.39,-0.58,0.64,-53.451,292.28880000000004,76.7328,175,75
2026-05-09 15:07:17.103,2,-0.22,-0.65,0.85,-71.87100000000001,363.6888,82.40280000000001,175,75
2026-05-09 15:07:17.103,2,-0.09,-0.81,1.14,-105.34100000000001,378.3888,92.03280000000001,175,75
2026-05-09 15:07:17.103,2,-0.02,-0.94,1.35,-129.191,355.3988,96.4228,175,75
2026-05-09 15:07:17.103,2,-0.23,-0.85,1.36,-138.521,309.66880000000003,99.78280000000001,175,75
2026-05-09 15:07:17.103,2,-0.43,-1.24,1.33,-133.391,241.73880000000003,84.71279999999999,175,75
2026-05-09 15:07:17.103,2,0.24,-0.39,1.31,-170.471,264.78880000000004,157.2828,175,75
2026-05-09 15:07:17.165,2,-0.45,-1.42,2.47,-179.49099999999999,295.6388,257.5828,175,75
2026-05-09 15:07:17.165,2,-0.08,-1.36,2.4,-177.421,369.35880000000003,308.0728,175,75
2026-05-09 15:07:17.165,2,-0.08,-1.13,2.16,-176.56099999999998,320.8288,343.1328,175,75
2026-05-09 15:07:17.271,2,0.68,-1.03,4.33,-184.251,-465.0912,433.1928,175,75
2026-05-09 15:07:17.352,2,2.13,-1.53,2.4,-7.111000000000001,-268.14119999999997,416.6128,175,75
2026-05-09 15:07:17.352,2,1.43,-0.98,2.11,70.87899999999999,-28.011200000000002,410.08279999999996,175,75
2026-05-09 15:07:17.352,2,0.96,-1.06,2.49,112.579,317.4088,391.5428,175,75
2026-05-09 15:07:17.422,2,2.24,-1.11,3.76,125.999,-12.5912,380.8728,175,75
2026-05-09 15:07:17.837,2,2.08,-0.9,3.57,211.359,139.96880000000002,361.1828,175,75
2026-05-09 15:07:17.837,2,2.41,-0.96,3.81,239.46900000000002,66.0088,352.58279999999996,175,75
2026-05-09 15:07:17.838,2,2.02,-0.3,0.36,310.68899999999996,-322.9512,48.9828,175,75
2026-05-09 15:07:17.838,2,1.06,-0.4,0.32,351.789,-96.1812,50.9328,175,75
2026-05-09 15:07:17.838,2,1.21,-0.7,0.16,329.049,0.9488000000000003,53.1328,175,75
2026-05-09 15:07:17.838,2,1.47,-0.8,-0.03,282.089,0.7688000000000006,36.912800000000004,175,75
2026-05-09 15:07:17.839,2,1.56,-0.66,-0.22,235.139,-41.9212,7.6428,175,75
2026-05-09 15:07:17.839,2,1.46,-0.48,-0.31,224.229,-50.5112,-5.467199999999998,175,75
2026-05-09 15:07:17.839,2,1.32,-0.3,-0.36,231.419,-23.8712,-12.8472,175,75
2026-05-09 15:07:17.839,2,1.17,-0.21,-0.31,243.18900000000002,27.168799999999997,-18.3872,175,75
2026-05-09 15:07:17.839,2,1.04,-0.33,0.17,236.119,160.7688,-11.987199999999998,175,75
2026-05-09 15:07:17.839,2,1.16,-0.41,0.38,120.56899999999999,13.3288,-41.7472,175,75
2026-05-09 15:07:17.839,2,0.24,-0.27,0.02,67.949,-6.4312000000000005,-63.877199999999995,175,75
2026-05-09 15:07:17.839,2,0.45,-0.26,0.13,48.619,110.2788,-49.7972,175,75
2026-05-09 15:07:18.220,2,0.87,-0.16,0.51,-17.970999999999997,-79.9012,-25.0972,175,75
2026-05-09 15:07:18.220,2,0.67,0.0,0.46,-14.061000000000002,-173.32119999999998,35.022800000000004,175,75
2026-05-09 15:07:18.220,2,0.62,-0.22,0.21,-19.371000000000002,-18.7512,84.3528,175,75
2026-05-09 15:07:18.220,2,1.01,-0.15,0.83,-124.861,108.44879999999999,186.9728,175,75
2026-05-09 15:07:18.220,2,1.41,-1.18,-1.45,-318.641,-295.5712,546.1827999999999,175,75
2026-05-09 15:07:18.221,2,1.43,-1.7,-2.12,-317.841,-174.29119999999998,580.2628,175,75
2026-05-09 15:07:18.221,2,3.08,-4.18,-1.14,-429.12100000000004,502.59880000000004,302.40279999999996,175,75
2026-05-09 15:07:18.221,2,2.6,-4.23,-0.1,-404.80100000000004,665.0387999999999,203.5028,175,75
2026-05-09 15:07:18.221,2,2.08,-4.22,0.97,-379.86100000000005,786.1288,70.5128,175,75
2026-05-09 15:07:18.221,2,1.42,-3.29,2.1,-265.341,862.6587999999999,-129.4872,175,75
2026-05-09 15:07:18.226,2,1.41,-2.96,2.81,-179.251,819.7887999999999,-172.7172,175,75
2026-05-09 15:07:18.446,2,1.04,-2.12,3.11,-121.69100000000002,593.4488,-245.64719999999997,175,75
2026-05-09 15:07:18.446,2,1.52,-1.56,3.33,-164.551,277.4088,-284.48720000000003,175,75
2026-05-09 15:07:18.446,2,1.16,-0.91,3.4,-300.951,290.8888,-253.38719999999998,175,75
2026-05-09 15:07:18.446,2,1.14,-0.55,2.51,-328.031,211.3788,-189.7972,175,75
2026-05-09 15:07:18.446,2,0.86,-0.48,2.13,-266.81100000000004,115.6388,-109.7972,175,75
2026-05-09 15:07:18.446,2,0.51,-0.44,1.81,-198.03099999999998,35.9488,-79.6772,175,75
2026-05-09 15:07:18.446,2,0.27,-0.36,1.63,-131.751,3.8187999999999995,-80.28720000000001,175,75
2026-05-09 15:07:18.448,2,0.12,-0.28,1.49,-65.891,2.7188,-101.37719999999999,175,75
2026-05-09 15:07:18.448,2,0.06,-0.21,1.41,-14.551,24.668799999999997,-125.40719999999999,175,75
2026-05-09 15:07:18.448,2,0.3,-0.13,1.51,1.2990000000000004,82.7788,-102.84719999999999,175,75
2026-05-09 15:07:18.448,2,0.23,0.05,1.47,-2.601000000000001,146.49880000000002,-58.45719999999999,175,75
2026-05-09 15:07:18.448,2,-0.06,0.18,1.44,-11.081000000000001,214.05880000000002,-43.8772,175,75
2026-05-09 15:07:18.573,2,0.33,-0.22,2.25,48.919000000000004,250.5188,-27.7872,175,75
2026-05-09 15:07:18.573,2,0.16,-0.34,2.37,55.879000000000005,156.3188,-4.917200000000001,175,75
2026-05-09 15:07:18.573,2,-0.11,-0.19,1.8,41.239000000000004,-23.071199999999997,51.6728,175,75
2026-05-09 15:07:18.573,2,-0.02,-0.69,1.98,60.689,-71.7912,9.962800000000001,175,75
2026-05-09 15:07:18.573,2,0.49,-0.57,2.7,60.999,228.0788,215.4528,175,75
2026-05-09 15:07:18.914,2,1.48,-2.5,3.38,341.969,-105.5712,360.6928,175,75
2026-05-09 15:07:18.914,2,1.61,-2.76,3.7,397.219,-173.9312,347.46279999999996,175,75
2026-05-09 15:07:18.914,2,1.87,-2.92,3.74,421.549,-261.2512,340.20279999999997,175,75
2026-05-09 15:07:18.914,2,2.34,-3.11,3.34,429.899,-368.8112,331.3628,175,75
2026-05-09 15:07:18.914,2,2.06,-4.59,1.35,587.159,-229.3612,227.58280000000002,175,75
2026-05-09 15:07:18.914,2,1.66,-4.74,1.31,670.269,-73.7512,255.3228,175,75
2026-05-09 15:07:18.915,2,2.29,-2.82,2.06,632.029,-80.4512,242.46280000000002,175,75
2026-05-09 15:07:18.915,2,1.52,-2.68,1.18,538.499,-312.77119999999996,184.3528,175,75
2026-05-09 15:07:18.915,2,1.37,-2.18,0.47,481.789,-473.5612,101.06280000000001,175,75
2026-05-09 15:07:18.915,2,0.93,-1.09,-0.65,523.6790000000001,-86.6112,-175.4672,175,75
2026-05-09 15:07:18.915,2,0.67,-0.74,-0.31,536.909,-23.071199999999997,-195.88719999999998,175,75
2026-05-09 15:07:18.915,2,0.66,-0.63,-0.22,525.1990000000001,52.1688,-181.0172,175,75
2026-05-09 15:07:18.933,2,0.38,-0.38,-0.12,437.339,147.83880000000002,-95.34719999999999,175,75
2026-05-09 15:07:19.018,2,0.21,0.34,0.25,179.28900000000002,430.3988,5.142800000000001,175,75
2026-05-09 15:07:19.036,2,0.17,0.26,0.25,123.79899999999999,451.4988,22.4628,175,75
2026-05-09 15:07:19.056,2,-0.0,-0.12,0.56,27.829,498.7488,66.4828,175,75
2026-05-09 15:07:19.060,2,0.13,-0.77,0.85,-185.65099999999998,507.34880000000004,172.0928,175,75
2026-05-09 15:07:19.102,2,2.84,-1.38,1.67,-375.951,540.3987999999999,340.6328,175,75
2026-05-09 15:07:19.194,2,1.24,-2.59,-0.29,-381.50100000000003,-422.9512,565.7528,175,75
2026-05-09 15:07:19.194,2,1.05,-3.66,-0.82,-368.821,-642.2212000000001,519.1128,175,75
2026-05-09 15:07:19.361,2,2.54,-3.64,0.05,-92.661,410.4588,162.21280000000002,175,75
2026-05-09 15:07:19.361,2,2.76,-3.41,0.36,-91.441,365.09880000000004,170.5128,175,75
2026-05-09 15:07:19.361,2,2.84,-3.08,0.73,-95.531,311.0088,177.21280000000002,175,75
2026-05-09 15:07:19.361,2,2.75,-2.82,1.07,-99.921,271.6788,170.7528,175,75
2026-05-09 15:07:19.361,2,1.67,-1.57,1.76,-130.161,184.42880000000002,34.1128,175,75
2026-05-09 15:07:19.426,2,1.72,-1.15,1.9,-123.94100000000002,100.8288,-33.6372,175,75
2026-05-09 15:07:19.426,2,1.48,-0.39,1.93,-125.591,-102.0412,-275.7072,175,75
2026-05-09 15:07:19.426,2,1.6,0.22,1.21,-82.361,15.708799999999998,-8.8172,175,75
2026-05-09 15:07:19.426,2,1.05,0.44,1.32,-57.421,77.8988,20.0228,175,75
2026-05-09 15:07:19.484,2,0.85,-0.4,2.08,-34.251,151.61880000000002,-109.91720000000001,175,75
2026-05-09 15:07:19.484,2,0.97,-0.58,2.18,-45.951,131.67880000000002,-149.6772,175,75
2026-05-09 15:07:19.484,2,0.9,-0.54,2.12,-50.711,70.2788,-159.4872,175,75
2026-05-09 15:07:19.484,2,0.99,-0.41,2.02,-46.381,-7.6512,-144.7972,175,75
2026-05-09 15:07:19.484,2,0.93,-0.08,1.66,0.19899999999999984,-122.8312,-12.107199999999999,175,75
2026-05-09 15:07:19.630,2,0.95,-0.28,1.63,20.329,-156.9212,6.242800000000001,175,75
2026-05-09 15:07:19.630,2,0.75,-0.46,1.2,20.689,-40.0312,-43.8772,175,75
2026-05-09 15:07:19.630,2,0.9,-0.41,1.16,87.76899999999999,52.2288,-76.68719999999999,175,75
2026-05-09 15:07:19.630,2,0.88,-0.42,1.22,91.84899999999999,29.238799999999998,-73.93719999999999,175,75
2026-05-09 15:07:19.769,2,0.56,-0.35,0.6,80.199,-197.28119999999998,-6.627199999999998,175,75
2026-05-09 15:07:19.769,2,-0.41,-0.72,0.29,94.589,-228.2012,1.3628,175,75
2026-05-09 15:07:19.769,2,0.12,-0.32,-0.78,103.859,-279.4812,-81.37719999999999,175,75
2026-05-09 15:07:19.774,2,-0.18,-1.73,-1.03,85.509,71.9888,-6.437200000000001,175,75
2026-05-09 15:07:19.796,2,-0.27,-1.69,-1.02,53.799,115.0288,5.322800000000001,175,75
2026-05-09 15:07:19.796,2,-0.19,-1.43,-0.73,58.739000000000004,148.3888,12.402800000000001,175,75
2026-05-09 15:07:19.900,2,0.8,-1.58,-0.57,96.359,-14.1112,0.5728000000000009,175,75
2026-05-09 15:07:19.900,2,0.24,-1.61,-0.76,53.309000000000005,-281.3112,-21.627200000000002,175,75
2026-05-09 15:07:19.900,2,-0.34,-1.43,-1.17,-25.891,-168.32119999999998,-111.31719999999999,175,75
2026-05-09 15:07:19.927,2,0.32,-1.12,-1.35,6.969,52.4088,-28.9972,175,75
2026-05-09 15:07:19.927,2,0.25,-0.96,-1.04,41.789,106.7988,62.8928,175,75
2026-05-09 15:07:19.938,2,0.23,-1.36,-0.55,56.479,164.48880000000003,104.2928,175,75
2026-05-09 15:07:19.957,2,1.22,-2.68,-0.29,23.918999999999997,140.02880000000002,199.9028,175,75
2026-05-09 15:07:19.957,2,0.94,-3.02,-0.3,6.609,79.2388,180.4528,175,75
2026-05-09 15:07:19.963,2,0.14,-2.81,-0.41,12.459,-27.5312,59.9028,175,75
2026-05-09 15:07:19.981,2,0.15,-1.81,-0.65,31.729,-130.03119999999998,-82.96719999999999,175,75
2026-05-09 15:07:19.981,2,0.65,-1.14,-0.87,31.418999999999997,-248.75119999999998,-240.95719999999997,175,75
2026-05-09 15:07:19.986,2,1.74,-0.8,-0.98,9.229,-263.3212,-301.2572,175,75
2026-05-09 15:07:20.004,2,1.09,-0.1,-1.24,7.829,122.95880000000001,113.0128,175,75
2026-05-09 15:07:20.024,2,1.05,-1.11,-0.71,-8.761,213.5688,15.4528,175,75
2026-05-09 15:07:20.050,2,1.59,-1.63,0.25,-57.111,269.1788,21.7928,175,75
2026-05-09 15:07:20.058,2,1.66,-1.33,0.3,-38.271,195.02880000000002,-14.307199999999998,175,75
2026-05-09 15:07:20.097,2,1.73,-1.14,0.32,-7.170999999999999,87.83879999999999,-74.12719999999999,175,75
2026-05-09 15:07:20.097,2,1.81,-1.09,0.4,18.308999999999997,1.6188000000000002,-129.1272,175,75
2026-05-09 15:07:20.170,2,2.01,-1.14,0.58,31.479,-31.251199999999997,-154.4872,175,75
2026-05-09 15:07:20.170,2,2.09,-0.9,0.74,11.669,44.788799999999995,-57.847199999999994,175,75
2026-05-09 15:07:20.178,2,1.82,-1.91,1.57,81.90899999999999,-112.8912,-31.377200000000002,175,75
2026-05-09 15:07:20.185,2,1.47,-2.15,1.28,113.67899999999999,-147.22119999999998,-117.2372,175,75
2026-05-09 15:07:20.302,2,1.48,-2.22,1.07,138.18900000000002,-178.2012,-189.3672,175,75
2026-05-09 15:07:20.302,2,1.47,-1.95,0.85,204.229,-148.8712,-232.1772,175,75
2026-05-09 15:07:20.302,2,0.95,-2.41,0.84,293.979,10.638800000000002,-248.9972,175,75
2026-05-09 15:07:20.308,2,0.96,-2.21,0.72,268.739,-96.6712,-270.9572,175,75
2026-05-09 15:07:20.325,2,0.86,-1.92,0.61,241.179,-181.00119999999998,-273.6372,175,75
2026-05-09 15:07:20.376,2,0.71,-1.58,0.46,198.679,-266.6712,-283.0872,175,75
2026-05-09 15:07:20.409,2,0.14,-0.2,-0.35,46.119,-286.0612,-146.6872,175,75
2026-05-09 15:07:20.490,2,0.41,-2.15,-1.37,-329.06100000000004,-113.5612,10.2028,175,75
2026-05-09 15:07:20.490,2,0.7,-2.31,-1.63,-336.81100000000004,-34.5412,0.6328000000000014,175,75
2026-05-09 15:07:20.778,2,1.51,-1.53,-1.36,-210.161,233.74880000000002,-11.3172,175,75
2026-05-09 15:07:20.778,2,1.92,-1.35,-0.17,-148.09099999999998,286.4988,-91.19720000000001,175,75
2026-05-09 15:07:20.779,2,2.03,-1.1,0.11,-141.441,202.71880000000002,-163.69719999999998,175,75
2026-05-09 15:07:20.779,2,2.04,-1.23,0.23,-119.001,180.70880000000002,-192.2972,175,75
2026-05-09 15:07:20.779,2,2.03,-1.04,0.95,2.3390000000000004,12.5388,-194.6072,175,75
2026-05-09 15:07:20.779,2,1.48,-1.02,0.9,28.439,9.728800000000001,-194.2472,175,75
2026-05-09 15:07:20.779,2,1.56,-0.68,1.07,71.54899999999999,226.18880000000001,-176.9272,175,75
2026-05-09 15:07:20.779,2,1.73,-0.68,1.33,100.689,281.9888,-175.4072,175,75
2026-05-09 15:07:20.779,2,2.12,-0.7,1.56,132.029,233.8188,-166.4972,175,75
2026-05-09 15:07:20.780,2,1.82,-0.93,1.92,137.279,19.788800000000002,-131.4972,175,75
2026-05-09 15:07:20.820,2,1.66,-1.71,1.54,199.049,54.428799999999995,-159.7972,175,75
2026-05-09 15:07:20.820,2,1.72,-1.73,1.56,214.229,60.7688,-161.9872,175,75
2026-05-09 15:07:21.030,2,1.51,-2.59,1.46,339.469,24.668799999999997,-178.81719999999999,175,75
2026-05-09 15:07:21.030,2,1.43,-2.85,1.23,342.63899999999995,-39.4212,-181.31719999999999,175,75
2026-05-09 15:07:21.030,2,1.35,-2.94,1.08,337.159,-55.4512,-185.6472,175,75
2026-05-09 15:07:21.030,2,1.31,-3.01,0.97,335.50899999999996,-53.4412,-199.3072,175,75
2026-05-09 15:07:21.030,2,1.93,-3.56,1.27,339.229,143.0788,-353.4572,175,75
2026-05-09 15:07:21.038,2,1.6,-3.07,1.31,398.979,98.7488,-153.69719999999998,175,75
2026-05-09 15:07:21.097,2,1.93,-3.76,0.96,467.69899999999996,295.6388,-100.34719999999999,175,75
2026-05-09 15:07:21.097,2,2.58,-3.86,1.36,539.289,266.7988,-68.6372,175,75
2026-05-09 15:07:21.115,2,3.35,-4.75,2.0,564.659,10.3988,-53.45719999999999,175,75
2026-05-09 15:07:21.144,2,2.98,-6.35,0.8,483.55899999999997,-278.6812,-131.4372,175,75
2026-05-09 15:07:21.144,2,2.88,-6.5,0.17,465.19899999999996,-231.7312,-174.06719999999999,175,75
2026-05-09 15:07:21.338,2,3.28,-6.64,-1.23,529.529,19.7288,-238.0872,175,75
2026-05-09 15:07:21.338,2,3.83,-6.94,-0.58,588.1890000000001,-56.001200000000004,-318.0872,175,75
2026-05-09 15:07:21.338,2,1.96,-6.05,-2.08,394.409,-111.7312,-650.8872,175,75
2026-05-09 15:07:21.362,2,0.97,-3.73,-1.63,290.38899999999995,133.5088,-585.7672,175,75
2026-05-09 15:07:21.366,2,0.53,-2.88,-1.16,290.99899999999997,148.99880000000002,-521.3772,175,75
2026-05-09 15:07:21.512,2,0.65,-1.81,-0.53,277.459,157.0488,-415.7072,175,75
2026-05-09 15:07:21.512,2,0.23,-0.73,0.23,211.239,235.8888,-208.38719999999998,175,75
2026-05-09 15:07:21.900,2,0.68,-0.37,0.63,186.119,191.49880000000002,-156.7472,175,75
2026-05-09 15:07:21.900,2,0.9,-0.37,0.61,108.499,172.6588,-156.6872,175,75
2026-05-09 15:07:21.900,2,0.44,0.09,0.81,87.089,22.8388,-172.53719999999998,175,75
2026-05-09 15:07:21.900,2,0.65,0.14,0.75,95.329,-45.5112,-140.03719999999998,175,75
2026-05-09 15:07:21.900,2,-0.15,0.13,0.58,101.119,-13.6212,5.632800000000001,175,75
2026-05-09 15:07:21.900,2,-0.0,0.12,0.45,85.26899999999999,102.1688,73.6828,175,75
2026-05-09 15:07:21.900,2,0.2,0.14,0.38,67.579,178.74880000000002,128.1328,175,75
2026-05-09 15:07:21.900,2,1.78,-1.15,0.61,-131.62099999999998,351.0088,360.9328,175,75
2026-05-09 15:07:21.900,2,1.87,-3.06,-0.65,-196.201,-515.9412,543.3728,175,75
2026-05-09 15:07:21.900,2,1.48,-3.48,-1.23,-181.201,-478.6212,560.5728,175,75
2026-05-09 15:07:21.901,2,1.94,-4.24,-2.96,-203.21099999999998,-27.2812,623.0728,175,75
2026-05-09 15:07:21.901,2,2.12,-4.92,-2.07,-99.98100000000001,139.9088,669.6528,175,75
2026-05-09 15:07:21.961,2,2.25,-5.05,-1.4,-94.001,151.92880000000002,623.3728,175,75
2026-05-09 15:07:21.961,2,2.18,-4.14,-0.12,-286.021,34.1188,443.8028,175,75
2026-05-09 15:07:21.970,2,2.12,-3.88,0.03,-265.891,38.0788,400.26279999999997,175,75
2026-05-09 15:07:21.970,2,2.22,-3.64,0.29,-234.43099999999998,45.5188,345.7528,175,75
2026-05-09 15:07:22.248,2,2.4,-3.46,0.49,-217.84099999999998,52.0488,313.1328,175,75
2026-05-09 15:07:22.248,2,2.6,-3.17,0.65,-213.641,53.8788,296.1228,175,75
2026-05-09 15:07:22.248,2,2.14,-1.21,1.69,-184.49099999999999,351.9888,120.08279999999999,175,75
2026-05-09 15:07:22.248,2,2.19,-0.78,2.12,-182.231,295.2788,64.1128,175,75
2026-05-09 15:07:22.248,2,1.62,-0.34,2.29,-143.701,325.8288,-100.6472,175,75
2026-05-09 15:07:22.248,2,1.53,-0.25,2.19,-122.54100000000001,323.4488,-129.7972,175,75
2026-05-09 15:07:22.248,2,1.3,-0.08,2.34,-122.23100000000001,326.2488,-100.28720000000001,175,75
2026-05-09 15:07:22.248,2,1.19,0.0,2.55,-113.331,255.5188,-115.6472,175,75
2026-05-09 15:07:22.248,2,0.7,-0.39,1.58,80.56899999999999,203.99880000000002,-94.6772,175,75
2026-05-09 15:07:22.248,2,0.67,-0.41,1.49,120.56899999999999,145.5788,-125.15719999999999,175,75
2026-05-09 15:07:22.364,2,1.07,-1.21,1.19,118.309,-18.5012,-87.0472,175,75
2026-05-09 15:07:22.364,2,1.44,0.74,-0.67,107.829,-257.0412,-46.6872,175,75
2026-05-09 15:07:22.365,2,1.48,0.31,-0.23,118.859,-281.3712,-34.3672,175,75
2026-05-09 15:07:22.365,2,0.75,-0.79,-1.06,108.309,-100.8212,-24.4872,175,75
2026-05-09 15:07:22.365,2,0.93,-0.92,-1.36,97.76899999999999,-49.1712,-12.107199999999999,175,75
2026-05-09 15:07:22.365,2,0.66,-0.71,-1.36,106.17899999999999,8.6288,10.2628,175,75
2026-05-09 15:07:22.443,2,0.5,-0.73,-0.81,103.309,126.0088,27.8928,175,75
2026-05-09 15:07:22.444,2,1.33,-0.91,-0.27,63.919000000000004,156.0088,14.4128,175,75
2026-05-09 15:07:22.444,2,1.82,-0.94,-0.24,33.309,49.428799999999995,1.7927999999999997,175,75
2026-05-09 15:07:22.444,2,2.02,-0.84,-0.4,10.269,-152.22119999999998,-8.757200000000001,175,75
2026-05-09 15:07:22.546,2,1.55,-0.83,-0.84,32.769,-350.0312,-9.857199999999999,175,75
2026-05-09 15:07:22.546,2,1.44,-0.94,-0.5,29.959000000000003,246.73880000000003,22.4628,175,75
2026-05-09 15:07:22.546,2,1.6,-0.91,-0.42,23.979,188.74880000000002,22.1528,175,75
2026-05-09 15:07:22.572,2,1.45,-0.91,-0.32,9.408999999999999,63.3288,36.9728,175,75
2026-05-09 15:07:22.647,2,1.44,-1.12,0.02,1.7889999999999997,120.94879999999999,41.4828,175,75
2026-05-09 15:07:22.967,2,1.53,-1.15,0.13,0.19899999999999984,123.38879999999999,39.412800000000004,175,75
2026-05-09 15:07:22.967,2,1.61,-1.15,0.19,-0.2809999999999997,106.3188,37.952799999999996,175,75
2026-05-09 15:07:22.967,2,1.7,-1.15,0.25,1.0590000000000002,73.5088,32.1528,175,75
2026-05-09 15:07:22.968,2,2.0,-1.77,0.33,0.569,-80.1512,40.3928,175,75
2026-05-09 15:07:22.968,2,1.93,-1.43,0.09,7.339,-117.4012,-21.627200000000002,175,75
2026-05-09 15:07:22.968,2,2.21,-0.69,-0.15,32.339,-47.9512,-3.9372000000000007,175,75
2026-05-09 15:07:22.968,2,2.17,-1.01,-0.08,29.659,6.7988,-5.527200000000001,175,75
2026-05-09 15:07:22.968,2,1.6,-1.01,-0.16,26.789,54.9088,-121.62719999999999,175,75
2026-05-09 15:07:22.968,2,2.05,-1.3,0.57,46.179,43.6288,-86.9272,175,75
2026-05-09 15:07:22.981,2,1.6,-1.31,0.68,33.129,-138.9312,-108.2672,175,75
2026-05-09 15:07:22.988,2,1.52,-1.19,0.58,12.699,-159.8412,-117.3572,175,75
2026-05-09 15:07:23.060,2,1.51,-1.11,0.51,0.6289999999999996,-140.0912,-109.12719999999999,175,75
2026-05-09 15:07:23.060,2,1.48,-1.15,0.48,6.609,-110.1512,-100.6472,175,75
2026-05-09 15:07:23.060,2,1.43,-1.22,0.5,18.499000000000002,-90.5112,-97.53720000000001,175,75
2026-05-09 15:07:23.060,2,1.28,-1.05,0.61,16.849,-105.1512,-124.4272,175,75
2026-05-09 15:07:23.103,2,1.07,-1.07,0.54,-6.991,23.818799999999996,-116.9272,175,75
2026-05-09 15:07:23.121,2,0.96,-0.75,0.49,-8.701,53.388799999999996,-107.41720000000001,175,75
2026-05-09 15:07:23.137,2,1.04,-0.66,0.43,-8.521,59.4888,-102.96719999999999,175,75
2026-05-09 15:07:23.170,2,1.41,-0.53,0.12,-28.641,113.2088,-81.9872,175,75
2026-05-09 15:07:23.173,2,1.55,-0.55,0.17,-31.080999999999996,263.2688,-67.1072,175,75
2026-05-09 15:07:23.224,2,2.48,-0.31,0.49,4.1690000000000005,221.67880000000002,-58.757200000000005,175,75
2026-05-09 15:07:23.236,2,2.72,-0.19,0.52,16.789,205.5788,-60.2172,175,75
2026-05-09 15:07:23.274,2,2.72,-0.47,0.41,70.449,-31.5512,-100.6472,175,75
2026-05-09 15:07:23.290,2,2.54,-0.78,0.37,91.419,-59.6012,-120.28719999999998,175,75
2026-05-09 15:07:23.299,2,2.33,-0.73,0.29,91.119,-44.361200000000004,-153.1472,175,75
2026-05-09 15:07:23.322,2,2.32,-0.6,0.28,78.979,-39.9012,-160.03719999999998,175,75
2026-05-09 15:07:23.332,2,2.31,-0.6,0.32,69.169,-38.1412,-159.6772,175,75
2026-05-09 15:07:23.341,2,2.19,-0.7,0.38,68.009,-33.5612,-156.6272,175,75
2026-05-09 15:07:23.388,2,1.63,-0.6,0.87,126.119,112.0488,-143.8772,175,75
2026-05-09 15:07:23.399,2,1.7,-0.75,1.25,149.28900000000002,82.22879999999999,-150.88719999999998,175,75
2026-05-09 15:07:23.416,2,1.65,-0.94,1.41,155.199,26.068799999999996,-149.4872,175,75
2026-05-09 15:07:23.440,2,1.22,-1.31,1.48,156.78900000000002,-75.4512,-132.1772,175,75
2026-05-09 15:07:23.514,2,1.13,-0.88,1.31,171.419,17.8388,-147.9072,175,75
2026-05-09 15:07:23.520,2,1.18,-0.92,1.37,181.419,83.3288,-135.7072,175,75
2026-05-09 15:07:23.534,2,1.13,-1.16,1.54,206.119,161.1288,-119.8572,175,75
2026-05-09 15:07:23.547,2,0.91,-1.55,1.91,260.689,227.0488,-106.0772,175,75
2026-05-09 15:07:23.566,2,0.86,-1.69,2.09,291.669,219.23880000000003,-95.9572,175,75
2026-05-09 15:07:23.597,2,1.0,-1.9,2.38,318.55899999999997,88.5688,-138.0272,175,75
2026-05-09 15:07:23.614,2,1.3,-2.01,2.25,307.399,45.2788,-126.25719999999998,175,75
2026-05-09 15:07:23.629,2,1.43,-2.05,1.98,309.959,42.3488,-80.40719999999999,175,75
2026-05-09 15:07:23.649,2,0.88,-1.99,1.73,344.659,57.4088,-53.20719999999999,175,75
2026-05-09 15:07:23.673,2,0.65,-2.61,1.92,381.729,35.0988,-86.9872,175,75
2026-05-09 15:07:23.700,2,3.11,-3.13,2.58,440.56899999999996,234.5488,-177.1772,175,75
2026-05-09 15:07:23.729,2,1.69,-2.48,1.56,360.99899999999997,-19.7812,-49.127199999999995,175,75
2026-05-09 15:07:23.753,2,2.08,-3.53,1.62,498.859,116.1888,16.7328,175,75
2026-05-09 15:07:23.753,2,2.6,-3.78,2.02,514.839,40.2788,27.8228,175,75
2026-05-09 15:07:23.786,2,2.95,-4.23,2.1,501.669,-92.6512,28.312800000000003,175,75
2026-05-09 15:07:23.786,2,2.99,-4.55,1.94,488.18899999999996,-205.2112,1.1227999999999998,175,75
2026-05-09 15:07:23.798,2,3.19,-4.93,1.4,470.80899999999997,-278.2612,-43.9972,175,75
2026-05-09 15:07:23.824,2,3.13,-5.56,-0.22,489.529,-163.1412,-197.47719999999998,175,75
2026-05-09 15:07:23.855,2,3.08,-5.67,-0.49,534.779,-83.6212,-224.7972,175,75
2026-05-09 15:07:23.922,2,3.7,-6.08,-0.35,558.499,-165.88119999999998,-332.1772,175,75
2026-05-09 15:07:23.961,2,2.0,-5.95,-1.94,407.579,-156.00119999999998,-609.7972,175,75
2026-05-09 15:07:24.033,2,1.06,-3.77,-1.03,308.739,48.0788,-576.9272,175,75
2026-05-09 15:07:24.033,2,0.98,-3.49,-0.93,297.219,37.2288,-557.7172,175,75
2026-05-09 15:07:24.035,2,0.82,-3.24,-0.89,281.609,22.598799999999997,-542.1072,175,75
2026-05-09 15:07:24.050,2,0.54,-2.72,-0.74,252.769,54.6688,-524.6072,175,75
2026-05-09 15:07:24.061,2,0.61,-2.47,-0.69,241.419,61.2488,-507.17719999999997,175,75
2026-05-09 15:07:24.085,2,0.6,-1.81,-0.29,212.399,89.1788,-432.29720000000003,175,75
2026-05-09 15:07:24.128,2,-0.0,-1.04,0.08,154.71900000000002,213.5088,-336.2572,175,75
2026-05-09 15:07:24.140,2,0.01,-0.83,0.18,168.619,245.02880000000002,-315.7072,175,75
2026-05-09 15:07:24.162,2,0.2,-0.49,0.54,202.15900000000002,295.3988,-264.91720000000004,175,75
2026-05-09 15:07:24.193,2,0.25,-0.39,0.65,198.18900000000002,289.2388,-240.0972,175,75
2026-05-09 15:07:24.207,2,0.21,-0.28,0.78,162.089,249.9688,-217.47719999999998,175,75
2026-05-09 15:07:24.233,2,0.12,-0.24,0.83,136.609,229.96880000000002,-216.13719999999998,175,75
2026-05-09 15:07:24.248,2,0.1,-0.2,0.83,119.469,217.0488,-216.0172,175,75
2026-05-09 15:07:24.282,2,0.16,-0.15,0.83,111.609,199.2988,-213.63719999999998,175,75
2026-05-09 15:07:24.310,2,0.48,0.11,0.81,118.979,169.8488,-149.3072,175,75
2026-05-09 15:07:24.346,2,0.48,0.16,0.98,59.719,288.5088,-12.8472,175,75
2026-05-09 15:07:24.381,2,0.41,0.2,0.95,21.789,284.78880000000004,42.4628,175,75
2026-05-09 15:07:24.391,2,0.93,0.16,0.89,-64.061,258.2688,252.7628,175,75
2026-05-09 15:07:24.402,2,1.23,-0.09,0.89,-145.471,187.83880000000002,399.71279999999996,175,75
2026-05-09 15:07:24.402,2,1.71,-0.3,0.82,-171.93099999999998,141.67880000000002,475.8128,175,75
2026-05-09 15:07:24.425,2,1.28,-1.37,0.6,-198.881,11.248800000000001,418.9228,175,75
2026-05-09 15:07:24.432,2,2.08,-1.84,0.31,-214.49099999999999,-44.9012,464.84279999999995,175,75
2026-05-09 15:07:24.439,2,2.3,-2.16,0.0,-220.101,-168.38119999999998,482.40279999999996,175,75
2026-05-09 15:07:24.451,2,1.63,-2.51,-0.56,-190.041,-344.4212,543.6228,175,75
2026-05-09 15:07:24.518,2,1.17,-3.86,-1.97,-174.12099999999998,-136.31119999999999,570.6328,175,75
2026-05-09 15:07:24.536,2,1.52,-4.52,-2.37,-188.821,-110.3312,565.3228,175,75
2026-05-09 15:07:24.559,2,2.07,-5.05,-2.68,-162.301,-152.10119999999998,577.0928,175,75
2026-05-09 15:07:24.565,2,2.18,-4.79,-2.65,-166.381,-161.9812,571.2428,175,75
2026-05-09 15:07:24.576,2,1.96,-4.4,-2.65,-190.471,-120.9412,565.2628,175,75
2026-05-09 15:07:24.576,2,1.21,-4.08,-2.73,-230.221,0.6387999999999998,554.7828,175,75
2026-05-09 15:07:24.599,2,0.37,-3.76,-2.67,-274.981,180.02880000000002,498.9228,175,75
2026-05-09 15:07:24.616,2,0.14,-3.57,-2.36,-286.261,362.22880000000004,395.5728,175,75
2026-05-09 15:07:24.721,2,1.08,-1.77,0.78,-302.721,287.6588,-111.8072,175,75
2026-05-09 15:07:24.757,2,1.03,-0.9,1.97,-28.391,513.5688,-72.71719999999999,175,75
2026-05-09 15:07:24.771,2,0.66,-0.78,2.14,5.939,488.2088,-74.3072,175,75
2026-05-09 15:07:24.812,2,0.04,-0.28,2.35,141.239,261.9288,-250.88719999999998,175,75
2026-05-09 15:07:24.812,2,0.11,-0.29,2.37,151.549,244.3588,-282.04720000000003,175,75
2026-05-09 15:07:24.824,2,1.46,-0.34,2.59,150.68900000000002,229.17880000000002,-164.1272,175,75
2026-05-09 15:07:24.839,2,0.79,0.1,2.16,164.229,46.068799999999996,35.2628,175,75
2026-05-09 15:07:24.892,2,0.73,-2.18,1.86,236.179,81.1288,-59.367200000000004,175,75
2026-05-09 15:07:24.956,2,2.36,-2.08,1.96,308.24899999999997,319.2988,182.3428,175,75
2026-05-09 15:07:24.998,2,2.48,-2.89,2.73,320.329,-37.6512,154.5328,175,75
2026-05-09 15:07:25.008,2,2.38,-3.27,2.59,316.239,-122.4012,116.7328,175,75
2026-05-09 15:07:25.014,2,2.48,-3.38,2.29,318.00899999999996,-175.03119999999998,89.0428,175,75
2026-05-09 15:07:25.041,2,2.65,-3.23,1.71,336.609,-172.7712,81.4828,175,75
2026-05-09 15:07:25.177,2,2.62,-3.49,0.33,494.959,-248.56119999999999,-143.4572,175,75
2026-05-09 15:07:25.207,2,2.22,-3.79,0.28,504.659,-96.1212,-230.7072,175,75
2026-05-09 15:07:25.207,2,2.31,-3.85,0.25,500.269,-64.7812,-247.3572,175,75
2026-05-09 15:07:25.296,2,1.21,-1.96,-0.31,427.029,26.6188,-273.0272,175,75
2026-05-09 15:07:25.326,2,0.97,-1.07,-0.29,376.239,75.2188,-228.75719999999998,175,75
2026-05-09 15:07:25.430,2,0.4,-0.29,-0.31,274.409,0.7688000000000006,-105.5272,175,75
2026-05-09 15:07:25.430,2,0.36,-0.35,-0.23,220.50900000000001,48.568799999999996,-98.3872,175,75
2026-05-09 15:07:25.452,2,0.69,-0.47,-0.13,79.469,144.3588,-83.93719999999999,175,75
2026-05-09 15:07:25.464,2,0.9,-0.56,-0.09,42.699000000000005,73.5688,-59.9772,175,75
2026-05-09 15:07:25.488,2,0.94,-0.58,-0.06,37.829,14.298800000000002,-51.627199999999995,175,75
2026-05-09 15:07:25.488,2,0.77,-0.53,0.02,39.349000000000004,-25.821199999999997,-43.9972,175,75
2026-05-09 15:07:25.517,2,0.28,-0.21,0.15,-29.120999999999995,79.6688,8.5628,175,75
2026-05-09 15:07:25.563,2,0.63,-0.26,0.55,-96.811,235.6388,92.52279999999999,175,75
2026-05-09 15:07:25.652,2,1.17,-1.02,0.98,-277.171,36.1288,272.8228,175,75
2026-05-09 15:07:25.655,2,1.28,-1.31,1.0,-289.731,2.838800000000001,290.7528,175,75
2026-05-09 15:07:25.681,2,1.46,-1.92,0.72,-291.99100000000004,-21.3112,348.4328,175,75
2026-05-09 15:07:25.715,2,1.3,-2.38,0.41,-289.00100000000003,-117.9512,495.39279999999997,175,75
2026-05-09 15:07:25.734,2,1.01,-2.6,0.29,-301.321,-143.44119999999998,522.9528,175,75
2026-05-09 15:07:25.761,2,1.08,-4.05,-0.65,-339.31100000000004,-114.9012,524.5928,175,75
2026-05-09 15:07:25.829,2,1.11,-5.0,-0.79,-337.05100000000004,260.7088,658.6228,175,75
2026-05-09 15:07:25.840,2,0.95,-5.79,0.31,-270.891,265.5788,520.2628,175,75
2026-05-09 15:07:25.892,2,2.21,-4.08,0.73,-273.761,96.4988,314.4728,175,75
2026-05-09 15:07:25.904,2,2.3,-3.86,0.7,-257.661,73.3888,280.51279999999997,175,75
2026-05-09 15:07:25.904,2,2.5,-3.53,0.65,-256.081,84.2388,265.0828,175,75
2026-05-09 15:07:25.940,2,2.26,-3.17,0.6,-259.55100000000004,151.7988,271.5428,175,75
2026-05-09 15:07:26.041,2,1.73,-0.37,2.03,-182.601,313.9988,-126.56719999999999,175,75
2026-05-09 15:07:26.173,2,1.1,-0.52,1.92,159.049,265.9488,-6.497199999999999,175,75
2026-05-09 15:07:26.201,2,1.61,-0.97,1.87,209.779,321.4988,51.9128,175,75
2026-05-09 15:07:26.227,2,1.94,-1.18,1.89,227.459,124.8488,59.6528,175,75
2026-05-09 15:07:26.334,2,2.17,-1.77,1.63,273.43899999999996,-174.60119999999998,48.7428,175,75
2026-05-09 15:07:26.360,2,2.27,-1.83,1.46,278.00899999999996,-196.4912,27.3428,175,75
2026-05-09 15:07:26.399,2,2.2,-1.81,0.81,329.289,-95.27120000000001,-52.7172,175,75
2026-05-09 15:07:26.470,2,2.24,-1.75,0.64,338.24899999999997,-249.60119999999998,-118.4572,175,75
2026-05-09 15:07:26.483,2,2.15,-1.72,0.57,336.549,-270.4512,-130.0972,175,75
2026-05-09 15:07:26.499,2,1.86,-1.69,0.43,327.219,-265.7012,-163.8772,175,75
2026-05-09 15:07:26.515,2,1.84,-1.67,0.3,316.609,-235.7012,-181.4372,175,75
2026-05-09 15:07:26.529,2,1.83,-1.51,0.07,297.029,-157.7712,-200.8272,175,75
2026-05-09 15:07:26.574,2,1.7,-1.29,0.09,279.589,-18.7512,-224.7972,175,75
2026-05-09 15:07:26.576,2,1.64,-1.22,0.16,270.269,-7.6512,-226.0772,175,75
2026-05-09 15:07:26.621,2,1.54,-0.85,0.21,246.84900000000002,-11.671199999999999,-225.6472,175,75
2026-05-09 15:07:26.654,2,1.38,-0.62,0.16,240.50900000000001,-5.3312,-212.8472,175,75
2026-05-09 15:07:26.684,2,1.13,-0.27,0.07,211.669,49.0588,-176.19719999999998,175,75
2026-05-09 15:07:26.736,2,1.07,-0.15,0.34,152.279,86.4988,-109.7372,175,75
2026-05-09 15:07:26.797,2,0.91,-0.13,0.39,127.51899999999999,71.1288,-86.37719999999999,175,75
2026-05-09 15:07:26.808,2,0.42,-0.16,0.47,103.67899999999999,148.2688,-61.4372,175,75
2026-05-09 15:07:26.912,2,0.25,-1.18,0.48,-223.761,57.6588,447.28279999999995,175,75
2026-05-09 15:07:26.919,2,0.68,-1.72,0.34,-231.691,49.2388,379.84279999999995,175,75
2026-05-09 15:07:26.936,2,0.16,-1.96,0.12,-224.731,18.138800000000003,331.9128,175,75
2026-05-09 15:07:26.959,2,0.99,-2.73,0.1,-207.301,-45.5112,339.1728,175,75
2026-05-09 15:07:26.973,2,1.15,-2.96,-0.02,-245.59099999999998,-81.0012,431.4828,175,75
2026-05-09 15:07:27.018,2,0.73,-3.61,-0.49,-329.00100000000003,2.4688,528.3127999999999,175,75
2026-05-09 15:07:27.042,2,0.6,-5.0,-1.19,-432.481,32.6588,517.7028,175,75
2026-05-09 15:07:27.066,2,1.29,-6.44,-1.05,-345.101,160.5788,663.8027999999999,175,75
2026-05-09 15:07:27.095,2,1.19,-6.72,-1.14,-376.261,127.5988,630.3228,175,75
2026-05-09 15:07:27.172,2,1.89,-4.83,0.81,-337.231,397.5288,247.7028,175,75
2026-05-09 15:07:27.178,2,1.83,-4.09,1.21,-322.36100000000005,415.7688,210.6328,175,75
2026-05-09 15:07:27.203,2,1.87,-3.13,1.53,-266.38100000000003,344.66880000000003,123.43280000000001,175,75
2026-05-09 15:07:27.216,2,1.83,-2.78,1.69,-250.53099999999998,272.6588,74.1728,175,75
2026-05-09 15:07:27.258,2,1.71,-2.05,2.03,-246.87099999999998,255.8288,10.392800000000001,175,75
2026-05-09 15:07:27.284,2,0.71,-0.46,3.06,-175.771,316.2488,-205.0972,175,75
2026-05-09 15:07:27.293,2,0.82,-0.58,3.16,-133.821,226.73880000000003,-240.52719999999997,175,75
2026-05-09 15:07:27.329,2,1.12,-0.37,3.13,-51.620999999999995,156.67880000000002,-223.0272,175,75
2026-05-09 15:07:27.418,2,0.88,-0.22,2.21,130.689,162.4088,23.0128,175,75
2026-05-09 15:07:27.520,2,2.16,-1.54,0.96,254.839,28.138799999999996,-7.597200000000001,175,75
2026-05-09 15:07:27.568,2,2.75,-1.94,1.32,296.479,-1.0612000000000004,22.2828,175,75
2026-05-09 15:07:27.580,2,3.06,-2.3,1.38,292.94899999999996,-68.99119999999999,-10.4072,175,75
2026-05-09 15:07:27.580,2,3.28,-2.75,1.2,294.109,-129.1712,-52.3572,175,75
2026-05-09 15:07:27.671,2,3.24,-3.06,-1.03,261.729,-179.72119999999998,-345.7072,175,75
2026-05-09 15:07:27.671,2,3.18,-2.97,-1.19,228.06900000000002,-191.79119999999998,-370.7072,175,75
2026-05-09 15:07:27.690,2,2.62,-2.75,-1.45,182.769,-180.3912,-410.40720000000005,175,75
2026-05-09 15:07:27.709,2,2.08,-2.55,-1.5,176.119,-92.2812,-426.6272,175,75
2026-05-09 15:07:27.709,2,1.86,-2.39,-1.42,177.579,-9.4812,-430.9572,175,75
2026-05-09 15:07:27.731,2,1.78,-2.13,-1.07,190.93900000000002,93.5688,-423.4572,175,75
2026-05-09 15:07:27.757,2,1.67,-1.82,-0.29,220.749,131.3788,-390.40720000000005,175,75
2026-05-09 15:07:27.761,2,1.58,-1.71,-0.15,220.079,112.0488,-379.3672,175,75
2026-05-09 15:07:27.794,2,1.47,-1.53,-0.04,216.96900000000002,86.3788,-360.7072,175,75
2026-05-09 15:07:27.813,2,1.2,-1.2,0.04,205.999,61.7988,-325.9572,175,75
2026-05-09 15:07:27.813,2,0.85,-0.95,-0.03,203.679,66.8588,-303.3272,175,75
2026-05-09 15:07:27.849,2,0.74,-0.65,0.23,214.229,168.74880000000002,-272.65720000000005,175,75
2026-05-09 15:07:27.872,2,0.73,-0.52,0.36,217.579,163.2688,-228.63719999999998,175,75
2026-05-09 15:07:27.926,2,0.54,-0.42,0.29,215.56900000000002,-23.261200000000002,-180.2172,175,75
2026-05-09 15:07:27.939,2,0.45,-0.47,0.25,204.28900000000002,-36.6112,-161.8072,175,75
2026-05-09 15:07:27.939,2,0.3,-0.5,0.23,175.62900000000002,-27.2812,-153.38719999999998,175,75
2026-05-09 15:07:27.953,2,0.24,-0.48,0.25,142.029,13.0188,-154.4872,175,75
2026-05-09 15:07:27.987,2,0.47,-0.25,0.36,109.779,152.2888,-121.9272,175,75
2026-05-09 15:07:28.116,2,0.23,-0.01,0.51,51.059000000000005,34.9088,41.2428,175,75
2026-05-09 15:07:28.201,2,0.54,-0.22,0.46,-49.190999999999995,238.20880000000002,292.15279999999996,175,75
2026-05-09 15:07:28.210,2,0.8,-0.53,0.54,-94.611,246.18880000000001,346.2428,175,75
2026-05-09 15:07:28.210,2,0.91,-0.78,0.69,-112.361,250.5188,348.0728,175,75
2026-05-09 15:07:28.236,2,1.51,-1.83,0.71,-198.581,246.67880000000002,406.5428,175,75
2026-05-09 15:07:28.514,2,1.91,-3.02,1.16,-270.711,220.27880000000002,53.0128,175,75
2026-05-09 15:07:28.514,2,1.66,-2.7,1.24,-276.321,232.95880000000002,31.6128,175,75
2026-05-09 15:07:28.526,2,1.32,-2.33,1.31,-277.30100000000004,286.3188,19.172800000000002,175,75
2026-05-09 15:07:28.581,2,1.08,-2.0,1.4,-268.091,361.4988,0.8727999999999998,175,75
2026-05-09 15:07:28.597,2,1.29,-0.62,3.07,-178.581,364.2388,-98.2072,175,75
2026-05-09 15:07:28.642,2,0.87,-0.61,3.22,-133.09099999999998,161.0088,-195.4672,175,75
2026-05-09 15:07:28.650,2,0.75,-0.48,3.28,-91.62100000000001,52.8988,-230.4672,175,75
2026-05-09 15:07:28.718,2,0.91,-0.39,3.06,151.059,129.3588,-13.267199999999999,175,75
2026-05-09 15:07:28.722,2,1.1,-0.66,3.08,178.37900000000002,90.3988,6.1828,175,75
2026-05-09 15:07:28.737,2,1.3,-1.33,2.93,200.329,-35.3912,95.4528,175,75
2026-05-09 15:07:28.746,2,1.35,-1.45,2.76,209.46900000000002,-59.8412,150.02280000000002,175,75
2026-05-09 15:07:28.775,2,1.73,-1.61,2.62,232.15900000000002,-104.9712,227.46280000000002,175,75
2026-05-09 15:07:28.775,2,0.58,-2.77,2.22,287.029,126.1288,-32.477199999999996,175,75
2026-05-09 15:07:28.783,2,3.18,-2.46,1.95,323.919,97.7188,-45.0372,175,75
2026-05-09 15:07:28.802,2,2.1,-2.14,2.47,393.61899999999997,-120.5712,33.4328,175,75
2026-05-09 15:07:28.872,2,2.09,-3.38,1.43,431.609,-231.79119999999998,-22.7872,175,75
2026-05-09 15:07:28.943,2,2.09,-3.25,1.22,421.849,-274.4812,-101.56719999999999,175,75
2026-05-09 15:07:28.963,2,1.92,-3.59,0.76,407.339,-223.81119999999999,-181.6872,175,75
2026-05-09 15:07:29.067,2,1.64,-3.16,0.58,371.179,-20.2712,-222.8472,175,75
2026-05-09 15:07:29.067,2,1.68,-2.91,0.62,366.789,-4.5412,-219.97719999999998,175,75
2026-05-09 15:07:29.146,2,1.29,-1.86,0.57,347.399,-13.6212,-195.0972,175,75
2026-05-09 15:07:29.146,2,1.22,-1.65,0.54,339.049,-10.4512,-189.4872,175,75
2026-05-09 15:07:29.157,2,1.15,-1.45,0.52,330.269,-4.2912,-185.5872,175,75
2026-05-09 15:07:29.163,2,1.18,-0.99,0.53,312.94899999999996,28.0188,-159.06719999999999,175,75
2026-05-09 15:07:29.174,2,1.15,-0.86,0.52,310.68899999999996,44.2388,-137.1072,175,75
2026-05-09 15:07:29.208,2,0.96,-0.59,0.5,324.719,62.168800000000005,-91.8072,175,75
2026-05-09 15:07:29.233,2,0.85,-0.47,0.52,309.779,28.748799999999996,-75.21719999999999,175,75
2026-05-09 15:07:29.284,2,0.84,-0.34,0.12,72.579,-141.9212,49.0428,175,75
2026-05-09 15:07:29.284,2,0.33,0.0,0.16,70.01899999999999,-158.9312,8.982800000000001,175,75
2026-05-09 15:07:29.327,2,0.34,-0.36,-0.02,30.448999999999998,251.98880000000003,92.40280000000001,175,75
2026-05-09 15:07:29.348,2,1.42,-1.0,0.59,-68.271,123.7488,116.7328,175,75
2026-05-09 15:07:29.389,2,1.88,-1.19,-0.03,-186.56099999999998,-290.27119999999996,168.43280000000001,175,75
2026-05-09 15:07:29.442,2,1.31,-2.18,-1.8,-359.671,-296.8612,269.3528,175,75
2026-05-09 15:07:29.526,2,2.2,-2.7,-3.0,-418.091,-45.641200000000005,279.84279999999995,175,75
2026-05-09 15:07:29.536,2,2.65,-2.76,-3.14,-429.37100000000004,74.0588,296.8528,175,75
2026-05-09 15:07:29.536,2,3.17,-3.26,-2.92,-468.091,291.4388,284.4728,175,75
2026-05-09 15:07:29.553,2,4.04,-3.94,-2.22,-515.161,457.4688,214.2928,175,75
2026-05-09 15:07:29.571,2,4.66,-4.41,-1.26,-549.371,509.7888,107.7028,175,75
2026-05-09 15:07:29.630,2,4.12,-3.57,2.52,-437.05100000000004,387.5288,-415.03720000000004,175,75
2026-05-09 15:07:29.638,2,3.15,-2.63,2.9,-358.521,540.9488,-467.96720000000005,175,75
2026-05-09 15:07:29.807,2,-0.55,-0.07,0.85,11.669,393.6888,-184.5472,175,75
2026-05-09 15:07:29.848,2,-0.47,-0.21,0.89,-9.610999999999999,-4.2312,-136.4972,175,75
2026-05-09 15:07:29.862,2,-0.81,-0.21,0.53,-46.620999999999995,-64.9712,-91.62719999999999,175,75
2026-05-09 15:07:29.879,2,-0.91,-0.15,0.4,-50.221,-19.4212,-71.19720000000001,175,75
2026-05-09 15:07:29.900,2,-0.65,-0.25,0.62,-42.050999999999995,217.89880000000002,-20.587200000000003,175,75
2026-05-09 15:07:29.911,2,-0.54,-0.38,0.84,-40.891,262.6588,-6.807199999999998,175,75
2026-05-09 15:07:29.943,2,-0.06,-0.48,1.31,-48.821,180.1588,30.6928,175,75
2026-05-09 15:07:29.954,2,0.12,-0.36,1.26,-52.421,119.42880000000001,58.1328,175,75
2026-05-09 15:07:29.980,2,0.02,-0.45,1.23,-60.10099999999999,158.4488,83.50280000000001,175,75
2026-05-09 15:07:29.980,2,0.14,-0.43,1.27,-64.37100000000001,175.45880000000002,98.43280000000001,175,75
2026-05-09 15:07:29.980,2,0.25,-0.42,1.36,-69.12100000000001,178.5688,109.3528,175,75
2026-05-09 15:07:29.990,2,0.35,-0.45,1.49,-74.98100000000001,193.8788,122.09280000000001,175,75
2026-05-09 15:07:30.000,2,0.33,-0.48,1.51,-80.101,211.92880000000002,137.8228,175,75
2026-05-09 15:07:30.042,2,0.14,-0.59,1.47,-71.32100000000001,216.55880000000002,143.0728,175,75
2026-05-09 15:07:30.068,2,-0.58,-1.28,2.67,-32.601,334.2988,154.4128,175,75
2026-05-09 15:07:30.079,2,1.34,-0.14,2.48,-64.37100000000001,481.1288,271.0628,175,75
2026-05-09 15:07:30.079,2,1.54,1.11,1.82,-90.471,191.73880000000003,287.95279999999997,175,75
2026-05-09 15:07:30.106,2,0.46,0.54,2.33,-92.23100000000001,-35.8212,270.5728,175,75
2026-05-09 15:07:30.135,2,0.49,-0.08,2.45,-116.501,-13.261199999999999,311.9728,175,75
2026-05-09 15:07:30.149,2,0.97,-0.22,2.19,-108.391,39.178799999999995,379.0428,175,75
2026-05-09 15:07:30.160,2,1.21,-0.37,2.33,-90.711,90.8888,371.1828,175,75
2026-05-09 15:07:30.171,2,0.86,-0.45,2.21,-64.73100000000001,181.55880000000002,374.3528,175,75
2026-05-09 15:07:30.197,2,0.64,-0.43,2.12,-56.440999999999995,183.5088,378.8628,175,75
2026-05-09 15:07:30.240,2,1.06,-0.16,3.53,-43.881,24.2988,317.76279999999997,175,75
2026-05-09 15:07:30.293,2,1.96,-0.1,3.71,4.839,-94.6012,308.5028,175,75
2026-05-09 15:07:30.293,2,1.86,-0.15,3.51,32.949,-103.0112,308.2528,175,75
2026-05-09 15:07:30.312,2,1.84,-0.28,3.44,120.509,-89.05120000000001,292.64279999999997,175,75
2026-05-09 15:07:30.326,2,2.21,-0.51,3.11,196.90900000000002,-137.10119999999998,292.76279999999997,175,75
2026-05-09 15:07:30.366,2,2.31,-0.54,2.32,310.50899999999996,-220.88119999999998,162.58280000000002,175,75
2026-05-09 15:07:30.395,2,1.98,-0.2,1.69,351.549,-223.8712,121.7928,175,75
2026-05-09 15:07:30.401,2,2.26,-0.16,1.42,363.679,-286.5512,116.18280000000001,175,75
2026-05-09 15:07:30.445,2,2.18,-0.16,0.46,355.50899999999996,-509.0512,23.5028,175,75
2026-05-09 15:07:30.446,2,1.98,-0.19,0.18,331.239,-528.2012000000001,-1.6271999999999984,175,75
2026-05-09 15:07:30.446,2,1.55,-0.18,-0.15,307.94899999999996,-483.4412,-8.267199999999999,175,75
2026-05-09 15:07:30.457,2,0.91,-0.21,-0.42,285.019,-349.0512,-24.4272,175,75
2026-05-09 15:07:30.471,2,0.83,-0.27,-0.7,272.279,-203.9312,-33.3272,175,75
2026-05-09 15:07:30.471,2,1.11,-0.47,-1.05,205.809,-100.2112,-40.8872,175,75
2026-05-09 15:07:30.482,2,0.86,-0.55,-0.95,151.179,-103.8112,-51.8072,175,75
2026-05-09 15:07:30.492,2,0.59,-0.4,-0.79,72.219,42.4088,-53.81719999999999,175,75
2026-05-09 15:07:30.509,2,0.68,-0.34,-0.58,51.419000000000004,103.3888,-46.8672,175,75
2026-05-09 15:07:30.522,2,0.7,-0.33,-0.37,38.679,126.92880000000001,-41.9272,175,75
2026-05-09 15:07:30.528,2,0.7,-0.33,-0.14,18.979,148.20880000000002,-36.6872,175,75
2026-05-09 15:07:30.554,2,0.73,-0.35,0.11,-11.321,164.48880000000003,-30.2172,175,75
2026-05-09 15:07:30.554,2,0.81,-0.39,0.28,-41.811,166.49880000000002,-22.657199999999996,175,75
2026-05-09 15:07:30.587,2,0.92,-0.43,0.44,-84.98100000000001,109.2988,-20.2172,175,75
2026-05-09 15:07:30.603,2,0.91,-0.38,0.5,-95.471,64.1188,-23.697200000000002,175,75
2026-05-09 15:07:30.614,2,0.83,-0.25,0.66,-114.37100000000001,-8.0712,-20.3472,175,75
2026-05-09 15:07:30.642,2,0.85,-0.2,0.71,-126.081,-19.2312,-13.4572,175,75
2026-05-09 15:07:30.656,2,0.9,-0.17,0.73,-142.111,-32.0412,-2.4772,175,75
2026-05-09 15:07:30.656,2,0.95,-0.15,0.71,-155.771,-53.681200000000004,7.6428,175,75
2026-05-09 15:07:30.670,2,1.01,-0.11,0.66,-163.761,-89.2912,18.3728,175,75
2026-05-09 15:07:30.701,2,1.06,0.02,0.6,-165.53099999999998,-145.03119999999998,35.022800000000004,175,75
2026-05-09 15:07:30.785,2,1.06,-0.06,0.61,-207.361,-5.8812,127.8928,175,75
2026-05-09 15:07:30.810,2,1.07,-0.21,0.6,-225.041,-31.251199999999997,143.5028,175,75
2026-05-09 15:07:30.836,2,1.0,-0.78,0.76,-305.411,90.2788,191.0028,175,75
2026-05-09 15:07:30.849,2,0.98,-0.91,0.84,-330.341,153.93880000000001,205.6328,175,75
2026-05-09 15:07:30.849,2,1.33,-1.23,1.05,-383.151,212.0488,191.4228,175,75
2026-05-09 15:07:30.861,2,1.75,-1.46,1.3,-410.221,198.4488,166.5428,175,75
2026-05-09 15:07:30.883,2,2.52,-1.98,1.74,-518.031,-146.1812,217.21280000000002,175,75
2026-05-09 15:07:30.895,2,2.2,-1.99,1.29,-539.371,-186.1212,200.6328,175,75
2026-05-09 15:07:30.911,2,2.47,-1.96,0.25,-573.9409999999999,-224.78119999999998,215.2628,175,75
2026-05-09 15:07:30.911,2,2.09,-2.2,0.03,-545.831,-40.7012,269.5928,175,75
2026-05-09 15:07:30.925,2,2.26,-3.12,0.1,-503.451,276.4388,228.43280000000001,175,75
2026-05-09 15:07:30.947,2,2.85,-4.11,1.33,-498.641,553.6288,110.6328,175,75
2026-05-09 15:07:30.947,2,2.57,-4.09,2.13,-492.781,697.6587999999999,34.1728,175,75
2026-05-09 15:07:30.981,2,2.01,-2.16,2.93,-421.021,-20.511200000000002,-48.4572,175,75
2026-05-09 15:07:30.996,2,2.25,-2.01,2.41,-433.031,6.248799999999999,-16.9272,175,75
2026-05-09 15:07:31.018,2,1.89,-1.94,1.88,-368.271,68.2088,4.412800000000001,175,75
2026-05-09 15:07:31.040,2,1.55,-2.03,1.88,-315.831,61.9888,-26.4972,175,75
2026-05-09 15:07:31.070,2,1.21,-1.9,1.71,-316.62100000000004,109.4288,-64.12719999999999,175,75
2026-05-09 15:07:31.090,2,1.08,-1.77,1.61,-310.651,163.1388,-71.8672,175,75
2026-05-09 15:07:31.090,2,0.88,-1.61,1.51,-294.31100000000004,258.1388,-86.9272,175,75
2026-05-09 15:07:31.104,2,0.74,-1.43,1.53,-269.49100000000004,374.4888,-103.1472,175,75
2026-05-09 15:07:31.131,2,0.64,-1.12,1.82,-205.59099999999998,526.6787999999999,-131.8072,175,75
2026-05-09 15:07:31.163,2,0.6,-0.64,1.91,-145.101,315.1588,-148.2072,175,75
2026-05-09 15:07:31.191,2,0.24,-0.05,1.95,-178.271,187.89880000000002,-161.31719999999999,175,75
2026-05-09 15:07:31.235,2,0.62,0.08,1.91,-63.21099999999999,69.72879999999999,-63.757200000000005,175,75
2026-05-09 15:07:31.281,2,1.0,-0.75,1.59,8.309,208.68880000000001,51.4828,175,75
2026-05-09 15:07:31.321,2,1.22,-0.85,2.12,50.689,118.3288,127.7028,175,75
2026-05-09 15:07:31.336,2,1.26,-1.0,2.09,35.019,54.4888,135.6928,175,75
2026-05-09 15:07:31.346,2,1.27,-1.09,1.87,37.339,9.9688,138.0128,175,75
2026-05-09 15:07:31.368,2,1.26,-0.94,1.46,77.45899999999999,6.6188,128.8628,175,75
2026-05-09 15:07:31.404,2,1.39,-0.5,1.5,114.65899999999999,130.45880000000002,115.6928,175,75
2026-05-09 15:07:31.496,2,1.77,-1.36,1.85,46.909,-19.1712,64.9628,175,75
2026-05-09 15:07:31.606,2,1.4,-1.59,1.67,54.529,0.9488000000000003,91.24279999999999,175,75
2026-05-09 15:07:31.639,2,1.69,-1.07,1.54,64.169,-31.9812,-22.1772,175,75
2026-05-09 15:07:31.668,2,1.47,-0.81,1.34,34.109,-32.8312,-52.2972,175,75
2026-05-09 15:07:31.692,2,1.48,-0.13,0.93,22.399,-46.251200000000004,-164.91719999999998,175,75
2026-05-09 15:07:31.705,2,1.72,0.03,0.9,24.959000000000003,-16.9812,-105.21719999999999,175,75
2026-05-09 15:07:31.717,2,1.4,0.03,1.0,16.119,40.638799999999996,-31.077199999999998,175,75
2026-05-09 15:07:31.753,2,1.12,-0.32,1.06,-17.841,60.1588,-76.9872,175,75
