Time,ID,Ax,Ay,Az,Gx,Gy,Gz,Height,Weight
2026-05-09 17:09:54.032,2,-0.26,-0.65,-0.26,-87.2244,-270.8174,50.6164,175,75
2026-05-09 17:09:54.060,2,-0.28,-0.76,-0.68,-118.8644,-105.14739999999999,58.6564,175,75
2026-05-09 17:09:54.071,2,-0.21,-0.85,-0.7,-135.7544,-7.767399999999995,58.8464,175,75
2026-05-09 17:09:54.071,2,-0.1,-0.99,-0.63,-153.86440000000002,87.53260000000002,56.0364,175,75
2026-05-09 17:09:54.081,2,0.03,-1.18,-0.45,-170.0244,160.4626,47.4364,175,75
2026-05-09 17:09:54.123,2,0.71,-1.77,0.63,-228.07440000000003,237.5926,-30.483600000000003,175,75
2026-05-09 17:09:54.155,2,0.74,-2.52,1.01,-238.80440000000002,162.7826,-64.87360000000001,175,75
2026-05-09 17:09:54.169,2,0.78,-2.69,1.08,-248.4444,123.3926,-93.7836,175,75
2026-05-09 17:09:54.187,2,0.68,-2.66,0.95,-263.1944,112.65259999999999,-107.0136,175,75
2026-05-09 17:09:54.206,2,0.58,-2.56,1.13,-215.6944,187.1026,-103.5336,175,75
2026-05-09 17:09:54.217,2,0.55,-2.46,1.41,-198.6844,205.89260000000002,-109.14359999999999,175,75
2026-05-09 17:09:54.227,2,0.39,-2.28,1.62,-185.33440000000002,210.4026,-116.09360000000001,175,75
2026-05-09 17:09:54.250,2,0.2,-1.91,1.75,-139.2344,219.67260000000005,-113.2336,175,75
2026-05-09 17:09:54.262,2,0.16,-1.8,1.74,-119.6044,219.06260000000003,-112.56360000000001,175,75
2026-05-09 17:09:54.275,2,-0.09,-1.62,1.75,-95.6944,228.87260000000003,-109.6336,175,75
2026-05-09 17:09:54.302,2,-0.64,-0.82,1.73,-23.6844,253.14260000000002,-87.9836,175,75
2026-05-09 17:09:54.317,2,-0.73,-0.57,1.83,0.7655999999999992,242.6526,-80.9736,175,75
2026-05-09 17:09:54.332,2,-0.79,-0.35,1.89,23.6356,196.43260000000004,-74.3236,175,75
2026-05-09 17:09:54.343,2,-0.86,-0.27,1.8,33.935599999999994,155.2126,-72.43360000000001,175,75
2026-05-09 17:09:54.343,2,-1.0,-0.2,1.59,41.1956,132.6526,-66.52359999999999,175,75
2026-05-09 17:09:54.366,2,-1.21,-0.17,1.16,70.9456,141.25260000000003,-34.0236,175,75
2026-05-09 17:09:54.375,2,-1.21,-0.19,1.1,85.7056,149.24259999999998,-14.8736,175,75
2026-05-09 17:09:54.388,2,-1.17,-0.18,1.11,97.7756,141.9826,3.7164,175,75
2026-05-09 17:09:54.408,2,-1.03,-0.09,1.2,103.6356,76.62260000000002,25.9164,175,75
2026-05-09 17:09:54.434,2,-0.97,-0.04,1.17,100.6456,39.0626,32.016400000000004,175,75
2026-05-09 17:09:54.445,2,-0.92,-0.0,1.12,99.54560000000001,22.042600000000007,34.6964,175,75
2026-05-09 17:09:54.456,2,-0.85,-0.01,1.08,99.9156,10.402600000000007,35.6764,175,75
2026-05-09 17:09:54.469,2,-0.8,-0.05,1.08,102.04560000000001,8.392600000000002,35.3664,175,75
2026-05-09 17:09:54.469,2,-0.74,-0.14,1.1,106.80560000000001,7.5926000000000045,33.5964,175,75
2026-05-09 17:09:54.491,2,-0.71,-0.37,1.06,115.8256,2.232600000000005,30.4864,175,75
2026-05-09 17:09:54.514,2,-0.76,-0.87,1.07,118.5056,-11.977399999999996,28.2964,175,75
2026-05-09 17:09:54.531,2,-0.82,-1.29,1.08,102.4156,-34.477399999999996,62.2564,175,75
2026-05-09 17:09:54.533,2,-0.85,-0.97,1.06,95.2756,-55.39739999999999,82.68639999999999,175,75
2026-05-09 17:09:54.553,2,-0.59,-0.86,1.25,81.6156,-86.7974,104.0864,175,75
2026-05-09 17:09:54.563,2,-0.35,-1.03,1.47,63.4456,-128.7474,115.3664,175,75
2026-05-09 17:09:54.565,2,-0.07,-1.06,1.64,45.6456,-188.4974,119.81639999999999,175,75
2026-05-09 17:09:54.596,2,0.05,-1.1,1.68,48.6956,-218.74739999999997,117.8064,175,75
2026-05-09 17:09:54.621,2,-0.04,-1.36,1.64,119.42559999999999,-187.0974,108.59639999999999,175,75
2026-05-09 17:09:54.642,2,-0.28,-1.46,1.38,161.2556,-133.98739999999998,105.7364,175,75
2026-05-09 17:09:54.684,2,-0.21,-1.66,1.37,192.8356,-122.0974,132.1964,175,75
2026-05-09 17:09:54.695,2,-0.28,-1.63,1.24,192.10559999999998,-138.6274,138.3564,175,75
2026-05-09 17:09:54.736,2,-0.59,-1.49,0.94,208.8756,-96.91739999999999,182.5664,175,75
2026-05-09 17:09:54.747,2,-0.56,-1.43,1.06,206.6856,-107.5274,192.4364,175,75
2026-05-09 17:09:54.760,2,-0.43,-1.4,1.11,200.1556,-131.54739999999998,191.4664,175,75
2026-05-09 17:09:54.780,2,-0.35,-1.48,1.17,195.5256,-161.85739999999998,186.0364,175,75
2026-05-09 17:09:54.790,2,-0.3,-1.6,1.19,193.20559999999998,-179.17739999999998,184.69639999999998,175,75
2026-05-09 17:09:54.790,2,-0.19,-1.63,1.16,188.8756,-199.23739999999998,184.0864,175,75
2026-05-09 17:09:54.809,2,0.03,-1.45,1.16,190.3356,-214.7874,172.3764,175,75
2026-05-09 17:09:54.809,2,0.28,-1.32,1.24,198.57559999999998,-221.06740000000002,155.00639999999999,175,75
2026-05-09 17:09:54.858,2,0.04,-1.91,1.56,221.3756,-332.4674,112.68639999999999,175,75
2026-05-09 17:09:54.858,2,-0.02,-1.97,1.58,225.2156,-393.49739999999997,96.4664,175,75
2026-05-09 17:09:54.877,2,0.33,-1.86,1.39,231.2556,-489.7174,47.9864,175,75
2026-05-09 17:09:54.895,2,0.49,-1.98,1.29,249.85559999999998,-531.9174,31.0364,175,75
2026-05-09 17:09:54.948,2,-0.33,-2.86,0.93,370.7656,-690.6974,-135.4836,175,75
2026-05-09 17:09:54.960,2,-0.86,-3.12,0.42,370.1556,-614.8474,-184.99360000000001,175,75
2026-05-09 17:09:54.966,2,-0.73,-3.13,-0.23,389.1156,-430.81739999999996,-187.5636,175,75
2026-05-09 17:09:55.002,2,-0.2,-2.35,0.16,511.55559999999997,-65.69739999999999,-105.36359999999999,175,75
2026-05-09 17:09:55.034,2,-0.16,-2.3,1.03,469.7256,-101.1274,-76.40360000000001,175,75
2026-05-09 17:09:55.064,2,-0.49,-1.95,0.78,374.1756,-248.25740000000002,-125.4236,175,75
2026-05-09 17:09:55.076,2,-0.7,-1.53,0.2,350.6456,-203.56740000000002,-148.2936,175,75
2026-05-09 17:09:55.104,2,-0.55,-0.93,0.29,334.30559999999997,-104.5974,-165.9736,175,75
2026-05-09 17:09:55.127,2,-0.62,-0.81,0.33,299.30559999999997,-133.5674,-189.2036,175,75
2026-05-09 17:09:55.139,2,-0.74,-0.72,0.2,260.5256,-172.8274,-214.99360000000001,175,75
2026-05-09 17:09:55.143,2,-0.9,-0.7,-0.02,213.57559999999998,-203.62739999999997,-242.5636,175,75
2026-05-09 17:09:55.158,2,-1.06,-0.69,-0.26,164.9756,-203.0174,-261.7036,175,75
2026-05-09 17:09:55.169,2,-1.13,-0.66,-0.44,128.9956,-182.5874,-272.49359999999996,175,75
2026-05-09 17:09:55.181,2,-1.19,-0.59,-0.53,101.6156,-149.04739999999998,-276.0936,175,75
2026-05-09 17:09:55.215,2,-1.05,-0.47,-0.33,27.7156,-52.89739999999999,-271.8236,175,75
2026-05-09 17:09:55.227,2,-1.01,-0.5,-0.14,-34.6044,-71.67739999999999,-274.4536,175,75
2026-05-09 17:09:55.237,2,-1.02,-0.48,-0.13,-77.1044,-98.7474,-278.23359999999997,175,75
2026-05-09 17:09:55.264,2,-1.19,-0.35,-0.18,-151.4944,-112.70739999999999,-272.92359999999996,175,75
2026-05-09 17:09:55.277,2,-1.47,-0.08,-0.31,-223.92440000000002,-43.13739999999999,-237.9836,175,75
2026-05-09 17:09:55.285,2,-1.57,0.01,-0.47,-274.9044,92.84260000000002,-157.86360000000002,175,75
2026-05-09 17:09:55.306,2,-1.57,0.09,-0.51,-290.5144,175.76260000000002,-95.7936,175,75
2026-05-09 17:09:55.332,2,-1.31,-0.09,-0.16,-312.7744,267.4126,5.7964,175,75
2026-05-09 17:09:55.382,2,-0.51,-0.57,-0.01,-479.9644,178.93259999999998,251.4064,175,75
2026-05-09 17:09:55.393,2,-0.04,-1.01,-0.08,-510.75440000000003,149.06260000000003,318.2964,175,75
2026-05-09 17:09:55.403,2,0.51,-1.55,-0.01,-510.6344,61.682599999999994,358.1164,175,75
2026-05-09 17:09:55.427,2,1.83,-2.72,1.14,-534.3543999999999,-278.5674,386.76640000000003,175,75
2026-05-09 17:09:55.438,2,1.67,-2.92,0.59,-646.0644,-439.9674,358.0464,175,75
2026-05-09 17:09:55.461,2,1.14,-3.34,-1.88,-675.8144,-88.0774,346.5864,175,75
2026-05-09 17:09:55.473,2,1.39,-3.92,-2.14,-639.4744,152.8426,320.06640000000004,175,75
2026-05-09 17:09:55.473,2,1.53,-4.83,-0.82,-602.2244,378.3926,251.9564,175,75
2026-05-09 17:09:55.484,2,1.14,-5.32,0.21,-620.7543999999999,457.71260000000007,191.5264,175,75
2026-05-09 17:09:55.495,2,0.93,-5.7,1.1,-674.1143999999999,486.19259999999997,115.3664,175,75
2026-05-09 17:09:55.507,2,0.94,-5.74,1.35,-709.4144,451.37260000000003,57.1964,175,75
2026-05-09 17:09:55.517,2,0.86,-5.83,1.36,-711.1844,408.3926,20.5464,175,75
2026-05-09 17:09:55.526,2,0.76,-5.96,1.42,-699.8444,355.6426,-15.4836,175,75
2026-05-09 17:09:55.526,2,0.68,-5.94,1.51,-685.4544,313.81260000000003,-46.8836,175,75
2026-05-09 17:09:55.541,2,0.39,-5.69,1.53,-669.1744,304.06260000000003,-76.64359999999999,175,75
2026-05-09 17:09:55.564,2,0.06,-5.18,1.38,-647.2244,367.23260000000005,-101.64359999999999,175,75
2026-05-09 17:09:55.564,2,-0.39,-4.63,1.12,-609.9044,501.4326,-122.37360000000001,175,75
2026-05-09 17:09:55.575,2,-0.91,-3.94,0.99,-514.4144,701.0726,-134.5136,175,75
2026-05-09 17:09:55.602,2,-1.16,-3.23,1.37,-357.3444,800.3426000000001,-129.4536,175,75
2026-05-09 17:09:55.645,2,-0.99,-1.42,2.88,-134.7844,514.9126,-123.3536,175,75
2026-05-09 17:09:55.677,2,-1.26,-0.15,2.65,-158.01440000000002,98.5126,-132.6236,175,75
2026-05-09 17:09:55.690,2,-1.51,0.1,2.09,-150.33440000000002,28.1426,-123.90360000000001,175,75
2026-05-09 17:09:55.690,2,-1.75,0.28,1.61,-124.4144,32.5326,-112.80359999999999,175,75
2026-05-09 17:09:55.700,2,-1.82,0.35,1.32,-73.1944,107.9626,-85.24359999999999,175,75
2026-05-09 17:09:55.734,2,-1.53,-0.06,1.57,-4.2943999999999996,185.1526,-35.1236,175,75
2026-05-09 17:09:55.757,2,-1.75,0.07,1.46,12.355599999999999,70.6426,-33.9636,175,75
2026-05-09 17:09:55.759,2,-1.77,-0.0,1.38,11.375600000000002,35.762600000000006,-36.9536,175,75
2026-05-09 17:09:55.781,2,-1.82,-0.11,1.34,8.875599999999999,9.422600000000003,-38.2336,175,75
2026-05-09 17:09:55.791,2,-1.85,-0.2,1.28,8.2056,-14.71739999999999,-33.9636,175,75
2026-05-09 17:09:55.814,2,-1.84,-0.11,1.12,10.465599999999998,-40.9974,12.0764,175,75
2026-05-09 17:09:55.826,2,-1.75,-0.1,1.1,18.0256,-38.0774,31.2164,175,75
2026-05-09 17:09:55.836,2,-1.65,-0.14,1.15,39.4256,-49.1074,62.1364,175,75
2026-05-09 17:09:55.836,2,-1.58,-0.16,1.19,47.5356,-63.25739999999999,73.4764,175,75
2026-05-09 17:09:55.852,2,-1.48,-0.19,1.19,52.5356,-89.5974,85.3664,175,75
2026-05-09 17:09:55.864,2,-1.42,-0.27,1.15,58.1456,-109.0474,93.35640000000001,175,75
2026-05-09 17:09:55.875,2,-1.37,-0.37,1.12,64.2456,-122.5874,101.5264,175,75
2026-05-09 17:09:55.894,2,-1.33,-0.47,1.07,70.3356,-131.1874,110.2464,175,75
2026-05-09 17:09:55.894,2,-1.33,-0.57,1.01,80.3956,-137.8274,120.3064,175,75
2026-05-09 17:09:55.922,2,-1.26,-0.57,1.02,90.2756,-127.3474,131.6464,175,75
2026-05-09 17:09:55.922,2,-1.21,-0.76,1.1,93.2656,-124.35739999999998,138.5964,175,75
2026-05-09 17:09:55.932,2,-1.33,-1.3,1.23,94.54560000000001,-151.48739999999998,146.7064,175,75
2026-05-09 17:09:55.943,2,-1.74,-2.11,1.32,90.0356,-176.67739999999998,156.8964,175,75
2026-05-09 17:09:55.955,2,-2.26,-2.56,1.13,68.4456,-165.0274,204.5164,175,75
2026-05-09 17:09:55.978,2,-1.48,-3.05,0.49,34.7256,104.7326,331.0964,175,75
2026-05-09 17:09:55.988,2,-1.5,-3.51,0.48,66.0056,205.3426,417.8664,175,75
2026-05-09 17:09:56.001,2,-1.18,-3.95,0.92,132.6556,217.9626,501.2864,175,75
2026-05-09 17:09:56.011,2,-0.91,-4.27,1.42,132.16559999999998,142.2926,527.9264000000001,175,75
2026-05-09 17:09:56.016,2,-0.63,-4.7,1.88,109.6656,21.312600000000003,556.2164,175,75
2026-05-09 17:09:56.028,2,-0.54,-4.96,1.98,104.6056,-69.78739999999999,562.5664,175,75
2026-05-09 17:09:56.039,2,-0.56,-5.38,1.97,126.92559999999999,-153.6874,560.3064,175,75
2026-05-09 17:09:56.072,2,-0.57,-5.8,2.32,201.6856,-315.7574,564.2664,175,75
2026-05-09 17:09:56.072,2,-0.55,-5.49,2.45,229.60559999999998,-384.7874,553.9664,175,75
2026-05-09 17:09:56.087,2,-0.54,-5.1,2.48,261.0756,-459.5974,534.4564,175,75
2026-05-09 17:09:56.100,2,-0.57,-4.81,2.33,292.9656,-514.1074,512.0764,175,75
2026-05-09 17:09:56.112,2,-0.5,-4.75,2.1,334.30559999999997,-509.5974,495.9764,175,75
2026-05-09 17:09:56.112,2,-0.53,-4.98,1.87,386.49559999999997,-485.99739999999997,486.4664,175,75
2026-05-09 17:09:56.134,2,-0.42,-5.36,1.47,469.9756,-445.51739999999995,476.8964,175,75
2026-05-09 17:09:56.144,2,-0.44,-5.34,1.36,506.80559999999997,-456.7974,477.62640000000005,175,75
2026-05-09 17:09:56.165,2,-0.43,-4.65,1.6,539.5456,-590.3274,419.51640000000003,175,75
2026-05-09 17:09:56.176,2,-0.58,-4.19,1.74,510.6456,-725.0874,359.3964,175,75
2026-05-09 17:09:56.188,2,-0.89,-3.85,1.63,462.5356,-838.1374,291.5864,175,75
2026-05-09 17:09:56.203,2,-1.23,-3.46,1.14,402.5956,-914.9073999999999,198.9064,175,75
2026-05-09 17:09:56.211,2,-1.54,-3.05,0.63,365.8856,-921.0674,115.91640000000001,175,75
2026-05-09 17:09:56.222,2,-1.63,-2.44,-0.07,351.6756,-832.8974,31.5864,175,75
2026-05-09 17:09:56.245,2,-1.49,-1.8,-0.61,367.7156,-673.9274,2.8064,175,75
2026-05-09 17:09:56.254,2,-1.5,-1.42,-0.82,381.9856,-524.0474,-4.143599999999999,175,75
2026-05-09 17:09:56.268,2,-1.24,-0.94,-0.52,361.49559999999997,-209.7874,-12.683599999999998,175,75
2026-05-09 17:09:56.279,2,-1.18,-0.73,-0.29,318.81559999999996,-96.97739999999999,-7.563600000000001,175,75
2026-05-09 17:09:56.291,2,-1.17,-0.58,-0.16,296.1956,-47.587399999999995,-3.7135999999999996,175,75
2026-05-09 17:09:56.304,2,-1.12,-0.47,-0.07,274.7856,-27.46739999999999,-2.1936,175,75
2026-05-09 17:09:56.315,2,-1.06,-0.36,-0.03,245.1556,-33.627399999999994,-4.813600000000001,175,75
2026-05-09 17:09:56.324,2,-0.99,-0.25,-0.03,204.85559999999998,-58.25739999999999,-13.5336,175,75
2026-05-09 17:09:56.340,2,-0.93,-0.2,-0.05,177.5356,-82.5274,-19.2636,175,75
2026-05-09 17:09:56.351,2,-0.88,-0.21,-0.04,153.7556,-104.6574,-25.6736,175,75
2026-05-09 17:09:56.375,2,-0.82,-0.25,0.02,98.32560000000001,-134.29739999999998,-38.7136,175,75
2026-05-09 17:09:56.394,2,-0.83,-0.23,0.03,74.0556,-143.1374,-46.7036,175,75
2026-05-09 17:09:56.405,2,-0.9,-0.18,0.03,48.875600000000006,-140.3274,-56.3436,175,75
2026-05-09 17:09:56.415,2,-0.91,-0.14,0.01,34.9156,-128.98739999999998,-61.6436,175,75
2026-05-09 17:09:56.415,2,-0.91,-0.11,-0.02,25.2156,-113.56739999999999,-63.5336,175,75
2026-05-09 17:09:56.440,2,-0.95,-0.07,-0.06,10.035599999999999,-90.5774,-68.0436,175,75
2026-05-09 17:09:56.454,2,-0.97,-0.04,-0.08,-5.2744,-60.39739999999999,-69.93360000000001,175,75
2026-05-09 17:09:56.468,2,-0.94,-0.0,-0.1,-23.744400000000002,-16.737399999999994,-66.7636,175,75
2026-05-09 17:09:56.485,2,-0.92,0.02,-0.06,-35.6344,14.85260000000001,-62.073600000000006,175,75
2026-05-09 17:09:56.496,2,-0.87,0.05,0.02,-47.5844,41.622600000000006,-53.35359999999999,175,75
2026-05-09 17:09:56.507,2,-0.78,0.07,0.12,-60.6944,59.06260000000002,-42.9236,175,75
2026-05-09 17:09:56.522,2,-0.68,0.12,0.28,-81.9744,40.82260000000001,-29.023600000000002,175,75
2026-05-09 17:09:56.556,2,-0.67,0.46,0.31,-114.17439999999999,0.09260000000000446,21.586399999999998,175,75
2026-05-09 17:09:56.571,2,-0.62,0.36,0.22,-154.6644,56.372600000000006,76.5264,175,75
2026-05-09 17:09:56.588,2,-0.57,0.4,0.26,-162.95440000000002,79.6726,95.85640000000001,175,75
2026-05-09 17:09:56.607,2,-0.49,0.4,0.33,-173.07440000000003,98.3926,124.93639999999999,175,75
2026-05-09 17:09:56.607,2,-0.43,0.28,0.4,-186.9744,111.07260000000001,152.50639999999999,175,75
2026-05-09 17:09:56.628,2,-0.38,0.13,0.44,-201.30440000000002,117.29260000000001,170.3664,175,75
2026-05-09 17:09:56.632,2,-0.2,-0.08,0.5,-225.14440000000002,117.47260000000001,185.4264,175,75
2026-05-09 17:09:56.643,2,0.15,-0.19,0.59,-253.4444,99.4826,187.0764,175,75
2026-05-09 17:09:56.665,2,0.23,-0.2,0.68,-293.9944,69.97260000000001,187.6264,175,75
2026-05-09 17:09:56.676,2,0.09,-0.25,0.63,-337.3444,61.37260000000002,196.7064,175,75
2026-05-09 17:09:56.689,2,-0.18,-0.39,0.49,-377.8344,77.59260000000002,207.0164,175,75
2026-05-09 17:09:56.702,2,-0.49,-0.74,0.29,-422.6444,154.3626,222.9864,175,75
2026-05-09 17:09:56.714,2,-0.5,-1.08,0.08,-450.4544,249.06260000000003,231.7664,175,75
2026-05-09 17:09:56.726,2,-0.31,-1.86,-0.17,-475.94440000000003,545.4026,225.91639999999998,175,75
2026-05-09 17:09:56.737,2,-0.11,-2.11,0.38,-458.3844,705.2826,185.6764,175,75
2026-05-09 17:09:56.749,2,0.11,-2.46,1.09,-453.56440000000003,763.8726,117.8664,175,75
2026-05-09 17:09:56.760,2,0.48,-2.93,1.64,-468.0744,710.0926000000001,45.6764,175,75
2026-05-09 17:09:56.792,2,0.84,-3.94,2.3,-553.8643999999999,346.56260000000003,-109.93360000000001,175,75
2026-05-09 17:09:56.802,2,0.93,-4.97,2.13,-626.4244,142.5926,-170.5436,175,75
2026-05-09 17:09:56.802,2,0.49,-5.43,1.9,-654.2343999999999,52.4726,-163.1036,175,75
2026-05-09 17:09:56.812,2,0.39,-5.34,1.59,-653.7443999999999,50.0326,-157.5636,175,75
2026-05-09 17:09:56.823,2,0.72,-4.74,1.5,-622.4044,98.9326,-148.5936,175,75
2026-05-09 17:09:56.823,2,1.06,-4.25,1.58,-560.7543999999999,148.87260000000003,-159.3236,175,75
2026-05-09 17:09:56.838,2,1.05,-4.28,1.77,-501.6144,156.37260000000003,-192.49360000000001,175,75
2026-05-09 17:09:56.849,2,0.72,-4.25,1.95,-446.7944,145.2826,-226.8236,175,75
2026-05-09 17:09:56.870,2,0.29,-3.81,1.84,-402.7744,159.7926,-244.87359999999998,175,75
2026-05-09 17:09:56.892,2,-0.39,-2.94,1.89,-290.8244,273.6326,-229.5736,175,75
2026-05-09 17:09:56.892,2,-0.61,-2.24,2.2,-205.33440000000002,364.12260000000003,-201.1536,175,75
2026-05-09 17:09:56.908,2,-0.15,-1.65,2.44,-105.6944,376.1926,-177.80360000000002,175,75
2026-05-09 17:09:56.954,2,-0.42,-1.23,2.46,-50.3344,261.92260000000005,-151.4636,175,75
2026-05-09 17:09:56.958,2,-1.17,-1.04,2.58,-19.174400000000002,160.2826,-109.3236,175,75
2026-05-09 17:09:56.986,2,-1.35,-0.68,2.66,5.645599999999998,99.60260000000001,-54.633599999999994,175,75
2026-05-09 17:09:56.998,2,-1.43,-0.55,2.52,7.9655999999999985,57.232600000000005,-46.7636,175,75
2026-05-09 17:09:57.019,2,-1.49,-0.52,2.34,16.3156,41.80260000000001,-42.6836,175,75
2026-05-09 17:09:57.052,2,-1.68,-0.43,2.11,52.71560000000001,54.3626,-32.8036,175,75
2026-05-09 17:09:57.160,2,-1.96,-0.09,2.22,122.89560000000002,20.762600000000006,-31.8836,175,75
2026-05-09 17:09:57.189,2,-1.8,0.06,2.28,124.42559999999999,-27.097399999999993,-25.543599999999998,175,75
2026-05-09 17:09:57.205,2,-1.68,0.14,2.21,123.3856,-91.6074,-16.2136,175,75
2026-05-09 17:09:57.218,2,-1.67,-0.01,1.68,151.5556,-168.0774,9.2064,175,75
2026-05-09 17:09:57.231,2,-1.45,-0.28,1.3,212.7156,-131.73739999999998,64.8164,175,75
2026-05-09 17:09:57.249,2,-1.3,-1.18,1.26,245.4656,-151.42739999999998,90.06639999999999,175,75
2026-05-09 17:09:57.275,2,-1.43,-2.17,0.82,249.36559999999997,-223.0774,114.0864,175,75
2026-05-09 17:09:57.312,2,-0.38,-2.2,1.87,329.6656,-172.1574,206.2864,175,75
2026-05-09 17:09:57.321,2,-0.9,-2.89,1.92,258.3856,-316.4874,187.9864,175,75
2026-05-09 17:09:57.336,2,-0.73,-2.87,1.64,257.8356,-320.87739999999997,174.8764,175,75
2026-05-09 17:09:57.348,2,-0.67,-2.87,1.39,263.87559999999996,-286.7974,162.3164,175,75
2026-05-09 17:09:57.360,2,-0.64,-2.87,1.73,325.0956,-187.1574,150.97639999999998,175,75
2026-05-09 17:09:57.370,2,-0.74,-2.85,1.73,317.1056,-215.1474,136.1564,175,75
2026-05-09 17:09:57.370,2,-0.66,-2.77,1.59,327.1056,-253.56740000000002,127.7464,175,75
2026-05-09 17:09:57.382,2,-0.64,-2.64,1.44,352.3556,-280.93739999999997,118.1764,175,75
2026-05-09 17:09:57.394,2,-0.48,-2.53,1.55,379.9156,-298.9874,110.7364,175,75
2026-05-09 17:09:57.416,2,-0.38,-2.61,1.66,393.5056,-318.9274,98.90639999999999,175,75
2026-05-09 17:09:57.416,2,-0.25,-2.73,1.85,401.74559999999997,-370.63739999999996,82.37639999999999,175,75
2026-05-09 17:09:57.443,2,-0.21,-2.82,2.05,403.7556,-440.2074,62.6864,175,75
2026-05-09 17:09:57.444,2,-0.42,-3.08,2.16,412.6556,-553.4974,23.1764,175,75
2026-05-09 17:09:57.455,2,-1.14,-3.82,1.81,459.7256,-708.9874,-41.1536,175,75
2026-05-09 17:09:57.486,2,-1.34,-3.9,1.58,467.1056,-736.0674,-60.85359999999999,175,75
2026-05-09 17:09:57.486,2,-1.4,-3.85,1.37,486.9256,-730.2074,-79.14359999999999,175,75
2026-05-09 17:09:57.509,2,-1.46,-4.38,1.02,551.1956,-591.3074,-117.31360000000001,175,75
2026-05-09 17:09:57.537,2,-1.4,-4.46,0.92,563.5756,-510.87739999999997,-117.56360000000001,175,75
2026-05-09 17:09:57.537,2,-1.3,-4.14,0.84,583.0856,-404.0474,-106.2836,175,75
2026-05-09 17:09:57.552,2,-0.88,-3.49,0.85,587.7756,-308.9874,-108.3536,175,75
2026-05-09 17:09:57.606,2,-0.32,-2.13,0.31,422.7756,-357.9574,-218.5336,175,75
2026-05-09 17:09:57.608,2,-0.49,-1.87,0.07,372.9656,-375.63739999999996,-268.6536,175,75
2026-05-09 17:09:57.628,2,-0.64,-1.67,-0.11,341.8656,-358.56739999999996,-297.43359999999996,175,75
2026-05-09 17:09:57.636,2,-0.83,-1.43,-0.4,293.2056,-295.0274,-331.3436,175,75
2026-05-09 17:09:57.637,2,-1.18,-1.0,-0.89,208.57559999999998,-188.92739999999998,-364.6936,175,75
2026-05-09 17:09:57.652,2,-1.32,-0.69,-1.07,181.5556,-83.86739999999999,-358.9036,175,75
2026-05-09 17:09:57.659,2,-1.33,-0.64,-1.08,163.69559999999998,2.232600000000005,-342.56359999999995,175,75
2026-05-09 17:09:57.673,2,-1.28,-0.66,-0.93,124.9156,84.1826,-323.4736,175,75
2026-05-09 17:09:57.685,2,-1.2,-0.55,-0.6,76.8056,138.87260000000003,-298.7836,175,75
2026-05-09 17:09:57.693,2,-1.1,-0.51,-0.37,57.1656,125.8926,-284.7536,175,75
2026-05-09 17:09:57.711,2,-1.0,-0.53,-0.12,22.2856,87.04260000000001,-271.9536,175,75
2026-05-09 17:09:57.723,2,-0.96,-0.52,-0.03,-10.7544,54.732600000000005,-262.86359999999996,175,75
2026-05-09 17:09:57.735,2,-0.94,-0.48,-0.0,-54.3544,16.372600000000006,-253.5936,175,75
2026-05-09 17:09:57.745,2,-0.96,-0.48,0.06,-90.2744,-11.917399999999994,-242.2536,175,75
2026-05-09 17:09:57.745,2,-0.93,-0.49,0.11,-114.17439999999999,-26.797399999999996,-233.6536,175,75
2026-05-09 17:09:57.770,2,-1.02,-0.46,0.17,-146.0644,-52.157399999999996,-214.6936,175,75
2026-05-09 17:09:57.770,2,-1.15,-0.45,0.17,-180.39440000000002,-73.31739999999999,-219.02360000000002,175,75
2026-05-09 17:09:57.783,2,-1.22,-0.47,0.14,-205.57440000000003,-70.8774,-214.6936,175,75
2026-05-09 17:09:57.810,2,-1.27,-0.56,-0.08,-266.9144,27.652600000000007,-185.7936,175,75
2026-05-09 17:09:57.821,2,-1.34,-0.58,-0.13,-288.68440000000004,98.0826,-165.30360000000002,175,75
2026-05-09 17:09:57.832,2,-1.34,-0.65,0.02,-341.3044,241.98260000000005,-100.36359999999999,175,75
2026-05-09 17:09:57.849,2,-1.16,-0.72,0.14,-378.3844,308.3926,-60.913599999999995,175,75
2026-05-09 17:09:57.860,2,-1.01,-0.9,0.16,-413.44440000000003,339.7926,-38.8436,175,75
2026-05-09 17:09:57.872,2,-0.98,-0.99,0.17,-449.3544,370.3426,-10.4236,175,75
2026-05-09 17:09:57.881,2,-0.89,-1.1,0.25,-480.6344,414.06260000000003,25.976399999999998,175,75
2026-05-09 17:09:57.882,2,-0.76,-1.38,0.38,-501.9744,444.9126,47.5064,175,75
2026-05-09 17:09:57.914,2,-0.4,-2.0,0.82,-586.3044,480.8926,89.5764,175,75
2026-05-09 17:09:57.916,2,0.07,-2.35,1.06,-655.3344,429.5426,86.40639999999999,175,75
2026-05-09 17:09:57.927,2,0.57,-2.81,1.34,-705.2144,342.4126,70.4864,175,75
2026-05-09 17:09:57.962,2,1.17,-4.27,2.47,-758.4444,87.84260000000002,-21.0336,175,75
2026-05-09 17:09:58.019,2,1.29,-6.93,2.03,-960.4544,-238.43739999999997,-130.6736,175,75
2026-05-09 17:09:58.029,2,1.01,-7.06,1.6,-963.2543999999999,-104.53739999999999,-126.40360000000001,175,75
2026-05-09 17:09:58.054,2,0.05,-7.04,0.44,-909.8444,209.9126,-100.30359999999999,175,75
2026-05-09 17:09:58.054,2,-0.08,-7.03,-0.12,-809.6043999999999,368.0226,-83.2936,175,75
2026-05-09 17:09:58.065,2,0.05,-6.39,-0.22,-696.9144,510.5226,-91.40360000000001,175,75
2026-05-09 17:09:58.075,2,-0.0,-5.93,0.23,-564.7844,604.1826,-110.7936,175,75
2026-05-09 17:09:58.086,2,-0.34,-5.65,0.88,-451.7344,641.3126,-146.0936,175,75
2026-05-09 17:09:58.097,2,-0.84,-5.17,1.5,-344.9044,615.5226,-169.2636,175,75
2026-05-09 17:09:58.109,2,-1.03,-4.14,2.35,-241.30440000000002,541.9226,-188.6536,175,75
2026-05-09 17:09:58.140,2,-0.96,-2.08,2.3,-193.1344,300.0326,-199.5136,175,75
2026-05-09 17:09:58.177,2,-1.22,-1.49,1.85,-170.39440000000002,281.56260000000003,-194.8136,175,75
2026-05-09 17:09:58.199,2,-1.53,-0.8,1.52,-121.5544,321.0126,-184.8736,175,75
2026-05-09 17:09:58.235,2,-1.61,-0.43,1.56,-79.9044,343.93260000000004,-179.6936,175,75
2026-05-09 17:09:58.236,2,-1.71,-0.21,1.75,-45.144400000000005,326.25260000000003,-169.8736,175,75
2026-05-09 17:09:58.274,2,-1.79,-0.29,1.51,27.895599999999998,188.63260000000002,-135.30360000000002,175,75
2026-05-09 17:09:58.279,2,-1.92,-0.45,1.31,50.6456,104.06260000000002,-99.2036,175,75
2026-05-09 17:09:58.300,2,-1.98,-0.37,1.26,54.9156,75.28260000000002,-90.9736,175,75
2026-05-09 17:09:58.310,2,-2.1,-0.21,1.08,53.5056,45.762600000000006,-81.58359999999999,175,75
2026-05-09 17:09:58.323,2,-2.23,-0.25,0.91,66.5556,56.012600000000006,-65.30359999999999,175,75
2026-05-09 17:09:58.344,2,-2.23,-0.37,0.88,70.9456,54.3626,-19.1436,175,75
2026-05-09 17:09:58.344,2,-2.19,-0.34,0.86,68.0256,41.622600000000006,-2.9236000000000004,175,75
2026-05-09 17:09:58.350,2,-2.08,-0.22,0.85,64.3656,6.072600000000008,29.0264,175,75
2026-05-09 17:09:58.364,2,-2.0,-0.15,0.84,66.1956,-18.377399999999994,47.0764,175,75
2026-05-09 17:09:58.380,2,-1.92,-0.11,0.84,67.71560000000001,-31.67739999999999,60.7364,175,75
2026-05-09 17:09:58.390,2,-1.81,-0.09,0.83,69.9156,-50.45739999999999,73.41640000000001,175,75
2026-05-09 17:09:58.390,2,-1.72,-0.09,0.79,72.5356,-66.6074,92.8664,175,75
2026-05-09 17:09:58.401,2,-1.64,-0.11,0.78,77.7756,-74.2374,107.37639999999999,175,75
2026-05-09 17:09:58.420,2,-1.44,-0.3,0.8,92.8356,-104.5974,141.2864,175,75
2026-05-09 17:09:58.431,2,-1.31,-0.44,0.79,97.4156,-140.0274,155.85639999999998,175,75
2026-05-09 17:09:58.444,2,-1.26,-0.54,0.77,96.7456,-173.98739999999998,162.13639999999998,175,75
2026-05-09 17:09:58.444,2,-1.21,-0.69,0.73,93.4456,-215.5174,166.4064,175,75
2026-05-09 17:09:58.465,2,-1.32,-1.4,0.63,70.5856,-322.1574,169.0264,175,75
2026-05-09 17:09:58.483,2,-1.77,-2.01,0.53,50.5256,-370.69739999999996,187.50639999999999,175,75
2026-05-09 17:09:58.483,2,-2.22,-2.25,0.36,47.71560000000001,-369.4174,230.97639999999998,175,75
2026-05-09 17:09:58.551,2,-1.26,-3.5,0.49,117.83560000000001,-43.017399999999995,463.7864,175,75
2026-05-09 17:09:58.568,2,-1.14,-3.84,0.32,125.64560000000002,46.13260000000001,527.0164,175,75
2026-05-09 17:09:58.568,2,-1.19,-4.32,-0.09,134.7256,173.39260000000002,612.3164,175,75
2026-05-09 17:09:58.579,2,-1.37,-4.74,-0.35,148.8156,323.0226,688.5364000000001,175,75
2026-05-09 17:09:58.600,2,-1.55,-5.28,0.02,170.88559999999998,457.1726,756.5864,175,75
2026-05-09 17:09:58.645,2,-3.02,-7.41,2.86,139.66559999999998,549.1826,877.9264000000001,175,75
2026-05-09 17:09:58.659,2,-1.53,-7.07,4.93,-34.3544,-119.2974,471.0964,175,75
2026-05-09 17:09:58.680,2,-2.37,-5.96,3.22,-81.1844,-812.4674,637.6264,175,75
2026-05-09 17:09:58.721,2,-1.55,-5.78,1.0,354.4256,-546.5474,708.4764,175,75
2026-05-09 17:09:58.731,2,-1.59,-5.83,1.32,444.30559999999997,-439.1774,706.9564,175,75
2026-05-09 17:09:58.739,2,-1.64,-5.76,1.9,445.2156,-432.6474,642.8064,175,75
2026-05-09 17:09:58.739,2,-1.23,-5.36,2.23,399.4256,-516.8574,571.0964,175,75
2026-05-09 17:09:58.766,2,-0.97,-4.0,1.82,293.0256,-856.7973999999999,461.1564,175,75
2026-05-09 17:09:58.778,2,-1.23,-3.63,1.36,260.7056,-975.5774,376.5264,175,75
2026-05-09 17:09:58.790,2,-1.97,-2.85,0.51,208.0256,-1055.9974,147.8664,175,75
2026-05-09 17:09:58.799,2,-2.15,-2.39,0.02,185.2156,-1043.5674000000001,10.1264,175,75
2026-05-09 17:09:58.824,2,-2.05,-1.41,-0.96,245.8856,-887.6474,-192.3136,175,75
2026-05-09 17:09:58.837,2,-1.65,-0.74,-1.19,349.7856,-684.5373999999999,-139.2036,175,75
2026-05-09 17:09:58.862,2,-1.52,-0.53,-1.19,363.87559999999996,-219.17739999999998,-28.9636,175,75
2026-05-09 17:09:58.887,2,-1.22,-0.39,-0.46,175.0956,133.69260000000003,-46.0336,175,75
2026-05-09 17:09:58.887,2,-1.04,-0.28,-0.36,154.3656,197.0426,-21.153599999999997,175,75
2026-05-09 17:09:58.915,2,-1.3,-0.07,-0.05,131.92559999999997,128.0826,30.3664,175,75
2026-05-09 17:09:58.928,2,-1.36,-0.09,0.04,110.1556,95.5226,36.4664,175,75
2026-05-09 17:09:58.947,2,-1.33,-0.14,0.14,74.1156,64.97260000000001,45.4264,175,75
2026-05-09 17:09:58.958,2,-1.16,-0.16,0.2,-7.1644000000000005,-35.517399999999995,62.8664,175,75
2026-05-09 17:09:58.958,2,-1.08,-0.12,0.15,-49.4744,-118.92739999999999,59.9364,175,75
2026-05-09 17:09:58.966,2,-1.14,-0.1,0.06,-74.0544,-174.7174,49.4564,175,75
2026-05-09 17:09:59.048,2,-0.97,0.04,-0.13,-110.7544,-40.087399999999995,66.4664,175,75
2026-05-09 17:09:59.066,2,-0.92,0.05,-0.01,-120.5744,-7.217399999999991,65.2464,175,75
2026-05-09 17:09:59.084,2,-0.87,0.05,0.09,-127.8344,9.062600000000003,60.6764,175,75
2026-05-09 17:09:59.111,2,-0.79,0.05,0.22,-138.6844,20.8926,52.8664,175,75
2026-05-09 17:09:59.150,2,-0.61,0.11,0.4,-166.4944,20.5826,19.3264,175,75
2026-05-09 17:09:59.150,2,-0.55,0.14,0.44,-181.61440000000002,27.652600000000007,9.9364,175,75
2026-05-09 17:09:59.167,2,-0.51,0.13,0.46,-194.4144,36.80260000000001,3.9664,175,75
2026-05-09 17:09:59.200,2,-0.71,-0.22,0.45,-304.2344,198.87260000000003,-20.0636,175,75
2026-05-09 17:09:59.212,2,-0.8,-0.34,0.4,-336.5544,267.9626,-7.0136,175,75
2026-05-09 17:09:59.222,2,-0.99,-0.69,0.5,-413.9244,420.0326,29.3964,175,75
2026-05-09 17:09:59.234,2,-0.98,-1.0,0.64,-457.9544,492.5326,30.4864,175,75
2026-05-09 17:09:59.253,2,-0.46,-2.29,1.06,-553.8044,612.4126,-40.4236,175,75
2026-05-09 17:09:59.279,2,0.19,-2.98,1.62,-614.9044,610.0926000000001,-59.1436,175,75
2026-05-09 17:09:59.280,2,0.34,-2.93,1.84,-624.1143999999999,555.2126000000001,-76.21360000000001,175,75
2026-05-09 17:09:59.291,2,0.29,-2.9,1.83,-624.4744,470.82259999999997,-101.8836,175,75
2026-05-09 17:09:59.296,2,0.03,-3.14,1.66,-629.6043999999999,389.8526,-143.4136,175,75
2026-05-09 17:09:59.310,2,-0.65,-3.73,1.62,-659.0544,336.56260000000003,-201.52360000000002,175,75
2026-05-09 17:09:59.320,2,-0.74,-4.74,2.02,-686.2443999999999,419.30260000000004,-279.6936,175,75
2026-05-09 17:09:59.331,2,-0.01,-5.74,2.69,-599.7844,550.3426000000001,-325.06359999999995,175,75
2026-05-09 17:09:59.355,2,-0.64,-5.63,2.97,-460.2744,415.7026,-411.1536,175,75
2026-05-09 17:09:59.360,2,-0.85,-4.82,2.93,-384.2944,338.0826,-422.98359999999997,175,75
2026-05-09 17:09:59.408,2,-0.82,-3.75,2.66,-286.6744,221.07260000000002,-381.1536,175,75
2026-05-09 17:09:59.471,2,-0.99,-1.99,2.32,-31.614400000000003,-102.28739999999999,-187.74360000000001,175,75
2026-05-09 17:09:59.490,2,-0.95,-1.62,2.63,-4.474400000000003,-419.2374,-142.3136,175,75
2026-05-09 17:09:59.510,2,-1.67,-1.06,2.22,-29.114400000000003,-562.3474,-107.9236,175,75
2026-05-09 17:09:59.510,2,-1.78,-0.7,1.81,-46.004400000000004,-507.0374,-111.15360000000001,175,75
2026-05-09 17:09:59.520,2,-1.5,-0.33,1.44,-49.8444,-228.25740000000002,-130.5436,175,75
2026-05-09 17:09:59.535,2,-1.16,-0.15,1.57,36.3156,106.62260000000002,-112.43360000000001,175,75
2026-05-09 17:09:59.549,2,-1.05,-0.08,1.88,98.0256,174.4226,-100.6036,175,75
2026-05-09 17:09:59.549,2,-1.05,0.1,2.1,129.48559999999998,130.89260000000002,-74.4536,175,75
2026-05-09 17:09:59.555,2,-1.15,0.17,2.13,137.04559999999998,62.84260000000002,-52.433600000000006,175,75
2026-05-09 17:09:59.575,2,-1.28,0.14,1.98,145.88559999999998,-11.797399999999996,-28.1036,175,75
2026-05-09 17:09:59.582,2,-1.33,0.06,1.74,159.42559999999997,-51.2474,-12.563600000000001,175,75
2026-05-09 17:09:59.632,2,-1.23,-0.17,1.27,200.70559999999998,-93.4974,27.6864,175,75
2026-05-09 17:09:59.632,2,-1.16,-0.26,1.16,212.16559999999998,-92.4074,37.6864,175,75
2026-05-09 17:09:59.696,2,-1.31,-1.81,0.99,219.0556,-75.45739999999999,79.63640000000001,175,75
2026-05-09 17:09:59.707,2,-1.29,-1.77,0.93,236.43559999999997,-47.767399999999995,108.2364,175,75
2026-05-09 17:09:59.738,2,-1.19,-1.57,0.9,242.4756,11.562600000000003,171.2164,175,75
2026-05-09 17:09:59.750,2,-1.22,-1.75,0.94,237.7756,43.69260000000001,194.4564,175,75
2026-05-09 17:09:59.750,2,-1.14,-1.99,1.01,241.49559999999997,76.07260000000001,214.5764,175,75
2026-05-09 17:09:59.760,2,-1.11,-2.2,1.11,247.8356,94.1826,235.0664,175,75
2026-05-09 17:09:59.771,2,-1.11,-2.47,1.23,255.2156,104.97260000000001,255.7364,175,75
2026-05-09 17:09:59.771,2,-1.16,-2.83,1.38,267.4756,81.25260000000002,267.6264,175,75
2026-05-09 17:09:59.782,2,-1.23,-3.08,1.56,255.8256,39.732600000000005,280.6164,175,75
2026-05-09 17:09:59.793,2,-1.29,-3.23,1.61,220.70559999999998,-41.6074,281.1564,175,75
2026-05-09 17:09:59.811,2,-1.27,-3.23,1.56,206.5556,-103.9874,266.70640000000003,175,75
2026-05-09 17:09:59.838,2,-1.19,-3.17,1.5,208.0856,-139.7874,262.5664,175,75
2026-05-09 17:09:59.849,2,-1.13,-2.97,1.34,214.3056,-217.8274,265.8564,175,75
2026-05-09 17:09:59.873,2,-1.07,-2.74,1.32,239.66559999999998,-254.4174,277.8664,175,75
2026-05-09 17:09:59.910,2,-0.99,-2.57,1.39,286.9256,-265.5174,285.7964,175,75
2026-05-09 17:09:59.923,2,-0.6,-2.66,1.63,309.6056,-288.62739999999997,283.5364,175,75
2026-05-09 17:09:59.935,2,-0.43,-2.53,1.73,324.24559999999997,-325.63739999999996,276.4064,175,75
2026-05-09 17:09:59.959,2,-0.49,-3.25,2.26,364.6656,-527.7674,218.5364,175,75
2026-05-09 17:09:59.974,2,-0.83,-3.78,2.12,371.6156,-634.9073999999999,188.5964,175,75
2026-05-09 17:10:00.007,2,-1.22,-3.49,1.03,418.2056,-685.6374,84.5764,175,75
2026-05-09 17:10:00.018,2,-1.23,-3.5,0.82,449.1156,-627.7674,57.4364,175,75
2026-05-09 17:10:00.063,2,-1.02,-3.13,0.75,492.22560000000004,-419.5974,62.5064,175,75
2026-05-09 17:10:00.074,2,-0.94,-2.93,0.95,487.7756,-373.01739999999995,70.18639999999999,175,75
2026-05-09 17:10:00.074,2,-0.87,-2.75,1.12,461.1356,-357.1574,72.9264,175,75
2026-05-09 17:10:00.085,2,-0.86,-2.43,1.16,416.0056,-389.1074,60.306400000000004,175,75
2026-05-09 17:10:00.095,2,-0.87,-2.19,1.07,390.4656,-416.3674,42.6864,175,75
2026-05-09 17:10:00.116,2,-0.74,-1.76,0.75,349.1756,-418.43739999999997,-0.9735999999999994,175,75
2026-05-09 17:10:00.116,2,-0.58,-1.55,0.61,333.5056,-406.8574,-16.3436,175,75
2026-05-09 17:10:00.138,2,-0.46,-1.39,0.53,321.31559999999996,-389.9074,-41.2136,175,75
2026-05-09 17:10:00.154,2,-0.4,-1.27,0.45,293.93559999999997,-368.25739999999996,-71.7636,175,75
2026-05-09 17:10:00.168,2,-0.48,-1.16,0.39,259.6056,-349.3574,-102.56360000000001,175,75
2026-05-09 17:10:00.168,2,-0.64,-1.02,0.3,230.2156,-337.5874,-133.8436,175,75
2026-05-09 17:10:00.187,2,-0.85,-0.88,0.2,205.2156,-315.0274,-169.6936,175,75
2026-05-09 17:10:00.221,2,-1.18,-0.14,-0.68,139.91559999999998,-80.69739999999999,-230.36360000000002,175,75
2026-05-09 17:10:00.232,2,-1.28,-0.09,-0.83,111.55560000000001,52.5326,-222.1936,175,75
2026-05-09 17:10:00.253,2,-1.09,-0.09,-0.5,70.21560000000001,325.4026,-198.0436,175,75
2026-05-09 17:10:00.277,2,-0.98,-0.14,-0.24,72.6556,356.43260000000004,-189.2036,175,75
2026-05-09 17:10:00.285,2,-0.58,-0.28,0.14,42.96560000000001,254.48260000000005,-186.4036,175,75
2026-05-09 17:10:00.298,2,-0.53,-0.33,0.19,8.755599999999998,157.5326,-195.1836,175,75
2026-05-09 17:10:00.313,2,-0.62,-0.34,0.16,-23.314400000000003,91.50260000000002,-200.4836,175,75
2026-05-09 17:10:00.325,2,-0.68,-0.34,0.05,-54.7244,42.1726,-204.8136,175,75
2026-05-09 17:10:00.368,2,-0.87,-0.06,-0.07,-173.01440000000002,-53.987399999999994,-198.9036,175,75
2026-05-09 17:10:00.399,2,-1.11,0.09,0.04,-264.8444,-36.797399999999996,-160.36360000000002,175,75
2026-05-09 17:10:00.443,2,-1.02,0.02,-0.24,-357.4644,122.04260000000001,-44.5136,175,75
2026-05-09 17:10:00.443,2,-0.98,-0.19,-0.16,-376.12440000000004,239.48260000000005,-26.523600000000002,175,75
2026-05-09 17:10:00.457,2,-0.8,-0.65,0.46,-439.8444,360.4626,24.8764,175,75
2026-05-09 17:10:00.476,2,-0.77,-0.93,0.76,-485.1444,343.87260000000003,37.5664,175,75
2026-05-09 17:10:00.509,2,-0.03,-1.85,0.99,-627.2844,155.5826,85.2464,175,75
2026-05-09 17:10:00.520,2,0.83,-2.06,1.38,-653.8044,69.6726,126.2164,175,75
2026-05-09 17:10:00.538,2,2.45,-1.71,3.13,-702.7743999999999,-620.2674,182.0764,175,75
2026-05-09 17:10:00.573,2,1.39,-1.67,0.96,-737.4644,-943.6874,343.7164,175,75
2026-05-09 17:10:00.581,2,1.45,-2.54,-0.49,-689.1744,-1014.4173999999999,394.81640000000004,175,75
2026-05-09 17:10:00.599,2,0.61,-4.18,-2.73,-647.4644,-676.0674,498.3564,175,75
2026-05-09 17:10:00.618,2,0.79,-5.89,-4.04,-551.0043999999999,-46.917399999999994,532.7464,175,75
2026-05-09 17:10:00.618,2,1.02,-6.16,-2.76,-509.2944,360.0326,495.3064,175,75
2026-05-09 17:10:00.648,2,0.88,-6.86,0.67,-500.5144,772.9626000000001,229.0864,175,75
2026-05-09 17:10:00.649,2,0.61,-6.25,1.57,-509.5344,814.7926,107.19640000000001,175,75
2026-05-09 17:10:00.663,2,0.55,-5.03,2.08,-464.5344,760.8926,-4.573599999999999,175,75
2026-05-09 17:10:00.671,2,0.17,-3.92,2.16,-384.9644,696.0126,-63.71360000000001,175,75
2026-05-09 17:10:00.683,2,-0.19,-3.1,2.1,-293.7444,651.5626,-104.81360000000001,175,75
2026-05-09 17:10:00.689,2,-0.62,-2.36,1.96,-197.7744,622.2326,-133.7136,175,75
2026-05-09 17:10:00.777,2,-0.75,-0.13,2.43,11.555600000000002,179.9726,-110.4836,175,75
2026-05-09 17:10:00.790,2,-1.48,0.27,1.34,8.2656,-56.60739999999999,-117.74360000000001,175,75
2026-05-09 17:10:00.802,2,-1.46,0.41,1.36,27.045599999999997,-70.39739999999999,-104.7536,175,75
2026-05-09 17:10:00.835,2,-1.47,0.32,1.35,35.5256,-86.36739999999999,-99.2636,175,75
2026-05-09 17:10:00.850,2,-1.84,0.22,0.77,111.92559999999999,13.202600000000004,-22.7436,175,75
2026-05-09 17:10:00.885,2,-1.69,0.2,0.8,122.5356,59.54260000000001,16.2164,175,75
2026-05-09 17:10:00.912,2,-1.54,0.14,0.96,121.43560000000001,51.07260000000001,37.2564,175,75
2026-05-09 17:10:00.912,2,-1.41,0.06,1.08,114.6656,15.762600000000006,48.5364,175,75
2026-05-09 17:10:00.912,2,-1.39,-0.01,1.1,98.1456,-41.42739999999999,52.806400000000004,175,75
2026-05-09 17:10:00.972,2,-1.5,-0.2,0.59,68.2656,-32.03739999999999,87.9864,175,75
2026-05-09 17:10:01.008,2,-1.28,-0.59,1.2,67.04560000000001,-77.7674,148.7164,175,75
2026-05-09 17:10:01.023,2,-1.23,-0.77,1.33,63.5056,-141.85739999999998,164.0864,175,75
2026-05-09 17:10:01.023,2,-1.35,-1.02,1.22,67.4156,-204.5974,170.0664,175,75
2026-05-09 17:10:01.032,2,-1.59,-1.37,1.07,77.8956,-235.3974,170.00639999999999,175,75
2026-05-09 17:10:01.060,2,-1.93,-2.3,1.01,118.20559999999999,-230.3274,214.4564,175,75
2026-05-09 17:10:01.085,2,-1.69,-2.97,1.22,148.69559999999998,-200.87739999999997,279.75640000000004,175,75
2026-05-09 17:10:01.085,2,-1.21,-3.38,1.33,170.2156,-187.4674,334.45640000000003,175,75
2026-05-09 17:10:01.127,2,-0.49,-5.61,2.89,471.0756,-388.68739999999997,403.1764,175,75
2026-05-09 17:10:01.176,2,0.75,-6.36,3.06,649.8556000000001,-588.0774,306.8964,175,75
2026-05-09 17:10:01.200,2,0.55,-6.85,3.09,695.5856,-832.2873999999999,149.63639999999998,175,75
2026-05-09 17:10:01.232,2,-0.56,-7.67,1.93,693.3856000000001,-924.6573999999999,-84.81360000000001,175,75
2026-05-09 17:10:01.232,2,-1.06,-7.61,1.02,646.1956,-854.5373999999999,-210.8536,175,75
2026-05-09 17:10:01.271,2,-1.2,-3.96,-0.28,537.1656,-285.0874,-309.3836,175,75
2026-05-09 17:10:01.307,2,-1.27,-3.37,-0.14,512.7756,-218.1374,-291.7636,175,75
2026-05-09 17:10:01.319,2,-1.44,-2.07,-0.01,427.1056,-180.0274,-237.0136,175,75
2026-05-09 17:10:01.387,2,-1.63,-0.88,-0.05,305.7056,-113.4974,-124.4536,175,75
2026-05-09 17:10:01.410,2,-1.73,-0.38,0.09,218.63559999999998,-133.4974,-84.7536,175,75
2026-05-09 17:10:01.429,2,-1.64,-0.28,0.06,186.07559999999998,-132.2874,-80.6036,175,75
2026-05-09 17:10:01.429,2,-1.59,-0.24,0.02,161.8056,-122.2174,-77.80359999999999,175,75
2026-05-09 17:10:01.440,2,-1.52,-0.22,0.0,139.9756,-101.5474,-72.0136,175,75
2026-05-09 17:10:01.466,2,-1.42,-0.21,0.01,120.33560000000001,-75.75739999999999,-62.073600000000006,175,75
2026-05-09 17:10:01.510,2,-1.12,-0.03,0.18,-21.3044,13.202600000000004,-64.5136,175,75
2026-05-09 17:10:01.544,2,-1.12,0.08,0.18,-50.5144,75.8926,-71.58359999999999,175,75
2026-05-09 17:10:01.554,2,-1.2,0.14,0.21,-62.5244,111.07260000000001,-80.4236,175,75
2026-05-09 17:10:01.568,2,-1.29,0.28,0.21,-66.73440000000001,135.2126,-78.84360000000001,175,75
2026-05-09 17:10:01.574,2,-1.31,0.46,0.25,-68.1944,159.7926,-64.4536,175,75
2026-05-09 17:10:01.610,2,-1.3,0.64,0.35,-67.4644,230.0926,-20.543599999999998,175,75
2026-05-09 17:10:01.610,2,-1.23,0.63,0.4,-69.1744,252.17260000000005,2.5063999999999993,175,75
2026-05-09 17:10:01.623,2,-1.19,0.56,0.45,-76.6144,271.80260000000004,20.5464,175,75
2026-05-09 17:10:01.684,2,-0.44,-0.11,0.85,-207.3444,204.9726,194.0864,175,75
2026-05-09 17:10:01.700,2,-0.48,-0.31,0.82,-254.7244,181.8626,227.50639999999999,175,75
2026-05-09 17:10:01.721,2,-0.63,-0.45,0.75,-283.62440000000004,143.20260000000002,246.9564,175,75
2026-05-09 17:10:01.731,2,-0.81,-0.58,0.62,-313.9244,86.62260000000002,300.3664,175,75
2026-05-09 17:10:01.757,2,-0.34,-0.91,0.64,-349.2944,-25.14739999999999,349.81640000000004,175,75
2026-05-09 17:10:01.786,2,-0.45,-2.53,-0.1,-459.3544,-201.42739999999998,481.3464,175,75
2026-05-09 17:10:01.790,2,-0.31,-3.13,-0.9,-426.8544,-221.85739999999998,463.6564,175,75
2026-05-09 17:10:01.818,2,-0.55,-3.78,-1.65,-341.6744,46.5026,500.2464,175,75
2026-05-09 17:10:01.830,2,-0.51,-4.1,-1.55,-354.7244,318.93260000000004,498.4764,175,75
2026-05-09 17:10:01.841,2,-0.1,-4.52,-1.05,-379.2344,489.7926,477.01640000000003,175,75
2026-05-09 17:10:01.850,2,0.2,-5.04,-0.57,-411.3644,550.5226,438.1164,175,75
2026-05-09 17:10:01.863,2,0.46,-5.58,-0.2,-457.5244,561.1326,389.0864,175,75
2026-05-09 17:10:01.863,2,0.28,-6.06,0.15,-522.4644,564.0626,310.7964,175,75
2026-05-09 17:10:01.897,2,0.06,-5.18,0.34,-499.2344,645.0926000000001,93.2364,175,75
2026-05-09 17:10:01.908,2,-0.28,-4.5,0.6,-423.7444,745.1526,17.9264,175,75
2026-05-09 17:10:01.961,2,-0.8,-2.81,1.87,-78.3844,712.0426,-166.1536,175,75
2026-05-09 17:10:01.971,2,-0.67,-2.27,2.25,-56.064400000000006,500.09260000000006,-167.80360000000002,175,75
2026-05-09 17:10:02.000,2,-0.83,-1.38,2.12,-63.924400000000006,214.7926,-184.08360000000002,175,75
2026-05-09 17:10:02.000,2,-1.08,-0.98,1.83,-69.9044,162.0426,-189.9336,175,75
2026-05-09 17:10:02.011,2,-1.29,-0.66,1.62,-63.4444,159.7926,-179.4536,175,75
2026-05-09 17:10:02.021,2,-1.42,-0.27,1.55,-34.2344,194.67260000000005,-163.0436,175,75
2026-05-09 17:10:02.050,2,-1.34,-0.08,1.62,-7.224400000000001,221.13260000000002,-151.2836,175,75
2026-05-09 17:10:02.080,2,-1.3,0.01,1.77,25.0956,217.4726,-122.56360000000001,175,75
2026-05-09 17:10:02.152,2,-1.68,0.09,1.28,109.30560000000001,112.35260000000001,-17.0136,175,75
2026-05-09 17:10:02.171,2,-1.54,0.07,1.43,116.1356,-27.587399999999995,1.7664000000000009,175,75
2026-05-09 17:10:02.215,2,-1.6,-0.02,1.07,109.9756,-119.78739999999999,26.0364,175,75
2026-05-09 17:10:02.247,2,-1.58,-0.13,0.83,120.58560000000001,-115.45739999999999,46.5264,175,75
2026-05-09 17:10:02.247,2,-1.53,-0.22,0.75,132.10559999999998,-83.7474,61.5264,175,75
2026-05-09 17:10:02.260,2,-1.44,-0.31,0.79,149.7856,-13.627399999999994,89.1464,175,75
2026-05-09 17:10:02.280,2,-1.4,-0.53,0.96,154.2456,8.202600000000004,103.1164,175,75
2026-05-09 17:10:02.333,2,-1.63,-1.31,0.92,107.0456,-202.0374,173.6564,175,75
2026-05-09 17:10:02.346,2,-1.55,-1.48,0.86,101.3156,-207.4674,183.35639999999998,175,75
2026-05-09 17:10:02.357,2,-1.47,-1.67,0.87,104.1156,-200.6374,203.41639999999998,175,75
2026-05-09 17:10:02.368,2,-1.39,-1.9,0.91,110.9456,-191.73739999999998,231.0364,175,75
2026-05-09 17:10:02.368,2,-1.3,-2.07,0.96,113.8756,-179.4774,264.8764,175,75
2026-05-09 17:10:02.391,2,-1.09,-2.58,1.11,119.9156,-154.7874,333.6564,175,75
2026-05-09 17:10:02.405,2,-0.96,-2.85,1.17,134.42559999999997,-146.79739999999998,362.8664,175,75
2026-05-09 17:10:02.424,2,-0.89,-3.01,1.22,152.5956,-135.1474,379.0864,175,75
2026-05-09 17:10:02.435,2,-0.8,-3.15,1.29,174.66559999999998,-117.28739999999999,384.20640000000003,175,75
2026-05-09 17:10:02.457,2,-0.67,-3.49,1.4,209.3056,-125.45739999999999,377.8064,175,75
2026-05-09 17:10:02.527,2,-0.43,-2.98,1.36,262.7156,-185.0274,362.50640000000004,175,75
2026-05-09 17:10:02.558,2,-0.44,-3.21,1.41,288.99559999999997,-242.4074,321.2164,175,75
2026-05-09 17:10:02.617,2,-0.08,-3.65,1.38,331.49559999999997,-211.12739999999997,311.4064,175,75
2026-05-09 17:10:02.702,2,0.39,-3.61,1.66,376.31559999999996,-211.06740000000002,311.0364,175,75
2026-05-09 17:10:02.702,2,0.53,-3.56,1.72,399.9156,-255.4574,305.12640000000005,175,75
2026-05-09 17:10:02.826,2,-0.59,-2.63,1.09,380.1556,-765.8174,62.3764,175,75
2026-05-09 17:10:02.837,2,-1.05,-1.15,-0.52,322.5356,-310.3974,-120.06360000000001,175,75
2026-05-09 17:10:02.849,2,-1.02,-0.25,-0.05,225.3356,39.30260000000001,-121.9536,175,75
2026-05-09 17:10:02.860,2,-1.26,-0.03,-0.16,127.1056,-166.54739999999998,-133.0436,175,75
2026-05-09 17:10:02.871,2,-1.95,0.19,-0.46,72.5956,-308.8674,-151.0936,175,75
2026-05-09 17:10:02.882,2,-1.94,0.22,-0.33,21.375600000000002,-310.8174,-178.6536,175,75
2026-05-09 17:10:02.905,2,-0.59,-0.38,-0.67,-20.814400000000003,-145.2674,-147.49360000000001,175,75
2026-05-09 17:10:02.917,2,-1.05,0.17,-0.99,-82.7744,-55.697399999999995,-106.40360000000001,175,75
2026-05-09 17:10:02.927,2,-1.7,0.39,-0.87,-134.5344,-77.95739999999999,-107.1936,175,75
2026-05-09 17:10:02.936,2,-1.81,-0.0,-0.65,-188.4444,13.932600000000008,-77.37360000000001,175,75
2026-05-09 17:10:03.038,2,-2.19,-0.15,-0.75,-341.7944,182.7826,1.9564000000000004,175,75
2026-05-09 17:10:03.049,2,-2.22,-0.48,-0.7,-370.2744,360.0326,43.416399999999996,175,75
2026-05-09 17:10:03.129,2,-1.78,-1.84,0.66,-519.5344,529.1826,76.28639999999999,175,75
2026-05-09 17:10:03.134,2,-1.7,-4.1,0.83,-770.6944,542.2326,37.9264,175,75
2026-05-09 17:10:03.160,2,-0.76,-4.95,1.48,-765.5143999999999,733.5126,-21.583599999999997,175,75
2026-05-09 17:10:03.173,2,-0.37,-5.14,1.89,-740.5143999999999,703.7526,-88.1036,175,75
2026-05-09 17:10:03.245,2,-0.83,-7.7,1.78,-592.6443999999999,509.73260000000005,-515.2436,175,75
2026-05-09 17:10:03.245,2,-0.92,-5.41,1.87,-354.0544,577.5326,-498.29359999999997,175,75
2026-05-09 17:10:03.257,2,-0.98,-5.28,1.89,-279.5344,537.9026,-487.1336,175,75
2026-05-09 17:10:03.257,2,-1.07,-4.97,1.78,-220.8144,435.4026,-444.7536,175,75
2026-05-09 17:10:03.311,2,-1.72,-1.46,0.98,-4.724400000000003,431.56260000000003,-173.4136,175,75
2026-05-09 17:10:03.320,2,-1.74,-0.66,1.13,61.8656,312.9626,-124.02360000000002,175,75
2026-05-09 17:10:03.338,2,-1.83,-0.43,1.29,65.2756,178.32260000000002,-105.4836,175,75
2026-05-09 17:10:03.357,2,-2.17,0.06,1.06,36.1356,-74.41739999999999,-152.86360000000002,175,75
2026-05-09 17:10:03.364,2,-2.34,0.0,0.77,20.5256,-126.5474,-160.6736,175,75
2026-05-09 17:10:03.374,2,-2.36,-0.08,0.46,11.555600000000002,-133.3774,-144.02360000000002,175,75
2026-05-09 17:10:03.386,2,-2.34,0.09,0.33,22.045599999999997,-23.077399999999997,-53.413599999999995,175,75
2026-05-09 17:10:03.397,2,-2.21,0.24,0.55,16.555600000000002,22.292600000000007,-8.293600000000001,175,75
2026-05-09 17:10:03.411,2,-2.07,0.2,0.64,2.105599999999999,32.96260000000001,19.0264,175,75
2026-05-09 17:10:03.468,2,-1.65,-0.12,0.69,1.1356000000000002,28.872600000000006,97.19640000000001,175,75
2026-05-09 17:10:03.516,2,-1.4,-0.2,0.69,17.475599999999996,-57.767399999999995,128.4164,175,75
2026-05-09 17:10:03.525,2,-1.33,-0.23,0.73,23.755599999999998,-66.97739999999999,136.8964,175,75
2026-05-09 17:10:03.538,2,-1.28,-0.2,0.73,28.3856,-78.56739999999999,136.5264,175,75
2026-05-09 17:10:03.550,2,-1.27,-0.15,0.77,28.875600000000002,-86.97739999999999,136.4664,175,75
2026-05-09 17:10:03.550,2,-1.25,-0.14,0.82,27.835599999999996,-91.6074,137.4364,175,75
2026-05-09 17:10:03.577,2,-1.21,-0.14,0.87,25.395599999999998,-101.3674,134.5164,175,75
2026-05-09 17:10:03.589,2,-1.24,-0.16,0.97,20.5256,-129.6574,132.1364,175,75
2026-05-09 17:10:03.608,2,-1.22,-0.22,1.11,16.005599999999998,-172.5274,129.8164,175,75
2026-05-09 17:10:03.630,2,-0.84,-0.83,1.38,31.615599999999997,-302.6474,114.1464,175,75
2026-05-09 17:10:03.642,2,-1.08,-2.15,1.16,49.7856,-319.1074,135.0064,175,75
2026-05-09 17:10:03.654,2,-1.2,-2.19,1.18,105.58560000000001,-260.5174,194.0864,175,75
2026-05-09 17:10:03.681,2,-0.84,-2.02,1.47,159.7256,-225.5174,230.91639999999998,175,75
2026-05-09 17:10:03.710,2,-0.55,-2.27,1.96,185.3956,-235.5774,241.5864,175,75
2026-05-09 17:10:03.726,2,-0.45,-2.73,2.24,198.5056,-279.5974,241.4664,175,75
2026-05-09 17:10:03.726,2,-0.51,-3.08,2.36,221.07559999999998,-345.99739999999997,251.8264,175,75
2026-05-09 17:10:03.738,2,-0.57,-3.39,2.27,264.24559999999997,-419.0474,253.2364,175,75
2026-05-09 17:10:03.749,2,-0.55,-3.81,2.11,307.1056,-425.2074,256.5264,175,75
2026-05-09 17:10:03.771,2,-0.26,-4.28,1.94,423.3256,-405.32739999999995,272.01640000000003,175,75
2026-05-09 17:10:03.782,2,-0.2,-4.5,1.77,473.3856,-354.2374,265.2464,175,75
2026-05-09 17:10:03.816,2,0.44,-5.08,2.25,621.8056,-199.23739999999998,245.4264,175,75
2026-05-09 17:10:03.831,2,0.62,-4.96,2.29,632.2856,-194.6574,230.7964,175,75
2026-05-09 17:10:03.871,2,0.14,-4.89,1.86,571.9256,-553.6874,22.3164,175,75
2026-05-09 17:10:03.882,2,-0.2,-4.72,1.45,507.22560000000004,-611.8574,-36.7036,175,75
2026-05-09 17:10:03.882,2,-0.5,-4.35,0.94,438.0256,-666.5473999999999,-102.2536,175,75
2026-05-09 17:10:03.893,2,-0.96,-3.75,0.39,375.7656,-665.9374,-168.9036,175,75
2026-05-09 17:10:03.934,2,-1.14,-1.39,-0.7,383.1456,-225.69740000000002,-157.9236,175,75
2026-05-09 17:10:03.935,2,-1.26,-1.05,-0.45,376.1356,-151.9774,-137.6836,175,75
2026-05-09 17:10:03.957,2,-1.43,-0.52,0.14,309.4256,-74.47739999999999,-71.2836,175,75
2026-05-09 17:10:03.977,2,-1.45,-0.45,0.22,252.8356,-101.91739999999999,-57.803599999999996,175,75
2026-05-09 17:10:03.980,2,-1.53,-0.39,0.16,205.94559999999998,-125.81739999999999,-53.2336,175,75
2026-05-09 17:10:03.996,2,-1.55,-0.27,0.1,180.82559999999998,-129.35739999999998,-43.7136,175,75
2026-05-09 17:10:04.007,2,-1.56,-0.11,0.02,163.38559999999998,-127.0974,-33.3536,175,75
2026-05-09 17:10:04.024,2,-1.48,0.01,0.02,143.9956,-122.4674,-24.8136,175,75
2026-05-09 17:10:04.046,2,-1.32,-0.02,-0.05,66.3156,-75.08739999999999,-17.3136,175,75
2026-05-09 17:10:04.059,2,-1.06,-0.02,-0.05,25.585599999999996,-22.407399999999996,-12.9236,175,75
2026-05-09 17:10:04.077,2,-0.86,-0.07,0.04,-22.584400000000002,12.842600000000004,-25.793599999999998,175,75
2026-05-09 17:10:04.092,2,-0.75,-0.09,0.08,-68.9944,15.642600000000002,-40.4236,175,75
2026-05-09 17:10:04.119,2,-0.69,-0.12,0.04,-110.6344,16.8626,-51.7036,175,75
2026-05-09 17:10:04.138,2,-0.7,-0.19,-0.0,-131.8544,32.04260000000001,-49.4536,175,75
2026-05-09 17:10:04.150,2,-0.74,-0.21,-0.12,-152.0344,68.69260000000001,-39.4536,175,75
2026-05-09 17:10:04.166,2,-0.72,-0.1,-0.17,-157.64440000000002,101.8026,-29.9336,175,75
2026-05-09 17:10:04.177,2,-0.65,-0.01,-0.1,-168.2544,150.4026,-14.1436,175,75
2026-05-09 17:10:04.188,2,-0.28,-0.07,0.19,-211.0644,196.43260000000004,15.0064,175,75
2026-05-09 17:10:04.207,2,0.13,0.07,0.47,-267.3444,110.5226,34.026399999999995,175,75
2026-05-09 17:10:04.229,2,0.19,0.07,0.47,-302.2244,60.09260000000002,52.806400000000004,175,75
2026-05-09 17:10:04.239,2,0.18,-0.0,0.4,-327.1644,49.3626,71.0964,175,75
2026-05-09 17:10:04.264,2,0.3,-0.38,0.37,-366.00440000000003,113.57260000000001,106.9564,175,75
2026-05-09 17:10:04.278,2,0.35,-0.76,0.52,-401.06440000000003,176.56260000000003,110.00640000000001,175,75
2026-05-09 17:10:04.290,2,0.3,-1.01,0.66,-438.8044,217.3526,112.37639999999999,175,75
2026-05-09 17:10:04.302,2,0.28,-1.32,0.9,-481.9144,223.20260000000002,112.9264,175,75
2026-05-09 17:10:04.312,2,0.25,-1.63,1.12,-525.3944,217.5926,127.43639999999999,175,75
2026-05-09 17:10:04.323,2,0.37,-1.99,1.18,-552.6443999999999,211.86260000000004,112.43639999999999,175,75
2026-05-09 17:10:04.323,2,0.26,-2.26,1.26,-583.5043999999999,208.81260000000003,104.1464,175,75
2026-05-09 17:10:04.369,2,0.4,-3.06,1.1,-678.3843999999999,287.17260000000005,-45.4236,175,75
2026-05-09 17:10:04.380,2,0.49,-3.35,0.89,-712.2844,302.9626,-105.36359999999999,175,75
2026-05-09 17:10:04.404,2,0.59,-3.74,0.72,-712.5243999999999,352.0426,-157.2536,175,75
2026-05-09 17:10:04.404,2,0.21,-4.05,0.7,-693.1944,463.57259999999997,-204.08360000000002,175,75
2026-05-09 17:10:04.416,2,-0.14,-4.64,0.8,-660.8144,616.0726,-270.9136,175,75
2026-05-09 17:10:04.426,2,-0.68,-5.4,0.98,-601.6143999999999,735.0926000000001,-325.48359999999997,175,75
2026-05-09 17:10:04.430,2,-1.19,-5.74,1.12,-540.4544,784.1826,-342.74359999999996,175,75
2026-05-09 17:10:04.451,2,-1.5,-5.09,1.61,-416.6144,851.3726,-353.4736,175,75
2026-05-09 17:10:04.462,2,-1.07,-3.85,2.25,-307.1644,851.4326,-354.1436,175,75
2026-05-09 17:10:04.483,2,-0.66,-2.78,2.93,-104.6644,652.5926000000001,-353.7836,175,75
2026-05-09 17:10:04.508,2,-0.28,-2.36,2.39,-26.424400000000002,330.5826,-310.79359999999997,175,75
2026-05-09 17:10:04.508,2,-0.8,-2.44,1.93,-8.134400000000001,243.32260000000002,-296.4636,175,75
2026-05-09 17:10:04.522,2,-1.14,-2.59,2.02,34.9756,185.0326,-269.7536,175,75
2026-05-09 17:10:04.544,2,-1.2,-2.47,2.29,48.93560000000001,67.35260000000001,-257.1336,175,75
2026-05-09 17:10:04.554,2,-1.28,-2.21,2.2,27.4156,-49.53739999999999,-266.9536,175,75
2026-05-09 17:10:04.554,2,-1.62,-1.85,1.76,-8.5044,-137.7074,-261.7036,175,75
2026-05-09 17:10:04.585,2,-2.09,-0.89,1.2,-4.5344000000000015,19.792600000000007,-187.80360000000002,175,75
2026-05-09 17:10:04.598,2,-2.33,-0.31,1.12,13.6356,127.78260000000002,-146.4636,175,75
2026-05-09 17:10:04.618,2,-2.6,0.31,1.14,33.5056,240.70260000000002,-106.15360000000001,175,75
2026-05-09 17:10:04.631,2,-2.63,0.58,1.36,55.5856,339.8526,-69.4536,175,75
2026-05-09 17:10:04.639,2,-2.65,0.38,1.62,74.1156,366.62260000000003,-33.5336,175,75
2026-05-09 17:10:04.652,2,-2.41,0.01,1.68,92.5956,220.4626,42.4364,175,75
2026-05-09 17:10:04.662,2,-2.36,-0.08,1.32,83.2656,106.0126,54.6364,175,75
2026-05-09 17:10:04.710,2,-2.36,-0.14,0.85,82.3556,-31.797399999999996,74.93639999999999,175,75
2026-05-09 17:10:04.722,2,-2.37,-0.18,0.64,93.2056,-106.60739999999998,88.78639999999999,175,75
2026-05-09 17:10:04.722,2,-2.38,-0.2,0.53,104.0556,-179.9074,98.90639999999999,175,75
2026-05-09 17:10:04.736,2,-1.97,-0.23,0.57,97.8956,-280.93739999999997,108.90639999999999,175,75
2026-05-09 17:10:04.747,2,-1.8,-0.22,0.56,94.18560000000001,-302.7674,114.3964,175,75
2026-05-09 17:10:04.747,2,-1.61,-0.24,0.55,90.21560000000001,-301.3074,123.0464,175,75
2026-05-09 17:10:04.758,2,-1.53,-0.24,0.51,88.8156,-246.9774,131.2164,175,75
2026-05-09 17:10:04.781,2,-1.41,-0.49,0.63,117.1656,-119.53739999999999,152.50639999999999,175,75
2026-05-09 17:10:04.793,2,-1.19,-0.83,0.82,135.5856,-94.5974,157.7464,175,75
2026-05-09 17:10:04.807,2,-1.2,-1.06,0.89,138.69559999999998,-104.35739999999998,153.7864,175,75
2026-05-09 17:10:04.814,2,-1.13,-1.38,1.04,143.26559999999998,-124.9674,160.1864,175,75
2026-05-09 17:10:04.828,2,-0.99,-1.5,1.14,126.1956,-167.4074,185.85639999999998,175,75
2026-05-09 17:10:04.840,2,-0.82,-1.35,1.19,103.8156,-165.6374,223.8464,175,75
2026-05-09 17:10:04.854,2,-0.7,-1.4,1.28,97.96560000000001,-123.6874,250.3064,175,75
2026-05-09 17:10:04.865,2,-0.68,-1.59,1.42,99.6656,-77.4674,262.8664,175,75
2026-05-09 17:10:04.875,2,-0.68,-1.78,1.61,106.2556,-19.847399999999993,268.6564,175,75
2026-05-09 17:10:04.886,2,-0.8,-1.94,1.62,105.0356,57.4726,277.8064,175,75
2026-05-09 17:10:04.886,2,-0.98,-2.07,1.56,103.6356,122.1726,287.7464,175,75
2026-05-09 17:10:04.900,2,-0.89,-2.65,1.71,81.43560000000001,198.0226,327.7464,175,75
2026-05-09 17:10:04.931,2,-0.77,-2.77,1.88,53.5056,197.4726,376.6464,175,75
2026-05-09 17:10:04.955,2,-0.66,-2.62,2.05,64.6656,103.69260000000001,363.5964,175,75
2026-05-09 17:10:04.965,2,-0.43,-2.44,2.26,85.6456,51.80260000000001,354.45640000000003,175,75
2026-05-09 17:10:04.978,2,-0.31,-2.18,2.55,89.6656,-66.42739999999999,339.20640000000003,175,75
2026-05-09 17:10:04.990,2,-0.31,-1.9,2.61,79.3056,-192.5874,332.43640000000005,175,75
2026-05-09 17:10:05.001,2,-0.47,-1.66,2.43,84.6056,-352.82739999999995,325.06640000000004,175,75
2026-05-09 17:10:05.001,2,-0.55,-1.59,2.32,104.6056,-462.3474,320.06640000000004,175,75
2026-05-09 17:10:05.021,2,-0.68,-1.51,2.18,140.94559999999998,-597.4073999999999,320.06640000000004,175,75
2026-05-09 17:10:05.030,2,-0.69,-1.46,1.95,158.8756,-654.0473999999999,313.8464,175,75
2026-05-09 17:10:05.043,2,-0.42,-1.46,1.54,214.7256,-625.2074,275.8564,175,75
2026-05-09 17:10:05.068,2,0.28,-2.16,1.69,339.1156,-600.0874,205.2464,175,75
2026-05-09 17:10:05.081,2,0.1,-2.59,2.02,388.3856,-651.1874,186.8264,175,75
2026-05-09 17:10:05.099,2,0.03,-2.84,2.04,400.2156,-709.3574,177.8064,175,75
2026-05-09 17:10:05.110,2,-0.15,-3.0,1.51,389.24559999999997,-762.0373999999999,141.5864,175,75
2026-05-09 17:10:05.166,2,-0.26,-3.24,-0.08,520.3356,-468.68739999999997,13.5964,175,75
2026-05-09 17:10:05.199,2,-0.18,-2.84,0.11,519.1156000000001,-382.82739999999995,-0.4236000000000004,175,75
2026-05-09 17:10:05.268,2,-0.1,-1.9,0.3,413.6356,-287.0374,-44.5136,175,75
2026-05-09 17:10:05.268,2,-0.11,-1.7,0.23,400.5256,-261.18739999999997,-55.4236,175,75
2026-05-09 17:10:05.280,2,-0.18,-1.52,0.19,382.4156,-212.4674,-66.8836,175,75
2026-05-09 17:10:05.286,2,-0.2,-1.4,0.16,367.6556,-175.3974,-78.71360000000001,175,75
2026-05-09 17:10:05.309,2,-0.18,-1.11,0.28,323.81559999999996,-161.60739999999998,-130.0636,175,75
2026-05-09 17:10:05.332,2,-0.55,-0.9,0.17,260.8256,-187.5874,-193.0436,175,75
2026-05-09 17:10:05.342,2,-0.7,-0.83,-0.04,227.35559999999998,-172.0974,-225.9736,175,75
2026-05-09 17:10:05.342,2,-0.8,-0.74,-0.3,200.2156,-126.97739999999999,-253.3536,175,75
2026-05-09 17:10:05.351,2,-0.86,-0.65,-0.46,189.7256,-60.20739999999999,-266.2136,175,75
2026-05-09 17:10:05.389,2,-0.86,-0.55,-0.37,147.5356,27.042600000000007,-268.8436,175,75
2026-05-09 17:10:05.400,2,-0.92,-0.53,-0.25,99.8556,-7.217399999999991,-275.42359999999996,175,75
2026-05-09 17:10:05.415,2,-0.91,-0.54,-0.19,60.3956,-49.1074,-284.0836,175,75
2026-05-09 17:10:05.425,2,-0.96,-0.58,-0.25,-49.294399999999996,-151.67739999999998,-299.93359999999996,175,75
2026-05-09 17:10:05.437,2,-1.01,-0.53,-0.36,-107.4644,-153.6274,-292.98359999999997,175,75
2026-05-09 17:10:05.448,2,-1.05,-0.49,-0.41,-144.4144,-136.1874,-284.4536,175,75
2026-05-09 17:10:05.454,2,-1.08,-0.42,-0.45,-183.4444,-109.9074,-272.68359999999996,175,75
2026-05-09 17:10:05.468,2,-1.15,-0.37,-0.39,-206.61440000000002,-90.0874,-266.0336,175,75
2026-05-09 17:10:05.479,2,-1.23,-0.29,-0.22,-283.62440000000004,-32.70739999999999,-233.2936,175,75
2026-05-09 17:10:05.514,2,-1.4,-0.2,-0.27,-329.0544,-12.407399999999996,-202.80360000000002,175,75
2026-05-09 17:10:05.514,2,-1.5,-0.08,-0.34,-364.7844,13.142600000000002,-162.80360000000002,175,75
2026-05-09 17:10:05.514,2,-1.53,-0.02,-0.4,-385.8244,51.68260000000001,-127.56360000000001,175,75
2026-05-09 17:10:05.526,2,-1.51,-0.09,-0.42,-408.3844,120.09260000000002,-90.8536,175,75
2026-05-09 17:10:05.548,2,-1.35,-0.71,-0.1,-506.06440000000003,347.17260000000005,-38.7136,175,75
2026-05-09 17:10:05.584,2,-0.91,-1.38,0.4,-605.0844,375.7626,29.7564,175,75
2026-05-09 17:10:05.597,2,-0.87,-1.49,0.44,-624.0544,374.06260000000003,48.2364,175,75
2026-05-09 17:10:05.597,2,-0.64,-1.69,0.39,-632.2244,376.0726,67.68639999999999,175,75
2026-05-09 17:10:05.608,2,-0.28,-2.06,0.55,-625.3344,373.3226,65.7364,175,75
2026-05-09 17:10:05.620,2,0.41,-2.63,1.05,-614.5344,362.7826,36.4664,175,75
2026-05-09 17:10:05.630,2,1.29,-3.04,1.83,-618.6243999999999,272.2926,-5.793600000000001,175,75
2026-05-09 17:10:05.630,2,1.29,-3.62,2.61,-657.4644,102.2326,-52.743599999999994,175,75
2026-05-09 17:10:05.640,2,1.22,-5.13,3.16,-708.0143999999999,-4.847399999999993,-157.1936,175,75
2026-05-09 17:10:05.655,2,1.82,-6.36,3.26,-836.2443999999999,-165.5174,-207.9236,175,75
2026-05-09 17:10:05.666,2,1.49,-6.7,3.17,-857.4044,-245.5774,-200.36360000000002,175,75
2026-05-09 17:10:05.677,2,1.22,-6.57,2.94,-794.0544,-148.4974,-187.86360000000002,175,75
2026-05-09 17:10:05.687,2,1.35,-6.13,2.66,-779.9644,0.8926000000000016,-209.02360000000002,175,75
2026-05-09 17:10:05.710,2,0.65,-7.06,2.63,-703.1343999999999,253.51260000000002,-272.56359999999995,175,75
2026-05-09 17:10:05.722,2,0.45,-6.68,2.76,-652.0344,325.5226,-291.8236,175,75
2026-05-09 17:10:05.734,2,0.08,-6.22,2.81,-585.6343999999999,390.4026,-309.7536,175,75
2026-05-09 17:10:05.734,2,-0.34,-5.42,2.72,-486.4244,475.7626,-320.18359999999996,175,75
2026-05-09 17:10:05.748,2,-0.74,-4.53,2.49,-364.2344,561.6226,-327.98359999999997,175,75
2026-05-09 17:10:05.771,2,-0.94,-3.42,2.54,-138.0744,596.9226,-320.6036,175,75
2026-05-09 17:10:05.779,2,-0.87,-2.86,2.67,-82.8944,497.4126,-301.4636,175,75
2026-05-09 17:10:05.796,2,-0.82,-2.2,2.62,-74.1744,383.6926,-289.6336,175,75
2026-05-09 17:10:05.807,2,-0.99,-1.55,2.29,-94.17439999999999,258.3226,-282.0136,175,75
2026-05-09 17:10:05.824,2,-1.69,-0.46,1.46,-102.3444,175.70260000000002,-241.52360000000002,175,75
2026-05-09 17:10:05.836,2,-1.73,0.14,1.36,-49.9644,234.30260000000004,-203.1736,175,75
2026-05-09 17:10:05.858,2,-1.52,0.38,1.46,9.185599999999997,248.0226,-180.9736,175,75
2026-05-09 17:10:05.869,2,-1.78,-0.04,1.58,95.3956,112.84260000000002,-142.80360000000002,175,75
2026-05-09 17:10:05.891,2,-1.99,-0.49,1.19,113.8756,-32.21739999999999,-106.46360000000001,175,75
2026-05-09 17:10:05.903,2,-2.0,-0.51,0.95,120.46560000000001,-84.17739999999999,-94.08359999999999,175,75
2026-05-09 17:10:05.918,2,-1.99,-0.35,0.81,123.3856,-104.8474,-87.2536,175,75
2026-05-09 17:10:05.942,2,-1.98,-0.16,0.64,115.76559999999999,-124.2974,-82.80359999999999,175,75
2026-05-09 17:10:05.942,2,-1.93,-0.12,0.53,99.1156,-117.2174,-70.12360000000001,175,75
2026-05-09 17:10:05.958,2,-1.95,-0.1,0.41,76.2556,-62.64739999999999,-71.7636,175,75
2026-05-09 17:10:05.958,2,-1.97,-0.08,0.35,63.205600000000004,13.812600000000003,-67.9836,175,75
2026-05-09 17:10:05.973,2,-2.02,-0.02,0.53,68.93560000000001,138.32260000000002,-37.193599999999996,175,75
2026-05-09 17:10:05.992,2,-1.95,-0.12,0.91,80.5856,222.0426,-12.9836,175,75
2026-05-09 17:10:06.010,2,-1.83,-0.2,1.17,84.3056,236.86260000000004,1.2164000000000001,175,75
2026-05-09 17:10:06.010,2,-1.7,-0.19,1.2,87.4156,180.2126,7.7464,175,75
2026-05-09 17:10:06.021,2,-1.76,-0.16,1.19,88.6956,103.0226,11.4064,175,75
2026-05-09 17:10:06.033,2,-1.86,-0.07,1.03,84.3056,31.562600000000003,16.1564,175,75
2026-05-09 17:10:06.049,2,-1.96,0.01,0.74,78.7556,-12.64739999999999,31.3464,175,75
2026-05-09 17:10:06.060,2,-1.92,-0.04,0.5,84.9756,-10.937399999999997,67.13640000000001,175,75
2026-05-09 17:10:06.108,2,-1.64,-0.25,0.64,85.21560000000001,0.7626000000000062,104.5764,175,75
2026-05-09 17:10:06.120,2,-1.5,-0.32,0.85,84.0556,-41.917399999999994,120.00640000000001,175,75
2026-05-09 17:10:06.132,2,-1.38,-0.68,0.99,62.355599999999995,-228.19740000000002,127.56639999999999,175,75
2026-05-09 17:10:06.144,2,-1.39,-0.78,0.94,53.6956,-283.43739999999997,127.56639999999999,175,75
2026-05-09 17:10:06.144,2,-1.33,-0.71,0.83,50.15560000000001,-311.5474,132.8064,175,75
2026-05-09 17:10:06.164,2,-1.27,-0.46,0.77,50.0356,-314.6574,140.1264,175,75
2026-05-09 17:10:06.175,2,-1.21,-0.42,0.74,48.6356,-307.2174,137.0164,175,75
2026-05-09 17:10:06.175,2,-1.35,-0.98,0.84,33.0256,-284.6574,148.9064,175,75
2026-05-09 17:10:06.186,2,-1.61,-1.55,0.92,24.6056,-253.98739999999998,193.1764,175,75
2026-05-09 17:10:06.198,2,-1.73,-1.9,1.0,36.075599999999994,-268.1374,250.4864,175,75
2026-05-09 17:10:06.208,2,-1.37,-2.35,1.06,66.0056,-318.9874,328.8464,175,75
2026-05-09 17:10:06.219,2,-0.96,-2.84,1.4,104.7856,-355.51739999999995,366.8964,175,75
2026-05-09 17:10:06.230,2,0.34,-3.7,2.91,225.0356,-613.7474,431.5864,175,75
2026-05-09 17:10:06.240,2,-0.4,-3.52,2.93,300.8256,-871.9173999999999,414.63640000000004,175,75
2026-05-09 17:10:06.266,2,-0.54,-4.98,1.71,438.3856,-880.0874,298.4164,175,75
2026-05-09 17:10:06.292,2,1.05,-6.25,-0.11,640.2156,-593.4374,78.41640000000001,175,75
2026-05-09 17:10:06.303,2,1.04,-6.31,-0.26,718.8156,-480.0874,22.5064,175,75
2026-05-09 17:10:06.303,2,1.47,-6.15,-0.18,757.2856,-310.1474,-51.0936,175,75
2026-05-09 17:10:06.331,2,1.79,-6.06,0.07,762.1056000000001,-154.9674,-120.36360000000002,175,75
2026-05-09 17:10:06.342,2,1.64,-5.69,0.06,704.4856000000001,-193.92739999999998,-137.9836,175,75
2026-05-09 17:10:06.352,2,1.34,-5.06,-0.01,624.0556,-258.9874,-157.49360000000001,175,75
2026-05-09 17:10:06.375,2,0.9,-4.8,-0.11,576.6856,-330.93739999999997,-177.0736,175,75
2026-05-09 17:10:06.395,2,0.07,-3.59,-0.42,501.9256,-299.2374,-196.2836,175,75
2026-05-09 17:10:06.407,2,0.26,-2.92,-0.23,481.31559999999996,-221.24739999999997,-174.8136,175,75
2026-05-09 17:10:06.420,2,-0.01,-2.44,0.0,422.8956,-253.43739999999997,-168.5336,175,75
2026-05-09 17:10:06.430,2,-0.39,-2.03,0.08,352.1056,-303.1974,-160.7936,175,75
2026-05-09 17:10:06.441,2,-0.72,-1.84,-0.01,299.1756,-330.87739999999997,-160.36360000000002,175,75
2026-05-09 17:10:06.462,2,-1.27,-1.31,-0.38,215.2756,-281.7374,-137.4336,175,75
2026-05-09 17:10:06.473,2,-1.32,-0.91,-0.36,188.69559999999998,-211.54739999999998,-111.52359999999999,175,75
2026-05-09 17:10:06.488,2,-1.42,-0.6,-0.24,146.3156,-170.8174,-88.90360000000001,175,75
2026-05-09 17:10:06.510,2,-1.57,-0.33,-0.19,108.3256,-164.6574,-71.0336,175,75
2026-05-09 17:10:06.521,2,-1.63,0.0,-0.26,37.8956,-151.60739999999998,-41.2136,175,75
2026-05-09 17:10:06.546,2,-1.65,0.02,-0.17,-6.0044,-100.3274,-21.153599999999997,175,75
2026-05-09 17:10:06.546,2,-1.63,0.0,-0.1,-24.6644,-78.92739999999999,-9.573599999999999,175,75
2026-05-09 17:10:06.557,2,-1.56,0.07,-0.0,-45.8844,-46.2474,4.6364,175,75
2026-05-09 17:10:06.568,2,-1.44,0.07,0.1,-55.2144,-21.307399999999994,15.6164,175,75
2026-05-09 17:10:06.599,2,-1.26,0.04,0.28,-69.3544,-2.7073999999999927,26.6464,175,75
2026-05-09 17:10:06.613,2,-1.03,0.0,0.51,-100.2744,-1.307399999999987,33.906400000000005,175,75
2026-05-09 17:10:06.624,2,-0.98,-0.0,0.53,-114.3544,-16.487399999999994,31.9564,175,75
2026-05-09 17:10:06.636,2,-0.95,-0.01,0.52,-122.8944,-26.42739999999999,27.5064,175,75
2026-05-09 17:10:06.679,2,-0.85,0.02,0.35,-148.9244,19.302600000000012,23.5364,175,75
2026-05-09 17:10:06.679,2,-0.75,0.01,0.35,-156.2444,36.2526,25.4264,175,75
2026-05-09 17:10:06.728,2,-0.68,0.0,0.36,-184.4744,17.902600000000007,23.7164,175,75
2026-05-09 17:10:06.743,2,-0.71,-0.07,0.26,-206.36440000000002,15.892600000000002,20.9164,175,75
2026-05-09 17:10:06.754,2,-0.47,-0.36,0.2,-240.39440000000002,52.842600000000004,40.6164,175,75
2026-05-09 17:10:06.764,2,-0.31,-0.52,0.2,-257.4644,71.0126,51.6464,175,75
2026-05-09 17:10:06.775,2,-0.36,-0.65,0.15,-274.7244,99.3626,67.3164,175,75
2026-05-09 17:10:06.775,2,-0.36,-0.82,0.19,-285.94440000000003,120.7626,80.2464,175,75
2026-05-09 17:10:06.796,2,-0.32,-1.03,0.27,-305.8244,145.64260000000002,111.8264,175,75
2026-05-09 17:10:06.796,2,-0.48,-1.23,0.23,-334.7844,154.18259999999998,139.4564,175,75
2026-05-09 17:10:06.809,2,-0.72,-1.51,0.16,-348.9944,145.95260000000002,144.2064,175,75
2026-05-09 17:10:06.829,2,-0.47,-2.26,-0.23,-401.8544,175.3426,171.7064,175,75
2026-05-09 17:10:06.851,2,-0.31,-2.27,-0.36,-436.4244,226.07260000000002,203.2964,175,75
2026-05-09 17:10:06.851,2,0.14,-2.32,-0.34,-477.3444,248.0826,245.2464,175,75
2026-05-09 17:10:06.864,2,0.29,-2.78,-0.13,-551.8543999999999,161.8626,258.4764,175,75
2026-05-09 17:10:06.873,2,0.18,-3.09,-0.15,-629.5344,93.0826,268.7164,175,75
2026-05-09 17:10:06.887,2,-0.03,-3.26,-0.31,-684.7244,101.19260000000001,279.93640000000005,175,75
2026-05-09 17:10:06.898,2,-0.27,-3.72,-0.5,-727.8943999999999,170.76260000000002,286.4064,175,75
2026-05-09 17:10:06.911,2,-0.35,-4.55,-0.52,-762.5844,346.98260000000005,269.32640000000004,175,75
2026-05-09 17:10:06.922,2,-0.17,-5.24,-0.2,-762.2844,476.25260000000003,240.5464,175,75
2026-05-09 17:10:06.933,2,-0.14,-6.14,0.45,-758.8643999999999,582.1726,169.0264,175,75
2026-05-09 17:10:06.933,2,-0.29,-6.78,0.89,-760.6343999999999,627.7826,98.35640000000001,175,75
2026-05-09 17:10:06.951,2,-0.47,-6.99,1.3,-754.2944,682.6526,34.7564,175,75
2026-05-09 17:10:06.951,2,-0.68,-6.52,1.58,-733.1944,751.8026,-26.4636,175,75
2026-05-09 17:10:06.967,2,-0.68,-5.9,1.76,-676.1844,818.3926,-86.7636,175,75
2026-05-09 17:10:06.979,2,-0.55,-4.94,2.08,-569.1143999999999,888.5126,-152.9236,175,75
2026-05-09 17:10:06.989,2,-0.33,-4.05,2.5,-436.3644,917.4726,-206.4036,175,75
2026-05-09 17:10:06.989,2,-0.12,-3.67,2.67,-341.4944,874.2426,-249.57360000000003,175,75
2026-05-09 17:10:07.008,2,0.36,-3.44,2.61,-279.7844,711.6226,-276.8836,175,75
2026-05-09 17:10:07.013,2,0.46,-3.35,2.75,-245.2744,583.3226,-273.04359999999997,175,75
2026-05-09 17:10:07.025,2,0.57,-3.39,3.28,-194.3544,367.5326,-267.1336,175,75
2026-05-09 17:10:07.039,2,0.08,-3.42,3.51,-192.89440000000002,74.4826,-278.9636,175,75
2026-05-09 17:10:07.053,2,-0.57,-3.44,3.21,-200.8844,-93.3774,-277.62359999999995,175,75
2026-05-09 17:10:07.078,2,-1.1,-2.39,2.61,-176.8544,-158.1374,-221.2836,175,75
2026-05-09 17:10:07.079,2,-1.19,-1.95,2.52,-152.58440000000002,-89.1074,-173.5336,175,75
2026-05-09 17:10:07.090,2,-1.24,-1.36,2.49,-132.5244,9.672600000000003,-126.09360000000001,175,75
2026-05-09 17:10:07.108,2,-1.24,-0.98,2.58,-97.8944,102.47260000000001,-91.7636,175,75
2026-05-09 17:10:07.118,2,-1.39,-0.68,2.89,-52.284400000000005,184.24259999999998,-62.3736,175,75
2026-05-09 17:10:07.130,2,-1.39,-0.41,3.09,-35.6344,204.48260000000005,-46.8236,175,75
2026-05-09 17:10:07.149,2,-1.36,-0.19,3.14,-17.5244,182.5326,-42.6836,175,75
2026-05-09 17:10:07.153,2,-1.4,-0.03,3.16,17.655599999999996,130.1526,-36.4036,175,75
2026-05-09 17:10:07.170,2,-1.37,0.09,3.02,68.57560000000001,-17.28739999999999,-38.3536,175,75
2026-05-09 17:10:07.190,2,-1.5,0.02,2.65,96.9856,-112.64739999999999,-42.2536,175,75
2026-05-09 17:10:07.190,2,-1.65,-0.16,2.2,107.77560000000001,-167.8974,-38.7836,175,75
2026-05-09 17:10:07.213,2,-1.74,-0.28,1.72,120.46560000000001,-179.10739999999998,-30.913600000000002,175,75
2026-05-09 17:10:07.224,2,-1.81,-0.3,1.35,140.94559999999998,-157.7674,-17.4336,175,75
2026-05-09 17:10:07.234,2,-1.78,-0.21,1.11,165.70559999999998,-116.5474,26.0364,175,75
2026-05-09 17:10:07.243,2,-1.75,-0.3,1.07,166.3756,-104.78739999999999,35.9764,175,75
2026-05-09 17:10:07.257,2,-1.55,-0.29,0.98,169.7856,-73.86739999999999,34.9364,175,75
2026-05-09 17:10:07.275,2,-1.46,-0.35,0.92,180.3956,-24.477399999999996,68.2964,175,75
2026-05-09 17:10:07.286,2,-1.43,-0.44,0.88,182.9656,-20.327399999999997,70.91640000000001,175,75
2026-05-09 17:10:07.300,2,-1.4,-0.54,0.83,194.48559999999998,-22.707399999999993,67.9264,175,75
2026-05-09 17:10:07.300,2,-1.42,-0.58,0.91,208.63559999999998,-26.247399999999992,69.0264,175,75
2026-05-09 17:10:07.328,2,-0.89,-0.76,1.0,173.1456,-107.0974,43.5364,175,75
2026-05-09 17:10:07.345,2,-1.03,-0.66,0.66,151.4356,-109.9674,39.2064,175,75
2026-05-09 17:10:07.357,2,-1.25,-0.7,0.47,164.9756,-59.657399999999996,39.6364,175,75
2026-05-09 17:10:07.374,2,-1.47,-0.56,0.41,170.2756,-24.847399999999993,62.6264,175,75
2026-05-09 17:10:07.374,2,-0.65,-3.01,0.16,212.7156,-124.5974,-84.93360000000001,175,75
2026-05-09 17:10:07.393,2,-2.85,-2.25,1.68,206.13559999999998,226.56260000000003,43.7164,175,75
2026-05-09 17:10:07.403,2,1.16,-1.29,1.11,196.19559999999998,461.86260000000004,220.85639999999998,175,75
2026-05-09 17:10:07.403,2,-0.52,-0.16,1.0,83.93560000000001,51.9226,130.3664,175,75
2026-05-09 17:10:07.433,2,-1.26,-2.06,1.33,147.41559999999998,155.70260000000002,181.4064,175,75
2026-05-09 17:10:07.433,2,-0.28,-1.54,1.54,111.68560000000001,201.74260000000004,243.1164,175,75
2026-05-09 17:10:07.447,2,-0.21,-1.81,1.64,138.7556,148.20260000000002,211.8264,175,75
2026-05-09 17:10:07.457,2,-0.12,-2.16,1.89,167.10559999999998,100.8926,233.5964,175,75
2026-05-09 17:10:07.470,2,-0.03,-1.91,1.96,145.0356,26.982600000000005,240.3664,175,75
2026-05-09 17:10:07.480,2,-0.19,-2.02,1.87,130.70559999999998,-38.0774,246.3464,175,75
2026-05-09 17:10:07.490,2,-0.31,-2.2,1.55,108.5756,-95.75739999999999,273.0464,175,75
2026-05-09 17:10:07.501,2,-0.25,-2.27,1.32,111.1356,-115.69739999999999,292.8664,175,75
2026-05-09 17:10:07.511,2,-0.23,-2.28,1.29,124.11560000000001,-126.60739999999998,311.5864,175,75
2026-05-09 17:10:07.536,2,-0.16,-2.24,1.37,137.5356,-153.3774,313.2364,175,75
2026-05-09 17:10:07.544,2,-0.1,-2.07,1.35,145.2756,-155.6974,313.5964,175,75
2026-05-09 17:10:07.556,2,0.03,-1.88,1.44,154.2456,-159.7174,313.1164,175,75
2026-05-09 17:10:07.556,2,0.11,-1.67,1.57,164.54559999999998,-168.1374,300.2464,175,75
2026-05-09 17:10:07.582,2,0.14,-1.62,1.77,185.4656,-196.36739999999998,285.3064,175,75
2026-05-09 17:10:07.582,2,0.13,-1.7,1.91,203.69559999999998,-228.0774,274.51640000000003,175,75
2026-05-09 17:10:07.595,2,0.18,-1.72,1.95,221.4356,-244.10739999999998,270.7364,175,75
2026-05-09 17:10:07.617,2,0.36,-1.65,1.91,259.30559999999997,-252.2874,265.4264,175,75
2026-05-09 17:10:07.630,2,0.59,-1.75,1.93,314.05559999999997,-266.9174,256.5864,175,75
2026-05-09 17:10:07.636,2,0.77,-2.1,2.06,381.49559999999997,-317.8274,243.1164,175,75
2026-05-09 17:10:07.661,2,0.61,-2.79,2.16,429.7856,-471.7974,227.3764,175,75
2026-05-09 17:10:07.671,2,0.47,-3.02,1.83,433.3256,-530.8174,199.2664,175,75
2026-05-09 17:10:07.681,2,0.24,-3.4,1.2,458.6956,-527.2174,144.5764,175,75
2026-05-09 17:10:07.704,2,0.26,-3.4,0.56,469.5456,-475.81739999999996,90.6764,175,75
2026-05-09 17:10:07.727,2,0.16,-2.9,0.32,445.9456,-443.01739999999995,65.4264,175,75
2026-05-09 17:10:07.746,2,0.12,-2.69,0.13,430.8256,-400.63739999999996,45.7964,175,75
2026-05-09 17:10:07.767,2,0.26,-2.23,-0.2,405.9456,-213.62739999999997,27.2564,175,75
2026-05-09 17:10:07.774,2,0.34,-1.83,-0.1,387.7756,-151.85739999999998,29.1464,175,75
2026-05-09 17:10:07.782,2,0.28,-1.5,-0.08,351.55559999999997,-133.5674,16.1564,175,75
2026-05-09 17:10:07.795,2,0.21,-1.26,-0.08,316.31559999999996,-127.2174,-0.2436000000000007,175,75
2026-05-09 17:10:07.811,2,0.17,-1.06,-0.06,284.9756,-110.3274,-15.183599999999998,175,75
2026-05-09 17:10:07.822,2,0.11,-0.87,-0.04,252.4756,-92.28739999999999,-29.2036,175,75
2026-05-09 17:10:07.825,2,0.04,-0.72,-0.08,216.07559999999998,-90.63739999999999,-47.8636,175,75
2026-05-09 17:10:07.843,2,-0.21,-0.48,-0.13,176.4956,-96.7374,-77.1336,175,75
2026-05-09 17:10:07.854,2,-0.41,-0.27,-0.23,169.3656,-79.9674,-96.21360000000001,175,75
2026-05-09 17:10:07.868,2,-0.67,-0.08,-0.31,166.6856,-76.2474,-111.34360000000001,175,75
2026-05-09 17:10:07.879,2,-0.84,0.13,-0.37,160.88559999999998,-63.807399999999994,-121.21360000000001,175,75
2026-05-09 17:10:07.885,2,-0.94,0.35,-0.44,146.8056,-42.2174,-127.74360000000001,175,75
2026-05-09 17:10:07.888,2,-1.15,0.46,-0.42,105.27560000000001,7.042600000000007,-133.3536,175,75
2026-05-09 17:10:07.901,2,-1.32,0.44,-0.41,65.46560000000001,49.9726,-137.0136,175,75
2026-05-09 17:10:07.930,2,-1.53,0.45,-0.37,22.475599999999996,101.56260000000002,-135.9736,175,75
2026-05-09 17:10:07.943,2,-1.63,0.48,-0.3,9.4256,131.19260000000003,-126.15360000000001,175,75
2026-05-09 17:10:07.955,2,-1.67,0.48,-0.21,4.9756,147.1026,-112.0736,175,75
2026-05-09 17:10:08.003,2,-1.93,0.49,-0.0,-27.2844,69.12260000000002,-84.5736,175,75
2026-05-09 17:10:08.003,2,-1.87,0.54,0.04,-38.1944,44.79260000000001,-71.09360000000001,175,75
2026-05-09 17:10:08.015,2,-1.85,0.5,-0.04,-46.7344,34.85260000000001,-57.133599999999994,175,75
2026-05-09 17:10:08.025,2,-1.65,0.31,-0.17,-70.8844,87.78260000000002,-30.1836,175,75
2026-05-09 17:10:08.041,2,-1.51,0.2,-0.14,-97.5244,154.4226,-25.0636,175,75
2026-05-09 17:10:08.062,2,-1.38,-0.25,0.0,-200.0244,296.56260000000003,13.5364,175,75
2026-05-09 17:10:08.072,2,-0.95,-0.75,0.11,-267.9544,347.9026,41.9564,175,75
2026-05-09 17:10:08.148,2,1.86,-3.71,0.94,-575.7543999999999,975.2826,-121.46360000000001,175,75
2026-05-09 17:10:08.160,2,2.57,-5.11,2.24,-634.2944,1033.3226,-271.9536,175,75
2026-05-09 17:10:08.196,2,-0.59,-9.22,6.57,-612.3444,567.7126000000001,-621.2836,175,75
2026-05-09 17:10:08.196,2,-0.72,-7.52,6.79,-584.6644,463.4526000000001,-666.5835999999999,175,75
2026-05-09 17:10:08.219,2,-2.53,-4.76,5.72,-228.86440000000002,517.4126,-626.5236,175,75
2026-05-09 17:10:08.241,2,-2.97,-3.14,5.09,96.8656,555.6426,-472.92359999999996,175,75
2026-05-09 17:10:08.254,2,-2.98,-2.49,4.94,145.94559999999998,454.0626,-351.1536,175,75
2026-05-09 17:10:08.254,2,-2.45,-2.31,4.32,198.1456,264.42260000000005,-218.2336,175,75
2026-05-09 17:10:08.266,2,-3.19,-2.59,3.81,257.2256,298.2626,-185.1836,175,75
2026-05-09 17:10:08.284,2,-2.05,-3.7,3.3,281.9856,156.50260000000003,-108.7836,175,75
2026-05-09 17:10:08.292,2,-2.34,-3.72,2.68,297.7156,43.262600000000006,-44.1436,175,75
2026-05-09 17:10:08.313,2,-2.25,-3.33,2.11,268.3256,-46.1874,-40.1836,175,75
2026-05-09 17:10:08.326,2,-2.05,-2.68,1.39,221.4356,-109.9074,-52.8636,175,75
2026-05-09 17:10:08.326,2,-2.28,-2.04,1.0,204.85559999999998,-121.1274,-52.3136,175,75
2026-05-09 17:10:08.350,2,-2.18,-1.17,0.59,257.8956,42.41260000000001,-118.0436,175,75
2026-05-09 17:10:08.366,2,-1.57,-0.35,0.33,373.87559999999996,158.45260000000002,-59.383599999999994,175,75
2026-05-09 17:10:08.379,2,-1.77,0.17,0.64,442.7156,236.62260000000003,21.096400000000003,175,75
2026-05-09 17:10:08.389,2,-1.69,0.29,0.78,447.3556,299.24260000000004,77.8064,175,75
2026-05-09 17:10:08.389,2,-1.4,0.22,0.91,399.5456,287.7126,110.7364,175,75
2026-05-09 17:10:08.406,2,-1.29,0.06,1.02,308.5756,215.2826,130.4264,175,75
2026-05-09 17:10:08.415,2,-1.5,-0.23,1.03,255.8856,54.18260000000001,145.7964,175,75
2026-05-09 17:10:08.430,2,-1.31,-0.47,0.87,236.25560000000002,-74.8474,151.7664,175,75
2026-05-09 17:10:08.442,2,-1.43,-0.49,0.64,229.66559999999998,-164.5374,147.3764,175,75
2026-05-09 17:10:08.454,2,-1.74,-0.53,0.38,227.04559999999998,-191.9774,154.3264,175,75
2026-05-09 17:10:08.496,2,-1.54,-0.66,0.13,282.8356,51.8626,226.6464,175,75
2026-05-09 17:10:08.514,2,-1.62,-0.94,0.61,310.1556,147.0426,233.1164,175,75
2026-05-09 17:10:08.514,2,-1.57,-1.07,0.98,299.6656,140.4626,244.8164,175,75
2026-05-09 17:10:08.537,2,-0.58,-1.17,1.16,268.5056,18.262600000000006,222.6264,175,75
2026-05-09 17:10:08.554,2,-1.53,-0.78,1.06,231.4956,-166.9774,222.8064,175,75
2026-05-09 17:10:08.554,2,-3.5,-1.08,2.44,225.4656,-156.0674,114.5764,175,75
2026-05-09 17:10:08.581,2,0.45,-0.93,0.32,192.04559999999998,-244.7874,144.2064,175,75
2026-05-09 17:10:08.581,2,-2.5,-0.2,0.91,225.4656,-103.9874,115.91640000000001,175,75
2026-05-09 17:10:08.603,2,-1.59,-0.85,0.79,261.74559999999997,192.7826,189.63639999999998,175,75
2026-05-09 17:10:08.614,2,-1.11,-0.75,1.07,295.7656,353.5126,235.97639999999998,175,75
2026-05-09 17:10:08.625,2,-0.87,-0.98,1.73,299.9156,373.87260000000003,259.1464,175,75
2026-05-09 17:10:08.647,2,-0.05,-1.04,2.41,278.3856,169.12260000000003,213.1164,175,75
2026-05-09 17:10:08.660,2,-1.0,-1.15,2.25,219.2456,78.2626,167.3164,175,75
2026-05-09 17:10:08.674,2,-0.8,-1.1,1.58,203.1456,-7.587399999999995,127.19640000000001,175,75
2026-05-09 17:10:08.686,2,-1.03,-0.71,1.1,224.7856,29.0026,107.68639999999999,175,75
2026-05-09 17:10:08.696,2,-1.26,-0.24,0.93,276.49559999999997,103.87260000000002,94.5164,175,75
2026-05-09 17:10:08.708,2,-0.71,0.16,0.96,355.3356,197.2926,61.8264,175,75
2026-05-09 17:10:08.719,2,-0.19,0.27,1.39,384.05559999999997,301.62260000000003,67.2564,175,75
2026-05-09 17:10:08.719,2,0.25,0.65,1.45,348.7556,351.0126,121.40639999999999,175,75
2026-05-09 17:10:08.745,2,0.3,1.17,1.41,292.4756,274.8526,113.84639999999999,175,75
2026-05-09 17:10:08.745,2,0.34,1.38,1.57,202.6556,230.0326,107.19640000000001,175,75
2026-05-09 17:10:08.782,2,0.47,1.33,1.65,136.0056,114.1826,129.5164,175,75
2026-05-09 17:10:08.792,2,0.57,1.4,1.43,123.99560000000001,58.202600000000004,130.6164,175,75
2026-05-09 17:10:08.802,2,0.58,1.36,1.22,103.1456,42.65260000000001,134.2664,175,75
2026-05-09 17:10:08.813,2,0.73,1.25,0.98,79.3656,42.90260000000001,134.7564,175,75
2026-05-09 17:10:08.820,2,0.73,1.25,0.72,65.82560000000001,45.092600000000004,126.6464,175,75
2026-05-09 17:10:08.829,2,0.33,1.28,0.57,57.5356,59.91260000000001,127.9864,175,75
2026-05-09 17:10:08.842,2,0.62,1.02,0.84,18.6356,63.32260000000001,154.5164,175,75
2026-05-09 17:10:08.867,2,1.0,0.85,1.03,-32.5844,-96.2474,163.0464,175,75
2026-05-09 17:10:08.878,2,0.8,0.79,0.85,-35.3344,-170.8774,165.97639999999998,175,75
2026-05-09 17:10:08.892,2,0.63,0.63,0.56,-37.5244,-234.8474,159.3964,175,75
2026-05-09 17:10:08.903,2,0.3,0.66,0.27,-20.6344,-290.7574,140.0664,175,75
2026-05-09 17:10:08.913,2,0.08,0.67,0.06,11.435599999999997,-322.2174,129.3964,175,75
2026-05-09 17:10:08.919,2,0.08,0.72,-0.23,55.15560000000001,-362.2174,120.2464,175,75
2026-05-09 17:10:08.936,2,-0.78,0.74,-0.98,83.6356,-278.0774,83.65639999999999,175,75
2026-05-09 17:10:08.947,2,-1.14,0.7,-1.21,51.495599999999996,-71.4874,79.2064,175,75
2026-05-09 17:10:08.972,2,-1.0,0.56,-0.35,28.2056,283.6926,92.56639999999999,175,75
2026-05-09 17:10:08.994,2,-0.79,0.33,0.24,19.6656,368.0826,101.09639999999999,175,75
2026-05-09 17:10:09.004,2,-0.78,0.15,0.79,-1.2444000000000024,352.1026,118.7164,175,75
2026-05-09 17:10:09.004,2,-0.4,0.03,1.12,-3.1944000000000017,253.20260000000002,143.0464,175,75
2026-05-09 17:10:09.020,2,-0.3,-0.12,1.42,23.2056,37.232600000000005,177.0164,175,75
2026-05-09 17:10:09.033,2,-0.26,-0.33,1.21,62.71560000000001,-160.1474,205.1264,175,75
2026-05-09 17:10:09.052,2,-0.28,-0.4,0.86,71.43560000000001,-252.8974,207.9864,175,75
2026-05-09 17:10:09.067,2,-0.34,-0.56,0.48,76.8056,-280.0274,197.0164,175,75
2026-05-09 17:10:09.067,2,-0.47,-0.64,0.15,85.6456,-258.0174,181.2864,175,75
2026-05-09 17:10:09.090,2,-0.7,-0.6,-0.27,93.2056,-173.3774,132.1364,175,75
2026-05-09 17:10:09.102,2,-0.63,-0.38,-0.35,116.2556,65.4626,103.2364,175,75
2026-05-09 17:10:09.114,2,-0.67,-0.35,-0.11,104.6656,147.0426,113.90639999999999,175,75
2026-05-09 17:10:09.127,2,-0.64,-0.41,0.06,82.1656,170.3426,109.0264,175,75
2026-05-09 17:10:09.138,2,-0.59,-0.46,0.29,47.71560000000001,173.26260000000002,102.7464,175,75
2026-05-09 17:10:09.138,2,-0.61,-0.47,0.4,26.005599999999998,174.7326,100.97640000000001,175,75
2026-05-09 17:10:09.152,2,-0.62,-0.46,0.48,8.695599999999999,176.37260000000003,99.93639999999999,175,75
2026-05-09 17:10:09.165,2,-0.65,-0.43,0.57,-5.634400000000003,170.89260000000002,98.2364,175,75
2026-05-09 17:10:09.175,2,-0.71,-0.34,0.55,-13.444400000000002,148.14260000000002,100.18639999999999,175,75
2026-05-09 17:10:09.188,2,-0.73,-0.25,0.52,-20.084400000000002,121.07260000000001,107.68639999999999,175,75
2026-05-09 17:10:09.200,2,-0.6,-0.32,0.47,-55.5744,108.63260000000001,123.59639999999999,175,75
2026-05-09 17:10:09.210,2,-0.56,-0.36,0.42,-72.8944,125.15259999999999,115.06639999999999,175,75
2026-05-09 17:10:09.238,2,-0.49,-0.37,0.4,-82.1044,143.45260000000002,103.59639999999999,175,75
2026-05-09 17:10:09.248,2,-0.42,-0.35,0.43,-83.4444,164.6026,87.13640000000001,175,75
2026-05-09 17:10:09.248,2,-0.41,-0.23,0.51,-83.1944,165.2826,80.2464,175,75
2026-05-09 17:10:09.261,2,-0.3,-0.22,0.79,-86.6144,180.2126,81.28639999999999,175,75
2026-05-09 17:10:09.274,2,-0.07,-0.18,0.88,-97.03439999999999,178.0226,93.2364,175,75
2026-05-09 17:10:09.284,2,0.44,-0.07,1.06,-110.5144,139.4226,109.81639999999999,175,75
2026-05-09 17:10:09.301,2,0.83,-0.04,1.14,-111.6144,117.2326,122.8664,175,75
2026-05-09 17:10:09.301,2,0.79,-0.1,1.11,-106.1244,115.34260000000002,115.3664,175,75
2026-05-09 17:10:09.311,2,0.97,-0.08,1.06,-102.4644,83.81260000000002,100.7964,175,75
2026-05-09 17:10:09.329,2,1.12,0.05,1.01,-106.1244,46.19260000000001,100.06639999999999,175,75
2026-05-09 17:10:09.340,2,1.24,0.05,0.79,-130.9444,8.63260000000001,103.1764,175,75
2026-05-09 17:10:09.352,2,1.16,-0.04,0.73,-138.3844,35.0326,100.6164,175,75
2026-05-09 17:10:09.362,2,0.96,-0.14,0.71,-133.4444,86.0126,95.85640000000001,175,75
2026-05-09 17:10:09.379,2,0.81,-0.22,0.79,-131.61440000000002,95.7626,96.9564,175,75
2026-05-09 17:10:09.379,2,0.64,-0.28,0.75,-141.4244,86.8026,105.85640000000001,175,75
2026-05-09 17:10:09.425,2,-0.12,-1.11,0.39,-226.0644,168.20260000000002,156.6464,175,75
2026-05-09 17:10:09.438,2,-0.27,-1.39,0.44,-251.2444,215.4026,171.7064,175,75
2026-05-09 17:10:09.449,2,-0.38,-1.61,0.52,-279.8444,253.45260000000002,184.1464,175,75
2026-05-09 17:10:09.458,2,-0.39,-1.77,0.55,-308.19440000000003,257.17260000000005,195.97639999999998,175,75
2026-05-09 17:10:09.485,2,-0.45,-2.27,0.14,-342.5244,261.37260000000003,201.4664,175,75
2026-05-09 17:10:09.496,2,-0.39,-2.45,-0.22,-341.9144,321.31260000000003,127.9864,175,75
2026-05-09 17:10:09.519,2,0.67,-2.41,0.29,-394.1144,449.0626,76.7664,175,75
2026-05-09 17:10:09.529,2,0.56,-2.45,0.61,-453.8644,533.5726,62.1364,175,75
2026-05-09 17:10:09.540,2,0.68,-3.4,0.84,-500.2144,553.3226,-20.1836,175,75
2026-05-09 17:10:09.551,2,0.84,-4.93,1.15,-537.2244,495.0326,-114.08359999999999,175,75
2026-05-09 17:10:09.560,2,0.6,-5.42,1.22,-558.9244,432.0426,-132.74360000000001,175,75
2026-05-09 17:10:09.580,2,0.31,-4.7,1.19,-536.0644,473.1426,-124.6936,175,75
2026-05-09 17:10:09.592,2,0.19,-4.35,1.52,-382.9544,532.2326,-194.02360000000002,175,75
2026-05-09 17:10:09.603,2,0.44,-4.66,2.41,-323.50440000000003,482.6526,-240.4836,175,75
2026-05-09 17:10:09.617,2,0.58,-4.23,2.87,-310.1444,409.24260000000004,-255.7936,175,75
2026-05-09 17:10:09.638,2,0.04,-3.41,2.31,-243.92440000000002,289.5426,-297.0736,175,75
2026-05-09 17:10:09.650,2,-0.1,-3.35,1.9,-201.30440000000002,291.37260000000003,-302.86359999999996,175,75
2026-05-09 17:10:09.663,2,-0.25,-3.29,1.79,-146.4244,335.7626,-300.6036,175,75
2026-05-09 17:10:09.674,2,-0.9,-3.16,1.94,-69.6044,418.0826,-279.3836,175,75
2026-05-09 17:10:09.680,2,-1.33,-2.79,2.24,-17.224400000000003,428.3226,-258.7136,175,75
2026-05-09 17:10:09.692,2,-1.64,-2.24,2.57,14.785599999999999,390.5826,-240.1836,175,75
2026-05-09 17:10:09.702,2,-1.97,-1.6,2.63,26.555600000000002,355.8926,-218.9636,175,75
2026-05-09 17:10:09.730,2,-2.15,-1.03,2.54,32.8356,301.43260000000004,-187.1336,175,75
2026-05-09 17:10:09.730,2,-2.23,-0.42,2.32,53.205600000000004,247.5326,-141.0936,175,75
2026-05-09 17:10:09.736,2,-2.16,0.0,2.16,89.4856,214.06260000000003,-107.1936,175,75
2026-05-09 17:10:09.750,2,-2.13,0.14,2.04,121.61560000000001,166.8626,-89.2036,175,75
2026-05-09 17:10:09.762,2,-2.3,-0.11,1.79,154.42559999999997,84.91260000000001,-72.37360000000001,175,75
2026-05-09 17:10:09.776,2,-2.52,-0.47,1.38,170.1556,-17.097399999999993,-53.35359999999999,175,75
2026-05-09 17:10:09.787,2,-2.64,-0.52,0.98,170.5256,-105.9374,-33.5936,175,75
2026-05-09 17:10:09.800,2,-2.57,-0.4,0.6,166.8056,-187.2874,-10.7336,175,75
2026-05-09 17:10:09.810,2,-2.36,-0.27,0.39,154.3656,-220.6374,18.7164,175,75
2026-05-09 17:10:09.853,2,-2.03,-0.04,0.24,114.9756,-165.1474,48.2364,175,75
2026-05-09 17:10:09.863,2,-1.92,-0.02,0.25,95.7056,-93.0174,67.1964,175,75
2026-05-09 17:10:09.875,2,-1.76,-0.04,0.3,87.8956,-28.687399999999997,85.97640000000001,175,75
2026-05-09 17:10:09.892,2,-1.62,-0.05,0.39,84.0556,15.822600000000008,102.9264,175,75
2026-05-09 17:10:09.905,2,-1.4,-0.07,0.57,79.0556,50.52260000000001,127.25640000000001,175,75
2026-05-09 17:10:09.914,2,-1.26,-0.06,0.71,79.2456,61.13260000000001,143.0464,175,75
2026-05-09 17:10:09.927,2,-1.15,-0.12,0.84,84.4256,58.1426,150.0664,175,75
2026-05-09 17:10:09.934,2,-1.1,-0.26,0.95,94.6056,40.702600000000004,152.0164,175,75
2026-05-09 17:10:09.950,2,-1.22,-0.56,1.04,110.0956,21.012600000000006,144.8164,175,75
2026-05-09 17:10:09.950,2,-1.35,-0.91,1.1,124.42559999999999,2.532600000000002,138.3564,175,75
2026-05-09 17:10:09.961,2,-1.34,-1.18,1.13,126.0756,-15.577399999999997,139.7564,175,75
2026-05-09 17:10:09.969,2,-1.07,-1.37,1.2,114.6056,-29.96739999999999,151.2164,175,75
2026-05-09 17:10:09.969,2,-0.74,-1.23,1.25,99.8556,-47.767399999999995,184.8164,175,75
2026-05-09 17:10:09.982,2,-0.69,-1.31,1.09,85.0356,-82.7674,205.3664,175,75
2026-05-09 17:10:10.004,2,-0.62,-1.54,1.08,90.0956,-45.63739999999999,236.2864,175,75
2026-05-09 17:10:10.004,2,-0.35,-1.61,1.28,103.0256,-20.937399999999997,257.2564,175,75
2026-05-09 17:10:10.020,2,-0.12,-1.88,1.64,117.77560000000001,-7.347399999999993,249.5764,175,75
2026-05-09 17:10:10.043,2,-0.3,-2.04,1.78,118.5756,-45.02739999999999,230.1864,175,75
2026-05-09 17:10:10.054,2,-0.45,-1.94,1.76,104.7256,-81.8574,221.7664,175,75
2026-05-09 17:10:10.066,2,-0.43,-1.86,1.52,98.32560000000001,-110.8774,248.5364,175,75
2026-05-09 17:10:10.066,2,-0.41,-1.9,1.45,114.18560000000001,-99.2974,276.8964,175,75
2026-05-09 17:10:10.077,2,-0.34,-2.0,1.58,121.1956,-105.14739999999999,284.3964,175,75
2026-05-09 17:10:10.088,2,-0.26,-1.93,1.62,120.39560000000002,-120.2674,280.4264,175,75
2026-05-09 17:10:10.120,2,-0.03,-1.47,1.69,124.05560000000001,-142.5274,241.4664,175,75
2026-05-09 17:10:10.131,2,-0.02,-1.35,1.72,124.48559999999999,-162.8274,223.8464,175,75
2026-05-09 17:10:10.141,2,-0.1,-1.34,1.74,131.3756,-173.2574,210.4864,175,75
2026-05-09 17:10:10.159,2,-0.14,-1.39,1.78,142.2856,-190.0874,206.2864,175,75
2026-05-09 17:10:10.159,2,-0.04,-1.34,1.86,152.5356,-210.0274,210.1864,175,75
2026-05-09 17:10:10.184,2,0.19,-1.21,1.85,162.4756,-204.5374,208.9064,175,75
2026-05-09 17:10:10.195,2,0.49,-1.37,1.92,194.48559999999998,-202.7074,191.4064,175,75
2026-05-09 17:10:10.195,2,0.54,-1.89,2.18,242.9656,-264.1074,163.47639999999998,175,75
2026-05-09 17:10:10.212,2,0.53,-2.13,2.35,268.0856,-345.4574,153.6564,175,75
2026-05-09 17:10:10.243,2,0.94,-1.92,1.97,320.1556,-638.0174,124.69640000000001,175,75
2026-05-09 17:10:10.264,2,0.4,-2.68,1.72,414.9756,-739.4774,77.50640000000001,175,75
2026-05-09 17:10:10.268,2,0.01,-3.18,1.5,447.2856,-753.0774,48.2964,175,75
2026-05-09 17:10:10.335,2,-0.65,-1.84,-1.03,328.6356,-433.68739999999997,-160.7336,175,75
2026-05-09 17:10:10.354,2,-0.52,-1.42,-1.17,348.2056,-177.8274,-141.52360000000002,175,75
2026-05-09 17:10:10.371,2,-0.19,-1.07,-0.27,356.37559999999996,75.8926,-99.3836,175,75
2026-05-09 17:10:10.381,2,-0.1,-1.03,0.21,344.4256,107.84260000000002,-75.30359999999999,175,75
2026-05-09 17:10:10.385,2,-0.17,-0.95,0.46,318.93559999999997,87.59260000000002,-72.0136,175,75
2026-05-09 17:10:10.394,2,-0.18,-0.81,0.7,289.4856,49.54260000000001,-84.87360000000001,175,75
2026-05-09 17:10:10.417,2,-0.1,-0.64,0.8,264.4856,-39.84739999999999,-101.21360000000001,175,75
2026-05-09 17:10:10.417,2,-0.4,-0.59,0.69,245.3956,-91.8574,-124.5736,175,75
2026-05-09 17:10:10.450,2,-0.62,-0.42,0.37,212.7156,-124.2374,-168.4736,175,75
2026-05-09 17:10:10.450,2,-0.82,-0.26,0.24,197.41559999999998,-115.0274,-190.6736,175,75
2026-05-09 17:10:10.460,2,-1.01,-0.16,0.12,181.98559999999998,-82.03739999999999,-209.6336,175,75
2026-05-09 17:10:10.471,2,-1.09,-0.09,-0.0,169.1156,-42.64739999999999,-221.0336,175,75
2026-05-09 17:10:10.491,2,-1.2,-0.06,0.01,158.32559999999998,9.672600000000003,-230.36360000000002,175,75
2026-05-09 17:10:10.502,2,-1.14,-0.08,0.1,153.63559999999998,49.6726,-233.2936,175,75
2026-05-09 17:10:10.513,2,-1.24,-0.11,0.2,141.3756,47.35260000000001,-240.6736,175,75
2026-05-09 17:10:10.529,2,-1.42,-0.12,0.25,115.64560000000002,28.692600000000013,-259.4536,175,75
2026-05-09 17:10:10.529,2,-1.51,-0.1,0.14,95.5856,17.4726,-268.4736,175,75
2026-05-09 17:10:10.542,2,-1.65,-0.06,0.03,75.82560000000001,18.1426,-270.48359999999997,175,75
2026-05-09 17:10:10.556,2,-1.76,0.01,-0.17,58.265600000000006,45.702600000000004,-265.42359999999996,175,75
2026-05-09 17:10:10.567,2,-1.74,0.12,-0.31,48.0856,94.00260000000002,-244.9936,175,75
2026-05-09 17:10:10.578,2,-1.63,0.24,-0.21,44.485600000000005,137.2926,-212.1936,175,75
2026-05-09 17:10:10.578,2,-1.54,0.23,0.01,30.645599999999998,121.6826,-187.1936,175,75
2026-05-09 17:10:10.605,2,-1.35,0.25,0.25,-2.7744,61.62260000000002,-166.4636,175,75
2026-05-09 17:10:10.617,2,-1.33,0.37,0.33,-38.5644,13.262600000000006,-150.6036,175,75
2026-05-09 17:10:10.617,2,-1.35,0.49,0.25,-88.8644,-5.817399999999992,-120.5436,175,75
2026-05-09 17:10:10.628,2,-1.35,0.53,0.04,-127.7744,0.212600000000009,-84.5136,175,75
2026-05-09 17:10:10.642,2,-1.51,0.55,-0.12,-158.1944,35.342600000000004,-46.7636,175,75
2026-05-09 17:10:10.653,2,-1.63,0.56,-0.22,-177.2844,134.6726,17.9264,175,75
2026-05-09 17:10:10.663,2,-1.68,0.4,-0.2,-184.9644,224.8526,63.5964,175,75
2026-05-09 17:10:10.686,2,-1.17,0.43,0.31,-213.2544,372.4726,191.8264,175,75
2026-05-09 17:10:10.711,2,-0.09,-0.28,0.85,-335.94440000000003,390.5226,283.5964,175,75
2026-05-09 17:10:10.737,2,0.47,-0.76,0.86,-427.5244,335.4026,316.82640000000004,175,75
2026-05-09 17:10:10.749,2,0.43,-1.12,0.47,-493.50440000000003,244.42260000000005,333.4764,175,75
2026-05-09 17:10:10.749,2,0.55,-1.89,0.51,-493.62440000000004,218.87260000000003,323.4164,175,75
2026-05-09 17:10:10.765,2,1.29,-2.8,0.69,-490.0244,260.2126,321.0964,175,75
2026-05-09 17:10:10.765,2,1.86,-3.61,1.03,-523.8044,293.6326,302.9864,175,75
2026-05-09 17:10:10.778,2,2.41,-4.21,1.53,-556.0043999999999,317.0426,276.2864,175,75
2026-05-09 17:10:10.790,2,2.9,-4.66,2.12,-584.6644,325.9526,246.5864,175,75
2026-05-09 17:10:10.790,2,3.63,-4.7,2.73,-618.6243999999999,216.19260000000003,186.2864,175,75
2026-05-09 17:10:10.803,2,3.29,-4.81,3.17,-620.6343999999999,22.592600000000004,86.40639999999999,175,75
2026-05-09 17:10:10.819,2,2.92,-4.99,3.07,-603.3843999999999,-54.53739999999999,23.1164,175,75
2026-05-09 17:10:10.848,2,2.71,-3.06,2.67,-404.4744,164.4226,-116.2836,175,75
2026-05-09 17:10:10.859,2,2.3,-3.24,2.98,-340.8244,219.8526,-158.4136,175,75
2026-05-09 17:10:10.870,2,1.88,-3.69,3.39,-256.7944,221.98260000000005,-185.9136,175,75
2026-05-09 17:10:10.880,2,1.49,-3.82,4.02,-208.92440000000002,203.39260000000002,-187.3136,175,75
2026-05-09 17:10:10.890,2,0.72,-3.44,4.74,-211.1844,225.70260000000002,-170.9136,175,75
2026-05-09 17:10:10.898,2,-0.16,-2.66,4.61,-167.89440000000002,255.89260000000002,-144.7536,175,75
2026-05-09 17:10:10.923,2,-0.84,-1.96,2.75,166.19559999999998,194.5426,-129.8736,175,75
2026-05-09 17:10:10.934,2,-0.79,-2.1,2.36,237.8956,277.23260000000005,-178.9636,175,75
2026-05-09 17:10:10.946,2,-0.58,-1.62,2.65,239.85559999999998,317.5326,-128.7836,175,75
2026-05-09 17:10:10.957,2,-0.93,-1.18,2.53,249.54559999999998,255.89260000000002,-108.2936,175,75
2026-05-09 17:10:10.988,2,-1.07,-0.73,2.08,280.2156,4.60260000000001,-107.86359999999999,175,75
2026-05-09 17:10:11.010,2,-1.16,-1.14,1.5,306.0756,-86.3074,-76.8836,175,75
2026-05-09 17:10:11.021,2,-1.37,-1.33,1.23,310.7056,-78.9874,-73.1736,175,75
2026-05-09 17:10:11.056,2,-1.94,-1.71,0.24,276.2556,-93.7474,-117.2536,175,75
2026-05-09 17:10:11.090,2,-1.83,-1.05,-0.14,341.37559999999996,82.9626,-84.5136,175,75
2026-05-09 17:10:11.113,2,-1.68,-0.82,0.17,371.9856,380.8926,22.0764,175,75
2026-05-09 17:10:11.131,2,-1.88,-1.14,0.65,384.5456,555.0926000000001,109.1464,175,75
2026-05-09 17:10:11.165,2,-1.23,-1.24,1.22,423.81559999999996,601.2526,182.13639999999998,175,75
2026-05-09 17:10:11.187,2,-1.66,-1.59,1.5,297.2256,-44.78739999999999,243.0464,175,75
2026-05-09 17:10:11.205,2,-1.45,-2.58,2.12,297.2856,124.6726,4.0864,175,75
2026-05-09 17:10:11.216,2,1.8,-2.69,1.24,287.2856,143.26260000000002,54.6364,175,75
2026-05-09 17:10:11.261,2,0.01,-0.97,2.55,363.0256,92.59260000000002,244.3264,175,75
2026-05-09 17:10:11.273,2,0.22,-0.74,2.08,342.7756,4.732600000000005,164.2064,175,75
2026-05-09 17:10:11.287,2,0.2,-0.57,1.69,340.0356,37.65260000000001,139.8764,175,75
2026-05-09 17:10:11.298,2,0.19,-0.34,1.41,342.1656,137.2326,115.85640000000001,175,75
2026-05-09 17:10:11.298,2,0.24,0.07,1.53,362.7156,271.43260000000004,102.68639999999999,175,75
2026-05-09 17:10:11.324,2,0.43,0.89,2.16,343.0856,390.7626,69.0864,175,75
2026-05-09 17:10:11.344,2,0.57,1.34,2.32,301.74559999999997,372.5326,70.4264,175,75
2026-05-09 17:10:11.356,2,0.63,1.57,2.3,232.7756,237.7126,85.4864,175,75
2026-05-09 17:10:11.369,2,0.68,1.48,2.1,217.7756,208.93260000000004,83.90639999999999,175,75
2026-05-09 17:10:11.379,2,0.7,1.39,1.84,191.6856,187.0426,74.3964,175,75
2026-05-09 17:10:11.398,2,0.56,1.33,1.58,131.5556,231.50260000000003,58.7164,175,75
2026-05-09 17:10:11.419,2,0.43,1.14,1.7,100.2756,251.25260000000003,53.5364,175,75
2026-05-09 17:10:11.428,2,0.37,1.13,1.73,87.96560000000001,224.12260000000003,63.1764,175,75
2026-05-09 17:10:11.435,2,0.34,1.06,1.77,71.5556,145.89260000000002,88.35640000000001,175,75
2026-05-09 17:10:11.495,2,0.11,0.56,0.68,82.2256,-145.5774,127.37639999999999,175,75
2026-05-09 17:10:11.507,2,-0.07,0.59,0.38,121.43560000000001,-179.7874,123.7164,175,75
2026-05-09 17:10:11.528,2,-0.55,0.55,-0.11,139.7256,-226.48739999999998,130.8564,175,75
2026-05-09 17:10:11.550,2,-1.14,0.43,-0.58,81.0056,-144.04739999999998,135.0064,175,75
2026-05-09 17:10:11.561,2,-1.29,0.24,-0.67,56.5556,-18.197399999999995,145.4264,175,75
2026-05-09 17:10:11.567,2,-1.19,0.1,-0.54,52.65560000000001,62.532600000000016,155.85639999999998,175,75
2026-05-09 17:10:11.580,2,-1.1,-0.04,-0.28,51.6156,125.7626,165.3664,175,75
2026-05-09 17:10:11.590,2,-0.98,-0.2,0.03,39.3056,173.0226,173.9064,175,75
2026-05-09 17:10:11.610,2,-0.87,-0.4,0.36,7.5955999999999975,191.07260000000002,185.3664,175,75
2026-05-09 17:10:11.623,2,-0.69,-0.56,0.63,-23.384400000000003,165.5826,197.6264,175,75
2026-05-09 17:10:11.647,2,-0.71,-0.74,0.86,-14.354400000000002,-95.39739999999999,227.3164,175,75
2026-05-09 17:10:11.680,2,-0.54,-0.95,0.47,-6.554400000000001,-139.9074,215.97639999999998,175,75
2026-05-09 17:10:11.686,2,-0.51,-0.92,0.32,3.325599999999998,-128.6874,197.9264,175,75
2026-05-09 17:10:11.752,2,-0.69,-0.61,0.1,76.4956,199.48260000000005,131.8964,175,75
2026-05-09 17:10:11.762,2,-0.72,-0.61,0.22,54.54560000000001,222.4126,134.5164,175,75
2026-05-09 17:10:11.774,2,-0.69,-0.63,0.36,36.6156,222.0426,136.9564,175,75
2026-05-09 17:10:11.818,2,-0.82,-0.39,0.23,-59.23440000000001,118.75260000000002,163.2364,175,75
2026-05-09 17:10:11.863,2,-0.61,-0.67,-0.16,-171.79440000000002,133.0826,225.3664,175,75
2026-05-09 17:10:11.875,2,-0.13,-0.22,0.09,-195.08440000000002,135.76260000000002,288.1164,175,75
2026-05-09 17:10:11.909,2,0.95,-1.53,0.58,-244.9044,-59.53739999999999,355.6764,175,75
2026-05-09 17:10:11.920,2,1.17,-1.79,0.39,-291.7344,-176.42739999999998,359.45640000000003,175,75
2026-05-09 17:10:11.930,2,1.46,-1.85,-0.08,-315.2144,-256.3074,347.07640000000004,175,75
2026-05-09 17:10:11.943,2,1.39,-1.93,-0.59,-291.06440000000003,-237.4074,346.6464,175,75
2026-05-09 17:10:11.958,2,0.83,-2.79,-1.01,-255.39440000000002,11.8626,338.1764,175,75
2026-05-09 17:10:11.965,2,0.73,-3.22,-0.83,-278.38439999999997,129.00260000000003,341.1564,175,75
2026-05-09 17:10:11.992,2,0.8,-3.37,-0.41,-275.7544,249.9126,330.7964,175,75
2026-05-09 17:10:11.992,2,0.83,-3.36,-0.24,-244.9044,257.7126,312.62640000000005,175,75
2026-05-09 17:10:12.010,2,0.75,-3.58,0.03,-236.1844,251.80260000000004,279.20640000000003,175,75
2026-05-09 17:10:12.023,2,0.55,-3.78,0.01,-276.6144,261.74260000000004,257.3164,175,75
2026-05-09 17:10:12.034,2,0.21,-3.88,-0.13,-317.8944,299.24260000000004,226.7664,175,75
2026-05-09 17:10:12.034,2,0.15,-3.92,-0.19,-327.4644,365.7026,188.8464,175,75
2026-05-09 17:10:12.052,2,0.45,-3.93,0.1,-305.5744,432.6526,162.6864,175,75
2026-05-09 17:10:12.067,2,0.73,-3.94,0.65,-315.4544,489.6726,146.8264,175,75
2026-05-09 17:10:12.079,2,0.66,-4.1,1.0,-356.12440000000004,516.8626,99.75640000000001,175,75
2026-05-09 17:10:12.090,2,0.21,-4.18,1.02,-384.0544,544.7326,31.0964,175,75
2026-05-09 17:10:12.098,2,-0.24,-3.96,0.91,-378.8644,588.8726,-31.343600000000002,175,75
2026-05-09 17:10:12.116,2,-0.52,-3.71,0.97,-335.69440000000003,696.0726,-93.0436,175,75
2026-05-09 17:10:12.116,2,-0.69,-3.7,1.09,-286.7344,792.5926000000001,-133.2936,175,75
2026-05-09 17:10:12.127,2,-1.04,-3.81,1.27,-214.4144,900.4026,-177.5636,175,75
2026-05-09 17:10:12.147,2,-1.43,-3.87,1.42,-133.3844,917.1726,-249.69360000000003,175,75
2026-05-09 17:10:12.160,2,-1.76,-3.67,1.78,-44.0544,824.8526,-321.8836,175,75
2026-05-09 17:10:12.171,2,-1.5,-3.33,2.24,-6.554400000000001,725.8926,-355.42359999999996,175,75
2026-05-09 17:10:12.180,2,-1.13,-2.53,2.66,-26.7344,503.57259999999997,-352.92359999999996,175,75
2026-05-09 17:10:12.195,2,-1.2,-2.04,2.75,-64.5344,339.24260000000004,-349.99359999999996,175,75
2026-05-09 17:10:12.198,2,-1.34,-1.64,2.37,-117.8944,162.3526,-333.5336,175,75
2026-05-09 17:10:12.209,2,-1.49,-1.24,1.68,-129.5344,123.1426,-308.1036,175,75
2026-05-09 17:10:12.225,2,-1.77,-0.72,1.19,-87.7144,155.76260000000002,-253.5936,175,75
2026-05-09 17:10:12.236,2,-1.87,-0.44,1.09,-23.1944,201.19260000000003,-192.9236,175,75
2026-05-09 17:10:12.248,2,-1.91,-0.34,1.26,31.435599999999997,206.68260000000004,-146.8836,175,75
2026-05-09 17:10:12.253,2,-1.99,-0.3,1.53,63.0256,165.89260000000002,-105.12360000000001,175,75
2026-05-09 17:10:12.272,2,-2.03,-0.25,1.75,66.4956,70.7026,-65.5436,175,75
2026-05-09 17:10:12.325,2,-2.0,0.22,1.1,10.215599999999998,-13.137399999999992,62.0164,175,75
2026-05-09 17:10:12.336,2,-1.99,0.22,1.14,18.6356,40.2826,87.19640000000001,175,75
2026-05-09 17:10:12.415,2,-1.67,-0.05,1.29,43.57560000000001,14.422600000000003,145.3064,175,75
2026-05-09 17:10:12.441,2,-1.43,-0.07,1.23,69.4256,-81.36739999999999,172.3164,175,75
2026-05-09 17:10:12.446,2,-1.33,-0.07,1.18,78.2656,-120.9374,180.3064,175,75
2026-05-09 17:10:12.457,2,-1.24,-0.12,1.12,87.04560000000001,-152.5274,185.6164,175,75
2026-05-09 17:10:12.462,2,-1.08,-0.21,1.06,94.9156,-170.7574,187.13639999999998,175,75
2026-05-09 17:10:12.465,2,-0.97,-0.32,1.03,103.1456,-186.73739999999998,184.1464,175,75
2026-05-09 17:10:12.483,2,-1.02,-0.35,0.96,108.6956,-188.1374,183.47639999999998,175,75
2026-05-09 17:10:12.509,2,-0.94,-0.7,0.9,121.0756,-127.64739999999999,190.5464,175,75
2026-05-09 17:10:12.533,2,-1.08,-2.12,1.28,119.48559999999999,-131.0674,164.2664,175,75
2026-05-09 17:10:12.545,2,-0.98,-2.74,1.61,118.4456,-170.5174,176.3464,175,75
2026-05-09 17:10:12.555,2,-0.23,-2.33,1.73,111.1356,-242.5874,233.9064,175,75
2026-05-09 17:10:12.566,2,-0.09,-1.89,1.69,106.86560000000001,-295.3274,236.5864,175,75
2026-05-09 17:10:12.574,2,-0.18,-2.21,1.56,133.0856,-335.87739999999997,217.50639999999999,175,75
2026-05-09 17:10:12.586,2,-0.28,-2.53,1.51,158.8156,-355.0274,211.7664,175,75
2026-05-09 17:10:12.586,2,-0.3,-2.67,1.33,172.35559999999998,-356.12739999999997,197.6264,175,75
2026-05-09 17:10:12.597,2,-0.27,-2.7,1.14,183.57559999999998,-335.0874,183.6564,175,75
2026-05-09 17:10:12.669,2,0.08,-2.36,0.89,245.2756,-52.157399999999996,190.4864,175,75
2026-05-09 17:10:12.669,2,0.16,-2.29,1.12,247.2856,-37.4674,194.75639999999999,175,75
2026-05-09 17:10:12.686,2,0.15,-2.2,1.28,242.7756,-52.89739999999999,191.6464,175,75
2026-05-09 17:10:12.697,2,0.16,-1.99,1.41,235.7656,-86.4874,186.3464,175,75
2026-05-09 17:10:12.697,2,0.1,-1.78,1.43,228.69559999999998,-140.1474,176.7664,175,75
2026-05-09 17:10:12.725,2,0.08,-1.46,1.43,247.4756,-342.76739999999995,131.8964,175,75
2026-05-09 17:10:12.752,2,0.56,-1.32,1.34,271.74559999999997,-406.18739999999997,107.8064,175,75
2026-05-09 17:10:12.776,2,0.47,-1.55,1.37,320.3356,-418.49739999999997,54.5764,175,75
2026-05-09 17:10:12.783,2,0.09,-1.91,1.36,337.1056,-402.1574,34.7564,175,75
2026-05-09 17:10:12.799,2,-0.3,-2.44,1.3,347.5356,-391.6774,14.5164,175,75
2026-05-09 17:10:12.799,2,-0.58,-3.0,1.06,336.80559999999997,-403.13739999999996,-8.6536,175,75
2026-05-09 17:10:12.804,2,-0.51,-2.84,0.84,317.4756,-394.4174,-15.1236,175,75
2026-05-09 17:10:12.876,2,-0.28,-2.17,0.86,334.7856,-307.9574,46.3464,175,75
2026-05-09 17:10:12.896,2,-0.37,-2.03,0.73,310.8856,-308.0774,37.2564,175,75
2026-05-09 17:10:12.944,2,-0.32,-1.43,0.61,291.9256,-251.79739999999998,25.1864,175,75
2026-05-09 17:10:12.966,2,-0.32,-0.98,0.61,269.05559999999997,-200.6374,4.0864,175,75
2026-05-09 17:10:12.977,2,-0.36,-0.86,0.58,257.4756,-189.5374,-9.573599999999999,175,75
2026-05-09 17:10:12.978,2,-0.43,-0.73,0.52,243.3856,-175.7574,-27.5636,175,75
2026-05-09 17:10:12.992,2,-0.52,-0.63,0.47,233.93559999999997,-158.1374,-44.693599999999996,175,75
2026-05-09 17:10:13.005,2,-0.57,-0.53,0.46,229.54559999999998,-134.04739999999998,-62.5636,175,75
2026-05-09 17:10:13.052,2,-0.68,-0.37,0.46,217.6556,-86.2474,-112.80359999999999,175,75
2026-05-09 17:10:13.062,2,-0.67,-0.3,0.46,206.4356,-78.6874,-128.5336,175,75
2026-05-09 17:10:13.081,2,-0.8,-0.24,0.54,183.57559999999998,-88.25739999999999,-153.3536,175,75
2026-05-09 17:10:13.120,2,-0.82,-0.31,0.44,142.6556,-124.78739999999999,-188.4736,175,75
2026-05-09 17:10:13.144,2,-0.88,-0.34,0.37,107.2256,-119.17739999999999,-232.0136,175,75
2026-05-09 17:10:13.157,2,-0.8,-0.33,0.39,94.3656,-118.31739999999999,-251.64360000000002,175,75
2026-05-09 17:10:13.167,2,-0.73,-0.35,0.42,78.8156,-128.6874,-265.42359999999996,175,75
2026-05-09 17:10:13.179,2,-0.65,-0.32,0.31,31.005599999999998,-144.23739999999998,-286.5836,175,75
2026-05-09 17:10:13.234,2,-0.6,-0.1,0.2,4.915599999999998,-154.4774,-289.2636,175,75
2026-05-09 17:10:13.234,2,0.48,0.54,-0.17,-141.8544,-193.7474,-207.0736,175,75
2026-05-09 17:10:13.248,2,0.67,0.5,-0.42,-205.9444,-187.4674,-206.0336,175,75
2026-05-09 17:10:13.271,2,1.1,0.85,-0.64,-216.61440000000002,-192.4074,-166.2836,175,75
2026-05-09 17:10:13.281,2,1.44,1.23,-0.8,-214.8444,-223.56740000000002,-121.34360000000001,175,75
2026-05-09 17:10:13.281,2,1.9,1.41,-1.14,-195.2744,-264.9674,-67.0736,175,75
2026-05-09 17:10:13.292,2,2.01,1.25,-1.57,-160.33440000000002,-289.2974,-21.583599999999997,175,75
2026-05-09 17:10:13.292,2,1.93,1.02,-1.87,-125.7544,-233.31740000000002,24.3964,175,75
2026-05-09 17:10:13.325,2,1.84,0.95,-1.75,-121.4944,-112.0974,62.8664,175,75
2026-05-09 17:10:13.352,2,1.49,1.03,-0.3,-145.9444,-173.0774,121.5264,175,75
2026-05-09 17:10:13.387,2,0.93,0.85,-0.22,-223.7444,-133.4974,155.6164,175,75
2026-05-09 17:10:13.413,2,0.64,0.24,-0.03,-284.3544,-115.5774,175.85639999999998,175,75
2026-05-09 17:10:13.458,2,-0.5,-0.35,0.49,-282.6444,166.31260000000003,153.5364,175,75
2026-05-09 17:10:13.469,2,-0.51,-0.45,0.69,-280.4544,167.6526,132.6864,175,75
2026-05-09 17:10:13.484,2,-0.51,-0.5,1.02,-289.6644,115.28260000000002,111.7664,175,75
2026-05-09 17:10:13.486,2,-0.52,-0.45,1.15,-303.68440000000004,39.6726,95.6764,175,75
2026-05-09 17:10:13.505,2,-0.57,-0.37,1.16,-323.56440000000003,-21.977399999999996,88.84639999999999,175,75
2026-05-09 17:10:13.519,2,-0.71,-0.17,0.98,-332.1644,-44.59739999999999,98.41640000000001,175,75
2026-05-09 17:10:13.578,2,-1.04,-0.19,0.76,-293.25440000000003,25.6426,106.5264,175,75
2026-05-09 17:10:13.578,2,-0.98,-0.27,0.81,-298.8044,41.19260000000001,108.59639999999999,175,75
2026-05-09 17:10:13.596,2,-0.81,-0.41,0.83,-286.7944,84.97260000000001,90.97640000000001,175,75
2026-05-09 17:10:13.617,2,-0.79,-0.47,0.86,-274.1144,137.7826,69.2664,175,75
2026-05-09 17:10:13.632,2,-0.8,-0.45,0.85,-267.4644,108.1426,42.626400000000004,175,75
2026-05-09 17:10:13.672,2,-0.51,-0.41,0.6,-308.44440000000003,70.28260000000002,61.0364,175,75
2026-05-09 17:10:13.672,2,-1.44,1.05,0.41,-317.4644,-19.78739999999999,101.4664,175,75
2026-05-09 17:10:13.690,2,0.01,-2.19,0.33,-276.3644,-145.3274,-66.52359999999999,175,75
2026-05-09 17:10:13.715,2,-0.56,0.77,0.97,-393.50440000000003,-139.6574,18.1764,175,75
2026-05-09 17:10:13.726,2,-0.45,-1.05,1.38,-209.9644,-88.86739999999999,111.4664,175,75
2026-05-09 17:10:13.736,2,0.13,-0.72,1.02,-367.0344,-113.31739999999999,105.91640000000001,175,75
2026-05-09 17:10:13.747,2,-0.05,-0.67,0.65,-317.2844,-112.4074,90.06639999999999,175,75
2026-05-09 17:10:13.778,2,0.12,-1.22,0.78,-271.9744,17.042600000000007,65.91640000000001,175,75
2026-05-09 17:10:13.808,2,0.67,-0.19,1.08,-143.3844,91.8626,101.28639999999999,175,75
2026-05-09 17:10:13.837,2,0.92,-0.61,1.38,-146.7344,3.202600000000004,89.81639999999999,175,75
2026-05-09 17:10:13.856,2,0.4,-0.75,0.6,-208.3144,-93.4974,45.7964,175,75
2026-05-09 17:10:13.875,2,0.39,-0.54,0.35,-164.4744,4.85260000000001,53.3564,175,75
2026-05-09 17:10:13.875,2,0.45,-0.49,0.46,-107.95439999999999,114.00260000000002,67.5064,175,75
2026-05-09 17:10:13.899,2,0.47,-0.57,0.86,-69.6644,171.74259999999998,75.97640000000001,175,75
2026-05-09 17:10:13.899,2,0.89,-0.69,1.33,-59.84440000000001,103.63260000000001,66.7064,175,75
2026-05-09 17:10:13.910,2,0.66,-0.7,1.57,-70.3344,3.0825999999999993,54.2664,175,75
2026-05-09 17:10:14.027,2,0.59,-0.83,1.15,-33.8644,9.422600000000003,30.9764,175,75
2026-05-09 17:10:14.046,2,0.41,-0.84,0.94,-52.7744,-38.627399999999994,28.6564,175,75
2026-05-09 17:10:14.066,2,0.46,-0.92,1.06,-23.994400000000002,4.542600000000007,32.2564,175,75
2026-05-09 17:10:14.085,2,0.52,-0.89,0.92,-32.1644,-18.987399999999994,38.7164,175,75
2026-05-09 17:10:14.103,2,0.62,-0.93,0.97,-16.1244,10.342600000000004,33.906400000000005,175,75
2026-05-09 17:10:14.119,2,0.66,-0.96,1.02,-13.134400000000001,7.232600000000005,30.0664,175,75
2026-05-09 17:10:14.141,2,0.72,-1.0,1.12,-11.614400000000002,-7.287399999999991,25.3664,175,75
2026-05-09 17:10:14.153,2,0.73,-0.97,1.17,-17.104400000000002,-27.587399999999995,20.9164,175,75
2026-05-09 17:10:14.176,2,0.57,-0.99,1.06,-1.674400000000002,0.34260000000000446,10.5464,175,75
2026-05-09 17:10:14.190,2,0.44,-1.26,1.19,11.615599999999997,3.8126000000000033,2.3764000000000003,175,75
2026-05-09 17:10:14.225,2,0.7,-1.04,1.13,26.865599999999997,-29.53739999999999,25.9164,175,75
2026-05-09 17:10:14.237,2,0.63,-1.13,1.16,23.875600000000002,-45.5774,16.8964,175,75
2026-05-09 17:10:14.249,2,0.55,-1.12,1.04,17.4156,-57.89739999999999,6.2864,175,75
2026-05-09 17:10:14.271,2,0.53,-1.04,0.93,17.4156,-40.087399999999995,-2.6235999999999997,175,75
2026-05-09 17:10:14.280,2,0.5,-0.96,0.95,24.8556,-17.46739999999999,-5.8536,175,75
2026-05-09 17:10:14.314,2,0.4,-0.87,1.22,31.005599999999998,-24.96739999999999,-2.1936,175,75
2026-05-09 17:10:14.325,2,0.3,-0.85,1.2,33.7556,-32.34739999999999,-0.5435999999999996,175,75
2026-05-09 17:10:14.325,2,0.24,-0.84,1.2,39.855599999999995,-28.257399999999997,-0.06359999999999921,175,75
2026-05-09 17:10:14.337,2,0.16,-0.85,1.22,46.745599999999996,-22.46739999999999,0.3664000000000005,175,75
2026-05-09 17:10:14.345,2,0.07,-0.87,1.22,50.15560000000001,-17.21739999999999,2.6264000000000003,175,75
2026-05-09 17:10:14.361,2,0.03,-0.89,1.23,56.5556,-11.547399999999996,4.8164,175,75
2026-05-09 17:10:14.387,2,-0.01,-0.88,1.28,66.9256,-14.237399999999994,10.8564,175,75
2026-05-09 17:10:14.397,2,-0.07,-0.85,1.3,71.07560000000001,-26.307399999999994,15.8564,175,75
2026-05-09 17:10:14.411,2,-0.11,-0.84,1.28,72.2256,-38.627399999999994,20.6164,175,75
2026-05-09 17:10:14.411,2,-0.14,-0.86,1.26,72.5956,-48.017399999999995,23.476399999999998,175,75
2026-05-09 17:10:14.445,2,-0.3,-1.0,1.13,68.8756,-83.0774,34.6364,175,75
2026-05-09 17:10:14.467,2,-0.31,-0.96,1.0,61.6156,-126.3074,48.1764,175,75
2026-05-09 17:10:14.479,2,-0.26,-0.96,0.96,51.6156,-173.0174,56.1564,175,75
2026-05-09 17:10:14.501,2,-0.22,-1.04,0.83,30.395599999999998,-235.3974,61.1564,175,75
2026-05-09 17:10:14.551,2,-0.43,-0.92,0.21,-19.9644,-226.9174,63.5964,175,75
2026-05-09 17:10:14.561,2,-0.39,-0.87,0.15,-5.694400000000002,-172.8274,64.6964,175,75
2026-05-09 17:10:14.561,2,-0.27,-0.85,0.22,16.375600000000002,-124.47739999999999,64.5164,175,75
2026-05-09 17:10:14.572,2,-0.22,-0.76,0.39,31.685599999999997,-92.95739999999999,60.9164,175,75
2026-05-09 17:10:14.601,2,-0.14,-0.78,0.57,29.975599999999996,-100.2674,60.1264,175,75
2026-05-09 17:10:14.601,2,-0.07,-0.78,0.6,12.415600000000001,-127.95739999999999,60.8564,175,75
2026-05-09 17:10:14.611,2,-0.06,-0.82,0.51,-0.39440000000000097,-136.9174,61.4064,175,75
2026-05-09 17:10:14.625,2,-0.03,-0.87,0.39,-3.384400000000003,-124.0474,61.4064,175,75
2026-05-09 17:10:14.625,2,0.02,-0.88,0.34,1.1356000000000002,-91.7974,61.4664,175,75
2026-05-09 17:10:14.647,2,0.21,-0.93,0.45,8.6356,-59.657399999999996,60.4264,175,75
2026-05-09 17:10:14.647,2,0.33,-1.06,0.63,6.805599999999998,-50.087399999999995,54.0264,175,75
2026-05-09 17:10:14.660,2,0.31,-1.14,0.68,-2.4044000000000025,-58.56739999999999,48.1164,175,75
2026-05-09 17:10:14.673,2,0.29,-1.22,0.72,-2.7144000000000013,-54.417399999999994,31.0364,175,75
2026-05-09 17:10:14.683,2,0.35,-1.25,0.76,9.305600000000002,-30.937399999999997,12.6864,175,75
2026-05-09 17:10:14.712,2,0.57,-1.06,1.04,75.3356,55.762600000000006,-48.1036,175,75
2026-05-09 17:10:14.730,2,0.63,-1.01,1.18,86.1956,48.32260000000001,-57.073600000000006,175,75
2026-05-09 17:10:14.730,2,0.75,-1.11,1.32,93.8156,13.142600000000002,-69.93360000000001,175,75
2026-05-09 17:10:14.742,2,0.69,-1.23,1.36,91.7456,-30.027399999999993,-87.62360000000001,175,75
2026-05-09 17:10:14.769,2,0.78,-1.51,1.36,125.1556,-96.7374,-99.6936,175,75
2026-05-09 17:10:14.778,2,0.5,-1.64,1.29,144.0556,-133.3774,-121.8236,175,75
2026-05-09 17:10:14.815,2,0.5,-1.95,1.22,145.76559999999998,-159.6574,-139.02360000000002,175,75
2026-05-09 17:10:14.826,2,0.51,-2.04,1.13,145.2756,-156.73739999999998,-159.2636,175,75
2026-05-09 17:10:14.837,2,0.38,-2.02,1.0,150.1556,-140.0874,-172.9836,175,75
2026-05-09 17:10:14.849,2,0.17,-2.04,0.86,164.3056,-91.91739999999999,-179.7536,175,75
2026-05-09 17:10:14.859,2,-0.06,-2.04,0.88,183.9956,-28.687399999999997,-175.7336,175,75
2026-05-09 17:10:14.869,2,-0.18,-1.98,1.01,210.4656,5.152600000000007,-162.0136,175,75
2026-05-09 17:10:14.880,2,-0.3,-1.94,1.18,234.54559999999998,-6.737399999999994,-146.64360000000002,175,75
2026-05-09 17:10:14.899,2,-0.4,-1.94,1.29,246.49559999999997,-35.087399999999995,-134.5736,175,75
2026-05-09 17:10:14.910,2,-0.53,-1.92,1.32,253.99559999999997,-82.4074,-119.4536,175,75
2026-05-09 17:10:14.922,2,-0.67,-1.92,1.23,258.0856,-117.64739999999999,-106.15360000000001,175,75
2026-05-09 17:10:14.933,2,-0.76,-1.89,1.15,261.55559999999997,-133.2574,-94.6936,175,75
2026-05-09 17:10:14.944,2,-0.8,-1.88,1.08,268.7556,-143.80739999999997,-84.6336,175,75
2026-05-09 17:10:14.954,2,-0.82,-1.9,1.04,275.7056,-152.7674,-79.02359999999999,175,75
2026-05-09 17:10:14.965,2,-1.03,-1.93,1.02,286.43559999999997,-169.9074,-74.87360000000001,175,75
2026-05-09 17:10:14.975,2,-1.1,-1.96,1.03,291.2556,-175.9374,-79.93360000000001,175,75
2026-05-09 17:10:14.986,2,-1.12,-1.99,0.99,291.6756,-186.79739999999998,-88.59360000000001,175,75
2026-05-09 17:10:14.997,2,-1.18,-2.01,0.88,291.55559999999997,-198.25740000000002,-98.3536,175,75
2026-05-09 17:10:14.997,2,-1.4,-1.96,0.7,294.9156,-200.5774,-106.46360000000001,175,75
2026-05-09 17:10:15.014,2,-1.88,-1.7,0.31,316.1356,-105.9974,-114.87360000000001,175,75
2026-05-09 17:10:15.025,2,-1.84,-1.61,0.32,325.5256,-43.017399999999995,-104.5736,175,75
2026-05-09 17:10:15.025,2,-1.74,-1.56,0.44,337.1656,9.60260000000001,-84.3236,175,75
2026-05-09 17:10:15.050,2,-1.7,-1.62,0.64,356.55559999999997,33.1426,-59.573600000000006,175,75
2026-05-09 17:10:15.050,2,-1.82,-1.77,0.89,374.5456,16.8626,-18.6536,175,75
2026-05-09 17:10:15.066,2,-1.97,-1.98,1.0,365.4656,-56.06739999999999,9.3964,175,75
2026-05-09 17:10:15.098,2,-2.02,-2.14,0.98,351.80559999999997,-119.53739999999999,25.6764,175,75
2026-05-09 17:10:15.098,2,-1.97,-2.24,0.86,344.6656,-171.42739999999998,35.0664,175,75
2026-05-09 17:10:15.113,2,-1.92,-2.3,0.76,346.31559999999996,-187.5274,37.7464,175,75
2026-05-09 17:10:15.113,2,-1.86,-2.38,0.69,356.80559999999997,-186.9774,38.416399999999996,175,75
2026-05-09 17:10:15.135,2,-1.78,-2.43,0.69,381.1356,-165.2674,42.3164,175,75
2026-05-09 17:10:15.150,2,-1.71,-2.49,0.8,393.3256,-160.1474,42.626400000000004,175,75
2026-05-09 17:10:15.163,2,-1.56,-2.59,0.94,399.4856,-177.2874,40.4264,175,75
2026-05-09 17:10:15.163,2,-1.53,-2.72,1.05,398.99559999999997,-210.2074,38.8464,175,75
2026-05-09 17:10:15.177,2,-1.75,-3.18,0.98,403.6956,-270.93739999999997,21.096400000000003,175,75
2026-05-09 17:10:15.187,2,-1.75,-3.39,0.91,411.0756,-284.6574,17.5664,175,75
2026-05-09 17:10:15.210,2,-1.69,-3.51,0.93,418.99559999999997,-288.74739999999997,21.406399999999998,175,75
2026-05-09 17:10:15.220,2,-1.62,-3.7,1.0,433.2056,-294.2374,34.876400000000004,175,75
2026-05-09 17:10:15.229,2,-1.77,-4.29,1.01,462.6556,-295.0874,50.4864,175,75
2026-05-09 17:10:15.246,2,-1.74,-4.62,0.98,480.5856,-289.8474,57.5064,175,75
2026-05-09 17:10:15.270,2,-1.57,-4.94,1.02,508.6356,-290.0874,71.0364,175,75
2026-05-09 17:10:15.270,2,-1.41,-5.08,1.07,531.7456000000001,-306.4274,78.78639999999999,175,75
2026-05-09 17:10:15.289,2,-1.24,-5.51,1.04,570.5256,-334.5374,67.13640000000001,175,75
2026-05-09 17:10:15.301,2,-1.13,-5.76,0.99,586.2556000000001,-340.63739999999996,56.8964,175,75
2026-05-09 17:10:15.324,2,-0.99,-6.39,1.12,651.9856000000001,-375.0274,34.9364,175,75
2026-05-09 17:10:15.340,2,-1.06,-6.61,1.34,685.0956,-442.8974,22.3164,175,75
2026-05-09 17:10:15.346,2,-1.23,-6.72,1.51,702.6556,-519.8474,-6.093599999999999,175,75
2026-05-09 17:10:15.357,2,-1.46,-6.93,1.37,692.5956,-572.0974,-39.7536,175,75
2026-05-09 17:10:15.372,2,-1.74,-7.04,0.92,678.6356000000001,-573.3174,-78.1736,175,75
2026-05-09 17:10:15.383,2,-1.79,-7.09,0.51,685.5256,-534.2974,-108.4136,175,75
2026-05-09 17:10:15.398,2,-1.51,-6.79,0.29,701.9256,-459.1774,-114.5136,175,75
2026-05-09 17:10:15.410,2,-1.46,-6.35,0.31,714.8556000000001,-386.6774,-98.7836,175,75
2026-05-09 17:10:15.430,2,-1.57,-5.7,0.52,690.8256,-310.6974,-83.7836,175,75
2026-05-09 17:10:15.430,2,-1.55,-5.19,0.59,659.6056000000001,-295.99739999999997,-77.0736,175,75
2026-05-09 17:10:15.449,2,-1.46,-4.51,0.64,622.4756000000001,-288.43739999999997,-67.80359999999999,175,75
2026-05-09 17:10:15.464,2,-1.4,-4.03,0.65,591.8656000000001,-285.3274,-57.743599999999994,175,75
2026-05-09 17:10:15.479,2,-1.42,-3.27,0.65,532.7756,-263.0774,-41.7036,175,75
2026-05-09 17:10:15.485,2,-1.45,-2.98,0.63,509.11560000000003,-246.54739999999998,-36.2136,175,75
2026-05-09 17:10:15.501,2,-1.43,-2.68,0.61,485.3356,-234.10739999999998,-34.2036,175,75
2026-05-09 17:10:15.511,2,-1.4,-2.44,0.59,468.4456,-226.18739999999997,-32.7436,175,75
2026-05-09 17:10:15.522,2,-1.37,-2.11,0.56,446.9256,-219.9074,-29.2036,175,75
2026-05-09 17:10:15.537,2,-1.37,-1.65,0.49,414.3656,-225.0274,-33.2336,175,75
2026-05-09 17:10:15.554,2,-1.4,-1.44,0.44,390.2756,-212.7074,-40.6736,175,75
2026-05-09 17:10:15.574,2,-1.46,-1.29,0.36,368.81559999999996,-182.8974,-43.4136,175,75
2026-05-09 17:10:15.574,2,-1.5,-1.18,0.3,356.31559999999996,-144.5374,-43.9636,175,75
2026-05-09 17:10:15.583,2,-1.44,-1.04,0.29,351.43559999999997,-93.0774,-38.0436,175,75
2026-05-09 17:10:15.596,2,-1.37,-0.95,0.38,349.3656,-58.49739999999999,-33.5936,175,75
2026-05-09 17:10:15.634,2,-0.94,-0.73,0.78,315.5256,-66.42739999999999,-32.6236,175,75
2026-05-09 17:10:15.634,2,-0.95,-0.68,0.79,293.7556,-91.3074,-40.7936,175,75
2026-05-09 17:10:15.656,2,-0.91,-0.63,0.71,273.7556,-108.92739999999999,-48.5936,175,75
2026-05-09 17:10:15.668,2,-0.88,-0.5,0.59,262.4156,-104.47739999999999,-59.573600000000006,175,75
2026-05-09 17:10:15.701,2,-0.75,-0.42,0.71,258.5756,-82.95739999999999,-78.5336,175,75
2026-05-09 17:10:15.711,2,-0.64,-0.42,0.72,245.5856,-93.4974,-89.14359999999999,175,75
2026-05-09 17:10:15.716,2,-0.54,-0.42,0.7,232.41559999999998,-110.3274,-101.9536,175,75
2026-05-09 17:10:15.733,2,-0.46,-0.42,0.65,220.3956,-124.8474,-112.86359999999999,175,75
2026-05-09 17:10:15.738,2,-0.32,-0.44,0.57,198.38559999999998,-148.3774,-124.3836,175,75
2026-05-09 17:10:15.763,2,-0.18,-0.55,0.39,155.1556,-181.67739999999998,-140.7336,175,75
2026-05-09 17:10:15.769,2,-0.02,-0.6,0.26,130.0356,-193.7474,-149.6936,175,75
2026-05-09 17:10:15.780,2,0.25,-0.67,0.07,104.1156,-215.69740000000002,-157.49360000000001,175,75
2026-05-09 17:10:15.789,2,0.43,-0.73,-0.09,76.9256,-227.5274,-164.3836,175,75
2026-05-09 17:10:15.802,2,0.74,-0.61,-0.36,35.15559999999999,-236.54739999999998,-160.4236,175,75
2026-05-09 17:10:15.845,2,1.41,0.32,-1.61,-139.9044,-236.9774,-115.9136,175,75
2026-05-09 17:10:15.856,2,1.56,0.54,-2.0,-154.8444,-204.5974,-87.43360000000001,175,75
2026-05-09 17:10:15.856,2,1.78,0.68,-2.27,-160.8144,-168.3774,-53.2336,175,75
2026-05-09 17:10:15.867,2,1.88,0.79,-2.25,-168.1944,-135.9374,-27.863599999999998,175,75
2026-05-09 17:10:15.880,2,1.97,0.85,-2.03,-181.42440000000002,-117.70739999999999,-6.403600000000001,175,75
2026-05-09 17:10:15.903,2,1.85,0.89,-1.65,-215.33440000000002,-117.7674,11.7664,175,75
2026-05-09 17:10:15.921,2,1.38,0.85,-1.25,-276.7944,-102.70739999999999,33.4764,175,75
2026-05-09 17:10:15.941,2,0.7,0.51,-0.78,-331.5544,30.82260000000001,58.0464,175,75
2026-05-09 17:10:15.942,2,0.45,0.39,-0.59,-346.9744,101.9826,65.6764,175,75
2026-05-09 17:10:15.955,2,0.19,0.16,-0.3,-362.3444,195.95260000000002,80.3664,175,75
2026-05-09 17:10:15.979,2,-0.05,-0.06,-0.05,-372.5844,261.43260000000004,95.12639999999999,175,75
2026-05-09 17:10:16.002,2,-0.29,-0.69,0.76,-383.19440000000003,328.5126,109.0864,175,75
2026-05-09 17:10:16.013,2,-0.36,-0.74,0.98,-390.3944,336.1926,113.41640000000001,175,75
2026-05-09 17:10:16.024,2,-0.6,-0.83,1.22,-381.8544,294.06260000000003,103.90639999999999,175,75
2026-05-09 17:10:16.060,2,-0.47,-0.98,1.52,-361.4244,205.5826,89.2664,175,75
2026-05-09 17:10:16.060,2,-0.36,-0.98,1.75,-364.6044,37.71260000000001,65.91640000000001,175,75
2026-05-09 17:10:16.072,2,-0.56,-0.92,1.57,-399.4744,-94.8474,48.7864,175,75
2026-05-09 17:10:16.072,2,-0.68,-0.81,1.21,-405.6344,-159.9074,50.9164,175,75
2026-05-09 17:10:16.089,2,-1.02,-0.79,0.67,-351.3044,-73.8074,100.7964,175,75
