Time,ID,Ax,Ay,Az,Gx,Gy,Gz,Height,Weight
2026-05-07 18:39:43.037,2,0.59,0.3,1.25,-9.9158,247.3374,-73.29419999999999,175,75
2026-05-07 18:39:43.096,2,0.65,0.08,1.28,-38.9358,120.3274,-132.4942,175,75
2026-05-07 18:39:43.096,2,0.61,0.07,1.16,-36.4358,133.1274,-138.4142,175,75
2026-05-07 18:39:43.108,2,0.35,0.01,1.21,-28.815800000000003,186.17739999999998,-149.20420000000001,175,75
2026-05-07 18:39:43.108,2,0.37,-0.06,1.28,-31.4358,214.10739999999998,-156.5242,175,75
2026-05-07 18:39:43.128,2,0.52,-0.1,1.48,-37.5358,204.8974,-154.6342,175,75
2026-05-07 18:39:43.140,2,0.59,-0.12,1.58,-37.4158,162.2174,-154.51420000000002,175,75
2026-05-07 18:39:43.211,2,0.46,-0.28,1.44,-55.5858,-9.982600000000001,-150.1242,175,75
2026-05-07 18:39:43.222,2,0.51,-0.34,1.4,-57.7258,-15.4726,-143.04420000000002,175,75
2026-05-07 18:39:43.222,2,0.56,-0.35,1.44,-59.0058,-32.912600000000005,-131.8842,175,75
2026-05-07 18:39:43.223,2,0.58,-0.36,1.44,-62.5358,-45.342600000000004,-122.7442,175,75
2026-05-07 18:39:43.251,2,0.51,-0.46,1.34,-69.1858,-48.15260000000001,-89.9342,175,75
2026-05-07 18:39:43.253,2,0.44,-0.37,1.25,-75.70580000000001,-39.1926,-69.63419999999999,175,75
2026-05-07 18:39:43.292,2,0.39,-0.36,1.13,-82.7258,-1.6926000000000023,-41.4642,175,75
2026-05-07 18:39:43.292,2,0.34,-0.42,1.13,-88.6958,4.527399999999998,-24.0242,175,75
2026-05-07 18:39:43.356,2,0.19,-0.17,1.13,-97.6558,-2.3026000000000018,26.2258,175,75
2026-05-07 18:39:43.356,2,0.1,0.06,1.1,-85.4058,-8.7026,30.5558,175,75
2026-05-07 18:39:43.392,2,-0.44,0.44,1.23,-44.9758,43.9174,8.965800000000002,175,75
2026-05-07 18:39:43.397,2,-0.46,0.55,1.33,-44.5458,90.3274,-12.554200000000002,175,75
2026-05-07 18:39:43.413,2,-0.3,0.69,1.47,-41.1958,148.18740000000003,-30.4842,175,75
2026-05-07 18:39:43.423,2,-0.05,0.85,1.64,-34.6758,189.3474,-21.404199999999996,175,75
2026-05-07 18:39:43.423,2,-0.01,0.92,1.78,-27.845799999999997,187.6374,-7.374199999999998,175,75
2026-05-07 18:39:43.442,2,-0.08,0.97,1.89,-18.0858,164.7774,0.3658000000000001,175,75
2026-05-07 18:39:43.442,2,-0.12,1.0,1.99,-0.7658000000000005,131.9674,11.1658,175,75
2026-05-07 18:39:43.454,2,-0.05,1.08,1.95,45.0242,54.8974,35.0658,175,75
2026-05-07 18:39:43.468,2,-0.04,1.0,1.85,60.514199999999995,13.437399999999998,44.3958,175,75
2026-05-07 18:39:43.483,2,-0.01,0.78,1.78,81.9142,-34.8026,49.0858,175,75
2026-05-07 18:39:43.493,2,0.04,0.61,1.81,105.87419999999999,-54.1926,47.315799999999996,175,75
2026-05-07 18:39:43.558,2,0.75,0.32,1.46,108.74419999999999,20.257399999999997,39.5158,175,75
2026-05-07 18:39:43.582,2,1.03,0.7,2.03,131.3642,81.17739999999999,67.19579999999999,175,75
2026-05-07 18:39:43.595,2,1.05,0.34,1.86,126.91420000000001,39.7774,106.7758,175,75
2026-05-07 18:39:43.595,2,0.74,0.3,1.79,140.51420000000002,23.8574,108.72579999999999,175,75
2026-05-07 18:39:43.605,2,0.41,0.15,1.84,158.3742,53.977399999999996,101.8358,175,75
2026-05-07 18:39:43.675,2,0.52,-0.18,2.08,163.2542,0.8073999999999977,114.69579999999999,175,75
2026-05-07 18:39:43.675,2,0.23,0.01,1.61,168.98420000000002,-59.982600000000005,138.1158,175,75
2026-05-07 18:39:43.706,2,0.12,0.22,1.67,182.2742,16.967399999999998,164.2758,175,75
2026-05-07 18:39:43.730,2,0.37,0.57,2.09,161.54420000000002,-122.4226,147.0158,175,75
2026-05-07 18:39:43.760,2,-0.0,0.46,2.12,156.2442,-231.75260000000003,136.1658,175,75
2026-05-07 18:39:43.760,2,-0.31,0.25,1.93,160.32420000000002,-280.6526,118.47579999999999,175,75
2026-05-07 18:39:43.773,2,-0.49,-0.03,1.71,173.07420000000002,-290.2226,100.42580000000001,175,75
2026-05-07 18:39:43.805,2,-0.82,-0.53,1.27,212.5842,-204.8626,105.79580000000001,175,75
2026-05-07 18:39:43.875,2,-0.32,0.16,1.38,277.2742,181.9074,29.5758,175,75
2026-05-07 18:39:43.889,2,-0.12,0.21,2.21,300.75419999999997,110.3274,134.7558,175,75
2026-05-07 18:39:43.889,2,0.02,-0.08,2.66,291.2442,45.9374,152.4458,175,75
2026-05-07 18:39:43.900,2,-0.25,-0.35,2.69,271.06419999999997,13.797399999999998,178.7858,175,75
2026-05-07 18:39:43.914,2,-0.44,-0.49,2.5,243.3142,-13.582600000000003,216.0358,175,75
2026-05-07 18:39:43.925,2,-0.59,-0.55,2.31,225.38420000000002,-59.982600000000005,219.45579999999998,175,75
2026-05-07 18:39:43.940,2,-0.56,-0.59,2.21,252.7642,-96.5026,108.72579999999999,175,75
2026-05-07 18:39:43.980,2,-0.06,-0.53,2.31,259.3542,-103.4526,176.4658,175,75
2026-05-07 18:39:44.035,2,-0.23,-0.3,2.08,254.04420000000002,-62.842600000000004,232.1958,175,75
2026-05-07 18:39:44.058,2,-0.13,-0.49,1.81,260.8742,-109.0626,251.4658,175,75
2026-05-07 18:39:44.069,2,-0.23,-0.43,1.5,259.2942,-116.9926,268.2358,175,75
2026-05-07 18:39:44.080,2,-0.29,-0.42,1.36,262.1542,-118.82260000000001,270.7958,175,75
2026-05-07 18:39:44.099,2,-0.42,-0.47,1.1,263.07419999999996,-111.2026,261.8358,175,75
2026-05-07 18:39:44.150,2,-0.36,-0.61,0.6,250.08419999999998,-119.25260000000002,212.8058,175,75
2026-05-07 18:39:44.162,2,-0.53,-0.75,0.37,248.3142,-181.44260000000003,181.5858,175,75
2026-05-07 18:39:44.178,2,-1.03,-1.19,-0.27,224.9042,-232.9726,72.44579999999999,175,75
2026-05-07 18:39:44.185,2,-1.13,-1.21,-0.69,195.0242,-242.7826,12.1958,175,75
2026-05-07 18:39:44.203,2,-1.07,-0.97,-1.34,166.9742,-275.8926,-22.624200000000002,175,75
2026-05-07 18:39:44.232,2,-3.2,-0.56,-2.36,146.4242,-44.6126,89.14580000000001,175,75
2026-05-07 18:39:44.261,2,-3.08,-2.01,-2.43,-98.6358,414.1074,65.67580000000001,175,75
2026-05-07 18:39:44.262,2,-2.67,-2.13,-1.87,-215.58579999999998,563.4974,103.23580000000001,175,75
2026-05-07 18:39:44.272,2,-1.04,-2.5,-0.7,-306.5058,555.0774,107.07579999999999,175,75
2026-05-07 18:39:44.298,2,-0.84,-4.27,0.7,-393.0858,437.75739999999996,31.6458,175,75
2026-05-07 18:39:44.306,2,-0.48,-4.77,1.53,-501.74580000000003,465.3274,-46.404199999999996,175,75
2026-05-07 18:39:44.362,2,-0.16,-6.01,2.71,-706.3757999999999,442.4574,-181.3342,175,75
2026-05-07 18:39:44.377,2,0.06,-7.42,4.01,-799.6758,333.9174,-311.52419999999995,175,75
2026-05-07 18:39:44.377,2,0.08,-7.47,4.23,-769.9757999999999,323.9174,-344.63419999999996,175,75
2026-05-07 18:39:44.377,2,0.43,-7.15,4.64,-759.1858,310.13739999999996,-355.6642,175,75
2026-05-07 18:39:44.387,2,0.56,-6.3,4.64,-747.1157999999999,198.36739999999998,-334.63419999999996,175,75
2026-05-07 18:39:44.405,2,0.1,-5.47,4.23,-692.6558,101.1174,-330.2442,175,75
2026-05-07 18:39:44.424,2,-0.4,-3.41,3.23,-538.4558,153.30739999999997,-290.8542,175,75
2026-05-07 18:39:44.434,2,-0.39,-2.39,3.31,-447.29580000000004,284.8374,-268.0442,175,75
2026-05-07 18:39:44.449,2,-0.26,-1.03,3.4,-325.2858,403.24739999999997,-216.4042,175,75
2026-05-07 18:39:44.473,2,-0.04,-0.25,3.7,-243.5758,278.12739999999997,-137.98420000000002,175,75
2026-05-07 18:39:44.490,2,-0.25,-0.27,3.69,-206.8058,152.8274,-135.2442,175,75
2026-05-07 18:39:44.500,2,-0.44,-0.27,3.59,-174.9758,-3.212600000000002,-134.0842,175,75
2026-05-07 18:39:44.515,2,-0.97,0.03,2.95,-154.36579999999998,-101.8126,-149.4442,175,75
2026-05-07 18:39:44.549,2,-1.2,0.47,2.37,-119.00580000000001,56.6074,-152.7442,175,75
2026-05-07 18:39:44.549,2,-1.29,0.66,2.23,-80.2258,134.4674,-155.79420000000002,175,75
2026-05-07 18:39:44.561,2,-1.17,0.81,2.23,-19.675800000000002,189.8974,-153.7142,175,75
2026-05-07 18:39:44.595,2,-0.82,0.65,2.67,123.43419999999999,209.2274,-83.29419999999999,175,75
2026-05-07 18:39:44.606,2,-1.12,0.63,2.64,123.9242,135.3274,-79.14420000000001,175,75
2026-05-07 18:39:44.619,2,-1.08,0.68,2.48,123.62419999999999,36.547399999999996,-64.9342,175,75
2026-05-07 18:39:44.632,2,-1.09,0.67,2.21,133.4342,-24.312600000000003,-40.6042,175,75
2026-05-07 18:39:44.648,2,-1.08,0.42,1.83,152.4642,-48.8826,-22.014200000000002,175,75
2026-05-07 18:39:44.660,2,-1.08,0.36,1.69,159.9042,-37.4226,-23.7742,175,75
2026-05-07 18:39:44.670,2,-1.09,0.37,1.59,172.3442,-27.172600000000003,-26.644199999999998,175,75
2026-05-07 18:39:44.688,2,-0.98,0.41,1.47,204.29420000000002,4.347399999999999,-17.8042,175,75
2026-05-07 18:39:44.711,2,-0.98,0.4,1.42,215.1442,45.627399999999994,12.6858,175,75
2026-05-07 18:39:44.722,2,-1.0,0.39,1.4,216.3042,50.5674,18.785800000000002,175,75
2026-05-07 18:39:44.732,2,-0.99,0.35,1.41,220.7542,43.6174,20.6158,175,75
2026-05-07 18:39:44.742,2,-0.94,0.32,1.43,227.0942,33.737399999999994,19.3358,175,75
2026-05-07 18:39:44.764,2,-0.58,0.25,1.39,235.51420000000002,-18.212600000000002,27.2558,175,75
2026-05-07 18:39:44.782,2,-0.58,0.2,1.32,241.54420000000002,-52.7826,33.5358,175,75
2026-05-07 18:39:44.800,2,-0.69,0.1,1.28,257.88419999999996,-30.712600000000002,44.3958,175,75
2026-05-07 18:39:44.806,2,-0.58,-0.04,1.35,276.1242,-33.522600000000004,48.055800000000005,175,75
2026-05-07 18:39:44.814,2,-0.45,-0.2,1.45,285.51419999999996,-64.8626,42.9858,175,75
2026-05-07 18:39:44.833,2,-1.15,-0.56,1.94,286.3642,-109.2526,13.965800000000002,175,75
2026-05-07 18:39:44.838,2,-0.33,-1.34,1.27,349.9642,-148.82260000000002,-95.2442,175,75
2026-05-07 18:39:44.861,2,0.4,-0.41,0.62,208.5642,190.3874,115.61580000000001,175,75
2026-05-07 18:39:44.867,2,-0.26,-1.76,0.96,267.3442,289.4674,67.86580000000001,175,75
2026-05-07 18:39:44.883,2,0.46,-2.25,1.93,330.9942,296.6674,220.1858,175,75
2026-05-07 18:39:44.893,2,1.06,-1.63,2.8,283.25419999999997,135.7474,270.0058,175,75
2026-05-07 18:39:44.907,2,1.5,-1.7,2.69,314.6542,-80.8926,273.7858,175,75
2026-05-07 18:39:44.925,2,1.71,-2.13,2.61,371.7942,-192.6026,277.0158,175,75
2026-05-07 18:39:44.946,2,1.37,-2.84,2.22,452.0942,-258.2726,287.3758,175,75
2026-05-07 18:39:44.946,2,1.18,-3.16,1.99,454.5942,-204.13260000000002,296.0358,175,75
2026-05-07 18:39:44.961,2,1.27,-3.52,1.67,423.56419999999997,-81.0226,316.6458,175,75
2026-05-07 18:39:44.971,2,1.2,-3.72,1.33,416.4242,-42.662600000000005,321.7758,175,75
2026-05-07 18:39:44.982,2,1.16,-3.95,1.45,491.6042,-58.3326,307.6258,175,75
2026-05-07 18:39:45.014,2,1.28,-3.6,1.99,500.0242,-151.14260000000002,267.86580000000004,175,75
2026-05-07 18:39:45.018,2,1.03,-3.24,1.57,444.5942,-177.6026,224.20579999999998,175,75
2026-05-07 18:39:45.031,2,1.05,-2.93,1.2,419.1742,-182.1126,190.42579999999998,175,75
2026-05-07 18:39:45.041,2,1.07,-2.63,1.04,411.6742,-188.76260000000002,178.0558,175,75
2026-05-07 18:39:45.053,2,1.01,-2.27,0.94,407.88419999999996,-189.49259999999998,173.5358,175,75
2026-05-07 18:39:45.069,2,0.79,-1.86,0.91,400.08419999999995,-170.95260000000002,171.5258,175,75
2026-05-07 18:39:45.083,2,0.74,-1.54,0.85,383.3742,-153.70260000000002,161.0958,175,75
2026-05-07 18:39:45.094,2,0.77,-1.33,0.76,362.0942,-174.55259999999998,143.5958,175,75
2026-05-07 18:39:45.121,2,0.31,-0.63,0.56,293.3742,-243.0326,72.92580000000001,175,75
2026-05-07 18:39:45.132,2,0.22,-0.38,0.46,297.95419999999996,-221.32260000000002,53.2958,175,75
2026-05-07 18:39:45.174,2,0.02,0.29,0.39,235.1442,-148.64260000000002,33.9058,175,75
2026-05-07 18:39:45.184,2,-0.06,0.43,0.36,211.48420000000002,-139.74259999999998,26.0958,175,75
2026-05-07 18:39:45.201,2,-0.2,0.57,0.36,190.45420000000001,-123.7026,14.3358,175,75
2026-05-07 18:39:45.218,2,-0.3,0.68,0.38,173.7442,-95.8926,0.9757999999999996,175,75
2026-05-07 18:39:45.228,2,-0.32,0.73,0.4,160.57420000000002,-70.9526,-8.2942,175,75
2026-05-07 18:39:45.228,2,-0.32,0.75,0.43,148.07420000000002,-57.1126,-14.874200000000002,175,75
2026-05-07 18:39:45.261,2,-0.37,0.83,0.42,119.71419999999999,-59.1926,-28.4142,175,75
2026-05-07 18:39:45.270,2,-0.4,0.88,0.41,110.6942,-73.1526,-36.9442,175,75
2026-05-07 18:39:45.309,2,-0.48,0.87,0.43,68.49419999999999,-30.712600000000002,-53.3542,175,75
2026-05-07 18:39:45.333,2,-0.42,0.78,0.53,46.8542,13.737399999999997,-62.4342,175,75
2026-05-07 18:39:45.351,2,-0.38,0.8,0.57,44.8442,14.837399999999999,-69.7542,175,75
2026-05-07 18:39:45.376,2,-0.47,0.85,0.58,31.8542,-48.3326,-85.1242,175,75
2026-05-07 18:39:45.392,2,-0.57,0.88,0.53,25.694200000000002,-71.5026,-89.7542,175,75
2026-05-07 18:39:45.435,2,-0.38,0.94,0.49,8.314200000000001,21.967399999999998,-68.35419999999999,175,75
2026-05-07 18:39:45.438,2,-0.32,0.95,0.54,11.4842,50.9974,-55.5442,175,75
2026-05-07 18:39:45.449,2,-0.29,0.97,0.53,21.8542,66.9074,-37.0142,175,75
2026-05-07 18:39:45.471,2,-0.31,0.96,0.54,29.5342,57.157399999999996,-28.5342,175,75
2026-05-07 18:39:45.471,2,-0.3,0.93,0.55,31.184200000000004,40.5074,-26.644199999999998,175,75
2026-05-07 18:39:45.505,2,-0.41,0.83,0.42,1.2441999999999993,21.1774,-43.594199999999994,175,75
2026-05-07 18:39:45.521,2,-0.51,0.83,0.33,-12.4158,49.7174,-55.7942,175,75
2026-05-07 18:39:45.534,2,-0.61,0.88,0.29,-26.0158,87.5174,-67.1942,175,75
2026-05-07 18:39:45.545,2,-0.73,0.99,0.25,-77.84580000000001,195.0774,-89.38419999999999,175,75
2026-05-07 18:39:45.555,2,-0.81,1.01,0.34,-127.53580000000001,266.1774,-89.8742,175,75
2026-05-07 18:39:45.589,2,-0.97,0.74,0.58,-276.74580000000003,455.50739999999996,-42.5542,175,75
2026-05-07 18:39:45.589,2,-0.99,0.4,0.73,-358.6958,548.3074,-4.3842,175,75
2026-05-07 18:39:45.601,2,-0.87,-0.05,0.95,-452.9058,631.0574,55.4258,175,75
2026-05-07 18:39:45.625,2,-0.54,-0.62,1.38,-549.6758,698.1274,136.5258,175,75
2026-05-07 18:39:45.641,2,0.57,-2.29,1.91,-608.1458,749.5274,-5.424199999999999,175,75
2026-05-07 18:39:45.665,2,0.39,-2.82,2.27,-594.7357999999999,451.3574,-14.3842,175,75
2026-05-07 18:39:45.665,2,-0.94,-3.44,2.6,-527.9658,285.56739999999996,-75.6642,175,75
2026-05-07 18:39:45.677,2,-1.34,-3.56,2.5,-499.54580000000004,205.19740000000002,-162.07420000000002,175,75
2026-05-07 18:39:45.689,2,-1.51,-3.23,2.49,-532.6558,158.61739999999998,-302.9242,175,75
2026-05-07 18:39:45.702,2,-0.75,-2.75,2.74,-583.9358,319.7174,-367.4342,175,75
2026-05-07 18:39:45.713,2,2.62,-2.56,3.21,-610.6458,333.49739999999997,-321.4642,175,75
2026-05-07 18:39:45.735,2,0.41,-3.01,2.75,-640.9558,364.0474,-120.79420000000002,175,75
2026-05-07 18:39:45.758,2,-0.16,-3.53,2.26,-514.7358,70.25739999999999,-168.10420000000002,175,75
2026-05-07 18:39:45.758,2,-1.13,-3.46,2.14,-459.48580000000004,8.677399999999999,-235.66420000000002,175,75
2026-05-07 18:39:45.787,2,-1.48,-3.15,1.96,-440.5258,56.7874,-334.69419999999997,175,75
2026-05-07 18:39:45.787,2,-0.97,-2.61,1.88,-394.48580000000004,172.1574,-411.4642,175,75
2026-05-07 18:39:45.815,2,-0.5,-1.48,2.15,-198.3258,333.06739999999996,-406.58419999999995,175,75
2026-05-07 18:39:45.828,2,-0.45,-1.32,2.25,-147.6558,345.68739999999997,-420.9742,175,75
2026-05-07 18:39:45.828,2,-0.23,-1.28,2.18,-109.12580000000001,323.8574,-440.9142,175,75
2026-05-07 18:39:45.841,2,0.42,-1.17,1.92,-94.9758,268.9774,-417.13419999999996,175,75
2026-05-07 18:39:45.864,2,0.3,-0.54,1.44,-62.355799999999995,197.6374,-169.4442,175,75
2026-05-07 18:39:45.875,2,-0.46,-0.66,1.44,-16.625799999999998,260.1374,-196.1542,175,75
2026-05-07 18:39:45.886,2,-0.43,-0.7,1.8,25.874200000000002,434.1074,-176.2142,175,75
2026-05-07 18:39:45.898,2,-0.3,-0.61,2.3,48.254200000000004,509.7174,-136.82420000000002,175,75
2026-05-07 18:39:45.912,2,-0.27,-0.56,2.55,60.874199999999995,429.1074,-148.4142,175,75
2026-05-07 18:39:45.934,2,-0.45,-0.31,2.96,33.3742,-46.382600000000004,-146.1542,175,75
2026-05-07 18:39:45.946,2,-0.09,-0.28,2.37,44.1742,-188.0926,-157.6842,175,75
2026-05-07 18:39:45.968,2,-0.39,-0.06,1.44,35.0242,-245.5926,-107.13419999999999,175,75
2026-05-07 18:39:45.980,2,-0.56,0.12,1.2,35.3842,-159.6726,-101.88419999999999,175,75
2026-05-07 18:39:45.991,2,-0.63,0.38,0.99,49.3542,-24.3726,-91.52420000000001,175,75
2026-05-07 18:39:46.003,2,-0.63,0.56,0.97,65.57419999999999,81.4174,-78.7142,175,75
2026-05-07 18:39:46.014,2,-0.52,0.68,1.11,86.6742,233.06740000000002,-53.4142,175,75
2026-05-07 18:39:46.024,2,-0.42,0.69,1.28,98.74419999999999,314.0474,-34.0242,175,75
2026-05-07 18:39:46.042,2,-0.2,0.62,1.8,134.5342,304.9574,-22.194200000000002,175,75
2026-05-07 18:39:46.054,2,-0.11,0.56,1.99,141.1242,215.86739999999998,-25.3042,175,75
2026-05-07 18:39:46.066,2,-0.15,0.59,2.03,133.07420000000002,38.797399999999996,-27.074199999999998,175,75
2026-05-07 18:39:46.084,2,-0.18,0.55,1.79,126.8542,-128.70260000000002,-31.644199999999998,175,75
2026-05-07 18:39:46.098,2,-0.44,0.44,1.1,146.6742,-184.8626,-46.2742,175,75
2026-05-07 18:39:46.111,2,-0.52,0.45,0.92,165.8142,-139.19260000000003,-48.2942,175,75
2026-05-07 18:39:46.121,2,-0.5,0.42,0.94,184.10420000000002,-89.2526,-50.424200000000006,175,75
2026-05-07 18:39:46.152,2,-0.47,0.5,1.63,187.2142,-50.2226,-52.7442,175,75
2026-05-07 18:39:46.180,2,-0.76,0.73,1.05,129.41420000000002,-251.99260000000004,5.675800000000002,175,75
2026-05-07 18:39:46.208,2,-0.63,0.06,0.53,194.4742,147.8274,-22.3142,175,75
2026-05-07 18:39:46.208,2,0.08,0.12,1.14,191.6742,255.19740000000002,31.8958,175,75
2026-05-07 18:39:46.218,2,0.67,0.51,1.44,169.04420000000002,195.25740000000002,58.7258,175,75
2026-05-07 18:39:46.230,2,0.79,0.43,1.68,155.7542,86.5474,60.1858,175,75
2026-05-07 18:39:46.287,2,0.88,0.29,1.55,131.2442,-114.00260000000002,95.97579999999999,175,75
2026-05-07 18:39:46.287,2,0.81,0.24,1.5,129.9642,-124.25260000000002,102.3758,175,75
2026-05-07 18:39:46.301,2,0.65,0.11,1.17,135.26420000000002,-82.3026,104.3358,175,75
2026-05-07 18:39:46.311,2,0.59,0.14,1.21,142.2142,-20.8326,103.66579999999999,175,75
2026-05-07 18:39:46.335,2,0.73,0.27,1.53,142.5242,63.617399999999996,103.11580000000001,175,75
2026-05-07 18:39:46.341,2,0.71,0.31,1.62,136.91420000000002,56.727399999999996,105.36580000000001,175,75
2026-05-07 18:39:46.374,2,0.52,0.35,1.45,134.5342,25.077399999999997,103.47579999999999,175,75
2026-05-07 18:39:46.384,2,0.42,0.36,1.36,142.76420000000002,22.757399999999997,99.2758,175,75
2026-05-07 18:39:46.395,2,0.3,0.41,1.4,155.45420000000001,45.627399999999994,97.01580000000001,175,75
2026-05-07 18:39:46.421,2,0.3,0.58,1.71,171.48420000000002,92.5774,95.61580000000001,175,75
2026-05-07 18:39:46.438,2,0.12,0.6,2.03,164.04420000000002,-65.1026,83.11580000000001,175,75
2026-05-07 18:39:46.451,2,0.12,0.54,1.95,167.1542,-107.4826,62.4458,175,75
2026-05-07 18:39:46.463,2,0.03,0.45,1.88,180.0242,-104.9226,58.3558,175,75
2026-05-07 18:39:46.494,2,-0.14,0.12,1.9,206.2442,-37.2426,62.0158,175,75
2026-05-07 18:39:46.514,2,-0.16,-0.12,1.98,216.73420000000002,-14.372600000000002,83.7858,175,75
2026-05-07 18:39:46.514,2,-0.2,-0.28,2.05,230.38420000000002,-16.2626,112.6858,175,75
2026-05-07 18:39:46.527,2,-0.24,-0.42,2.1,252.58419999999998,-30.102600000000002,124.51580000000001,175,75
2026-05-07 18:39:46.537,2,-0.33,-0.52,2.17,274.2342,-43.882600000000004,107.5058,175,75
2026-05-07 18:39:46.551,2,-0.31,-0.59,2.26,288.01419999999996,-53.15260000000001,95.1858,175,75
2026-05-07 18:39:46.565,2,-0.16,-0.73,2.38,296.4842,-70.7726,95.48580000000001,175,75
2026-05-07 18:39:46.603,2,-0.01,-0.44,2.32,304.1042,-67.2426,144.9458,175,75
2026-05-07 18:39:46.632,2,-0.0,-0.54,2.48,317.2742,-92.9126,183.6658,175,75
2026-05-07 18:39:46.642,2,0.03,-0.7,2.5,314.3542,-118.2126,206.2258,175,75
2026-05-07 18:39:46.648,2,-0.03,-0.84,2.38,311.6742,-133.1526,218.5358,175,75
2026-05-07 18:39:46.658,2,-0.07,-0.88,2.24,311.1842,-146.50260000000003,219.6358,175,75
2026-05-07 18:39:46.670,2,-0.12,-0.88,2.03,313.25419999999997,-163.3326,213.5958,175,75
2026-05-07 18:39:46.682,2,-0.14,-0.84,1.9,317.0342,-167.24259999999998,209.20579999999998,175,75
2026-05-07 18:39:46.705,2,-0.14,-0.79,1.64,326.2442,-145.2226,214.51579999999998,175,75
2026-05-07 18:39:46.722,2,-0.14,-0.79,1.56,329.7742,-124.8626,217.0758,175,75
2026-05-07 18:39:46.734,2,-0.13,-0.76,1.51,331.1842,-109.7426,217.01579999999998,175,75
2026-05-07 18:39:46.744,2,-0.11,-0.7,1.45,327.64419999999996,-105.5926,213.4758,175,75
2026-05-07 18:39:46.753,2,-0.11,-0.63,1.38,319.7142,-107.3626,208.1158,175,75
2026-05-07 18:39:46.763,2,-0.12,-0.59,1.31,309.6542,-109.8026,202.92579999999998,175,75
2026-05-07 18:39:46.823,2,-0.41,-0.69,0.74,299.6542,-113.03259999999999,110.97579999999999,175,75
2026-05-07 18:39:46.840,2,-0.64,-0.69,0.38,277.64419999999996,-183.3326,47.8658,175,75
2026-05-07 18:39:46.847,2,-0.9,-0.65,0.08,253.98420000000002,-244.06260000000003,7.925800000000001,175,75
2026-05-07 18:39:46.872,2,-1.87,-0.51,-0.54,236.79420000000002,-257.4826,-79.20419999999999,175,75
2026-05-07 18:39:46.883,2,-2.15,-0.51,-0.96,248.6242,-216.20260000000002,-113.1642,175,75
2026-05-07 18:39:46.924,2,-2.12,-0.62,-1.37,10.634199999999998,293.12739999999997,102.8058,175,75
2026-05-07 18:39:46.934,2,-1.85,-0.85,-1.13,-100.64580000000001,413.06739999999996,134.8758,175,75
2026-05-07 18:39:46.953,2,-1.56,-1.27,-0.68,-164.73579999999998,430.44739999999996,192.1958,175,75
2026-05-07 18:39:46.953,2,-1.6,-1.55,-0.33,-188.45579999999998,443.06739999999996,244.6958,175,75
2026-05-07 18:39:46.964,2,-1.45,-1.94,-0.09,-210.5258,470.19739999999996,252.7458,175,75
2026-05-07 18:39:46.976,2,-1.18,-2.55,0.28,-260.8258,473.8574,196.89579999999998,175,75
2026-05-07 18:39:46.988,2,-0.72,-3.31,1.03,-356.1958,472.2174,126.3458,175,75
2026-05-07 18:39:46.999,2,-0.12,-4.17,1.76,-471.0758,444.8374,82.0758,175,75
2026-05-07 18:39:47.022,2,0.01,-5.35,2.38,-695.7058,275.0174,-11.764200000000002,175,75
2026-05-07 18:39:47.034,2,0.09,-6.22,2.43,-786.1958,158.12740000000002,-89.9342,175,75
2026-05-07 18:39:47.063,2,0.81,-6.48,2.34,-830.5258,151.9074,-124.8142,175,75
2026-05-07 18:39:47.063,2,1.87,-6.52,2.43,-814.6758,215.25740000000002,-49.5742,175,75
2026-05-07 18:39:47.074,2,1.35,-6.52,2.78,-778.6958,248.85739999999998,-15.544199999999996,175,75
2026-05-07 18:39:47.116,2,1.71,-4.03,2.29,-651.8657999999999,-8.392600000000002,-53.7742,175,75
2026-05-07 18:39:47.129,2,1.37,-3.13,1.97,-572.3557999999999,106.7274,-44.0242,175,75
2026-05-07 18:39:47.157,2,0.5,-1.38,2.45,-311.1358,559.2274,-157.7442,175,75
2026-05-07 18:39:47.174,2,0.37,-1.11,2.68,-238.9358,586.6673999999999,-193.5942,175,75
2026-05-07 18:39:47.192,2,-0.03,-0.87,3.3,-140.2858,443.6174,-219.0242,175,75
2026-05-07 18:39:47.204,2,-0.48,-0.54,3.24,-156.7458,292.4574,-205.54420000000002,175,75
2026-05-07 18:39:47.216,2,-0.71,-0.1,3.06,-181.92579999999998,193.18740000000003,-189.0842,175,75
2026-05-07 18:39:47.248,2,-0.92,1.06,2.28,-37.7258,265.8674,-151.6442,175,75
2026-05-07 18:39:47.279,2,-0.96,0.65,2.61,49.1042,248.30739999999997,-118.9642,175,75
2026-05-07 18:39:47.300,2,-0.98,0.7,2.35,90.0242,15.447399999999998,-50.424200000000006,175,75
2026-05-07 18:39:47.315,2,-0.97,0.62,2.17,125.99419999999999,-28.522600000000004,-40.5442,175,75
2026-05-07 18:39:47.333,2,-1.13,0.46,2.02,152.82420000000002,-33.7626,-33.4142,175,75
2026-05-07 18:39:47.365,2,-1.0,0.45,1.64,175.20420000000001,18.0674,-10.544199999999996,175,75
2026-05-07 18:39:47.383,2,-0.97,0.46,1.58,188.1942,26.547399999999996,4.085799999999999,175,75
2026-05-07 18:39:47.395,2,-1.02,0.49,1.56,204.35420000000002,45.2574,13.1758,175,75
2026-05-07 18:39:47.405,2,-1.05,0.47,1.58,221.0642,53.0674,17.6258,175,75
2026-05-07 18:39:47.416,2,-0.94,0.45,1.65,230.7542,29.1074,17.6858,175,75
2026-05-07 18:39:47.439,2,-0.79,0.28,1.78,240.51420000000002,-72.54260000000001,23.2358,175,75
2026-05-07 18:39:47.450,2,-0.72,0.27,1.69,241.1842,-156.0826,25.6158,175,75
2026-05-07 18:39:47.468,2,-1.01,0.2,1.56,254.41420000000002,-267.9126,22.015800000000002,175,75
2026-05-07 18:39:47.481,2,-0.93,0.0,1.46,272.88419999999996,-276.1426,7.3758,175,75
2026-05-07 18:39:47.525,2,-1.67,-1.35,1.41,336.5442,-295.2226,-132.4942,175,75
2026-05-07 18:39:47.577,2,-0.85,-1.32,1.6,351.1242,114.8974,79.45580000000001,175,75
2026-05-07 18:39:47.577,2,-0.11,-1.48,2.33,300.57419999999996,-47.7826,141.6458,175,75
2026-05-07 18:39:47.585,2,0.03,-1.66,2.19,250.2642,-164.55259999999998,178.5958,175,75
2026-05-07 18:39:47.601,2,-0.22,-2.62,1.2,310.81419999999997,-13.092600000000001,202.7458,175,75
2026-05-07 18:39:47.621,2,0.03,-2.97,1.45,399.2942,123.4374,229.8758,175,75
2026-05-07 18:39:47.662,2,0.75,-3.65,2.95,536.7342,-260.6526,328.5358,175,75
2026-05-07 18:39:47.681,2,0.48,-4.48,2.59,564.9642,-327.8426,311.9558,175,75
2026-05-07 18:39:47.693,2,0.42,-4.78,2.24,560.2042,-291.75260000000003,312.6258,175,75
2026-05-07 18:39:47.697,2,0.4,-4.85,1.95,554.1742,-216.75260000000003,306.7058,175,75
2026-05-07 18:39:47.759,2,0.47,-3.97,1.62,499.9642,-228.0326,153.9058,175,75
2026-05-07 18:39:47.773,2,0.36,-3.65,1.39,471.5442,-231.0226,141.9558,175,75
2026-05-07 18:39:47.788,2,0.15,-2.89,1.04,437.64419999999996,-203.76260000000002,132.2558,175,75
2026-05-07 18:39:47.794,2,0.11,-2.57,0.94,425.32419999999996,-194.6126,126.89580000000001,175,75
2026-05-07 18:39:47.835,2,0.04,-1.34,0.81,375.26419999999996,-187.7826,93.47579999999999,175,75
2026-05-07 18:39:47.839,2,0.01,-1.07,0.78,353.56419999999997,-200.1026,80.36580000000001,175,75
2026-05-07 18:39:47.871,2,-0.09,-0.56,0.73,310.8742,-218.70260000000002,44.275800000000004,175,75
2026-05-07 18:39:47.871,2,-0.11,-0.4,0.67,301.1842,-229.06259999999997,31.4658,175,75
2026-05-07 18:39:47.891,2,-0.16,-0.14,0.61,285.45419999999996,-249.86260000000004,12.805800000000001,175,75
2026-05-07 18:39:47.900,2,-0.25,0.06,0.56,264.0442,-261.99260000000004,-5.7242,175,75
2026-05-07 18:39:47.912,2,-0.34,0.25,0.52,243.2542,-256.2026,-18.5342,175,75
2026-05-07 18:39:47.925,2,-0.38,0.39,0.47,226.73420000000002,-240.2826,-24.264200000000002,175,75
2026-05-07 18:39:47.938,2,-0.44,0.57,0.4,202.1542,-199.49259999999998,-25.9142,175,75
2026-05-07 18:39:47.949,2,-0.5,0.67,0.37,185.57420000000002,-157.7226,-23.5942,175,75
2026-05-07 18:39:47.949,2,-0.57,0.76,0.34,167.5842,-95.9526,-19.0242,175,75
2026-05-07 18:39:47.959,2,-0.57,0.78,0.34,154.7742,-42.7826,-16.764200000000002,175,75
2026-05-07 18:39:47.978,2,-0.54,0.8,0.38,145.8142,-5.892600000000002,-16.404199999999996,175,75
2026-05-07 18:39:47.988,2,-0.51,0.8,0.48,134.4742,30.4474,-15.484200000000001,175,75
2026-05-07 18:39:47.999,2,-0.49,0.83,0.52,126.18419999999999,41.6674,-15.424199999999999,175,75
2026-05-07 18:39:48.009,2,-0.49,0.88,0.54,117.6442,29.717399999999998,-16.944200000000002,175,75
2026-05-07 18:39:48.022,2,-0.49,0.92,0.57,109.65419999999999,11.2974,-19.934199999999997,175,75
2026-05-07 18:39:48.030,2,-0.47,0.96,0.59,100.0242,-14.552600000000002,-22.684199999999997,175,75
2026-05-07 18:39:48.040,2,-0.44,0.97,0.62,91.0642,-32.662600000000005,-21.584200000000003,175,75
2026-05-07 18:39:48.063,2,-0.41,0.93,0.64,73.8642,-48.9426,-9.144199999999998,175,75
2026-05-07 18:39:48.075,2,-0.46,0.91,0.6,67.2742,-53.212599999999995,-6.4041999999999994,175,75
2026-05-07 18:39:48.092,2,-0.7,0.95,0.48,60.6942,-86.32260000000001,-12.804200000000002,175,75
2026-05-07 18:39:48.102,2,-0.71,0.95,0.44,57.154199999999996,-87.8426,-16.644199999999998,175,75
2026-05-07 18:39:48.112,2,-0.64,0.95,0.43,49.7142,-75.8326,-13.7742,175,75
2026-05-07 18:39:48.137,2,-0.51,0.9,0.49,15.3242,36.3574,6.645800000000001,175,75
2026-05-07 18:39:48.199,2,-0.59,0.92,0.62,-3.6958,31.1774,16.7058,175,75
2026-05-07 18:39:48.199,2,-0.48,0.87,0.64,-10.7658,18.617399999999996,21.0958,175,75
2026-05-07 18:39:48.210,2,-0.41,0.77,0.66,-19.0658,17.397399999999998,28.9058,175,75
2026-05-07 18:39:48.222,2,-0.39,0.67,0.65,-29.675800000000002,24.6574,30.3658,175,75
2026-05-07 18:39:48.247,2,-0.46,0.57,0.62,-40.8958,37.5774,27.8658,175,75
2026-05-07 18:39:48.247,2,-0.49,0.52,0.57,-50.4058,46.1774,32.4458,175,75
2026-05-07 18:39:48.259,2,-0.46,0.49,0.52,-61.4358,52.8874,37.3158,175,75
2026-05-07 18:39:48.271,2,-0.44,0.51,0.46,-73.9358,56.7874,35.6158,175,75
2026-05-07 18:39:48.283,2,-0.5,0.57,0.45,-94.73580000000001,71.72739999999999,35.1258,175,75
2026-05-07 18:39:48.296,2,-0.48,0.48,0.51,-168.45579999999998,167.8274,59.8158,175,75
2026-05-07 18:39:48.317,2,-0.48,0.28,0.54,-234.36579999999998,242.94740000000002,93.5358,175,75
2026-05-07 18:39:48.327,2,-0.55,0.06,0.58,-294.9758,309.9574,122.07579999999999,175,75
2026-05-07 18:39:48.341,2,-0.58,-0.34,0.7,-367.41580000000005,393.9774,147.0158,175,75
2026-05-07 18:39:48.353,2,-0.48,-0.79,0.84,-429.48580000000004,470.62739999999997,152.7458,175,75
2026-05-07 18:39:48.364,2,-0.31,-1.24,0.97,-479.1258,526.1774,143.6658,175,75
2026-05-07 18:39:48.374,2,-0.0,-1.88,1.16,-528.3958,576.7873999999999,111.4058,175,75
2026-05-07 18:39:48.386,2,0.12,-2.91,1.84,-588.5758,696.0574,89.8758,175,75
2026-05-07 18:39:48.413,2,0.86,-3.81,2.73,-577.6558,593.1874,-12.014200000000002,175,75
2026-05-07 18:39:48.423,2,-0.32,-3.96,3.08,-556.3158,257.8874,-106.1542,175,75
2026-05-07 18:39:48.453,2,-1.24,-4.23,3.31,-545.8958,266.7874,-223.6542,175,75
2026-05-07 18:39:48.483,2,3.78,-3.73,4.27,-563.5758,293.43739999999997,-467.9242,175,75
2026-05-07 18:39:48.493,2,1.15,-3.15,4.27,-580.6458,262.3374,-282.8042,175,75
2026-05-07 18:39:48.493,2,1.89,-3.32,3.45,-470.8958,244.2274,-306.4042,175,75
2026-05-07 18:39:48.506,2,0.92,-3.42,3.35,-395.8958,129.8974,-304.8742,175,75
2026-05-07 18:39:48.518,2,-0.11,-2.43,2.67,-297.7258,155.3274,-320.1842,175,75
2026-05-07 18:39:48.576,2,0.03,-0.81,2.17,-80.4658,136.23739999999998,-201.70420000000001,175,75
2026-05-07 18:39:48.588,2,-0.22,-0.65,1.86,-62.355799999999995,93.3674,-168.7142,175,75
2026-05-07 18:39:48.602,2,-0.43,-0.43,1.71,-51.3758,89.5874,-148.2242,175,75
2026-05-07 18:39:48.614,2,-0.48,-0.11,1.69,-41.0158,94.4674,-134.26420000000002,175,75
2026-05-07 18:39:48.624,2,-0.49,0.11,1.72,-31.625799999999998,87.2174,-125.42420000000001,175,75
2026-05-07 18:39:48.635,2,-0.51,0.32,1.7,-19.425800000000002,57.8274,-120.9742,175,75
2026-05-07 18:39:48.646,2,-0.51,0.47,1.63,-10.7658,16.4774,-119.38419999999999,175,75
2026-05-07 18:39:48.646,2,-0.55,0.61,1.55,-5.0358,-24.492600000000003,-115.85420000000002,175,75
2026-05-07 18:39:48.674,2,-0.71,0.9,1.25,6.6042000000000005,-52.6626,-106.1542,175,75
2026-05-07 18:39:48.674,2,-0.79,1.0,1.13,14.4142,-38.3326,-101.4642,175,75
2026-05-07 18:39:48.696,2,-0.9,1.09,1.04,28.014200000000002,-7.302600000000002,-96.2142,175,75
2026-05-07 18:39:48.708,2,-0.95,1.13,0.99,43.074200000000005,40.3274,-87.4942,175,75
2026-05-07 18:39:48.708,2,-0.94,1.14,0.96,58.7442,91.3574,-76.52420000000001,175,75
2026-05-07 18:39:48.719,2,-0.93,1.13,0.96,75.0842,120.3274,-68.6542,175,75
2026-05-07 18:39:48.731,2,-0.93,1.1,1.02,91.3042,126.7874,-64.38419999999999,175,75
2026-05-07 18:39:48.742,2,-0.69,1.08,1.13,108.9242,108.7374,-55.364200000000004,175,75
2026-05-07 18:39:48.754,2,-0.43,1.16,1.31,113.13419999999999,49.657399999999996,-43.0442,175,75
2026-05-07 18:39:48.765,2,-0.45,1.22,1.4,114.90419999999999,10.3874,-33.5342,175,75
2026-05-07 18:39:48.765,2,-0.45,1.1,1.48,120.1442,-10.9526,-36.8242,175,75
2026-05-07 18:39:48.780,2,-0.61,0.89,1.46,125.4542,-40.2226,-43.2242,175,75
2026-05-07 18:39:48.791,2,-0.14,0.41,1.02,169.04420000000002,-88.8826,-129.7542,175,75
2026-05-07 18:39:48.802,2,0.67,0.44,0.72,185.1442,-140.1626,-71.27420000000001,175,75
2026-05-07 18:39:48.808,2,-0.35,0.3,0.91,143.3142,-7.912600000000001,-42.014199999999995,175,75
2026-05-07 18:39:48.831,2,0.25,1.08,0.3,137.70420000000001,198.24739999999997,-18.4142,175,75
2026-05-07 18:39:48.842,2,0.63,0.36,1.12,145.26420000000002,267.3974,18.8458,175,75
2026-05-07 18:39:48.853,2,0.92,0.48,1.47,132.88420000000002,184.2874,71.7758,175,75
2026-05-07 18:39:48.877,2,1.48,0.53,1.46,113.13419999999999,-72.3626,100.61580000000001,175,75
2026-05-07 18:39:48.890,2,1.55,0.45,1.12,129.10420000000002,-133.2726,108.47579999999999,175,75
2026-05-07 18:39:48.913,2,1.33,0.22,0.97,150.7542,-125.7726,96.5858,175,75
2026-05-07 18:39:48.929,2,1.2,0.14,1.17,145.1442,-47.9126,92.07579999999999,175,75
2026-05-07 18:39:48.941,2,1.2,0.12,1.23,133.6242,-30.8326,93.47579999999999,175,75
2026-05-07 18:39:48.952,2,1.13,0.12,1.28,117.6442,-31.812600000000003,96.64580000000001,175,75
2026-05-07 18:39:48.964,2,1.03,0.14,1.22,96.0642,-51.1426,103.7858,175,75
2026-05-07 18:39:48.987,2,0.75,0.34,0.94,95.51419999999999,-149.49259999999998,84.2758,175,75
2026-05-07 18:39:49.002,2,0.6,0.39,1.06,105.51419999999999,-151.44260000000003,65.1858,175,75
2026-05-07 18:39:49.008,2,0.48,0.3,1.2,102.21419999999999,-120.28259999999999,51.4658,175,75
2026-05-07 18:39:49.021,2,0.37,0.24,1.21,91.6742,-107.6626,43.055800000000005,175,75
2026-05-07 18:39:49.033,2,0.23,0.29,1.16,83.3142,-112.78259999999999,30.675800000000002,175,75
2026-05-07 18:39:49.043,2,0.13,0.37,1.09,78.49419999999999,-118.2726,12.5058,175,75
2026-05-07 18:39:49.062,2,0.2,0.6,0.96,82.2742,-116.44260000000001,-6.644199999999998,175,75
2026-05-07 18:39:49.072,2,0.26,0.79,0.93,93.8642,-101.2026,-9.0242,175,75
2026-05-07 18:39:49.083,2,0.12,1.15,0.88,129.6542,-49.8626,-0.5442,175,75
2026-05-07 18:39:49.120,2,0.13,0.73,1.28,142.4042,83.3074,-23.654199999999996,175,75
2026-05-07 18:39:49.128,2,0.1,0.59,1.33,136.85420000000002,74.7774,-21.404199999999996,175,75
2026-05-07 18:39:49.137,2,0.08,0.52,1.32,133.8042,64.22739999999999,-19.324199999999998,175,75
2026-05-07 18:39:49.154,2,0.15,0.42,1.32,136.6742,61.8474,-21.214199999999998,175,75
2026-05-07 18:39:49.158,2,0.26,0.27,1.35,147.2742,76.3574,-30.2442,175,75
2026-05-07 18:39:49.179,2,0.24,0.17,1.43,163.3142,106.8474,-29.514200000000002,175,75
2026-05-07 18:39:49.190,2,0.11,0.03,1.54,174.35420000000002,136.0574,-8.534199999999998,175,75
2026-05-07 18:39:49.190,2,0.06,-0.07,1.62,174.7742,154.7774,13.3558,175,75
2026-05-07 18:39:49.202,2,0.21,-0.15,1.72,175.6942,154.2274,32.805800000000005,175,75
2026-05-07 18:39:49.213,2,0.48,-0.19,1.86,183.7442,122.5774,37.3758,175,75
2026-05-07 18:39:49.227,2,0.82,-0.09,2.1,203.4342,43.6174,31.0958,175,75
2026-05-07 18:39:49.238,2,1.03,-0.03,2.27,215.57420000000002,-24.6126,31.7758,175,75
2026-05-07 18:39:49.250,2,1.05,-0.0,2.22,215.57420000000002,-54.982600000000005,49.5758,175,75
2026-05-07 18:39:49.260,2,0.94,0.01,2.1,217.1542,-77.3626,74.20580000000001,175,75
2026-05-07 18:39:49.272,2,0.86,-0.05,2.01,222.88420000000002,-101.4426,103.5958,175,75
2026-05-07 18:39:49.283,2,0.75,-0.12,1.96,228.2542,-105.7126,118.23580000000001,175,75
2026-05-07 18:39:49.294,2,0.6,-0.25,1.79,235.20420000000001,-85.6526,103.5358,175,75
2026-05-07 18:39:49.300,2,0.5,-0.35,1.62,240.63420000000002,-62.6626,74.5758,175,75
2026-05-07 18:39:49.310,2,0.56,-0.35,1.53,249.96420000000003,-56.7526,58.7858,175,75
2026-05-07 18:39:49.319,2,0.56,-0.23,1.5,271.5442,-54.492599999999996,56.775800000000004,175,75
2026-05-07 18:39:49.330,2,0.48,-0.15,1.46,287.0342,-35.592600000000004,66.3458,175,75
2026-05-07 18:39:49.341,2,0.38,-0.13,1.42,294.9642,-1.3226000000000013,86.89580000000001,175,75
2026-05-07 18:39:49.361,2,0.19,-0.15,1.38,292.2742,58.4374,141.2858,175,75
2026-05-07 18:39:49.387,2,0.02,-0.22,1.39,281.6042,72.3974,179.0258,175,75
2026-05-07 18:39:49.409,2,-0.12,-0.2,1.32,270.63419999999996,38.737399999999994,184.39579999999998,175,75
2026-05-07 18:39:49.421,2,-0.2,-0.17,1.23,262.58419999999995,13.0674,172.6858,175,75
2026-05-07 18:39:49.437,2,-0.28,-0.2,1.13,254.84420000000003,6.787399999999998,161.1658,175,75
2026-05-07 18:39:49.449,2,-0.34,-0.25,1.06,250.5742,18.4974,168.23579999999998,175,75
2026-05-07 18:39:49.460,2,-0.39,-0.28,1.03,246.60420000000002,26.057399999999998,174.51579999999998,175,75
2026-05-07 18:39:49.472,2,-0.44,-0.37,1.0,243.3142,30.867399999999996,172.6858,175,75
2026-05-07 18:39:49.479,2,-0.42,-0.47,0.95,241.1842,23.917399999999997,168.6658,175,75
2026-05-07 18:39:49.492,2,-0.28,-0.56,0.78,237.4642,-25.8326,154.8758,175,75
2026-05-07 18:39:49.499,2,-0.22,-0.64,0.56,228.5642,-148.5826,124.0858,175,75
2026-05-07 18:39:49.512,2,-0.41,-0.64,0.32,213.98420000000002,-313.7026,97.19579999999999,175,75
2026-05-07 18:39:49.525,2,-0.85,-0.63,0.09,203.8642,-392.7826,77.86580000000001,175,75
2026-05-07 18:39:49.536,2,-1.48,-0.62,-0.28,194.10420000000002,-415.4726,41.5858,175,75
2026-05-07 18:39:49.536,2,-1.97,-0.61,-0.8,189.5342,-391.2626,-12.014200000000002,175,75
2026-05-07 18:39:49.558,2,-2.51,-0.65,-1.51,165.38420000000002,-321.75260000000003,-111.0942,175,75
2026-05-07 18:39:49.568,2,-2.55,-0.7,-1.87,114.5342,-193.1526,-188.4742,175,75
2026-05-07 18:39:49.599,2,-1.55,-0.96,-1.13,-153.39579999999998,574.5274,98.0558,175,75
2026-05-07 18:39:49.610,2,-0.95,-1.51,-0.65,-213.51579999999998,593.1874,102.5658,175,75
2026-05-07 18:39:49.626,2,-0.88,-2.7,0.21,-273.3958,503.3674,87.6858,175,75
2026-05-07 18:39:49.645,2,-1.05,-3.62,0.95,-372.04580000000004,513.4974,7.805800000000001,175,75
2026-05-07 18:39:49.655,2,-1.16,-4.17,1.48,-478.0258,562.6974,-61.8242,175,75
2026-05-07 18:39:49.666,2,-1.19,-4.76,2.07,-599.2457999999999,619.4073999999999,-154.7542,175,75
2026-05-07 18:39:49.677,2,-1.04,-5.49,2.55,-660.8258,647.4574,-221.76420000000002,175,75
2026-05-07 18:39:49.688,2,-0.88,-6.19,3.08,-696.7457999999999,609.1673999999999,-341.76419999999996,175,75
2026-05-07 18:39:49.699,2,0.85,-6.34,3.96,-759.0057999999999,626.4173999999999,-329.32419999999996,175,75
2026-05-07 18:39:49.712,2,0.48,-5.96,4.21,-790.0957999999999,573.4974,-272.5542,175,75
2026-05-07 18:39:49.723,2,-0.08,-6.34,4.21,-763.8158,450.8074,-322.4342,175,75
2026-05-07 18:39:49.736,2,-0.04,-6.6,4.72,-739.0658,241.4774,-356.1542,175,75
2026-05-07 18:39:49.752,2,0.05,-4.82,3.94,-653.6358,-131.0226,-316.70419999999996,175,75
2026-05-07 18:39:49.765,2,0.11,-4.22,3.29,-624.7958,-198.82260000000002,-280.3642,175,75
2026-05-07 18:39:49.777,2,0.01,-3.3,2.74,-594.3657999999999,-134.43259999999998,-224.32420000000002,175,75
2026-05-07 18:39:49.787,2,0.01,-2.43,2.35,-530.7058,19.8374,-180.85420000000002,175,75
2026-05-07 18:39:49.803,2,-0.01,-1.55,2.26,-441.1358,234.1674,-142.5542,175,75
2026-05-07 18:39:49.803,2,-0.39,-1.13,2.41,-360.2858,390.56739999999996,-140.7242,175,75
2026-05-07 18:39:49.826,2,-0.38,-1.05,2.73,-276.2558,451.4774,-167.9242,175,75
2026-05-07 18:39:49.837,2,-0.18,-1.11,3.17,-231.1958,414.8374,-170.2442,175,75
2026-05-07 18:39:49.842,2,-0.05,-1.05,3.46,-212.6558,289.7774,-155.85420000000002,175,75
2026-05-07 18:39:49.859,2,-0.19,-0.76,3.55,-209.8558,144.04739999999998,-139.51420000000002,175,75
2026-05-07 18:39:49.872,2,-0.62,-0.37,3.31,-198.6958,54.587399999999995,-138.10420000000002,175,75
2026-05-07 18:39:49.885,2,-0.92,-0.05,2.95,-187.4158,52.6974,-144.7542,175,75
2026-05-07 18:39:49.895,2,-1.03,0.36,2.61,-168.7558,93.06739999999999,-155.4242,175,75
2026-05-07 18:39:49.912,2,-1.02,0.91,2.4,-93.6958,190.25740000000002,-168.7742,175,75
2026-05-07 18:39:49.924,2,-1.1,1.05,2.39,-38.2058,249.2874,-157.4942,175,75
2026-05-07 18:39:49.935,2,-1.01,1.1,2.41,25.2042,272.88739999999996,-139.6942,175,75
2026-05-07 18:39:49.947,2,-0.75,0.83,2.5,86.4842,221.7874,-109.4442,175,75
2026-05-07 18:39:49.958,2,-0.76,0.56,2.51,105.32419999999999,133.3674,-84.14420000000001,175,75
2026-05-07 18:39:49.958,2,-0.89,0.46,2.32,112.40419999999999,40.5074,-74.63419999999999,175,75
2026-05-07 18:39:49.974,2,-0.98,0.51,2.06,129.04420000000002,-20.8926,-66.52420000000001,175,75
2026-05-07 18:39:50.014,2,-1.08,0.49,1.56,160.57420000000002,-101.8126,-25.6042,175,75
2026-05-07 18:39:50.014,2,-1.06,0.5,1.45,158.3742,-108.7026,-23.654199999999996,175,75
2026-05-07 18:39:50.027,2,-1.08,0.63,1.32,164.41420000000002,-114.9826,-24.084200000000003,175,75
2026-05-07 18:39:50.057,2,-0.94,0.77,1.19,191.6742,-84.1926,-21.0942,175,75
2026-05-07 18:39:50.068,2,-0.79,0.75,1.14,189.7742,-64.6126,-6.214199999999998,175,75
2026-05-07 18:39:50.080,2,-0.83,0.74,1.11,179.7142,-39.9226,2.3758000000000017,175,75
2026-05-07 18:39:50.093,2,-0.96,0.74,1.16,178.07420000000002,-16.992600000000003,-6.8842,175,75
2026-05-07 18:39:50.106,2,-0.83,0.73,1.14,178.3742,-3.5226000000000006,-22.194200000000002,175,75
2026-05-07 18:39:50.121,2,-0.56,0.75,1.11,168.98420000000002,-59.0626,-34.0242,175,75
2026-05-07 18:39:50.121,2,-0.53,0.86,1.18,158.01420000000002,-93.4526,-34.2042,175,75
2026-05-07 18:39:50.134,2,-0.52,0.9,1.19,148.1942,-90.4126,-37.5542,175,75
2026-05-07 18:39:50.148,2,-0.52,0.82,1.12,147.88420000000002,-86.6326,-41.5842,175,75
2026-05-07 18:39:50.159,2,-0.56,0.72,1.04,149.6542,-101.2026,-40.724199999999996,175,75
2026-05-07 18:39:50.171,2,-0.68,0.57,1.01,147.82420000000002,-107.1126,-47.4342,175,75
2026-05-07 18:39:50.183,2,-1.73,0.17,1.34,154.1742,-53.762600000000006,-100.60419999999999,175,75
2026-05-07 18:39:50.194,2,-0.55,-0.69,0.64,160.7542,-25.712600000000002,-240.1242,175,75
2026-05-07 18:39:50.205,2,0.8,-0.06,0.72,122.34419999999999,123.2474,-3.1041999999999987,175,75
2026-05-07 18:39:50.214,2,-0.87,1.01,0.4,140.45420000000001,355.93739999999997,-5.664200000000001,175,75
2026-05-07 18:39:50.225,2,-0.88,-0.59,1.32,240.26420000000002,422.0874,20.1258,175,75
2026-05-07 18:39:50.234,2,-0.43,-1.07,2.31,234.5342,314.2874,131.3458,175,75
2026-05-07 18:39:50.255,2,0.51,-1.27,2.35,150.38420000000002,-67.7226,233.29579999999999,175,75
2026-05-07 18:39:50.265,2,0.75,-1.56,2.06,189.4742,-68.2126,258.7858,175,75
2026-05-07 18:39:50.278,2,0.6,-2.09,1.94,255.6942,-38.272600000000004,276.0358,175,75
2026-05-07 18:39:50.293,2,0.53,-2.67,2.04,325.8742,-13.7026,291.7058,175,75
2026-05-07 18:39:50.304,2,0.43,-3.25,2.34,366.1842,9.347399999999999,313.8458,175,75
2026-05-07 18:39:50.314,2,0.77,-3.35,2.69,361.3042,49.7174,329.5758,175,75
2026-05-07 18:39:50.326,2,1.43,-3.04,3.02,360.14419999999996,-15.2226,357.92580000000004,175,75
2026-05-07 18:39:50.340,2,1.51,-2.99,3.08,404.2342,-126.1426,374.6958,175,75
2026-05-07 18:39:50.349,2,0.97,-3.23,2.87,439.3542,-208.45260000000002,371.9558,175,75
2026-05-07 18:39:50.361,2,0.84,-3.53,2.71,436.8542,-210.3426,359.4558,175,75
2026-05-07 18:39:50.369,2,0.76,-3.62,2.6,444.2342,-229.00260000000003,352.4458,175,75
2026-05-07 18:39:50.388,2,0.55,-3.62,2.48,450.08419999999995,-260.4126,331.0958,175,75
2026-05-07 18:39:50.402,2,0.49,-3.4,2.12,440.45419999999996,-297.9726,259.6358,175,75
2026-05-07 18:39:50.430,2,0.35,-3.02,1.67,427.70419999999996,-261.87260000000003,241.95579999999998,175,75
2026-05-07 18:39:50.443,2,0.25,-2.82,1.56,427.0942,-249.25260000000003,244.14579999999998,175,75
2026-05-07 18:39:50.456,2,0.15,-2.5,1.47,420.20419999999996,-240.0426,240.9158,175,75
2026-05-07 18:39:50.467,2,0.02,-2.05,1.37,388.01419999999996,-244.37260000000003,233.6658,175,75
2026-05-07 18:39:50.493,2,-0.1,-1.73,1.27,360.08419999999995,-263.5226,222.4458,175,75
2026-05-07 18:39:50.493,2,-0.22,-1.45,1.16,332.70419999999996,-296.75260000000003,200.3658,175,75
2026-05-07 18:39:50.504,2,-0.34,-1.2,1.07,307.0342,-324.61260000000004,169.14579999999998,175,75
2026-05-07 18:39:50.518,2,-0.48,-0.86,0.91,277.58419999999995,-344.55260000000004,126.8358,175,75
2026-05-07 18:39:50.552,2,-0.66,-0.21,0.6,271.5442,-354.37260000000003,34.455799999999996,175,75
2026-05-07 18:39:50.562,2,-0.72,0.05,0.51,285.45419999999996,-348.7626,-11.7042,175,75
2026-05-07 18:39:50.566,2,-0.72,0.2,0.42,296.7342,-344.00260000000003,-41.764199999999995,175,75
2026-05-07 18:39:50.595,2,-0.69,0.45,0.36,312.70419999999996,-299.9226,-88.1642,175,75
2026-05-07 18:39:50.607,2,-0.68,0.61,0.37,279.0442,-189.00260000000003,-72.4942,175,75
2026-05-07 18:39:50.617,2,-0.86,0.71,0.31,231.1842,-94.9226,-40.974199999999996,175,75
2026-05-07 18:39:50.639,2,-1.0,0.71,0.32,159.4742,65.50739999999999,-16.2742,175,75
2026-05-07 18:39:50.655,2,-0.86,0.64,0.41,151.60420000000002,102.5174,-8.2242,175,75
2026-05-07 18:39:50.668,2,-0.76,0.65,0.5,153.5642,119.7774,-3.164200000000001,175,75
2026-05-07 18:39:50.697,2,-0.57,0.65,0.63,156.6742,97.45739999999999,-7.3142,175,75
2026-05-07 18:39:50.697,2,-0.56,0.6,0.67,146.9742,59.7774,-6.2742,175,75
2026-05-07 18:39:50.709,2,-0.61,0.57,0.67,131.3642,14.2274,-1.2742000000000004,175,75
2026-05-07 18:39:50.722,2,-0.74,0.55,0.63,113.43419999999999,-41.0826,5.675800000000002,175,75
2026-05-07 18:39:50.734,2,-0.87,0.53,0.56,101.79419999999999,-85.7726,10.245800000000001,175,75
2026-05-07 18:39:50.734,2,-0.98,0.5,0.49,93.5642,-119.8626,10.305800000000001,175,75
2026-05-07 18:39:50.745,2,-1.04,0.44,0.39,87.82419999999999,-136.87259999999998,-13.224199999999996,175,75
2026-05-07 18:39:50.762,2,-1.08,0.36,0.28,81.6742,-125.53259999999999,-61.764199999999995,175,75
2026-05-07 18:39:50.773,2,-1.18,0.42,0.23,76.60419999999999,-96.32260000000001,-92.07419999999999,175,75
2026-05-07 18:39:50.797,2,-0.92,0.66,0.17,93.2542,-24.6126,-99.14420000000001,175,75
2026-05-07 18:39:50.797,2,-0.8,0.74,0.23,97.82419999999999,17.827399999999997,-75.7242,175,75
2026-05-07 18:39:50.810,2,-0.81,0.8,0.29,91.4842,78.4374,-41.2142,175,75
2026-05-07 18:39:50.820,2,-0.93,0.8,0.3,69.5942,147.8874,-3.1041999999999987,175,75
2026-05-07 18:39:50.832,2,-1.03,0.76,0.33,41.8542,193.12740000000002,23.7258,175,75
2026-05-07 18:39:50.842,2,-1.07,0.74,0.37,25.4542,207.4574,37.2558,175,75
2026-05-07 18:39:50.865,2,-1.01,0.72,0.45,9.1742,206.9074,51.2258,175,75
2026-05-07 18:39:50.880,2,-0.63,0.7,0.53,-32.6558,166.29739999999998,87.8058,175,75
2026-05-07 18:39:50.900,2,-0.35,0.73,0.55,-91.31580000000001,131.23739999999998,126.0958,175,75
2026-05-07 18:39:50.913,2,-0.09,0.65,0.54,-151.98579999999998,136.9674,137.3758,175,75
2026-05-07 18:39:50.932,2,-0.48,0.22,0.72,-272.6558,260.4474,112.3758,175,75
2026-05-07 18:39:50.941,2,-0.17,-0.02,0.8,-333.0858,317.94739999999996,135.3658,175,75
2026-05-07 18:39:50.961,2,0.67,-0.44,1.12,-416.92580000000004,375.38739999999996,159.9458,175,75
2026-05-07 18:39:50.993,2,0.23,-1.5,0.83,-632.6558,227.2174,169.9458,175,75
2026-05-07 18:39:51.013,2,0.21,-2.73,1.02,-649.0057999999999,270.0174,64.8758,175,75
2026-05-07 18:39:51.028,2,0.88,-3.46,1.71,-650.2858,485.50739999999996,36.0358,175,75
2026-05-07 18:39:51.035,2,4.62,-3.89,2.87,-679.8557999999999,532.4574,133.0558,175,75
2026-05-07 18:39:51.044,2,1.22,-3.56,3.43,-740.1558,560.8674,323.17580000000004,175,75
2026-05-07 18:39:51.060,2,1.38,-3.62,2.88,-668.7557999999999,664.4674,187.01579999999998,175,75
2026-05-07 18:39:51.063,2,0.43,-3.36,2.75,-540.7658,109.2874,9.0258,175,75
2026-05-07 18:39:51.070,2,-0.43,-3.4,2.92,-474.30580000000003,-12.5426,-97.4342,175,75
2026-05-07 18:39:51.104,2,0.41,-3.3,2.36,-574.3657999999999,47.517399999999995,-275.9142,175,75
2026-05-07 18:39:51.104,2,2.74,-3.14,2.8,-562.9058,-147.7826,-158.6542,175,75
2026-05-07 18:39:51.120,2,1.42,-3.24,2.2,-517.4158,-1.9326000000000008,-139.3842,175,75
2026-05-07 18:39:51.132,2,1.18,-2.98,1.89,-488.0258,45.5674,-117.07420000000002,175,75
2026-05-07 18:39:51.146,2,0.32,-2.61,1.59,-417.9058,146.23739999999998,-119.9942,175,75
2026-05-07 18:39:51.151,2,-0.13,-2.34,1.39,-304.18580000000003,200.25740000000002,-145.85420000000002,175,75
2026-05-07 18:39:51.163,2,-0.98,-2.13,1.34,-221.5658,256.2374,-192.7442,175,75
2026-05-07 18:39:51.173,2,-1.61,-1.87,1.29,-148.26579999999998,360.93739999999997,-263.9642,175,75
2026-05-07 18:39:51.184,2,-1.76,-1.52,1.3,-40.0358,486.3574,-376.88419999999996,175,75
2026-05-07 18:39:51.195,2,-1.32,-1.27,1.44,45.324200000000005,527.4574,-441.64419999999996,175,75
2026-05-07 18:39:51.208,2,-0.86,-0.97,1.67,110.38419999999999,532.6974,-452.25419999999997,175,75
2026-05-07 18:39:51.216,2,-0.38,-0.52,1.84,158.13420000000002,517.5174000000001,-415.4842,175,75
2026-05-07 18:39:51.229,2,2.09,-0.02,2.34,146.60420000000002,414.8374,-186.8842,175,75
2026-05-07 18:39:51.241,2,0.06,-0.0,1.87,131.54420000000002,239.9574,-79.51419999999999,175,75
2026-05-07 18:39:51.267,2,0.18,-0.25,1.91,206.6742,21.3574,-74.14420000000001,175,75
2026-05-07 18:39:51.283,2,-0.47,-0.27,1.58,187.2742,-64.0026,-40.1242,175,75
2026-05-07 18:39:51.294,2,-0.28,-0.15,1.3,168.5642,-102.3626,-24.0242,175,75
2026-05-07 18:39:51.313,2,-0.4,-0.09,1.06,160.8742,-122.4226,-18.224199999999996,175,75
2026-05-07 18:39:51.336,2,-0.58,-0.06,0.67,179.9042,-31.4426,-43.904199999999996,175,75
2026-05-07 18:39:51.360,2,-0.65,0.21,0.73,206.6742,233.79739999999998,-31.0342,175,75
2026-05-07 18:39:51.384,2,-0.69,0.37,0.98,220.0242,326.2374,10.065800000000001,175,75
2026-05-07 18:39:51.390,2,-0.64,0.38,1.08,232.76420000000002,315.0774,31.8358,175,75
2026-05-07 18:39:51.404,2,-0.63,0.42,1.35,248.7442,286.4774,44.945800000000006,175,75
2026-05-07 18:39:51.427,2,-0.16,0.43,1.73,225.0242,170.50740000000002,64.69579999999999,175,75
2026-05-07 18:39:51.438,2,-0.01,0.4,1.78,207.0942,59.657399999999996,64.39580000000001,175,75
2026-05-07 18:39:51.438,2,0.12,0.36,1.64,201.85420000000002,-89.9226,64.20580000000001,175,75
2026-05-07 18:39:51.450,2,-0.04,0.28,1.4,201.60420000000002,-218.1526,51.2258,175,75
2026-05-07 18:39:51.473,2,-0.15,0.29,1.17,201.91420000000002,-204.31259999999997,40.555800000000005,175,75
2026-05-07 18:39:51.479,2,-0.09,0.18,1.03,207.4642,-141.38260000000002,34.5158,175,75
2026-05-07 18:39:51.492,2,-0.17,0.02,1.34,227.0342,-80.4126,25.3058,175,75
2026-05-07 18:39:51.517,2,0.88,-0.58,1.35,241.1842,-83.4526,11.465800000000002,175,75
2026-05-07 18:39:51.530,2,0.24,-0.55,1.7,238.5642,-24.672600000000003,42.3758,175,75
2026-05-07 18:39:51.544,2,0.98,-0.18,1.07,214.41420000000002,-19.3726,47.195800000000006,175,75
2026-05-07 18:39:51.555,2,0.3,-0.66,1.32,246.91420000000002,43.0074,56.2858,175,75
2026-05-07 18:39:51.567,2,1.0,-0.25,1.5,231.1842,48.1874,99.8758,175,75
2026-05-07 18:39:51.582,2,1.14,-0.27,1.68,208.98420000000002,-43.6426,123.8458,175,75
2026-05-07 18:39:51.603,2,1.12,-0.27,1.51,176.1242,-84.8026,158.1158,175,75
2026-05-07 18:39:51.627,2,0.76,-0.6,1.29,195.9942,-65.8926,152.98579999999998,175,75
2026-05-07 18:39:51.639,2,0.58,-0.8,1.29,220.32420000000002,-45.592600000000004,143.9058,175,75
2026-05-07 18:39:51.646,2,0.46,-0.93,1.46,242.2742,-17.1126,136.5858,175,75
2026-05-07 18:39:51.662,2,0.5,-0.9,1.63,237.2742,-1.752600000000001,138.5358,175,75
2026-05-07 18:39:51.681,2,0.48,-0.68,1.69,216.85420000000002,-8.2726,135.1258,175,75
2026-05-07 18:39:51.706,2,0.27,-0.07,1.29,202.0342,-105.2826,133.3558,175,75
2026-05-07 18:39:51.721,2,0.14,-0.09,1.12,208.6842,-96.6326,132.5658,175,75
2026-05-07 18:39:51.732,2,0.02,-0.07,1.07,219.23420000000002,-67.1726,131.0358,175,75
2026-05-07 18:39:51.744,2,0.2,0.08,1.31,245.1442,-18.9426,122.5658,175,75
2026-05-07 18:39:51.755,2,0.14,0.14,1.45,248.4342,-46.202600000000004,126.4658,175,75
2026-05-07 18:39:51.773,2,0.0,0.21,1.57,243.9242,-75.5326,132.5058,175,75
2026-05-07 18:39:51.784,2,-0.02,0.21,1.53,228.6242,-126.2626,117.01580000000001,175,75
2026-05-07 18:39:51.795,2,0.06,0.16,1.48,213.6242,-182.30259999999998,81.8358,175,75
2026-05-07 18:39:51.812,2,0.13,0.12,1.44,212.4042,-222.9126,50.6758,175,75
2026-05-07 18:39:51.834,2,0.0,0.3,1.31,226.3042,-248.64260000000002,16.3458,175,75
2026-05-07 18:39:51.855,2,-0.03,0.18,1.23,223.5642,-207.9126,-2.8642000000000003,175,75
2026-05-07 18:39:51.867,2,0.04,0.01,1.27,212.4642,-179.49259999999998,6.645800000000001,175,75
2026-05-07 18:39:51.878,2,0.15,-0.25,1.32,199.35420000000002,-129.80259999999998,28.535800000000002,175,75
2026-05-07 18:39:51.889,2,0.09,-0.51,1.3,193.98420000000002,-60.592600000000004,47.3758,175,75
2026-05-07 18:39:51.902,2,0.04,-0.64,1.28,196.79420000000002,-4.372600000000002,46.2858,175,75
2026-05-07 18:39:51.928,2,0.53,0.03,1.71,264.1042,-15.412600000000001,-8.0442,175,75
2026-05-07 18:39:51.942,2,0.76,-0.06,1.94,277.3442,-7.242600000000003,-5.484199999999998,175,75
2026-05-07 18:39:51.977,2,0.75,-0.38,2.02,271.8542,39.5274,93.5958,175,75
2026-05-07 18:39:51.977,2,0.57,-0.38,2.01,270.14419999999996,20.687399999999997,150.8558,175,75
2026-05-07 18:39:52.003,2,0.21,-0.33,1.9,285.8742,-63.702600000000004,231.64579999999998,175,75
2026-05-07 18:39:52.003,2,-0.17,-0.61,1.64,297.4642,-62.1126,176.1658,175,75
2026-05-07 18:39:52.015,2,-0.3,-0.77,1.35,296.4842,-28.9426,115.1858,175,75
2026-05-07 18:39:52.051,2,0.28,-0.52,1.3,350.57419999999996,-53.9426,147.2558,175,75
2026-05-07 18:39:52.068,2,0.21,-0.58,1.22,317.58419999999995,12.757399999999999,202.5058,175,75
2026-05-07 18:39:52.096,2,0.01,-0.46,1.12,300.20419999999996,5.567399999999999,209.9458,175,75
2026-05-07 18:39:52.107,2,-0.18,-0.4,0.96,302.2142,-39.3126,187.1958,175,75
2026-05-07 18:39:52.119,2,-0.38,-0.39,0.77,302.3442,-104.9826,163.4758,175,75
2026-05-07 18:39:52.133,2,-0.51,-0.51,0.58,296.7342,-178.64260000000002,126.4658,175,75
2026-05-07 18:39:52.145,2,-0.72,-0.66,0.44,282.58419999999995,-241.75260000000003,84.94579999999999,175,75
2026-05-07 18:39:52.145,2,-1.2,-0.79,0.07,250.6342,-287.1726,9.815800000000001,175,75
2026-05-07 18:39:52.169,2,-1.63,-0.65,-0.32,219.35420000000002,-254.37260000000003,-78.1642,175,75
2026-05-07 18:39:52.185,2,-1.76,0.12,-0.85,207.0342,-144.19260000000003,-200.0542,175,75
2026-05-07 18:39:52.193,2,-1.69,0.3,-0.85,191.73420000000002,-64.0626,-181.0342,175,75
2026-05-07 18:39:52.204,2,-1.72,0.4,-0.97,131.91420000000002,108.2474,-59.3842,175,75
2026-05-07 18:39:52.215,2,-2.37,0.25,-0.89,53.4942,293.8574,45.915800000000004,175,75
2026-05-07 18:39:52.238,2,-1.67,-0.76,-0.39,-151.8058,549.1673999999999,159.7558,175,75
2026-05-07 18:39:52.279,2,-1.22,-2.64,0.15,-250.2258,292.3374,93.5958,175,75
2026-05-07 18:39:52.290,2,-1.32,-3.12,0.52,-362.6558,244.8974,58.1158,175,75
2026-05-07 18:39:52.309,2,-1.55,-3.59,0.6,-464.91580000000005,290.93739999999997,60.4858,175,75
2026-05-07 18:39:52.311,2,-1.89,-4.17,0.62,-565.0358,371.0574,52.565799999999996,175,75
2026-05-07 18:39:52.323,2,-1.99,-5.21,0.72,-655.6458,504.4074,0.24579999999999913,175,75
2026-05-07 18:39:52.333,2,-1.57,-6.38,1.16,-680.3457999999999,621.2974,-48.654199999999996,175,75
2026-05-07 18:39:52.347,2,-0.99,-7.07,1.96,-675.4658,714.0474,-80.1242,175,75
2026-05-07 18:39:52.362,2,-0.17,-7.39,2.96,-684.9757999999999,700.8674,-91.1542,175,75
2026-05-07 18:39:52.368,2,-0.26,-7.39,3.6,-743.8757999999999,474.1074,-98.9042,175,75
2026-05-07 18:39:52.397,2,-0.82,-7.21,3.72,-781.1958,210.0174,-127.6842,175,75
2026-05-07 18:39:52.419,2,0.15,-5.34,3.35,-661.2557999999999,64.1074,-146.2742,175,75
2026-05-07 18:39:52.430,2,0.24,-4.5,3.05,-613.2658,9.657399999999999,-99.9942,175,75
2026-05-07 18:39:52.430,2,-0.08,-3.81,2.66,-565.6458,-0.5326000000000022,-76.70419999999999,175,75
2026-05-07 18:39:52.445,2,-0.17,-3.02,2.3,-495.1558,58.8574,-79.57419999999999,175,75
2026-05-07 18:39:52.460,2,-0.01,-2.43,2.11,-429.36580000000004,134.4074,-79.26419999999999,175,75
2026-05-07 18:39:52.494,2,0.22,-1.42,2.09,-257.4758,322.5174,-37.0142,175,75
2026-05-07 18:39:52.494,2,-0.17,-1.22,2.38,-257.5958,375.8674,-44.4442,175,75
2026-05-07 18:39:52.513,2,-0.48,-0.78,2.62,-273.6358,413.6174,-79.63419999999999,175,75
2026-05-07 18:39:52.523,2,-0.64,-0.29,2.79,-280.7058,411.9674,-127.6242,175,75
2026-05-07 18:39:52.540,2,-0.59,1.08,3.04,-240.5258,148.12740000000002,-137.4342,175,75
2026-05-07 18:39:52.557,2,-0.15,1.58,2.57,-141.6858,54.837399999999995,-143.04420000000002,175,75
2026-05-07 18:39:52.569,2,-0.06,1.47,2.17,-41.2558,5.507399999999999,-76.0342,175,75
2026-05-07 18:39:52.581,2,0.0,1.04,1.98,26.364200000000004,-37.9726,-2.3741999999999983,175,75
2026-05-07 18:39:52.581,2,-0.01,0.48,1.95,27.824200000000005,-72.1726,-5.664200000000001,175,75
2026-05-07 18:39:52.607,2,-0.52,0.14,1.86,-17.355800000000002,23.187399999999997,-87.7442,175,75
2026-05-07 18:39:52.619,2,-0.49,0.68,2.01,51.544200000000004,58.4374,-102.07419999999999,175,75
2026-05-07 18:39:52.634,2,-0.57,0.67,2.04,51.184200000000004,47.2774,-110.6642,175,75
2026-05-07 18:39:52.658,2,-0.67,0.68,1.94,24.5942,34.1074,-119.9942,175,75
2026-05-07 18:39:52.658,2,-0.65,0.75,1.8,4.7142,43.2474,-117.6242,175,75
2026-05-07 18:39:52.692,2,-0.75,0.95,1.57,30.0242,146.9674,-114.7542,175,75
2026-05-07 18:39:52.774,2,-0.89,0.62,1.67,171.6742,77.0274,-0.2441999999999993,175,75
2026-05-07 18:39:52.789,2,-0.81,0.39,1.56,196.60420000000002,-24.1926,12.1958,175,75
2026-05-07 18:39:52.811,2,-0.66,0.2,1.36,214.23420000000002,-100.7126,7.0158000000000005,175,75
2026-05-07 18:39:52.826,2,-1.89,-0.47,1.66,230.26420000000002,26.8474,-102.7442,175,75
2026-05-07 18:39:52.844,2,0.38,0.07,0.57,226.0642,35.9374,-44.4442,175,75
2026-05-07 18:39:52.852,2,0.0,0.5,0.46,162.0342,76.1174,27.8058,175,75
2026-05-07 18:39:52.863,2,-1.01,2.03,0.7,196.91420000000002,410.50739999999996,102.2558,175,75
2026-05-07 18:39:52.876,2,-0.48,0.81,1.11,243.4342,471.7274,72.0758,175,75
2026-05-07 18:39:52.887,2,-0.22,0.15,1.81,223.5642,363.7974,123.17580000000001,175,75
2026-05-07 18:39:52.896,2,0.18,0.1,2.43,175.6942,168.43740000000003,153.7258,175,75
2026-05-07 18:39:52.913,2,0.51,-0.72,2.2,143.9242,-38.1526,139.8758,175,75
2026-05-07 18:39:52.924,2,0.39,-1.3,1.82,133.8642,-113.5826,155.73579999999998,175,75
2026-05-07 18:39:52.934,2,0.31,-1.47,1.47,145.8142,-90.2826,193.4758,175,75
2026-05-07 18:39:52.947,2,0.31,-1.49,1.4,189.23420000000002,-3.8826,239.0858,175,75
2026-05-07 18:39:52.957,2,0.46,-1.63,1.54,226.3642,65.8674,275.7958,175,75
2026-05-07 18:39:52.969,2,0.43,-1.69,1.86,253.8042,80.7474,310.36580000000004,175,75
2026-05-07 18:39:52.969,2,0.49,-1.78,2.22,260.63419999999996,64.3474,328.47580000000005,175,75
2026-05-07 18:39:52.983,2,1.0,-1.89,2.57,245.8742,15.997399999999999,351.8358,175,75
2026-05-07 18:39:53.006,2,1.25,-1.79,2.63,231.73420000000002,-68.3926,366.5258,175,75
2026-05-07 18:39:53.018,2,1.55,-1.46,2.65,268.9242,-267.05260000000004,378.5358,175,75
2026-05-07 18:39:53.018,2,1.11,-1.73,2.53,309.7142,-282.36260000000004,362.2558,175,75
2026-05-07 18:39:53.048,2,0.94,-2.61,1.91,275.9942,-142.6626,407.1358,175,75
2026-05-07 18:39:53.059,2,0.65,-2.78,1.46,261.3042,-66.6326,392.1358,175,75
2026-05-07 18:39:53.069,2,0.58,-2.5,1.7,369.7742,-44.7426,231.1658,175,75
2026-05-07 18:39:53.085,2,0.88,-2.21,2.15,400.63419999999996,-51.5626,169.3358,175,75
2026-05-07 18:39:53.096,2,0.86,-2.06,2.37,374.8442,-42.3626,140.0058,175,75
2026-05-07 18:39:53.111,2,0.95,-2.06,2.43,339.3542,-29.982600000000005,130.5558,175,75
2026-05-07 18:39:53.118,2,1.08,-2.17,2.38,320.32419999999996,-63.702600000000004,137.6258,175,75
2026-05-07 18:39:53.132,2,1.03,-2.17,2.18,322.3442,-122.66260000000001,154.9458,175,75
2026-05-07 18:39:53.154,2,0.82,-1.95,1.92,323.8042,-169.13260000000002,185.0658,175,75
2026-05-07 18:39:53.182,2,-0.17,-1.33,1.55,276.1242,-213.5826,218.17579999999998,175,75
2026-05-07 18:39:53.194,2,-0.25,-1.19,1.46,253.9242,-247.9126,186.3458,175,75
2026-05-07 18:39:53.217,2,-0.26,-0.9,1.16,217.3442,-298.0926,133.9058,175,75
2026-05-07 18:39:53.227,2,-0.27,-0.63,0.97,208.4342,-315.1626,104.8758,175,75
2026-05-07 18:39:53.238,2,-0.25,-0.33,0.77,211.4242,-329.9826,76.64580000000001,175,75
2026-05-07 18:39:53.253,2,-0.28,-0.11,0.68,217.4042,-338.8826,51.4658,175,75
2026-05-07 18:39:53.266,2,-0.3,0.12,0.61,228.13420000000002,-339.1326,29.1458,175,75
2026-05-07 18:39:53.277,2,-0.32,0.54,0.52,244.7142,-283.0326,-32.2542,175,75
2026-05-07 18:39:53.290,2,-0.47,0.59,0.51,235.63420000000002,-176.32260000000002,-58.4142,175,75
2026-05-07 18:39:53.313,2,-0.32,0.6,0.5,187.88420000000002,-47.1726,-53.654199999999996,175,75
2026-05-07 18:39:53.333,2,-0.18,0.84,0.49,131.79420000000002,9.2274,8.5358,175,75
2026-05-07 18:39:53.345,2,-0.28,0.94,0.5,120.3842,16.3574,32.3158,175,75
2026-05-07 18:39:53.357,2,-0.34,0.92,0.5,121.97419999999998,12.757399999999999,34.9458,175,75
2026-05-07 18:39:53.368,2,-0.4,0.87,0.49,125.3242,2.337399999999999,29.7558,175,75
2026-05-07 18:39:53.379,2,-0.51,0.86,0.46,125.4542,-13.762600000000003,17.8058,175,75
2026-05-07 18:39:53.389,2,-0.6,0.88,0.44,123.8042,-21.4426,4.2058,175,75
2026-05-07 18:39:53.427,2,-0.55,0.99,0.35,118.8642,-3.582600000000003,-35.3042,175,75
2026-05-07 18:39:53.427,2,-0.53,1.02,0.33,118.62419999999999,13.497399999999999,-32.5542,175,75
2026-05-07 18:39:53.470,2,-0.78,0.92,0.31,106.79419999999999,78.8574,-5.484199999999998,175,75
2026-05-07 18:39:53.486,2,-0.89,0.8,0.36,94.2342,103.9174,0.3058000000000014,175,75
2026-05-07 18:39:53.486,2,-0.95,0.7,0.39,76.12419999999999,136.54739999999998,6.2258,175,75
2026-05-07 18:39:53.497,2,-1.01,0.68,0.37,63.56420000000001,150.19740000000002,5.485800000000001,175,75
2026-05-07 18:39:53.513,2,-1.09,0.68,0.3,53.254200000000004,146.23739999999998,3.665800000000001,175,75
2026-05-07 18:39:53.532,2,-1.31,0.64,0.11,45.3842,81.9674,-8.414200000000001,175,75
2026-05-07 18:39:53.544,2,-1.41,0.58,-0.04,43.5642,32.2174,-11.824199999999998,175,75
2026-05-07 18:39:53.566,2,-1.71,0.47,-0.33,25.2042,-8.212600000000002,-28.904199999999996,175,75
2026-05-07 18:39:53.576,2,-1.76,0.32,-0.45,-13.0258,34.1074,-77.3142,175,75
2026-05-07 18:39:53.586,2,-1.74,0.26,-0.45,-82.53580000000001,138.79739999999998,-104.57419999999999,175,75
2026-05-07 18:39:53.590,2,-1.42,0.23,-0.33,-179.61579999999998,279.7774,-21.584200000000003,175,75
2026-05-07 18:39:53.615,2,-1.44,0.09,0.04,-310.2858,443.7374,91.0358,175,75
2026-05-07 18:39:53.626,2,-0.57,-0.69,0.69,-476.6258,605.3274,135.0058,175,75
2026-05-07 18:39:53.645,2,-0.19,-1.71,0.8,-506.92580000000004,545.9374,59.5158,175,75
2026-05-07 18:39:53.656,2,-0.72,-3.8,1.19,-547.2958,343.6774,-77.3142,175,75
2026-05-07 18:39:53.672,2,-1.27,-4.88,1.4,-607.5957999999999,326.7874,-145.4242,175,75
2026-05-07 18:39:53.730,2,0.28,-7.67,6.38,-706.1358,885.5074,-629.8142,175,75
2026-05-07 18:39:53.757,2,-2.03,-6.37,5.22,-558.5158,127.45739999999999,-720.3041999999999,175,75
2026-05-07 18:39:53.768,2,-0.56,-4.35,4.33,-513.0258,-79.8026,-695.4842,175,75
2026-05-07 18:39:53.774,2,-0.44,-3.13,3.89,-467.8458,-80.4726,-517.6842,175,75
2026-05-07 18:39:53.787,2,-1.1,-2.62,3.23,-441.92580000000004,2.457399999999998,-454.32419999999996,175,75
2026-05-07 18:39:53.802,2,-0.64,-1.42,2.41,-362.41580000000005,25.9974,-366.88419999999996,175,75
2026-05-07 18:39:53.825,2,-0.57,0.12,1.49,-181.8058,205.25740000000002,-170.1842,175,75
2026-05-07 18:39:53.836,2,-0.37,0.36,1.43,-141.2558,223.55739999999997,-149.0842,175,75
2026-05-07 18:39:53.850,2,-0.56,0.09,1.65,-114.9758,289.5874,-141.3342,175,75
2026-05-07 18:39:53.862,2,-0.67,-0.27,1.84,-95.28580000000001,348.8574,-142.01420000000002,175,75
2026-05-07 18:39:53.874,2,-0.78,-0.45,2.0,-68.75580000000001,353.5574,-138.1642,175,75
2026-05-07 18:39:53.884,2,-0.84,-0.36,2.15,-50.7658,288.9174,-143.9042,175,75
2026-05-07 18:39:53.884,2,-0.88,-0.1,2.17,-39.3058,192.94740000000002,-142.9242,175,75
2026-05-07 18:39:53.911,2,-0.97,0.26,1.9,-39.4858,41.0574,-123.1642,175,75
2026-05-07 18:39:53.916,2,-0.94,0.53,1.7,-38.5158,43.4974,-110.2442,175,75
2026-05-07 18:39:53.939,2,-0.94,0.71,1.56,-29.675800000000002,80.3274,-114.26420000000002,175,75
2026-05-07 18:39:53.939,2,-0.93,0.85,1.42,-12.9658,121.3574,-110.79420000000002,175,75
2026-05-07 18:39:53.964,2,-0.7,0.89,1.31,35.3842,175.3874,-104.14420000000001,175,75
2026-05-07 18:39:53.974,2,-0.67,0.71,1.46,55.754200000000004,184.9574,-100.2442,175,75
2026-05-07 18:39:53.984,2,-0.58,0.61,1.57,73.3142,176.17739999999998,-96.2142,175,75
2026-05-07 18:39:53.996,2,-0.36,0.57,1.75,97.40419999999999,130.8674,-82.01419999999999,175,75
2026-05-07 18:39:54.007,2,-0.18,0.53,1.88,113.9842,79.7174,-75.05420000000001,175,75
2026-05-07 18:39:54.017,2,-0.3,0.44,1.9,125.2042,45.8674,-64.8742,175,75
2026-05-07 18:39:54.056,2,-0.43,0.04,1.73,136.60420000000002,-63.5226,-62.31419999999999,175,75
2026-05-07 18:39:54.056,2,-0.34,-0.0,1.58,124.1042,-121.32260000000001,-49.514199999999995,175,75
2026-05-07 18:39:54.068,2,-0.2,0.05,1.4,115.0242,-178.39260000000002,-35.4842,175,75
2026-05-07 18:39:54.080,2,-0.28,0.32,1.14,108.07419999999999,-207.4226,-7.254200000000001,175,75
2026-05-07 18:39:54.115,2,0.16,0.37,1.16,103.8042,126.17739999999999,41.4058,175,75
2026-05-07 18:39:54.135,2,0.48,0.28,1.44,105.93419999999999,187.8874,63.9658,175,75
2026-05-07 18:39:54.142,2,0.8,0.22,1.76,110.51419999999999,156.7874,110.36580000000001,175,75
2026-05-07 18:39:54.145,2,0.81,0.24,1.84,126.4842,52.2174,141.7058,175,75
2026-05-07 18:39:54.159,2,0.68,0.14,1.65,156.54420000000002,-47.6026,140.3658,175,75
2026-05-07 18:39:54.175,2,0.56,-0.0,1.54,188.13420000000002,-95.1626,123.23580000000001,175,75
2026-05-07 18:39:54.199,2,0.73,0.14,1.48,215.20420000000001,-81.93260000000001,106.16579999999999,175,75
2026-05-07 18:39:54.214,2,0.8,0.17,1.45,211.1842,-98.6426,101.95580000000001,175,75
2026-05-07 18:39:54.214,2,0.8,0.18,1.36,207.5242,-113.3926,99.45580000000001,175,75
2026-05-07 18:39:54.225,2,0.78,0.18,1.25,205.0242,-118.82260000000001,98.5358,175,75
2026-05-07 18:39:54.244,2,0.73,0.22,1.15,201.91420000000002,-99.0026,94.0258,175,75
2026-05-07 18:39:54.258,2,0.71,0.33,1.13,197.5242,-58.8826,85.36580000000001,175,75
2026-05-07 18:39:54.258,2,0.74,0.42,1.11,192.5842,-31.7526,74.0858,175,75
2026-05-07 18:39:54.269,2,0.72,0.46,1.16,187.88420000000002,-12.1126,55.1858,175,75
2026-05-07 18:39:54.285,2,0.71,0.29,1.36,190.63420000000002,22.757399999999997,26.5858,175,75
2026-05-07 18:39:54.312,2,0.68,-0.34,1.52,193.4942,-91.2626,-1.2742000000000004,175,75
2026-05-07 18:39:54.327,2,0.56,-0.42,1.42,186.1242,-108.3926,-4.3842,175,75
2026-05-07 18:39:54.337,2,0.5,-0.43,1.29,174.5942,-99.1326,-0.7942,175,75
2026-05-07 18:39:54.348,2,0.43,-0.26,1.17,162.4642,-72.0526,9.3358,175,75
2026-05-07 18:39:54.372,2,0.54,0.2,1.1,160.6942,39.657399999999996,36.3458,175,75
2026-05-07 18:39:54.406,2,1.18,0.04,1.73,189.7142,107.3374,81.5258,175,75
2026-05-07 18:39:54.418,2,0.81,-0.05,1.97,180.32420000000002,-31.4426,113.23580000000001,175,75
2026-05-07 18:39:54.428,2,0.54,-0.03,1.97,170.63420000000002,-68.7026,124.8758,175,75
2026-05-07 18:39:54.439,2,0.49,-0.1,1.79,177.0942,-91.2026,109.39580000000001,175,75
2026-05-07 18:39:54.450,2,0.4,-0.19,1.52,185.32420000000002,-117.3626,94.39580000000001,175,75
2026-05-07 18:39:54.462,2,0.29,-0.24,1.36,201.91420000000002,-122.0526,83.17580000000001,175,75
2026-05-07 18:39:54.500,2,0.13,-0.39,1.58,276.2442,-177.3626,51.0358,175,75
2026-05-07 18:39:54.524,2,0.24,-0.25,1.71,268.7442,-339.31260000000003,10.4258,175,75
2026-05-07 18:39:54.548,2,0.26,-0.34,1.45,262.2742,-532.6026,-34.5142,175,75
2026-05-07 18:39:54.564,2,0.22,-0.44,1.18,275.8742,-588.6426,-73.2242,175,75
2026-05-07 18:39:54.564,2,0.44,-0.58,0.9,290.63419999999996,-628.3326000000001,-119.51420000000002,175,75
2026-05-07 18:39:54.593,2,0.16,-0.63,0.57,285.57419999999996,-572.1126,-143.9642,175,75
2026-05-07 18:39:54.614,2,-0.53,-0.74,0.26,248.3742,-382.9126,-178.6542,175,75
2026-05-07 18:39:54.614,2,-0.51,-0.73,-0.0,223.3142,-219.19260000000003,-205.9142,175,75
2026-05-07 18:39:54.626,2,-0.24,-0.6,-0.07,220.20420000000001,-81.4426,-211.76420000000002,175,75
2026-05-07 18:39:54.636,2,-0.12,-0.46,0.03,235.0842,24.1074,-199.0242,175,75
2026-05-07 18:39:54.647,2,-0.15,-0.42,0.21,253.4942,130.8674,-188.29420000000002,175,75
2026-05-07 18:39:54.660,2,-0.15,-0.46,0.32,256.2442,189.7174,-191.6442,175,75
2026-05-07 18:39:54.673,2,-0.14,-0.41,0.43,248.3742,233.00740000000002,-195.9142,175,75
2026-05-07 18:39:54.694,2,-0.17,-0.26,0.43,244.9642,235.0174,-191.9442,175,75
2026-05-07 18:39:54.704,2,-0.12,-0.05,0.38,247.46420000000003,213.06740000000002,-186.6442,175,75
2026-05-07 18:39:54.704,2,-0.11,0.1,0.4,258.25419999999997,197.69740000000002,-171.6442,175,75
2026-05-07 18:39:54.719,2,-0.05,0.16,0.4,266.5442,185.3874,-147.8642,175,75
2026-05-07 18:39:54.733,2,-0.05,0.17,0.34,260.0242,149.8374,-108.5942,175,75
2026-05-07 18:39:54.744,2,-0.23,0.14,0.25,244.7142,107.5174,-84.8742,175,75
2026-05-07 18:39:54.755,2,-0.74,0.07,0.13,207.6442,72.8874,-68.7142,175,75
2026-05-07 18:39:54.779,2,-1.74,-0.03,-0.23,96.6742,177.69740000000002,-60.2442,175,75
2026-05-07 18:39:54.794,2,-1.85,-0.13,-0.33,45.3842,271.6074,-32.9842,175,75
2026-05-07 18:39:54.823,2,-1.87,-1.1,-0.15,-124.48580000000001,530.8074,138.3558,175,75
2026-05-07 18:39:54.846,2,-1.72,-2.04,0.12,-239.9758,495.50739999999996,144.9458,175,75
2026-05-07 18:39:54.847,2,-1.75,-2.25,0.4,-363.2658,456.4174,158.3558,175,75
2026-05-07 18:39:54.869,2,-1.51,-2.47,0.56,-517.1758,432.2774,187.5058,175,75
2026-05-07 18:39:54.879,2,-1.18,-2.65,0.55,-589.4857999999999,393.7974,220.0058,175,75
2026-05-07 18:39:54.889,2,-0.93,-2.97,0.5,-619.5458,348.18739999999997,243.9658,175,75
2026-05-07 18:39:54.889,2,-0.46,-3.62,0.38,-638.0258,249.4674,258.8458,175,75
2026-05-07 18:39:54.909,2,-0.31,-4.13,0.37,-653.2658,131.6674,269.9458,175,75
2026-05-07 18:39:54.920,2,-0.46,-4.44,0.47,-665.5258,76.8474,278.9658,175,75
2026-05-07 18:39:54.933,2,-0.56,-6.29,0.77,-722.1758,198.30739999999997,234.8758,175,75
2026-05-07 18:39:54.953,2,-0.15,-7.47,1.07,-751.5658,268.6774,153.9658,175,75
2026-05-07 18:39:54.959,2,0.64,-8.78,1.71,-752.2357999999999,291.6074,68.66579999999999,175,75
2026-05-07 18:39:54.983,2,2.76,-7.56,3.19,-725.8958,239.7174,106.3458,175,75
2026-05-07 18:39:54.992,2,2.06,-6.69,3.24,-707.2958,86.2974,99.3358,175,75
2026-05-07 18:39:55.004,2,1.16,-5.89,2.82,-701.3158,39.8974,65.3058,175,75
2026-05-07 18:39:55.007,2,0.76,-4.99,2.27,-694.4258,127.3374,43.1758,175,75
2026-05-07 18:39:55.023,2,0.58,-4.01,1.79,-632.0458,322.0274,15.7958,175,75
2026-05-07 18:39:55.034,2,0.87,-3.05,1.88,-515.9558,560.1374,-27.3142,175,75
2026-05-07 18:39:55.046,2,0.93,-2.44,2.71,-397.17580000000004,711.9674,-68.4742,175,75
2026-05-07 18:39:55.054,2,0.57,-2.12,3.64,-336.68580000000003,752.2174,-131.4042,175,75
2026-05-07 18:39:55.060,2,-0.14,-1.53,3.93,-381.43580000000003,673.7974,-167.1342,175,75
2026-05-07 18:39:55.081,2,-0.11,-0.18,3.75,-331.5658,264.8974,-124.14420000000001,175,75
2026-05-07 18:39:55.100,2,-0.54,0.4,3.29,-198.9358,90.1374,-115.85420000000002,175,75
2026-05-07 18:39:55.112,2,-0.33,0.75,2.55,-47.2358,-86.8126,-126.64420000000001,175,75
2026-05-07 18:39:55.139,2,-0.43,0.74,1.86,3.6242,-133.82260000000002,-80.9142,175,75
2026-05-07 18:39:55.141,2,-0.59,0.91,1.56,-6.8058,-91.2026,-79.51419999999999,175,75
2026-05-07 18:39:55.152,2,-0.63,1.06,1.43,-5.4658,-44.2526,-72.2542,175,75
2026-05-07 18:39:55.175,2,-0.64,1.17,1.38,-6.8058,54.1074,-77.86420000000001,175,75
2026-05-07 18:39:55.175,2,-0.65,1.02,1.48,-18.1458,140.9974,-90.30420000000001,175,75
2026-05-07 18:39:55.203,2,-0.64,0.63,2.05,-6.1958,234.3474,-108.29420000000002,175,75
2026-05-07 18:39:55.214,2,-0.69,0.71,2.13,1.0641999999999996,130.9974,-117.4342,175,75
2026-05-07 18:39:55.228,2,-0.74,0.84,1.98,-8.1458,58.1874,-111.76420000000002,175,75
2026-05-07 18:39:55.245,2,-0.83,0.98,1.72,-4.9758000000000004,51.4174,-103.77420000000001,175,75
2026-05-07 18:39:55.257,2,-1.08,1.06,1.54,18.9842,113.9774,-91.2142,175,75
2026-05-07 18:39:55.266,2,-1.28,1.07,1.52,59.59420000000001,225.74739999999997,-72.86420000000001,175,75
2026-05-07 18:39:55.270,2,-1.22,1.0,1.64,88.5642,291.7874,-62.4942,175,75
2026-05-07 18:39:55.285,2,-1.0,0.91,1.86,113.13419999999999,312.69739999999996,-47.924200000000006,175,75
2026-05-07 18:39:55.295,2,-0.71,0.8,2.09,136.9742,231.8474,-29.694200000000002,175,75
2026-05-07 18:39:55.307,2,-0.65,0.77,2.1,148.3142,45.5074,-21.7042,175,75
2026-05-07 18:39:55.327,2,-0.76,0.54,1.76,144.5942,-176.81259999999997,-35.974199999999996,175,75
2026-05-07 18:39:55.353,2,-0.77,0.25,1.05,154.5342,-147.1726,-75.60419999999999,175,75
2026-05-07 18:39:55.364,2,-1.0,0.35,1.3,176.9742,-49.492599999999996,-118.7142,175,75
2026-05-07 18:39:55.376,2,0.86,0.23,0.63,223.7442,-25.102600000000002,-93.5342,175,75
2026-05-07 18:39:55.379,2,-0.07,1.13,1.17,144.04420000000002,98.4974,-28.1042,175,75
2026-05-07 18:39:55.400,2,0.23,0.63,1.57,187.2142,266.6674,-52.374199999999995,175,75
2026-05-07 18:39:55.412,2,-0.07,-0.3,1.84,154.6542,204.2274,-0.8541999999999987,175,75
2026-05-07 18:39:55.424,2,0.21,-0.1,1.81,130.0842,221.9674,54.1458,175,75
2026-05-07 18:39:55.432,2,0.58,-0.34,1.58,143.7442,213.67739999999998,76.5258,175,75
2026-05-07 18:39:55.467,2,1.22,-0.51,2.02,239.23420000000002,119.2874,171.5258,175,75
2026-05-07 18:39:55.480,2,1.26,-0.56,2.22,258.7442,81.8474,201.0358,175,75
2026-05-07 18:39:55.518,2,1.62,-1.43,2.54,294.9042,-65.5326,239.51579999999998,175,75
2026-05-07 18:39:55.535,2,1.99,-2.17,2.36,326.1242,-149.19260000000003,240.8558,175,75
2026-05-07 18:39:55.559,2,1.54,-2.83,2.12,419.7142,-268.9426,218.9658,175,75
2026-05-07 18:39:55.559,2,1.77,-2.59,2.09,417.95419999999996,-287.24260000000004,190.1258,175,75
2026-05-07 18:39:55.573,2,1.7,-2.14,1.86,418.56419999999997,-280.5926,108.17580000000001,175,75
2026-05-07 18:39:55.597,2,1.87,-2.26,1.57,431.1842,-262.4226,37.1358,175,75
2026-05-07 18:39:55.607,2,1.96,-2.67,1.19,449.5942,-229.8626,10.8558,175,75
2026-05-07 18:39:55.623,2,1.75,-2.95,0.89,465.0242,-183.1526,15.0658,175,75
2026-05-07 18:39:55.634,2,1.64,-3.1,0.71,477.0342,-146.38260000000002,26.0958,175,75
2026-05-07 18:39:55.644,2,1.14,-3.05,0.54,515.2042,-89.3726,36.955799999999996,175,75
2026-05-07 18:39:55.656,2,1.16,-2.85,0.57,539.4142,-113.82260000000001,25.245800000000003,175,75
2026-05-07 18:39:55.666,2,1.14,-2.61,0.62,531.8542,-171.50260000000003,7.565800000000001,175,75
2026-05-07 18:39:55.677,2,0.87,-2.25,0.51,486.4242,-192.6026,-6.584199999999999,175,75
2026-05-07 18:39:55.709,2,0.49,-1.41,0.15,388.9842,-220.7726,-24.3842,175,75
2026-05-07 18:39:55.719,2,0.16,-1.01,0.08,384.1042,-205.7726,-34.5142,175,75
2026-05-07 18:39:55.727,2,-0.06,-0.75,0.09,388.9242,-176.38260000000002,-50.7942,175,75
2026-05-07 18:39:55.737,2,-0.04,-0.51,0.06,391.4242,-160.0426,-70.05420000000001,175,75
2026-05-07 18:39:55.748,2,0.11,-0.2,0.04,392.58419999999995,-181.56259999999997,-97.3142,175,75
2026-05-07 18:39:55.759,2,0.28,0.11,0.05,376.4242,-226.20260000000002,-106.4042,175,75
2026-05-07 18:39:55.773,2,0.29,0.37,0.08,341.7342,-248.0326,-94.20419999999999,175,75
2026-05-07 18:39:55.773,2,0.03,0.65,0.05,279.4142,-226.75260000000003,-71.76419999999999,175,75
2026-05-07 18:39:55.784,2,-0.29,0.74,0.0,228.4342,-164.55259999999998,-63.3542,175,75
2026-05-07 18:39:55.796,2,-0.56,0.77,0.0,169.29420000000002,-38.0326,-62.4342,175,75
2026-05-07 18:39:55.822,2,-0.43,0.66,0.14,139.29420000000002,76.1174,-47.0742,175,75
2026-05-07 18:39:55.835,2,-0.45,0.69,0.22,140.26420000000002,78.4974,-48.8342,175,75
2026-05-07 18:39:55.846,2,-0.51,0.76,0.33,129.5942,60.9974,-57.4342,175,75
2026-05-07 18:39:55.850,2,-0.52,0.83,0.41,108.37419999999999,50.5674,-66.64420000000001,175,75
2026-05-07 18:39:55.873,2,-0.46,0.87,0.46,86.12419999999999,47.3974,-67.80420000000001,175,75
2026-05-07 18:39:55.873,2,-0.42,0.86,0.51,66.9742,49.2874,-62.0742,175,75
2026-05-07 18:39:55.895,2,-0.47,0.79,0.55,50.4542,56.727399999999996,-40.4242,175,75
2026-05-07 18:39:55.914,2,-0.67,0.72,0.56,58.864200000000004,35.9974,-32.9842,175,75
2026-05-07 18:39:55.924,2,-0.83,0.69,0.54,61.48420000000001,20.687399999999997,-36.5242,175,75
2026-05-07 18:39:55.934,2,-1.0,0.69,0.51,58.864200000000004,8.307399999999998,-39.8742,175,75
2026-05-07 18:39:55.946,2,-1.17,0.68,0.46,51.0642,0.25739999999999874,-48.654199999999996,175,75
2026-05-07 18:39:55.957,2,-1.36,0.62,0.42,39.4142,4.527399999999998,-60.424200000000006,175,75
2026-05-07 18:39:55.978,2,-1.38,0.56,0.39,25.574200000000005,28.187399999999997,-75.36420000000001,175,75
2026-05-07 18:39:55.989,2,-1.34,0.52,0.38,13.0142,65.25739999999999,-96.82419999999999,175,75
2026-05-07 18:39:55.989,2,-1.38,0.56,0.39,4.9041999999999994,100.3874,-110.36420000000001,175,75
2026-05-07 18:39:56.008,2,-1.4,0.61,0.41,1.5442,125.6874,-113.5942,175,75
2026-05-07 18:39:56.034,2,-1.33,0.63,0.52,-10.5858,153.06740000000002,-112.92420000000001,175,75
2026-05-07 18:39:56.045,2,-1.22,0.58,0.61,-25.955800000000004,168.06740000000002,-96.1542,175,75
2026-05-07 18:39:56.059,2,-0.88,0.61,0.73,-93.2658,170.99739999999997,17.5058,175,75
2026-05-07 18:39:56.076,2,-0.84,0.65,0.75,-116.6858,151.23739999999998,52.6258,175,75
2026-05-07 18:39:56.081,2,-0.77,0.66,0.74,-138.51579999999998,124.3474,79.0858,175,75
2026-05-07 18:39:56.099,2,-0.71,0.59,0.71,-167.9058,86.4774,106.3458,175,75
2026-05-07 18:39:56.101,2,-0.82,0.47,0.75,-204.61579999999998,76.9074,127.6258,175,75
2026-05-07 18:39:56.121,2,-0.93,0.34,0.82,-255.70579999999998,104.2274,143.4158,175,75
2026-05-07 18:39:56.144,2,-0.81,-0.22,1.24,-448.5758,296.7274,212.5658,175,75
2026-05-07 18:39:56.174,2,0.48,-1.58,1.71,-665.8958,370.0174,301.0958,175,75
2026-05-07 18:39:56.185,2,0.96,-2.62,1.5,-733.8757999999999,283.6174,348.17580000000004,175,75
2026-05-07 18:39:56.195,2,0.33,-3.24,1.1,-749.7357999999999,-39.1926,335.0058,175,75
2026-05-07 18:39:56.206,2,-0.9,-3.82,0.69,-728.8158,-145.7126,292.6258,175,75
2026-05-07 18:39:56.217,2,-1.01,-4.32,-0.03,-731.3158,-24.1926,238.23579999999998,175,75
2026-05-07 18:39:56.232,2,-0.17,-4.74,-0.4,-724.7357999999999,114.8374,227.3158,175,75
2026-05-07 18:39:56.232,2,0.76,-5.44,-0.38,-664.4258,300.8074,333.41580000000005,175,75
2026-05-07 18:39:56.252,2,0.85,-6.17,-0.28,-626.2557999999999,479.8374,469.3358,175,75
2026-05-07 18:39:56.253,2,0.27,-6.49,-0.15,-595.9558,632.6374,499.9458,175,75
2026-05-07 18:39:56.261,2,-0.09,-6.28,0.25,-542.6558,679.1673999999999,423.47580000000005,175,75
2026-05-07 18:39:56.278,2,-0.64,-5.82,0.95,-469.36580000000004,631.3574,243.9058,175,75
2026-05-07 18:39:56.290,2,-0.98,-5.18,1.51,-433.3958,603.3674,90.67580000000001,175,75
2026-05-07 18:39:56.306,2,-0.71,-3.95,1.89,-387.9658,630.1974,-46.2142,175,75
2026-05-07 18:39:56.317,2,-0.41,-2.6,2.07,-303.93580000000003,637.7674,-131.2742,175,75
2026-05-07 18:39:56.328,2,-0.44,-1.67,2.16,-227.9658,668.0674,-161.82420000000002,175,75
2026-05-07 18:39:56.332,2,-0.52,-1.0,2.07,-179.3058,657.6374,-157.6242,175,75
2026-05-07 18:39:56.345,2,-0.59,-0.68,2.18,-154.1258,613.4974,-174.8742,175,75
2026-05-07 18:39:56.368,2,-0.53,-0.6,2.32,-143.3258,581.1774,-190.6642,175,75
2026-05-07 18:39:56.368,2,-0.13,-0.65,2.49,-150.0958,534.0474,-181.6442,175,75
2026-05-07 18:39:56.373,2,0.17,-0.79,2.58,-164.9158,435.50739999999996,-139.9342,175,75
2026-05-07 18:39:56.386,2,0.07,-0.84,2.62,-173.26579999999998,299.6574,-110.54420000000002,175,75
2026-05-07 18:39:56.399,2,-0.34,-0.69,2.58,-168.20579999999998,142.2174,-96.2142,175,75
2026-05-07 18:39:56.415,2,-0.86,-0.13,2.07,-140.58579999999998,23.8574,-141.76420000000002,175,75
2026-05-07 18:39:56.442,2,-0.94,0.16,1.84,-136.4358,14.407399999999999,-176.70420000000001,175,75
2026-05-07 18:39:56.442,2,-0.93,0.43,1.68,-129.4258,65.4474,-216.2742,175,75
2026-05-07 18:39:56.453,2,-0.64,0.66,1.55,-112.0458,137.0874,-234.2642,175,75
2026-05-07 18:39:56.462,2,-0.27,0.85,1.55,-83.45580000000001,207.2174,-207.2542,175,75
2026-05-07 18:39:56.477,2,-0.65,0.9,1.61,-28.205800000000004,307.88739999999996,-150.48420000000002,175,75
2026-05-07 18:39:56.493,2,-0.66,0.7,1.74,5.264200000000001,328.24739999999997,-155.9142,175,75
2026-05-07 18:39:56.493,2,-0.49,0.48,1.92,36.4842,299.5274,-168.29420000000002,175,75
2026-05-07 18:39:56.504,2,-0.5,0.32,2.09,59.4142,236.35739999999998,-166.76420000000002,175,75
2026-05-07 18:39:56.516,2,-0.52,0.26,2.3,72.76419999999999,142.2174,-156.3342,175,75
2026-05-07 18:39:56.526,2,-0.47,0.24,2.32,79.90419999999999,38.6174,-152.7442,175,75
2026-05-07 18:39:56.540,2,-0.38,0.23,2.13,82.15419999999999,-82.4226,-141.0342,175,75
2026-05-07 18:39:56.557,2,-0.25,0.18,1.92,74.10419999999999,-180.7726,-125.2442,175,75
2026-05-07 18:39:56.557,2,-0.37,0.19,1.71,60.45420000000001,-240.95260000000002,-105.79420000000002,175,75
2026-05-07 18:39:56.568,2,-1.68,0.17,1.63,63.0742,-196.93259999999998,-113.10420000000002,175,75
2026-05-07 18:39:56.579,2,-0.71,-0.39,0.93,103.07419999999999,-147.3626,-206.82420000000002,175,75
2026-05-07 18:39:56.616,2,-0.89,0.88,0.85,116.0642,364.3474,30.0658,175,75
2026-05-07 18:39:56.627,2,0.09,0.19,1.46,153.01420000000002,552.2774,110.73580000000001,175,75
2026-05-07 18:39:56.638,2,0.65,-0.15,1.97,139.8442,482.4574,157.0758,175,75
2026-05-07 18:39:56.638,2,0.99,-0.27,2.23,121.24419999999999,240.99739999999997,154.6958,175,75
2026-05-07 18:39:56.652,2,0.68,-0.13,2.33,111.54419999999999,-22.602600000000002,149.4558,175,75
2026-05-07 18:39:56.663,2,0.65,-0.11,2.13,120.93419999999999,-245.5926,129.8158,175,75
2026-05-07 18:39:56.685,2,0.57,-0.14,1.6,125.4542,-346.87260000000003,108.17580000000001,175,75
2026-05-07 18:39:56.685,2,0.47,-0.06,1.14,137.6442,-330.1626,91.8358,175,75
2026-05-07 18:39:56.696,2,0.34,0.14,0.7,164.41420000000002,-244.61260000000004,84.69579999999999,175,75
2026-05-07 18:39:56.707,2,0.27,0.25,0.53,177.70420000000001,-146.93259999999998,76.89580000000001,175,75
2026-05-07 18:39:56.718,2,0.29,0.31,0.53,178.3142,-23.882600000000004,74.14580000000001,175,75
2026-05-07 18:39:56.735,2,0.55,0.36,0.84,163.4942,189.5274,83.7858,175,75
2026-05-07 18:39:56.745,2,0.69,0.39,1.18,159.23420000000002,244.2874,91.4658,175,75
2026-05-07 18:39:56.759,2,1.18,0.51,1.49,165.8142,200.86739999999998,77.9858,175,75
2026-05-07 18:39:56.759,2,1.02,0.41,1.95,180.9342,-34.6126,58.595800000000004,175,75
2026-05-07 18:39:56.768,2,0.62,0.06,2.03,180.8742,-120.8926,38.9058,175,75
2026-05-07 18:39:56.780,2,0.76,-0.35,1.87,169.9642,-160.0426,-0.914200000000001,175,75
2026-05-07 18:39:56.797,2,0.7,-0.35,1.25,152.3442,-177.4226,-10.794199999999996,175,75
2026-05-07 18:39:56.808,2,0.65,-0.17,1.07,160.9342,-160.4126,-9.754199999999997,175,75
2026-05-07 18:39:56.833,2,0.51,-0.1,0.97,179.9042,-81.6326,1.3458000000000006,175,75
2026-05-07 18:39:56.843,2,0.46,-0.27,0.95,179.5342,-9.552600000000002,21.9558,175,75
2026-05-07 18:39:56.856,2,0.4,-0.33,0.94,179.10420000000002,23.8574,33.7258,175,75
2026-05-07 18:39:56.868,2,0.68,-0.29,1.09,187.2742,41.7274,34.205799999999996,175,75
2026-05-07 18:39:56.868,2,1.02,-0.16,1.36,200.6942,-12.7226,43.8458,175,75
2026-05-07 18:39:56.881,2,0.66,-0.05,1.59,210.32420000000002,-77.8426,57.4458,175,75
2026-05-07 18:39:56.903,2,0.62,-0.12,1.58,197.88420000000002,-113.09259999999999,52.0158,175,75
2026-05-07 18:39:56.914,2,0.54,-0.15,1.44,186.60420000000002,-140.2226,58.1158,175,75
2026-05-07 18:39:56.924,2,0.45,-0.16,1.28,182.3442,-154.55259999999998,58.7858,175,75
2026-05-07 18:39:56.934,2,0.46,-0.17,1.16,184.7742,-160.8326,53.8458,175,75
2026-05-07 18:39:56.938,2,0.49,-0.13,1.1,198.5642,-170.7126,45.6758,175,75
2026-05-07 18:39:56.956,2,0.49,-0.04,1.12,219.41420000000002,-174.06259999999997,38.415800000000004,175,75
2026-05-07 18:39:56.968,2,0.41,0.04,1.14,236.3642,-164.8626,33.415800000000004,175,75
2026-05-07 18:39:56.978,2,0.32,0.05,1.1,240.20420000000001,-150.95260000000002,31.6458,175,75
2026-05-07 18:39:56.993,2,0.13,0.02,0.98,230.9942,-110.04260000000001,20.9758,175,75
2026-05-07 18:39:57.006,2,0.1,-0.01,0.94,226.73420000000002,-89.1326,14.4558,175,75
2026-05-07 18:39:57.019,2,0.07,0.01,0.91,226.3042,-61.4426,10.6758,175,75
2026-05-07 18:39:57.019,2,0.16,0.06,0.93,233.13420000000002,-54.0026,6.405800000000001,175,75
2026-05-07 18:39:57.043,2,0.38,0.03,1.04,248.0742,-64.3126,5.125800000000002,175,75
2026-05-07 18:39:57.049,2,0.51,-0.01,1.16,256.06419999999997,-88.2726,13.725800000000001,175,75
2026-05-07 18:39:57.059,2,0.54,-0.03,1.22,251.73420000000002,-118.7626,15.735800000000001,175,75
2026-05-07 18:39:57.071,2,0.5,-0.07,1.24,242.5842,-144.19260000000003,13.3558,175,75
2026-05-07 18:39:57.080,2,0.43,-0.11,1.21,236.79420000000002,-156.87259999999998,11.405800000000001,175,75
2026-05-07 18:39:57.093,2,0.3,-0.19,1.13,232.4042,-162.4826,4.695800000000002,175,75
2026-05-07 18:39:57.110,2,0.15,-0.3,1.03,231.1842,-157.7826,-8.164200000000001,175,75
2026-05-07 18:39:57.123,2,0.05,-0.42,0.94,229.04420000000002,-148.0926,-22.9842,175,75
2026-05-07 18:39:57.134,2,-0.04,-0.55,0.84,224.7142,-135.95260000000002,-37.4942,175,75
2026-05-07 18:39:57.145,2,-0.09,-0.65,0.77,219.10420000000002,-123.88260000000001,-51.154199999999996,175,75
2026-05-07 18:39:57.145,2,-0.16,-0.73,0.66,211.1842,-110.5326,-65.60419999999999,175,75
2026-05-07 18:39:57.156,2,-0.3,-0.72,0.56,200.0842,-85.4726,-83.10419999999999,175,75
2026-05-07 18:39:57.179,2,-0.37,-0.65,0.51,195.0842,-51.6926,-99.63419999999999,175,75
2026-05-07 18:39:57.191,2,-0.23,-0.41,0.44,211.91420000000002,50.6274,-99.9942,175,75
2026-05-07 18:39:57.197,2,-0.02,-0.3,0.46,237.0942,84.0474,-73.29419999999999,175,75
2026-05-07 18:39:57.212,2,0.21,-0.22,0.56,262.1542,77.6374,-41.154199999999996,175,75
2026-05-07 18:39:57.224,2,0.27,-0.19,0.66,282.4642,27.577399999999997,5.1858,175,75
2026-05-07 18:39:57.248,2,-0.22,-0.18,0.52,262.76419999999996,-40.8326,74.20580000000001,175,75
2026-05-07 18:39:57.258,2,-0.68,-0.09,0.34,233.7442,-55.2226,86.16579999999999,175,75
2026-05-07 18:39:57.269,2,-1.04,-0.06,0.19,194.1742,-18.3326,76.5858,175,75
2026-05-07 18:39:57.278,2,-1.06,-0.16,0.07,153.2542,45.3874,51.8958,175,75
2026-05-07 18:39:57.299,2,-1.03,-0.31,0.07,106.3642,145.93740000000003,43.9658,175,75
2026-05-07 18:39:57.310,2,-0.68,-0.42,0.17,57.644200000000005,251.9674,90.48580000000001,175,75
2026-05-07 18:39:57.310,2,-0.45,-0.49,0.32,14.654200000000001,311.5474,166.7758,175,75
2026-05-07 18:39:57.334,2,-0.54,-0.63,0.41,-32.3558,318.7374,259.3958,175,75
2026-05-07 18:39:57.346,2,-0.7,-0.8,0.41,-74.8558,322.8274,310.24580000000003,175,75
2026-05-07 18:39:57.356,2,-0.79,-1.04,0.22,-123.3258,314.7174,279.4558,175,75
2026-05-07 18:39:57.366,2,-1.09,-1.24,0.03,-191.3158,249.8974,239.3358,175,75
2026-05-07 18:39:57.377,2,-1.22,-1.51,0.05,-261.9858,218.55739999999997,156.3458,175,75
2026-05-07 18:39:57.377,2,-0.61,-1.83,-0.01,-314.85580000000004,212.0274,82.3758,175,75
2026-05-07 18:39:57.396,2,-0.13,-1.95,-0.05,-366.2558,168.06740000000002,62.8658,175,75
2026-05-07 18:39:57.413,2,-0.29,-1.95,-0.16,-415.2258,173.24739999999997,73.5358,175,75
2026-05-07 18:39:57.425,2,-0.7,-2.26,-0.41,-480.1558,252.0274,61.8358,175,75
2026-05-07 18:39:57.438,2,-1.09,-3.24,-0.53,-538.0858,463.00739999999996,4.2058,175,75
2026-05-07 18:39:57.454,2,-1.02,-4.08,0.04,-561.7457999999999,717.8274,-72.80420000000001,175,75
2026-05-07 18:39:57.470,2,-1.0,-4.32,0.56,-540.9558,799.1074,-138.6542,175,75
2026-05-07 18:39:57.481,2,-1.02,-4.57,1.03,-515.5258,843.1274,-203.9042,175,75
2026-05-07 18:39:57.492,2,-1.08,-4.93,1.57,-479.0058,858.3674,-301.4042,175,75
2026-05-07 18:39:57.492,2,-1.13,-5.26,2.05,-457.7858,821.6673999999999,-398.1042,175,75
2026-05-07 18:39:57.515,2,-1.31,-5.47,2.7,-453.1458,725.8074,-532.6842,175,75
2026-05-07 18:39:57.525,2,-1.29,-5.56,3.12,-449.48580000000004,671.4774,-630.9742,175,75
2026-05-07 18:39:57.537,2,-1.22,-5.07,3.28,-433.4558,640.4474,-720.4842,175,75
2026-05-07 18:39:57.549,2,-0.67,-4.6,3.49,-413.3958,604.2274,-765.5441999999999,175,75
2026-05-07 18:39:57.573,2,-1.25,-3.83,2.79,-325.1558,554.4674,-746.8842,175,75
2026-05-07 18:39:57.585,2,-1.92,-3.3,2.63,-291.5058,628.1274,-727.6242,175,75
2026-05-07 18:39:57.590,2,-2.27,-2.66,2.56,-238.6358,738.1874,-704.3842,175,75
2026-05-07 18:39:57.614,2,-3.0,-1.38,2.59,-77.84580000000001,902.7674,-563.5942,175,75
2026-05-07 18:39:57.620,2,-3.4,-0.58,2.43,-19.855800000000002,916.1174,-473.3542,175,75
2026-05-07 18:39:57.631,2,-2.23,0.82,2.46,10.3242,918.0674,-327.19419999999997,175,75
2026-05-07 18:39:57.654,2,-1.97,1.37,2.18,53.1342,843.5574,-225.3642,175,75
2026-05-07 18:39:57.680,2,-1.18,0.39,1.4,89.65419999999999,191.17739999999998,-145.9742,175,75
2026-05-07 18:39:57.695,2,-1.52,0.54,1.0,102.88419999999999,97.0874,-92.7442,175,75
2026-05-07 18:39:57.715,2,-1.76,0.54,0.84,134.23420000000002,95.3274,-24.874200000000002,175,75
2026-05-07 18:39:57.715,2,-1.74,0.61,1.02,128.01420000000002,113.8574,-0.12419999999999831,175,75
2026-05-07 18:39:57.742,2,-1.45,0.67,1.08,102.5242,136.23739999999998,34.455799999999996,175,75
2026-05-07 18:39:57.770,2,-1.16,0.59,0.92,105.2042,159.2274,77.1358,175,75
2026-05-07 18:39:57.777,2,-1.03,0.61,0.99,113.01419999999999,150.25740000000002,97.07579999999999,175,75
2026-05-07 18:39:57.792,2,-0.89,0.6,1.11,117.3442,100.1374,113.7858,175,75
2026-05-07 18:39:57.806,2,-0.85,0.57,1.08,123.37419999999999,-35.8926,129.5758,175,75
2026-05-07 18:39:57.819,2,-0.86,0.52,0.94,123.74419999999999,-81.2026,135.0058,175,75
2026-05-07 18:39:57.847,2,-0.92,0.47,0.7,124.59419999999999,-89.5526,152.1358,175,75
2026-05-07 18:39:57.859,2,-0.88,0.47,0.71,110.7542,-31.812600000000003,171.4658,175,75
2026-05-07 18:39:57.888,2,-0.74,0.45,0.89,105.57419999999999,2.577399999999999,181.64579999999998,175,75
2026-05-07 18:39:57.898,2,-0.95,0.29,0.98,99.1742,-16.022600000000004,162.1358,175,75
2026-05-07 18:39:57.906,2,-1.51,0.24,1.14,149.1742,42.2774,88.9058,175,75
2026-05-07 18:39:57.920,2,1.25,0.03,0.56,195.20420000000001,-60.7726,95.5558,175,75
2026-05-07 18:39:57.932,2,-1.48,0.29,1.49,61.1842,105.1374,208.6658,175,75
2026-05-07 18:39:57.942,2,-0.28,1.85,0.19,85.57419999999999,212.3374,211.0958,175,75
2026-05-07 18:39:57.953,2,-0.75,-0.17,1.27,74.4742,146.54739999999998,215.0658,175,75
2026-05-07 18:39:57.958,2,-0.44,0.53,1.74,72.9542,120.3274,273.9658,175,75
2026-05-07 18:39:57.976,2,-0.15,0.82,1.78,24.7742,24.1074,255.67579999999998,175,75
2026-05-07 18:39:57.989,2,-0.28,0.72,1.53,12.094199999999999,-60.2826,264.1458,175,75
2026-05-07 18:39:57.999,2,-0.38,0.85,1.28,48.434200000000004,-52.7226,310.24580000000003,175,75
2026-05-07 18:39:58.012,2,-0.33,1.15,1.27,104.1742,1.5473999999999979,332.4458,175,75
2026-05-07 18:39:58.023,2,-0.11,1.49,1.44,136.73420000000002,99.1074,349.2058,175,75
2026-05-07 18:39:58.034,2,0.05,1.72,1.71,147.2142,185.3874,353.47580000000005,175,75
2026-05-07 18:39:58.054,2,0.37,1.92,2.28,133.07420000000002,292.0274,391.6458,175,75
2026-05-07 18:39:58.054,2,0.56,1.88,2.63,104.04419999999999,316.6674,408.72580000000005,175,75
2026-05-07 18:39:58.079,2,0.94,1.53,3.26,47.2142,-256.3826,289.0258,175,75
2026-05-07 18:39:58.091,2,0.62,1.78,2.64,98.8042,-332.6026,262.9858,175,75
2026-05-07 18:39:58.103,2,0.52,1.76,2.23,162.2142,-337.11260000000004,257.86580000000004,175,75
2026-05-07 18:39:58.111,2,0.57,1.52,2.21,196.85420000000002,-318.1526,252.01579999999998,175,75
2026-05-07 18:39:58.121,2,0.99,1.32,2.21,184.7742,-330.1026,234.45579999999998,175,75
2026-05-07 18:39:58.133,2,1.17,1.41,1.93,168.6842,-362.36260000000004,214.14579999999998,175,75
2026-05-07 18:39:58.156,2,1.58,1.59,1.46,182.82420000000002,-439.31260000000003,204.6958,175,75
2026-05-07 18:39:58.156,2,1.89,1.49,0.87,197.5842,-464.86260000000004,106.8358,175,75
2026-05-07 18:39:58.176,2,1.52,1.53,0.36,197.88420000000002,-350.5926,56.4658,175,75
2026-05-07 18:39:58.189,2,1.0,1.8,0.15,223.3142,-220.0426,57.6858,175,75
2026-05-07 18:39:58.197,2,0.08,1.81,0.35,233.13420000000002,-87.2426,42.195800000000006,175,75
2026-05-07 18:39:58.224,2,1.07,1.31,0.68,136.4242,144.2874,86.0358,175,75
2026-05-07 18:39:58.231,2,1.32,1.31,0.58,123.56419999999999,48.977399999999996,73.17580000000001,175,75
2026-05-07 18:39:58.248,2,0.98,1.36,0.5,128.3742,-151.50260000000003,48.7858,175,75
2026-05-07 18:39:58.271,2,0.42,1.22,0.31,125.2642,-360.5326,27.195800000000002,175,75
2026-05-07 18:39:58.295,2,-0.63,1.04,-0.13,127.7642,-217.30259999999998,1.3458000000000006,175,75
2026-05-07 18:39:58.301,2,-0.84,0.92,-0.17,126.97419999999998,-44.5526,8.5958,175,75
2026-05-07 18:39:58.314,2,-0.69,0.89,-0.03,119.0442,84.4074,26.4058,175,75
2026-05-07 18:39:58.326,2,-0.52,0.86,0.23,107.0342,155.74739999999997,48.1158,175,75
2026-05-07 18:39:58.335,2,-0.52,0.79,0.37,90.2042,171.23739999999998,69.20580000000001,175,75
2026-05-07 18:39:58.376,2,-0.67,0.55,0.48,68.2542,94.1074,137.1358,175,75
2026-05-07 18:39:58.392,2,-0.86,0.48,0.5,94.5342,79.1674,184.7558,175,75
2026-05-07 18:39:58.408,2,-0.91,0.45,0.52,105.6942,86.7874,201.2858,175,75
2026-05-07 18:39:58.422,2,-0.94,0.4,0.52,109.35419999999999,98.6174,209.14579999999998,175,75
2026-05-07 18:39:58.432,2,-1.1,0.32,0.55,99.96419999999999,120.8674,199.7558,175,75
2026-05-07 18:39:58.432,2,-1.19,0.26,0.56,86.4242,144.5274,174.3358,175,75
2026-05-07 18:39:58.455,2,-1.29,0.19,0.57,66.60419999999999,177.94740000000002,103.11580000000001,175,75
2026-05-07 18:39:58.460,2,-1.29,0.2,0.58,56.364200000000004,187.3374,57.3758,175,75
2026-05-07 18:39:58.477,2,-1.17,0.28,0.65,48.7442,186.11739999999998,9.2758,175,75
2026-05-07 18:39:58.492,2,-1.07,0.36,0.68,36.364200000000004,191.7874,-24.444200000000002,175,75
2026-05-07 18:39:58.504,2,-1.17,0.39,0.73,19.1042,219.2274,-33.7742,175,75
2026-05-07 18:39:58.504,2,-1.1,0.42,0.74,-7.9658,245.19740000000002,-40.9142,175,75
2026-05-07 18:39:58.531,2,-0.89,0.36,0.78,-76.50580000000001,243.9774,-51.154199999999996,175,75
2026-05-07 18:39:58.542,2,-0.91,0.27,0.79,-117.9658,244.7174,-43.2942,175,75
2026-05-07 18:39:58.554,2,-0.99,0.16,0.76,-158.14579999999998,254.8374,-20.124200000000002,175,75
2026-05-07 18:39:58.565,2,-1.06,0.08,0.71,-188.7558,258.9174,7.805800000000001,175,75
2026-05-07 18:39:58.577,2,-1.19,-0.0,0.69,-223.0258,267.2774,46.165800000000004,175,75
2026-05-07 18:39:58.588,2,-1.25,-0.14,0.75,-259.7358,304.1674,97.01580000000001,175,75
2026-05-07 18:39:58.599,2,-1.22,-0.25,0.79,-285.1558,339.7774,135.3658,175,75
2026-05-07 18:39:58.599,2,-1.14,-0.41,0.8,-314.85580000000004,376.6074,184.8758,175,75
2026-05-07 18:39:58.624,2,-1.08,-0.65,0.79,-341.5658,388.7374,245.2458,175,75
2026-05-07 18:39:58.635,2,-1.14,-0.98,0.76,-355.5258,389.8974,295.67580000000004,175,75
2026-05-07 18:39:58.646,2,-1.25,-1.34,0.7,-359.0058,403.9774,302.5058,175,75
2026-05-07 18:39:58.646,2,-1.84,-1.92,0.51,-357.35580000000004,451.4174,244.6358,175,75
2026-05-07 18:39:58.657,2,-2.45,-2.7,0.59,-384.42580000000004,490.38739999999996,212.1958,175,75
2026-05-07 18:39:58.685,2,-2.4,-4.97,1.35,-468.4558,685.1374,110.42580000000001,175,75
2026-05-07 18:39:58.696,2,-2.25,-6.41,1.83,-521.9258,713.8574,65.42580000000001,175,75
2026-05-07 18:39:58.723,2,-2.64,-8.34,3.18,-632.9658,759.9574,-65.2442,175,75
2026-05-07 18:39:58.736,2,-2.15,-8.86,4.06,-701.8058,777.0874,-133.4142,175,75
2026-05-07 18:39:58.752,2,-1.35,-8.92,4.95,-763.3258,577.3374,-206.70420000000001,175,75
2026-05-07 18:39:58.762,2,-0.94,-8.53,5.43,-809.8557999999999,327.2174,-223.4142,175,75
2026-05-07 18:39:58.774,2,-0.76,-7.48,4.47,-786.4358,181.54739999999998,-195.6642,175,75
2026-05-07 18:39:58.781,2,-0.97,-6.65,3.83,-746.3757999999999,213.12740000000002,-177.98420000000002,175,75
2026-05-07 18:39:58.791,2,-1.46,-5.69,3.62,-653.5758,372.5174,-150.2442,175,75
2026-05-07 18:39:58.802,2,-2.56,-4.56,4.04,-494.24580000000003,594.5874,-152.7442,175,75
2026-05-07 18:39:58.805,2,-2.73,-3.49,3.47,-311.3758,614.6573999999999,-254.3842,175,75
2026-05-07 18:39:58.821,2,-1.84,-2.38,2.39,-150.4058,440.19739999999996,-376.4042,175,75
2026-05-07 18:39:58.823,2,-1.19,-1.54,2.27,-74.7958,377.3374,-440.7242,175,75
2026-05-07 18:39:58.838,2,-0.21,-1.01,2.87,-45.5858,574.2873999999999,-408.4142,175,75
2026-05-07 18:39:58.858,2,2.53,-1.05,3.58,-85.1558,516.2974,-169.3842,175,75
2026-05-07 18:39:58.873,2,-0.83,-0.34,2.71,-135.9558,440.3274,-59.3242,175,75
2026-05-07 18:39:58.886,2,-1.82,-0.38,2.61,-101.37580000000001,256.3574,-137.6842,175,75
2026-05-07 18:39:58.886,2,-2.15,-0.17,2.86,-61.9858,180.74739999999997,-218.1642,175,75
2026-05-07 18:39:58.912,2,-0.3,0.09,2.23,-15.7658,78.5574,-300.0542,175,75
2026-05-07 18:39:58.942,2,-0.99,1.03,1.84,5.0242,125.9374,-217.07420000000002,175,75
2026-05-07 18:39:58.964,2,-1.1,1.12,1.8,26.974200000000003,141.9674,-229.8142,175,75
2026-05-07 18:39:58.964,2,-0.82,1.12,1.85,55.0242,146.8474,-216.82420000000002,175,75
2026-05-07 18:39:58.974,2,-0.48,1.1,1.94,71.3042,137.5774,-133.35420000000002,175,75
2026-05-07 18:39:59.012,2,-0.77,0.7,1.65,101.3642,-1.3826,4.755800000000001,175,75
2026-05-07 18:39:59.015,2,-0.85,0.59,1.67,108.1942,9.657399999999999,26.5258,175,75
2026-05-07 18:39:59.037,2,-0.8,0.6,1.58,119.2342,58.1874,43.9058,175,75
2026-05-07 18:39:59.055,2,-0.69,0.67,1.51,134.41420000000002,73.6774,39.455799999999996,175,75
2026-05-07 18:39:59.055,2,-0.61,0.64,1.47,161.85420000000002,80.5074,-6.464199999999998,175,75
2026-05-07 18:39:59.068,2,-0.7,0.46,1.41,192.88420000000002,87.8274,-87.2542,175,75
2026-05-07 18:39:59.068,2,-0.61,0.43,1.42,212.0342,74.28739999999999,-139.9942,175,75
2026-05-07 18:39:59.079,2,-0.36,0.47,1.6,222.76420000000002,56.907399999999996,-173.9642,175,75
2026-05-07 18:39:59.092,2,0.18,0.46,1.85,214.8442,54.837399999999995,-162.6842,175,75
2026-05-07 18:39:59.116,2,-0.14,0.12,1.36,149.7742,2.8873999999999977,-32.5542,175,75
2026-05-07 18:39:59.116,2,-0.03,-0.46,1.02,160.6942,-137.9126,-184.8142,175,75
2026-05-07 18:39:59.140,2,-0.3,-0.56,0.8,140.51420000000002,-9.002600000000001,-4.8142,175,75
2026-05-07 18:39:59.154,2,0.53,0.18,0.22,121.91420000000001,129.5874,39.695800000000006,175,75
2026-05-07 18:39:59.165,2,0.43,0.47,0.5,126.7942,185.93740000000003,69.7558,175,75
2026-05-07 18:39:59.182,2,1.0,-0.2,1.37,135.9342,299.1674,152.3758,175,75
2026-05-07 18:39:59.193,2,1.29,-0.31,1.59,111.0642,87.3374,156.64579999999998,175,75
2026-05-07 18:39:59.208,2,1.15,-0.13,1.63,106.18419999999999,-93.7026,141.1658,175,75
2026-05-07 18:39:59.218,2,1.07,-0.05,1.35,112.76419999999999,-182.7226,123.8458,175,75
2026-05-07 18:39:59.234,2,0.97,-0.02,1.02,115.87419999999999,-221.38260000000002,110.61580000000001,175,75
2026-05-07 18:39:59.241,2,0.74,0.02,0.75,115.0842,-206.14260000000002,96.22579999999999,175,75
2026-05-07 18:39:59.264,2,0.43,0.27,0.57,108.1942,-32.912600000000005,81.5258,175,75
2026-05-07 18:39:59.275,2,0.42,0.4,0.62,108.13419999999999,96.7274,85.1858,175,75
2026-05-07 18:39:59.287,2,0.42,0.44,0.79,109.5942,190.44740000000002,88.5958,175,75
2026-05-07 18:39:59.303,2,0.55,0.36,1.07,113.37419999999999,248.55739999999997,90.91579999999999,175,75
2026-05-07 18:39:59.305,2,1.68,0.36,1.59,124.3542,98.9174,88.29580000000001,175,75
2026-05-07 18:39:59.321,2,0.57,0.39,1.79,122.21419999999999,-46.9926,78.8458,175,75
2026-05-07 18:39:59.330,2,0.67,0.35,1.74,107.2742,-103.3326,29.6358,175,75
2026-05-07 18:39:59.344,2,0.74,0.37,1.48,95.57419999999999,-121.0826,10.3658,175,75
2026-05-07 18:39:59.362,2,0.64,0.34,1.17,116.0642,-80.5926,10.6758,175,75
2026-05-07 18:39:59.374,2,0.72,0.24,1.24,139.35420000000002,-31.562600000000003,7.745800000000001,175,75
2026-05-07 18:39:59.392,2,0.67,0.12,1.39,150.45420000000001,-15.4726,11.8358,175,75
2026-05-07 18:39:59.414,2,0.49,0.02,1.34,146.4242,-17.3626,5.7958,175,75
2026-05-07 18:39:59.424,2,0.59,0.03,1.36,150.9942,-24.8626,4.515800000000002,175,75
2026-05-07 18:39:59.435,2,0.69,0.11,1.5,160.0242,-29.312600000000003,17.8658,175,75
2026-05-07 18:39:59.445,2,0.77,0.21,1.57,172.2742,-39.132600000000004,33.2358,175,75
2026-05-07 18:39:59.456,2,0.67,0.24,1.58,176.60420000000002,-64.3126,50.0058,175,75
2026-05-07 18:39:59.466,2,0.59,0.19,1.53,172.6442,-68.82260000000001,60.7358,175,75
2026-05-07 18:39:59.479,2,0.41,0.12,1.46,167.70420000000001,-63.212599999999995,72.19579999999999,175,75
2026-05-07 18:39:59.501,2,0.36,0.1,1.35,165.32420000000002,-55.04260000000001,77.0758,175,75
2026-05-07 18:39:59.533,2,0.4,0.34,1.37,204.7742,-40.162600000000005,52.5058,175,75
2026-05-07 18:39:59.567,2,0.09,0.37,1.24,197.88420000000002,28.367399999999996,70.67580000000001,175,75
2026-05-07 18:39:59.567,2,0.05,0.44,1.24,198.8042,52.2774,68.0558,175,75
2026-05-07 18:39:59.578,2,0.1,0.5,1.32,204.5342,63.5574,59.9458,175,75
2026-05-07 18:39:59.588,2,0.23,0.58,1.54,215.7542,61.3574,46.525800000000004,175,75
2026-05-07 18:39:59.599,2,0.38,0.6,1.75,226.3642,43.127399999999994,30.425800000000002,175,75
2026-05-07 18:39:59.611,2,0.38,0.57,1.89,230.45420000000001,23.2474,20.5558,175,75
2026-05-07 18:39:59.620,2,0.34,0.58,1.92,227.4642,-12.422600000000003,29.6358,175,75
2026-05-07 18:39:59.631,2,0.28,0.55,1.89,227.0942,-63.15260000000001,52.315799999999996,175,75
2026-05-07 18:39:59.654,2,0.24,0.47,1.86,230.45420000000001,-122.1726,85.4858,175,75
2026-05-07 18:39:59.665,2,0.1,0.36,1.79,237.3442,-172.9726,124.57579999999999,175,75
2026-05-07 18:39:59.677,2,0.07,0.28,1.72,242.3442,-188.2726,147.5658,175,75
2026-05-07 18:39:59.677,2,0.02,0.15,1.64,246.1242,-189.8626,173.8458,175,75
2026-05-07 18:39:59.704,2,-0.05,0.04,1.62,247.03420000000003,-178.39260000000002,193.3558,175,75
2026-05-07 18:39:59.727,2,-0.77,-0.46,1.24,241.48420000000002,-20.532600000000002,100.67580000000001,175,75
2026-05-07 18:39:59.759,2,-0.09,0.29,1.29,307.0342,-100.4126,34.0858,175,75
2026-05-07 18:39:59.773,2,0.02,0.26,1.31,314.4742,-63.9426,52.9858,175,75
2026-05-07 18:39:59.784,2,0.04,0.2,1.34,306.4242,-26.382600000000004,83.7858,175,75
2026-05-07 18:39:59.785,2,0.07,0.15,1.34,284.2942,7.457399999999998,123.0558,175,75
2026-05-07 18:39:59.798,2,0.18,0.16,1.39,239.5942,16.5474,179.0258,175,75
2026-05-07 18:39:59.809,2,0.24,0.16,1.49,206.48420000000002,2.8873999999999977,222.1958,175,75
2026-05-07 18:39:59.819,2,0.27,0.11,1.57,188.7442,-19.492600000000003,261.0958,175,75
2026-05-07 18:39:59.836,2,0.28,-0.02,1.61,179.8442,-62.1726,314.7558,175,75
2026-05-07 18:39:59.847,2,0.31,-0.16,1.57,178.9242,-145.8326,376.4058,175,75
2026-05-07 18:39:59.868,2,0.09,-0.37,1.12,171.0642,-304.80260000000004,372.2558,175,75
2026-05-07 18:39:59.868,2,-0.38,-0.38,0.76,158.9242,-337.7826,309.8158,175,75
2026-05-07 18:39:59.880,2,-0.24,-0.28,0.48,148.07420000000002,-423.7626,275.4858,175,75
2026-05-07 18:39:59.894,2,0.08,-0.1,0.07,145.6942,-549.0626,173.23579999999998,175,75
2026-05-07 18:39:59.915,2,-0.33,0.11,-0.44,157.4042,-588.5826000000001,47.315799999999996,175,75
2026-05-07 18:39:59.938,2,0.79,-0.07,-1.08,144.7142,-253.39260000000002,1.585799999999999,175,75
2026-05-07 18:39:59.959,2,1.55,0.0,-1.22,114.5342,-210.7126,125.1858,175,75
2026-05-07 18:39:59.970,2,0.83,-0.26,-1.63,9.7142,-93.7626,110.67580000000001,175,75
2026-05-07 18:39:59.982,2,0.73,-0.82,-1.92,-76.1358,-81.2026,-136.6442,175,75
2026-05-07 18:40:00.004,2,2.57,-0.78,-2.2,-164.36579999999998,9.407399999999999,-234.02419999999998,175,75
2026-05-07 18:40:00.015,2,1.54,-0.47,-1.63,-193.7558,272.1574,-217.2542,175,75
2026-05-07 18:40:00.015,2,1.72,-0.28,-0.92,-217.9658,494.7774,-316.82419999999996,175,75
2026-05-07 18:40:00.026,2,1.44,-0.21,0.48,-206.92579999999998,778.6774,-416.94419999999997,175,75
2026-05-07 18:40:00.036,2,1.13,-0.28,1.23,-175.2258,952.0874,-476.0342,175,75
2026-05-07 18:40:00.051,2,0.71,-0.27,1.68,-131.3158,1035.1374,-516.4042,175,75
2026-05-07 18:40:00.062,2,0.29,-0.13,2.13,-88.81580000000001,1024.1074,-546.0341999999999,175,75
2026-05-07 18:40:00.072,2,-0.0,0.4,2.9,-54.9158,992.8874,-514.8142,175,75
2026-05-07 18:40:00.078,2,-0.55,1.09,3.35,-29.6158,958.8574,-419.9342,175,75
2026-05-07 18:40:00.091,2,-1.13,1.45,3.67,53.684200000000004,974.1074,-367.25419999999997,175,75
2026-05-07 18:40:00.098,2,-0.97,1.1,3.9,187.4042,972.8874,-318.0442,175,75
2026-05-07 18:40:00.122,2,-0.53,0.3,3.39,264.8442,711.4774,-317.5542,175,75
2026-05-07 18:40:00.133,2,-0.86,0.19,3.36,199.04420000000002,402.0274,-356.2142,175,75
2026-05-07 18:40:00.133,2,-1.12,0.38,2.92,162.5242,290.38739999999996,-366.1542,175,75
2026-05-07 18:40:00.147,2,-1.5,0.09,2.33,148.98420000000002,267.4574,-342.4342,175,75
2026-05-07 18:40:00.162,2,-1.66,0.21,1.63,146.9742,403.00739999999996,-224.32420000000002,175,75
2026-05-07 18:40:00.192,2,-1.63,0.6,1.46,129.35420000000002,345.50739999999996,-133.04420000000002,175,75
2026-05-07 18:40:00.213,2,-1.89,0.81,1.07,6.8542000000000005,330.74739999999997,-51.5842,175,75
2026-05-07 18:40:00.240,2,-1.91,0.8,0.96,-44.3658,351.7274,-13.224199999999996,175,75
2026-05-07 18:40:00.240,2,-1.92,0.83,1.03,-79.06580000000001,398.18739999999997,39.6358,175,75
2026-05-07 18:40:00.264,2,-1.64,0.79,1.27,-84.06580000000001,420.19739999999996,89.0258,175,75
2026-05-07 18:40:00.275,2,-1.38,0.64,1.43,-89.06580000000001,339.7174,113.7858,175,75
2026-05-07 18:40:00.285,2,-1.37,0.58,1.44,-93.6958,247.3374,124.45580000000001,175,75
2026-05-07 18:40:00.286,2,-1.32,0.48,1.26,-91.8058,144.5874,145.3058,175,75
2026-05-07 18:40:00.300,2,-1.4,0.45,1.19,-85.28580000000001,109.1074,156.0958,175,75
2026-05-07 18:40:00.324,2,-1.37,0.46,1.2,-77.7258,101.4774,165.9158,175,75
2026-05-07 18:40:00.324,2,-1.3,0.51,1.22,-78.45580000000001,94.7774,169.7558,175,75
2026-05-07 18:40:00.334,2,-1.25,0.48,1.13,-81.86580000000001,83.6174,170.42579999999998,175,75
2026-05-07 18:40:00.342,2,-1.29,0.37,1.06,-82.2958,86.4774,174.2758,175,75
2026-05-07 18:40:00.364,2,-1.31,0.27,1.02,-81.1958,122.3974,189.8758,175,75
2026-05-07 18:40:00.382,2,-1.19,0.06,1.08,-85.70580000000001,138.2474,218.5958,175,75
2026-05-07 18:40:00.416,2,-1.13,-0.25,1.37,4.7142,104.5874,160.48579999999998,175,75
2026-05-07 18:40:00.429,2,-1.84,-0.35,1.64,-136.3758,-39.0026,244.5758,175,75
2026-05-07 18:40:00.453,2,-1.44,-0.84,0.63,-88.39580000000001,247.8274,259.6358,175,75
2026-05-07 18:40:00.476,2,-0.54,0.24,2.09,-76.37580000000001,113.9174,328.5358,175,75
2026-05-07 18:40:00.484,2,-0.83,0.13,2.09,-91.4358,-96.4426,282.1958,175,75
2026-05-07 18:40:00.509,2,-1.07,-0.06,1.65,-72.3558,-233.5826,294.0258,175,75
2026-05-07 18:40:00.509,2,-1.15,0.1,1.48,-67.6558,-215.1626,323.7858,175,75
2026-05-07 18:40:00.519,2,-1.15,0.21,1.31,-46.2558,-141.14260000000002,370.61580000000004,175,75
2026-05-07 18:40:00.536,2,-1.14,0.21,1.31,-26.745800000000003,-56.202600000000004,421.4658,175,75
2026-05-07 18:40:00.557,2,-1.0,0.15,1.57,7.2142,97.1574,499.3358,175,75
2026-05-07 18:40:00.557,2,-0.76,0.19,1.62,25.694200000000002,131.6674,511.5858,175,75
2026-05-07 18:40:00.575,2,-0.52,0.42,1.64,44.9042,98.2474,503.5358,175,75
2026-05-07 18:40:00.585,2,0.19,0.82,2.09,60.874199999999995,44.34739999999999,470.1258,175,75
2026-05-07 18:40:00.599,2,-0.02,1.2,3.06,86.54419999999999,-302.4826,390.48580000000004,175,75
2026-05-07 18:40:00.634,2,0.47,2.04,1.84,206.91420000000002,-375.0426,256.2258,175,75
2026-05-07 18:40:00.645,2,0.35,2.03,1.43,241.85420000000002,-347.7226,271.5858,175,75
2026-05-07 18:40:00.656,2,0.68,1.96,1.17,258.9842,-351.6926,277.0758,175,75
2026-05-07 18:40:00.680,2,-0.26,1.64,0.62,77.5842,-220.2826,121.0358,175,75
2026-05-07 18:40:00.691,2,-0.24,1.88,0.66,54.044200000000004,-6.932600000000001,118.8458,175,75
2026-05-07 18:40:00.723,2,0.5,2.07,0.74,83.2542,229.7174,194.39579999999998,175,75
2026-05-07 18:40:00.736,2,1.4,1.51,1.21,82.76419999999999,89.7774,210.79579999999999,175,75
2026-05-07 18:40:00.747,2,0.73,1.33,1.23,33.8042,-62.4226,212.6258,175,75
2026-05-07 18:40:00.752,2,1.09,1.55,1.09,5.2042,-202.1726,275.0658,175,75
2026-05-07 18:40:00.765,2,0.83,1.53,0.97,18.8042,-292.36260000000004,334.7558,175,75
2026-05-07 18:40:00.776,2,0.59,1.25,0.94,43.8042,-333.8226,359.7558,175,75
2026-05-07 18:40:00.787,2,0.16,0.94,0.85,69.4742,-311.56260000000003,357.74580000000003,175,75
2026-05-07 18:40:00.808,2,-0.24,0.67,0.57,75.7542,-234.06259999999997,338.9058,175,75
2026-05-07 18:40:00.822,2,-0.02,0.63,0.4,82.46419999999999,-245.1026,316.16580000000005,175,75
2026-05-07 18:40:00.837,2,-0.27,0.59,0.2,115.32419999999999,-257.05260000000004,240.0658,175,75
2026-05-07 18:40:00.849,2,-0.47,0.46,0.14,140.20420000000001,-208.2126,192.01579999999998,175,75
2026-05-07 18:40:00.872,2,-0.6,0.36,0.19,168.4342,-31.9326,134.0858,175,75
2026-05-07 18:40:00.905,2,-0.52,0.51,0.6,159.9042,107.8274,90.2458,175,75
2026-05-07 18:40:00.925,2,-0.49,0.52,0.65,148.3142,128.6174,87.44579999999999,175,75
2026-05-07 18:40:00.927,2,-0.45,0.55,0.71,131.2442,146.8474,82.44579999999999,175,75
2026-05-07 18:40:00.942,2,-0.53,0.6,0.78,115.99419999999999,171.54739999999998,75.0658,175,75
2026-05-07 18:40:00.956,2,-0.62,0.61,0.86,108.07419999999999,202.3974,71.5858,175,75
2026-05-07 18:40:00.968,2,-0.69,0.59,0.97,98.13419999999999,258.6174,70.3058,175,75
2026-05-07 18:40:00.982,2,-0.6,0.54,1.16,79.8442,320.0774,64.5758,175,75
2026-05-07 18:40:01.004,2,-0.57,0.5,1.27,72.0342,296.4174,53.3558,175,75
2026-05-07 18:40:01.004,2,-0.64,0.46,1.32,65.38419999999999,245.0774,40.4858,175,75
2026-05-07 18:40:01.017,2,-0.65,0.42,1.35,60.874199999999995,187.5174,27.195800000000002,175,75
2026-05-07 18:40:01.034,2,-0.58,0.41,1.36,59.4142,108.9774,6.165800000000001,175,75
2026-05-07 18:40:01.053,2,-0.49,0.4,1.23,53.434200000000004,21.237399999999997,-31.2742,175,75
2026-05-07 18:40:01.073,2,-0.47,0.41,1.18,43.7442,1.6073999999999984,-55.5442,175,75
2026-05-07 18:40:01.073,2,-0.27,0.35,1.16,28.624200000000002,-4.672600000000003,-78.5342,175,75
2026-05-07 18:40:01.090,2,-0.37,0.33,1.12,13.134199999999998,34.047399999999996,-82.1942,175,75
2026-05-07 18:40:01.116,2,-0.19,0.26,0.96,-3.7558,191.7874,13.7858,175,75
2026-05-07 18:40:01.157,2,0.17,-0.48,1.27,-109.36580000000001,216.7874,273.05580000000003,175,75
2026-05-07 18:40:01.174,2,0.08,-0.78,1.28,-149.0658,232.1574,356.4658,175,75
2026-05-07 18:40:01.179,2,0.17,-1.09,1.13,-178.3258,271.0574,461.6458,175,75
2026-05-07 18:40:01.186,2,-0.08,-1.3,0.94,-188.8758,335.25739999999996,546.4658000000001,175,75
2026-05-07 18:40:01.205,2,-0.8,-2.0,0.44,-160.5258,570.9974,410.18580000000003,175,75
2026-05-07 18:40:01.267,2,-0.8,-4.86,2.65,-491.0758,900.0174,6.405800000000001,175,75
2026-05-07 18:40:01.279,2,-0.65,-4.77,2.95,-511.80580000000003,761.7873999999999,-98.04419999999999,175,75
2026-05-07 18:40:01.293,2,-0.68,-4.62,3.27,-512.2358,629.1074,-186.0942,175,75
2026-05-07 18:40:01.318,2,-0.82,-2.64,2.7,-460.7058,612.8274,-314.14419999999996,175,75
2026-05-07 18:40:01.325,2,-0.84,-2.37,2.65,-436.6258,728.3074,-334.02419999999995,175,75
2026-05-07 18:40:01.350,2,-0.72,-2.22,2.85,-364.18580000000003,831.1774,-351.64419999999996,175,75
2026-05-07 18:40:01.422,2,-0.6,-1.46,3.91,-194.8558,429.9574,-315.1842,175,75
2026-05-07 18:40:01.435,2,-0.67,-1.1,2.83,-133.8758,67.6374,-340.8542,175,75
2026-05-07 18:40:01.435,2,-0.56,-0.88,2.52,-127.23580000000001,9.107399999999998,-307.13419999999996,175,75
2026-05-07 18:40:01.503,2,-0.4,-0.41,1.78,59.3542,18.6774,-141.4642,175,75
2026-05-07 18:40:01.503,2,-0.42,-0.34,1.69,62.404199999999996,-9.1326,-127.01420000000002,175,75
2026-05-07 18:40:01.515,2,-0.43,-0.23,1.52,71.60419999999999,-23.212600000000002,-98.83420000000001,175,75
2026-05-07 18:40:01.525,2,-0.26,-0.14,1.33,83.07419999999999,-7.052600000000002,-72.3142,175,75
2026-05-07 18:40:01.542,2,-0.25,-0.06,1.29,92.5242,-0.3426000000000009,-59.144200000000005,175,75
2026-05-07 18:40:01.554,2,-0.25,0.02,1.27,100.63419999999999,15.687399999999998,-48.0442,175,75
2026-05-07 18:40:01.569,2,-0.18,0.1,1.3,118.68419999999999,-6.3826,-32.0142,175,75
2026-05-07 18:40:01.593,2,-0.05,0.22,1.43,132.5242,-78.1526,-10.424199999999999,175,75
2026-05-07 18:40:01.604,2,0.02,0.31,1.36,134.29420000000002,-142.8426,-6.764199999999999,175,75
2026-05-07 18:40:01.618,2,-0.11,0.35,1.22,136.91420000000002,-202.9126,-10.854199999999999,175,75
2026-05-07 18:40:01.648,2,-0.7,0.26,1.14,169.5342,-169.31259999999997,-24.574199999999998,175,75
2026-05-07 18:40:01.669,2,0.39,-0.29,-0.12,142.70420000000001,-155.5326,-87.80420000000001,175,75
2026-05-07 18:40:01.683,2,-1.26,0.97,0.12,85.32419999999999,181.60739999999998,22.5658,175,75
2026-05-07 18:40:01.694,2,-0.28,1.67,0.03,124.0442,434.4074,38.8458,175,75
2026-05-07 18:40:01.719,2,0.13,0.76,0.94,109.4742,336.9674,58.2958,175,75
2026-05-07 18:40:01.719,2,0.24,0.91,1.21,73.37419999999999,281.2974,90.42580000000001,175,75
2026-05-07 18:40:01.730,2,0.53,1.06,1.11,61.6042,196.29739999999998,102.6258,175,75
2026-05-07 18:40:01.753,2,0.54,0.81,0.84,94.7742,-23.522600000000004,86.2858,175,75
2026-05-07 18:40:01.771,2,0.42,0.67,0.8,126.8542,-38.8226,71.22579999999999,175,75
2026-05-07 18:40:01.785,2,0.17,0.51,1.04,150.9342,-8.332600000000003,34.1458,175,75
2026-05-07 18:40:01.795,2,0.6,0.36,1.24,141.85420000000002,26.6674,15.125800000000002,175,75
2026-05-07 18:40:01.807,2,0.91,0.18,1.41,131.1842,-25.412600000000005,10.735800000000001,175,75
2026-05-07 18:40:01.813,2,0.64,0.01,1.36,119.7742,-80.7726,13.4158,175,75
2026-05-07 18:40:01.826,2,0.6,-0.15,1.11,103.37419999999999,-102.3026,-3.5942000000000007,175,75
2026-05-07 18:40:01.843,2,0.69,0.01,0.84,91.3642,-103.6426,-3.6541999999999994,175,75
2026-05-07 18:40:01.856,2,0.76,0.35,0.75,101.60419999999999,-84.9226,6.7758,175,75
2026-05-07 18:40:01.888,2,1.13,0.27,1.48,149.35420000000002,-15.892600000000002,38.2958,175,75
2026-05-07 18:40:01.902,2,0.92,0.02,1.59,132.6442,-45.412600000000005,50.7358,175,75
2026-05-07 18:40:01.912,2,0.89,-0.12,1.55,120.99419999999999,-70.8326,49.3358,175,75
2026-05-07 18:40:01.923,2,1.0,-0.23,1.44,116.85419999999999,-97.0526,44.205799999999996,175,75
2026-05-07 18:40:01.938,2,0.92,-0.24,1.23,121.4842,-127.78259999999999,42.6858,175,75
2026-05-07 18:40:01.949,2,0.72,-0.09,1.11,140.7542,-137.4226,37.8658,175,75
2026-05-07 18:40:01.949,2,0.69,0.01,1.12,164.1742,-133.88260000000002,27.1358,175,75
2026-05-07 18:40:01.960,2,0.69,0.07,1.19,191.2442,-129.19260000000003,16.035800000000002,175,75
2026-05-07 18:40:01.972,2,0.76,0.04,1.27,206.2442,-126.63260000000001,13.2958,175,75
2026-05-07 18:40:01.985,2,0.79,-0.03,1.29,206.2442,-126.44260000000001,18.355800000000002,175,75
2026-05-07 18:40:01.995,2,0.74,-0.13,1.2,198.3142,-119.7426,29.5758,175,75
2026-05-07 18:40:02.016,2,0.51,-0.17,0.91,210.20420000000001,-83.7626,27.1358,175,75
2026-05-07 18:40:02.027,2,0.42,-0.1,0.81,221.1242,-77.1126,22.6258,175,75
2026-05-07 18:40:02.057,2,-0.19,0.27,0.77,268.07419999999996,4.227399999999998,13.5958,175,75
2026-05-07 18:40:02.068,2,-0.27,0.32,0.83,270.75419999999997,41.4774,13.4158,175,75
2026-05-07 18:40:02.082,2,-0.23,0.32,0.89,266.4242,74.4674,8.8458,175,75
2026-05-07 18:40:02.092,2,-0.21,0.32,0.93,261.7342,77.8874,7.3758,175,75
2026-05-07 18:40:02.101,2,-0.24,0.36,0.92,258.31419999999997,62.2174,6.2258,175,75
2026-05-07 18:40:02.117,2,-0.33,0.44,0.86,262.58419999999995,37.3974,0.5558000000000014,175,75
2026-05-07 18:40:02.128,2,-0.34,0.45,0.83,270.63419999999996,29.6574,-6.464199999999998,175,75
2026-05-07 18:40:02.138,2,-0.35,0.42,0.8,278.6242,39.34739999999999,-9.6342,175,75
2026-05-07 18:40:02.152,2,-0.36,0.4,0.79,279.5342,53.9174,-7.1342,175,75
2026-05-07 18:40:02.161,2,-0.43,0.35,0.8,270.63419999999996,80.6274,2.445800000000002,175,75
2026-05-07 18:40:02.171,2,-0.47,0.3,0.88,256.1242,102.8274,12.135800000000001,175,75
2026-05-07 18:40:02.185,2,-0.44,0.2,0.98,236.0642,126.1174,28.2358,175,75
2026-05-07 18:40:02.209,2,-0.28,-0.1,1.11,185.38420000000002,89.2874,74.8158,175,75
2026-05-07 18:40:02.221,2,-0.34,-0.38,1.09,151.85420000000002,47.9474,109.0258,175,75
2026-05-07 18:40:02.231,2,-0.36,-0.69,1.02,120.87419999999999,33.9774,98.5958,175,75
2026-05-07 18:40:02.253,2,-0.71,-1.15,0.76,42.5842,43.4374,12.745800000000001,175,75
2026-05-07 18:40:02.276,2,-0.7,-1.0,0.74,-25.0958,24.3474,-17.1342,175,75
2026-05-07 18:40:02.286,2,-0.69,-0.87,0.73,-63.9358,38.797399999999996,-16.0942,175,75
2026-05-07 18:40:02.308,2,-0.48,-0.92,0.75,-141.7458,128.79739999999998,15.6158,175,75
2026-05-07 18:40:02.319,2,-0.3,-1.07,0.77,-174.3058,180.25740000000002,46.525800000000004,175,75
2026-05-07 18:40:02.329,2,-0.15,-1.24,0.79,-215.0958,238.73739999999998,90.1858,175,75
2026-05-07 18:40:02.341,2,-0.27,-1.51,0.8,-307.4758,296.6074,143.3558,175,75
2026-05-07 18:40:02.354,2,-0.41,-1.68,0.81,-353.0258,316.2374,149.6958,175,75
2026-05-07 18:40:02.368,2,-0.64,-1.98,0.85,-397.8458,344.7174,136.7758,175,75
2026-05-07 18:40:02.380,2,-0.78,-2.32,0.92,-430.7658,378.6774,107.5058,175,75
2026-05-07 18:40:02.392,2,-0.7,-3.0,1.01,-472.7858,417.4574,37.3758,175,75
2026-05-07 18:40:02.405,2,-0.58,-3.79,1.33,-518.5158,449.1674,-39.5742,175,75
2026-05-07 18:40:02.417,2,-0.53,-4.34,1.9,-575.8258,515.9374,-75.30420000000001,175,75
2026-05-07 18:40:02.427,2,-0.65,-4.55,2.27,-626.8657999999999,560.9374,-87.3742,175,75
2026-05-07 18:40:02.450,2,-1.24,-4.75,2.38,-686.6257999999999,552.0274,-138.7142,175,75
2026-05-07 18:40:02.450,2,-1.55,-4.84,2.38,-693.8757999999999,546.2374,-164.57420000000002,175,75
2026-05-07 18:40:02.474,2,-1.36,-4.39,2.6,-638.6358,638.0074,-108.5342,175,75
2026-05-07 18:40:02.492,2,-1.33,-4.09,2.62,-598.2058,638.4374,-56.70419999999999,175,75
2026-05-07 18:40:02.505,2,-1.74,-3.42,2.58,-502.6558,522.7574,-6.5242,175,75
2026-05-07 18:40:02.516,2,-2.1,-3.01,2.63,-423.93580000000003,451.2974,8.5358,175,75
2026-05-07 18:40:02.516,2,-2.29,-2.64,2.64,-357.8458,383.7974,5.855800000000002,175,75
2026-05-07 18:40:02.530,2,-2.56,-2.02,2.56,-284.42580000000004,273.6774,-12.1342,175,75
2026-05-07 18:40:02.546,2,-2.59,-1.42,2.49,-236.98579999999998,195.25740000000002,-33.7742,175,75
2026-05-07 18:40:02.550,2,-2.57,-0.92,2.42,-205.5258,164.4074,-69.9942,175,75
2026-05-07 18:40:02.585,2,-2.49,0.07,2.04,-191.3758,224.1674,-122.98420000000002,175,75
2026-05-07 18:40:02.595,2,-2.58,0.53,1.92,-196.8058,297.4574,-143.2242,175,75
2026-05-07 18:40:02.595,2,-2.59,0.84,1.79,-187.7858,335.56739999999996,-176.76420000000002,175,75
2026-05-07 18:40:02.606,2,-2.54,0.93,1.69,-162.29579999999999,323.6174,-218.2242,175,75
2026-05-07 18:40:02.617,2,-2.45,0.67,1.84,-123.2658,280.8674,-221.5242,175,75
2026-05-07 18:40:02.632,2,-2.33,0.38,2.11,-103.0858,284.4674,-157.3142,175,75
2026-05-07 18:40:02.645,2,-2.06,0.27,2.29,-111.37580000000001,293.43739999999997,-79.7542,175,75
2026-05-07 18:40:02.664,2,-1.86,0.42,2.42,-168.45579999999998,274.9574,33.8458,175,75
2026-05-07 18:40:02.664,2,-2.11,0.64,2.27,-206.1358,213.24739999999997,74.2758,175,75
2026-05-07 18:40:02.676,2,-2.28,0.88,2.11,-227.04579999999999,99.5874,77.3158,175,75
2026-05-07 18:40:02.688,2,-2.06,0.92,1.96,-215.3458,13.857399999999998,74.2758,175,75
2026-05-07 18:40:02.703,2,-1.86,0.87,1.87,-194.3058,-13.332600000000003,86.89580000000001,175,75
2026-05-07 18:40:02.715,2,-1.69,0.75,1.82,-158.6358,-10.412600000000001,122.19579999999999,175,75
2026-05-07 18:40:02.725,2,-1.61,0.65,1.8,-129.6158,28.307399999999998,163.4758,175,75
2026-05-07 18:40:02.738,2,-1.45,0.58,1.79,-113.81580000000001,72.6374,197.4458,175,75
2026-05-07 18:40:02.744,2,-1.17,0.55,1.85,-100.28580000000001,99.95739999999999,220.6158,175,75
2026-05-07 18:40:02.757,2,-1.33,0.51,1.86,-88.2658,108.1274,233.4758,175,75
2026-05-07 18:40:02.770,2,-1.25,0.51,1.7,-79.36580000000001,63.3074,239.39579999999998,175,75
2026-05-07 18:40:02.783,2,-1.1,0.49,1.63,-68.8758,-18.1526,238.4758,175,75
2026-05-07 18:40:02.793,2,-1.14,0.42,1.64,-59.245799999999996,-44.4326,243.0558,175,75
2026-05-07 18:40:02.800,2,-0.99,0.31,1.53,-49.9758,-34.6126,256.8958,175,75
2026-05-07 18:40:02.812,2,-0.8,0.24,1.43,-42.5958,-28.3926,271.8358,175,75
2026-05-07 18:40:02.823,2,-0.65,0.2,1.36,-37.7858,-27.662600000000005,280.97580000000005,175,75
2026-05-07 18:40:02.833,2,-0.45,0.1,1.26,-34.2458,-21.812600000000003,275.0058,175,75
2026-05-07 18:40:02.845,2,-0.8,-0.17,0.97,-43.0858,40.3874,170.48579999999998,175,75
2026-05-07 18:40:02.856,2,-0.86,-0.13,0.75,-57.7258,62.5774,105.91579999999999,175,75
2026-05-07 18:40:02.867,2,-0.55,-0.06,0.77,-61.925799999999995,55.8074,57.2558,175,75
2026-05-07 18:40:02.892,2,0.39,0.05,0.84,-49.675799999999995,-3.582600000000003,29.5158,175,75
2026-05-07 18:40:02.903,2,1.02,0.02,0.67,-56.6858,-25.952600000000004,143.4758,175,75
2026-05-07 18:40:02.913,2,-0.04,-0.06,0.55,-69.7958,-10.532600000000002,157.3758,175,75
2026-05-07 18:40:02.925,2,-0.44,-0.83,0.38,-62.6558,-27.052599999999998,-4.3842,175,75
2026-05-07 18:40:02.941,2,0.25,-0.56,-0.22,-75.89580000000001,49.047399999999996,168.9658,175,75
2026-05-07 18:40:02.965,2,-0.39,-0.34,-0.42,-94.42580000000001,163.30739999999997,160.3058,175,75
2026-05-07 18:40:02.966,2,-0.32,-0.58,0.05,-60.2258,313.12739999999997,180.48579999999998,175,75
2026-05-07 18:40:02.980,2,0.58,-1.07,0.73,-29.0058,383.12739999999997,200.8558,175,75
2026-05-07 18:40:02.998,2,1.1,-1.52,1.08,-80.1558,-137.7826,177.2558,175,75
2026-05-07 18:40:03.009,2,0.85,-1.39,0.62,-83.6958,-308.9426,161.1658,175,75
2026-05-07 18:40:03.023,2,0.34,-1.13,-0.09,-69.9158,-342.7826,151.2858,175,75
2026-05-07 18:40:03.034,2,-0.33,-0.88,-0.72,-17.9058,-232.9726,132.5058,175,75
2026-05-07 18:40:03.046,2,-0.48,-0.69,-0.91,33.3742,-24.552599999999998,128.2958,175,75
2026-05-07 18:40:03.064,2,-0.16,-0.58,-0.56,33.074200000000005,192.2174,129.5158,175,75
2026-05-07 18:40:03.080,2,0.61,-0.56,0.29,30.514200000000002,222.0874,115.1858,175,75
2026-05-07 18:40:03.102,2,0.69,-0.49,0.38,24.1042,77.6974,104.94579999999999,175,75
2026-05-07 18:40:03.114,2,0.58,-0.34,0.22,15.084200000000001,-86.0226,85.1858,175,75
2026-05-07 18:40:03.139,2,-0.29,-0.28,-0.22,20.324199999999998,-196.0826,26.3458,175,75
2026-05-07 18:40:03.139,2,-0.52,-0.22,-0.38,26.7342,-85.3426,24.0258,175,75
2026-05-07 18:40:03.153,2,-0.43,-0.11,-0.46,44.9042,56.117399999999996,32.8658,175,75
2026-05-07 18:40:03.163,2,-0.16,-0.08,-0.36,46.4842,128.67739999999998,34.8158,175,75
2026-05-07 18:40:03.176,2,-0.08,-0.08,-0.13,29.044200000000004,141.8474,32.7458,175,75
2026-05-07 18:40:03.188,2,-0.04,-0.03,0.09,9.774199999999999,153.12740000000002,37.6258,175,75
2026-05-07 18:40:03.199,2,0.02,0.0,0.17,3.5641999999999996,137.8874,40.1258,175,75
2026-05-07 18:40:03.212,2,0.05,0.03,0.19,3.8042,99.0474,37.5058,175,75
2026-05-07 18:40:03.232,2,0.01,0.02,0.15,12.7642,19.467399999999998,24.7558,175,75
2026-05-07 18:40:03.243,2,-0.07,-0.07,0.14,16.6742,-9.802600000000002,10.735800000000001,175,75
2026-05-07 18:40:03.254,2,0.03,-0.14,0.09,15.384199999999998,-14.002600000000001,0.1258000000000017,175,75
2026-05-07 18:40:03.268,2,0.05,-0.15,0.05,10.934199999999999,-18.882600000000004,-4.0242,175,75
