Time,ID,Ax,Ay,Az,Gx,Gy,Gz,Height,Weight
2026-05-11 17:50:45.805,2,-0.71,-1.34,-0.44,44.727199999999996,155.7708,4.255000000000001,175,75
2026-05-11 17:50:45.812,2,-0.6,-1.07,-0.24,19.3672,85.2208,-6.665,175,75
2026-05-11 17:50:45.820,2,-0.49,-0.79,-0.1,-12.282800000000002,9.4908,-7.635,175,75
2026-05-11 17:50:45.828,2,-0.4,-0.48,-0.05,-38.802800000000005,-79.9692,-7.695,175,75
2026-05-11 17:50:45.846,2,-0.34,-0.2,-0.04,-48.192800000000005,-161.6092,-10.325,175,75
2026-05-11 17:50:45.861,2,-0.33,0.04,-0.13,-40.5128,-202.1592,-12.885,175,75
2026-05-11 17:50:45.871,2,-0.36,0.29,-0.29,-22.772800000000004,-195.32920000000001,-14.525,175,75
2026-05-11 17:50:45.889,2,-0.43,0.37,-0.43,-13.682800000000004,-153.86919999999998,-14.585,175,75
2026-05-11 17:50:45.923,2,-0.63,-0.05,-0.6,-11.182800000000004,75.7108,-10.995,175,75
2026-05-11 17:50:45.952,2,-0.65,-0.04,-0.46,-3.312800000000003,131.62079999999997,-7.695,175,75
2026-05-11 17:50:45.972,2,-0.65,0.08,-0.27,1.9871999999999979,172.4108,-5.195,175,75
2026-05-11 17:50:45.993,2,-0.54,-0.02,0.17,-26.852800000000002,119.7908,8.455,175,75
2026-05-11 17:50:46.025,2,-0.39,-0.07,0.23,-24.472800000000003,28.080800000000004,11.755,175,75
2026-05-11 17:50:46.025,2,-0.35,-0.04,0.2,-18.8628,-5.089199999999999,9.805000000000001,175,75
2026-05-11 17:50:46.042,2,-0.31,-0.01,0.17,-21.6128,-17.2792,7.174999999999999,175,75
2026-05-11 17:50:46.055,2,-0.32,0.04,0.13,-26.5528,-20.3292,5.284999999999998,175,75
2026-05-11 17:50:46.065,2,-0.35,0.09,0.1,-30.5728,-28.4392,5.225,175,75
2026-05-11 17:50:46.079,2,-0.36,0.11,0.11,-37.092800000000004,-50.8792,4.865,175,75
2026-05-11 17:50:46.090,2,-0.37,0.07,0.09,-40.1428,-77.5892,7.424999999999999,175,75
2026-05-11 17:50:46.102,2,-0.38,-0.38,0.02,-40.942800000000005,-158.19920000000002,16.755000000000003,175,75
2026-05-11 17:50:46.113,2,-0.38,-0.86,-0.11,-43.5028,-217.82920000000001,15.834999999999999,175,75
2026-05-11 17:50:46.151,2,-0.84,-2.19,-1.03,-65.6328,-263.1992,-10.995,175,75
2026-05-11 17:50:46.181,2,-1.01,-1.69,-1.22,23.4472,-20.6392,2.4849999999999994,175,75
2026-05-11 17:50:46.191,2,-1.07,-1.99,-1.11,9.427199999999996,45.0308,11.755,175,75
2026-05-11 17:50:46.227,2,-1.01,-2.04,-0.94,11.197199999999999,61.9208,5.895000000000001,175,75
2026-05-11 17:50:46.227,2,-0.89,-1.85,-0.81,28.8772,52.4108,0.5350000000000001,175,75
2026-05-11 17:50:46.227,2,-0.76,-1.59,-0.74,45.88719999999999,33.5708,-0.015000000000000568,175,75
2026-05-11 17:50:46.264,2,-0.7,-1.05,-0.72,54.727199999999996,22.960800000000003,8.825000000000001,175,75
2026-05-11 17:50:46.274,2,-0.68,-0.76,-0.72,49.3672,34.1808,10.955,175,75
2026-05-11 17:50:46.274,2,-0.61,-0.37,-0.64,37.04719999999999,52.2308,11.205,175,75
2026-05-11 17:50:46.298,2,-0.37,0.38,-0.45,1.5571999999999981,35.3408,9.255,175,75
2026-05-11 17:50:46.325,2,-0.15,1.03,-0.57,-28.992800000000003,-39.419200000000004,-12.455,175,75
2026-05-11 17:50:46.339,2,-0.2,0.98,-0.66,-35.8828,-29.7192,-19.655,175,75
2026-05-11 17:50:46.339,2,-0.29,0.87,-0.74,-46.8528,-12.469199999999999,-26.725,175,75
2026-05-11 17:50:46.352,2,-0.37,0.66,-0.83,-61.0628,18.140800000000002,-33.125,175,75
2026-05-11 17:50:46.406,2,-0.47,0.46,-0.88,-70.5128,65.6408,-38.495,175,75
2026-05-11 17:50:46.450,2,-0.76,-0.18,-0.75,-80.39280000000001,199.7908,-30.564999999999998,175,75
2026-05-11 17:50:46.460,2,-0.81,-0.5,-0.67,-86.9728,222.9608,-25.195,175,75
2026-05-11 17:50:46.475,2,-0.84,-1.32,-0.53,-103.1928,227.2308,-16.845,175,75
2026-05-11 17:50:46.485,2,-0.77,-1.64,-0.47,-100.51280000000001,201.32080000000002,-8.855,175,75
2026-05-11 17:50:46.485,2,-0.75,-1.79,-0.42,-93.25280000000001,156.07080000000002,-2.084999999999999,175,75
2026-05-11 17:50:46.495,2,-0.76,-1.66,-0.4,-84.2928,105.9508,-0.8049999999999997,175,75
2026-05-11 17:50:46.502,2,-0.73,-1.27,-0.38,-80.8128,31.860799999999998,5.415000000000001,175,75
2026-05-11 17:50:46.525,2,-0.75,-1.5,-0.58,-115.2728,-60.7592,53.035,175,75
2026-05-11 17:50:46.536,2,-0.75,-1.86,-0.75,-120.6928,-66.97919999999999,64.675,175,75
2026-05-11 17:50:46.536,2,-0.65,-2.0,-0.78,-107.03280000000001,-42.7692,67.91499999999999,175,75
2026-05-11 17:50:46.548,2,-0.43,-1.89,-0.69,-67.1628,6.860800000000001,70.285,175,75
2026-05-11 17:50:46.548,2,-0.3,-1.65,-0.57,-32.7028,38.1408,70.475,175,75
2026-05-11 17:50:46.557,2,-0.22,-1.42,-0.4,-9.782800000000002,54.970800000000004,66.935,175,75
2026-05-11 17:50:46.583,2,-0.17,-1.18,-0.28,-3.072800000000001,48.2108,60.955,175,75
2026-05-11 17:50:46.583,2,-0.15,-0.93,-0.18,-4.662800000000001,23.750799999999998,52.175,175,75
2026-05-11 17:50:46.592,2,-0.08,-0.71,-0.13,-5.692800000000002,-12.0992,42.915,175,75
2026-05-11 17:50:46.593,2,-0.06,-0.53,-0.15,-2.4028000000000027,-37.709199999999996,36.205,175,75
2026-05-11 17:50:46.604,2,-0.05,-0.37,-0.22,4.667199999999998,-54.6592,29.494999999999997,175,75
2026-05-11 17:50:46.619,2,-0.07,-0.24,-0.32,10.467199999999995,-53.0092,23.275,175,75
2026-05-11 17:50:46.646,2,-0.15,-0.04,-0.45,1.4372000000000007,15.520800000000001,13.584999999999999,175,75
2026-05-11 17:50:46.669,2,-0.14,0.04,-0.41,-11.612800000000004,69.24080000000001,10.225,175,75
2026-05-11 17:50:46.680,2,-0.13,0.08,-0.33,-20.202800000000003,103.5108,6.6949999999999985,175,75
2026-05-11 17:50:46.680,2,-0.08,0.11,-0.24,-26.612800000000004,126.8608,2.545,175,75
2026-05-11 17:50:46.691,2,0.06,0.2,-0.1,-34.842800000000004,138.82080000000002,-8.004999999999999,175,75
2026-05-11 17:50:46.702,2,0.21,0.32,-0.01,-40.2028,136.44080000000002,-18.675,175,75
2026-05-11 17:50:46.713,2,0.29,0.46,0.0,-42.162800000000004,130.4608,-27.395,175,75
2026-05-11 17:50:46.724,2,0.35,0.62,0.02,-45.942800000000005,132.6008,-34.835,175,75
2026-05-11 17:50:46.735,2,0.32,0.73,0.07,-56.1228,156.44080000000002,-41.605,175,75
2026-05-11 17:50:46.748,2,0.31,0.69,0.2,-67.5228,180.2208,-45.265,175,75
2026-05-11 17:50:46.759,2,0.33,0.45,0.44,-78.1328,195.7108,-56.905,175,75
2026-05-11 17:50:46.770,2,0.39,0.17,0.71,-84.8428,174.9708,-78.675,175,75
2026-05-11 17:50:46.796,2,0.25,-0.18,0.9,-82.8328,-70.0292,-132.515,175,75
2026-05-11 17:50:46.816,2,0.07,-0.4,0.68,-86.0628,-174.1692,-147.45499999999998,175,75
2026-05-11 17:50:46.827,2,-0.06,-0.61,0.5,-92.5828,-223.37920000000003,-154.95499999999998,175,75
2026-05-11 17:50:46.837,2,-0.23,-1.04,0.25,-97.64280000000001,-259.5992,-165.385,175,75
2026-05-11 17:50:46.926,2,-0.88,-2.19,-0.63,-88.86280000000001,-271.8592,-161.785,175,75
2026-05-11 17:50:46.939,2,-1.34,-2.03,-1.41,-1.7928000000000033,-129.5392,-178.855,175,75
2026-05-11 17:50:46.962,2,-1.14,-1.01,-1.23,139.7972,-48.6792,-114.895,175,75
2026-05-11 17:50:46.962,2,-1.42,-1.27,-1.28,113.38719999999999,-117.9492,-61.235,175,75
2026-05-11 17:50:46.995,2,-1.53,-1.16,-2.12,99.36719999999998,-11.6692,44.735,175,75
2026-05-11 17:50:47.018,2,-1.09,-0.96,-1.51,117.1672,195.95080000000002,70.345,175,75
2026-05-11 17:50:47.031,2,-0.78,-0.91,-1.1,107.6572,193.57080000000002,69.675,175,75
2026-05-11 17:50:47.043,2,-0.42,-0.82,-0.68,81.5572,104.49080000000001,64.135,175,75
2026-05-11 17:50:47.043,2,-0.15,-0.61,-0.46,42.71719999999999,-39.3592,53.644999999999996,175,75
2026-05-11 17:50:47.056,2,-0.08,-0.33,-0.55,17.2272,-163.25920000000002,42.975,175,75
2026-05-11 17:50:47.066,2,-0.07,0.03,-0.89,1.7471999999999959,-253.49919999999997,23.155,175,75
2026-05-11 17:50:47.066,2,-0.19,0.4,-1.21,-9.112800000000004,-226.30919999999998,12.115,175,75
2026-05-11 17:50:47.097,2,-0.33,0.59,-1.43,-19.7828,-83.61919999999999,5.895000000000001,175,75
2026-05-11 17:50:47.114,2,-0.37,0.41,-1.36,-21.972800000000003,77.8408,7.424999999999999,175,75
2026-05-11 17:50:47.114,2,-0.37,0.18,-1.12,-17.832800000000002,168.3308,8.455,175,75
2026-05-11 17:50:47.126,2,-0.32,0.09,-0.77,-15.752800000000002,218.3908,3.5250000000000004,175,75
2026-05-11 17:50:47.139,2,-0.27,0.11,-0.44,-26.1228,230.4608,1.5649999999999995,175,75
2026-05-11 17:50:47.139,2,-0.27,0.13,-0.2,-44.052800000000005,218.45080000000002,-2.6950000000000003,175,75
2026-05-11 17:50:47.151,2,-0.25,0.13,-0.02,-65.2028,189.55079999999998,-7.695,175,75
2026-05-11 17:50:47.211,2,-0.16,0.0,0.22,-93.0128,58.020799999999994,-17.884999999999998,175,75
2026-05-11 17:50:47.211,2,-0.2,-0.1,0.18,-84.9028,17.410800000000002,-20.195,175,75
2026-05-11 17:50:47.222,2,-0.23,-0.16,0.13,-82.5228,1.0108000000000015,-20.195,175,75
2026-05-11 17:50:47.228,2,-0.24,-0.2,0.09,-85.0228,-3.3191999999999986,-19.345,175,75
2026-05-11 17:50:47.242,2,-0.25,-0.24,0.04,-88.1928,-7.219199999999999,-18.495,175,75
2026-05-11 17:50:47.247,2,-0.26,-0.26,0.03,-90.2028,-8.8692,-17.515,175,75
2026-05-11 17:50:47.277,2,-0.3,-0.47,0.02,-101.00280000000001,-47.6492,-10.625,175,75
2026-05-11 17:50:47.277,2,-0.25,-0.62,0.03,-100.2728,-74.4192,-13.004999999999999,175,75
2026-05-11 17:50:47.316,2,-0.4,-1.06,-0.14,-66.1228,-157.0392,-25.325,175,75
2026-05-11 17:50:47.329,2,-0.53,-1.15,-0.27,-45.272800000000004,-189.2892,-27.765,175,75
2026-05-11 17:50:47.345,2,-0.86,-1.19,-0.7,-5.692800000000002,-233.31920000000002,-32.945,175,75
2026-05-11 17:50:47.345,2,-1.06,-1.16,-1.04,13.697199999999999,-229.7192,-28.555,175,75
2026-05-11 17:50:47.355,2,-1.2,-1.21,-1.23,18.0872,-196.54919999999998,-22.695,175,75
2026-05-11 17:50:47.366,2,-1.23,-1.31,-1.29,12.8372,-124.9692,-18.435,175,75
2026-05-11 17:50:47.366,2,-1.13,-1.29,-1.21,15.887199999999996,-23.0792,-15.265,175,75
2026-05-11 17:50:47.372,2,-1.04,-1.15,-1.03,44.057199999999995,68.88080000000001,-9.105,175,75
2026-05-11 17:50:47.394,2,-1.03,-0.47,-0.52,124.48719999999999,162.4708,25.225,175,75
2026-05-11 17:50:47.409,2,-0.96,-0.27,-0.46,116.13719999999999,130.7708,35.165,175,75
2026-05-11 17:50:47.409,2,-0.85,-0.08,-0.39,95.40719999999999,88.2708,41.085,175,75
2026-05-11 17:50:47.430,2,-0.71,0.1,-0.35,71.9272,59.24080000000001,45.225,175,75
2026-05-11 17:50:47.430,2,-0.55,0.37,-0.33,51.98719999999999,40.8308,49.004999999999995,175,75
2026-05-11 17:50:47.457,2,-0.37,0.95,-0.28,37.29719999999999,33.9408,50.045,175,75
2026-05-11 17:50:47.481,2,-0.4,1.05,-0.28,30.9472,41.1908,49.555,175,75
2026-05-11 17:50:47.493,2,-0.46,0.9,-0.28,13.9372,34.0008,46.324999999999996,175,75
2026-05-11 17:50:47.506,2,-0.49,0.48,-0.38,-27.402800000000003,-13.0792,30.775,175,75
2026-05-11 17:50:47.506,2,-0.52,0.39,-0.42,-38.0128,-13.4392,28.824999999999996,175,75
2026-05-11 17:50:47.527,2,-0.59,0.27,-0.46,-45.272800000000004,1.8608000000000011,32.175,175,75
2026-05-11 17:50:47.547,2,-0.64,0.11,-0.47,-50.082800000000006,18.210800000000003,39.555,175,75
2026-05-11 17:50:47.573,2,-0.58,-0.99,-0.33,-76.7928,36.6208,46.144999999999996,175,75
2026-05-11 17:50:47.573,2,-0.65,-1.48,-0.37,-83.0128,30.7708,46.385,175,75
2026-05-11 17:50:47.596,2,-0.69,-1.92,-0.43,-82.5228,11.9908,53.584999999999994,175,75
2026-05-11 17:50:47.596,2,-0.75,-2.09,-0.74,-33.3128,-55.029199999999996,47.915,175,75
2026-05-11 17:50:47.623,2,-0.24,-1.11,-0.56,12.2972,-90.0892,74.925,175,75
2026-05-11 17:50:47.633,2,-0.36,-1.76,-0.77,-31.3028,-117.8292,71.565,175,75
2026-05-11 17:50:47.633,2,-0.47,-2.15,-0.93,-51.1828,-133.8092,56.815,175,75
2026-05-11 17:50:47.662,2,-0.38,-1.94,-0.95,14.307199999999998,-69.9692,26.934999999999995,175,75
2026-05-11 17:50:47.676,2,-0.37,-1.67,-0.86,52.65719999999999,15.890800000000002,22.845,175,75
2026-05-11 17:50:47.682,2,-0.49,-1.48,-0.87,53.38719999999999,77.3508,17.365000000000002,175,75
2026-05-11 17:50:47.696,2,-0.58,-1.28,-0.84,49.307199999999995,122.2308,11.084999999999999,175,75
2026-05-11 17:50:47.707,2,-0.59,-1.14,-0.77,48.99719999999999,135.3408,10.895000000000001,175,75
2026-05-11 17:50:47.718,2,-0.52,-0.97,-0.66,48.38719999999999,134.00080000000003,6.994999999999999,175,75
2026-05-11 17:50:47.724,2,-0.38,-0.78,-0.5,40.0972,119.1208,3.455,175,75
2026-05-11 17:50:47.736,2,-0.23,-0.6,-0.37,26.6872,96.5608,1.1449999999999996,175,75
2026-05-11 17:50:47.746,2,-0.16,-0.47,-0.31,13.697199999999999,77.1708,-2.0250000000000004,175,75
2026-05-11 17:50:47.771,2,-0.18,-0.27,-0.29,-5.272800000000004,59.7308,-9.655,175,75
2026-05-11 17:50:47.779,2,-0.23,-0.17,-0.24,-15.942800000000002,67.4708,-11.785,175,75
2026-05-11 17:50:47.792,2,-0.23,-0.08,-0.16,-25.1428,72.9008,-13.915,175,75
2026-05-11 17:50:47.803,2,-0.21,-0.01,-0.1,-34.3528,74.3008,-16.055,175,75
2026-05-11 17:50:47.815,2,-0.16,0.1,-0.03,-42.4028,67.1708,-16.785,175,75
2026-05-11 17:50:47.815,2,-0.1,0.23,0.04,-48.192800000000005,46.8008,-17.515,175,75
2026-05-11 17:50:47.828,2,-0.05,0.35,0.07,-50.082800000000006,28.1408,-17.215,175,75
2026-05-11 17:50:47.840,2,-0.01,0.44,0.08,-50.4528,15.340800000000002,-16.665,175,75
2026-05-11 17:50:47.847,2,0.01,0.5,0.1,-51.302800000000005,6.680800000000001,-16.965,175,75
2026-05-11 17:50:47.879,2,-0.01,0.45,0.18,-63.0728,-3.3191999999999986,-31.174999999999997,175,75
2026-05-11 17:50:47.889,2,-0.04,0.4,0.2,-67.5828,-11.309199999999999,-36.415,175,75
2026-05-11 17:50:47.900,2,-0.07,0.35,0.22,-72.64280000000001,-26.429199999999998,-42.085,175,75
2026-05-11 17:50:47.937,2,-0.09,0.28,0.22,-77.8328,-51.7892,-48.855000000000004,175,75
2026-05-11 17:50:47.947,2,-0.16,0.21,0.17,-82.4628,-79.3592,-55.805,175,75
2026-05-11 17:50:47.948,2,-0.24,0.03,0.08,-88.8028,-111.5492,-61.965,175,75
2026-05-11 17:50:47.958,2,-0.27,-0.22,0.03,-93.3828,-132.2192,-69.715,175,75
2026-05-11 17:50:47.968,2,-0.27,-0.61,-0.06,-92.64280000000001,-144.9692,-85.625,175,75
2026-05-11 17:50:47.983,2,-0.48,-1.16,-0.3,-81.7328,-147.82920000000001,-97.885,175,75
2026-05-11 17:50:47.983,2,-0.8,-1.63,-0.6,-67.7728,-142.2792,-98.555,175,75
2026-05-11 17:50:48.015,2,-1.64,-2.1,-1.51,38.447199999999995,88.4508,-93.555,175,75
2026-05-11 17:50:48.029,2,-1.56,-1.68,-1.41,88.26719999999999,115.2208,-72.635,175,75
2026-05-11 17:50:48.040,2,-1.36,-1.71,-1.16,98.02720000000001,117.1108,-35.075,175,75
2026-05-11 17:50:48.048,2,-1.2,-1.89,-0.88,59.977199999999996,73.3308,-10.745,175,75
2026-05-11 17:50:48.061,2,-1.01,-1.8,-0.79,12.0472,-17.7092,-2.8249999999999993,175,75
2026-05-11 17:50:48.075,2,-1.07,-1.49,-0.93,6.197199999999999,-44.9692,9.985000000000001,175,75
2026-05-11 17:50:48.079,2,-1.19,-1.27,-1.07,24.427199999999996,-1.3091999999999988,25.655,175,75
2026-05-11 17:50:48.097,2,-1.23,-1.08,-1.09,41.07719999999999,66.4408,40.955,175,75
2026-05-11 17:50:48.108,2,-1.16,-0.91,-0.94,50.6472,158.94080000000002,52.485,175,75
2026-05-11 17:50:48.118,2,-1.05,-0.77,-0.72,48.26719999999999,203.51080000000002,56.754999999999995,175,75
2026-05-11 17:50:48.130,2,-0.79,-0.58,-0.4,38.02719999999999,186.01080000000002,51.385,175,75
2026-05-11 17:50:48.140,2,-0.51,-0.39,-0.12,21.077199999999994,120.28080000000001,43.885,175,75
2026-05-11 17:50:48.177,2,-0.21,-0.1,0.09,-1.9128000000000007,15.5808,34.555,175,75
2026-05-11 17:50:48.177,2,-0.19,0.15,0.04,-14.292800000000003,-72.0392,24.674999999999997,175,75
2026-05-11 17:50:48.188,2,-0.32,0.1,-0.21,-17.342800000000004,-106.4292,12.485000000000001,175,75
2026-05-11 17:50:48.198,2,-0.44,-0.01,-0.42,-21.302800000000005,-98.3192,5.345000000000001,175,75
2026-05-11 17:50:48.253,2,-0.48,-0.04,-0.59,-23.012800000000002,-48.3792,1.1449999999999996,175,75
2026-05-11 17:50:48.265,2,-0.48,0.03,-0.62,-19.232800000000005,12.4708,1.9350000000000005,175,75
2026-05-11 17:50:48.282,2,-0.41,0.23,-0.35,-8.132800000000003,138.2708,14.065,175,75
2026-05-11 17:50:48.293,2,-0.25,0.11,0.24,-31.5528,106.0708,13.155,175,75
2026-05-11 17:50:48.293,2,-0.23,0.05,0.26,-33.2528,52.8408,13.034999999999998,175,75
2026-05-11 17:50:48.313,2,-0.21,0.0,0.17,-30.082800000000002,-11.3692,8.645000000000001,175,75
2026-05-11 17:50:48.313,2,-0.2,-0.02,0.14,-32.7028,-18.9292,5.345000000000001,175,75
2026-05-11 17:50:48.324,2,-0.21,-0.05,0.13,-35.3928,-24.1092,0.47499999999999964,175,75
2026-05-11 17:50:48.337,2,-0.25,-0.07,0.14,-39.7828,-39.2292,-1.7850000000000001,175,75
2026-05-11 17:50:48.354,2,-0.29,-0.21,0.11,-47.22280000000001,-68.3792,-2.6950000000000003,175,75
2026-05-11 17:50:48.354,2,-0.31,-0.39,0.1,-51.97280000000001,-92.8892,-3.5549999999999997,175,75
2026-05-11 17:50:48.367,2,-0.32,-0.63,0.06,-55.082800000000006,-116.4292,-5.385,175,75
2026-05-11 17:50:48.378,2,-0.33,-0.94,-0.01,-56.8528,-141.30919999999998,-9.465,175,75
2026-05-11 17:50:48.389,2,-0.36,-1.43,-0.13,-56.552800000000005,-164.8392,-18.245,175,75
2026-05-11 17:50:48.401,2,-0.46,-1.74,-0.27,-53.0728,-172.5292,-25.195,175,75
2026-05-11 17:50:48.401,2,-0.55,-1.91,-0.43,-45.692800000000005,-168.07920000000001,-29.895000000000003,175,75
2026-05-11 17:50:48.421,2,-0.72,-1.95,-0.62,-26.422800000000002,-145.50920000000002,-37.695,175,75
2026-05-11 17:50:48.430,2,-0.84,-1.75,-0.76,3.757200000000001,-102.0992,-45.805,175,75
2026-05-11 17:50:48.463,2,-0.85,-1.66,-0.76,19.607199999999995,-63.4992,-40.995,175,75
2026-05-11 17:50:48.463,2,-0.89,-1.76,-0.69,18.327199999999994,-14.5392,-27.825,175,75
2026-05-11 17:50:48.475,2,-0.84,-1.84,-0.42,16.927199999999996,23.0208,-30.134999999999998,175,75
2026-05-11 17:50:48.485,2,-0.79,-1.69,-0.31,29.667199999999998,20.2208,-33.365,175,75
2026-05-11 17:50:48.496,2,-0.74,-1.41,-0.22,46.74719999999999,7.530799999999999,-31.545,175,75
2026-05-11 17:50:48.529,2,-0.73,-0.74,-0.25,67.29719999999999,3.1408000000000005,-24.405,175,75
2026-05-11 17:50:48.529,2,-0.68,-0.37,-0.26,73.1472,9.610800000000001,-21.415,175,75
2026-05-11 17:50:48.569,2,-0.55,0.94,-0.39,65.0372,18.5108,-2.635,175,75
2026-05-11 17:50:48.582,2,-0.61,1.14,-0.44,46.3172,35.8908,7.604999999999999,175,75
2026-05-11 17:50:48.582,2,-0.68,1.08,-0.49,22.9072,68.0208,13.705,175,75
2026-05-11 17:50:48.592,2,-0.71,0.79,-0.5,4.247199999999996,92.5308,14.135,175,75
2026-05-11 17:50:48.688,2,-0.72,0.52,-0.43,-9.782800000000002,102.3508,10.715000000000002,175,75
2026-05-11 17:50:48.688,2,-0.73,0.44,-0.36,-17.102800000000002,100.5808,5.775,175,75
2026-05-11 17:50:48.699,2,-0.73,0.35,-0.26,-26.852800000000002,77.6608,2.3049999999999997,175,75
2026-05-11 17:50:48.728,2,-0.74,0.14,-0.21,-39.5328,44.6108,2.6050000000000004,175,75
2026-05-11 17:50:48.728,2,-0.75,-0.12,-0.23,-50.332800000000006,9.910800000000002,4.494999999999999,175,75
2026-05-11 17:50:48.738,2,-0.77,-0.4,-0.28,-60.1428,-23.6192,6.875000000000002,175,75
2026-05-11 17:50:48.738,2,-0.8,-0.72,-0.34,-70.6328,-58.8092,12.055000000000001,175,75
2026-05-11 17:50:48.761,2,-0.82,-2.26,-0.72,-98.0728,-100.2692,43.214999999999996,175,75
2026-05-11 17:50:48.772,2,-0.8,-2.01,-0.89,-66.36280000000001,-82.5892,24.064999999999998,175,75
2026-05-11 17:50:48.773,2,-0.54,-1.21,-0.74,-2.9528000000000034,-49.0492,19.735,175,75
2026-05-11 17:50:48.795,2,-0.64,-1.73,-0.62,-37.522800000000004,32.7808,86.085,175,75
2026-05-11 17:50:48.795,2,-0.68,-2.35,-0.61,-66.9128,64.3608,72.975,175,75
2026-05-11 17:50:48.817,2,-0.6,-2.06,-0.42,1.8071999999999981,99.24080000000001,43.095,175,75
2026-05-11 17:50:48.817,2,-0.6,-1.82,-0.34,15.217199999999995,94.0608,39.675,175,75
2026-05-11 17:50:48.829,2,-0.63,-1.6,-0.29,7.2272,84.5508,39.614999999999995,175,75
2026-05-11 17:50:48.834,2,-0.65,-1.28,-0.3,-9.722800000000003,74.0008,38.705,175,75
2026-05-11 17:50:48.843,2,-0.56,-1.05,-0.26,-14.962800000000003,63.940799999999996,38.765,175,75
2026-05-11 17:50:48.861,2,-0.32,-0.73,-0.07,-33.9928,21.2508,38.765,175,75
2026-05-11 17:50:48.889,2,-0.21,-0.6,0.01,-43.192800000000005,-4.539199999999999,34.065,175,75
2026-05-11 17:50:48.889,2,-0.15,-0.48,0.03,-44.662800000000004,-20.1492,28.095,175,75
2026-05-11 17:50:48.900,2,-0.1,-0.35,0.06,-42.582800000000006,-23.7492,19.435000000000002,175,75
2026-05-11 17:50:48.912,2,-0.11,-0.21,0.09,-44.9028,-18.3192,11.145000000000001,175,75
2026-05-11 17:50:48.915,2,-0.14,-0.13,0.1,-48.50280000000001,-15.5092,5.834999999999999,175,75
2026-05-11 17:50:48.938,2,-0.15,0.1,0.08,-53.3828,-23.9292,-3.9749999999999996,175,75
2026-05-11 17:50:48.994,2,-0.11,0.2,0.07,-52.9528,-32.3992,-6.785,175,75
2026-05-11 17:50:48.994,2,-0.08,0.29,0.05,-52.4028,-36.429199999999994,-9.405,175,75
2026-05-11 17:50:49.005,2,-0.03,0.37,0.06,-51.302800000000005,-33.6192,-11.605,175,75
2026-05-11 17:50:49.005,2,0.03,0.49,0.07,-49.3528,-23.559199999999997,-14.465,175,75
2026-05-11 17:50:49.019,2,0.1,0.58,0.11,-50.4528,-16.7292,-18.855,175,75
2026-05-11 17:50:49.030,2,0.16,0.61,0.19,-55.6328,-6.059199999999999,-26.725,175,75
2026-05-11 17:50:49.030,2,0.21,0.54,0.28,-60.272800000000004,1.2508000000000017,-36.905,175,75
2026-05-11 17:50:49.045,2,0.21,0.38,0.36,-62.162800000000004,-0.8791999999999991,-49.525,175,75
2026-05-11 17:50:49.045,2,0.16,0.21,0.37,-62.162800000000004,-14.969199999999999,-61.725,175,75
2026-05-11 17:50:49.072,2,-0.1,-0.36,0.11,-89.53280000000001,-90.0292,-100.265,175,75
2026-05-11 17:50:49.096,2,-0.19,-1.2,-0.12,-118.25280000000001,-105.9392,-123.675,175,75
2026-05-11 17:50:49.110,2,-0.39,-1.82,-0.3,-122.34280000000001,-91.8592,-124.655,175,75
2026-05-11 17:50:49.118,2,-0.64,-2.44,-0.62,-111.1828,-73.8092,-117.455,175,75
2026-05-11 17:50:49.137,2,-1.02,-2.81,-1.01,-72.1628,-28.5592,-118.065,175,75
2026-05-11 17:50:49.147,2,-1.26,-2.34,-1.27,10.827199999999994,68.88080000000001,-129.045,175,75
2026-05-11 17:50:49.164,2,-0.98,-1.9,-1.05,94.6672,119.91080000000001,-108.435,175,75
2026-05-11 17:50:49.177,2,-1.19,-2.0,-1.3,5.1572,-176.36919999999998,-96.175,175,75
2026-05-11 17:50:49.191,2,-1.28,-1.63,-1.49,1.9871999999999979,-171.05919999999998,-77.635,175,75
2026-05-11 17:50:49.216,2,-1.4,-1.39,-1.54,2.537199999999995,-109.2292,-54.955,175,75
2026-05-11 17:50:49.220,2,-1.45,-1.24,-1.43,-2.4028000000000027,-7.769199999999999,-38.005,175,75
2026-05-11 17:50:49.241,2,-1.0,-0.75,-0.45,-10.882800000000003,27.050800000000002,-18.735,175,75
2026-05-11 17:50:49.249,2,-0.85,-0.47,-0.37,-27.162800000000004,-72.1592,-6.175,175,75
2026-05-11 17:50:49.286,2,-0.79,-0.22,-0.45,-42.582800000000006,-138.92919999999998,2.0549999999999997,175,75
2026-05-11 17:50:49.286,2,-0.72,-0.04,-0.56,-51.1828,-152.2192,6.994999999999999,175,75
2026-05-11 17:50:49.297,2,-0.67,0.16,-0.66,-55.8128,-133.6892,11.444999999999999,175,75
2026-05-11 17:50:49.332,2,-0.65,0.33,-0.73,-62.2828,-83.9292,13.645000000000001,175,75
2026-05-11 17:50:49.332,2,-0.59,0.45,-0.69,-73.1928,1.6808000000000014,13.334999999999999,175,75
2026-05-11 17:50:49.343,2,-0.55,0.41,-0.57,-80.8828,68.4508,14.495,175,75
2026-05-11 17:50:49.343,2,-0.51,0.23,-0.39,-83.8028,118.5708,14.315,175,75
2026-05-11 17:50:49.372,2,-0.48,0.11,-0.25,-82.64280000000001,135.7108,13.705,175,75
2026-05-11 17:50:49.372,2,-0.47,0.09,-0.12,-78.0728,132.6608,12.975,175,75
2026-05-11 17:50:49.383,2,-0.44,0.12,-0.03,-76.61280000000001,115.7108,12.485000000000001,175,75
2026-05-11 17:50:49.395,2,-0.4,0.16,0.05,-86.00280000000001,73.3908,10.534999999999998,175,75
2026-05-11 17:50:49.395,2,-0.4,0.14,0.01,-91.7328,65.2208,9.805000000000001,175,75
2026-05-11 17:50:49.437,2,-0.42,0.08,0.03,-90.8128,73.7508,11.205,175,75
2026-05-11 17:50:49.462,2,-0.4,0.02,0.2,-91.00280000000001,64.6708,10.895000000000001,175,75
2026-05-11 17:50:49.474,2,-0.37,-0.02,0.22,-90.0828,43.6308,9.194999999999999,175,75
2026-05-11 17:50:49.491,2,-0.35,-0.1,0.19,-87.5828,1.9908000000000001,7.365,175,75
2026-05-11 17:50:49.527,2,-0.42,-0.42,0.02,-87.5828,-65.6392,2.665000000000001,175,75
2026-05-11 17:50:49.527,2,-0.46,-0.65,-0.01,-89.17280000000001,-88.7492,0.10500000000000043,175,75
2026-05-11 17:50:49.538,2,-0.46,-1.03,-0.07,-89.11280000000001,-119.4192,-4.405,175,75
2026-05-11 17:50:49.549,2,-0.51,-1.49,-0.16,-87.8328,-147.5292,-6.965,175,75
2026-05-11 17:50:49.561,2,-0.7,-1.97,-0.53,-64.6628,-165.75920000000002,-15.805,175,75
2026-05-11 17:50:49.580,2,-0.83,-1.43,-0.78,-11.002800000000004,-87.8292,-15.135,175,75
2026-05-11 17:50:49.591,2,-0.78,-1.73,-0.67,13.697199999999999,6.440800000000001,2.2349999999999994,175,75
2026-05-11 17:50:49.601,2,-0.71,-1.61,-0.61,34.79719999999999,18.2708,1.5050000000000008,175,75
2026-05-11 17:50:49.617,2,-0.67,-1.13,-0.57,53.87719999999999,35.7108,-0.3849999999999998,175,75
2026-05-11 17:50:49.628,2,-0.65,-0.82,-0.56,56.2572,51.5608,1.3849999999999998,175,75
2026-05-11 17:50:49.642,2,-0.59,-0.45,-0.5,59.727199999999996,76.74080000000001,2.785,175,75
2026-05-11 17:50:49.654,2,-0.48,-0.13,-0.42,62.04719999999999,94.6108,3.705,175,75
2026-05-11 17:50:49.668,2,-0.33,0.31,-0.33,62.65719999999999,111.6208,5.165000000000001,175,75
2026-05-11 17:50:49.725,2,-0.22,0.73,-0.25,61.37719999999999,115.2208,1.875,175,75
2026-05-11 17:50:49.725,2,-0.16,1.17,-0.22,57.10719999999999,107.0508,-2.1549999999999994,175,75
2026-05-11 17:50:49.736,2,-0.2,1.32,-0.25,45.76719999999999,91.5008,-4.045,175,75
2026-05-11 17:50:49.759,2,-0.25,1.27,-0.3,22.0472,67.0508,-7.825,175,75
2026-05-11 17:50:49.759,2,-0.31,0.83,-0.34,-8.992800000000003,51.2508,-13.305,175,75
2026-05-11 17:50:49.775,2,-0.4,0.54,-0.41,-22.402800000000003,38.6308,-19.955,175,75
2026-05-11 17:50:49.775,2,-0.44,0.4,-0.47,-27.342800000000004,28.2708,-23.555,175,75
2026-05-11 17:50:49.785,2,-0.5,0.26,-0.55,-31.492800000000003,18.6308,-22.945,175,75
2026-05-11 17:50:49.798,2,-0.57,-0.05,-0.64,-41.0028,13.8808,-19.955,175,75
2026-05-11 17:50:49.812,2,-0.6,-0.84,-0.66,-63.50280000000001,44.4908,-11.605,175,75
2026-05-11 17:50:49.812,2,-0.73,-1.15,-0.7,-67.3428,67.7208,1.5649999999999995,175,75
2026-05-11 17:50:49.827,2,-0.83,-1.54,-0.84,-65.6328,65.5208,18.215000000000003,175,75
2026-05-11 17:50:49.838,2,-0.85,-2.2,-0.86,-66.67280000000001,54.0008,33.945,175,75
2026-05-11 17:50:49.849,2,-0.67,-1.5,-0.75,-5.572800000000001,54.0008,32.175,175,75
2026-05-11 17:50:49.856,2,-0.35,-1.06,-0.4,-25.022800000000004,-17.2792,68.095,175,75
2026-05-11 17:50:49.882,2,-0.24,-1.92,-0.5,-84.8428,-103.0792,44.065,175,75
2026-05-11 17:50:49.882,2,-0.22,-1.85,-0.59,-53.6228,-97.5292,29.434999999999995,175,75
2026-05-11 17:50:49.917,2,-0.25,-1.56,-0.61,-9.902800000000003,-70.3892,17.365000000000002,175,75
2026-05-11 17:50:49.917,2,-0.33,-1.32,-0.63,10.527199999999997,-17.949199999999998,13.645000000000001,175,75
2026-05-11 17:50:49.932,2,-0.41,-1.11,-0.71,24.1172,57.1108,8.944999999999999,175,75
2026-05-11 17:50:49.974,2,-0.29,-0.64,-0.49,41.49719999999999,109.3008,14.865,175,75
2026-05-11 17:50:49.984,2,-0.19,-0.47,-0.39,30.5872,116.8608,16.085,175,75
2026-05-11 17:50:50.074,2,-0.13,0.24,0.23,-47.4028,82.2308,-3.4350000000000005,175,75
2026-05-11 17:50:50.074,2,-0.07,0.33,0.29,-54.5328,36.1308,-9.655,175,75
2026-05-11 17:50:50.084,2,-0.03,0.41,0.27,-57.4628,-27.3992,-18.855,175,75
2026-05-11 17:50:50.091,2,-0.13,0.52,-0.11,-70.14280000000001,-66.4892,-38.305,175,75
2026-05-11 17:50:50.115,2,-0.32,0.76,-0.29,-76.2428,73.4508,-28.435000000000002,175,75
2026-05-11 17:50:50.115,2,-0.32,0.71,-0.11,-76.61280000000001,150.4608,-21.905,175,75
2026-05-11 17:50:50.136,2,-0.36,0.3,0.45,-86.4928,185.5208,-28.795,175,75
2026-05-11 17:50:50.179,2,-0.47,-0.07,0.61,-89.7228,46.9908,-37.885,175,75
2026-05-11 17:50:50.209,2,-0.76,-1.84,0.02,-84.17280000000001,-255.0292,-48.495000000000005,175,75
2026-05-11 17:50:50.220,2,-0.94,-2.24,-0.22,-64.2328,-279.7192,-44.285,175,75
2026-05-11 17:50:50.288,2,-1.28,-1.75,-0.76,45.0372,-262.5892,-69.405,175,75
2026-05-11 17:50:50.354,2,-1.03,-1.52,-1.1,108.32719999999999,-311.3092,-7.025,175,75
2026-05-11 17:50:50.354,2,-1.02,-1.94,-1.22,73.2072,-281.0592,-16.725,175,75
2026-05-11 17:50:50.354,2,-0.92,-2.11,-1.37,75.40719999999999,-177.3992,-36.785,175,75
2026-05-11 17:50:50.375,2,-1.04,-1.45,-1.5,187.1672,144.24079999999998,-1.0549999999999997,175,75
2026-05-11 17:50:50.387,2,-1.0,-1.03,-0.88,144.5472,312.2908,41.565,175,75
2026-05-11 17:50:50.411,2,-0.27,-0.76,0.06,77.1672,149.9708,38.214999999999996,175,75
2026-05-11 17:50:50.411,2,-0.07,-0.49,0.23,44.3672,-1.6691999999999991,33.275,175,75
2026-05-11 17:50:50.435,2,-0.25,-0.13,-0.18,10.4072,-222.7692,17.665,175,75
2026-05-11 17:50:50.446,2,-0.48,0.0,-0.65,-30.512800000000002,-225.2692,7.0550000000000015,175,75
2026-05-11 17:50:50.452,2,-0.5,0.08,-0.76,-37.6428,-172.3992,10.045,175,75
2026-05-11 17:50:50.464,2,-0.5,0.19,-0.78,-35.2028,-80.2092,19.555,175,75
2026-05-11 17:50:50.475,2,-0.46,0.23,-0.59,-33.3828,1.620800000000001,29.555,175,75
2026-05-11 17:50:50.514,2,-0.25,0.14,-0.01,-63.92280000000001,-76.4892,17.975,175,75
2026-05-11 17:50:50.541,2,-0.31,0.16,-0.13,-62.0328,-83.00919999999999,15.775,175,75
2026-05-11 17:50:50.541,2,-0.35,0.2,-0.25,-64.17280000000001,-71.66919999999999,16.634999999999998,175,75
2026-05-11 17:50:50.552,2,-0.37,0.18,-0.29,-70.6928,-47.9492,16.265,175,75
2026-05-11 17:50:50.564,2,-0.39,-0.21,-0.29,-85.75280000000001,-36.059200000000004,7.545,175,75
2026-05-11 17:50:50.609,2,-0.45,-0.51,-0.29,-94.3528,-44.599199999999996,-2.215,175,75
2026-05-11 17:50:50.609,2,-0.57,-1.33,-0.36,-109.11280000000001,-61.9192,-26.415,175,75
2026-05-11 17:50:50.630,2,-0.72,-1.82,-0.47,-106.42280000000001,-51.8592,-36.785,175,75
2026-05-11 17:50:50.641,2,-1.33,-1.72,-0.63,-16.972800000000003,29.4908,-70.015,175,75
2026-05-11 17:50:50.659,2,-1.26,-1.5,-0.4,7.107199999999995,41.6808,-49.285000000000004,175,75
2026-05-11 17:50:50.670,2,-1.24,-1.85,0.03,-29.6628,-82.9492,-27.455,175,75
2026-05-11 17:50:50.732,2,-1.26,-1.59,-0.06,-29.722800000000003,-260.1492,-34.715,175,75
2026-05-11 17:50:50.747,2,-1.29,-0.76,-0.69,-22.522800000000004,-303.6192,-29.655,175,75
2026-05-11 17:50:50.758,2,-1.2,-0.2,-0.85,-25.082800000000002,-144.3592,-10.995,175,75
2026-05-11 17:50:50.773,2,-1.04,0.31,-0.77,-28.862800000000004,15.340800000000002,8.705,175,75
2026-05-11 17:50:50.773,2,-0.88,0.77,-0.55,-29.902800000000003,95.2208,23.275,175,75
2026-05-11 17:50:50.784,2,-0.71,1.16,-0.35,-25.7528,113.7508,38.885,175,75
2026-05-11 17:50:50.835,2,-0.6,0.37,-0.34,-92.1628,113.0208,46.504999999999995,175,75
2026-05-11 17:50:50.897,2,-0.65,0.16,-0.26,-95.8828,148.88080000000002,46.265,175,75
2026-05-11 17:50:50.897,2,-0.68,-0.13,-0.12,-102.2228,187.8408,47.845,175,75
2026-05-11 17:50:50.918,2,-0.55,-0.96,0.2,-119.17280000000001,148.57080000000002,37.235,175,75
2026-05-11 17:50:50.918,2,-0.52,-1.33,0.24,-123.0728,100.5208,26.994999999999997,175,75
2026-05-11 17:50:50.930,2,-0.63,-1.66,0.13,-116.2428,51.8608,20.894999999999996,175,75
2026-05-11 17:50:50.957,2,-1.02,-2.25,-0.43,-49.1728,0.7708000000000013,22.975,175,75
2026-05-11 17:50:50.975,2,-0.7,-1.13,-0.19,-1.1228000000000016,10.2808,43.945,175,75
2026-05-11 17:50:50.986,2,-0.63,-1.64,-0.25,-33.1328,-74.7192,44.195,175,75
2026-05-11 17:50:50.997,2,-0.6,-2.2,-0.53,-44.662800000000004,-129.1092,31.875,175,75
2026-05-11 17:50:51.008,2,-0.62,-2.25,-0.75,-21.492800000000003,-121.6092,16.384999999999998,175,75
2026-05-11 17:50:51.008,2,-0.59,-2.01,-0.87,9.7972,-67.2792,10.715000000000002,175,75
2026-05-11 17:50:51.043,2,-0.61,-1.72,-0.86,37.837199999999996,30.0308,9.615,175,75
2026-05-11 17:50:51.043,2,-0.64,-1.56,-0.76,49.18719999999999,99.7908,9.255,175,75
2026-05-11 17:50:51.064,2,-0.29,-0.98,-0.22,63.99719999999999,33.5108,-9.835,175,75
2026-05-11 17:50:51.076,2,-0.21,-0.79,-0.23,48.93719999999999,-38.7492,-16.545,175,75
2026-05-11 17:50:51.084,2,-0.21,-0.55,-0.39,32.10719999999999,-100.0892,-20.865000000000002,175,75
2026-05-11 17:50:51.109,2,-0.38,0.18,-0.99,-17.102800000000002,52.1108,-6.545,175,75
2026-05-11 17:50:51.135,2,-0.38,0.31,-0.13,13.757200000000001,357.9608,4.985000000000001,175,75
2026-05-11 17:50:51.147,2,-0.14,0.45,0.43,-0.5728000000000009,241.74079999999998,-15.504999999999999,175,75
2026-05-11 17:50:51.158,2,-0.06,0.52,0.54,-17.772800000000004,127.78080000000001,-25.505000000000003,175,75
2026-05-11 17:50:51.196,2,-0.16,0.58,0.26,-38.3828,-31.2492,-37.455,175,75
2026-05-11 17:50:51.206,2,-0.21,0.52,0.03,-48.6228,-34.7792,-43.435,175,75
2026-05-11 17:50:51.236,2,-0.24,0.44,0.01,-47.522800000000004,-13.559199999999999,-45.745000000000005,175,75
2026-05-11 17:50:51.253,2,-0.26,0.38,0.08,-45.332800000000006,1.6808000000000014,-47.945,175,75
2026-05-11 17:50:51.253,2,-0.31,0.34,0.16,-41.1828,3.3908000000000005,-48.795,175,75
2026-05-11 17:50:51.253,2,-0.34,0.32,0.24,-40.082800000000006,-8.319199999999999,-50.265,175,75
2026-05-11 17:50:51.299,2,-0.44,-0.1,0.28,-63.86280000000001,-131.54919999999998,-62.085,175,75
2026-05-11 17:50:51.320,2,-1.12,-2.06,-0.33,-73.6228,-251.8592,-87.635,175,75
2026-05-11 17:50:51.320,2,-1.38,-2.46,-0.65,-57.4628,-234.8992,-80.325,175,75
2026-05-11 17:50:51.350,2,-2.06,-2.66,-1.07,-8.562800000000003,-169.4792,-71.605,175,75
2026-05-11 17:50:51.350,2,-2.04,-1.47,-1.33,69.4272,-155.1492,-87.69500000000001,175,75
2026-05-11 17:50:51.361,2,-1.64,-1.12,-1.14,87.5972,-201.17919999999998,-35.935,175,75
2026-05-11 17:50:51.374,2,-1.72,-1.34,-1.35,23.9372,-229.2892,6.385,175,75
2026-05-11 17:50:51.451,2,-1.2,-1.39,-0.64,36.557199999999995,375.7108,71.085,175,75
2026-05-11 17:50:51.462,2,-0.85,-1.22,-0.31,-23.382800000000003,264.06080000000003,60.655,175,75
2026-05-11 17:50:51.463,2,-0.63,-1.04,-0.3,-56.6728,153.3308,57.91499999999999,175,75
2026-05-11 17:50:51.475,2,-0.54,-0.84,-0.47,-67.64280000000001,55.2808,58.215,175,75
2026-05-11 17:50:51.553,2,-0.38,-0.22,-0.88,-59.9028,178.2108,81.635,175,75
2026-05-11 17:50:51.606,2,-0.37,0.16,-0.14,-46.302800000000005,489.24080000000004,68.945,175,75
2026-05-11 17:50:51.616,2,-0.37,0.13,0.16,-41.4228,486.0708,54.735,175,75
2026-05-11 17:50:51.616,2,-0.33,0.08,0.38,-38.0728,421.0708,37.605,175,75
2026-05-11 17:50:51.673,2,-0.21,0.04,0.66,-74.17280000000001,167.9608,1.3849999999999998,175,75
2026-05-11 17:50:51.673,2,-0.2,0.04,0.62,-71.1228,115.1608,-7.335,175,75
2026-05-11 17:50:51.687,2,-0.19,0.02,0.62,-63.6828,66.6208,-18.555,175,75
2026-05-11 17:50:51.711,2,-0.14,0.08,0.64,-63.6828,-98.00919999999999,-44.405,175,75
2026-05-11 17:50:51.747,2,-0.14,0.08,0.59,-64.0528,-139.8392,-49.285000000000004,175,75
2026-05-11 17:50:51.760,2,-0.21,-0.46,0.46,-65.0228,-279.5992,-68.91499999999999,175,75
2026-05-11 17:50:51.770,2,-0.22,-0.78,0.34,-47.092800000000004,-363.8092,-81.785,175,75
2026-05-11 17:50:51.817,2,-0.69,-1.48,-0.75,-1.3628000000000036,-592.8892000000001,-78.125,175,75
2026-05-11 17:50:51.839,2,-1.71,-1.49,-3.79,-55.5128,10.2808,-104.715,175,75
2026-05-11 17:50:51.850,2,-1.6,-1.29,-1.89,117.4172,657.2307999999999,127.30499999999999,175,75
2026-05-11 17:50:51.872,2,-2.0,-1.79,-0.67,213.99720000000002,657.2307999999999,84.495,175,75
2026-05-11 17:50:51.894,2,-0.1,-0.2,0.39,-2.4628000000000014,18.570800000000002,1.205,175,75
2026-05-11 17:50:51.894,2,-0.79,0.48,-0.0,-57.342800000000004,-124.0492,-1.2349999999999994,175,75
2026-05-11 17:50:51.904,2,-0.77,0.45,-0.55,-23.8028,-254.8992,8.155,175,75
2026-05-11 17:50:51.920,2,-0.88,0.58,-0.75,-19.9628,-246.9192,8.334999999999999,175,75
2026-05-11 17:50:51.933,2,-0.83,0.78,-0.84,-33.1328,-189.4192,10.834999999999999,175,75
2026-05-11 17:50:51.933,2,-0.8,0.86,-0.84,-66.67280000000001,-66.2492,14.495,175,75
2026-05-11 17:50:51.965,2,-0.57,0.55,-0.31,-82.7028,103.2708,12.305000000000001,175,75
2026-05-11 17:50:51.971,2,-0.52,0.47,-0.14,-98.1928,85.8308,16.755000000000003,175,75
2026-05-11 17:50:51.994,2,-0.5,0.15,-0.01,-128.0728,2.6008000000000013,27.305,175,75
2026-05-11 17:50:52.009,2,-0.51,-0.27,-0.11,-117.5828,-31.1192,36.144999999999996,175,75
2026-05-11 17:50:52.036,2,-0.48,-0.59,-0.13,-123.0728,-33.319199999999995,35.835,175,75
2026-05-11 17:50:52.070,2,-0.47,-1.45,-0.18,-139.5328,-38.809200000000004,29.195,175,75
2026-05-11 17:50:52.079,2,-0.47,-1.77,-0.21,-145.5728,-45.8792,28.214999999999996,175,75
2026-05-11 17:50:52.079,2,-0.45,-1.85,-0.31,-138.0728,-77.9492,30.955,175,75
2026-05-11 17:50:52.106,2,-0.48,-1.37,-0.5,-43.5628,-120.6992,48.155,175,75
2026-05-11 17:50:52.125,2,-0.29,-1.76,-0.31,-44.7828,-104.0492,70.16499999999999,175,75
2026-05-11 17:50:52.144,2,-0.15,-1.83,-0.17,-39.052800000000005,-104.4792,60.345,175,75
2026-05-11 17:50:52.144,2,-0.02,-1.81,-0.04,-1.6128000000000036,-113.61919999999999,49.195,175,75
2026-05-11 17:50:52.155,2,0.03,-1.72,0.07,52.71719999999999,-130.9392,35.714999999999996,175,75
2026-05-11 17:50:52.179,2,-0.06,-1.46,0.06,101.4972,-187.3992,7.784999999999998,175,75
2026-05-11 17:50:52.180,2,-0.1,-1.34,-0.09,100.82719999999999,-214.1092,-3.244999999999999,175,75
2026-05-11 17:50:52.221,2,-0.29,-0.88,-0.72,76.37719999999999,-174.5392,-40.505,175,75
2026-05-11 17:50:52.260,2,-0.32,-0.66,-0.83,81.43719999999999,-79.3592,-49.835,175,75
2026-05-11 17:50:52.285,2,-0.33,-0.06,-0.38,83.6972,200.2208,-50.995000000000005,175,75
2026-05-11 17:50:52.317,2,-0.27,0.32,-0.09,66.1972,189.67079999999999,-46.235,175,75
2026-05-11 17:50:52.335,2,-0.12,0.54,0.11,42.96719999999999,81.9208,-38.495,175,75
2026-05-11 17:50:52.362,2,0.06,0.56,0.11,33.8172,3.5708,-42.395,175,75
2026-05-11 17:50:52.395,2,0.06,0.33,-0.25,34.3672,-32.9492,-55.935,175,75
2026-05-11 17:50:52.418,2,0.07,-0.71,-0.13,3.757200000000001,-95.0892,-102.515,175,75
2026-05-11 17:50:52.466,2,-0.48,-1.91,-0.67,-21.672800000000002,-173.00920000000002,-126.605,175,75
2026-05-11 17:50:52.477,2,-1.05,-2.86,-0.98,-90.39280000000001,-171.7892,-118.675,175,75
2026-05-11 17:50:52.477,2,-1.38,-3.46,-1.35,-189.6628,-126.6092,-110.265,175,75
2026-05-11 17:50:52.477,2,-1.75,-3.42,-1.79,-225.6328,-30.699199999999998,-131.545,175,75
2026-05-11 17:50:52.501,2,-1.07,-1.78,-1.28,155.46720000000002,381.0708,-32.335,175,75
2026-05-11 17:50:52.535,2,-1.45,-2.21,-0.58,82.7772,315.4608,1.8149999999999995,175,75
2026-05-11 17:50:52.535,2,-1.29,-2.24,-0.21,38.26719999999999,220.2808,-26.235,175,75
2026-05-11 17:50:52.547,2,-0.87,-1.86,-0.12,-22.222800000000003,81.8608,-14.045,175,75
2026-05-11 17:50:52.557,2,-0.87,-1.28,-0.32,-47.092800000000004,-46.1192,21.504999999999995,175,75
2026-05-11 17:50:52.557,2,-0.81,-1.1,-0.49,-45.3928,-72.9492,26.384999999999998,175,75
2026-05-11 17:50:52.618,2,-0.71,-0.94,-0.52,-51.552800000000005,-46.8592,34.614999999999995,175,75
2026-05-11 17:50:52.618,2,-0.65,-0.75,-0.48,-63.86280000000001,-8.749199999999998,39.065,175,75
2026-05-11 17:50:52.618,2,-0.58,-0.52,-0.37,-78.8028,26.680799999999998,40.655,175,75
2026-05-11 17:50:52.629,2,-0.48,-0.33,-0.28,-88.0728,44.1208,39.434999999999995,175,75
2026-05-11 17:50:52.629,2,-0.37,-0.12,-0.13,-97.70280000000001,54.970800000000004,35.475,175,75
2026-05-11 17:50:52.647,2,-0.33,0.08,-0.02,-106.1828,61.680800000000005,33.644999999999996,175,75
2026-05-11 17:50:52.648,2,-0.31,0.2,0.04,-111.42280000000001,57.60080000000001,30.894999999999996,175,75
2026-05-11 17:50:52.680,2,-0.33,0.1,0.07,-119.78280000000001,34.6108,26.205,175,75
2026-05-11 17:50:52.715,2,-0.33,0.04,0.17,-120.8828,33.3308,13.525,175,75
2026-05-11 17:50:52.715,2,-0.35,0.05,0.22,-123.8028,27.1708,14.985000000000001,175,75
2026-05-11 17:50:52.760,2,-0.35,0.05,0.25,-127.28280000000001,16.070800000000002,18.155,175,75
2026-05-11 17:50:52.793,2,-0.33,0.03,0.28,-131.5528,-3.679199999999999,20.045,175,75
2026-05-11 17:50:52.798,2,-0.25,-0.0,0.33,-131.4928,-35.6392,24.434999999999995,175,75
2026-05-11 17:50:52.829,2,-0.14,0.04,0.4,-112.64280000000001,-57.1592,28.214999999999996,175,75
2026-05-11 17:50:52.829,2,-0.13,0.03,0.4,-101.8528,-71.66919999999999,28.705,175,75
2026-05-11 17:50:52.850,2,-0.23,-0.33,0.34,-82.5228,-113.9292,21.754999999999995,175,75
2026-05-11 17:50:52.867,2,-0.28,-0.69,0.27,-68.7428,-134.4792,15.475,175,75
2026-05-11 17:50:52.880,2,-0.33,-1.58,-0.09,-43.7428,-216.48919999999998,-5.195,175,75
2026-05-11 17:50:52.898,2,-0.54,-1.81,-0.41,-47.6428,-239.04919999999998,-13.185,175,75
2026-05-11 17:50:52.898,2,-0.86,-1.89,-0.78,-52.0328,-227.1592,-20.994999999999997,175,75
2026-05-11 17:50:52.909,2,-1.03,-1.78,-1.01,-38.5628,-175.75920000000002,-27.025,175,75
2026-05-11 17:50:52.909,2,-0.95,-1.63,-1.07,1.8672000000000004,-81.9192,-25.685000000000002,175,75
2026-05-11 17:50:52.909,2,-0.88,-1.71,-0.86,31.807199999999998,11.800800000000002,-2.5749999999999993,175,75
2026-05-11 17:50:52.925,2,-0.83,-1.89,-0.61,34.85719999999999,54.7308,8.705,175,75
2026-05-11 17:50:52.940,2,-0.68,-1.88,-0.35,32.417199999999994,31.5608,5.834999999999999,175,75
2026-05-11 17:50:52.951,2,-0.58,-1.61,-0.24,38.32719999999999,-36.789199999999994,3.2750000000000004,175,75
2026-05-11 17:50:52.978,2,-0.61,-1.4,-0.31,42.71719999999999,-84.2892,0.16500000000000092,175,75
2026-05-11 17:50:53.029,2,-0.53,0.17,-0.68,66.07719999999999,-5.0291999999999994,-8.004999999999999,175,75
2026-05-11 17:50:53.040,2,-0.45,0.6,-0.62,61.98719999999999,45.8308,-3.914999999999999,175,75
2026-05-11 17:50:53.052,2,-0.35,1.12,-0.4,40.21719999999999,108.9408,6.264999999999999,175,75
2026-05-11 17:50:53.067,2,-0.33,1.25,-0.23,30.7672,114.7908,10.284999999999998,175,75
2026-05-11 17:50:53.121,2,-0.31,1.04,-0.04,22.2972,96.1908,12.975,175,75
2026-05-11 17:50:53.121,2,-0.31,0.69,0.07,10.1572,64.6108,10.045,175,75
2026-05-11 17:50:53.133,2,-0.32,0.51,0.17,-10.812800000000003,15.640800000000002,-0.1349999999999998,175,75
2026-05-11 17:50:53.133,2,-0.35,0.5,0.16,-21.972800000000003,-20.879199999999997,-4.715,175,75
2026-05-11 17:50:53.133,2,-0.42,0.44,0.11,-28.5028,-48.8092,-5.5649999999999995,175,75
2026-05-11 17:50:53.133,2,-0.52,0.31,0.01,-35.2028,-66.1192,-5.075,175,75
2026-05-11 17:50:53.145,2,-0.61,0.15,-0.06,-45.7528,-72.39920000000001,-3.3049999999999997,175,75
2026-05-11 17:50:53.156,2,-0.68,-0.08,-0.14,-60.6328,-67.8292,0.8350000000000009,175,75
2026-05-11 17:50:53.156,2,-0.73,-0.53,-0.13,-82.9528,-52.6492,1.6950000000000003,175,75
2026-05-11 17:50:53.156,2,-0.71,-0.96,-0.07,-100.2728,-30.8192,-0.9350000000000005,175,75
2026-05-11 17:50:53.192,2,-0.77,-1.84,-0.1,-93.9928,-14.5392,2.7249999999999996,175,75
2026-05-11 17:50:53.192,2,-0.86,-2.28,-0.14,-63.86280000000001,-26.5492,6.994999999999999,175,75
2026-05-11 17:50:53.210,2,-0.78,-1.26,-0.28,66.0072,-95.8792,-15.195,175,75
2026-05-11 17:50:53.210,2,-0.67,-0.97,-0.32,85.5272,-158.61919999999998,26.384999999999998,175,75
2026-05-11 17:50:53.233,2,-0.74,-1.38,-0.6,54.977199999999996,-209.04919999999998,43.885,175,75
2026-05-11 17:50:53.233,2,-0.81,-1.99,-0.91,12.537199999999995,-255.0292,40.535,175,75
2026-05-11 17:50:53.236,2,-0.85,-2.34,-1.15,-15.142800000000003,-247.5292,25.955,175,75
2026-05-11 17:50:53.253,2,-0.81,-2.33,-1.36,-19.602800000000002,-187.3992,9.555000000000001,175,75
2026-05-11 17:50:53.279,2,-0.77,-1.58,-1.11,85.2772,207.5308,20.534999999999997,175,75
2026-05-11 17:50:53.316,2,-0.84,-1.45,-0.79,87.4772,312.11080000000004,24.985,175,75
2026-05-11 17:50:53.316,2,-0.8,-1.3,-0.39,78.93719999999999,341.86080000000004,16.384999999999998,175,75
2026-05-11 17:50:53.316,2,-0.65,-1.16,-0.09,67.35719999999999,292.6008,6.145000000000001,175,75
2026-05-11 17:50:53.327,2,-0.33,-0.9,0.26,40.82719999999999,159.42079999999999,-6.965,175,75
2026-05-11 17:50:53.373,2,-0.12,-0.61,0.35,8.757200000000001,5.030800000000001,-9.285,175,75
2026-05-11 17:50:53.373,2,-0.14,-0.39,0.23,-6.492800000000003,-100.3892,-9.465,175,75
2026-05-11 17:50:53.373,2,-0.18,-0.25,0.02,-8.622800000000002,-162.2792,-12.945,175,75
2026-05-11 17:50:53.373,2,-0.24,-0.16,-0.2,-6.242800000000003,-186.24919999999997,-16.295,175,75
2026-05-11 17:50:53.388,2,-0.3,-0.05,-0.4,-5.942800000000002,-162.7092,-19.775,175,75
2026-05-11 17:50:53.402,2,-0.3,0.27,-0.56,-22.6428,-23.559199999999997,-24.345,175,75
2026-05-11 17:50:53.402,2,-0.28,0.38,-0.52,-32.9528,31.3808,-26.475,175,75
2026-05-11 17:50:53.410,2,-0.28,0.45,-0.44,-41.2428,74.7308,-28.555,175,75
2026-05-11 17:50:53.446,2,-0.26,0.48,-0.31,-45.082800000000006,106.5608,-31.354999999999997,175,75
2026-05-11 17:50:53.446,2,-0.24,0.52,-0.18,-46.1228,119.3008,-31.415,175,75
2026-05-11 17:50:53.478,2,-0.21,0.61,0.02,-46.97280000000001,118.6908,-29.715000000000003,175,75
2026-05-11 17:50:53.488,2,-0.18,0.5,0.23,-57.832800000000006,90.8908,-32.085,175,75
2026-05-11 17:50:53.493,2,-0.18,0.4,0.27,-68.9928,55.460800000000006,-34.895,175,75
2026-05-11 17:50:53.504,2,-0.19,0.32,0.29,-76.3028,24.550800000000002,-36.415,175,75
2026-05-11 17:50:53.528,2,-0.26,-0.05,0.24,-88.0128,-49.2292,-40.565,175,75
2026-05-11 17:50:53.539,2,-0.32,-0.3,0.21,-94.0528,-71.7892,-45.995000000000005,175,75
2026-05-11 17:50:53.562,2,-0.38,-1.11,0.08,-93.3128,-127.6492,-64.835,175,75
2026-05-11 17:50:53.636,2,-0.49,-1.69,-0.12,-88.4428,-161.8592,-76.905,175,75
2026-05-11 17:50:53.636,2,-0.77,-2.34,-0.41,-87.3428,-170.0892,-81.905,175,75
2026-05-11 17:50:53.757,2,-1.42,-2.69,-0.97,-45.4528,-66.4892,-100.625,175,75
2026-05-11 17:50:53.809,2,-1.18,-1.42,-0.86,81.0072,-1.3691999999999993,-73.975,175,75
2026-05-11 17:50:53.809,2,-1.19,-1.53,-0.71,59.79719999999999,-17.8892,-31.905,175,75
2026-05-11 17:50:53.809,2,-1.12,-2.07,-0.62,-25.942800000000002,-39.539199999999994,-21.545,175,75
2026-05-11 17:50:53.819,2,-1.06,-2.03,-0.85,-21.912800000000004,-20.0292,-13.245,175,75
2026-05-11 17:50:53.911,2,-0.83,-0.79,-0.33,27.777199999999997,228.88080000000002,23.884999999999998,175,75
2026-05-11 17:50:53.911,2,-0.24,0.24,0.05,-26.242800000000003,-40.3292,12.725,175,75
2026-05-11 17:50:53.921,2,-0.29,0.16,-0.36,-64.4128,14.7908,-5.995,175,75
2026-05-11 17:50:53.933,2,-0.33,0.18,-0.33,-72.7028,14.000800000000002,-5.385,175,75
2026-05-11 17:50:53.944,2,-0.33,0.17,-0.29,-80.5128,9.180800000000001,-2.3949999999999996,175,75
2026-05-11 17:50:53.957,2,-0.34,0.12,-0.27,-89.53280000000001,2.410800000000002,3.215,175,75
2026-05-11 17:50:53.957,2,-0.34,0.03,-0.27,-92.5828,-1.549199999999999,7.424999999999999,175,75
2026-05-11 17:50:53.957,2,-0.32,-0.08,-0.3,-92.64280000000001,-6.249199999999999,11.444999999999999,175,75
2026-05-11 17:50:53.969,2,-0.26,-0.22,-0.29,-98.1928,-21.4292,15.345,175,75
2026-05-11 17:50:53.979,2,-0.21,-0.26,-0.31,-103.9928,-26.429199999999998,13.455,175,75
2026-05-11 17:50:53.979,2,-0.21,-0.29,-0.33,-108.86280000000001,-25.449199999999998,9.315,175,75
2026-05-11 17:50:53.992,2,-0.29,-0.34,-0.36,-114.9028,-19.4792,4.4350000000000005,175,75
2026-05-11 17:50:54.003,2,-0.37,-0.48,-0.38,-120.6928,-5.639199999999999,-2.2750000000000004,175,75
2026-05-11 17:50:54.003,2,-0.46,-0.69,-0.39,-127.5228,3.3908000000000005,-8.735,175,75
2026-05-11 17:50:54.022,2,-0.55,-0.96,-0.38,-136.3028,9.000800000000002,-15.565,175,75
2026-05-11 17:50:54.022,2,-0.66,-1.3,-0.35,-144.90279999999998,25.7708,-30.265,175,75
2026-05-11 17:50:54.040,2,-0.75,-1.59,-0.36,-143.3828,39.2408,-38.495,175,75
2026-05-11 17:50:54.040,2,-0.88,-1.73,-0.32,-131.5528,39.6108,-40.505,175,75
2026-05-11 17:50:54.053,2,-1.12,-1.77,-0.28,-102.95280000000001,24.610799999999998,-46.475,175,75
2026-05-11 17:50:54.053,2,-1.27,-1.62,-0.26,-81.1228,7.9608000000000025,-47.885000000000005,175,75
2026-05-11 17:50:54.065,2,-1.38,-1.43,-0.25,-65.8128,-11.549199999999999,-34.465,175,75
2026-05-11 17:50:54.114,2,-1.48,-1.65,-0.28,-76.1228,-111.11919999999999,9.805000000000001,175,75
2026-05-11 17:50:54.125,2,-1.43,-1.64,-0.38,-67.5828,-158.55919999999998,24.494999999999997,175,75
2026-05-11 17:50:54.136,2,-1.35,-1.3,-0.56,-31.612800000000004,-163.92919999999998,39.555,175,75
2026-05-11 17:50:54.147,2,-1.25,-0.94,-0.65,3.817199999999996,-108.9292,51.754999999999995,175,75
2026-05-11 17:50:54.158,2,-1.2,-0.63,-0.7,28.6972,-2.709199999999999,64.985,175,75
2026-05-11 17:50:54.159,2,-1.18,-0.41,-0.67,38.63719999999999,79.6108,74.435,175,75
2026-05-11 17:50:54.172,2,-1.09,-0.16,-0.52,46.8672,141.56080000000003,78.095,175,75
2026-05-11 17:50:54.172,2,-0.96,-0.0,-0.31,52.29719999999999,172.9008,81.265,175,75
2026-05-11 17:50:54.182,2,-0.79,0.2,-0.09,50.82719999999999,185.5808,83.035,175,75
2026-05-11 17:50:54.203,2,-0.67,0.39,0.09,42.5972,176.99079999999998,80.895,175,75
2026-05-11 17:50:54.223,2,-0.52,0.67,0.22,29.307199999999998,145.4608,78.27499999999999,175,75
2026-05-11 17:50:54.236,2,-0.41,0.92,0.26,15.217199999999995,93.8108,75.285,175,75
2026-05-11 17:50:54.317,2,-0.34,0.68,0.06,-30.022800000000004,14.910800000000002,71.565,175,75
2026-05-11 17:50:54.317,2,-0.39,0.47,0.05,-40.8828,37.3508,73.155,175,75
2026-05-11 17:50:54.330,2,-0.48,0.28,0.06,-42.162800000000004,67.6608,77.975,175,75
2026-05-11 17:50:54.373,2,-0.54,0.04,0.16,-34.842800000000004,98.2708,71.755,175,75
2026-05-11 17:50:54.406,2,-0.86,-1.32,-1.16,78.6972,275.2208,104.375,175,75
2026-05-11 17:50:54.406,2,-0.77,-1.52,-0.88,43.87719999999999,330.3408,135.655,175,75
2026-05-11 17:50:54.417,2,-0.59,-1.97,-0.59,20.3372,344.42080000000004,154.19500000000002,175,75
2026-05-11 17:50:54.440,2,-0.53,-1.66,0.27,2.777199999999997,0.6408000000000005,75.955,175,75
2026-05-11 17:50:54.450,2,-0.52,-1.36,0.2,26.077199999999994,-20.6392,63.215,175,75
2026-05-11 17:50:54.450,2,-0.37,-1.22,0.11,38.8172,-90.3292,46.324999999999996,175,75
2026-05-11 17:50:54.461,2,-0.27,-1.05,-0.03,23.387199999999996,-179.2892,33.455,175,75
2026-05-11 17:50:54.483,2,-0.32,-0.52,-0.52,-13.622800000000002,-224.1692,40.285,175,75
2026-05-11 17:50:54.483,2,-0.33,-0.32,-0.85,-7.092800000000004,-158.92919999999998,32.845,175,75
2026-05-11 17:50:54.508,2,-0.36,-0.23,-1.01,0.5871999999999993,143.2708,41.934999999999995,175,75
2026-05-11 17:50:54.518,2,-0.38,-0.12,-0.68,2.537199999999995,298.5708,51.265,175,75
2026-05-11 17:50:54.541,2,-0.4,-0.11,-0.04,10.767199999999999,358.0208,34.195,175,75
2026-05-11 17:50:54.541,2,-0.3,0.03,0.24,-0.2728000000000037,303.8808,23.155,175,75
2026-05-11 17:50:54.553,2,-0.17,0.24,0.36,-18.742800000000003,188.57080000000002,17.604999999999997,175,75
2026-05-11 17:50:54.564,2,-0.17,0.38,0.34,-31.182800000000004,104.7908,15.104999999999999,175,75
2026-05-11 17:50:54.575,2,-0.18,0.43,0.24,-35.4528,41.0108,12.915000000000001,175,75
2026-05-11 17:50:54.613,2,-0.17,0.41,0.14,-35.942800000000005,5.280800000000001,9.985000000000001,175,75
2026-05-11 17:50:54.643,2,-0.16,0.41,0.05,-35.7528,-15.6992,5.775,175,75
2026-05-11 17:50:54.654,2,-0.17,0.43,-0.03,-36.0628,-16.8592,2.665000000000001,175,75
2026-05-11 17:50:54.654,2,-0.23,0.49,-0.09,-39.7828,-13.559199999999999,4.375000000000002,175,75
2026-05-11 17:50:54.675,2,-0.14,0.42,-0.08,-53.9228,-16.3692,10.225,175,75
2026-05-11 17:50:54.699,2,-0.16,-0.08,-0.16,-72.0928,-39.4792,12.545,175,75
2026-05-11 17:50:54.737,2,-0.39,-1.54,-0.44,-108.56280000000001,-65.6392,-8.184999999999999,175,75
2026-05-11 17:50:54.737,2,-0.55,-2.12,-0.75,-99.0528,-50.2692,-12.025,175,75
2026-05-11 17:50:54.751,2,-0.86,-1.23,-1.03,61.197199999999995,135.4608,-15.865,175,75
2026-05-11 17:50:54.774,2,-0.93,-1.37,-0.88,19.857199999999995,112.9008,14.065,175,75
2026-05-11 17:50:54.774,2,-0.87,-1.65,-0.73,-17.342800000000004,62.050799999999995,19.005000000000003,175,75
2026-05-11 17:50:54.786,2,-0.75,-1.63,-0.69,-8.682800000000004,14.7908,15.595,175,75
2026-05-11 17:50:54.800,2,-0.71,-1.52,-0.69,8.507200000000001,-2.1591999999999993,11.205,175,75
2026-05-11 17:50:54.800,2,-0.75,-1.39,-0.8,14.7972,13.750800000000002,7.845000000000001,175,75
2026-05-11 17:50:54.829,2,-0.87,-1.12,-0.91,8.447199999999999,96.8608,7.665000000000001,175,75
2026-05-11 17:50:54.841,2,-0.66,-0.59,-0.41,12.107199999999995,142.7208,24.924999999999997,175,75
2026-05-11 17:50:54.864,2,-0.45,-0.31,-0.21,10.5872,118.1408,27.114999999999995,175,75
2026-05-11 17:50:54.883,2,-0.33,-0.05,-0.09,10.037199999999995,96.6808,27.665,175,75
2026-05-11 17:50:54.897,2,-0.24,0.26,-0.03,14.247199999999996,76.1908,24.434999999999995,175,75
2026-05-11 17:50:54.897,2,-0.17,0.52,-0.0,20.1572,54.2408,16.564999999999998,175,75
2026-05-11 17:50:54.936,2,-0.35,0.44,-0.21,-5.812800000000003,43.6908,-13.555,175,75
2026-05-11 17:50:54.956,2,-0.43,0.27,-0.31,-15.512800000000002,63.5108,-19.465,175,75
2026-05-11 17:50:54.980,2,-0.54,0.13,-0.35,-16.3628,107.0508,-23.795,175,75
2026-05-11 17:50:54.987,2,-0.63,0.02,-0.32,-14.532800000000002,149.06080000000003,-23.494999999999997,175,75
2026-05-11 17:50:55.019,2,-0.7,-0.05,-0.24,-13.622800000000002,183.51080000000002,-20.505000000000003,175,75
2026-05-11 17:50:55.035,2,-0.72,-0.13,-0.12,-10.022800000000004,207.17079999999999,-13.975,175,75
2026-05-11 17:50:55.060,2,-0.65,-0.25,0.08,3.327199999999994,181.19080000000002,7.604999999999999,175,75
2026-05-11 17:50:55.074,2,-0.55,-0.3,0.16,-4.962800000000001,92.7808,25.775,175,75
2026-05-11 17:50:55.074,2,-0.49,-0.25,0.15,-7.772800000000004,59.7308,31.384999999999998,175,75
2026-05-11 17:50:55.091,2,-0.44,-0.2,0.1,-6.362800000000004,29.8508,35.835,175,75
2026-05-11 17:50:55.225,2,-0.39,-0.07,0.0,-11.852800000000002,-37.3392,42.545,175,75
2026-05-11 17:50:55.225,2,-0.33,-0.08,-0.17,-36.9728,-119.1692,43.155,175,75
2026-05-11 17:50:55.235,2,-0.41,-0.58,-0.43,-72.0928,-187.5892,45.955,175,75
2026-05-11 17:50:55.238,2,-0.73,-1.92,-0.86,-115.0228,-194.2892,54.864999999999995,175,75
2026-05-11 17:50:55.285,2,-0.87,-1.93,-0.59,-44.412800000000004,118.63080000000001,113.885,175,75
2026-05-11 17:50:55.300,2,-0.5,-1.48,-0.58,-25.332800000000002,1.1308000000000007,93.155,175,75
2026-05-11 17:50:55.327,2,-0.41,-1.08,-0.66,5.827199999999994,-29.4792,101.875,175,75
2026-05-11 17:50:55.341,2,-0.39,-0.49,-0.63,-26.242800000000003,19.8508,88.455,175,75
2026-05-11 17:50:55.354,2,-0.41,-0.19,-0.52,-46.0628,51.0708,76.385,175,75
2026-05-11 17:50:55.384,2,-0.38,0.64,-0.27,-30.812800000000003,94.3608,42.975,175,75
2026-05-11 17:50:55.391,2,-0.36,0.88,-0.28,-24.472800000000003,82.4108,35.955,175,75
2026-05-11 17:50:55.403,2,-0.37,0.88,-0.27,-37.4028,77.8408,28.644999999999996,175,75
2026-05-11 17:50:55.403,2,-0.41,0.8,-0.28,-58.25280000000001,98.1408,21.695,175,75
2026-05-11 17:50:55.426,2,-0.44,0.71,-0.29,-68.86280000000001,117.7208,16.505000000000003,175,75
2026-05-11 17:50:55.426,2,-0.48,0.58,-0.28,-75.2028,132.3508,9.135,175,75
2026-05-11 17:50:55.426,2,-0.58,0.4,-0.26,-82.2228,149.9108,8.885,175,75
2026-05-11 17:50:55.438,2,-0.67,0.24,-0.25,-89.3528,152.9008,9.865,175,75
2026-05-11 17:50:55.459,2,-0.76,-0.29,-0.26,-103.50280000000001,122.2308,18.275,175,75
2026-05-11 17:50:55.470,2,-0.75,-1.19,-0.28,-104.17280000000001,90.4008,20.775,175,75
2026-05-11 17:50:55.484,2,-0.99,-1.94,-0.45,-73.4428,61.800799999999995,36.754999999999995,175,75
2026-05-11 17:50:55.494,2,-1.16,-1.91,-0.64,-25.5728,8.9408,46.324999999999996,175,75
2026-05-11 17:50:55.524,2,-0.86,-0.9,-0.58,54.18719999999999,-90.4492,91.635,175,75
2026-05-11 17:50:55.524,2,-0.8,-1.23,-0.61,18.7572,-145.2692,125.59499999999998,175,75
2026-05-11 17:50:55.558,2,-0.31,-1.43,-0.94,27.357199999999995,-61.7292,102.485,175,75
2026-05-11 17:50:55.612,2,-0.31,-1.13,-0.79,89.9172,39.9108,111.635,175,75
2026-05-11 17:50:55.620,2,-0.31,-1.03,-0.64,109.79719999999999,128.75080000000003,111.445,175,75
2026-05-11 17:50:55.630,2,-0.38,-0.93,-0.41,96.1972,203.63080000000002,103.765,175,75
2026-05-11 17:50:55.630,2,-0.38,-0.82,-0.17,71.07719999999999,227.6608,89.615,175,75
2026-05-11 17:50:55.642,2,-0.28,-0.71,-0.0,63.02719999999999,192.7808,81.995,175,75
2026-05-11 17:50:55.652,2,-0.2,-0.62,0.09,61.557199999999995,140.0308,75.595,175,75
2026-05-11 17:50:55.663,2,-0.12,-0.52,0.09,52.35719999999999,64.7308,64.315,175,75
2026-05-11 17:50:55.699,2,-0.1,-0.32,-0.12,28.147199999999994,29.0608,48.035,175,75
2026-05-11 17:50:55.713,2,-0.17,0.15,-0.12,7.4772,180.2208,39.315,175,75
2026-05-11 17:50:55.732,2,-0.02,0.29,0.42,-18.192800000000002,196.13080000000002,29.735,175,75
2026-05-11 17:50:55.768,2,0.24,0.5,0.8,-36.302800000000005,-17.4692,7.0550000000000015,175,75
2026-05-11 17:50:55.830,2,0.16,0.25,0.32,-64.2328,-199.6592,-31.665,175,75
2026-05-11 17:50:55.841,2,0.06,0.14,0.14,-59.842800000000004,-217.7692,-40.745,175,75
2026-05-11 17:50:55.841,2,0.0,0.03,-0.03,-55.022800000000004,-225.2092,-48.245000000000005,175,75
2026-05-11 17:50:55.860,2,-0.12,-0.49,-0.22,-37.342800000000004,-227.1592,-65.865,175,75
2026-05-11 17:50:55.872,2,-0.11,-1.14,-0.29,-30.452800000000003,-262.5292,-89.715,175,75
2026-05-11 17:50:55.894,2,-0.25,-1.8,-0.48,-31.182800000000004,-293.6192,-103.495,175,75
2026-05-11 17:50:55.894,2,-0.57,-2.47,-0.93,-23.382800000000003,-312.0392,-105.745,175,75
2026-05-11 17:50:55.908,2,-1.08,-3.08,-1.43,1.2571999999999974,-289.2292,-116.965,175,75
2026-05-11 17:50:55.983,2,-1.4,-1.32,-1.51,93.32719999999999,-123.9292,-95.44500000000001,175,75
2026-05-11 17:50:56.017,2,-1.44,-1.91,-1.49,-4.172800000000002,-88.5592,-69.585,175,75
2026-05-11 17:50:56.028,2,-1.63,-1.78,-1.47,19.307199999999998,-35.3892,-57.575,175,75
2026-05-11 17:50:56.055,2,-0.85,0.53,-0.62,-0.20280000000000342,-94.8392,-27.515,175,75
2026-05-11 17:50:56.068,2,-0.96,0.88,-0.74,-11.552800000000001,-23.379199999999997,-28.244999999999997,175,75
2026-05-11 17:50:56.098,2,-1.15,0.39,-0.72,-55.272800000000004,159.30079999999998,-23.555,175,75
2026-05-11 17:50:56.138,2,-1.15,-0.11,-0.02,-5.812800000000003,379.61080000000004,10.475,175,75
2026-05-11 17:50:56.195,2,-1.06,-0.16,0.22,11.747199999999996,354.06080000000003,17.665,175,75
2026-05-11 17:50:56.308,2,-0.73,-0.26,0.14,-2.342800000000004,154.06080000000003,21.695,175,75
2026-05-11 17:50:56.331,2,-0.71,-0.21,-0.14,5.467199999999995,170.8308,37.975,175,75
2026-05-11 17:50:56.331,2,-0.69,-0.16,-0.17,2.2272,218.94080000000002,49.434999999999995,175,75
2026-05-11 17:50:56.336,2,-0.67,-0.11,-0.05,-13.622800000000002,254.49080000000004,60.77499999999999,175,75
2026-05-11 17:50:56.362,2,-0.19,0.09,0.46,-81.9728,79.9708,80.16499999999999,175,75
2026-05-11 17:50:56.374,2,-0.0,-0.6,0.42,-88.1928,31.800800000000002,91.385,175,75
2026-05-11 17:50:56.374,2,0.14,-1.33,0.46,-91.9128,-0.6391999999999989,74.495,175,75
2026-05-11 17:50:56.489,2,-0.18,-1.59,-0.51,65.3372,-172.5892,-28.854999999999997,175,75
2026-05-11 17:50:56.529,2,-0.85,-0.2,-1.25,51.8672,70.3408,-13.125,175,75
2026-05-11 17:50:56.536,2,-0.43,1.19,-1.11,-32.7028,40.9508,-23.975,175,75
2026-05-11 17:50:56.579,2,-0.79,0.17,-0.7,-100.39280000000001,84.9708,-25.564999999999998,175,75
2026-05-11 17:50:56.608,2,-1.41,-0.88,-0.82,-143.0728,0.7708000000000013,-10.015,175,75
2026-05-11 17:50:56.633,2,-1.65,-2.23,-0.71,-139.5328,86.6208,41.635,175,75
2026-05-11 17:50:56.665,2,-1.3,-0.71,-0.57,-87.5228,-131.6092,115.655,175,75
2026-05-11 17:50:56.681,2,-1.1,-2.14,-0.98,-69.9028,-19.839199999999998,147.54500000000002,175,75
2026-05-11 17:50:56.694,2,-0.74,-2.2,-0.84,-1.3628000000000036,98.9408,159.675,175,75
2026-05-11 17:50:56.714,2,-0.43,-1.74,-0.5,30.527199999999997,159.42079999999999,154.735,175,75
2026-05-11 17:50:56.717,2,-0.18,-1.39,-0.27,17.4772,179.9108,148.88500000000002,175,75
2026-05-11 17:50:56.731,2,-0.03,-1.18,-0.18,7.9072,186.74079999999998,138.94500000000002,175,75
2026-05-11 17:50:56.755,2,0.4,-0.64,0.36,69.1172,289.49080000000004,105.41499999999999,175,75
2026-05-11 17:50:56.782,2,0.49,-0.43,0.67,64.48719999999999,178.94080000000002,54.375,175,75
2026-05-11 17:50:56.788,2,0.54,-0.11,0.46,28.387199999999996,39.3008,10.475,175,75
2026-05-11 17:50:56.788,2,0.4,0.15,0.21,10.277199999999997,7.8408000000000015,-7.515,175,75
2026-05-11 17:50:56.800,2,0.33,0.38,0.12,-3.012800000000002,13.390800000000002,-13.305,175,75
2026-05-11 17:50:56.827,2,0.21,0.56,0.11,-18.922800000000002,68.5708,-16.175,175,75
2026-05-11 17:50:56.833,2,0.14,0.45,0.18,-27.702800000000003,92.7208,-18.675,175,75
2026-05-11 17:50:56.842,2,0.09,0.31,0.26,-32.8928,100.2208,-22.695,175,75
2026-05-11 17:50:56.860,2,0.04,0.13,0.36,-40.7528,47.6008,-35.015,175,75
2026-05-11 17:50:56.871,2,-0.01,0.04,0.25,-57.22280000000001,-4.359199999999999,-44.835,175,75
2026-05-11 17:50:56.871,2,-0.07,-0.1,0.06,-72.4028,-33.6892,-52.085,175,75
2026-05-11 17:50:56.882,2,-0.24,-0.35,-0.2,-91.7328,-53.6792,-57.215,175,75
2026-05-11 17:50:56.894,2,-0.5,-0.68,-0.45,-102.5828,-28.0092,-56.725,175,75
2026-05-11 17:50:56.938,2,-1.18,-1.85,-0.72,-30.272800000000004,63.4508,-21.665,175,75
2026-05-11 17:50:56.952,2,-1.16,-2.12,-0.63,2.3571999999999953,18.4508,-23.975,175,75
2026-05-11 17:50:56.956,2,-0.98,-1.81,-0.53,14.427199999999996,-62.3992,-38.185,175,75
2026-05-11 17:50:56.972,2,-0.78,-1.18,-0.56,22.597199999999997,-180.93919999999997,-47.825,175,75
2026-05-11 17:50:56.972,2,-0.93,-0.9,-0.97,35.40719999999999,-275.50919999999996,-35.805,175,75
2026-05-11 17:50:56.995,2,-1.22,-1.29,-1.47,33.87719999999999,-324.2892,-16.605,175,75
2026-05-11 17:50:57.005,2,-1.27,-1.79,-1.64,4.917199999999998,-275.1492,-17.275,175,75
2026-05-11 17:50:57.016,2,-1.11,-1.96,-1.69,-16.1828,-134.2292,-23.555,175,75
2026-05-11 17:50:57.035,2,-1.14,-1.57,-1.74,11.257200000000001,21.800800000000002,-13.855,175,75
2026-05-11 17:50:57.042,2,-0.82,-1.33,-1.34,56.3172,186.25080000000003,-0.4450000000000003,175,75
2026-05-11 17:50:57.042,2,-0.69,-1.17,-1.0,66.43719999999999,241.62079999999997,24.555,175,75
2026-05-11 17:50:57.067,2,-0.5,-1.04,-0.64,48.93719999999999,205.5208,25.595,175,75
2026-05-11 17:50:57.077,2,-0.23,-0.84,-0.42,24.1172,120.16080000000001,23.525,175,75
2026-05-11 17:50:57.088,2,-0.16,-0.6,-0.41,15.887199999999996,60.580799999999996,21.695,175,75
2026-05-11 17:50:57.089,2,-0.17,-0.26,-0.48,19.1172,26.0708,14.135,175,75
2026-05-11 17:50:57.101,2,-0.22,0.18,-0.51,25.467199999999995,38.7508,6.205,175,75
2026-05-11 17:50:57.123,2,-0.26,0.63,-0.44,27.357199999999995,80.5808,1.5649999999999995,175,75
2026-05-11 17:50:57.166,2,-0.41,0.92,-0.18,26.6872,151.80079999999998,-6.6049999999999995,175,75
2026-05-11 17:50:57.203,2,-0.62,0.07,-0.23,27.6572,94.0008,-6.235,175,75
2026-05-11 17:50:57.216,2,-0.58,-0.15,-0.36,20.5872,56.190799999999996,-8.675,175,75
2026-05-11 17:50:57.216,2,-0.56,-0.31,-0.48,8.997199999999996,48.8208,-7.885,175,75
2026-05-11 17:50:57.228,2,-0.52,-0.45,-0.57,-9.172800000000002,88.63080000000001,-3.9749999999999996,175,75
2026-05-11 17:50:57.231,2,-0.47,-0.47,-0.49,-8.622800000000002,210.8908,12.485000000000001,175,75
2026-05-11 17:50:57.254,2,-0.43,-0.48,-0.29,-2.8328000000000024,250.6408,20.165,175,75
2026-05-11 17:50:57.282,2,-0.12,-0.06,0.11,-28.5028,160.0308,26.754999999999995,175,75
2026-05-11 17:50:57.292,2,-0.06,0.09,0.15,-36.1828,111.6808,29.375,175,75
2026-05-11 17:50:57.306,2,0.04,0.2,0.19,-44.3528,65.9508,28.095,175,75
2026-05-11 17:50:57.323,2,0.22,-0.08,0.2,-65.5728,-68.0792,1.6349999999999998,175,75
2026-05-11 17:50:57.347,2,0.15,-0.37,0.12,-71.36280000000001,-123.3792,-10.015,175,75
2026-05-11 17:50:57.385,2,-0.31,-1.24,-0.35,-78.3128,-235.93919999999997,-17.575,175,75
2026-05-11 17:50:57.397,2,-0.57,-1.59,-0.62,-84.3528,-250.69920000000002,-14.045,175,75
2026-05-11 17:50:57.429,2,-0.78,-1.93,-0.95,-89.0528,-224.3592,-9.655,175,75
2026-05-11 17:50:57.441,2,-1.09,-1.91,-1.33,-73.92280000000001,-106.6092,-6.545,175,75
2026-05-11 17:50:57.441,2,-1.14,-1.51,-1.41,-41.552800000000005,18.140800000000002,7.424999999999999,175,75
2026-05-11 17:50:57.479,2,-1.1,-1.5,-1.0,-29.352800000000002,163.51080000000002,57.605000000000004,175,75
2026-05-11 17:50:57.479,2,-0.95,-1.8,-0.76,-41.0028,195.0308,65.535,175,75
2026-05-11 17:50:57.502,2,-0.77,-1.88,-0.51,-38.0128,205.8308,68.035,175,75
2026-05-11 17:50:57.520,2,-0.48,-1.36,-0.3,-1.0028000000000041,182.3508,62.91499999999999,175,75
2026-05-11 17:50:57.533,2,-0.53,-1.02,-0.3,10.3372,179.42079999999999,58.825,175,75
2026-05-11 17:50:57.544,2,-0.58,-0.67,-0.33,11.497199999999996,179.30079999999998,57.114999999999995,175,75
2026-05-11 17:50:57.544,2,-0.59,-0.36,-0.27,7.0472,181.68079999999998,55.77499999999999,175,75
2026-05-11 17:50:57.561,2,-0.56,-0.09,-0.16,-0.9428000000000019,174.12079999999997,55.41499999999999,175,75
2026-05-11 17:50:57.565,2,-0.52,0.09,-0.08,-8.922800000000002,153.0208,53.52499999999999,175,75
2026-05-11 17:50:57.582,2,-0.37,0.52,0.08,-27.4628,65.4008,51.635,175,75
2026-05-11 17:50:57.599,2,-0.32,0.87,0.07,-37.0328,2.530800000000001,50.714999999999996,175,75
2026-05-11 17:50:57.621,2,-0.37,0.83,0.02,-41.6728,-5.149199999999999,49.864999999999995,175,75
2026-05-11 17:50:57.656,2,-0.45,0.51,0.02,-56.61280000000001,8.450800000000001,42.485,175,75
2026-05-11 17:50:57.696,2,-0.73,0.17,-0.09,-58.192800000000005,-12.8292,43.765,175,75
2026-05-11 17:50:57.805,2,-1.11,-1.03,-0.53,-51.7328,-13.9892,68.455,175,75
2026-05-11 17:50:57.861,2,-1.16,-1.98,-0.91,-24.352800000000002,-22.7092,49.735,175,75
2026-05-11 17:50:57.861,2,-1.05,-1.86,-1.04,-0.7528000000000041,1.1308000000000007,41.205,175,75
2026-05-11 17:50:57.926,2,-0.84,-1.49,-1.06,19.667199999999998,30.580800000000004,47.485,175,75
2026-05-11 17:50:58.008,2,-0.11,-1.09,-0.65,12.9072,-68.7492,66.02499999999999,175,75
2026-05-11 17:50:58.021,2,-0.2,-0.35,-0.76,68.7572,187.2308,62.175,175,75
2026-05-11 17:50:58.077,2,0.13,0.05,0.13,-47.092800000000004,2.7208000000000006,-25.384999999999998,175,75
2026-05-11 17:50:58.090,2,0.13,-0.12,0.1,-46.1828,-5.999199999999999,-32.395,175,75
2026-05-11 17:50:58.090,2,0.1,-0.35,0.06,-45.272800000000004,-21.489199999999997,-41.785,175,75
2026-05-11 17:50:58.119,2,-0.22,-1.2,-0.28,-39.9628,-84.5392,-60.745000000000005,175,75
2026-05-11 17:50:58.119,2,-0.47,-1.83,-0.6,-39.1128,-121.7292,-56.295,175,75
2026-05-11 17:50:58.133,2,-0.75,-2.5,-1.0,-40.3928,-128.07920000000001,-47.085,175,75
2026-05-11 17:50:58.148,2,-1.19,-2.64,-1.52,-15.142800000000003,-68.00919999999999,-54.105000000000004,175,75
2026-05-11 17:50:58.148,2,-1.18,-1.75,-1.77,53.447199999999995,4.420800000000002,-79.715,175,75
2026-05-11 17:50:58.182,2,-0.62,-1.22,-1.24,59.1172,53.3908,-5.325,175,75
2026-05-11 17:50:58.211,2,-0.47,-1.67,-1.03,-15.202800000000002,69.5508,-8.795,175,75
2026-05-11 17:50:58.223,2,-0.35,-1.75,-0.94,-20.5728,59.6708,-19.895,175,75
2026-05-11 17:50:58.223,2,-0.38,-1.62,-0.89,14.307199999999998,49.2408,-23.125,175,75
2026-05-11 17:50:58.237,2,-0.5,-1.42,-0.92,43.63719999999999,41.0708,-22.884999999999998,175,75
2026-05-11 17:50:58.270,2,-0.71,-0.89,-0.95,24.667199999999998,72.2308,-15.385,175,75
2026-05-11 17:50:58.286,2,-0.46,-0.58,-0.85,13.327199999999994,99.0608,-8.675,175,75
2026-05-11 17:50:58.313,2,-0.36,-0.45,-0.8,20.5872,97.7808,-9.775,175,75
2026-05-11 17:50:58.359,2,-0.28,-0.23,-0.73,29.5472,105.8908,-12.945,175,75
2026-05-11 17:50:58.386,2,-0.28,0.09,-0.68,32.227199999999996,122.96079999999999,-15.805,175,75
2026-05-11 17:50:58.402,2,-0.36,0.42,-0.56,10.467199999999995,160.7708,-26.175,175,75
2026-05-11 17:50:58.402,2,-0.43,0.51,-0.46,-16.672800000000002,199.7908,-31.545,175,75
2026-05-11 17:50:58.430,2,-0.48,0.42,-0.37,-25.812800000000003,228.94080000000002,-34.045,175,75
2026-05-11 17:50:58.434,2,-0.46,0.19,-0.28,-18.132800000000003,242.2308,-37.575,175,75
2026-05-11 17:50:58.445,2,-0.46,-0.07,-0.09,-18.6228,222.6008,-44.585,175,75
2026-05-11 17:50:58.445,2,-0.5,-0.17,-0.07,-18.5028,227.3508,-37.155,175,75
2026-05-11 17:50:58.456,2,-0.44,-0.25,-0.04,-10.692800000000002,224.49079999999998,-24.955,175,75
2026-05-11 17:50:58.477,2,-0.32,-0.38,-0.04,-15.082800000000002,205.1608,-16.965,175,75
2026-05-11 17:50:58.477,2,-0.28,-0.35,-0.09,-13.922800000000002,193.75080000000003,-15.135,175,75
2026-05-11 17:50:58.490,2,-0.16,-0.14,-0.05,-19.7828,167.8408,-6.235,175,75
2026-05-11 17:50:58.505,2,-0.06,-0.16,0.07,-30.752800000000004,150.1008,-7.335,175,75
2026-05-11 17:50:58.519,2,0.04,-0.4,0.18,-44.2928,107.5308,-11.965,175,75
2026-05-11 17:50:58.583,2,-0.21,-1.36,-0.61,-81.1828,-171.54919999999998,-17.085,175,75
2026-05-11 17:50:58.601,2,-0.3,-1.47,-0.8,-63.3828,-54.1692,4.3149999999999995,175,75
2026-05-11 17:50:58.601,2,-0.35,-1.6,-0.78,-54.47280000000001,10.160800000000002,16.814999999999998,175,75
2026-05-11 17:50:58.601,2,-0.38,-1.76,-0.74,-50.4528,64.0608,29.375,175,75
2026-05-11 17:50:58.612,2,-0.36,-1.9,-0.65,-51.00280000000001,100.7708,37.055,175,75
2026-05-11 17:50:58.622,2,-0.31,-1.88,-0.55,-49.052800000000005,128.0208,39.675,175,75
2026-05-11 17:50:58.664,2,-0.14,-0.93,-0.19,-18.562800000000003,180.7708,46.934999999999995,175,75
2026-05-11 17:50:58.696,2,-0.12,-0.1,-0.15,-21.6128,181.80079999999998,39.195,175,75
2026-05-11 17:50:58.764,2,0.17,0.95,0.28,-65.8128,166.44080000000002,-28.435000000000002,175,75
2026-05-11 17:50:58.774,2,0.19,0.42,0.26,-63.192800000000005,105.8308,-40.195,175,75
2026-05-11 17:50:58.774,2,0.17,-0.07,0.07,-56.1228,29.910800000000002,-64.835,175,75
2026-05-11 17:50:58.801,2,0.2,-0.58,-0.25,-59.9028,-20.3892,-74.285,175,75
2026-05-11 17:50:58.801,2,0.17,-0.78,-0.38,-56.2428,-21.5492,-72.02499999999999,175,75
2026-05-11 17:50:58.835,2,-0.06,-1.04,-0.58,-48.1328,3.8808000000000007,-58.305,175,75
2026-05-11 17:50:58.835,2,-0.14,-1.47,-0.73,-40.8128,42.5308,-44.835,175,75
2026-05-11 17:50:58.845,2,-0.18,-1.88,-0.82,-36.3628,81.0108,-37.275,175,75
2026-05-11 17:50:58.857,2,-0.23,-1.58,-0.81,-18.562800000000003,132.7808,-32.765,175,75
2026-05-11 17:50:58.868,2,-0.16,-1.1,-0.66,-8.192800000000002,169.24079999999998,-16.965,175,75
2026-05-11 17:50:58.879,2,-0.12,-0.87,-0.43,-24.662800000000004,176.56080000000003,8.395000000000001,175,75
2026-05-11 17:50:58.890,2,-0.06,-1.16,-0.23,-56.912800000000004,163.0208,21.564999999999998,175,75
2026-05-11 17:50:58.914,2,0.13,-1.72,-0.06,-90.39280000000001,74.49080000000001,33.765,175,75
2026-05-11 17:50:58.946,2,0.15,-1.14,-0.19,-56.97280000000001,-35.6392,53.215,175,75
2026-05-11 17:50:58.957,2,0.16,-1.0,-0.34,-56.7928,-28.4392,59.80499999999999,175,75
2026-05-11 17:50:58.970,2,0.18,-0.83,-0.41,-50.4528,46.5608,67.05499999999999,175,75
2026-05-11 17:50:59.010,2,0.11,-0.59,0.01,-45.022800000000004,179.67079999999999,58.455,175,75
2026-05-11 17:50:59.010,2,0.1,-0.38,0.22,-38.192800000000005,183.0208,54.985,175,75
2026-05-11 17:50:59.021,2,0.1,-0.18,0.33,-35.3928,154.18079999999998,50.655,175,75
2026-05-11 17:50:59.074,2,-0.07,0.16,0.32,-33.012800000000006,74.24080000000001,20.045,175,75
2026-05-11 17:50:59.097,2,-0.08,0.22,0.33,-35.8128,83.6908,14.194999999999999,175,75
2026-05-11 17:50:59.120,2,-0.1,0.27,0.38,-35.332800000000006,98.63080000000001,7.725,175,75
2026-05-11 17:50:59.131,2,-0.1,0.31,0.47,-33.2528,95.8308,0.22499999999999964,175,75
2026-05-11 17:50:59.140,2,-0.08,0.46,0.56,-32.832800000000006,49.6108,-11.785,175,75
2026-05-11 17:50:59.153,2,-0.06,0.51,0.48,-43.8628,-14.969199999999999,-27.765,175,75
2026-05-11 17:50:59.170,2,-0.06,0.44,0.4,-43.9928,-25.2092,-35.505,175,75
2026-05-11 17:50:59.187,2,-0.05,0.35,0.35,-45.7528,-32.2192,-39.895,175,75
2026-05-11 17:50:59.187,2,-0.04,0.17,0.34,-49.47280000000001,-34.0492,-42.575,175,75
2026-05-11 17:50:59.195,2,0.05,-0.18,0.33,-51.7928,-46.6692,-45.135000000000005,175,75
2026-05-11 17:50:59.247,2,0.05,-1.43,-0.05,-22.832800000000002,-123.7492,-40.995,175,75
2026-05-11 17:50:59.259,2,0.03,-2.14,-0.4,5.947199999999999,-99.8392,-24.955,175,75
2026-05-11 17:50:59.272,2,0.11,-1.55,-0.56,46.807199999999995,-27.949199999999998,-20.935000000000002,175,75
2026-05-11 17:50:59.303,2,0.15,-1.28,-0.42,40.15719999999999,4.910800000000002,-4.285,175,75
2026-05-11 17:50:59.317,2,0.13,-1.71,-0.35,-5.452800000000003,2.410800000000002,5.345000000000001,175,75
2026-05-11 17:50:59.317,2,0.11,-2.08,-0.43,-30.452800000000003,-12.159199999999998,9.435,175,75
2026-05-11 17:50:59.317,2,0.09,-2.19,-0.54,-26.792800000000003,-18.8692,13.034999999999998,175,75
2026-05-11 17:50:59.345,2,0.14,-1.94,-0.59,5.037199999999995,-2.889199999999999,18.884999999999998,175,75
2026-05-11 17:50:59.603,2,0.23,0.43,0.5,-14.902800000000003,103.4508,-15.625,175,75
2026-05-11 17:50:59.628,2,0.08,0.07,0.53,-32.2828,-123.7492,-61.905,175,75
2026-05-11 17:50:59.628,2,0.08,-0.04,0.41,-34.7228,-147.7092,-66.05499999999999,175,75
2026-05-11 17:50:59.639,2,0.12,-0.23,0.28,-37.8928,-153.98919999999998,-70.935,175,75
2026-05-11 17:50:59.691,2,-0.14,-1.48,-0.26,-22.102800000000002,-91.8592,-67.515,175,75
2026-05-11 17:50:59.703,2,-0.2,-1.42,-0.43,-12.522800000000004,-38.7492,-61.475,175,75
2026-05-11 17:50:59.704,2,-0.19,-1.1,-0.45,-3.382800000000003,12.960800000000003,-57.155,175,75
2026-05-11 17:50:59.751,2,-0.4,-1.56,-0.22,-42.162800000000004,-29.0492,26.994999999999997,175,75
2026-05-11 17:50:59.770,2,-0.31,-0.78,-0.06,-45.8128,-75.8792,65.595,175,75
2026-05-11 17:50:59.782,2,-0.31,-0.62,-0.07,-56.552800000000005,-97.8292,72.05499999999999,175,75
2026-05-11 17:50:59.782,2,-0.23,-0.41,-0.14,-57.6428,-133.07920000000001,70.835,175,75
2026-05-11 17:50:59.793,2,-0.12,-0.16,-0.25,-50.75280000000001,-147.88920000000002,64.135,175,75
2026-05-11 17:50:59.840,2,0.0,0.71,-0.56,-55.942800000000005,-81.4892,49.195,175,75
2026-05-11 17:50:59.864,2,0.09,0.99,-0.48,-54.1728,150.8908,37.175,175,75
2026-05-11 17:50:59.864,2,0.19,0.59,-0.16,-39.412800000000004,210.0308,28.945,175,75
2026-05-11 17:50:59.864,2,0.14,0.32,0.17,-40.082800000000006,190.0308,9.924999999999999,175,75
2026-05-11 17:50:59.875,2,0.08,0.23,0.28,-46.7928,153.69080000000002,-2.334999999999999,175,75
2026-05-11 17:50:59.875,2,0.14,0.09,0.33,-47.522800000000004,108.6908,-13.004999999999999,175,75
2026-05-11 17:50:59.920,2,0.17,-0.98,0.18,-28.6228,-28.8092,-29.955,175,75
2026-05-11 17:50:59.932,2,0.18,-1.28,0.04,-37.7028,-71.7892,-25.625,175,75
2026-05-11 17:50:59.932,2,0.16,-1.74,-0.14,-62.64280000000001,-128.5592,-24.105,175,75
2026-05-11 17:50:59.953,2,0.22,-1.53,-0.47,-65.5128,-61.3092,-25.195,175,75
2026-05-11 17:50:59.960,2,0.25,-0.83,-0.19,-42.8928,33.2108,-4.585,175,75
2026-05-11 17:50:59.999,2,0.09,-2.05,-0.15,-58.192800000000005,5.6408000000000005,14.495,175,75
2026-05-11 17:50:59.999,2,0.07,-2.41,-0.31,-34.7828,-8.6192,25.475,175,75
2026-05-11 17:51:00.008,2,0.08,-2.08,-0.4,19.487199999999998,19.2408,35.345,175,75
2026-05-11 17:51:00.224,2,0.25,-0.95,-0.31,8.997199999999996,9.180800000000001,37.364999999999995,175,75
2026-05-11 17:51:00.224,2,0.21,-0.8,-0.31,-7.522800000000004,27.290800000000004,31.814999999999998,175,75
2026-05-11 17:51:00.224,2,0.15,-0.58,-0.24,-16.1228,48.0208,28.214999999999996,175,75
2026-05-11 17:51:00.224,2,0.09,-0.32,-0.11,-19.7828,63.4508,26.384999999999998,175,75
2026-05-11 17:51:00.257,2,0.04,0.08,0.18,-28.442800000000002,52.5308,19.674999999999997,175,75
2026-05-11 17:51:00.283,2,0.03,0.18,0.29,-31.972800000000003,25.6408,13.395000000000001,175,75
2026-05-11 17:51:00.377,2,-0.01,0.42,0.34,-38.0128,-64.5992,-47.575,175,75
2026-05-11 17:51:00.381,2,-0.0,0.33,0.26,-38.5028,-87.5292,-52.025,175,75
2026-05-11 17:51:00.438,2,-0.05,-1.76,-0.44,-12.032800000000002,-98.8092,-72.155,175,75
2026-05-11 17:51:00.473,2,0.0,-1.57,-0.29,26.4372,63.5108,-42.885,175,75
2026-05-11 17:51:00.486,2,-0.07,-1.87,-0.2,2.6571999999999996,14.9708,-32.215,175,75
2026-05-11 17:51:00.497,2,-0.14,-2.13,-0.31,-8.312800000000003,-34.0492,-22.765,175,75
2026-05-11 17:51:00.630,2,-0.02,-0.07,0.15,-11.792800000000003,109.49080000000001,28.034999999999997,175,75
2026-05-11 17:51:00.641,2,0.04,-0.03,0.2,-7.952800000000003,81.1908,24.134999999999998,175,75
2026-05-11 17:51:00.641,2,0.09,0.1,0.23,-6.302800000000001,63.080799999999996,20.655,175,75
2026-05-11 17:51:00.653,2,0.08,0.24,0.23,-7.282800000000002,50.5808,14.735000000000001,175,75
2026-05-11 17:51:00.664,2,0.03,0.34,0.21,-13.622800000000002,39.0008,5.715000000000002,175,75
2026-05-11 17:51:00.676,2,-0.03,0.35,0.19,-22.2828,30.5208,-1.3550000000000004,175,75
2026-05-11 17:51:00.688,2,-0.11,0.16,0.21,-36.912800000000004,-0.26919999999999966,-16.605,175,75
2026-05-11 17:51:00.699,2,-0.1,0.19,0.25,-42.832800000000006,-13.2592,-20.384999999999998,175,75
2026-05-11 17:51:00.709,2,-0.1,0.27,0.26,-48.0128,-30.2092,-23.675,175,75
2026-05-11 17:51:00.719,2,-0.14,0.32,0.25,-49.9028,-47.5892,-26.785,175,75
2026-05-11 17:51:00.719,2,-0.15,0.31,0.22,-49.3528,-58.9292,-29.045,175,75
2026-05-11 17:51:00.742,2,-0.18,-0.18,0.17,-45.8828,-85.4492,-29.585,175,75
2026-05-11 17:51:00.755,2,-0.17,-0.5,0.19,-47.6428,-101.9792,-28.555,175,75
2026-05-11 17:51:00.765,2,-0.23,-1.99,-0.12,-58.9228,-215.50920000000002,-24.525,175,75
2026-05-11 17:51:00.765,2,-0.29,-1.89,-0.46,-47.832800000000006,-211.42919999999998,-27.085,175,75
2026-05-11 17:51:00.793,2,-0.22,-1.31,-0.64,-26.672800000000002,-137.1592,-23.915,175,75
2026-05-11 17:51:00.804,2,-0.27,-1.12,-0.64,-16.552800000000005,-27.2792,8.455,175,75
2026-05-11 17:51:00.817,2,-0.36,-1.47,-0.61,-21.852800000000002,43.4508,24.195,175,75
2026-05-11 17:51:00.817,2,-0.42,-2.04,-0.53,-23.442800000000002,109.9708,41.635,175,75
2026-05-11 17:51:00.827,2,-0.39,-2.38,-0.46,-12.642800000000001,134.67079999999999,52.91499999999999,175,75
2026-05-11 17:51:00.838,2,-0.28,-2.06,-0.3,12.967199999999995,132.6608,51.324999999999996,175,75
2026-05-11 17:51:00.852,2,-0.11,-1.54,-0.15,23.5072,116.6208,53.215,175,75
2026-05-11 17:51:00.852,2,0.01,-1.01,-0.02,15.647199999999994,93.5708,65.955,175,75
2026-05-11 17:51:00.863,2,-0.02,-0.68,0.01,0.4671999999999983,60.400800000000004,66.205,175,75
2026-05-11 17:51:00.888,2,-0.04,-0.49,0.02,-8.682800000000004,28.690800000000003,60.894999999999996,175,75
2026-05-11 17:51:00.888,2,-0.04,-0.28,-0.01,-10.142800000000001,2.9608000000000008,54.80499999999999,175,75
2026-05-11 17:51:00.907,2,-0.03,-0.01,-0.05,-9.052800000000001,-18.1392,47.605,175,75
2026-05-11 17:51:00.915,2,0.01,0.39,-0.15,-10.142800000000001,-33.6192,39.675,175,75
2026-05-11 17:51:00.929,2,0.08,0.8,-0.24,-22.6428,-24.5392,31.205,175,75
2026-05-11 17:51:00.941,2,0.14,0.96,-0.26,-40.8828,21.4408,23.155,175,75
2026-05-11 17:51:00.966,2,0.2,0.38,0.05,-30.632800000000003,80.8908,-4.955,175,75
2026-05-11 17:51:00.990,2,0.1,0.05,-0.02,-31.1228,44.970800000000004,-22.575,175,75
2026-05-11 17:51:01.008,2,0.1,-0.12,-0.08,-27.702800000000003,41.4408,-22.215,175,75
2026-05-11 17:51:01.015,2,0.14,-0.4,-0.09,-24.662800000000004,39.4908,-23.244999999999997,175,75
2026-05-11 17:51:01.038,2,0.18,-1.35,-0.1,-18.442800000000002,30.6408,-23.365000000000002,175,75
2026-05-11 17:51:01.051,2,0.11,-1.84,-0.28,-3.252800000000004,27.9608,-13.125,175,75
2026-05-11 17:51:01.075,2,0.14,-1.12,-0.14,-23.992800000000003,69.7908,-7.335,175,75
2026-05-11 17:51:01.092,2,0.06,-1.36,0.01,-57.22280000000001,79.3608,23.034999999999997,175,75
2026-05-11 17:51:01.126,2,0.0,-1.98,0.02,-77.1628,70.4608,33.214999999999996,175,75
2026-05-11 17:51:01.126,2,-0.01,-2.23,0.02,-80.5728,67.2908,36.504999999999995,175,75
2026-05-11 17:51:01.140,2,0.0,-2.13,0.05,-68.9928,63.4508,36.635,175,75
2026-05-11 17:51:01.140,2,0.07,-1.69,0.15,-51.2428,57.410799999999995,35.894999999999996,175,75
2026-05-11 17:51:01.149,2,0.1,-1.28,0.29,-47.772800000000004,43.8208,42.915,175,75
2026-05-11 17:51:01.167,2,0.0,-0.94,0.29,-51.36280000000001,9.300800000000002,45.105,175,75
2026-05-11 17:51:01.177,2,-0.01,-0.71,0.22,-52.22280000000001,-36.1192,43.394999999999996,175,75
2026-05-11 17:51:01.197,2,-0.01,-0.52,0.11,-53.3828,-66.2492,43.455,175,75
2026-05-11 17:51:01.197,2,0.01,-0.38,0.03,-58.0128,-70.8792,42.785,175,75
2026-05-11 17:51:01.257,2,-0.01,-0.1,-0.03,-76.3028,-11.1192,34.614999999999995,175,75
2026-05-11 17:51:01.257,2,-0.04,-0.0,0.04,-78.0128,19.8508,30.595,175,75
2026-05-11 17:51:01.257,2,-0.04,0.11,0.17,-73.1328,44.3608,23.945,175,75
2026-05-11 17:51:01.279,2,-0.02,0.3,0.33,-63.312799999999996,40.220800000000004,13.455,175,75
2026-05-11 17:51:01.279,2,-0.03,0.4,0.39,-59.9028,22.6008,6.9350000000000005,175,75
2026-05-11 17:51:01.303,2,-0.03,0.45,0.42,-56.1228,-2.6491999999999987,-1.9049999999999994,175,75
2026-05-11 17:51:01.308,2,-0.01,0.46,0.44,-52.8928,-21.3692,-8.065,175,75
2026-05-11 17:51:01.338,2,-0.02,0.48,0.41,-47.342800000000004,-41.7892,-16.545,175,75
2026-05-11 17:51:01.357,2,-0.04,0.48,0.36,-40.6328,-58.3192,-24.955,175,75
2026-05-11 17:51:01.357,2,-0.06,0.43,0.28,-34.5328,-63.8092,-31.845,175,75
2026-05-11 17:51:01.357,2,-0.06,0.38,0.21,-29.292800000000003,-62.9492,-36.235,175,75
2026-05-11 17:51:01.367,2,-0.04,0.29,0.14,-22.4628,-56.4892,-40.935,175,75
2026-05-11 17:51:01.367,2,-0.03,0.17,0.11,-17.832800000000002,-46.5492,-45.075,175,75
2026-05-11 17:51:01.379,2,-0.06,-0.04,0.09,-13.992800000000003,-30.3292,-49.655,175,75
2026-05-11 17:51:01.390,2,-0.1,-0.37,0.08,-12.1628,-22.0992,-53.735,175,75
2026-05-11 17:51:01.405,2,-0.11,-0.7,0.06,-11.242800000000003,-22.3992,-55.265,175,75
2026-05-11 17:51:01.405,2,-0.14,-1.18,0.01,-7.462800000000001,-26.859199999999998,-53.125,175,75
2026-05-11 17:51:01.417,2,-0.17,-1.63,-0.06,0.03719999999999857,-21.7292,-48.615,175,75
2026-05-11 17:51:01.426,2,-0.26,-2.18,-0.21,16.6872,-0.6991999999999994,-39.655,175,75
2026-05-11 17:51:01.494,2,-0.35,-1.7,-0.02,83.0272,113.1408,-23.185000000000002,175,75
2026-05-11 17:51:01.494,2,-0.41,-1.97,0.08,71.07719999999999,99.49080000000001,3.764999999999999,175,75
2026-05-11 17:51:01.507,2,-0.43,-2.23,0.08,60.46719999999999,70.2808,9.615,175,75
2026-05-11 17:51:01.507,2,-0.42,-2.24,0.01,61.37719999999999,37.470800000000004,14.495,175,75
2026-05-11 17:51:01.514,2,-0.33,-1.94,-0.03,69.1172,6.500800000000002,21.205,175,75
2026-05-11 17:51:01.521,2,-0.14,-1.46,-0.03,67.2272,-19.1092,42.665,175,75
2026-05-11 17:51:01.532,2,-0.04,-1.27,-0.06,56.13719999999999,-15.5792,58.885000000000005,175,75
2026-05-11 17:51:01.539,2,0.05,-1.19,-0.05,47.837199999999996,3.1408000000000005,64.065,175,75
2026-05-11 17:51:01.557,2,0.1,-1.18,-0.01,47.5372,18.3308,61.935,175,75
2026-05-11 17:51:01.572,2,0.16,-1.13,0.06,48.7572,13.9408,51.935,175,75
2026-05-11 17:51:01.572,2,0.26,-1.03,0.08,48.447199999999995,-17.8892,37.665,175,75
2026-05-11 17:51:01.583,2,0.43,-0.82,0.04,38.26719999999999,-89.8392,15.834999999999999,175,75
2026-05-11 17:51:01.618,2,0.35,-0.31,-0.33,-2.222800000000003,-153.19920000000002,-12.395,175,75
2026-05-11 17:51:01.618,2,0.3,-0.32,-0.52,-16.732800000000005,-124.2292,-18.305,175,75
2026-05-11 17:51:01.638,2,0.23,-0.35,-0.66,-24.0528,-64.22919999999999,-18.125,175,75
2026-05-11 17:51:01.660,2,0.18,-0.17,-0.66,-10.332800000000002,79.9108,-10.445,175,75
2026-05-11 17:51:01.660,2,0.11,0.05,-0.49,-4.592800000000004,153.57080000000002,-1.1750000000000007,175,75
2026-05-11 17:51:01.671,2,0.08,0.24,-0.07,-11.492800000000003,215.7708,-1.6050000000000004,175,75
2026-05-11 17:51:01.697,2,0.08,0.05,0.27,-22.4628,180.5208,-16.415,175,75
2026-05-11 17:51:01.724,2,0.09,0.07,0.55,-22.832800000000002,60.160799999999995,-41.605,175,75
2026-05-11 17:51:01.734,2,0.07,0.17,0.57,-21.912800000000004,-11.429199999999998,-51.845,175,75
2026-05-11 17:51:01.761,2,-0.01,0.25,0.51,-25.332800000000002,-83.8092,-60.565000000000005,175,75
2026-05-11 17:51:01.771,2,-0.1,0.28,0.39,-32.832800000000006,-133.5592,-66.295,175,75
2026-05-11 17:51:01.771,2,-0.13,0.23,0.27,-40.8828,-161.7892,-72.515,175,75
2026-05-11 17:51:01.805,2,-0.17,-0.12,0.06,-55.5128,-165.0292,-76.545,175,75
2026-05-11 17:51:01.877,2,-0.38,-1.42,-0.26,-9.172800000000002,-38.6892,-62.945,175,75
2026-05-11 17:51:01.902,2,-0.34,-1.11,-0.21,-4.292800000000003,4.2408,-38.065,175,75
2026-05-11 17:51:01.913,2,-0.4,-1.49,-0.17,-35.8128,39.1208,-14.585,175,75
2026-05-11 17:51:01.913,2,-0.4,-1.84,-0.18,-52.6428,61.2508,-2.1549999999999994,175,75
2026-05-11 17:51:01.913,2,-0.36,-2.19,-0.17,-55.022800000000004,82.2908,12.055000000000001,175,75
2026-05-11 17:51:01.923,2,-0.33,-2.1,-0.14,-40.3928,108.0208,19.064999999999998,175,75
2026-05-11 17:51:01.948,2,-0.24,-1.43,0.0,-23.2528,133.0808,28.945,175,75
2026-05-11 17:51:01.948,2,-0.2,-1.02,0.11,-23.862800000000004,145.2208,43.335,175,75
2026-05-11 17:51:01.958,2,-0.16,-0.64,0.26,-33.622800000000005,143.51080000000002,52.785,175,75
2026-05-11 17:51:01.958,2,-0.07,-0.39,0.39,-42.582800000000006,127.2308,54.925,175,75
2026-05-11 17:51:01.975,2,0.12,0.03,0.51,-46.0628,69.9708,45.045,175,75
2026-05-11 17:51:01.987,2,0.19,0.66,0.29,-35.692800000000005,-70.9392,1.9949999999999992,175,75
2026-05-11 17:51:01.993,2,0.08,0.77,0.03,-37.4028,-70.8192,-10.685,175,75
2026-05-11 17:51:02.034,2,-0.05,0.85,-0.18,-33.5028,-10.389199999999999,-18.915,175,75
2026-05-11 17:51:02.034,2,-0.03,0.85,-0.16,-26.422800000000002,59.0608,-22.155,175,75
2026-05-11 17:51:02.047,2,-0.01,0.49,0.05,-19.472800000000003,130.0308,-24.525,175,75
2026-05-11 17:51:02.057,2,0.03,0.28,0.27,-16.302800000000005,143.63080000000002,-34.105,175,75
2026-05-11 17:51:02.083,2,0.09,0.17,0.45,-16.732800000000005,111.2508,-41.295,175,75
2026-05-11 17:51:02.083,2,0.03,-0.01,0.46,-18.562800000000003,53.0208,-46.355000000000004,175,75
2026-05-11 17:51:02.083,2,-0.01,-0.5,0.3,-18.6228,-18.989199999999997,-49.105000000000004,175,75
2026-05-11 17:51:02.092,2,-0.01,-0.71,0.23,-15.942800000000002,-28.8692,-47.215,175,75
2026-05-11 17:51:02.129,2,-0.05,-1.21,0.06,-8.562800000000003,-23.8692,-37.155,175,75
2026-05-11 17:51:02.182,2,-0.01,-1.42,-0.08,9.427199999999996,12.2908,-18.435,175,75
2026-05-11 17:51:02.207,2,-0.03,-1.83,0.2,-30.022800000000004,58.020799999999994,43.394999999999996,175,75
2026-05-11 17:51:02.217,2,0.0,-1.9,0.21,-33.8628,54.1208,50.835,175,75
2026-05-11 17:51:02.217,2,0.01,-1.84,0.23,-37.522800000000004,55.3408,57.425,175,75
2026-05-11 17:51:02.228,2,0.03,-1.69,0.28,-45.8828,59.0608,63.825,175,75
2026-05-11 17:51:02.240,2,0.08,-1.42,0.41,-44.47280000000001,54.2408,72.785,175,75
2026-05-11 17:51:02.270,2,0.03,-1.11,0.42,-2.4628000000000014,18.140800000000002,70.41499999999999,175,75
2026-05-11 17:51:02.287,2,-0.01,-0.89,0.25,17.537199999999995,-23.2592,67.05499999999999,175,75
2026-05-11 17:51:02.296,2,-0.03,-0.74,0.1,18.387199999999996,-36.919200000000004,64.735,175,75
2026-05-11 17:51:02.307,2,-0.03,-0.56,-0.02,5.217199999999995,-46.8592,61.325,175,75
2026-05-11 17:51:02.319,2,-0.04,-0.21,-0.08,-20.452800000000003,-22.6492,65.655,175,75
2026-05-11 17:51:02.344,2,0.08,0.26,0.21,-64.9628,96.38080000000001,74.735,175,75
2026-05-11 17:51:02.383,2,0.17,0.28,0.52,-54.7828,37.1108,52.605000000000004,175,75
2026-05-11 17:51:02.383,2,0.14,0.36,0.55,-55.4528,-27.4692,40.775,175,75
2026-05-11 17:51:02.401,2,0.1,0.45,0.48,-65.5128,-100.2092,25.835,175,75
2026-05-11 17:51:02.413,2,0.07,0.51,0.39,-72.64280000000001,-134.8392,14.674999999999999,175,75
2026-05-11 17:51:02.421,2,0.06,0.52,0.29,-72.0928,-148.31920000000002,2.115,175,75
2026-05-11 17:51:02.458,2,0.09,0.49,0.25,-67.3428,-145.81920000000002,-6.665,175,75
2026-05-11 17:51:02.458,2,0.11,0.43,0.19,-59.7828,-136.54919999999998,-14.775,175,75
2026-05-11 17:51:02.458,2,0.12,0.35,0.17,-52.832800000000006,-127.7092,-19.895,175,75
2026-05-11 17:51:02.480,2,0.15,0.15,0.14,-38.2528,-96.5492,-25.325,175,75
2026-05-11 17:51:02.491,2,0.12,-0.32,0.15,-37.342800000000004,-72.4692,-30.935000000000002,175,75
2026-05-11 17:51:02.517,2,0.18,-1.35,0.21,-51.552800000000005,-71.97919999999999,-46.115,175,75
2026-05-11 17:51:02.523,2,0.13,-1.83,0.18,-54.72280000000001,-73.0792,-53.065000000000005,175,75
2026-05-11 17:51:02.537,2,0.03,-2.42,-0.01,-44.9028,-81.6092,-49.165,175,75
2026-05-11 17:51:02.593,2,-0.14,-2.56,-0.19,-22.0328,-67.1592,-56.665,175,75
2026-05-11 17:51:02.593,2,-0.12,-1.98,-0.22,6.6172,-27.589199999999998,-70.935,175,75
2026-05-11 17:51:02.593,2,-0.07,-1.45,-0.09,17.417199999999998,4.9708000000000006,-40.745,175,75
2026-05-11 17:51:02.622,2,-0.19,-1.65,-0.02,-2.642800000000001,11.070800000000002,-22.085,175,75
2026-05-11 17:51:02.622,2,-0.21,-2.15,0.01,-33.8628,1.3208000000000002,-16.785,175,75
2026-05-11 17:51:02.636,2,-0.15,-2.42,-0.11,-40.7528,-12.5292,-12.215,175,75
2026-05-11 17:51:02.658,2,-0.02,-1.68,0.01,-11.182800000000004,2.8408000000000015,3.1549999999999994,175,75
2026-05-11 17:51:02.658,2,-0.04,-1.43,0.04,-12.092800000000004,16.1908,10.775,175,75
2026-05-11 17:51:02.668,2,-0.05,-1.14,0.06,-12.522800000000004,19.6108,10.895000000000001,175,75
2026-05-11 17:51:02.679,2,-0.02,-0.89,0.06,-10.142800000000001,7.050800000000001,10.225,175,75
2026-05-11 17:51:02.690,2,0.01,-0.65,0.05,-7.952800000000003,-11.6692,7.424999999999999,175,75
2026-05-11 17:51:02.702,2,0.03,-0.39,-0.0,-6.852800000000002,-28.3192,3.335000000000001,175,75
2026-05-11 17:51:02.702,2,0.05,-0.12,-0.09,-5.512800000000002,-26.6692,-3.795,175,75
2026-05-11 17:51:02.713,2,0.05,0.21,-0.17,-3.382800000000003,-2.7691999999999988,-8.245000000000001,175,75
2026-05-11 17:51:02.751,2,-0.05,0.57,-0.22,-6.852800000000002,86.8008,-12.885,175,75
2026-05-11 17:51:02.751,2,-0.03,0.31,-0.16,-14.112800000000004,113.63080000000001,-14.465,175,75
2026-05-11 17:51:02.761,2,-0.07,-0.02,0.05,-26.422800000000002,125.28080000000001,-21.965,175,75
2026-05-11 17:51:02.781,2,-0.13,0.02,0.26,-33.9228,63.8108,-27.945,175,75
2026-05-11 17:51:02.810,2,-0.18,0.08,0.28,-39.412800000000004,17.8408,-27.335,175,75
2026-05-11 17:51:02.810,2,-0.22,0.12,0.28,-50.6328,-35.0292,-25.685000000000002,175,75
2026-05-11 17:51:02.834,2,-0.21,0.12,0.22,-61.552800000000005,-77.8292,-24.105,175,75
2026-05-11 17:51:02.873,2,-0.13,-0.03,-0.09,-63.25280000000001,-93.8092,-21.545,175,75
2026-05-11 17:51:02.883,2,-0.07,-0.1,-0.13,-59.72280000000001,-68.4392,-23.244999999999997,175,75
2026-05-11 17:51:02.883,2,-0.02,-0.23,-0.13,-55.692800000000005,-34.419200000000004,-28.185000000000002,175,75
2026-05-11 17:51:02.893,2,0.01,-0.41,-0.09,-56.1828,-13.0092,-34.955,175,75
2026-05-11 17:51:02.904,2,0.04,-0.71,-0.03,-59.662800000000004,-3.809199999999999,-43.795,175,75
2026-05-11 17:51:02.904,2,0.06,-1.0,0.03,-63.1328,-7.219199999999999,-51.175000000000004,175,75
2026-05-11 17:51:02.918,2,0.03,-1.34,0.05,-64.9628,-23.6792,-57.635000000000005,175,75
2026-05-11 17:51:02.930,2,-0.1,-1.62,-0.07,-56.552800000000005,-48.2592,-61.115,175,75
2026-05-11 17:51:02.962,2,-0.27,-1.36,-0.31,-32.832800000000006,-8.749199999999998,-39.225,175,75
2026-05-11 17:51:02.991,2,-0.35,-1.61,-0.36,-33.442800000000005,17.1108,-21.665,175,75
2026-05-11 17:51:02.991,2,-0.32,-2.13,-0.47,-40.8128,50.8308,8.645000000000001,175,75
2026-05-11 17:51:03.043,2,-0.26,-1.9,-0.51,-35.1428,75.5808,16.145000000000003,175,75
2026-05-11 17:51:03.043,2,-0.0,-1.13,-0.3,-40.2028,133.0808,42.425,175,75
2026-05-11 17:51:03.043,2,0.08,-0.9,-0.1,-64.53280000000001,158.82080000000002,47.485,175,75
2026-05-11 17:51:03.064,2,0.31,-0.76,0.09,-85.9428,145.3408,33.455,175,75
2026-05-11 17:51:03.100,2,0.51,-0.57,0.19,-96.67280000000001,100.7708,14.674999999999999,175,75
2026-05-11 17:51:03.111,2,0.67,-0.16,0.06,-112.5228,10.520800000000001,-19.045,175,75
2026-05-11 17:51:03.116,2,0.71,0.0,-0.07,-116.73280000000001,3.5708,-30.445,175,75
2026-05-11 17:51:03.130,2,0.74,0.14,-0.21,-116.5528,19.8508,-41.295,175,75
2026-05-11 17:51:03.152,2,0.8,0.21,-0.35,-104.23280000000001,141.19080000000002,-58.435,175,75
2026-05-11 17:51:03.152,2,0.9,0.08,-0.27,-94.78280000000001,200.4608,-71.905,175,75
2026-05-11 17:51:03.165,2,1.12,-0.11,-0.04,-84.2328,234.7308,-97.825,175,75
2026-05-11 17:51:03.177,2,1.32,-0.26,0.17,-73.50280000000001,239.12079999999997,-132.39499999999998,175,75
2026-05-11 17:51:03.189,2,1.43,-0.43,0.3,-52.7028,215.1608,-165.565,175,75
2026-05-11 17:51:03.201,2,1.41,-0.86,0.22,-21.792800000000003,151.56080000000003,-196.785,175,75
2026-05-11 17:51:03.215,2,1.51,-1.41,0.11,-7.402800000000003,126.3208,-222.695,175,75
2026-05-11 17:51:03.235,2,1.48,-2.01,-0.03,-0.08280000000000243,121.7408,-245.195,175,75
2026-05-11 17:51:03.235,2,1.24,-2.41,-0.14,1.3771999999999984,144.06080000000003,-260.565,175,75
2026-05-11 17:51:03.250,2,1.11,-2.4,-0.26,3.267199999999999,172.5308,-270.195,175,75
2026-05-11 17:51:03.250,2,1.01,-2.27,-0.22,-0.7528000000000041,211.92079999999999,-268.975,175,75
2026-05-11 17:51:03.267,2,0.96,-2.12,-0.04,-10.512800000000002,266.0108,-263.125,175,75
2026-05-11 17:51:03.277,2,0.91,-1.93,0.13,-11.852800000000002,306.3808,-264.955,175,75
2026-05-11 17:51:03.288,2,0.68,-1.83,0.25,-0.8828000000000031,335.0308,-263.125,175,75
2026-05-11 17:51:03.329,2,-0.26,-0.27,0.51,80.5272,268.2108,-162.885,175,75
2026-05-11 17:51:03.338,2,-0.17,-0.18,0.57,70.40719999999999,240.8308,-133.245,175,75
2026-05-11 17:51:03.348,2,-0.04,-0.06,0.68,58.2072,196.74079999999998,-114.895,175,75
2026-05-11 17:51:03.371,2,0.07,0.05,0.69,58.8172,133.1408,-102.885,175,75
2026-05-11 17:51:03.381,2,0.01,-0.01,0.6,67.8372,80.8308,-100.325,175,75
2026-05-11 17:51:03.393,2,-0.16,-0.14,0.44,71.07719999999999,43.0808,-103.97500000000001,175,75
2026-05-11 17:51:03.407,2,-0.48,-0.18,0.05,46.13719999999999,9.180800000000001,-118.735,175,75
2026-05-11 17:51:03.428,2,-0.51,0.0,-0.02,29.1872,27.660800000000002,-111.785,175,75
2026-05-11 17:51:03.440,2,-0.53,0.07,0.02,25.5872,36.2508,-101.665,175,75
2026-05-11 17:51:03.443,2,-0.51,0.06,0.08,23.6972,36.7408,-95.44500000000001,175,75
2026-05-11 17:51:03.464,2,-0.46,-0.0,0.17,22.357199999999995,25.4608,-88.915,175,75
2026-05-11 17:51:03.475,2,-0.43,-0.04,0.23,20.097199999999997,4.360800000000001,-85.44500000000001,175,75
2026-05-11 17:51:03.496,2,-0.4,-0.01,0.28,10.767199999999999,-50.9992,-88.435,175,75
2026-05-11 17:51:03.511,2,-0.38,0.04,0.16,-9.292800000000003,-68.8692,-96.965,175,75
2026-05-11 17:51:03.520,2,-0.32,0.06,0.16,-16.492800000000003,-43.0092,-99.775,175,75
2026-05-11 17:51:03.538,2,-0.27,0.09,0.18,-19.602800000000002,-7.769199999999999,-101.115,175,75
2026-05-11 17:51:03.550,2,-0.27,0.08,0.29,-17.0328,29.2408,-103.795,175,75
2026-05-11 17:51:03.575,2,-0.27,0.17,0.43,2.9671999999999947,86.5608,-102.155,175,75
2026-05-11 17:51:03.591,2,-0.23,0.14,0.43,10.767199999999999,108.1408,-94.345,175,75
2026-05-11 17:51:03.624,2,-0.2,0.04,0.48,13.877199999999998,131.19080000000002,-85.745,175,75
2026-05-11 17:51:03.624,2,-0.17,0.02,0.72,17.107199999999995,158.82080000000002,-84.715,175,75
2026-05-11 17:51:03.646,2,-0.01,0.09,0.89,20.827199999999994,158.75080000000003,-87.455,175,75
2026-05-11 17:51:03.646,2,0.06,0.31,1.01,26.927199999999996,133.57080000000002,-88.795,175,75
2026-05-11 17:51:03.657,2,0.05,0.62,1.06,36.6172,110.1008,-86.295,175,75
2026-05-11 17:51:03.678,2,0.04,1.08,1.07,44.54719999999999,81.5608,-77.33500000000001,175,75
2026-05-11 17:51:03.678,2,0.1,1.1,1.05,36.37719999999999,71.6808,-69.465,175,75
2026-05-11 17:51:03.749,2,0.37,1.21,1.25,-40.6328,1.3808000000000007,-13.975,175,75
2026-05-11 17:51:03.759,2,0.44,0.88,1.26,-49.9028,-69.22919999999999,-13.185,175,75
2026-05-11 17:51:03.773,2,0.5,0.79,1.21,-73.5628,-129.7792,-16.355,175,75
2026-05-11 17:51:03.785,2,0.62,0.67,1.03,-109.78280000000001,-184.1092,-22.455,175,75
2026-05-11 17:51:03.807,2,0.65,0.53,0.82,-128.1328,-196.17919999999998,-29.585,175,75
2026-05-11 17:51:03.817,2,0.65,0.34,0.63,-133.9928,-180.0292,-36.055,175,75
2026-05-11 17:51:03.828,2,0.61,0.16,0.47,-132.0928,-142.2792,-47.085,175,75
2026-05-11 17:51:03.846,2,0.4,0.05,0.32,-120.6328,-71.17920000000001,-56.545,175,75
2026-05-11 17:51:03.846,2,0.23,0.19,0.35,-111.9728,-0.9391999999999987,-55.135000000000005,175,75
2026-05-11 17:51:03.885,2,0.16,0.39,0.54,-111.1828,52.2308,-51.845,175,75
2026-05-11 17:51:03.897,2,0.1,0.54,0.8,-109.9628,67.6008,-49.285000000000004,175,75
2026-05-11 17:51:03.914,2,0.03,0.7,1.01,-97.4028,33.0208,-46.295,175,75
2026-05-11 17:51:03.914,2,-0.13,0.74,1.02,-71.7928,-98.1992,-40.195,175,75
2026-05-11 17:51:03.933,2,-0.18,0.67,0.74,-59.7828,-144.2892,-35.195,175,75
2026-05-11 17:51:03.960,2,-0.12,0.34,0.37,-48.86280000000001,-105.1492,-28.735,175,75
2026-05-11 17:51:03.960,2,-0.08,0.15,0.4,-50.022800000000004,-74.2892,-32.085,175,75
2026-05-11 17:51:03.960,2,-0.11,-0.04,0.53,-51.7928,-45.5092,-43.735,175,75
2026-05-11 17:51:03.970,2,-0.14,-0.1,0.65,-51.36280000000001,-51.6092,-54.835,175,75
2026-05-11 17:51:04.007,2,-0.27,-0.07,0.54,-44.72280000000001,-104.0492,-60.935,175,75
2026-05-11 17:51:04.017,2,-0.25,0.03,0.42,-40.942800000000005,-101.3092,-55.805,175,75
2026-05-11 17:51:04.017,2,-0.19,0.2,0.34,-39.842800000000004,-79.7792,-45.505,175,75
2026-05-11 17:51:04.029,2,-0.09,0.33,0.33,-40.7528,-42.7692,-37.085,175,75
2026-05-11 17:51:04.038,2,0.08,0.43,0.44,-45.082800000000006,6.860800000000001,-27.515,175,75
2026-05-11 17:51:04.040,2,0.27,0.5,0.71,-46.4228,47.6008,-27.155,175,75
2026-05-11 17:51:04.054,2,0.37,0.66,0.98,-42.832800000000006,61.13080000000001,-35.075,175,75
2026-05-11 17:51:04.065,2,0.4,0.98,1.13,-36.732800000000005,35.8308,-40.015,175,75
2026-05-11 17:51:04.073,2,0.47,1.18,1.11,-38.7428,-8.6192,-43.675,175,75
2026-05-11 17:51:04.088,2,0.6,0.93,0.94,-61.61280000000001,-40.5792,-49.655,175,75
2026-05-11 17:51:04.099,2,0.69,0.74,0.82,-78.6228,-26.3692,-55.265,175,75
2026-05-11 17:51:04.109,2,0.63,0.73,0.79,-90.4528,14.2408,-56.605000000000004,175,75
2026-05-11 17:51:04.120,2,0.46,0.72,0.85,-101.5528,29.300800000000002,-52.945,175,75
2026-05-11 17:51:04.120,2,0.34,0.68,0.95,-123.6828,8.270800000000001,-45.745000000000005,175,75
2026-05-11 17:51:04.133,2,0.32,0.79,0.98,-138.8028,-31.6692,-32.765,175,75
2026-05-11 17:51:04.157,2,0.84,0.63,1.0,-149.4728,-129.2292,-3.125,175,75
2026-05-11 17:51:04.181,2,0.86,-0.17,0.93,-149.7228,-190.1492,-39.525,175,75
2026-05-11 17:51:04.192,2,0.61,-0.31,0.8,-144.1728,-227.4692,-72.635,175,75
2026-05-11 17:51:04.202,2,0.47,-0.3,0.62,-141.7328,-265.1492,-96.785,175,75
2026-05-11 17:51:04.228,2,0.28,-0.14,0.21,-140.0228,-277.0392,-111.295,175,75
2026-05-11 17:51:04.262,2,0.2,-0.02,-0.09,-134.8428,-239.8392,-108.065,175,75
2026-05-11 17:51:04.279,2,0.16,0.02,-0.31,-124.4128,-152.82920000000001,-100.745,175,75
2026-05-11 17:51:04.279,2,0.16,0.0,-0.37,-107.5828,-22.4692,-92.885,175,75
2026-05-11 17:51:04.293,2,0.1,-0.03,-0.18,-85.9428,81.4408,-89.58500000000001,175,75
2026-05-11 17:51:04.373,2,-0.19,0.03,0.44,-74.78280000000001,110.1008,-95.685,175,75
2026-05-11 17:51:04.373,2,-0.16,-0.04,0.62,-96.1828,2.290800000000001,-105.135,175,75
2026-05-11 17:51:04.373,2,-0.07,0.42,0.44,-105.51280000000001,-21.2492,-99.775,175,75
2026-05-11 17:51:04.384,2,0.18,0.94,0.53,-113.92280000000001,40.3408,-76.845,175,75
2026-05-11 17:51:04.395,2,0.32,1.34,0.76,-119.11280000000001,119.6708,-54.655,175,75
2026-05-11 17:51:04.436,2,0.41,1.11,1.85,-100.45280000000001,161.80079999999998,-73.365,175,75
2026-05-11 17:51:04.436,2,0.35,1.22,2.02,-101.42280000000001,64.7908,-104.58500000000001,175,75
2026-05-11 17:51:04.448,2,0.33,1.34,1.93,-117.4628,-33.0792,-128.245,175,75
2026-05-11 17:51:04.458,2,-0.02,1.38,1.43,-140.8128,-71.6092,-129.345,175,75
2026-05-11 17:51:04.470,2,0.0,1.57,1.12,-142.0328,-42.0392,-104.83500000000001,175,75
2026-05-11 17:51:04.495,2,0.16,1.93,1.0,-140.3328,55.2808,-56.905,175,75
2026-05-11 17:51:04.509,2,0.27,1.87,1.18,-139.6628,148.2708,-29.045,175,75
2026-05-11 17:51:04.509,2,0.33,1.07,1.91,-164.0528,158.88080000000002,-21.295,175,75
2026-05-11 17:51:04.520,2,0.45,0.76,2.14,-184.9628,-6.8591999999999995,-36.605,175,75
2026-05-11 17:51:04.529,2,0.56,0.63,2.07,-185.5128,-140.1492,-51.965,175,75
2026-05-11 17:51:04.543,2,0.52,0.45,1.79,-176.4928,-225.63920000000002,-67.215,175,75
2026-05-11 17:51:04.543,2,0.38,0.37,1.46,-170.2028,-264.8992,-78.495,175,75
2026-05-11 17:51:04.611,2,0.11,0.28,0.77,-159.47279999999998,-241.36919999999998,-59.225,175,75
2026-05-11 17:51:04.626,2,0.13,0.15,0.71,-157.1628,-213.61919999999998,-46.845,175,75
2026-05-11 17:51:04.685,2,0.26,-0.05,0.87,-150.0828,-203.74919999999997,-46.355000000000004,175,75
2026-05-11 17:51:04.695,2,0.15,-0.2,0.93,-149.5328,-240.32920000000001,-62.945,175,75
2026-05-11 17:51:04.695,2,-0.15,-0.26,0.83,-155.8828,-285.38919999999996,-72.455,175,75
2026-05-11 17:51:04.787,2,-0.04,-0.02,0.04,-146.2428,-96.5492,-50.805,175,75
2026-05-11 17:51:04.787,2,0.04,0.03,0.2,-130.5728,28.8808,-49.715,175,75
2026-05-11 17:51:04.798,2,-0.1,0.13,0.98,-114.7228,65.6408,-78.97500000000001,175,75
2026-05-11 17:51:04.829,2,-0.06,0.14,0.79,-94.59280000000001,-40.9992,-96.175,175,75
2026-05-11 17:51:04.841,2,-0.04,0.15,0.66,-88.0128,4.4908,-91.355,175,75
2026-05-11 17:51:04.888,2,0.38,0.65,1.35,-53.3128,127.90079999999999,-47.155,175,75
2026-05-11 17:51:04.888,2,0.74,0.74,1.48,-43.6228,13.210800000000003,-49.715,175,75
2026-05-11 17:51:04.899,2,0.7,0.73,1.23,-52.162800000000004,-41.7892,-66.545,175,75
2026-05-11 17:51:04.910,2,0.62,0.81,1.09,-63.9928,-44.8992,-65.195,175,75
2026-05-11 17:51:04.920,2,0.75,0.81,0.99,-85.5728,-42.6492,-51.665,175,75
2026-05-11 17:51:04.946,2,0.87,0.49,1.08,-91.9128,-42.099199999999996,-55.935,175,75
2026-05-11 17:51:04.964,2,0.61,0.36,0.98,-135.5128,-96.4892,-98.855,175,75
2026-05-11 17:51:04.970,2,0.32,0.81,0.66,-150.6928,-48.6192,-102.025,175,75
2026-05-11 17:51:05.045,2,0.12,0.93,0.65,-152.0928,97.7208,-76.845,175,75
2026-05-11 17:51:05.060,2,0.0,1.01,0.87,-141.2428,147.6008,-63.305,175,75
2026-05-11 17:51:05.084,2,-0.07,1.1,1.4,-133.0728,39.4208,-51.175000000000004,175,75
2026-05-11 17:51:05.120,2,-0.1,0.7,1.2,-125.0828,-128.3192,-55.685,175,75
2026-05-11 17:51:05.193,2,-0.16,0.25,0.54,-100.9428,-152.94920000000002,-54.285000000000004,175,75
2026-05-11 17:51:05.213,2,-0.28,-0.03,0.26,-101.2428,-145.75920000000002,-54.465,175,75
2026-05-11 17:51:05.226,2,-0.1,0.03,0.22,-103.92280000000001,-56.7292,-48.245000000000005,175,75
2026-05-11 17:51:05.237,2,-0.1,-0.03,0.32,-95.20280000000001,4.000800000000002,-49.105000000000004,175,75
2026-05-11 17:51:05.237,2,-0.1,0.01,0.42,-91.00280000000001,9.360800000000001,-51.965,175,75
2026-05-11 17:51:05.249,2,0.8,0.59,1.01,-81.0628,102.0508,-17.515,175,75
2026-05-11 17:51:05.261,2,0.81,0.64,1.29,-72.0928,98.8108,-29.165,175,75
2026-05-11 17:51:05.272,2,0.59,0.58,1.48,-76.00280000000001,-46.6092,-38.065,175,75
2026-05-11 17:51:05.286,2,0.49,0.28,1.3,-85.5128,-82.0392,-37.695,175,75
2026-05-11 17:51:05.286,2,0.52,0.18,1.11,-91.2428,-100.3892,-32.275,175,75
2026-05-11 17:51:05.296,2,0.68,0.33,1.0,-94.59280000000001,-115.8192,-20.685000000000002,175,75
2026-05-11 17:51:05.296,2,0.83,0.55,1.02,-98.1328,-118.7492,-10.075,175,75
2026-05-11 17:51:05.334,2,0.88,0.49,1.08,-100.3328,-113.3192,-5.385,175,75
2026-05-11 17:51:05.348,2,0.78,0.25,1.09,-98.92280000000001,-130.7592,-10.805,175,75
2026-05-11 17:51:05.373,2,0.5,-0.02,1.03,-97.34280000000001,-191.6092,-26.355,175,75
2026-05-11 17:51:05.376,2,0.15,-0.1,0.83,-104.6628,-247.4692,-37.695,175,75
2026-05-11 17:51:05.426,2,-0.05,-0.05,0.58,-110.81280000000001,-254.5992,-41.175,175,75
2026-05-11 17:51:05.457,2,0.18,0.48,0.77,-109.4728,58.080799999999996,-76.605,175,75
2026-05-11 17:51:05.470,2,0.22,0.56,0.73,-112.5228,56.74080000000001,-79.955,175,75
2026-05-11 17:51:05.481,2,0.22,0.76,0.66,-111.00280000000001,64.5508,-76.235,175,75
2026-05-11 17:51:05.491,2,0.48,1.1,0.69,-108.3828,87.4108,-65.385,175,75
2026-05-11 17:51:05.533,2,1.0,1.15,1.87,-125.5728,38.4508,-79.775,175,75
2026-05-11 17:51:05.566,2,0.66,1.14,0.91,-111.67280000000001,66.2508,-42.455,175,75
2026-05-11 17:51:05.594,2,0.56,0.68,1.33,-124.7228,6.860800000000001,-51.605000000000004,175,75
2026-05-11 17:51:05.594,2,0.4,0.51,1.29,-130.2028,-67.8292,-63.855000000000004,175,75
2026-05-11 17:51:05.604,2,0.24,0.42,1.17,-135.5128,-114.4792,-70.265,175,75
2026-05-11 17:51:05.617,2,0.12,0.36,0.99,-146.9728,-141.17919999999998,-72.085,175,75
2026-05-11 17:51:05.617,2,0.05,0.31,0.84,-157.8328,-144.7192,-68.795,175,75
2026-05-11 17:51:05.654,2,-0.01,0.18,0.71,-166.7928,-123.6892,-59.775,175,75
2026-05-11 17:51:05.691,2,-0.15,-0.33,0.91,-150.2028,-93.3192,-59.045,175,75
2026-05-11 17:51:05.739,2,-0.26,-0.22,0.92,-141.3628,-132.7692,-65.935,175,75
2026-05-11 17:51:05.765,2,-0.22,-0.08,0.77,-136.1828,-161.6092,-71.475,175,75
2026-05-11 17:51:05.766,2,-0.2,-0.07,0.61,-127.28280000000001,-145.57920000000001,-70.565,175,75
2026-05-11 17:51:05.799,2,-0.21,0.03,0.45,-97.03280000000001,-60.2692,-68.91499999999999,175,75
2026-05-11 17:51:05.917,2,-0.11,0.18,0.7,-66.7328,3.1408000000000005,-77.885,175,75
2026-05-11 17:51:05.917,2,-0.06,0.34,0.76,-65.2728,-3.3191999999999986,-83.495,175,75
2026-05-11 17:51:05.945,2,-0.05,0.43,0.78,-66.1228,-0.5091999999999999,-80.625,175,75
2026-05-11 17:51:05.957,2,0.01,0.55,0.77,-68.86280000000001,6.680800000000001,-72.945,175,75
2026-05-11 17:51:06.024,2,0.55,0.62,1.65,-91.67280000000001,56.74080000000001,-31.784999999999997,175,75
2026-05-11 17:51:06.038,2,0.73,0.81,1.54,-90.6928,-27.0992,-33.435,175,75
2026-05-11 17:51:06.051,2,0.82,0.61,1.36,-93.0728,-71.4892,-40.995,175,75
2026-05-11 17:51:06.058,2,0.71,0.57,1.24,-102.89280000000001,-104.7192,-53.855000000000004,175,75
2026-05-11 17:51:06.107,2,-0.1,1.27,1.12,-92.7028,-24.5392,-36.665,175,75
2026-05-11 17:51:06.134,2,-0.15,0.95,0.82,-85.6928,-96.6092,-14.105,175,75
2026-05-11 17:51:06.210,2,-0.16,-0.12,0.42,-83.50280000000001,-86.7292,-28.064999999999998,175,75
2026-05-11 17:51:06.221,2,-0.16,-0.14,0.38,-75.75280000000001,-48.1992,-25.564999999999998,175,75
2026-05-11 17:51:06.288,2,-0.07,0.15,0.45,-52.9528,47.1708,-15.865,175,75
2026-05-11 17:51:06.316,2,0.03,0.17,0.68,-33.1328,69.6108,-17.884999999999998,175,75
2026-05-11 17:51:06.328,2,0.13,0.17,0.76,-25.942800000000002,53.6908,-22.395,175,75
2026-05-11 17:51:06.353,2,0.29,0.29,0.84,-19.662800000000004,-3.6191999999999993,-35.865,175,75
2026-05-11 17:51:06.369,2,0.51,0.88,0.65,-20.692800000000002,-20.8192,-36.355,175,75
2026-05-11 17:51:06.385,2,0.73,1.01,0.82,-27.4628,24.910800000000002,-30.625,175,75
2026-05-11 17:51:06.409,2,0.34,0.73,0.51,-65.39280000000001,-64.47919999999999,-27.695,175,75
2026-05-11 17:51:06.425,2,0.62,0.6,0.7,-71.7328,4.7308,20.284999999999997,175,75
2026-05-11 17:51:06.436,2,0.65,0.31,0.9,-90.5728,-39.7792,10.165000000000001,175,75
2026-05-11 17:51:06.457,2,0.66,0.12,0.98,-122.03280000000001,-136.8592,-13.675,175,75
2026-05-11 17:51:06.485,2,0.41,-0.15,0.68,-137.1628,-232.7092,-51.545,175,75
2026-05-11 17:51:06.546,2,0.12,0.15,-0.03,-110.14280000000001,-43.2592,-57.455,175,75
2026-05-11 17:51:06.571,2,0.14,0.08,0.1,-102.1628,19.4208,-56.965,175,75
2026-05-11 17:51:06.571,2,0.1,0.1,0.36,-94.84280000000001,49.3008,-62.275,175,75
2026-05-11 17:51:06.617,2,0.29,0.98,0.43,-127.5228,25.7108,-73.245,175,75
2026-05-11 17:51:06.617,2,0.48,1.15,0.63,-127.89280000000001,88.2708,-59.585,175,75
2026-05-11 17:51:06.630,2,0.54,1.17,0.91,-114.7228,116.99080000000001,-52.635000000000005,175,75
2026-05-11 17:51:06.630,2,0.71,1.3,1.4,-121.2428,71.6208,-69.345,175,75
2026-05-11 17:51:06.668,2,0.44,2.04,1.44,-106.3028,-23.809199999999997,-52.215,175,75
2026-05-11 17:51:06.708,2,0.65,1.1,1.05,-96.42280000000001,-89.3592,-22.634999999999998,175,75
2026-05-11 17:51:06.718,2,0.56,0.96,0.93,-104.23280000000001,-113.9292,-32.025,175,75
2026-05-11 17:51:06.772,2,0.42,0.84,0.72,-114.0528,-119.7792,-38.555,175,75
2026-05-11 17:51:06.772,2,0.3,0.73,0.56,-121.42280000000001,-101.2492,-38.245,175,75
2026-05-11 17:51:06.785,2,0.18,0.63,0.47,-123.6828,-68.67920000000001,-35.135,175,75
2026-05-11 17:51:06.785,2,0.06,0.48,0.49,-119.11280000000001,-14.479199999999999,-27.884999999999998,175,75
2026-05-11 17:51:06.798,2,-0.02,0.4,0.6,-114.78280000000001,6.620800000000001,-22.275,175,75
2026-05-11 17:51:06.798,2,-0.04,0.3,0.77,-113.62280000000001,-1.7291999999999987,-21.845,175,75
2026-05-11 17:51:06.812,2,-0.12,0.11,0.93,-115.3328,-55.8192,-27.155,175,75
2026-05-11 17:51:06.835,2,-0.34,-0.25,0.92,-121.2428,-209.04919999999998,-56.785000000000004,175,75
2026-05-11 17:51:06.859,2,-0.5,-0.05,0.4,-134.90279999999998,-239.1092,-54.105000000000004,175,75
2026-05-11 17:51:06.872,2,-0.32,0.24,0.09,-125.51280000000001,-78.86919999999999,-30.505000000000003,175,75
2026-05-11 17:51:06.872,2,-0.22,0.29,0.16,-116.8528,16.8608,-23.915,175,75
2026-05-11 17:51:06.911,2,-0.13,0.21,0.7,-103.01280000000001,121.0708,-28.915,175,75
2026-05-11 17:51:06.921,2,-0.05,0.19,0.93,-100.0828,86.5008,-41.415,175,75
2026-05-11 17:51:06.932,2,-0.01,0.25,1.02,-94.78280000000001,16.5008,-52.635000000000005,175,75
2026-05-11 17:51:06.944,2,0.04,0.26,0.97,-87.3428,-22.2192,-61.545,175,75
2026-05-11 17:51:06.953,2,0.07,0.2,0.73,-67.5228,15.2808,-66.785,175,75
2026-05-11 17:51:06.965,2,0.2,0.18,0.83,-63.802800000000005,46.9208,-71.905,175,75
2026-05-11 17:51:06.986,2,0.29,0.36,1.01,-55.942800000000005,64.49080000000001,-76.115,175,75
2026-05-11 17:51:06.986,2,0.38,0.64,1.2,-51.302800000000005,55.0308,-75.625,175,75
2026-05-11 17:51:06.999,2,0.44,0.82,1.26,-45.272800000000004,35.4608,-73.675,175,75
2026-05-11 17:51:07.012,2,0.49,0.9,1.05,-43.6828,15.710800000000003,-51.605000000000004,175,75
2026-05-11 17:51:07.048,2,0.49,1.22,1.08,-67.7028,41.9208,-34.775,175,75
2026-05-11 17:51:07.058,2,0.61,1.45,1.15,-83.6828,34.3008,-21.725,175,75
2026-05-11 17:51:07.067,2,0.98,0.73,1.26,-95.14280000000001,-35.3892,-24.585,175,75
2026-05-11 17:51:07.080,2,0.89,0.43,1.23,-118.50280000000001,-81.9192,-49.405,175,75
2026-05-11 17:51:07.087,2,0.64,0.34,1.02,-143.5028,-118.3192,-65.935,175,75
2026-05-11 17:51:07.126,2,0.48,0.34,0.8,-153.5628,-112.2192,-65.745,175,75
2026-05-11 17:51:07.126,2,0.42,0.38,0.6,-150.6328,-68.8092,-60.505,175,75
2026-05-11 17:51:07.137,2,0.36,0.5,0.71,-124.9628,49.5508,-47.275,175,75
2026-05-11 17:51:07.168,2,0.25,0.58,0.93,-120.0828,71.4408,-48.065000000000005,175,75
2026-05-11 17:51:07.179,2,0.07,0.9,1.21,-128.9928,0.10080000000000133,-51.295,175,75
2026-05-11 17:51:07.189,2,0.02,1.0,1.14,-131.0628,-50.4492,-47.945,175,75
2026-05-11 17:51:07.189,2,0.02,1.06,0.99,-127.4028,-75.5792,-41.965,175,75
2026-05-11 17:51:07.207,2,0.05,0.86,0.79,-108.62280000000001,-50.8792,-22.275,175,75
2026-05-11 17:51:07.214,2,0.06,0.69,0.85,-104.11280000000001,-46.1192,-23.005000000000003,175,75
2026-05-11 17:51:07.241,2,-0.06,0.44,0.94,-96.12280000000001,-97.4692,-39.655,175,75
2026-05-11 17:51:07.252,2,-0.14,0.39,0.84,-90.9428,-120.3892,-41.845,175,75
2026-05-11 17:51:07.257,2,-0.19,0.33,0.72,-86.00280000000001,-124.9692,-41.475,175,75
2026-05-11 17:51:07.290,2,-0.19,0.22,0.62,-82.03280000000001,-111.1892,-41.175,175,75
2026-05-11 17:51:07.318,2,-0.33,0.12,0.57,-69.9628,-29.9692,-37.695,175,75
2026-05-11 17:51:07.325,2,-0.16,0.2,0.59,-55.4528,13.140800000000002,-29.835,175,75
2026-05-11 17:51:07.363,2,0.12,0.3,0.92,-53.3828,41.8008,-41.175,175,75
2026-05-11 17:51:07.374,2,0.15,0.42,1.0,-54.842800000000004,30.160800000000002,-46.355000000000004,175,75
2026-05-11 17:51:07.380,2,0.14,0.69,1.05,-54.72280000000001,7.110800000000001,-45.805,175,75
2026-05-11 17:51:07.398,2,0.32,0.98,1.07,-48.3128,-9.839199999999998,-38.855,175,75
2026-05-11 17:51:07.398,2,0.43,0.94,1.08,-46.1828,-17.0992,-38.555,175,75
2026-05-11 17:51:07.431,2,0.41,0.52,0.96,-43.5628,-37.039199999999994,-51.785000000000004,175,75
2026-05-11 17:51:07.442,2,0.28,0.48,0.8,-44.662800000000004,-41.2492,-48.915,175,75
2026-05-11 17:51:07.486,2,0.15,0.68,0.58,-48.9928,-7.649199999999999,-15.625,175,75
2026-05-11 17:51:07.496,2,0.34,1.04,0.63,-59.7828,5.3408000000000015,9.805000000000001,175,75
2026-05-11 17:51:07.496,2,0.69,1.1,0.78,-71.8528,-9.479199999999999,28.765,175,75
2026-05-11 17:51:07.519,2,0.79,0.02,1.06,-115.20280000000001,-230.44920000000002,-38.735,175,75
2026-05-11 17:51:07.533,2,0.55,0.04,0.75,-130.4528,-318.8692,-65.625,175,75
2026-05-11 17:51:07.533,2,0.38,0.15,0.4,-137.6428,-338.43919999999997,-71.295,175,75
2026-05-11 17:51:07.553,2,0.16,0.16,-0.23,-135.2028,-218.74919999999997,-69.655,175,75
2026-05-11 17:51:07.567,2,0.12,0.07,-0.37,-129.7828,-61.7292,-60.265,175,75
2026-05-11 17:51:07.685,2,-0.0,0.61,0.56,-81.5528,-15.819199999999999,-88.615,175,75
2026-05-11 17:51:07.689,2,0.05,0.99,0.41,-88.92280000000001,18.7508,-80.745,175,75
2026-05-11 17:51:07.714,2,0.16,1.42,0.5,-92.28280000000001,111.6208,-58.065000000000005,175,75
2026-05-11 17:51:07.730,2,0.55,1.35,1.63,-94.9028,86.1908,-58.735,175,75
2026-05-11 17:51:07.771,2,0.61,1.68,1.75,-113.56280000000001,9.8508,-72.825,175,75
2026-05-11 17:51:07.783,2,0.73,1.5,1.33,-99.9028,1.9208000000000016,-24.955,175,75
2026-05-11 17:51:07.813,2,0.76,1.29,1.58,-95.6928,-18.4992,-30.265,175,75
2026-05-11 17:51:07.813,2,0.73,1.14,1.61,-103.8028,-72.2792,-42.575,175,75
2026-05-11 17:51:07.813,2,0.54,0.96,1.38,-110.9428,-151.7892,-61.545,175,75
2026-05-11 17:51:07.824,2,0.42,0.91,1.06,-113.7428,-175.2092,-67.455,175,75
2026-05-11 17:51:07.837,2,0.05,0.53,0.58,-113.31280000000001,-20.3292,-52.825,175,75
2026-05-11 17:51:07.851,2,-0.05,0.47,0.75,-112.95280000000001,11.1308,-46.905,175,75
2026-05-11 17:51:07.865,2,-0.13,0.38,0.96,-117.34280000000001,0.40080000000000027,-44.955,175,75
2026-05-11 17:51:07.898,2,-0.13,0.07,1.09,-117.64280000000001,-121.4292,-54.955,175,75
2026-05-11 17:51:07.910,2,-0.27,-0.08,0.84,-118.3828,-191.7892,-70.325,175,75
2026-05-11 17:51:07.920,2,-0.35,-0.07,0.67,-120.51280000000001,-196.54919999999998,-72.27499999999999,175,75
2026-05-11 17:51:07.932,2,-0.38,0.04,0.34,-119.7228,-90.75919999999999,-57.455,175,75
2026-05-11 17:51:07.953,2,-0.31,0.05,0.37,-113.31280000000001,-0.26919999999999966,-48.005,175,75
2026-05-11 17:51:07.953,2,-0.24,0.12,0.56,-102.4028,65.4608,-42.395,175,75
2026-05-11 17:51:07.979,2,-0.19,0.16,0.82,-91.36280000000001,82.2308,-44.835,175,75
2026-05-11 17:51:07.989,2,-0.12,0.19,1.02,-80.39280000000001,48.4508,-53.435,175,75
2026-05-11 17:51:08.000,2,-0.1,0.22,1.14,-71.42280000000001,0.16080000000000183,-63.305,175,75
2026-05-11 17:51:08.013,2,-0.09,0.22,1.09,-60.022800000000004,-73.9892,-77.33500000000001,175,75
2026-05-11 17:51:08.013,2,-0.13,0.24,0.86,-49.2328,-114.1692,-86.415,175,75
2026-05-11 17:51:08.040,2,-0.12,0.24,0.69,-41.6728,-105.9392,-89.58500000000001,175,75
2026-05-11 17:51:08.040,2,-0.09,0.21,0.57,-34.052800000000005,-64.9692,-91.055,175,75
2026-05-11 17:51:08.051,2,-0.08,0.22,0.54,-25.1428,-8.6792,-91.115,175,75
2026-05-11 17:51:08.064,2,-0.08,0.44,0.68,-19.9628,34.0608,-86.665,175,75
2026-05-11 17:51:08.075,2,-0.01,0.72,0.82,-20.632800000000003,44.4908,-77.575,175,75
2026-05-11 17:51:08.087,2,0.07,0.86,0.91,-21.912800000000004,44.790800000000004,-69.77499999999999,175,75
2026-05-11 17:51:08.095,2,0.12,0.87,0.98,-23.6828,41.2508,-64.345,175,75
2026-05-11 17:51:08.117,2,0.3,1.0,1.02,-30.632800000000003,20.4008,-43.735,175,75
2026-05-11 17:51:08.142,2,0.42,1.09,1.08,-45.2028,19.550800000000002,-31.905,175,75
2026-05-11 17:51:08.175,2,0.58,1.33,1.19,-64.9028,1.5608000000000004,-18.555,175,75
2026-05-11 17:51:08.189,2,0.98,0.63,1.29,-97.1628,-61.9792,-34.105,175,75
2026-05-11 17:51:08.248,2,0.62,0.66,1.1,-135.2728,-105.5792,-69.045,175,75
2026-05-11 17:51:08.248,2,0.45,0.86,0.85,-149.1728,-85.50919999999999,-65.445,175,75
2026-05-11 17:51:08.272,2,0.39,0.9,0.68,-156.6728,-35.209199999999996,-59.835,175,75
2026-05-11 17:51:08.286,2,0.34,0.84,0.71,-140.6328,65.2208,-52.635000000000005,175,75
2026-05-11 17:51:08.286,2,0.26,0.85,0.9,-122.5228,112.2908,-51.295,175,75
2026-05-11 17:51:08.296,2,0.11,1.0,1.18,-115.5728,113.3308,-52.945,175,75
2026-05-11 17:51:08.296,2,0.0,1.25,1.38,-116.67280000000001,62.290800000000004,-51.965,175,75
2026-05-11 17:51:08.336,2,-0.16,1.36,1.18,-115.5728,-111.5492,-41.055,175,75
2026-05-11 17:51:08.358,2,-0.14,0.82,0.72,-106.12280000000001,-95.0892,-13.435,175,75
2026-05-11 17:51:08.369,2,-0.12,0.56,0.75,-102.5828,-75.50919999999999,-14.655,175,75
2026-05-11 17:51:08.381,2,-0.11,0.44,0.78,-97.95280000000001,-74.0492,-19.105,175,75
2026-05-11 17:51:08.469,2,-0.15,0.34,0.79,-90.14280000000001,-86.3092,-24.225,175,75
2026-05-11 17:51:08.469,2,-0.21,0.11,0.59,-77.2228,-98.86919999999999,-30.015,175,75
2026-05-11 17:51:08.469,2,-0.26,0.02,0.5,-68.5628,-74.7192,-28.615000000000002,175,75
2026-05-11 17:51:08.481,2,-0.25,0.01,0.43,-58.0728,-53.4392,-26.665,175,75
2026-05-11 17:51:08.481,2,-0.2,0.08,0.41,-43.8628,-19.1092,-23.064999999999998,175,75
2026-05-11 17:51:08.494,2,-0.09,0.12,0.51,-22.522800000000004,26.9208,-22.085,175,75
2026-05-11 17:51:08.530,2,-0.04,0.17,0.57,-14.962800000000003,25.9508,-24.895,175,75
2026-05-11 17:51:08.530,2,0.02,0.23,0.61,-10.632800000000003,18.3308,-27.275,175,75
2026-05-11 17:51:08.544,2,0.13,0.37,0.57,-10.942800000000002,5.580800000000002,-32.945,175,75
2026-05-11 17:51:08.556,2,0.19,0.54,0.54,-10.142800000000001,15.160800000000002,-32.155,175,75
2026-05-11 17:51:08.626,2,0.47,0.7,0.69,-28.132800000000003,54.0608,-24.835,175,75
2026-05-11 17:51:08.664,2,0.49,0.41,0.89,-41.732800000000005,-27.1592,-28.244999999999997,175,75
2026-05-11 17:51:08.677,2,0.42,0.33,0.83,-48.50280000000001,-68.25919999999999,-28.125,175,75
2026-05-11 17:51:08.688,2,0.4,0.46,0.74,-59.1728,-103.1392,-25.015,175,75
2026-05-11 17:51:08.720,2,0.58,0.49,0.67,-89.4128,-133.0092,-6.965,175,75
2026-05-11 17:51:08.720,2,0.57,0.2,0.74,-102.5228,-160.50920000000002,-20.994999999999997,175,75
2026-05-11 17:51:08.732,2,0.39,0.08,0.7,-116.36280000000001,-202.7092,-38.555,175,75
2026-05-11 17:51:08.732,2,0.23,0.09,0.56,-126.00280000000001,-232.2792,-55.135000000000005,175,75
2026-05-11 17:51:08.743,2,0.15,0.15,0.37,-132.7728,-224.2892,-63.555,175,75
2026-05-11 17:51:08.775,2,0.33,0.05,0.35,-86.00280000000001,121.19080000000001,-87.08500000000001,175,75
2026-05-11 17:51:08.807,2,0.4,1.95,1.76,10.4072,143.0808,-89.045,175,75
2026-05-11 17:51:08.818,2,0.49,2.09,1.78,-4.172800000000002,39.4908,-100.935,175,75
2026-05-11 17:51:08.839,2,0.29,2.03,1.25,-58.3828,-142.4692,-120.865,175,75
2026-05-11 17:51:08.856,2,0.02,2.0,0.74,-115.75280000000001,-70.2092,-88.615,175,75
2026-05-11 17:51:08.912,2,-0.07,2.13,0.76,-132.8328,74.4208,-51.545,175,75
2026-05-11 17:51:08.912,2,0.01,1.99,1.0,-123.7428,96.0708,-23.185000000000002,175,75
2026-05-11 17:51:08.954,2,0.25,1.14,1.11,-134.90279999999998,-165.57920000000001,-15.265,175,75
2026-05-11 17:51:08.980,2,-0.09,0.86,0.67,-151.9128,-219.1092,-23.494999999999997,175,75
2026-05-11 17:51:09.000,2,-0.19,0.63,0.45,-153.3128,-187.2792,-21.115000000000002,175,75
2026-05-11 17:51:09.020,2,-0.05,0.15,0.44,-145.5728,-84.2892,-17.455,175,75
2026-05-11 17:51:09.059,2,-0.33,0.04,0.6,-116.5528,-170.81920000000002,-44.655,175,75
2026-05-11 17:51:09.070,2,-0.26,0.18,0.32,-105.0228,-110.3292,-40.075,175,75
2026-05-11 17:51:09.080,2,-0.23,0.3,0.25,-95.5728,-56.7292,-33.495,175,75
2026-05-11 17:51:09.105,2,-0.09,0.38,0.45,-78.5628,38.3308,-29.895000000000003,175,75
2026-05-11 17:51:09.105,2,-0.04,0.34,0.62,-77.3428,46.7408,-37.395,175,75
2026-05-11 17:51:09.138,2,-0.02,0.28,0.81,-71.8528,0.5208000000000013,-58.125,175,75
2026-05-11 17:51:09.154,2,0.02,0.24,0.76,-69.4728,-47.5892,-81.415,175,75
2026-05-11 17:51:09.164,2,-0.02,0.53,0.74,-67.5828,-24.1092,-86.055,175,75
2026-05-11 17:51:09.179,2,0.06,0.79,0.8,-66.36280000000001,-10.9392,-79.22500000000001,175,75
2026-05-11 17:51:09.192,2,0.11,0.93,0.87,-65.2028,-4.839199999999999,-69.955,175,75
2026-05-11 17:51:09.218,2,0.1,0.96,0.91,-62.4628,0.28080000000000105,-63.735,175,75
2026-05-11 17:51:09.219,2,0.18,0.99,0.97,-60.942800000000005,0.28080000000000105,-55.935,175,75
2026-05-11 17:51:09.223,2,0.25,0.99,1.01,-59.2328,-6.179199999999999,-46.725,175,75
2026-05-11 17:51:09.245,2,0.36,0.85,1.09,-76.42280000000001,7.530799999999999,-36.415,175,75
2026-05-11 17:51:09.256,2,0.41,1.04,1.09,-86.00280000000001,12.110800000000001,-26.545,175,75
2026-05-11 17:51:09.269,2,0.52,1.15,1.1,-93.9928,21.0108,-13.975,175,75
2026-05-11 17:51:09.269,2,0.75,1.11,1.18,-103.6828,25.8908,-8.004999999999999,175,75
2026-05-11 17:51:09.279,2,0.93,0.97,1.31,-112.4628,21.0108,-9.285,175,75
2026-05-11 17:51:09.291,2,1.01,0.84,1.43,-116.9728,0.22080000000000055,-19.285,175,75
2026-05-11 17:51:09.302,2,1.01,0.68,1.49,-126.73280000000001,-60.029199999999996,-35.995,175,75
2026-05-11 17:51:09.306,2,0.8,0.57,1.35,-140.6328,-123.86919999999999,-56.665,175,75
2026-05-11 17:51:09.324,2,0.66,0.7,1.13,-148.9928,-150.93919999999997,-67.395,175,75
2026-05-11 17:51:09.324,2,0.65,0.88,0.94,-152.1628,-146.6092,-66.175,175,75
2026-05-11 17:51:09.346,2,0.5,0.66,0.64,-159.78279999999998,-41.1792,-57.635000000000005,175,75
2026-05-11 17:51:09.373,2,0.31,0.79,0.84,-150.2028,81.99080000000001,-44.835,175,75
2026-05-11 17:51:09.387,2,0.25,0.99,1.03,-145.5728,93.6908,-37.025,175,75
2026-05-11 17:51:09.399,2,0.21,1.16,1.21,-142.2828,65.8308,-29.225,175,75
2026-05-11 17:51:09.418,2,0.28,1.01,1.25,-126.36280000000001,-17.589199999999998,-22.155,175,75
2026-05-11 17:51:09.439,2,0.26,0.87,1.18,-115.0228,-58.9892,-23.244999999999997,175,75
2026-05-11 17:51:09.449,2,0.24,0.76,1.11,-107.4028,-83.6892,-28.555,175,75
2026-05-11 17:51:09.462,2,0.15,0.65,1.04,-101.12280000000001,-101.4292,-34.345,175,75
2026-05-11 17:51:09.462,2,-0.04,0.53,0.89,-91.7328,-122.4692,-42.085,175,75
2026-05-11 17:51:09.470,2,-0.1,0.52,0.75,-83.50280000000001,-130.7592,-43.365,175,75
2026-05-11 17:51:09.505,2,-0.17,0.51,0.61,-74.5928,-122.2192,-40.015,175,75
2026-05-11 17:51:09.517,2,-0.18,0.43,0.54,-66.8528,-103.4392,-37.025,175,75
2026-05-11 17:51:09.517,2,-0.2,0.28,0.5,-60.3928,-81.6092,-34.405,175,75
2026-05-11 17:51:09.528,2,-0.22,0.11,0.5,-56.302800000000005,-67.8292,-34.045,175,75
2026-05-11 17:51:09.540,2,-0.23,0.01,0.49,-55.1428,-65.5792,-36.055,175,75
2026-05-11 17:51:09.561,2,-0.09,0.19,0.43,-66.0628,-13.9892,-43.915,175,75
2026-05-11 17:51:09.571,2,-0.06,0.2,0.44,-66.00280000000001,14.550800000000002,-45.505,175,75
2026-05-11 17:51:09.649,2,0.11,0.32,0.71,-67.7028,58.63080000000001,-52.455,175,75
2026-05-11 17:51:09.649,2,0.16,0.39,0.82,-66.67280000000001,55.6408,-55.805,175,75
2026-05-11 17:51:09.650,2,0.24,0.43,0.94,-62.162800000000004,40.5808,-62.395,175,75
2026-05-11 17:51:09.655,2,0.29,0.47,1.01,-60.332800000000006,15.160800000000002,-69.465,175,75
2026-05-11 17:51:09.667,2,0.33,0.58,1.01,-57.772800000000004,-11.729199999999999,-74.77499999999999,175,75
