Time,ID,Ax,Ay,Az,Gx,Gy,Gz,Height,Weight
2026-05-07 18:24:24.595,2,0.23,0.17,0.65,-39.7278,33.7596,32.2814,175,75
2026-05-07 18:24:24.607,2,0.24,0.16,0.65,-39.787800000000004,37.9096,34.1714,175,75
2026-05-07 18:24:24.617,2,0.23,0.15,0.65,-41.0078,42.839600000000004,35.2114,175,75
2026-05-07 18:24:24.634,2,0.24,0.16,0.67,-39.297799999999995,48.449600000000004,36.9214,175,75
2026-05-07 18:24:24.654,2,0.26,0.16,0.69,-36.437799999999996,47.5396,39.0514,175,75
2026-05-07 18:24:24.654,2,0.29,0.14,0.7,-36.8678,40.8896,41.981399999999994,175,75
2026-05-07 18:24:24.666,2,0.3,0.14,0.7,-38.567800000000005,36.3196,43.6914,175,75
2026-05-07 18:24:24.677,2,0.32,0.13,0.68,-39.427800000000005,33.089600000000004,45.3914,175,75
2026-05-07 18:24:24.686,2,0.35,0.11,0.67,-38.567800000000005,30.5896,47.2814,175,75
2026-05-07 18:24:24.699,2,0.37,0.09,0.67,-38.9978,29.9796,47.651399999999995,175,75
2026-05-07 18:24:24.725,2,0.41,0.07,0.65,-38.6278,27.9696,43.4414,175,75
2026-05-07 18:24:24.737,2,0.4,0.1,0.62,-38.2678,28.3296,41.4914,175,75
2026-05-07 18:24:24.737,2,0.4,0.13,0.62,-38.2078,31.619600000000002,40.4514,175,75
2026-05-07 18:24:24.759,2,0.36,0.16,0.62,-37.6578,47.1696,39.231399999999994,175,75
2026-05-07 18:24:24.769,2,0.35,0.16,0.65,-38.6278,49.8596,39.231399999999994,175,75
2026-05-07 18:24:24.783,2,0.35,0.16,0.66,-39.787800000000004,51.3196,39.721399999999996,175,75
2026-05-07 18:24:24.800,2,0.35,0.16,0.66,-41.797799999999995,51.8696,39.481399999999994,175,75
2026-05-07 18:24:24.807,2,0.34,0.17,0.67,-44.4278,55.8896,39.3014,175,75
2026-05-07 18:24:24.833,2,0.27,0.15,0.72,-45.5878,65.03960000000001,39.84139999999999,175,75
2026-05-07 18:24:24.833,2,0.25,0.12,0.75,-45.2778,67.6596,39.971399999999996,175,75
2026-05-07 18:24:24.866,2,0.14,0.12,0.8,-49.2978,71.0796,41.4314,175,75
2026-05-07 18:24:24.866,2,0.11,0.11,0.79,-49.5478,71.86959999999999,44.0514,175,75
2026-05-07 18:24:24.876,2,0.09,0.1,0.79,-47.4078,69.6096,47.041399999999996,175,75
2026-05-07 18:24:24.900,2,0.03,0.11,0.77,-42.1078,69.0596,50.09139999999999,175,75
2026-05-07 18:24:24.910,2,-0.05,0.11,0.76,-37.3478,74.11959999999999,55.0314,175,75
2026-05-07 18:24:24.912,2,-0.09,0.11,0.77,-33.7578,73.9996,58.9314,175,75
2026-05-07 18:24:24.923,2,-0.08,0.08,0.79,-31.2578,67.3596,62.221399999999996,175,75
2026-05-07 18:24:24.946,2,-0.09,0.03,0.78,-31.067800000000002,51.1396,63.9314,175,75
2026-05-07 18:24:24.946,2,-0.15,0.0,0.73,-32.287800000000004,43.9396,63.3814,175,75
2026-05-07 18:24:24.958,2,-0.26,-0.02,0.66,-34.297799999999995,43.0296,63.9914,175,75
2026-05-07 18:24:24.998,2,-0.59,-0.1,0.46,-40.827799999999996,75.9496,74.97139999999999,175,75
2026-05-07 18:24:25.012,2,-0.6,-0.14,0.45,-41.797799999999995,87.5996,76.4914,175,75
2026-05-07 18:24:25.012,2,-0.57,-0.2,0.5,-44.3678,99.2496,78.56139999999999,175,75
2026-05-07 18:24:25.030,2,-0.57,-0.25,0.48,-48.8778,94.3696,84.0514,175,75
2026-05-07 18:24:25.049,2,-0.69,-0.29,0.36,-62.0478,76.1396,96.73140000000001,175,75
2026-05-07 18:24:25.067,2,-0.74,-0.37,0.3,-70.2178,76.9296,104.66139999999999,175,75
2026-05-07 18:24:25.067,2,-0.78,-0.47,0.26,-78.8178,94.7296,115.1514,175,75
2026-05-07 18:24:25.094,2,-0.75,-0.72,0.29,-90.2178,145.4696,136.7314,175,75
2026-05-07 18:24:25.104,2,-0.73,-0.79,0.35,-95.1578,153.5796,146.1914,175,75
2026-05-07 18:24:25.123,2,-0.5,-0.87,0.43,-106.1878,107.53960000000001,144.4214,175,75
2026-05-07 18:24:25.148,2,-0.39,-0.9,0.36,-115.0978,69.4896,140.7614,175,75
2026-05-07 18:24:25.148,2,-0.39,-0.87,0.26,-123.6278,56.0796,142.8914,175,75
2026-05-07 18:24:25.160,2,-0.47,-0.82,0.14,-134.7278,57.5996,147.1614,175,75
2026-05-07 18:24:25.178,2,-0.5,-0.86,0.01,-152.0478,114.0596,152.5314,175,75
2026-05-07 18:24:25.191,2,-0.49,-0.93,0.04,-158.81779999999998,173.5096,157.8914,175,75
2026-05-07 18:24:25.203,2,-0.46,-0.97,0.14,-163.62779999999998,222.9696,159.3614,175,75
2026-05-07 18:24:25.221,2,-0.31,-0.96,0.42,-172.95780000000002,261.68960000000004,150.3314,175,75
2026-05-07 18:24:25.234,2,-0.2,-0.92,0.6,-187.1078,226.4996,142.7714,175,75
2026-05-07 18:24:25.247,2,-0.09,-0.93,0.63,-198.87779999999998,203.5796,140.5114,175,75
2026-05-07 18:24:25.268,2,0.0,-0.92,0.6,-204.1778,194.0596,137.0414,175,75
2026-05-07 18:24:25.279,2,0.08,-0.87,0.62,-202.2278,197.1696,130.3914,175,75
2026-05-07 18:24:25.290,2,0.09,-0.8,0.62,-198.32780000000002,199.9796,122.7114,175,75
2026-05-07 18:24:25.305,2,0.09,-0.74,0.64,-197.83780000000002,199.4896,114.23140000000001,175,75
2026-05-07 18:24:25.305,2,0.07,-0.65,0.65,-197.83780000000002,199.3096,108.32140000000001,175,75
2026-05-07 18:24:25.315,2,0.09,-0.56,0.64,-194.9078,196.8096,103.50139999999999,175,75
2026-05-07 18:24:25.348,2,0.07,-0.5,0.64,-168.62779999999998,229.6696,94.23140000000001,175,75
2026-05-07 18:24:25.367,2,-0.01,-0.55,0.72,-159.4278,266.6196,89.8414,175,75
2026-05-07 18:24:25.388,2,-0.04,-0.48,0.88,-145.2178,282.2996,83.69139999999999,175,75
2026-05-07 18:24:25.401,2,0.38,-0.35,1.29,-119.2978,204.3696,51.731399999999994,175,75
2026-05-07 18:24:25.416,2,0.56,-0.26,1.39,-125.3378,123.0896,50.3314,175,75
2026-05-07 18:24:25.429,2,0.53,-0.06,1.3,-147.1678,-11.9104,58.691399999999994,175,75
2026-05-07 18:24:25.442,2,0.43,0.05,1.13,-161.7978,-95.0804,62.041399999999996,175,75
2026-05-07 18:24:25.442,2,0.31,0.12,0.81,-172.3478,-156.3604,59.7814,175,75
2026-05-07 18:24:25.454,2,0.22,0.14,0.62,-175.33780000000002,-161.6104,55.761399999999995,175,75
2026-05-07 18:24:25.466,2,0.17,0.16,0.44,-172.3478,-124.59039999999999,47.4114,175,75
2026-05-07 18:24:25.476,2,0.11,0.25,0.3,-153.68779999999998,-33.6204,42.041399999999996,175,75
2026-05-07 18:24:25.483,2,0.09,0.32,0.27,-134.7878,42.7196,38.8114,175,75
2026-05-07 18:24:25.494,2,0.12,0.36,0.34,-120.3378,111.6896,35.2714,175,75
2026-05-07 18:24:25.508,2,0.15,0.43,0.49,-108.3878,179.3096,28.441399999999998,175,75
2026-05-07 18:24:25.517,2,0.18,0.48,0.61,-99.6678,206.2596,22.771399999999996,175,75
2026-05-07 18:24:25.538,2,0.24,0.49,0.82,-77.5378,202.4196,15.211399999999998,175,75
2026-05-07 18:24:25.545,2,0.22,0.46,0.86,-70.2178,191.9296,12.161399999999997,175,75
2026-05-07 18:24:25.560,2,0.22,0.45,0.89,-62.897800000000004,178.4496,8.081399999999999,175,75
2026-05-07 18:24:25.580,2,0.28,0.52,0.96,-47.9578,127.1096,1.9213999999999984,175,75
2026-05-07 18:24:25.597,2,0.32,0.62,0.96,-39.9778,86.6896,2.531399999999998,175,75
2026-05-07 18:24:25.606,2,0.39,0.68,0.91,-31.4378,39.4296,3.9913999999999987,175,75
2026-05-07 18:24:25.635,2,0.35,0.68,0.64,-11.6178,-36.4904,-2.048600000000004,175,75
2026-05-07 18:24:25.652,2,0.31,0.69,0.55,-7.7178,-37.6404,-4.358600000000003,175,75
2026-05-07 18:24:25.665,2,0.31,0.69,0.49,-2.4078,-32.0304,-6.498600000000003,175,75
2026-05-07 18:24:25.676,2,0.33,0.69,0.41,2.3422,-28.3804,-9.5486,175,75
2026-05-07 18:24:25.694,2,0.32,0.64,0.29,14.232199999999999,6.0796,-16.558600000000006,175,75
2026-05-07 18:24:25.716,2,0.31,0.62,0.28,17.772199999999998,34.979600000000005,-19.358600000000003,175,75
2026-05-07 18:24:25.716,2,0.32,0.62,0.29,19.3522,59.7996,-22.108600000000003,175,75
2026-05-07 18:24:25.728,2,0.33,0.65,0.36,21.9122,87.1696,-23.0786,175,75
2026-05-07 18:24:25.743,2,0.35,0.65,0.42,25.882199999999997,95.2796,-25.028600000000004,175,75
2026-05-07 18:24:25.752,2,0.36,0.62,0.49,30.212200000000003,88.8796,-27.348600000000005,175,75
2026-05-07 18:24:25.771,2,0.42,0.58,0.57,32.102199999999996,42.1696,-31.738600000000005,175,75
2026-05-07 18:24:25.795,2,0.53,0.49,0.45,37.5922,-3.1304,-48.9386,175,75
2026-05-07 18:24:25.824,2,0.17,0.62,0.22,46.7922,88.1496,-78.93860000000001,175,75
2026-05-07 18:24:25.847,2,0.02,0.79,0.32,50.0222,170.2796,-67.95859999999999,175,75
2026-05-07 18:24:25.860,2,0.51,0.62,0.76,51.9822,241.8096,-47.168600000000005,175,75
2026-05-07 18:24:25.876,2,0.74,0.44,0.92,63.9922,180.9496,-51.558600000000006,175,75
2026-05-07 18:24:25.883,2,0.77,0.34,0.94,77.0422,114.7996,-58.388600000000004,175,75
2026-05-07 18:24:25.909,2,0.62,0.26,0.75,83.9922,74.6696,-72.4086,175,75
2026-05-07 18:24:25.909,2,0.47,0.3,0.59,79.6622,91.3796,-80.39860000000002,175,75
2026-05-07 18:24:25.931,2,0.17,0.51,0.43,70.76219999999999,245.8296,-77.71860000000001,175,75
2026-05-07 18:24:25.944,2,0.18,0.52,0.58,78.9322,340.4696,-68.3886,175,75
2026-05-07 18:24:25.968,2,0.49,0.46,1.19,99.2322,421.9296,-54.2386,175,75
2026-05-07 18:24:25.978,2,0.65,0.49,1.51,103.9922,395.5296,-45.08860000000001,175,75
2026-05-07 18:24:25.994,2,0.77,0.53,1.87,91.0022,267.2996,-22.958600000000004,175,75
2026-05-07 18:24:26.007,2,0.88,0.53,1.97,83.6822,174.9196,-8.568600000000004,175,75
2026-05-07 18:24:26.016,2,1.07,0.6,2.02,95.6322,47.4796,8.561399999999999,175,75
2026-05-07 18:24:26.027,2,1.15,0.41,1.96,114.6022,-49.9604,18.8114,175,75
2026-05-07 18:24:26.041,2,1.15,0.09,1.78,128.0122,-134.5304,24.231399999999997,175,75
2026-05-07 18:24:26.054,2,1.08,-0.16,1.52,140.9422,-199.9604,22.221399999999996,175,75
2026-05-07 18:24:26.065,2,0.99,-0.23,1.27,153.0722,-221.7904,11.251399999999997,175,75
2026-05-07 18:24:26.065,2,0.99,-0.21,1.01,167.3422,-207.3404,-8.568600000000004,175,75
2026-05-07 18:24:26.088,2,1.02,-0.17,0.79,176.85219999999998,-173.6804,-24.608600000000003,175,75
2026-05-07 18:24:26.088,2,0.96,-0.18,0.68,181.37220000000002,-142.0304,-34.848600000000005,175,75
2026-05-07 18:24:26.122,2,0.95,-0.3,0.63,192.16219999999998,-70.3904,-56.678599999999996,175,75
2026-05-07 18:24:26.133,2,0.99,-0.26,0.71,193.3822,-58.620400000000004,-63.0186,175,75
2026-05-07 18:24:26.144,2,0.99,-0.3,0.74,188.74220000000003,-107.2204,-65.8886,175,75
2026-05-07 18:24:26.166,2,0.93,-0.3,0.7,174.9022,-140.6904,-69.7886,175,75
2026-05-07 18:24:26.166,2,0.88,-0.22,0.63,165.7022,-150.2704,-74.7886,175,75
2026-05-07 18:24:26.182,2,0.85,-0.15,0.59,159.60219999999998,-149.8404,-80.45859999999999,175,75
2026-05-07 18:24:26.194,2,0.86,-0.14,0.55,156.12220000000002,-145.5104,-86.55860000000001,175,75
2026-05-07 18:24:26.216,2,0.84,-0.2,0.51,155.7622,-135.1404,-95.9486,175,75
2026-05-07 18:24:26.216,2,0.77,-0.22,0.47,157.5222,-121.4904,-103.5686,175,75
2026-05-07 18:24:26.227,2,0.7,-0.2,0.41,162.10219999999998,-101.2404,-111.3786,175,75
2026-05-07 18:24:26.238,2,0.58,-0.18,0.38,167.16219999999998,-76.5504,-116.0086,175,75
2026-05-07 18:24:26.251,2,0.53,-0.18,0.38,171.12220000000002,-47.8304,-119.48859999999999,175,75
2026-05-07 18:24:26.251,2,0.55,-0.18,0.41,174.29219999999998,-23.2504,-121.18860000000001,175,75
2026-05-07 18:24:26.262,2,0.55,-0.19,0.49,178.93220000000002,-8.0104,-121.7986,175,75
2026-05-07 18:24:26.273,2,0.65,-0.19,0.62,185.4522,-9.3504,-120.6386,175,75
2026-05-07 18:24:26.297,2,0.68,-0.16,0.63,188.0722,-59.900400000000005,-116.73859999999999,175,75
2026-05-07 18:24:26.297,2,0.62,-0.13,0.56,186.37220000000002,-73.8604,-116.30859999999998,175,75
2026-05-07 18:24:26.320,2,0.55,-0.1,0.44,185.2722,-73.5604,-116.3786,175,75
2026-05-07 18:24:26.320,2,0.49,-0.1,0.37,184.7222,-61.180400000000006,-115.51859999999999,175,75
2026-05-07 18:24:26.331,2,0.51,-0.13,0.35,183.99220000000003,-32.7704,-116.8586,175,75
2026-05-07 18:24:26.341,2,0.58,-0.15,0.38,183.3822,-12.950399999999998,-118.6286,175,75
2026-05-07 18:24:26.362,2,0.59,-0.15,0.43,182.9522,-8.6204,-119.4186,175,75
2026-05-07 18:24:26.374,2,0.6,-0.12,0.45,183.56220000000002,-10.5104,-119.6686,175,75
2026-05-07 18:24:26.385,2,0.58,-0.07,0.47,184.23219999999998,-14.7804,-119.2986,175,75
2026-05-07 18:24:26.398,2,0.57,-0.0,0.45,184.7222,-20.1404,-117.2886,175,75
2026-05-07 18:24:26.409,2,0.62,-0.01,0.46,186.06220000000002,-21.730400000000003,-115.5786,175,75
2026-05-07 18:24:26.425,2,0.62,-0.04,0.46,186.91219999999998,-29.900399999999998,-114.9086,175,75
2026-05-07 18:24:26.436,2,0.52,-0.02,0.42,186.61219999999997,-35.5104,-115.6386,175,75
2026-05-07 18:24:26.453,2,0.56,0.01,0.36,185.8222,-39.4104,-114.48859999999999,175,75
2026-05-07 18:24:26.465,2,0.48,-0.03,0.33,182.7722,-34.5304,-113.74859999999998,175,75
2026-05-07 18:24:26.488,2,0.52,0.1,0.31,180.0922,-13.250399999999999,-112.95859999999999,175,75
2026-05-07 18:24:26.506,2,0.59,0.18,0.36,178.2022,-9.9604,-111.8586,175,75
2026-05-07 18:24:26.506,2,0.63,0.19,0.41,174.66219999999998,-12.090399999999999,-109.48859999999999,175,75
2026-05-07 18:24:26.522,2,0.64,0.16,0.42,172.5922,-23.9204,-108.6286,175,75
2026-05-07 18:24:26.555,2,0.49,0.2,0.3,169.41219999999998,-28.440399999999997,-109.3586,175,75
2026-05-07 18:24:26.567,2,0.48,0.27,0.28,168.81220000000002,-13.0704,-108.74859999999998,175,75
2026-05-07 18:24:26.569,2,0.56,0.3,0.33,168.4422,-6.1204,-107.1086,175,75
2026-05-07 18:24:26.625,2,0.53,0.29,0.25,169.23219999999998,-13.130399999999998,-105.02859999999998,175,75
2026-05-07 18:24:26.660,2,0.52,0.29,0.22,167.4622,-11.6704,-103.74859999999998,175,75
2026-05-07 18:24:26.702,2,0.52,0.33,0.33,166.91219999999998,-7.520399999999999,-98.5686,175,75
2026-05-07 18:24:26.724,2,0.44,0.4,0.24,174.41219999999998,-18.4404,-96.3786,175,75
2026-05-07 18:24:26.754,2,0.45,0.55,0.18,167.4022,-21.8504,-92.4086,175,75
2026-05-07 18:24:26.765,2,0.5,0.48,0.2,163.4422,-33.1304,-92.2886,175,75
2026-05-07 18:24:26.768,2,0.51,0.42,0.21,158.2022,-44.5904,-93.01859999999999,175,75
2026-05-07 18:24:26.820,2,0.48,0.61,0.17,152.7122,-37.5804,-97.1086,175,75
2026-05-07 18:24:26.820,2,0.48,0.64,0.15,147.16219999999998,-39.2304,-94.2986,175,75
2026-05-07 18:24:26.834,2,0.52,0.64,0.12,139.54219999999998,-42.2204,-90.51859999999999,175,75
2026-05-07 18:24:26.844,2,0.51,0.6,0.12,133.0122,-40.6304,-88.80860000000001,175,75
2026-05-07 18:24:26.859,2,0.54,0.6,0.16,130.7622,-36.9704,-89.11860000000001,175,75
2026-05-07 18:24:26.872,2,0.54,0.6,0.21,130.1522,-41.1204,-90.33860000000001,175,75
2026-05-07 18:24:26.883,2,0.5,0.62,0.23,127.1022,-53.130399999999995,-91.55860000000001,175,75
2026-05-07 18:24:26.894,2,0.52,0.64,0.22,122.3422,-65.4504,-91.55860000000001,175,75
2026-05-07 18:24:26.923,2,0.44,0.62,0.07,115.6322,-67.5204,-94.7286,175,75
2026-05-07 18:24:26.935,2,0.44,0.62,0.01,116.2422,-59.5904,-97.71860000000001,175,75
2026-05-07 18:24:26.957,2,0.41,0.71,-0.0,119.7822,-18.5604,-104.48859999999999,175,75
2026-05-07 18:24:26.957,2,0.41,0.7,0.04,119.7822,-1.1204,-107.2886,175,75
2026-05-07 18:24:26.976,2,0.37,0.68,0.08,119.05220000000001,1.1395999999999997,-106.9186,175,75
2026-05-07 18:24:26.990,2,0.33,0.71,0.08,114.8422,-10.630399999999998,-104.48859999999999,175,75
2026-05-07 18:24:27.033,2,0.37,0.68,-0.04,103.01219999999999,-15.3904,-99.23859999999999,175,75
2026-05-07 18:24:27.045,2,0.33,0.69,-0.07,102.6522,-4.720399999999998,-99.2986,175,75
2026-05-07 18:24:27.056,2,0.35,0.75,-0.05,102.2822,10.6496,-98.6286,175,75
2026-05-07 18:24:27.064,2,0.34,0.77,-0.03,100.0222,14.7996,-97.0486,175,75
2026-05-07 18:24:27.087,2,0.32,0.76,-0.03,97.5222,13.0296,-95.02860000000001,175,75
2026-05-07 18:24:27.102,2,0.32,0.74,0.0,94.1122,11.499600000000001,-93.01859999999999,175,75
2026-05-07 18:24:27.115,2,0.29,0.74,0.03,92.4022,8.7596,-91.49860000000001,175,75
2026-05-07 18:24:27.125,2,0.29,0.75,0.04,93.4422,7.2296000000000005,-90.21860000000001,175,75
2026-05-07 18:24:27.135,2,0.26,0.75,0.05,95.2722,9.4896,-88.93860000000001,175,75
2026-05-07 18:24:27.155,2,0.23,0.76,0.05,99.1122,15.5296,-86.73859999999999,175,75
2026-05-07 18:24:27.165,2,0.23,0.81,0.04,101.9822,19.4896,-82.83860000000001,175,75
2026-05-07 18:24:27.184,2,0.25,0.89,0.07,103.4422,22.3596,-73.8786,175,75
2026-05-07 18:24:27.199,2,0.26,0.84,0.13,103.2022,18.209600000000002,-71.30860000000001,175,75
2026-05-07 18:24:27.210,2,0.31,0.77,0.24,102.1622,-10.810400000000001,-68.8786,175,75
2026-05-07 18:24:27.223,2,0.28,0.79,0.22,102.5222,-32.6404,-68.26859999999999,175,75
2026-05-07 18:24:27.249,2,0.08,0.83,-0.02,99.2322,-31.4904,-60.028600000000004,175,75
2026-05-07 18:24:27.260,2,0.1,0.84,-0.05,98.6822,-0.39039999999999964,-56.068599999999996,175,75
2026-05-07 18:24:27.284,2,0.28,0.8,0.14,100.9422,34.1896,-54.2386,175,75
2026-05-07 18:24:27.298,2,0.33,0.78,0.26,103.3222,18.6996,-53.6286,175,75
2026-05-07 18:24:27.298,2,0.31,0.77,0.32,107.7722,0.7096,-51.678599999999996,175,75
2026-05-07 18:24:27.324,2,0.19,0.82,0.23,106.5522,-48.6204,-41.9886,175,75
2026-05-07 18:24:27.371,2,0.18,0.74,0.29,108.01219999999999,-52.0904,-41.308600000000006,175,75
2026-05-07 18:24:27.385,2,0.09,0.77,0.29,108.0722,-87.7004,-36.8586,175,75
2026-05-07 18:24:27.402,2,0.03,0.79,0.2,105.8222,-95.9404,-32.778600000000004,175,75
2026-05-07 18:24:27.415,2,0.0,0.8,0.13,106.4322,-86.5504,-29.1186,175,75
2026-05-07 18:24:27.428,2,0.09,0.72,0.07,111.1222,-61.240399999999994,-26.988600000000005,175,75
2026-05-07 18:24:27.428,2,0.11,0.64,0.08,112.2822,-37.4604,-27.778600000000004,175,75
2026-05-07 18:24:27.439,2,0.13,0.63,0.11,112.8922,-21.3604,-31.308600000000006,175,75
2026-05-07 18:24:27.452,2,0.13,0.69,0.16,115.2122,-17.7004,-34.488600000000005,175,75
2026-05-07 18:24:27.462,2,0.07,0.73,0.2,117.5222,-19.7804,-35.3986,175,75
2026-05-07 18:24:27.470,2,0.03,0.73,0.21,117.4022,-17.8304,-33.9386,175,75
2026-05-07 18:24:27.486,2,-0.08,0.68,0.18,116.9822,-11.060400000000001,-28.448600000000006,175,75
2026-05-07 18:24:27.513,2,-0.15,0.58,0.13,118.5022,-1.9103999999999992,-14.788600000000002,175,75
2026-05-07 18:24:27.527,2,0.15,0.51,0.14,125.0922,3.329600000000001,-7.528600000000004,175,75
2026-05-07 18:24:27.542,2,0.13,0.46,0.2,131.06220000000002,-0.8803999999999998,-8.628600000000006,175,75
2026-05-07 18:24:27.554,2,0.01,0.45,0.25,140.7622,-28.3804,-2.838600000000003,175,75
2026-05-07 18:24:27.563,2,-0.17,0.43,0.19,138.81220000000002,-39.4704,5.271399999999996,175,75
2026-05-07 18:24:27.629,2,0.08,0.19,0.25,150.5122,-4.9604,27.041399999999996,175,75
2026-05-07 18:24:27.651,2,-0.01,0.05,0.41,155.8222,-43.0104,30.451399999999996,175,75
2026-05-07 18:24:27.735,2,-0.01,-0.15,0.48,186.31220000000002,-79.96039999999999,60.6414,175,75
2026-05-07 18:24:27.757,2,-0.15,-0.13,0.16,173.50220000000002,-142.5204,65.5114,175,75
2026-05-07 18:24:27.767,2,-0.23,-0.15,0.02,167.7722,-144.5904,65.03139999999999,175,75
2026-05-07 18:24:27.774,2,-0.25,-0.31,-0.09,169.23219999999998,-65.2004,66.4314,175,75
2026-05-07 18:24:27.814,2,0.06,-0.38,0.18,162.8322,-6.790399999999998,65.4514,175,75
2026-05-07 18:24:27.824,2,0.11,-0.38,0.23,158.0122,-34.8404,67.7714,175,75
2026-05-07 18:24:27.835,2,0.04,-0.41,0.17,147.16219999999998,-89.7804,71.3714,175,75
2026-05-07 18:24:27.846,2,-0.11,-0.4,-0.06,133.62220000000002,-107.9504,62.7114,175,75
2026-05-07 18:24:27.863,2,-0.11,-0.41,-0.14,132.4622,-85.6304,58.2014,175,75
2026-05-07 18:24:27.875,2,-0.1,-0.47,-0.19,126.7922,-44.2304,55.511399999999995,175,75
2026-05-07 18:24:27.911,2,0.01,-0.39,-0.1,86.3722,34.3096,43.621399999999994,175,75
2026-05-07 18:24:27.925,2,-0.01,-0.33,-0.02,78.2022,50.4696,43.871399999999994,175,75
2026-05-07 18:24:27.968,2,-0.04,-0.4,0.18,34.1122,68.9996,50.151399999999995,175,75
2026-05-07 18:24:27.984,2,-0.0,-0.35,0.3,30.1522,85.1596,51.2514,175,75
2026-05-07 18:24:27.997,2,0.01,-0.31,0.34,27.5922,81.1396,50.9414,175,75
2026-05-07 18:24:28.007,2,0.08,-0.27,0.41,25.452199999999998,63.0296,50.09139999999999,175,75
2026-05-07 18:24:28.031,2,0.03,-0.21,0.46,18.9922,36.869600000000005,53.7514,175,75
2026-05-07 18:24:28.044,2,-0.03,-0.17,0.49,11.982199999999999,38.3296,52.7114,175,75
2026-05-07 18:24:28.067,2,-0.06,-0.19,0.57,-0.45780000000000065,48.6396,54.6014,175,75
2026-05-07 18:24:28.070,2,-0.08,-0.26,0.59,-6.3178,49.1896,56.731399999999994,175,75
2026-05-07 18:24:28.080,2,-0.15,-0.25,0.43,-14.0578,30.9496,63.8114,175,75
2026-05-07 18:24:28.098,2,0.02,-0.22,0.12,-34.9778,20.709600000000002,39.6014,175,75
2026-05-07 18:24:28.112,2,0.31,-0.27,-0.18,-47.5378,69.9196,20.151399999999995,175,75
2026-05-07 18:24:28.125,2,-0.04,-0.23,-0.12,-28.8778,188.0296,21.371399999999998,175,75
2026-05-07 18:24:28.150,2,0.34,0.05,0.8,-5.2178,230.0996,-10.458600000000004,175,75
2026-05-07 18:24:28.161,2,0.28,0.13,1.07,-25.2778,139.4896,-2.1686000000000014,175,75
2026-05-07 18:24:28.177,2,0.29,0.11,1.18,-41.6178,49.2496,11.981399999999997,175,75
2026-05-07 18:24:28.179,2,0.24,0.08,1.06,-43.4478,-32.0904,24.541399999999996,175,75
2026-05-07 18:24:28.195,2,0.17,0.04,0.9,-39.787800000000004,-73.5004,26.251399999999997,175,75
2026-05-07 18:24:28.219,2,0.03,0.02,0.49,-33.7578,-49.050399999999996,10.941399999999998,175,75
2026-05-07 18:24:28.223,2,0.04,0.04,0.47,-21.9878,-10.080400000000001,8.501399999999997,175,75
2026-05-07 18:24:28.252,2,0.22,-0.17,0.7,-7.4078,11.9296,1.8613999999999962,175,75
2026-05-07 18:24:28.264,2,0.2,-0.17,0.72,-12.107800000000001,-11.3004,-0.3386000000000031,175,75
2026-05-07 18:24:28.275,2,0.07,-0.03,0.58,-18.6278,-59.7204,0.3313999999999986,175,75
2026-05-07 18:24:28.285,2,0.06,-0.03,0.5,-21.0678,-72.5804,2.411399999999997,175,75
2026-05-07 18:24:28.316,2,0.08,-0.09,0.41,-27.227800000000002,-75.5104,1.4313999999999965,175,75
2026-05-07 18:24:28.316,2,0.05,-0.1,0.39,-25.8878,-69.4104,1.3713999999999977,175,75
2026-05-07 18:24:28.327,2,0.06,-0.08,0.39,-27.7778,-69.96039999999999,-2.2886000000000024,175,75
2026-05-07 18:24:28.338,2,0.12,-0.07,0.39,-34.7278,-73.6804,-5.518600000000003,175,75
2026-05-07 18:24:28.376,2,0.12,-0.09,0.15,-66.4978,-106.3604,-11.7986,175,75
2026-05-07 18:24:28.388,2,0.14,-0.12,0.06,-74.5478,-106.0004,-13.568600000000004,175,75
2026-05-07 18:24:28.410,2,0.07,-0.37,-0.33,-85.3378,-19.470399999999998,-35.698600000000006,175,75
2026-05-07 18:24:28.422,2,0.24,-0.43,-0.39,-93.3278,15.4696,-52.9586,175,75
2026-05-07 18:24:28.442,2,0.26,-0.44,-0.44,-104.7878,39.1896,-65.08860000000001,175,75
2026-05-07 18:24:28.454,2,0.23,-0.44,-0.53,-113.8778,91.4396,-78.80860000000001,175,75
2026-05-07 18:24:28.458,2,0.38,-0.47,-0.6,-115.1578,153.6396,-95.51859999999999,175,75
2026-05-07 18:24:28.473,2,0.46,-0.54,-0.49,-117.6578,214.4296,-111.3786,175,75
2026-05-07 18:24:28.497,2,0.59,-0.59,-0.33,-117.2278,246.3196,-124.2986,175,75
2026-05-07 18:24:28.526,2,0.68,-0.75,0.02,-117.0478,78.5096,-174.7886,175,75
2026-05-07 18:24:28.570,2,0.35,-0.92,-0.12,-100.2778,127.7196,-216.55859999999998,175,75
2026-05-07 18:24:28.606,2,0.47,-0.81,0.36,-36.3778,160.5296,-243.07860000000002,175,75
2026-05-07 18:24:28.631,2,0.27,-0.72,0.4,-12.2878,86.6896,-248.50859999999997,175,75
2026-05-07 18:24:28.631,2,0.13,-0.62,0.3,-14.607800000000001,65.58959999999999,-250.3386,175,75
2026-05-07 18:24:28.653,2,0.07,-0.47,0.2,-12.777800000000001,75.2196,-248.50859999999997,175,75
2026-05-07 18:24:28.653,2,0.04,-0.36,0.21,-5.3378000000000005,102.0496,-242.7786,175,75
2026-05-07 18:24:28.665,2,0.08,-0.28,0.29,8.322199999999999,139.3696,-234.5486,175,75
2026-05-07 18:24:28.677,2,0.13,-0.26,0.42,22.2222,165.5296,-226.7986,175,75
2026-05-07 18:24:28.688,2,0.17,-0.24,0.58,37.8322,181.5596,-219.1786,175,75
2026-05-07 18:24:28.691,2,0.28,-0.22,0.71,50.2122,176.6896,-217.4686,175,75
2026-05-07 18:24:28.720,2,0.19,-0.06,0.87,74.9022,103.2096,-196.1886,175,75
2026-05-07 18:24:28.747,2,-0.08,0.17,0.78,81.0622,8.4496,-171.1886,175,75
2026-05-07 18:24:28.757,2,-0.1,0.24,0.76,82.9522,12.7196,-164.2986,175,75
2026-05-07 18:24:28.770,2,-0.07,0.29,0.74,88.01219999999999,20.9496,-155.02859999999998,175,75
2026-05-07 18:24:28.779,2,-0.08,0.33,0.71,91.5522,26.0096,-145.33859999999999,175,75
2026-05-07 18:24:28.796,2,-0.09,0.41,0.72,92.9522,35.589600000000004,-133.99859999999998,175,75
2026-05-07 18:24:28.803,2,-0.06,0.5,0.73,93.8722,42.479600000000005,-124.11859999999999,175,75
2026-05-07 18:24:28.813,2,-0.04,0.57,0.75,95.4522,43.9396,-114.7886,175,75
2026-05-07 18:24:28.823,2,-0.06,0.62,0.82,99.0522,47.9696,-101.98859999999999,175,75
2026-05-07 18:24:28.836,2,-0.08,0.63,0.86,103.9922,40.4096,-89.6086,175,75
2026-05-07 18:24:28.849,2,-0.1,0.65,0.91,106.1822,7.4196,-73.01859999999999,175,75
2026-05-07 18:24:28.859,2,-0.08,0.71,0.86,91.7922,-66.1204,-54.5486,175,75
2026-05-07 18:24:28.868,2,-0.06,0.71,0.79,85.4522,-77.8904,-49.418600000000005,175,75
2026-05-07 18:24:28.893,2,-0.08,0.72,0.69,85.7022,-74.96039999999999,-45.028600000000004,175,75
2026-05-07 18:24:28.893,2,-0.09,0.79,0.63,89.2922,-63.3104,-41.4986,175,75
2026-05-07 18:24:28.904,2,-0.08,0.91,0.57,91.6722,-48.5604,-36.4386,175,75
2026-05-07 18:24:28.915,2,-0.12,1.01,0.54,92.7722,-26.6104,-26.4386,175,75
2026-05-07 18:24:28.938,2,-0.06,1.0,0.55,86.0622,13.329600000000001,-10.888600000000004,175,75
2026-05-07 18:24:28.950,2,0.05,0.95,0.54,76.8522,13.3896,-4.488600000000002,175,75
2026-05-07 18:24:28.961,2,0.05,0.93,0.57,79.1122,16.8096,-0.2786000000000044,175,75
2026-05-07 18:24:28.984,2,0.19,0.92,0.64,84.3522,25.4096,11.861399999999998,175,75
2026-05-07 18:24:29.018,2,0.23,1.15,0.6,72.9522,-0.8103999999999996,23.621399999999998,175,75
2026-05-07 18:24:29.030,2,0.35,1.1,0.6,74.6022,-13.0104,29.661399999999997,175,75
2026-05-07 18:24:29.057,2,0.54,1.02,0.55,69.1722,-46.8504,27.341399999999997,175,75
2026-05-07 18:24:29.057,2,0.65,1.03,0.45,60.212199999999996,-75.5104,21.001399999999997,175,75
2026-05-07 18:24:29.070,2,0.6,1.07,0.4,56.37220000000001,-74.0504,17.281399999999998,175,75
2026-05-07 18:24:29.089,2,0.45,1.11,0.32,53.8122,-6.7303999999999995,21.371399999999998,175,75
2026-05-07 18:24:29.100,2,0.46,1.12,0.35,47.4022,24.1196,24.661399999999997,175,75
2026-05-07 18:24:29.108,2,0.61,1.06,0.37,45.6322,23.9396,25.211399999999998,175,75
2026-05-07 18:24:29.138,2,0.69,1.03,0.41,37.8922,-18.0704,24.601399999999998,175,75
2026-05-07 18:24:29.149,2,0.67,1.07,0.38,29.962200000000003,-29.3504,25.271399999999996,175,75
2026-05-07 18:24:29.163,2,0.59,1.07,0.27,12.1022,-23.3104,33.5614,175,75
2026-05-07 18:24:29.180,2,0.54,0.97,0.24,3.4421999999999997,-9.5304,36.6714,175,75
2026-05-07 18:24:29.192,2,0.65,0.89,0.28,2.7121999999999993,4.4896,36.2514,175,75
2026-05-07 18:24:29.210,2,0.76,0.88,0.33,5.212199999999999,8.2696,33.5614,175,75
2026-05-07 18:24:29.225,2,0.81,0.9,0.38,3.7422000000000004,-2.8903999999999996,30.5814,175,75
2026-05-07 18:24:29.235,2,0.81,0.93,0.41,-4.3678,-12.220399999999998,29.781399999999998,175,75
2026-05-07 18:24:29.246,2,0.78,0.92,0.42,-10.3378,-20.200400000000002,29.481399999999997,175,75
2026-05-07 18:24:29.250,2,0.72,0.89,0.39,-14.9778,-29.5304,30.7614,175,75
2026-05-07 18:24:29.286,2,0.69,0.91,0.21,-19.9078,-38.6804,19.301399999999997,175,75
2026-05-07 18:24:29.305,2,0.68,0.86,0.27,-21.0678,11.989600000000001,12.951399999999998,175,75
2026-05-07 18:24:29.315,2,0.74,0.87,0.33,-22.1678,18.6996,11.251399999999997,175,75
2026-05-07 18:24:29.332,2,0.77,0.9,0.37,-24.727800000000002,9.5496,9.911399999999997,175,75
2026-05-07 18:24:29.356,2,0.7,0.86,0.3,-31.1278,-44.7204,4.171399999999998,175,75
2026-05-07 18:24:29.369,2,0.62,0.85,0.22,-32.6578,-48.6204,2.951399999999996,175,75
2026-05-07 18:24:29.372,2,0.56,0.86,0.17,-32.8378,-23.620399999999997,3.811399999999999,175,75
2026-05-07 18:24:29.385,2,0.63,0.83,0.19,-33.7578,12.7196,4.0513999999999974,175,75
2026-05-07 18:24:29.414,2,0.72,0.87,0.32,-36.187799999999996,16.4396,1.9213999999999984,175,75
2026-05-07 18:24:29.429,2,0.72,0.9,0.37,-39.787800000000004,-1.420399999999999,2.041399999999996,175,75
2026-05-07 18:24:29.439,2,0.69,0.9,0.35,-45.0378,-24.230400000000003,0.701399999999996,175,75
2026-05-07 18:24:29.456,2,0.63,0.93,0.25,-46.9278,-20.8804,0.0913999999999966,175,75
2026-05-07 18:24:29.478,2,0.59,0.93,0.3,-41.437799999999996,40.5296,1.4913999999999987,175,75
2026-05-07 18:24:29.491,2,0.66,0.92,0.42,-38.8778,59.0596,2.3413999999999966,175,75
2026-05-07 18:24:29.491,2,0.68,0.91,0.53,-38.2078,58.1496,3.9913999999999987,175,75
2026-05-07 18:24:29.505,2,0.69,0.92,0.58,-37.1078,42.479600000000005,3.691399999999998,175,75
2026-05-07 18:24:29.517,2,0.73,0.92,0.61,-38.0178,-7.4604,3.691399999999998,175,75
2026-05-07 18:24:29.538,2,0.72,0.9,0.56,-42.1678,-60.020399999999995,2.5913999999999966,175,75
2026-05-07 18:24:29.542,2,0.68,0.89,0.45,-42.047799999999995,-77.4004,1.4313999999999965,175,75
2026-05-07 18:24:29.566,2,0.55,0.84,0.27,-36.187799999999996,-12.770399999999999,2.281399999999998,175,75
2026-05-07 18:24:29.602,2,0.62,0.87,0.41,-33.0178,41.2596,4.781399999999998,175,75
2026-05-07 18:24:29.619,2,0.61,0.88,0.48,-33.2078,32.6596,6.061399999999999,175,75
2026-05-07 18:24:29.619,2,0.64,0.87,0.5,-34.3678,11.1396,6.921399999999998,175,75
2026-05-07 18:24:29.631,2,0.66,0.87,0.5,-36.437799999999996,-16.790399999999998,7.341399999999997,175,75
2026-05-07 18:24:29.645,2,0.64,0.87,0.45,-36.8678,-31.300399999999996,7.341399999999997,175,75
2026-05-07 18:24:29.657,2,0.63,0.87,0.36,-35.4578,-32.5204,7.711399999999998,175,75
2026-05-07 18:24:29.685,2,0.55,0.91,0.28,-33.817800000000005,-8.380399999999998,9.721399999999997,175,75
2026-05-07 18:24:29.695,2,0.53,0.91,0.27,-31.7978,20.709600000000002,10.941399999999998,175,75
2026-05-07 18:24:29.706,2,0.55,0.92,0.3,-28.3878,42.4196,10.391399999999997,175,75
2026-05-07 18:24:29.718,2,0.58,0.93,0.34,-26.3778,56.9296,10.941399999999998,175,75
2026-05-07 18:24:29.718,2,0.61,0.92,0.4,-25.6478,63.9396,10.941399999999998,175,75
2026-05-07 18:24:29.752,2,0.59,1.0,0.47,-19.427799999999998,33.7596,9.911399999999997,175,75
2026-05-07 18:24:29.767,2,0.55,1.05,0.46,-14.2378,26.1396,11.311399999999997,175,75
2026-05-07 18:24:29.785,2,0.52,1.09,0.47,-4.7278,45.0996,17.221399999999996,175,75
2026-05-07 18:24:29.790,2,0.66,1.07,0.45,-2.7778,41.619600000000005,17.041399999999996,175,75
2026-05-07 18:24:29.804,2,0.7,1.03,0.43,-3.2078000000000007,30.279600000000002,16.4914,175,75
2026-05-07 18:24:29.819,2,0.61,0.98,0.41,1.062199999999999,31.2596,14.911399999999997,175,75
2026-05-07 18:24:29.832,2,0.55,0.95,0.41,10.2122,51.9296,15.331399999999997,175,75
2026-05-07 18:24:29.844,2,0.57,0.95,0.46,15.272199999999998,66.1396,16.551399999999997,175,75
2026-05-07 18:24:29.855,2,0.55,0.94,0.52,16.2422,70.8896,17.161399999999997,175,75
2026-05-07 18:24:29.866,2,0.61,0.92,0.57,17.522199999999998,64.2496,17.281399999999998,175,75
2026-05-07 18:24:29.882,2,0.7,0.9,0.56,19.9622,32.6596,12.221399999999997,175,75
2026-05-07 18:24:29.882,2,0.82,0.9,0.48,20.0922,-15.630399999999998,5.641399999999997,175,75
2026-05-07 18:24:29.899,2,0.68,0.89,0.4,22.1622,-31.6104,-0.0286000000000044,175,75
2026-05-07 18:24:29.927,2,0.46,0.96,0.39,37.8322,72.7196,6.061399999999999,175,75
2026-05-07 18:24:29.937,2,0.62,0.98,0.47,39.7222,112.8396,9.171399999999998,175,75
2026-05-07 18:24:29.961,2,0.72,0.94,0.64,39.5422,101.4396,8.811399999999999,175,75
2026-05-07 18:24:29.974,2,0.83,0.91,0.72,48.3822,65.33959999999999,7.161399999999997,175,75
2026-05-07 18:24:30.016,2,0.71,0.94,0.67,48.7422,23.3896,10.511399999999997,175,75
2026-05-07 18:24:30.026,2,0.69,0.95,0.67,52.7122,31.9296,14.971399999999997,175,75
2026-05-07 18:24:30.038,2,0.72,0.95,0.71,55.822199999999995,46.3796,16.981399999999997,175,75
2026-05-07 18:24:30.056,2,0.93,0.86,0.69,48.1322,21.0096,11.801399999999997,175,75
2026-05-07 18:24:30.067,2,0.87,0.78,0.65,45.5122,6.8096000000000005,4.721399999999996,175,75
2026-05-07 18:24:30.081,2,0.83,0.72,0.62,47.7722,25.4096,3.0813999999999986,175,75
2026-05-07 18:24:30.092,2,0.73,0.7,0.65,48.0722,46.6196,5.881399999999996,175,75
2026-05-07 18:24:30.104,2,0.76,0.7,0.74,46.4922,61.7496,8.321399999999997,175,75
2026-05-07 18:24:30.104,2,0.81,0.71,0.83,43.9322,60.6496,11.921399999999997,175,75
2026-05-07 18:24:30.123,2,0.92,0.68,0.91,40.3322,28.6996,8.991399999999999,175,75
2026-05-07 18:24:30.136,2,0.93,0.67,0.85,32.1622,-26.2404,2.4713999999999956,175,75
2026-05-07 18:24:30.146,2,0.8,0.68,0.75,28.6222,-40.3904,-1.798600000000004,175,75
2026-05-07 18:24:30.157,2,0.64,0.7,0.63,31.7322,-13.6204,-0.39860000000000184,175,75
2026-05-07 18:24:30.169,2,0.64,0.71,0.63,33.7422,18.3296,1.061399999999999,175,75
2026-05-07 18:24:30.181,2,0.71,0.71,0.7,34.6622,46.9296,4.3013999999999974,175,75
2026-05-07 18:24:30.194,2,0.78,0.69,0.8,34.352199999999996,55.5896,3.3813999999999957,175,75
2026-05-07 18:24:30.205,2,0.89,0.67,0.84,29.4822,31.3196,-0.7686000000000028,175,75
2026-05-07 18:24:30.212,2,0.8,0.68,0.81,20.3922,-9.1704,-4.668600000000001,175,75
2026-05-07 18:24:30.225,2,0.75,0.69,0.73,17.0422,-17.4604,-6.378600000000002,175,75
2026-05-07 18:24:30.240,2,0.66,0.7,0.66,11.612200000000001,2.3596000000000004,-5.9486000000000026,175,75
2026-05-07 18:24:30.262,2,0.69,0.73,0.69,13.5622,28.3896,-2.348600000000001,175,75
2026-05-07 18:24:30.287,2,0.73,0.75,0.79,8.072199999999999,22.9096,0.941399999999998,175,75
2026-05-07 18:24:30.300,2,0.72,0.74,0.81,5.5722000000000005,18.3896,1.4913999999999987,175,75
2026-05-07 18:24:30.300,2,0.75,0.73,0.78,4.232199999999999,11.8696,0.5113999999999983,175,75
2026-05-07 18:24:30.311,2,0.77,0.74,0.76,1.4322,4.6096,0.3313999999999986,175,75
2026-05-07 18:24:30.324,2,0.7,0.74,0.75,0.392199999999999,7.599600000000001,0.6413999999999973,175,75
2026-05-07 18:24:30.339,2,0.7,0.74,0.75,1.3721999999999994,15.4696,1.2513999999999967,175,75
2026-05-07 18:24:30.354,2,0.76,0.73,0.81,0.7622,12.8396,0.5113999999999983,175,75
2026-05-07 18:24:30.366,2,0.77,0.7,0.82,-1.7378,3.2696000000000005,-1.2486000000000033,175,75
2026-05-07 18:24:30.377,2,0.74,0.69,0.8,-3.6878,-3.4404000000000003,-2.898600000000002,175,75
2026-05-07 18:24:30.406,2,0.7,0.72,0.75,-2.5378000000000007,7.4196,-3.6286000000000023,175,75
2026-05-07 18:24:30.417,2,0.7,0.73,0.75,-3.0178000000000003,13.6996,-3.5686000000000035,175,75
2026-05-07 18:24:30.429,2,0.7,0.74,0.75,-4.9078,19.7996,-2.1686000000000014,175,75
2026-05-07 18:24:30.433,2,0.71,0.74,0.78,-7.1678,25.1596,-1.438600000000001,175,75
2026-05-07 18:24:30.444,2,0.77,0.74,0.8,-9.7878,20.8896,-1.558600000000002,175,75
2026-05-07 18:24:30.454,2,0.81,0.75,0.8,-13.1478,8.9396,-3.7486000000000033,175,75
2026-05-07 18:24:30.476,2,0.81,0.75,0.79,-16.5578,-5.1404,-5.828600000000002,175,75
2026-05-07 18:24:30.491,2,0.77,0.77,0.75,-18.2078,-10.270399999999999,-7.528600000000004,175,75
2026-05-07 18:24:30.502,2,0.79,0.84,0.73,-17.5378,0.7096,-10.028600000000004,175,75
2026-05-07 18:24:30.514,2,0.75,0.86,0.74,-16.6178,9.1196,-11.738600000000005,175,75
2026-05-07 18:24:30.520,2,0.72,0.86,0.75,-14.2378,17.6596,-12.468600000000002,175,75
2026-05-07 18:24:30.531,2,0.7,0.87,0.8,-10.3378,28.5096,-11.558600000000006,175,75
2026-05-07 18:24:30.548,2,0.72,0.88,0.86,-6.7378,32.479600000000005,-10.218600000000002,175,75
2026-05-07 18:24:30.559,2,0.75,0.87,0.92,-4.2378,26.7496,-10.5186,175,75
2026-05-07 18:24:30.566,2,0.73,0.86,0.95,-2.4778000000000002,7.839600000000001,-11.068600000000004,175,75
2026-05-07 18:24:30.574,2,0.73,0.86,0.95,-0.8878000000000004,-14.0504,-11.738600000000005,175,75
2026-05-07 18:24:30.617,2,0.7,0.84,0.81,2.5922,-41.550399999999996,-11.128600000000006,175,75
2026-05-07 18:24:30.638,2,0.61,0.87,0.72,6.372199999999999,-11.1204,-9.058600000000006,175,75
2026-05-07 18:24:30.649,2,0.64,0.88,0.72,9.662199999999999,5.4096,-7.168600000000005,175,75
2026-05-07 18:24:30.660,2,0.68,0.89,0.77,13.132200000000001,17.1696,-5.578600000000002,175,75
2026-05-07 18:24:30.670,2,0.69,0.89,0.8,15.2122,17.6596,-4.788600000000002,175,75
2026-05-07 18:24:30.691,2,0.72,0.87,0.82,13.502199999999998,-1.9103999999999992,-5.028600000000004,175,75
2026-05-07 18:24:30.715,2,0.7,0.9,0.76,13.682199999999998,-2.090399999999999,-6.188600000000001,175,75
2026-05-07 18:24:30.734,2,0.73,0.89,0.77,17.7122,16.0096,-6.0686000000000035,175,75
2026-05-07 18:24:30.759,2,0.73,0.87,0.82,17.3422,20.7696,-5.088600000000003,175,75
2026-05-07 18:24:30.770,2,0.74,0.85,0.82,17.4022,15.409600000000001,-3.8786000000000023,175,75
2026-05-07 18:24:30.829,2,0.74,0.81,0.84,14.662199999999999,4.6696,-5.278600000000004,175,75
2026-05-07 18:24:30.854,2,0.71,0.81,0.89,14.9622,2.839600000000001,-3.808600000000002,175,75
2026-05-07 18:24:30.858,2,0.72,0.81,0.91,14.7822,-1.1803999999999988,-3.0786000000000016,175,75
2026-05-07 18:24:30.877,2,0.74,0.82,0.89,13.682199999999998,-6.6103999999999985,-2.958600000000004,175,75
2026-05-07 18:24:30.879,2,0.73,0.84,0.84,12.342199999999998,-8.560400000000001,-3.3286000000000016,175,75
2026-05-07 18:24:30.944,2,0.74,0.85,0.87,11.432199999999998,17.599600000000002,-1.1286000000000023,175,75
2026-05-07 18:24:30.952,2,0.74,0.85,0.85,10.392199999999999,12.7196,-0.6386000000000038,175,75
2026-05-07 18:24:30.965,2,0.73,0.87,0.85,9.1722,8.4496,0.15139999999999887,175,75
2026-05-07 18:24:30.977,2,0.71,0.88,0.84,8.9922,9.249600000000001,1.4913999999999987,175,75
2026-05-07 18:24:30.989,2,0.73,0.85,0.85,9.7222,11.9296,2.041399999999996,175,75
2026-05-07 18:24:31.014,2,0.72,0.85,0.83,9.292200000000001,23.6396,2.651399999999999,175,75
2026-05-07 18:24:31.038,2,0.73,0.83,0.89,11.0622,32.6596,3.8713999999999977,175,75
2026-05-07 18:24:31.049,2,0.75,0.82,0.92,9.9622,26.1396,3.8713999999999977,175,75
2026-05-07 18:24:31.100,2,0.74,0.8,0.87,3.3222000000000005,3.4496,0.701399999999996,175,75
2026-05-07 18:24:31.102,2,0.74,0.81,0.88,3.0722000000000005,7.299600000000001,0.5813999999999986,175,75
2026-05-07 18:24:31.147,2,0.7,0.83,0.88,1.0022000000000002,3.2096,0.031399999999997874,175,75
2026-05-07 18:24:31.147,2,0.77,0.82,0.87,-0.33779999999999966,0.03960000000000008,-1.8586000000000027,175,75
2026-05-07 18:24:31.179,2,0.7,0.84,0.85,-4.4878,-0.6303999999999998,-4.238600000000002,175,75
2026-05-07 18:24:31.206,2,0.77,0.88,0.95,-0.9478000000000009,-1.1204,-5.158600000000003,175,75
2026-05-07 18:24:31.218,2,0.75,0.89,0.95,-1.0678,-7.340399999999999,-5.338600000000003,175,75
2026-05-07 18:24:31.223,2,0.77,0.9,0.93,-0.33779999999999966,-14.6604,-5.828600000000002,175,75
2026-05-07 18:24:31.244,2,0.75,0.89,0.88,-1.9277999999999995,-17.8304,-6.378600000000002,175,75
2026-05-07 18:24:31.268,2,0.73,0.88,0.86,0.9421999999999997,2.5996000000000006,-3.388600000000004,175,75
2026-05-07 18:24:31.285,2,0.74,0.88,0.89,-0.39780000000000015,1.2596000000000007,-2.6586000000000034,175,75
2026-05-07 18:24:31.294,2,0.75,0.87,0.89,-1.7978000000000005,-3.3804,-2.898600000000002,175,75
2026-05-07 18:24:31.300,2,0.73,0.87,0.87,-4.9078,-10.020399999999999,-2.588600000000003,175,75
2026-05-07 18:24:31.367,2,0.74,0.85,0.88,-6.377800000000001,6.139600000000001,-0.6386000000000038,175,75
2026-05-07 18:24:31.394,2,0.74,0.85,0.91,-7.1078,-0.45040000000000013,-2.6586000000000034,175,75
2026-05-07 18:24:31.417,2,0.73,0.86,0.9,-8.3878,-8.6204,-4.788600000000002,175,75
2026-05-07 18:24:31.444,2,0.67,0.89,0.82,-8.1478,-1.7303999999999995,-5.338600000000003,175,75
2026-05-07 18:24:31.456,2,0.7,0.89,0.83,-7.957800000000001,5.469600000000001,-4.788600000000002,175,75
2026-05-07 18:24:31.470,2,0.69,0.89,0.85,-8.017800000000001,7.299600000000001,-4.668600000000001,175,75
2026-05-07 18:24:31.494,2,0.72,0.89,0.86,-7.537800000000001,1.1395999999999997,-3.808600000000002,175,75
2026-05-07 18:24:31.545,2,0.71,0.92,0.79,-5.3978,-7.0304,-2.958600000000004,175,75
2026-05-07 18:24:31.570,2,0.68,0.94,0.73,-4.787800000000001,-9.0504,-6.008600000000001,175,75
2026-05-07 18:24:31.598,2,0.64,0.98,0.69,0.7021999999999995,-0.5103999999999989,-6.498600000000003,175,75
2026-05-07 18:24:31.612,2,0.66,0.99,0.7,2.4621999999999993,1.1996000000000002,-6.308600000000002,175,75
2026-05-07 18:24:31.645,2,0.61,0.99,0.62,3.6221999999999994,-19.4104,-7.8386,175,75
2026-05-07 18:24:31.658,2,0.56,0.99,0.57,5.2722,-6.910399999999999,-7.958600000000004,175,75
2026-05-07 18:24:31.669,2,0.59,0.97,0.52,4.8422,2.659600000000001,-8.998600000000003,175,75
2026-05-07 18:24:31.684,2,0.58,0.96,0.49,3.562199999999999,8.7596,-13.0186,175,75
2026-05-07 18:24:31.750,2,0.62,0.97,0.4,-25.8278,-40.6304,-24.418600000000005,175,75
2026-05-07 18:24:31.789,2,0.55,1.07,0.19,-41.1278,-40.3904,-28.3286,175,75
2026-05-07 18:24:31.829,2,0.5,1.19,0.1,-72.1678,13.3896,-27.778600000000004,175,75
2026-05-07 18:24:31.842,2,0.54,1.19,0.12,-93.4478,46.2596,-27.528600000000004,175,75
2026-05-07 18:24:31.854,2,0.58,1.22,0.16,-102.2878,64.2496,-26.858600000000003,175,75
2026-05-07 18:24:31.881,2,0.46,1.29,0.24,-119.23780000000001,86.8696,-32.1086,175,75
2026-05-07 18:24:31.896,2,0.14,1.43,0.33,-125.0978,90.6496,-18.878600000000006,175,75
2026-05-07 18:24:31.922,2,0.68,1.29,0.74,-143.99779999999998,98.4496,-3.7486000000000033,175,75
2026-05-07 18:24:31.945,2,0.55,1.24,0.66,-161.7378,35.2796,-6.558600000000002,175,75
2026-05-07 18:24:31.950,2,0.5,1.23,0.57,-162.1678,44.7996,-3.138600000000004,175,75
2026-05-07 18:24:31.965,2,0.32,1.2,0.51,-165.88780000000003,87.8396,1.311399999999999,175,75
2026-05-07 18:24:31.979,2,-0.02,1.19,0.56,-173.08780000000002,160.8296,12.711399999999998,175,75
2026-05-07 18:24:31.984,2,0.03,1.13,0.75,-175.76780000000002,257.9096,23.441399999999998,175,75
2026-05-07 18:24:31.995,2,0.16,1.06,0.95,-177.0478,291.5596,31.121399999999998,175,75
2026-05-07 18:24:32.006,2,0.25,0.96,1.19,-182.4078,278.2696,30.031399999999998,175,75
2026-05-07 18:24:32.032,2,0.43,0.69,1.55,-194.4278,139.18959999999998,1.8613999999999962,175,75
2026-05-07 18:24:32.048,2,0.39,0.58,1.56,-211.49779999999998,72.7196,-0.8886000000000038,175,75
2026-05-07 18:24:32.061,2,0.15,0.53,1.43,-231.49779999999998,36.1396,2.4713999999999956,175,75
2026-05-07 18:24:32.061,2,0.04,0.48,1.33,-242.7778,31.9296,5.091399999999997,175,75
2026-05-07 18:24:32.078,2,-0.15,0.45,1.2,-242.7778,39.369600000000005,11.311399999999997,175,75
2026-05-07 18:24:32.089,2,-0.08,0.32,1.22,-234.5478,56.3196,18.3814,175,75
2026-05-07 18:24:32.104,2,0.16,0.04,1.36,-225.0378,86.6896,15.761399999999997,175,75
2026-05-07 18:24:32.136,2,0.18,0.02,1.42,-224.5478,104.8596,12.221399999999997,175,75
2026-05-07 18:24:32.208,2,0.12,-0.06,1.35,-168.20780000000002,120.4696,27.221399999999996,175,75
2026-05-07 18:24:32.223,2,0.1,-0.07,1.32,-152.7778,150.1596,33.621399999999994,175,75
2026-05-07 18:24:32.277,2,-0.01,0.01,1.34,-103.5078,160.9496,61.551399999999994,175,75
2026-05-07 18:24:32.282,2,-0.03,0.0,1.31,-99.1178,167.6596,68.1414,175,75
2026-05-07 18:24:32.317,2,0.13,-0.11,1.48,-88.3278,178.9396,76.5514,175,75
2026-05-07 18:24:32.339,2,0.16,-0.01,1.63,-88.2678,119.4296,81.06139999999999,175,75
2026-05-07 18:24:32.354,2,0.09,-0.02,1.59,-90.8278,91.3796,84.3014,175,75
2026-05-07 18:24:32.369,2,0.16,-0.05,1.51,-95.1578,61.2596,87.47139999999999,175,75
2026-05-07 18:24:32.380,2,0.17,-0.08,1.48,-94.1778,52.2996,87.3414,175,75
2026-05-07 18:24:32.390,2,0.16,-0.12,1.47,-88.3878,49.4896,86.00139999999999,175,75
2026-05-07 18:24:32.404,2,0.18,-0.09,1.47,-82.9578,45.6496,85.8214,175,75
2026-05-07 18:24:32.440,2,0.01,-0.18,1.44,-53.0878,16.8096,81.6714,175,75
2026-05-07 18:24:32.450,2,-0.03,-0.21,1.36,-43.2078,31.8096,81.31139999999999,175,75
2026-05-07 18:24:32.460,2,-0.08,-0.2,1.3,-34.547799999999995,59.6696,82.8314,175,75
2026-05-07 18:24:32.514,2,0.13,-0.2,1.83,-18.997799999999998,89.6696,62.9514,175,75
2026-05-07 18:24:32.526,2,0.01,-0.26,1.81,-19.4878,31.9296,57.651399999999995,175,75
2026-05-07 18:24:32.535,2,-0.04,-0.29,1.65,-4.9078,8.1496,55.5814,175,75
2026-05-07 18:24:32.551,2,-0.13,-0.26,1.52,9.292200000000001,10.5896,55.09139999999999,175,75
2026-05-07 18:24:32.551,2,-0.22,-0.18,1.43,18.1322,45.0996,56.8014,175,75
2026-05-07 18:24:32.577,2,-0.24,-0.15,1.5,33.7422,131.31959999999998,59.4814,175,75
2026-05-07 18:24:32.583,2,-0.19,-0.16,1.59,31.4322,136.7496,55.9414,175,75
2026-05-07 18:24:32.618,2,-0.14,-0.07,1.84,24.2922,90.1596,48.9314,175,75
2026-05-07 18:24:32.641,2,-0.18,-0.02,1.83,28.322200000000002,70.03960000000001,48.621399999999994,175,75
2026-05-07 18:24:32.641,2,-0.23,-0.05,1.83,36.4922,60.0996,45.5814,175,75
2026-05-07 18:24:32.650,2,-0.24,-0.06,2.05,55.092200000000005,92.3596,49.971399999999996,175,75
2026-05-07 18:24:32.672,2,-0.08,0.0,2.19,65.4522,55.949600000000004,50.45139999999999,175,75
2026-05-07 18:24:32.690,2,-0.34,0.1,1.68,48.9322,-11.240400000000001,48.9914,175,75
2026-05-07 18:24:32.706,2,-0.43,0.15,1.54,50.2122,8.2096,56.731399999999994,175,75
2026-05-07 18:24:32.717,2,-0.51,0.2,1.48,49.9622,33.2696,67.8314,175,75
2026-05-07 18:24:32.727,2,-0.47,0.18,1.57,48.0722,47.4196,77.47139999999999,175,75
2026-05-07 18:24:32.742,2,-0.36,0.25,1.65,31.1822,20.3396,88.44139999999999,175,75
2026-05-07 18:24:32.756,2,-0.41,0.3,1.63,3.2622,-54.050399999999996,94.3014,175,75
2026-05-07 18:24:32.770,2,-0.44,0.27,1.63,-4.2978000000000005,-66.1204,97.5914,175,75
2026-05-07 18:24:32.781,2,-0.41,0.22,1.66,-6.0078000000000005,-70.5104,98.9314,175,75
2026-05-07 18:24:32.793,2,-0.39,0.19,1.69,-5.6478,-77.46039999999999,98.26140000000001,175,75
2026-05-07 18:24:32.815,2,-0.27,0.1,1.69,-0.45780000000000065,-75.1404,84.9114,175,75
2026-05-07 18:24:32.837,2,-0.29,0.06,1.7,6.8522,-58.8604,77.53139999999999,175,75
2026-05-07 18:24:32.864,2,0.19,-0.16,1.58,11.6722,-7.950399999999998,44.7814,175,75
2026-05-07 18:24:32.864,2,0.37,-0.22,1.29,1.1822,5.889600000000001,7.041399999999996,175,75
2026-05-07 18:24:32.875,2,0.1,-0.0,1.33,14.412199999999999,67.7196,2.101399999999998,175,75
2026-05-07 18:24:32.885,2,0.02,0.11,1.44,29.2922,114.5496,3.1413999999999973,175,75
2026-05-07 18:24:32.896,2,0.0,0.14,1.83,33.5622,70.09960000000001,-9.058600000000006,175,75
2026-05-07 18:24:32.925,2,-0.26,0.03,2.28,3.9922000000000004,-146.0004,-0.39860000000000184,175,75
2026-05-07 18:24:32.943,2,-0.32,0.04,1.94,-16.0678,-201.4904,9.361399999999996,175,75
2026-05-07 18:24:32.962,2,-0.37,0.02,1.63,-12.5978,-184.0504,6.061399999999999,175,75
2026-05-07 18:24:32.971,2,-0.29,0.04,1.5,31.002200000000002,-70.3304,3.3813999999999957,175,75
2026-05-07 18:24:33.012,2,-0.32,0.08,2.01,53.3822,-89.2304,-10.5186,175,75
2026-05-07 18:24:33.012,2,-0.39,0.14,2.01,42.6522,-136.3604,-6.128600000000002,175,75
2026-05-07 18:24:33.032,2,-0.38,0.18,1.9,37.8922,-163.8604,-0.8286000000000016,175,75
2026-05-07 18:24:33.038,2,-0.37,0.18,1.76,41.6122,-159.9004,1.191399999999998,175,75
2026-05-07 18:24:33.060,2,-0.33,0.15,1.66,50.3322,-137.5204,-1.0086000000000013,175,75
2026-05-07 18:24:33.060,2,-0.28,0.12,1.62,59.7222,-106.2404,-4.908600000000003,175,75
2026-05-07 18:24:33.069,2,-0.27,0.15,1.63,73.5622,-55.2004,-9.5486,175,75
2026-05-07 18:24:33.084,2,-0.3,0.17,1.76,91.6122,-12.340399999999999,-13.198600000000006,175,75
2026-05-07 18:24:33.084,2,-0.3,0.16,1.89,99.5422,-10.3904,-13.138600000000004,175,75
2026-05-07 18:24:33.106,2,-0.3,0.21,1.93,96.3122,-35.0204,-9.178600000000003,175,75
2026-05-07 18:24:33.117,2,-0.29,0.24,1.95,89.1722,-60.7504,-6.188600000000001,175,75
2026-05-07 18:24:33.122,2,-0.2,0.19,1.84,81.9122,-90.0804,-6.308600000000002,175,75
2026-05-07 18:24:33.137,2,-0.14,0.17,1.72,82.7122,-101.2404,-11.008600000000001,175,75
2026-05-07 18:24:33.164,2,-0.21,0.33,1.75,111.3722,15.6496,-29.7286,175,75
2026-05-07 18:24:33.176,2,-0.1,0.22,1.89,125.15220000000001,25.4096,-30.698600000000006,175,75
2026-05-07 18:24:33.196,2,-0.22,0.27,2.01,127.3422,-4.590399999999999,-23.138600000000004,175,75
2026-05-07 18:24:33.196,2,-0.07,0.39,1.96,119.4122,-48.6204,-24.238600000000005,175,75
2026-05-07 18:24:33.215,2,-0.04,0.54,1.78,104.2322,-92.5204,-13.938600000000001,175,75
2026-05-07 18:24:33.228,2,-0.11,0.38,1.72,110.3322,-49.4704,-31.6186,175,75
2026-05-07 18:24:33.243,2,0.02,0.37,1.77,124.90220000000001,-23.8604,-41.308600000000006,175,75
2026-05-07 18:24:33.255,2,0.05,0.45,1.85,131.98219999999998,-17.8304,-47.3486,175,75
2026-05-07 18:24:33.268,2,-0.01,0.47,1.92,139.11219999999997,-4.2303999999999995,-53.8786,175,75
2026-05-07 18:24:33.290,2,-0.12,0.51,1.99,154.48219999999998,7.049600000000001,-57.89860000000001,175,75
2026-05-07 18:24:33.299,2,-0.15,0.65,2.03,165.0222,-5.750399999999999,-53.9386,175,75
2026-05-07 18:24:33.304,2,-0.11,0.76,2.05,164.7822,-23.010399999999997,-47.4686,175,75
2026-05-07 18:24:33.330,2,-0.13,0.8,2.04,165.3322,-33.1904,-37.778600000000004,175,75
2026-05-07 18:24:33.338,2,-0.06,0.76,2.03,173.50220000000002,-32.1604,-40.948600000000006,175,75
2026-05-07 18:24:33.354,2,0.06,0.75,2.06,180.0222,-36.6704,-45.5186,175,75
2026-05-07 18:24:33.354,2,0.04,0.73,2.09,185.5722,-38.7404,-50.5186,175,75
2026-05-07 18:24:33.383,2,0.05,0.83,2.06,203.81220000000002,-46.9704,-62.28860000000001,175,75
2026-05-07 18:24:33.404,2,-0.16,0.99,1.88,213.0122,-59.1104,-69.5486,175,75
2026-05-07 18:24:33.422,2,-0.22,1.09,1.87,212.5922,-65.2004,-64.5486,175,75
2026-05-07 18:24:33.422,2,-0.31,1.18,1.88,214.7822,-59.35039999999999,-56.9886,175,75
2026-05-07 18:24:33.433,2,-0.44,1.22,1.84,217.3422,-48.3804,-41.2486,175,75
2026-05-07 18:24:33.446,2,-0.38,1.15,1.89,223.3222,-39.9004,-37.348600000000005,175,75
2026-05-07 18:24:33.458,2,-0.22,1.08,1.93,229.8422,-50.9404,-33.0186,175,75
2026-05-07 18:24:33.468,2,-0.14,1.07,1.92,233.68220000000002,-75.8104,-31.4386,175,75
2026-05-07 18:24:33.537,2,-0.26,1.08,1.21,204.23219999999998,-193.1304,-43.568599999999996,175,75
2026-05-07 18:24:33.547,2,-0.27,1.14,1.02,206.00220000000002,-167.4604,-47.6586,175,75
2026-05-07 18:24:33.560,2,-0.21,1.05,0.91,198.0722,-155.4504,-44.72860000000001,175,75
2026-05-07 18:24:33.599,2,-0.2,1.05,0.59,135.7022,-106.9104,-51.1886,175,75
2026-05-07 18:24:33.599,2,-0.18,1.04,0.56,129.7222,-81.6704,-52.58860000000001,175,75
2026-05-07 18:24:33.621,2,-0.17,1.07,0.53,119.2922,-53.740399999999994,-53.388600000000004,175,75
2026-05-07 18:24:33.640,2,-0.16,1.19,0.58,96.5522,-13.130399999999998,-45.4586,175,75
2026-05-07 18:24:33.653,2,-0.08,1.15,0.62,84.6022,0.09960000000000058,-41.1886,175,75
2026-05-07 18:24:33.668,2,-0.09,1.09,0.61,63.87220000000001,0.5896000000000008,-34.1786,175,75
2026-05-07 18:24:33.686,2,-0.17,1.15,0.6,41.9122,-7.700399999999998,-28.0786,175,75
2026-05-07 18:24:33.727,2,-0.09,1.24,0.46,-32.6578,-97.7004,-0.2786000000000044,175,75
2026-05-07 18:24:33.733,2,-0.09,1.24,0.36,-57.4778,-111.0004,7.221399999999996,175,75
2026-05-07 18:24:33.759,2,-0.21,1.25,0.22,-99.7278,-103.5004,32.5314,175,75
2026-05-07 18:24:33.776,2,-0.34,1.35,0.2,-132.1078,-44.5304,67.47139999999999,175,75
2026-05-07 18:24:33.798,2,-0.3,1.39,0.27,-159.6078,12.659600000000001,94.60139999999998,175,75
2026-05-07 18:24:33.807,2,-0.27,1.35,0.35,-185.0978,51.4396,113.0814,175,75
2026-05-07 18:24:33.807,2,-0.26,1.3,0.45,-203.81779999999998,83.4496,128.1414,175,75
2026-05-07 18:24:33.842,2,-0.19,1.1,0.66,-249.7878,135.2196,175.7014,175,75
2026-05-07 18:24:33.880,2,0.2,0.72,0.95,-353.20779999999996,141.9296,239.66140000000001,175,75
2026-05-07 18:24:33.897,2,0.38,0.52,1.13,-383.14779999999996,127.3596,243.2014,175,75
2026-05-07 18:24:33.902,2,0.53,0.29,1.25,-414.1778,108.9396,233.6214,175,75
2026-05-07 18:24:33.915,2,0.57,0.05,1.4,-445.33779999999996,68.3896,223.9914,175,75
2026-05-07 18:24:33.929,2,0.58,-0.13,1.55,-475.39779999999996,10.2796,222.2814,175,75
2026-05-07 18:24:33.940,2,0.44,-0.41,2.0,-489.9778,-43.9904,207.7714,175,75
2026-05-07 18:24:33.951,2,0.37,-0.57,2.27,-482.7778,-90.5104,213.2614,175,75
2026-05-07 18:24:33.968,2,0.26,-0.59,2.32,-473.7578,-265.6304,241.9814,175,75
2026-05-07 18:24:33.979,2,-0.25,-0.55,2.29,-486.7978,-374.4704,285.03139999999996,175,75
2026-05-07 18:24:33.979,2,-0.51,-0.35,1.72,-505.82779999999997,-453.3804,351.73139999999995,175,75
2026-05-07 18:24:33.989,2,-0.49,-0.37,1.35,-526.5578,-570.6304,430.3314,175,75
2026-05-07 18:24:34.012,2,-0.05,-1.17,1.14,-530.4578,-667.4604,390.9414,175,75
2026-05-07 18:24:34.012,2,-0.09,-2.39,0.46,-481.7978,-544.4104,291.3714,175,75
2026-05-07 18:24:34.027,2,0.69,-2.55,-0.09,-360.70779999999996,-416.7304,245.94140000000002,175,75
2026-05-07 18:24:34.048,2,0.4,-1.72,0.03,-245.82780000000002,-376.1204,235.5114,175,75
2026-05-07 18:24:34.059,2,-0.33,-1.08,0.13,-181.49779999999998,-267.9504,207.1014,175,75
2026-05-07 18:24:34.080,2,-0.88,-0.55,-0.27,-157.5378,-14.7804,214.3614,175,75
2026-05-07 18:24:34.088,2,-0.91,-0.5,-0.36,-117.9578,192.0496,219.2314,175,75
2026-05-07 18:24:34.128,2,-0.16,-1.38,0.84,-49.8478,605.0396,182.41140000000001,175,75
2026-05-07 18:24:34.156,2,0.09,-1.03,1.56,-109.6678,193.3896,143.1414,175,75
2026-05-07 18:24:34.170,2,0.16,-0.85,1.45,-167.4078,63.5096,162.3414,175,75
2026-05-07 18:24:34.170,2,0.09,-0.72,1.24,-199.6078,-20.200400000000002,176.5514,175,75
2026-05-07 18:24:34.186,2,-0.02,-0.71,1.01,-204.4278,-85.0804,185.1514,175,75
2026-05-07 18:24:34.194,2,-0.13,-0.77,0.84,-190.1578,-110.6304,190.6414,175,75
2026-05-07 18:24:34.208,2,-0.29,-0.86,0.69,-165.88780000000003,-91.5504,193.8714,175,75
2026-05-07 18:24:34.219,2,-0.35,-0.91,0.62,-154.6078,-45.7504,190.0314,175,75
2026-05-07 18:24:34.219,2,-0.32,-0.92,0.56,-146.31779999999998,27.3596,182.2814,175,75
2026-05-07 18:24:34.235,2,-0.24,-0.92,0.56,-139.1778,100.9496,178.8114,175,75
2026-05-07 18:24:34.246,2,-0.21,-0.91,0.65,-128.5078,170.3396,175.5814,175,75
2026-05-07 18:24:34.260,2,-0.22,-0.89,0.77,-120.8278,221.6896,167.5314,175,75
2026-05-07 18:24:34.270,2,-0.23,-0.85,0.87,-121.0078,255.7096,161.6114,175,75
2026-05-07 18:24:34.292,2,-0.24,-0.83,0.93,-125.2178,274.3696,156.5514,175,75
2026-05-07 18:24:34.292,2,-0.27,-0.82,0.99,-129.3678,279.1896,150.2714,175,75
2026-05-07 18:24:34.303,2,-0.31,-0.77,1.08,-136.43779999999998,278.3896,136.8614,175,75
2026-05-07 18:24:34.315,2,-0.31,-0.7,1.15,-142.89780000000002,271.0096,122.7714,175,75
2026-05-07 18:24:34.325,2,-0.28,-0.59,1.22,-150.70780000000002,250.2796,105.94139999999999,175,75
2026-05-07 18:24:34.349,2,-0.21,-0.48,1.29,-156.43779999999998,223.6396,95.03139999999999,175,75
2026-05-07 18:24:34.382,2,0.01,-0.14,1.29,-145.58780000000002,145.5296,80.4514,175,75
2026-05-07 18:24:34.393,2,0.01,-0.03,1.28,-131.37779999999998,132.9096,73.6214,175,75
2026-05-07 18:24:34.411,2,0.11,0.11,1.3,-105.7078,120.1596,53.3214,175,75
2026-05-07 18:24:34.440,2,0.15,0.3,1.35,-76.4378,119.0596,40.761399999999995,175,75
2026-05-07 18:24:34.476,2,0.36,0.24,1.71,-28.2078,46.8696,18.0114,175,75
2026-05-07 18:24:34.484,2,0.46,0.25,1.79,-6.2578000000000005,-16.7304,15.941399999999998,175,75
2026-05-07 18:24:34.505,2,0.51,0.25,1.75,17.4622,-102.8304,27.471399999999996,175,75
2026-05-07 18:24:34.521,2,0.48,0.17,1.66,38.8722,-181.4204,37.8914,175,75
2026-05-07 18:24:34.521,2,0.43,0.04,1.56,56.792199999999994,-234.4704,43.621399999999994,175,75
2026-05-07 18:24:34.540,2,0.38,-0.09,1.42,74.2922,-277.4604,41.9214,175,75
2026-05-07 18:24:34.558,2,0.35,-0.17,1.33,86.1222,-295.6904,34.1714,175,75
2026-05-07 18:24:34.558,2,0.32,-0.26,1.19,101.3122,-300.5104,11.981399999999997,175,75
2026-05-07 18:24:34.572,2,0.25,-0.35,1.05,111.3722,-276.1804,-18.2686,175,75
2026-05-07 18:24:34.583,2,0.3,-0.4,0.76,137.04219999999998,-163.5604,-90.27860000000001,175,75
2026-05-07 18:24:34.600,2,0.33,-0.36,0.77,152.04219999999998,-142.8904,-101.24860000000001,175,75
2026-05-07 18:24:34.608,2,0.27,-0.36,0.81,166.55220000000003,-124.72040000000001,-108.26859999999999,175,75
2026-05-07 18:24:34.623,2,0.2,-0.41,0.85,174.35219999999998,-111.3604,-114.11859999999999,175,75
2026-05-07 18:24:34.636,2,0.05,-0.53,0.91,177.8322,-98.6204,-126.55859999999998,175,75
2026-05-07 18:24:34.651,2,0.0,-0.57,0.92,179.35219999999998,-103.0104,-133.2686,175,75
2026-05-07 18:24:34.681,2,-0.05,-0.79,0.9,168.2622,-167.5804,-166.0686,175,75
2026-05-07 18:24:34.696,2,-0.09,-0.81,0.82,162.04219999999998,-169.0504,-174.5486,175,75
2026-05-07 18:24:34.706,2,-0.12,-0.82,0.79,159.8422,-164.5304,-183.80859999999998,175,75
2026-05-07 18:24:34.740,2,-0.23,-0.88,0.99,161.43220000000002,-180.0204,-188.2686,175,75
2026-05-07 18:24:34.756,2,-0.29,-0.88,1.04,157.8922,-197.6404,-188.99859999999998,175,75
2026-05-07 18:24:34.788,2,-0.36,-1.0,1.04,117.0422,-358.7404,-188.9386,175,75
2026-05-07 18:24:34.799,2,-0.47,-0.98,0.87,106.9122,-380.8804,-187.4686,175,75
2026-05-07 18:24:34.809,2,-0.7,-0.86,0.69,101.0622,-379.9004,-188.80859999999998,175,75
2026-05-07 18:24:34.822,2,-0.82,-0.72,0.63,100.3322,-358.2504,-188.1986,175,75
2026-05-07 18:24:34.823,2,-0.84,-0.58,0.64,98.2022,-331.0604,-185.2186,175,75
2026-05-07 18:24:34.863,2,-0.67,-0.42,0.81,67.0422,-289.2904,-126.73859999999999,175,75
2026-05-07 18:24:34.875,2,-0.67,-0.41,0.8,60.76219999999999,-293.9904,-114.6686,175,75
2026-05-07 18:24:34.893,2,-0.87,-0.16,0.78,43.4422,-263.3804,-88.93860000000001,175,75
2026-05-07 18:24:34.927,2,-0.64,0.01,0.92,30.5122,-232.6404,-49.9086,175,75
2026-05-07 18:24:34.927,2,-0.66,-0.03,1.02,29.1122,-244.41039999999998,-32.6586,175,75
2026-05-07 18:24:34.938,2,-0.86,-0.05,1.02,31.7322,-276.4904,-6.0686000000000035,175,75
2026-05-07 18:24:34.962,2,-0.96,-0.12,0.91,53.1322,-290.8104,8.991399999999999,175,75
2026-05-07 18:24:34.972,2,-0.89,-0.17,0.86,61.4922,-272.0904,10.451399999999998,175,75
2026-05-07 18:24:35.005,2,-0.79,-0.24,0.68,72.8922,-177.1604,8.931399999999996,175,75
2026-05-07 18:24:35.005,2,-0.78,-0.2,0.68,82.6522,-131.4204,11.121399999999998,175,75
2026-05-07 18:24:35.016,2,-0.75,-0.22,0.76,91.4922,-89.7804,14.721399999999997,175,75
2026-05-07 18:24:35.046,2,-0.58,-0.36,0.99,86.6122,-70.4504,12.951399999999998,175,75
2026-05-07 18:24:35.065,2,0.07,-0.53,0.75,64.4822,-114.5904,2.101399999999998,175,75
2026-05-07 18:24:35.077,2,-0.18,-0.6,0.76,52.0422,-160.5704,11.001399999999997,175,75
2026-05-07 18:24:35.093,2,-0.54,-0.61,0.59,35.3322,-176.8504,20.271399999999996,175,75
2026-05-07 18:24:35.100,2,-0.32,-0.78,-0.66,-32.047799999999995,-326.9104,5.151399999999999,175,75
2026-05-07 18:24:35.113,2,-0.37,-1.8,-1.39,-113.2078,-581.1204,-65.21860000000001,175,75
2026-05-07 18:24:35.126,2,-1.79,-2.27,-0.84,-67.8378,-212.1604,-14.9086,175,75
2026-05-07 18:24:35.145,2,-2.02,-1.3,-0.15,68.9922,620.3396,49.721399999999996,175,75
2026-05-07 18:24:35.157,2,-0.38,-0.65,0.83,122.5922,864.9196,45.3314,175,75
2026-05-07 18:24:35.178,2,-0.25,-0.55,2.81,67.7122,256.4996,-3.9986000000000033,175,75
2026-05-07 18:24:35.200,2,-0.11,-0.27,2.34,27.522199999999998,156.0096,-21.378600000000006,175,75
2026-05-07 18:24:35.200,2,0.28,0.1,1.84,-2.4778000000000002,30.4096,12.711399999999998,175,75
2026-05-07 18:24:35.210,2,0.26,0.45,1.54,-14.2978,-49.9604,57.5914,175,75
2026-05-07 18:24:35.222,2,-0.06,0.35,1.21,-31.9278,-24.660400000000003,16.121399999999998,175,75
2026-05-07 18:24:35.237,2,-0.19,0.13,0.95,-38.9978,91.6896,-18.5086,175,75
2026-05-07 18:24:35.241,2,-0.06,0.09,0.88,-18.4478,176.6196,-15.5186,175,75
2026-05-07 18:24:35.257,2,-0.19,0.17,1.17,6.4922,208.2096,-34.488600000000005,175,75
2026-05-07 18:24:35.269,2,-0.33,0.26,1.36,-0.03780000000000072,216.8096,-46.7986,175,75
2026-05-07 18:24:35.281,2,-0.4,0.39,1.35,-27.4078,203.7596,-52.22860000000001,175,75
2026-05-07 18:24:35.295,2,-0.36,0.46,1.26,-62.0478,167.2296,-41.1886,175,75
2026-05-07 18:24:35.295,2,-0.33,0.39,1.23,-86.4378,144.7296,-28.0786,175,75
2026-05-07 18:24:35.331,2,-0.21,-0.03,1.15,-116.2578,161.3796,-15.578600000000002,175,75
2026-05-07 18:24:35.331,2,-0.11,-0.08,1.17,-109.9078,205.5296,-22.2286,175,75
2026-05-07 18:24:35.343,2,0.03,-0.06,1.27,-103.9978,229.9196,-24.238600000000005,175,75
2026-05-07 18:24:35.363,2,0.22,-0.05,1.53,-108.4478,236.4396,-21.7986,175,75
2026-05-07 18:24:35.389,2,0.17,0.11,1.51,-107.2878,198.5096,-14.238600000000005,175,75
2026-05-07 18:24:35.409,2,0.1,0.23,1.43,-103.8778,191.3796,-6.438600000000001,175,75
2026-05-07 18:24:35.409,2,0.09,0.33,1.37,-102.5978,187.9096,3.1413999999999973,175,75
2026-05-07 18:24:35.493,2,0.29,0.46,1.59,-93.1478,192.0496,43.6914,175,75
2026-05-07 18:24:35.509,2,0.28,0.46,1.49,-92.3478,160.6496,55.9414,175,75
2026-05-07 18:24:35.520,2,0.28,0.37,1.31,-98.3878,115.5296,76.9214,175,75
2026-05-07 18:24:35.536,2,0.11,0.16,0.95,-117.7178,122.8396,78.2614,175,75
2026-05-07 18:24:35.546,2,0.07,0.08,0.77,-116.4978,185.8896,62.5314,175,75
2026-05-07 18:24:35.557,2,0.14,0.07,0.86,-95.6478,232.0496,57.5914,175,75
2026-05-07 18:24:35.575,2,0.15,0.05,1.33,-85.5178,251.3796,44.6014,175,75
2026-05-07 18:24:35.591,2,0.17,0.12,1.47,-92.1078,236.5596,42.34139999999999,175,75
2026-05-07 18:24:35.604,2,0.16,0.27,1.51,-90.0978,210.7696,47.59139999999999,175,75
2026-05-07 18:24:35.628,2,0.27,0.5,1.39,-70.0378,178.9396,62.651399999999995,175,75
2026-05-07 18:24:35.645,2,0.49,0.41,1.18,-79.4278,156.0096,58.9914,175,75
2026-05-07 18:24:35.657,2,0.72,0.16,0.93,-96.1278,140.4696,43.1414,175,75
2026-05-07 18:24:35.665,2,0.71,-0.07,0.59,-100.3378,172.4196,14.781399999999998,175,75
2026-05-07 18:24:35.711,2,0.31,0.26,1.02,-65.8878,279.5496,-36.308600000000006,175,75
2026-05-07 18:24:35.726,2,0.49,0.43,1.39,-59.5478,190.4096,-32.168600000000005,175,75
2026-05-07 18:24:35.747,2,0.65,0.4,1.2,-80.2778,107.7196,-13.808600000000006,175,75
2026-05-07 18:24:35.757,2,0.64,0.31,0.85,-91.8678,84.7296,-23.748600000000003,175,75
2026-05-07 18:24:35.771,2,0.64,0.35,0.55,-84.9078,132.1096,-46.308600000000006,175,75
2026-05-07 18:24:35.784,2,0.7,0.47,0.62,-68.93780000000001,151.1396,-55.7686,175,75
2026-05-07 18:24:35.784,2,0.74,0.45,0.76,-66.9878,134.1196,-61.678599999999996,175,75
2026-05-07 18:24:35.797,2,0.68,0.38,0.79,-79.7278,99.6096,-63.6886,175,75
2026-05-07 18:24:35.819,2,0.6,0.37,0.61,-88.9378,69.11959999999999,-63.9386,175,75
2026-05-07 18:24:35.829,2,0.57,0.32,0.47,-87.8978,58.8796,-67.2286,175,75
2026-05-07 18:24:35.838,2,0.52,0.26,0.39,-88.0878,56.6196,-67.6586,175,75
2026-05-07 18:24:35.854,2,0.43,0.28,0.42,-77.7178,88.3896,-71.0086,175,75
2026-05-07 18:24:35.863,2,0.5,0.32,0.57,-69.1178,92.4196,-71.8586,175,75
2026-05-07 18:24:35.890,2,0.55,0.25,0.67,-65.2178,47.7196,-65.8286,175,75
2026-05-07 18:24:35.906,2,0.55,0.22,0.58,-64.2378,24.1196,-62.7186,175,75
2026-05-07 18:24:35.917,2,0.52,0.2,0.51,-59.8478,13.6396,-60.888600000000004,175,75
2026-05-07 18:24:35.928,2,0.49,0.17,0.47,-51.7978,16.1996,-61.00860000000001,175,75
2026-05-07 18:24:35.934,2,0.44,0.18,0.47,-42.7178,24.979599999999998,-60.33860000000001,175,75
2026-05-07 18:24:35.945,2,0.42,0.24,0.48,-37.1078,28.5796,-58.808600000000006,175,75
2026-05-07 18:24:35.956,2,0.39,0.33,0.49,-33.9978,29.9796,-56.7386,175,75
2026-05-07 18:24:35.973,2,0.39,0.39,0.52,-26.9278,29.5496,-51.308600000000006,175,75
2026-05-07 18:24:35.983,2,0.44,0.37,0.49,-22.7178,12.909600000000001,-46.1286,175,75
2026-05-07 18:24:35.999,2,0.48,0.3,0.4,-21.617800000000003,-3.7403999999999993,-43.6886,175,75
2026-05-07 18:24:35.999,2,0.49,0.31,0.34,-19.8478,-2.160399999999999,-45.698600000000006,175,75
2026-05-07 18:24:36.036,2,0.52,0.41,0.36,-5.5178,57.4196,-47.3486,175,75
2026-05-07 18:24:36.048,2,0.61,0.34,0.45,0.7021999999999995,57.2996,-40.948600000000006,175,75
2026-05-07 18:24:36.061,2,0.61,0.25,0.57,4.292199999999999,45.949600000000004,-34.418600000000005,175,75
2026-05-07 18:24:36.071,2,0.6,0.2,0.61,6.982199999999999,34.6096,-28.878600000000006,175,75
2026-05-07 18:24:36.083,2,0.73,0.13,0.64,9.9022,16.8096,-26.678600000000003,175,75
2026-05-07 18:24:36.110,2,0.47,0.13,0.62,18.932199999999998,12.4196,-16.6186,175,75
2026-05-07 18:24:36.145,2,0.24,0.28,0.36,-1.4977999999999998,11.319600000000001,19.481399999999997,175,75
2026-05-07 18:24:36.156,2,0.25,0.2,0.41,-3.3278,45.3396,21.4914,175,75
2026-05-07 18:24:36.167,2,0.31,0.12,0.53,-1.3778000000000006,78.2696,21.371399999999998,175,75
2026-05-07 18:24:36.191,2,0.33,-0.07,0.9,-3.9978000000000007,102.1096,26.551399999999997,175,75
2026-05-07 18:24:36.191,2,0.34,-0.11,0.99,-9.6678,83.4496,29.661399999999997,175,75
2026-05-07 18:24:36.203,2,0.33,-0.14,1.04,-18.7578,55.8296,33.3214,175,75
2026-05-07 18:24:36.217,2,0.33,-0.15,0.96,-31.5578,21.3796,39.6014,175,75
2026-05-07 18:24:36.231,2,0.23,-0.15,0.88,-41.3778,8.6996,46.2514,175,75
2026-05-07 18:24:36.242,2,0.21,-0.16,0.78,-39.427800000000005,16.9896,51.5514,175,75
2026-05-07 18:24:36.252,2,0.24,-0.24,0.76,-31.2578,29.0596,57.2814,175,75
2026-05-07 18:24:36.263,2,0.23,-0.27,0.74,-31.4978,40.099599999999995,61.7314,175,75
2026-05-07 18:24:36.276,2,0.27,-0.27,0.74,-35.037800000000004,46.4996,63.441399999999994,175,75
2026-05-07 18:24:36.287,2,-0.07,-0.22,0.69,-51.6778,55.949600000000004,85.1514,175,75
2026-05-07 18:24:36.309,2,-0.04,-0.26,0.53,-58.9978,72.7796,86.8014,175,75
2026-05-07 18:24:36.309,2,-0.14,-0.3,0.52,-65.5178,117.5996,101.31139999999999,175,75
2026-05-07 18:24:36.330,2,-0.1,-0.34,0.47,-71.18780000000001,177.9696,106.6714,175,75
2026-05-07 18:24:36.330,2,-0.04,-0.36,0.52,-61.0678,219.4296,113.9314,175,75
2026-05-07 18:24:36.343,2,0.0,-0.41,0.6,-51.7978,248.9996,118.0814,175,75
2026-05-07 18:24:36.354,2,0.08,-0.46,0.71,-54.1778,267.5996,123.01140000000001,175,75
2026-05-07 18:24:36.376,2,0.06,-0.48,0.77,-56.3778,275.4096,130.2114,175,75
2026-05-07 18:24:36.386,2,-0.0,-0.58,0.89,-57.1078,273.7596,138.8114,175,75
2026-05-07 18:24:36.398,2,-0.03,-0.66,0.99,-64.6078,253.2696,143.9314,175,75
2026-05-07 18:24:36.408,2,-0.07,-0.67,0.98,-80.9478,211.4996,154.91140000000001,175,75
2026-05-07 18:24:36.411,2,-0.28,-0.53,0.93,-89.9078,197.0496,170.94140000000002,175,75
2026-05-07 18:24:36.428,2,-0.27,-0.52,0.82,-96.1878,184.7996,176.6114,175,75
2026-05-07 18:24:36.446,2,-0.37,-0.59,0.8,-93.7578,198.0296,209.2314,175,75
2026-05-07 18:24:36.465,2,-0.31,-0.69,0.79,-91.3778,191.4996,215.6414,175,75
2026-05-07 18:24:36.465,2,-0.29,-0.79,0.86,-96.8678,179.1196,215.0314,175,75
2026-05-07 18:24:36.486,2,-0.19,-0.82,0.87,-104.1778,170.2196,213.1414,175,75
2026-05-07 18:24:36.498,2,-0.12,-0.82,0.84,-109.9778,155.1596,211.8614,175,75
2026-05-07 18:24:36.508,2,-0.18,-0.76,0.79,-114.6678,151.9896,209.66140000000001,175,75
2026-05-07 18:24:36.519,2,-0.21,-0.69,0.72,-109.9778,157.1096,207.8314,175,75
2026-05-07 18:24:36.533,2,-0.24,-0.64,0.8,-102.2278,152.1696,206.00140000000002,175,75
2026-05-07 18:24:36.543,2,-0.19,-0.64,0.89,-96.9278,132.3596,201.00140000000002,175,75
2026-05-07 18:24:36.556,2,-0.15,-0.65,0.93,-99.48780000000001,99.3696,195.6414,175,75
2026-05-07 18:24:36.556,2,-0.12,-0.62,0.87,-107.1078,69.0596,188.8714,175,75
2026-05-07 18:24:36.578,2,-0.09,-0.56,0.77,-106.4978,55.3396,182.5914,175,75
2026-05-07 18:24:36.589,2,-0.09,-0.48,0.66,-95.7678,57.2996,173.5614,175,75
2026-05-07 18:24:36.599,2,-0.12,-0.42,0.61,-86.1278,71.2596,165.0314,175,75
2026-05-07 18:24:36.599,2,-0.12,-0.35,0.6,-79.6678,89.3696,157.47140000000002,175,75
2026-05-07 18:24:36.613,2,-0.12,-0.27,0.59,-74.4278,107.8396,149.3614,175,75
2026-05-07 18:24:36.625,2,-0.14,-0.2,0.63,-70.2178,119.3096,141.4314,175,75
2026-05-07 18:24:36.638,2,-0.13,-0.14,0.7,-66.9878,125.0996,132.9514,175,75
2026-05-07 18:24:36.647,2,-0.1,-0.1,0.74,-66.5578,123.2096,128.5614,175,75
2026-05-07 18:24:36.667,2,-0.01,-0.03,0.75,-67.1078,101.9896,121.06139999999999,175,75
2026-05-07 18:24:36.668,2,0.06,0.0,0.73,-67.5978,89.4296,114.66139999999999,175,75
2026-05-07 18:24:36.683,2,0.11,0.07,0.66,-68.2678,87.6596,106.3714,175,75
2026-05-07 18:24:36.693,2,0.13,0.16,0.62,-66.43780000000001,94.9796,96.8014,175,75
2026-05-07 18:24:36.706,2,0.15,0.23,0.62,-62.5978,103.9996,85.7014,175,75
2026-05-07 18:24:36.716,2,0.18,0.32,0.62,-58.0878,107.0496,74.4214,175,75
2026-05-07 18:24:36.736,2,0.19,0.39,0.63,-56.4378,101.4396,65.4514,175,75
2026-05-07 18:24:36.736,2,0.2,0.48,0.61,-57.7778,92.4796,58.621399999999994,175,75
2026-05-07 18:24:36.753,2,0.21,0.66,0.52,-69.6078,77.53960000000001,53.1414,175,75
2026-05-07 18:24:36.771,2,0.2,0.74,0.46,-79.0578,81.0096,52.34139999999999,175,75
2026-05-07 18:24:36.780,2,0.19,0.75,0.46,-85.5178,90.9496,47.7714,175,75
2026-05-07 18:24:36.791,2,0.24,0.71,0.51,-88.6278,98.7596,40.6414,175,75
2026-05-07 18:24:36.791,2,0.41,0.67,0.6,-89.0578,85.4696,31.431399999999996,175,75
2026-05-07 18:24:36.820,2,0.72,0.73,0.73,-93.2078,32.479600000000005,20.821399999999997,175,75
2026-05-07 18:24:36.830,2,0.8,0.73,0.65,-95.6478,-9.1704,13.321399999999997,175,75
2026-05-07 18:24:36.843,2,0.77,0.63,0.57,-100.8878,-30.690399999999997,6.061399999999999,175,75
2026-05-07 18:24:36.853,2,0.71,0.46,0.48,-106.2578,-40.3304,-7.5886,175,75
2026-05-07 18:24:36.853,2,0.72,0.34,0.46,-107.1678,-42.5804,-21.498600000000003,175,75
2026-05-07 18:24:36.863,2,0.8,0.24,0.52,-109.8478,-48.0104,-36.738600000000005,175,75
2026-05-07 18:24:36.888,2,0.89,0.17,0.56,-118.3278,-57.160399999999996,-53.3286,175,75
2026-05-07 18:24:36.899,2,0.92,0.11,0.59,-122.7778,-63.010400000000004,-69.7886,175,75
2026-05-07 18:24:36.909,2,0.93,0.03,0.59,-118.9978,-62.5804,-86.43860000000001,175,75
2026-05-07 18:24:36.921,2,0.9,-0.03,0.55,-112.8378,-55.57040000000001,-99.5486,175,75
2026-05-07 18:24:36.932,2,0.84,-0.14,0.52,-104.6078,-38.4404,-115.6386,175,75
2026-05-07 18:24:36.932,2,0.79,-0.28,0.57,-98.3878,-24.590400000000002,-131.7986,175,75
2026-05-07 18:24:36.966,2,0.72,-0.44,0.72,-79.6678,-2.4003999999999994,-170.8886,175,75
2026-05-07 18:24:36.990,2,0.64,-0.46,0.79,-53.2678,13.2696,-199.1786,175,75
2026-05-07 18:24:37.013,2,0.57,-0.57,0.92,-24.0578,23.209600000000002,-220.6386,175,75
2026-05-07 18:24:37.023,2,0.68,-0.83,1.16,6.2422,-6.5504,-230.88859999999997,175,75
2026-05-07 18:24:37.037,2,0.72,-0.99,1.23,20.022199999999998,-32.4004,-235.0886,175,75
2026-05-07 18:24:37.048,2,0.68,-1.11,1.23,34.9022,-53.010400000000004,-240.63859999999997,175,75
2026-05-07 18:24:37.062,2,0.58,-1.15,1.24,55.9422,-73.5604,-252.6586,175,75
2026-05-07 18:24:37.086,2,0.48,-1.22,1.3,89.1722,-120.1404,-267.71860000000004,175,75
2026-05-07 18:24:37.097,2,0.47,-1.34,1.3,100.7022,-147.5804,-267.40860000000004,175,75
2026-05-07 18:24:37.118,2,0.36,-1.83,1.24,107.1622,-178.1904,-265.57860000000005,175,75
2026-05-07 18:24:37.143,2,0.22,-2.14,1.26,120.02220000000001,-149.4104,-295.76860000000005,175,75
2026-05-07 18:24:37.153,2,0.19,-2.2,1.32,138.62220000000002,-147.4004,-310.57860000000005,175,75
2026-05-07 18:24:37.171,2,0.1,-2.31,1.37,173.2022,-153.4404,-333.1386,175,75
2026-05-07 18:24:37.182,2,0.02,-2.33,1.35,191.37220000000002,-151.4904,-344.90860000000004,175,75
2026-05-07 18:24:37.193,2,-0.07,-2.33,1.34,211.73219999999998,-152.5804,-358.5686,175,75
2026-05-07 18:24:37.216,2,-0.17,-2.28,1.39,244.35219999999998,-155.3904,-377.0486,175,75
2026-05-07 18:24:37.247,2,-0.09,-2.2,1.52,268.0722,-183.2504,-391.0686,175,75
2026-05-07 18:24:37.258,2,-0.06,-2.2,1.54,273.2622,-188.9204,-393.07860000000005,175,75
2026-05-07 18:24:37.258,2,-0.06,-2.14,1.56,278.6822,-186.9704,-388.1986,175,75
2026-05-07 18:24:37.279,2,-0.15,-2.06,1.63,288.2622,-188.5004,-376.6186,175,75
2026-05-07 18:24:37.290,2,-0.16,-2.02,1.71,297.8322,-198.0704,-369.0586,175,75
2026-05-07 18:24:37.290,2,-0.2,-1.97,1.8,303.4422,-208.1904,-364.78860000000003,175,75
2026-05-07 18:24:37.300,2,-0.27,-1.88,1.86,304.41220000000004,-215.9404,-362.22860000000003,175,75
2026-05-07 18:24:37.321,2,-0.26,-1.76,1.92,301.0622,-231.0004,-358.5086,175,75
2026-05-07 18:24:37.321,2,-0.28,-1.67,1.98,295.1522,-237.7704,-352.22860000000003,175,75
2026-05-07 18:24:37.333,2,-0.27,-1.56,1.97,291.1822,-231.3604,-345.33860000000004,175,75
2026-05-07 18:24:37.346,2,-0.21,-1.43,2.01,290.0922,-223.0704,-339.6686,175,75
2026-05-07 18:24:37.357,2,-0.19,-1.36,2.07,292.4022,-199.5304,-331.9886,175,75
2026-05-07 18:24:37.376,2,-0.22,-1.29,2.08,296.0022,-183.8604,-317.28860000000003,175,75
2026-05-07 18:24:37.376,2,-0.34,-1.14,2.08,307.2222,-173.7404,-296.3086,175,75
2026-05-07 18:24:37.390,2,-0.47,-1.0,2.08,321.61220000000003,-175.6304,-281.1886,175,75
2026-05-07 18:24:37.406,2,-0.43,-0.91,2.04,332.6522,-194.0504,-270.76860000000005,175,75
2026-05-07 18:24:37.409,2,-0.33,-0.85,2.01,337.2222,-213.7404,-257.83860000000004,175,75
2026-05-07 18:24:37.427,2,-0.25,-0.81,1.96,337.3422,-223.5004,-245.0286,175,75
2026-05-07 18:24:37.434,2,-0.2,-0.77,1.85,335.6322,-227.3404,-220.7686,175,75
2026-05-07 18:24:37.447,2,-0.22,-0.68,1.71,337.3422,-242.8304,-180.8886,175,75
2026-05-07 18:24:37.457,2,-0.25,-0.72,1.66,338.5622,-264.0504,-161.0686,175,75
2026-05-07 18:24:37.480,2,-0.29,-0.91,1.52,324.9622,-277.5204,-143.0786,175,75
2026-05-07 18:24:37.511,2,-0.5,-0.97,1.01,298.6222,-236.9704,-167.2286,175,75
2026-05-07 18:24:37.528,2,-0.48,-0.94,0.82,296.0022,-193.0704,-186.24859999999998,175,75
2026-05-07 18:24:37.543,2,-0.4,-0.86,0.71,299.0522,-158.4404,-185.2186,175,75
2026-05-07 18:24:37.554,2,-0.26,-0.8,0.69,301.79220000000004,-126.97040000000001,-173.2686,175,75
2026-05-07 18:24:37.564,2,-0.23,-0.81,0.76,299.9622,-98.5604,-155.5786,175,75
2026-05-07 18:24:37.564,2,-0.27,-0.74,0.73,291.0022,-88.2504,-134.4886,175,75
2026-05-07 18:24:37.579,2,-0.25,-0.69,0.68,276.0022,-107.2804,-130.02859999999998,175,75
2026-05-07 18:24:37.615,2,-0.24,-0.54,0.34,234.05220000000003,-114.7204,-95.9486,175,75
2026-05-07 18:24:37.655,2,-0.28,-0.32,0.14,194.41219999999998,-41.1204,-55.638600000000004,175,75
2026-05-07 18:24:37.666,2,-0.22,-0.23,0.11,178.0122,-29.050399999999996,-37.5886,175,75
2026-05-07 18:24:37.684,2,-0.15,-0.08,0.14,110.51219999999999,12.7196,15.511399999999997,175,75
2026-05-07 18:24:37.699,2,-0.15,-0.04,0.11,85.7022,23.5096,32.3414,175,75
2026-05-07 18:24:37.728,2,-0.13,0.04,0.06,30.022199999999998,40.099599999999995,64.97139999999999,175,75
2026-05-07 18:24:37.739,2,-0.12,0.05,0.13,10.7622,78.8196,74.48140000000001,175,75
2026-05-07 18:24:37.739,2,0.05,0.08,0.16,-20.4578,105.5896,91.6114,175,75
2026-05-07 18:24:37.752,2,0.07,0.13,0.21,-41.2578,108.5096,101.5514,175,75
2026-05-07 18:24:37.772,2,0.29,0.07,0.37,-74.5478,125.4096,114.66139999999999,175,75
2026-05-07 18:24:37.787,2,0.28,0.02,0.5,-88.3278,135.27960000000002,115.51140000000001,175,75
2026-05-07 18:24:37.799,2,0.3,0.04,0.6,-100.2178,153.1496,113.38139999999999,175,75
2026-05-07 18:24:37.809,2,0.38,0.08,0.74,-109.9078,168.2096,110.03139999999999,175,75
2026-05-07 18:24:37.819,2,0.49,0.1,0.86,-120.2778,173.8196,107.7714,175,75
2026-05-07 18:24:37.837,2,0.59,0.12,0.95,-130.0978,166.0796,106.3714,175,75
2026-05-07 18:24:37.847,2,0.63,0.12,1.04,-142.7178,147.1096,106.6114,175,75
2026-05-07 18:24:37.861,2,0.62,0.14,0.97,-159.6678,99.7996,101.6714,175,75
2026-05-07 18:24:37.898,2,0.54,0.05,0.66,-166.43779999999998,109.4296,84.5414,175,75
2026-05-07 18:24:37.913,2,0.54,0.08,0.65,-163.44779999999997,161.4396,79.72139999999999,175,75
2026-05-07 18:24:37.937,2,0.63,0.33,0.85,-180.58780000000002,214.0596,70.94139999999999,175,75
2026-05-07 18:24:37.948,2,0.64,0.38,0.93,-188.62779999999998,217.2296,65.1514,175,75
2026-05-07 18:24:37.964,2,0.66,0.44,1.05,-195.1578,209.4296,58.1414,175,75
2026-05-07 18:24:37.973,2,0.63,0.47,1.13,-198.44779999999997,192.2296,56.121399999999994,175,75
2026-05-07 18:24:37.983,2,0.63,0.45,1.18,-200.2178,162.1096,54.971399999999996,175,75
2026-05-07 18:24:37.994,2,0.62,0.42,1.11,-202.2878,135.7696,60.4514,175,75
2026-05-07 18:24:38.006,2,0.58,0.36,0.97,-201.6178,127.6596,64.0514,175,75
2026-05-07 18:24:38.019,2,0.56,0.31,0.9,-200.76780000000002,134.7296,63.9314,175,75
2026-05-07 18:24:38.031,2,0.51,0.3,0.83,-197.83780000000002,157.1696,62.7114,175,75
2026-05-07 18:24:38.047,2,0.5,0.32,0.85,-193.68779999999998,183.0896,59.971399999999996,175,75
2026-05-07 18:24:38.068,2,0.6,0.34,1.03,-186.49779999999998,194.1196,52.8314,175,75
2026-05-07 18:24:38.073,2,0.63,0.33,1.06,-186.7978,174.6696,50.151399999999995,175,75
2026-05-07 18:24:38.086,2,0.65,0.31,1.01,-190.33780000000002,151.8696,48.7514,175,75
2026-05-07 18:24:38.102,2,0.55,0.35,0.88,-193.99779999999998,139.2496,49.6614,175,75
2026-05-07 18:24:38.110,2,0.5,0.41,0.76,-195.51780000000002,143.5796,50.761399999999995,175,75
2026-05-07 18:24:38.123,2,0.5,0.42,0.74,-194.9078,156.9896,52.1614,175,75
2026-05-07 18:24:38.123,2,0.53,0.41,0.75,-192.7178,173.5096,53.1414,175,75
2026-05-07 18:24:38.147,2,0.66,0.34,0.86,-186.7978,173.7596,52.34139999999999,175,75
2026-05-07 18:24:38.176,2,0.73,0.33,0.91,-191.9878,130.27960000000002,47.471399999999996,175,75
2026-05-07 18:24:38.187,2,0.71,0.36,0.88,-195.70780000000002,109.6096,46.1914,175,75
2026-05-07 18:24:38.196,2,0.66,0.39,0.83,-198.44779999999997,95.3396,46.731399999999994,175,75
2026-05-07 18:24:38.211,2,0.61,0.44,0.73,-200.64780000000002,79.9196,50.8814,175,75
2026-05-07 18:24:38.211,2,0.57,0.45,0.66,-200.94779999999997,75.58959999999999,55.8814,175,75
2026-05-07 18:24:38.233,2,0.51,0.41,0.56,-199.3678,101.9296,64.6614,175,75
2026-05-07 18:24:38.241,2,0.53,0.4,0.57,-196.6178,125.5896,67.53139999999999,175,75
2026-05-07 18:24:38.257,2,0.57,0.38,0.61,-194.4878,147.9096,68.2614,175,75
2026-05-07 18:24:38.269,2,0.64,0.34,0.7,-194.9078,153.2696,67.0414,175,75
2026-05-07 18:24:38.279,2,0.7,0.31,0.78,-196.06779999999998,138.2696,62.7714,175,75
2026-05-07 18:24:38.300,2,0.68,0.32,0.78,-195.82780000000002,112.5996,59.6014,175,75
2026-05-07 18:24:38.312,2,0.51,0.46,0.62,-196.9878,68.4496,59.9114,175,75
2026-05-07 18:24:38.324,2,0.46,0.5,0.55,-198.81779999999998,62.7196,61.371399999999994,175,75
2026-05-07 18:24:38.343,2,0.46,0.51,0.49,-199.1178,70.8296,62.5914,175,75
2026-05-07 18:24:38.370,2,0.6,0.43,0.52,-191.25779999999997,91.3796,51.4914,175,75
2026-05-07 18:24:38.382,2,0.53,0.5,0.51,-191.00779999999997,78.0296,45.09139999999999,175,75
2026-05-07 18:24:38.392,2,0.49,0.56,0.48,-187.6578,68.2696,42.1014,175,75
2026-05-07 18:24:38.406,2,0.45,0.58,0.45,-182.4078,59.7296,42.1014,175,75
2026-05-07 18:24:38.410,2,0.47,0.58,0.44,-178.81779999999998,54.6096,41.731399999999994,175,75
2026-05-07 18:24:38.422,2,0.49,0.58,0.42,-176.12779999999998,51.0096,40.2714,175,75
2026-05-07 18:24:38.436,2,0.52,0.59,0.4,-174.1778,43.3896,35.7014,175,75
2026-05-07 18:24:38.458,2,0.5,0.61,0.36,-173.32780000000002,32.7796,31.611399999999996,175,75
2026-05-07 18:24:38.458,2,0.47,0.64,0.31,-171.25779999999997,21.1996,29.781399999999998,175,75
2026-05-07 18:24:38.481,2,0.47,0.66,0.26,-167.83780000000002,7.719600000000001,26.371399999999998,175,75
2026-05-07 18:24:38.496,2,0.32,0.73,0.13,-157.89780000000002,12.0496,24.111399999999996,175,75
2026-05-07 18:24:38.506,2,0.29,0.76,0.11,-154.2978,24.6096,22.951399999999996,175,75
2026-05-07 18:24:38.520,2,0.3,0.79,0.1,-151.25779999999997,40.339600000000004,20.641399999999997,175,75
2026-05-07 18:24:38.532,2,0.34,0.81,0.11,-150.94779999999997,49.9796,17.411399999999997,175,75
2026-05-07 18:24:38.541,2,0.38,0.82,0.12,-150.94779999999997,48.9396,14.051399999999997,175,75
2026-05-07 18:24:38.555,2,0.4,0.83,0.14,-148.68779999999998,42.229600000000005,10.881399999999998,175,75
2026-05-07 18:24:38.574,2,0.43,0.85,0.14,-142.5978,30.529600000000002,8.441399999999998,175,75
2026-05-07 18:24:38.589,2,0.41,0.9,0.06,-132.6578,9.729600000000001,3.2613999999999983,175,75
2026-05-07 18:24:38.639,2,0.31,1.07,0.01,-111.73780000000001,44.1196,11.311399999999997,175,75
2026-05-07 18:24:38.650,2,0.31,1.04,0.0,-114.7878,48.8796,12.951399999999998,175,75
2026-05-07 18:24:38.661,2,0.36,1.03,0.01,-116.98780000000001,56.6896,11.551399999999997,175,75
2026-05-07 18:24:38.671,2,0.43,1.04,0.05,-114.7878,66.5596,11.001399999999997,175,75
2026-05-07 18:24:38.679,2,0.52,1.07,0.1,-106.5578,71.4396,8.141399999999997,175,75
2026-05-07 18:24:38.703,2,0.6,1.16,0.22,-96.3778,52.1096,2.5913999999999966,175,75
2026-05-07 18:24:38.719,2,0.62,1.2,0.26,-93.0878,39.0596,1.061399999999999,175,75
2026-05-07 18:24:38.738,2,0.71,1.29,0.21,-85.2778,-3.7403999999999993,-6.008600000000001,175,75
2026-05-07 18:24:38.742,2,0.68,1.29,0.16,-82.7778,-14.1704,-8.078600000000002,175,75
2026-05-07 18:24:38.782,2,0.49,1.4,0.01,-67.8378,12.8396,10.031399999999998,175,75
2026-05-07 18:24:38.784,2,0.52,1.42,0.05,-65.0978,39.369600000000005,22.531399999999998,175,75
2026-05-07 18:24:38.807,2,0.66,1.39,0.11,-66.8678,63.9396,36.1914,175,75
2026-05-07 18:24:38.822,2,0.76,1.36,0.17,-71.43780000000001,69.9796,43.4414,175,75
2026-05-07 18:24:38.836,2,0.9,1.33,0.26,-77.4778,68.6996,50.151399999999995,175,75
2026-05-07 18:24:38.836,2,0.97,1.28,0.29,-80.7678,62.2996,52.7114,175,75
2026-05-07 18:24:38.858,2,1.07,1.09,0.43,-85.3378,55.3396,47.1014,175,75
2026-05-07 18:24:38.868,2,1.16,1.0,0.53,-85.8278,50.8896,40.2114,175,75
2026-05-07 18:24:38.883,2,1.21,0.95,0.57,-87.4078,31.869600000000002,33.1414,175,75
2026-05-07 18:24:38.883,2,1.21,0.92,0.6,-91.0678,-4.410399999999999,24.051399999999997,175,75
2026-05-07 18:24:38.894,2,1.2,0.9,0.58,-94.1778,-26.120399999999997,18.751399999999997,175,75
2026-05-07 18:24:38.923,2,1.1,0.88,0.52,-97.7778,-42.3404,16.191399999999998,175,75
2026-05-07 18:24:38.923,2,1.02,0.84,0.46,-99.6678,-44.4104,9.301399999999997,175,75
2026-05-07 18:24:38.936,2,1.03,0.8,0.43,-102.1678,-44.8404,1.0013999999999967,175,75
2026-05-07 18:24:38.951,2,1.03,0.79,0.43,-106.3778,-46.4904,-3.4486000000000026,175,75
2026-05-07 18:24:38.961,2,1.03,0.79,0.42,-111.9278,-52.2804,-6.918600000000005,175,75
2026-05-07 18:24:38.962,2,1.01,0.76,0.4,-119.6678,-57.5804,-10.948600000000006,175,75
2026-05-07 18:24:38.972,2,0.97,0.74,0.36,-125.4578,-58.9204,-13.808600000000006,175,75
2026-05-07 18:24:38.983,2,0.9,0.71,0.35,-126.6178,-49.050399999999996,-15.5186,175,75
2026-05-07 18:24:38.996,2,0.84,0.67,0.36,-123.3278,-23.5604,-18.0186,175,75
2026-05-07 18:24:39.007,2,0.85,0.63,0.39,-120.5178,5.339600000000001,-22.528600000000004,175,75
2026-05-07 18:24:39.019,2,0.84,0.65,0.43,-121.1278,28.5796,-28.3286,175,75
2026-05-07 18:24:39.030,2,0.8,0.68,0.47,-120.2178,40.949600000000004,-32.168600000000005,175,75
2026-05-07 18:24:39.040,2,0.8,0.69,0.51,-116.3778,51.6896,-36.308600000000006,175,75
2026-05-07 18:24:39.052,2,0.79,0.66,0.58,-110.8278,59.9196,-40.33860000000001,175,75
2026-05-07 18:24:39.062,2,0.76,0.66,0.64,-105.6478,62.5996,-43.138600000000004,175,75
2026-05-07 18:24:39.073,2,0.82,0.67,0.6,-99.6678,48.1496,-53.138600000000004,175,75
2026-05-07 18:24:39.084,2,0.77,0.73,0.57,-99.3678,42.1096,-57.28860000000001,175,75
2026-05-07 18:24:39.097,2,0.74,0.79,0.54,-93.5078,61.199600000000004,-59.11860000000001,175,75
2026-05-07 18:24:39.107,2,0.7,0.83,0.54,-82.5978,89.1896,-60.39860000000001,175,75
2026-05-07 18:24:39.118,2,0.68,0.86,0.57,-69.7878,112.6596,-61.4386,175,75
2026-05-07 18:24:39.118,2,0.83,0.85,0.67,-55.8278,129.4296,-68.80860000000001,175,75
2026-05-07 18:24:39.139,2,0.83,0.83,0.71,-46.3778,130.64960000000002,-73.99860000000001,175,75
2026-05-07 18:24:39.139,2,0.8,0.88,0.71,-41.927800000000005,123.1496,-70.5786,175,75
2026-05-07 18:24:39.152,2,0.66,0.99,0.69,-38.3878,126.6896,-72.4086,175,75
2026-05-07 18:24:39.173,2,0.61,1.15,0.81,-20.2778,131.31959999999998,-65.08860000000001,175,75
2026-05-07 18:24:39.205,2,0.66,1.04,1.01,-20.7678,54.6696,-56.00860000000001,175,75
2026-05-07 18:24:39.222,2,0.66,1.03,0.92,-8.2078,5.469600000000001,-51.3786,175,75
2026-05-07 18:24:39.222,2,0.58,1.04,0.82,-0.5877999999999997,-16.790399999999998,-48.6886,175,75
2026-05-07 18:24:39.236,2,0.54,1.07,0.71,2.7121999999999993,-25.8804,-48.6886,175,75
2026-05-07 18:24:39.260,2,0.54,1.11,0.61,3.4421999999999997,-24.660400000000003,-48.198600000000006,175,75
2026-05-07 18:24:39.260,2,0.45,1.16,0.54,5.212199999999999,-8.380399999999998,-47.9586,175,75
2026-05-07 18:24:39.287,2,0.48,1.17,0.49,18.932199999999998,41.0796,-45.08860000000001,175,75
2026-05-07 18:24:39.297,2,0.46,1.15,0.5,19.1122,64.11959999999999,-43.138600000000004,175,75
2026-05-07 18:24:39.309,2,0.46,1.14,0.5,20.272199999999998,74.9796,-41.4386,175,75
2026-05-07 18:24:39.314,2,0.47,1.19,0.52,22.102199999999996,74.1896,-40.948600000000006,175,75
2026-05-07 18:24:39.322,2,0.47,1.23,0.58,24.1122,61.4396,-40.08860000000001,175,75
2026-05-07 18:24:39.336,2,0.51,1.23,0.62,22.5922,53.3296,-39.8486,175,75
2026-05-07 18:24:39.365,2,0.46,1.33,0.47,16.3122,39.9196,-32.2286,175,75
2026-05-07 18:24:39.376,2,0.41,1.36,0.43,15.572199999999999,55.7696,-30.5186,175,75
2026-05-07 18:24:39.386,2,0.4,1.39,0.45,18.7422,82.1096,-24.608600000000003,175,75
2026-05-07 18:24:39.392,2,0.45,1.4,0.51,21.6722,92.1696,-19.178600000000003,175,75
2026-05-07 18:24:39.406,2,0.53,1.37,0.66,16.6722,78.7596,-12.5886,175,75
2026-05-07 18:24:39.414,2,0.58,1.31,0.73,4.962199999999999,50.4696,-8.628600000000006,175,75
2026-05-07 18:24:39.426,2,0.62,1.29,0.72,-5.457800000000001,16.6896,-3.5686000000000035,175,75
2026-05-07 18:24:39.436,2,0.61,1.34,0.63,-12.5378,-8.680399999999999,-1.798600000000004,175,75
2026-05-07 18:24:39.456,2,0.58,1.45,0.48,-14.4878,-15.080400000000001,4.421399999999998,175,75
2026-05-07 18:24:39.471,2,-0.24,1.6,0.46,-15.1578,-32.8304,-15.1586,175,75
2026-05-07 18:24:39.486,2,-0.32,1.72,0.76,-43.8778,2.2996,20.211399999999998,175,75
2026-05-07 18:24:39.491,2,1.43,0.53,0.98,-63.8778,-13.560400000000001,-37.5886,175,75
2026-05-07 18:24:39.505,2,1.15,1.08,0.53,-30.0978,54.7296,-3.6286000000000023,175,75
2026-05-07 18:24:39.518,2,0.77,1.59,0.1,13.9922,-15.9404,-3.8786000000000023,175,75
2026-05-07 18:24:39.521,2,0.36,1.66,0.54,19.6022,106.5596,-17.108600000000003,175,75
2026-05-07 18:24:39.536,2,0.84,1.39,0.71,10.272199999999998,130.4696,-13.078600000000002,175,75
2026-05-07 18:24:39.566,2,0.74,1.29,1.01,17.4022,46.4996,-3.9986000000000033,175,75
2026-05-07 18:24:39.577,2,0.52,1.6,0.67,17.4622,30.7696,12.531399999999998,175,75
2026-05-07 18:24:39.583,2,0.2,2.01,0.21,16.8522,-30.5704,31.191399999999998,175,75
2026-05-07 18:24:39.607,2,0.48,1.83,0.31,13.322199999999999,-38.1304,22.591399999999997,175,75
2026-05-07 18:24:39.607,2,0.93,1.38,0.54,-5.3978,-29.290399999999998,9.171399999999998,175,75
2026-05-07 18:24:39.627,2,0.92,0.8,1.01,-34.427800000000005,-84.7204,-7.5886,175,75
2026-05-07 18:24:39.639,2,0.66,1.07,0.99,-26.6178,-98.1904,-3.0786000000000016,175,75
2026-05-07 18:24:39.660,2,0.61,1.28,0.87,-12.777800000000001,-89.5304,2.161399999999997,175,75
2026-05-07 18:24:39.675,2,0.64,1.41,0.6,3.4421999999999997,-69.1704,13.261399999999997,175,75
2026-05-07 18:24:39.687,2,0.49,1.41,0.27,12.2822,-26.2404,13.811399999999997,175,75
2026-05-07 18:24:39.687,2,0.39,1.42,0.14,18.5622,18.7596,7.411399999999997,175,75
2026-05-07 18:24:39.704,2,0.64,1.34,0.52,28.2622,82.6596,-7.168600000000005,175,75
2026-05-07 18:24:39.725,2,0.73,1.31,0.86,23.4422,57.7196,-15.578600000000002,175,75
2026-05-07 18:24:39.738,2,0.76,1.38,0.89,11.8522,13.999600000000001,-11.858600000000003,175,75
2026-05-07 18:24:39.766,2,0.79,1.34,0.61,6.8522,-97.9504,8.261399999999998,175,75
2026-05-07 18:24:39.777,2,0.72,1.26,0.46,6.912199999999999,-55.57040000000001,-0.08860000000000312,175,75
2026-05-07 18:24:39.791,2,0.75,1.35,0.36,13.9922,-25.3904,-5.578600000000002,175,75
2026-05-07 18:24:39.803,2,0.7,1.46,0.32,24.7222,-9.900400000000001,-2.7786000000000044,175,75
2026-05-07 18:24:39.813,2,0.62,1.51,0.35,26.9822,-0.8103999999999996,-5.578600000000002,175,75
2026-05-07 18:24:39.836,2,0.69,1.37,0.52,5.7021999999999995,3.579600000000001,-9.5486,175,75
2026-05-07 18:24:39.870,2,0.56,1.25,0.52,-10.5878,-22.340400000000002,-11.858600000000003,175,75
2026-05-07 18:24:39.870,2,0.49,1.26,0.48,-12.2878,-12.770399999999999,-12.108600000000003,175,75
2026-05-07 18:24:39.884,2,0.46,1.34,0.41,-6.7978000000000005,3.089600000000001,-14.058600000000006,175,75
2026-05-07 18:24:39.908,2,0.43,1.47,0.4,4.7822,19.979599999999998,-4.238600000000002,175,75
2026-05-07 18:24:39.929,2,0.49,1.45,0.46,8.0122,24.6096,-5.638600000000004,175,75
2026-05-07 18:24:39.938,2,0.59,1.38,0.6,8.502199999999998,23.8196,-7.348600000000005,175,75
2026-05-07 18:24:39.966,2,0.68,1.41,0.61,-5.5878000000000005,-23.6804,-10.028600000000004,175,75
2026-05-07 18:24:39.973,2,0.63,1.41,0.51,-10.2178,-26.1804,-12.528600000000004,175,75
2026-05-07 18:24:39.986,2,0.58,1.4,0.45,-11.1878,-11.5504,-16.738600000000005,175,75
2026-05-07 18:24:39.996,2,0.56,1.38,0.43,-13.8778,-0.5703999999999994,-18.5086,175,75
2026-05-07 18:24:40.008,2,0.49,1.41,0.45,-10.0378,13.7596,-18.0186,175,75
2026-05-07 18:24:40.020,2,0.49,1.39,0.54,-8.0878,22.6596,-19.608600000000003,175,75
2026-05-07 18:24:40.052,2,0.46,1.41,0.71,-11.1878,28.1496,-20.8286,175,75
2026-05-07 18:24:40.076,2,0.46,1.53,0.73,-9.5478,-7.580400000000001,-10.218600000000002,175,75
2026-05-07 18:24:40.097,2,0.45,1.47,0.73,-4.1778,-16.1804,-3.8786000000000023,175,75
2026-05-07 18:24:40.126,2,0.44,1.48,0.7,-0.21780000000000044,-19.4104,-2.2886000000000024,175,75
2026-05-07 18:24:40.143,2,0.42,1.5,0.66,6.432199999999998,-12.4604,-1.0686000000000035,175,75
2026-05-07 18:24:40.153,2,0.4,1.49,0.66,6.912199999999999,-2.830399999999999,0.031399999999997874,175,75
2026-05-07 18:24:40.170,2,0.42,1.48,0.67,8.382200000000001,4.429600000000001,0.2713999999999963,175,75
2026-05-07 18:24:40.196,2,0.43,1.43,0.72,14.232199999999999,4.2496,0.5813999999999986,175,75
2026-05-07 18:24:40.231,2,0.41,1.45,0.68,12.522199999999998,1.8095999999999997,3.9913999999999987,175,75
2026-05-07 18:24:40.242,2,0.42,1.44,0.67,12.522199999999998,5.0396,5.511399999999998,175,75
2026-05-07 18:24:40.252,2,0.43,1.44,0.69,13.4422,7.5396,6.251399999999997,175,75
2026-05-07 18:24:40.277,2,0.45,1.48,0.73,18.8122,7.3596,7.591399999999997,175,75
2026-05-07 18:24:40.291,2,0.54,1.47,0.72,18.932199999999998,-8.310400000000001,12.771399999999998,175,75
2026-05-07 18:24:40.330,2,0.57,1.45,0.69,24.6622,-8.990400000000001,10.761399999999997,175,75
2026-05-07 18:24:40.350,2,0.59,1.43,0.69,24.1122,-2.5204000000000004,7.041399999999996,175,75
2026-05-07 18:24:40.373,2,0.59,1.5,0.68,24.172199999999997,-2.580399999999999,7.831399999999999,175,75
2026-05-07 18:24:40.386,2,0.56,1.51,0.65,25.392200000000003,-6.420400000000001,11.061399999999997,175,75
2026-05-07 18:24:40.398,2,0.55,1.49,0.64,24.5422,-5.880399999999998,11.861399999999998,175,75
2026-05-07 18:24:40.420,2,0.56,1.41,0.64,22.4022,5.889600000000001,13.081399999999997,175,75
2026-05-07 18:24:40.420,2,0.57,1.41,0.66,24.9022,9.249600000000001,12.041399999999998,175,75
2026-05-07 18:24:40.433,2,0.6,1.42,0.67,30.632199999999997,7.7796,11.371399999999998,175,75
2026-05-07 18:24:40.444,2,0.61,1.43,0.69,33.9922,5.219600000000001,10.211399999999998,175,75
2026-05-07 18:24:40.456,2,0.63,1.42,0.67,35.9422,0.09960000000000058,6.671399999999998,175,75
2026-05-07 18:24:40.476,2,0.61,1.49,0.51,37.7722,-12.090399999999999,3.8713999999999977,175,75
2026-05-07 18:24:40.487,2,0.61,1.56,0.44,37.2822,1.5595999999999997,3.3813999999999957,175,75
2026-05-07 18:24:40.505,2,0.69,1.54,0.45,37.5222,30.4696,2.411399999999997,175,75
2026-05-07 18:24:40.527,2,0.7,1.47,0.47,36.4922,45.7096,2.041399999999996,175,75
2026-05-07 18:24:40.527,2,0.72,1.46,0.49,36.1222,53.2696,2.8313999999999986,175,75
2026-05-07 18:24:40.538,2,0.73,1.46,0.53,38.2022,53.8196,-0.3386000000000031,175,75
2026-05-07 18:24:40.560,2,0.81,1.43,0.6,28.6222,41.869600000000005,-2.718600000000002,175,75
2026-05-07 18:24:40.574,2,0.79,1.45,0.6,24.4822,38.0296,-3.808600000000002,175,75
2026-05-07 18:24:40.597,2,0.74,1.44,0.66,18.7422,26.4396,-3.388600000000004,175,75
2026-05-07 18:24:40.602,2,0.75,1.38,0.72,13.5622,17.5396,-3.9986000000000033,175,75
2026-05-07 18:24:40.626,2,0.74,1.36,0.74,9.842199999999998,1.9296000000000006,-4.358600000000003,175,75
2026-05-07 18:24:40.655,2,0.59,1.42,0.56,5.632199999999999,-12.1604,-1.8586000000000027,175,75
2026-05-07 18:24:40.678,2,0.63,1.41,0.54,10.022199999999998,4.9196,-3.808600000000002,175,75
2026-05-07 18:24:40.690,2,0.63,1.41,0.55,13.932199999999998,14.729600000000001,-6.188600000000001,175,75
2026-05-07 18:24:40.722,2,0.58,1.38,0.62,19.2922,29.7296,-8.328600000000002,175,75
2026-05-07 18:24:40.736,2,0.57,1.37,0.7,22.1622,20.8896,-11.678600000000003,175,75
2026-05-07 18:24:40.749,2,0.56,1.39,0.71,23.742199999999997,7.9696,-9.178600000000003,175,75
2026-05-07 18:24:40.749,2,0.54,1.42,0.69,24.2922,-1.7303999999999995,-7.288600000000002,175,75
2026-05-07 18:24:40.767,2,0.54,1.43,0.65,23.322200000000002,-5.810400000000001,-5.578600000000002,175,75
2026-05-07 18:24:40.772,2,0.51,1.41,0.63,21.7922,-2.6403999999999996,-4.548600000000004,175,75
2026-05-07 18:24:40.788,2,0.5,1.39,0.63,21.182199999999998,2.3596000000000004,-3.7486000000000033,175,75
2026-05-07 18:24:40.790,2,0.48,1.36,0.66,20.9422,6.009600000000001,-3.388600000000004,175,75
2026-05-07 18:24:40.800,2,0.46,1.35,0.7,19.4822,1.8696000000000002,-3.3286000000000016,175,75
2026-05-07 18:24:40.816,2,0.46,1.32,0.73,17.1622,-8.380399999999998,0.2113999999999976,175,75
2026-05-07 18:24:40.840,2,0.43,1.32,0.73,15.9422,-18.8604,1.8613999999999962,175,75
2026-05-07 18:24:40.852,2,0.42,1.35,0.61,18.1322,-11.060400000000001,1.5513999999999974,175,75
2026-05-07 18:24:40.862,2,0.41,1.37,0.57,20.2122,4.6096,1.4313999999999965,175,75
2026-05-07 18:24:40.876,2,0.43,1.42,0.54,24.5422,20.4696,2.2213999999999956,175,75
2026-05-07 18:24:40.885,2,0.51,1.41,0.57,25.572200000000002,28.0896,-0.39860000000000184,175,75
2026-05-07 18:24:40.896,2,0.47,1.42,0.55,29.172199999999997,41.7496,1.6713999999999984,175,75
2026-05-07 18:24:40.906,2,0.43,1.45,0.6,33.2022,49.8596,-0.1586000000000034,175,75
2026-05-07 18:24:40.928,2,0.49,1.48,0.66,33.3222,40.6496,1.191399999999998,175,75
2026-05-07 18:24:40.941,2,0.55,1.48,0.71,30.822200000000002,22.599600000000002,6.4313999999999965,175,75
2026-05-07 18:24:40.941,2,0.6,1.46,0.68,29.782200000000003,-4.900400000000001,12.711399999999998,175,75
2026-05-07 18:24:40.952,2,0.58,1.45,0.61,28.9322,-21.0604,16.251399999999997,175,75
2026-05-07 18:24:40.964,2,0.56,1.46,0.53,27.712200000000003,-31.790399999999998,16.6714,175,75
2026-05-07 18:24:40.986,2,0.55,1.48,0.45,25.632199999999997,-36.6704,19.111399999999996,175,75
2026-05-07 18:24:40.986,2,0.58,1.46,0.47,21.6122,-43.6204,18.0114,175,75
2026-05-07 18:24:41.031,2,0.63,1.36,0.41,3.5022,-64.5304,16.731399999999997,175,75
2026-05-07 18:24:41.056,2,0.56,1.41,0.25,0.4521999999999995,-35.4504,14.721399999999997,175,75
2026-05-07 18:24:41.073,2,0.57,1.4,0.31,-4.9078,15.409600000000001,12.101399999999998,175,75
2026-05-07 18:24:41.089,2,0.65,1.36,0.41,-8.267800000000001,30.5896,8.931399999999996,175,75
2026-05-07 18:24:41.089,2,0.67,1.35,0.49,-11.3778,33.5796,7.531399999999998,175,75
2026-05-07 18:24:41.117,2,0.66,1.4,0.53,-21.7378,9.249600000000001,10.091399999999997,175,75
2026-05-07 18:24:41.131,2,0.51,1.47,0.47,-31.7378,-4.2303999999999995,16.551399999999997,175,75
2026-05-07 18:24:41.156,2,0.05,1.55,0.51,-47.2278,-15.750399999999999,-1.1286000000000023,175,75
2026-05-07 18:24:41.178,2,2.59,0.99,0.68,-114.2978,-118.44040000000001,37.59139999999999,175,75
2026-05-07 18:24:41.190,2,0.48,0.74,0.67,-83.0878,-4.170400000000001,-44.2986,175,75
2026-05-07 18:24:41.206,2,1.56,1.41,-0.43,-32.1678,75.2796,-7.348600000000005,175,75
2026-05-07 18:24:41.206,2,-0.11,1.85,0.36,8.072199999999999,108.8196,-20.278600000000004,175,75
2026-05-07 18:24:41.219,2,0.62,1.82,0.23,27.8322,337.7796,-14.5486,175,75
2026-05-07 18:24:41.230,2,0.52,1.55,1.08,36.9822,321.1996,-33.808600000000006,175,75
2026-05-07 18:24:41.242,2,0.68,1.49,1.22,27.6522,270.4696,-39.8486,175,75
2026-05-07 18:24:41.264,2,1.05,1.51,1.13,25.882199999999997,53.8196,26.121399999999998,175,75
2026-05-07 18:24:41.276,2,0.83,1.52,0.89,29.602199999999996,-26.0004,46.1914,175,75
2026-05-07 18:24:41.287,2,0.6,1.4,0.63,23.0122,-75.6904,31.731399999999997,175,75
2026-05-07 18:24:41.296,2,0.57,1.33,0.55,6.982199999999999,-87.0304,16.191399999999998,175,75
2026-05-07 18:24:41.329,2,0.77,1.35,0.96,-3.5078000000000005,-120.2704,-3.7486000000000033,175,75
2026-05-07 18:24:41.362,2,0.91,1.26,0.92,-0.09779999999999944,-165.3304,12.341399999999997,175,75
2026-05-07 18:24:41.378,2,0.78,1.19,0.45,2.8322000000000003,-141.8504,4.721399999999996,175,75
2026-05-07 18:24:41.392,2,0.24,1.46,-0.23,33.5622,41.8096,2.531399999999998,175,75
2026-05-07 18:24:41.417,2,0.23,1.44,0.25,38.9322,210.2196,2.4713999999999956,175,75
2026-05-07 18:24:41.417,2,0.85,1.33,0.76,29.2322,225.9496,-25.7686,175,75
2026-05-07 18:24:41.427,2,0.66,1.26,1.1,24.0522,197.2996,-30.948600000000006,175,75
2026-05-07 18:24:41.452,2,1.02,1.23,1.18,11.912199999999999,62.9696,-4.488600000000002,175,75
2026-05-07 18:24:41.464,2,1.01,1.27,1.07,17.0422,-40.2704,17.531399999999998,175,75
2026-05-07 18:24:41.475,2,0.9,1.31,0.83,25.822200000000002,-126.18039999999999,46.121399999999994,175,75
2026-05-07 18:24:41.486,2,0.69,1.31,0.48,29.6622,-170.1404,46.9214,175,75
2026-05-07 18:24:41.499,2,0.25,1.18,0.17,23.2622,-47.6404,1.8613999999999962,175,75
2026-05-07 18:24:41.511,2,0.51,1.25,0.19,28.382199999999997,32.9096,3.811399999999999,175,75
2026-05-07 18:24:41.526,2,0.87,1.29,0.46,48.5622,39.0596,-8.508600000000001,175,75
2026-05-07 18:24:41.552,2,0.81,1.2,0.55,14.842199999999998,-78.8604,-3.7486000000000033,175,75
2026-05-07 18:24:41.575,2,0.7,1.19,0.28,8.132200000000001,-60.880399999999995,-15.1586,175,75
2026-05-07 18:24:41.575,2,0.64,1.22,0.11,16.0022,-14.900400000000001,-18.998600000000003,175,75
2026-05-07 18:24:41.596,2,0.56,1.26,0.24,26.1222,75.33959999999999,-18.198600000000006,175,75
2026-05-07 18:24:41.631,2,0.65,1.2,0.61,22.6522,88.7596,-20.8286,175,75
2026-05-07 18:24:41.642,2,0.66,1.21,0.78,16.4922,40.1596,-19.178600000000003,175,75
2026-05-07 18:24:41.672,2,0.62,1.28,0.67,14.112200000000001,-14.720399999999998,-12.778600000000004,175,75
2026-05-07 18:24:41.699,2,0.51,1.27,0.48,19.7822,4.6096,-15.218600000000002,175,75
2026-05-07 18:24:41.725,2,0.44,1.28,0.5,24.602199999999996,23.9396,-12.108600000000003,175,75
2026-05-07 18:24:41.750,2,0.47,1.28,0.58,26.7922,28.9996,-11.498600000000003,175,75
2026-05-07 18:24:41.764,2,0.48,1.31,0.54,21.3122,15.4696,-7.5886,175,75
2026-05-07 18:24:41.790,2,0.47,1.32,0.46,13.6222,31.9296,-7.108600000000003,175,75
2026-05-07 18:24:41.812,2,0.49,1.33,0.48,14.7222,47.6596,-6.678600000000003,175,75
2026-05-07 18:24:41.826,2,0.54,1.31,0.63,17.7122,54.7996,-6.918600000000005,175,75
2026-05-07 18:24:41.856,2,0.53,1.36,0.67,18.3822,25.4696,-1.1286000000000023,175,75
2026-05-07 18:24:41.856,2,0.51,1.37,0.62,12.4622,13.9396,2.281399999999998,175,75
2026-05-07 18:24:41.894,2,0.54,1.36,0.6,6.312200000000001,12.4196,6.5513999999999974,175,75
2026-05-07 18:24:41.917,2,0.59,1.3,0.68,1.312199999999999,-6.3004,9.171399999999998,175,75
2026-05-07 18:24:41.928,2,0.57,1.32,0.63,-1.4977999999999998,-18.5604,9.051399999999997,175,75
2026-05-07 18:24:41.934,2,0.56,1.35,0.59,-0.9478000000000009,-21.550399999999996,8.871399999999998,175,75
2026-05-07 18:24:41.958,2,0.63,1.33,0.56,-1.9277999999999995,-21.3604,6.251399999999997,175,75
2026-05-07 18:24:41.958,2,0.57,1.4,0.57,-0.9478000000000009,-8.250399999999999,8.691399999999998,175,75
2026-05-07 18:24:41.978,2,0.59,1.42,0.62,8.6222,-3.8004,8.691399999999998,175,75
2026-05-07 18:24:41.988,2,0.66,1.36,0.69,6.612200000000001,-15.270399999999999,8.201399999999996,175,75
2026-05-07 18:24:42.002,2,0.68,1.32,0.7,-1.2577999999999996,-30.5704,9.421399999999997,175,75
2026-05-07 18:24:42.019,2,0.6,1.31,0.53,-2.9578000000000007,-38.5004,6.251399999999997,175,75
2026-05-07 18:24:42.030,2,0.63,1.31,0.46,0.4521999999999995,-31.8504,4.231399999999997,175,75
2026-05-07 18:24:42.044,2,0.58,1.35,0.43,1.1221999999999994,-17.0304,4.481399999999997,175,75
2026-05-07 18:24:42.060,2,0.5,1.41,0.46,8.7422,20.1596,3.5013999999999967,175,75
2026-05-07 18:24:42.065,2,0.53,1.43,0.53,17.0422,44.4896,3.1413999999999973,175,75
2026-05-07 18:24:42.077,2,0.56,1.41,0.63,18.2622,46.5596,2.281399999999998,175,75
2026-05-07 18:24:42.077,2,0.61,1.38,0.72,12.892199999999999,33.8196,2.161399999999997,175,75
2026-05-07 18:24:42.091,2,0.62,1.38,0.75,3.2021999999999995,14.5496,6.731399999999997,175,75
2026-05-07 18:24:42.111,2,0.56,1.4,0.68,-6.4978,-24.660400000000003,11.861399999999998,175,75
2026-05-07 18:24:42.125,2,0.53,1.41,0.62,-7.8378,-22.2804,11.191399999999998,175,75
2026-05-07 18:24:42.148,2,0.67,1.46,0.65,-5.5878000000000005,-2.830399999999999,3.5013999999999967,175,75
2026-05-07 18:24:42.171,2,0.62,1.57,0.66,-3.4478,21.0796,11.251399999999997,175,75
2026-05-07 18:24:42.171,2,0.62,1.58,0.71,1.312199999999999,22.9696,11.061399999999997,175,75
2026-05-07 18:24:42.182,2,0.68,1.54,0.82,-1.5578000000000003,17.4796,11.611399999999998,175,75
2026-05-07 18:24:42.207,2,0.79,1.51,0.88,-18.0178,-20.8104,22.891399999999997,175,75
2026-05-07 18:24:42.230,2,0.84,1.48,0.82,-18.997799999999998,-54.900400000000005,27.591399999999997,175,75
2026-05-07 18:24:42.241,2,0.9,1.46,0.75,-20.8878,-53.620400000000004,26.431399999999996,175,75
2026-05-07 18:24:42.266,2,0.9,1.42,0.73,-22.6578,-51.2404,19.051399999999997,175,75
2026-05-07 18:24:42.284,2,0.84,1.39,0.74,-21.797800000000002,-63.740399999999994,15.151399999999997,175,75
2026-05-07 18:24:42.299,2,0.78,1.39,0.71,-22.1078,-68.5604,14.841399999999997,175,75
2026-05-07 18:24:42.310,2,0.74,1.4,0.65,-21.1278,-61.6104,13.081399999999997,175,75
2026-05-07 18:24:42.324,2,0.75,1.35,0.57,-16.5578,-34.5304,7.221399999999996,175,75
2026-05-07 18:24:42.354,2,0.76,1.31,0.52,-6.867800000000001,8.3896,0.8813999999999957,175,75
2026-05-07 18:24:42.367,2,0.72,1.31,0.55,-0.7078000000000007,23.6396,-3.808600000000002,175,75
2026-05-07 18:24:42.377,2,0.71,1.32,0.61,5.4521999999999995,36.199600000000004,-6.918600000000005,175,75
2026-05-07 18:24:42.383,2,0.71,1.31,0.69,9.292200000000001,41.7496,-10.828600000000002,175,75
2026-05-07 18:24:42.397,2,0.69,1.3,0.75,11.182199999999998,35.099599999999995,-12.288600000000002,175,75
2026-05-07 18:24:42.416,2,0.63,1.26,0.76,17.3422,11.1996,-13.078600000000002,175,75
2026-05-07 18:24:42.426,2,0.58,1.25,0.71,19.1722,0.7096,-12.348600000000005,175,75
2026-05-07 18:24:42.436,2,0.56,1.24,0.69,21.3122,-7.830400000000001,-15.638600000000004,175,75
2026-05-07 18:24:42.459,2,0.56,1.25,0.67,22.0422,-8.9204,-16.4386,175,75
2026-05-07 18:24:42.469,2,0.51,1.28,0.64,23.9322,-2.830399999999999,-17.168600000000005,175,75
2026-05-07 18:24:42.485,2,0.49,1.34,0.61,30.0922,12.1696,-16.128600000000006,175,75
2026-05-07 18:24:42.497,2,0.44,1.35,0.67,32.2822,18.7596,-14.608600000000003,175,75
2026-05-07 18:24:42.524,2,0.42,1.35,0.71,31.6122,4.6096,-8.328600000000002,175,75
2026-05-07 18:24:42.551,2,0.45,1.34,0.64,26.9122,-29.1104,-0.39860000000000184,175,75
2026-05-07 18:24:42.573,2,0.47,1.33,0.6,27.3422,-28.800399999999996,-1.0086000000000013,175,75
2026-05-07 18:24:42.584,2,0.42,1.37,0.55,29.962200000000003,-8.500399999999999,1.1213999999999977,175,75
2026-05-07 18:24:42.594,2,0.42,1.38,0.57,28.4422,-7.8904,2.531399999999998,175,75
2026-05-07 18:24:42.616,2,0.43,1.38,0.58,23.502200000000002,-14.470399999999998,6.5513999999999974,175,75
2026-05-07 18:24:42.627,2,0.44,1.36,0.59,18.2022,-23.6804,9.481399999999997,175,75
2026-05-07 18:24:42.633,2,0.44,1.34,0.57,15.2122,-27.4604,10.821399999999997,175,75
2026-05-07 18:24:42.647,2,0.47,1.34,0.58,13.2622,-32.8304,10.701399999999998,175,75
2026-05-07 18:24:42.658,2,0.51,1.37,0.57,12.7122,-34.4704,11.001399999999997,175,75
2026-05-07 18:24:42.697,2,0.5,1.42,0.45,15.882200000000001,-13.380399999999998,14.911399999999997,175,75
2026-05-07 18:24:42.728,2,0.61,1.33,0.61,5.9422,-14.470399999999998,22.411399999999997,175,75
2026-05-07 18:24:42.760,2,0.53,1.48,0.37,-9.0578,-25.510399999999997,37.831399999999995,175,75
2026-05-07 18:24:42.776,2,0.65,1.47,0.32,-10.7078,-8.310400000000001,35.581399999999995,175,75
2026-05-07 18:24:42.783,2,0.67,1.42,0.37,-13.2078,-5.270399999999999,33.261399999999995,175,75
2026-05-07 18:24:42.800,2,0.75,1.33,0.55,-18.997799999999998,-11.790399999999998,27.8314,175,75
2026-05-07 18:24:42.817,2,0.08,1.36,0.62,-30.9478,-54.5304,5.641399999999997,175,75
2026-05-07 18:24:42.828,2,-0.87,1.75,0.54,-35.3378,-29.410400000000003,15.511399999999997,175,75
2026-05-07 18:24:42.828,2,3.98,0.85,0.78,-84.6078,-208.2504,22.951399999999996,175,75
2026-05-07 18:24:42.841,2,1.57,0.23,0.57,-83.9978,-60.3904,-31.068600000000004,175,75
2026-05-07 18:24:42.888,2,0.43,1.67,-0.04,60.572199999999995,354.3096,-12.718600000000002,175,75
2026-05-07 18:24:42.899,2,0.84,1.16,1.18,41.9822,201.5596,-60.698600000000006,175,75
2026-05-07 18:24:42.922,2,0.54,2.1,0.28,36.1822,-3.4404000000000003,17.041399999999996,175,75
2026-05-07 18:24:42.934,2,0.69,2.12,0.3,27.102199999999996,-89.9004,23.621399999999998,175,75
2026-05-07 18:24:42.946,2,0.59,1.64,0.38,-3.3878000000000004,-30.080399999999997,-1.0086000000000013,175,75
2026-05-07 18:24:43.002,2,0.77,1.0,0.82,-30.6478,-71.7304,-0.6986000000000026,175,75
2026-05-07 18:24:43.013,2,0.74,1.02,0.49,-32.1078,-47.6404,-3.138600000000004,175,75
2026-05-07 18:24:43.013,2,0.57,1.12,0.14,-30.5878,13.0296,-6.498600000000003,175,75
2026-05-07 18:24:43.050,2,0.39,1.27,0.33,12.522199999999998,251.0796,-9.488600000000005,175,75
2026-05-07 18:24:43.085,2,0.75,1.41,1.08,15.882200000000001,179.0596,-41.068599999999996,175,75
2026-05-07 18:24:43.107,2,0.81,1.42,1.05,11.432199999999998,117.2296,-25.398600000000002,175,75
2026-05-07 18:24:43.107,2,0.82,1.37,1.03,13.4422,40.6496,-7.5886,175,75
2026-05-07 18:24:43.118,2,0.73,1.29,0.96,21.3122,-29.840400000000002,14.051399999999997,175,75
2026-05-07 18:24:43.141,2,0.58,1.27,0.78,28.322200000000002,-84.2304,28.751399999999997,175,75
2026-05-07 18:24:43.154,2,0.44,1.2,0.63,25.022199999999998,-52.2804,-1.0686000000000035,175,75
2026-05-07 18:24:43.174,2,0.65,1.3,0.56,27.282200000000003,3.6996,-6.558600000000002,175,75
2026-05-07 18:24:43.197,2,0.72,1.31,0.64,28.2622,-33.9904,-1.4986000000000033,175,75
2026-05-07 18:24:43.211,2,0.67,1.23,0.51,16.2422,-12.4604,-6.7986,175,75
2026-05-07 18:24:43.225,2,0.68,1.25,0.44,25.572200000000002,19.4296,-11.498600000000003,175,75
2026-05-07 18:24:43.236,2,0.64,1.28,0.47,31.062199999999997,32.9696,-11.498600000000003,175,75
2026-05-07 18:24:43.246,2,0.6,1.29,0.54,33.7422,43.6396,-14.358600000000003,175,75
2026-05-07 18:24:43.250,2,0.61,1.3,0.6,33.7422,45.0396,-13.998600000000003,175,75
2026-05-07 18:24:43.264,2,0.6,1.32,0.68,32.7122,39.7996,-13.938600000000001,175,75
2026-05-07 18:24:43.273,2,0.64,1.35,0.73,30.572200000000002,33.449600000000004,-12.778600000000004,175,75
2026-05-07 18:24:43.299,2,0.68,1.38,0.73,26.852199999999996,18.4496,-9.238600000000005,175,75
2026-05-07 18:24:43.334,2,0.77,1.41,0.67,25.822200000000002,1.0096000000000007,-9.2986,175,75
2026-05-07 18:24:43.353,2,0.76,1.42,0.65,19.7222,-9.5304,-8.198600000000006,175,75
2026-05-07 18:24:43.365,2,0.69,1.38,0.61,15.2122,-7.400400000000001,-9.668600000000005,175,75
2026-05-07 18:24:43.399,2,0.63,1.34,0.59,14.9022,7.2296000000000005,-13.998600000000003,175,75
2026-05-07 18:24:43.411,2,0.63,1.37,0.62,15.632200000000001,15.4696,-16.7986,175,75
2026-05-07 18:24:43.414,2,0.64,1.38,0.64,13.7422,17.4196,-17.288600000000002,175,75
2026-05-07 18:24:43.429,2,0.64,1.37,0.64,11.5522,17.0496,-16.248600000000003,175,75
2026-05-07 18:24:43.435,2,0.63,1.36,0.62,11.912199999999999,19.4896,-16.498600000000003,175,75
2026-05-07 18:24:43.465,2,0.62,1.35,0.64,21.2422,31.5596,-20.7686,175,75
2026-05-07 18:24:43.474,2,0.62,1.36,0.66,25.632199999999997,34.7996,-21.738600000000005,175,75
2026-05-07 18:24:43.486,2,0.59,1.36,0.64,27.892200000000003,34.3096,-20.5786,175,75
2026-05-07 18:24:43.528,2,0.49,1.39,0.58,36.4322,49.5496,-19.238600000000005,175,75
2026-05-07 18:24:43.541,2,0.44,1.4,0.6,39.8422,66.8096,-17.718600000000002,175,75
2026-05-07 18:24:43.576,2,0.44,1.44,0.64,45.3922,69.8596,-8.078600000000002,175,75
2026-05-07 18:24:43.593,2,0.48,1.42,0.7,46.852199999999996,67.6596,-2.838600000000003,175,75
2026-05-07 18:24:43.618,2,0.54,1.34,0.8,43.5622,49.6696,-0.3386000000000031,175,75
2026-05-07 18:24:43.628,2,0.56,1.31,0.83,41.3722,27.779600000000002,-0.8286000000000016,175,75
2026-05-07 18:24:43.642,2,0.59,1.29,0.84,39.7822,6.7496,-2.2886000000000024,175,75
2026-05-07 18:24:43.656,2,0.64,1.17,0.81,35.8222,-18.4404,-8.568600000000004,175,75
2026-05-07 18:24:43.673,2,0.49,1.13,0.63,34.5422,-2.5204000000000004,-28.0186,175,75
2026-05-07 18:24:43.686,2,0.36,1.22,0.59,48.2622,29.119600000000002,-34.9686,175,75
2026-05-07 18:24:43.696,2,0.31,1.25,0.67,54.7222,47.4196,-39.058600000000006,175,75
2026-05-07 18:24:43.696,2,0.27,1.26,0.78,54.842200000000005,58.8796,-40.39860000000001,175,75
2026-05-07 18:24:43.710,2,0.19,1.26,0.85,47.2822,65.58959999999999,-39.8486,175,75
2026-05-07 18:24:43.726,2,0.04,1.36,0.88,32.0422,65.4096,-31.4386,175,75
2026-05-07 18:24:43.738,2,0.01,1.46,0.9,33.1322,57.9096,-24.788600000000002,175,75
2026-05-07 18:24:43.749,2,0.05,1.53,0.92,33.5622,48.0896,-12.898600000000002,175,75
2026-05-07 18:24:43.762,2,0.07,1.62,0.95,31.1822,37.0496,0.15139999999999887,175,75
2026-05-07 18:24:43.792,2,0.26,2.04,0.86,51.7922,51.0096,43.871399999999994,175,75
2026-05-07 18:24:43.801,2,0.38,2.05,0.96,71.3722,75.09960000000001,41.6714,175,75
2026-05-07 18:24:43.820,2,0.6,1.95,1.09,73.3222,83.5096,44.7814,175,75
2026-05-07 18:24:43.837,2,0.81,1.6,1.26,50.9422,31.3196,60.941399999999994,175,75
2026-05-07 18:24:43.851,2,0.87,1.26,1.32,38.0722,-32.9504,66.8614,175,75
2026-05-07 18:24:43.882,2,0.9,1.09,1.19,26.312199999999997,-95.3904,60.761399999999995,175,75
2026-05-07 18:24:43.882,2,0.86,1.12,1.08,22.4022,-96.6104,52.1014,175,75
2026-05-07 18:24:43.899,2,0.81,1.24,0.88,24.2922,-62.6404,37.4114,175,75
2026-05-07 18:24:43.913,2,0.85,1.34,0.8,31.1822,-24.050399999999996,28.5614,175,75
2026-05-07 18:24:43.942,2,0.93,1.35,0.92,46.7922,59.1196,18.2614,175,75
2026-05-07 18:24:43.942,2,0.98,1.3,0.99,46.6722,89.0596,10.151399999999997,175,75
2026-05-07 18:24:43.956,2,1.0,1.33,1.06,51.3722,112.9696,2.101399999999998,175,75
2026-05-07 18:24:43.971,2,0.98,1.39,1.08,57.2222,127.7796,-0.6986000000000026,175,75
2026-05-07 18:24:43.981,2,0.93,1.43,1.13,63.4422,140.1596,-2.1686000000000014,175,75
2026-05-07 18:24:43.994,2,0.9,1.37,1.19,66.8522,140.7096,-1.558600000000002,175,75
2026-05-07 18:24:44.005,2,0.9,1.28,1.26,68.8722,137.83960000000002,-0.3386000000000031,175,75
2026-05-07 18:24:44.018,2,0.92,1.21,1.33,70.8822,124.3696,-1.678600000000003,175,75
2026-05-07 18:24:44.030,2,0.99,1.17,1.39,73.8722,107.2296,-2.5286000000000044,175,75
2026-05-07 18:24:44.041,2,1.0,1.15,1.41,78.7422,89.1196,-2.048600000000004,175,75
2026-05-07 18:24:44.059,2,0.93,1.15,1.3,88.4422,50.0996,-0.1586000000000034,175,75
2026-05-07 18:24:44.069,2,0.89,1.13,1.27,92.4022,44.8596,-1.188600000000001,175,75
2026-05-07 18:24:44.082,2,0.81,1.12,1.26,97.8322,47.7196,-3.688600000000001,175,75
2026-05-07 18:24:44.082,2,0.79,1.09,1.27,103.01219999999999,51.6196,-7.348600000000005,175,75
2026-05-07 18:24:44.103,2,0.77,1.07,1.24,107.1622,52.1096,-4.968600000000002,175,75
2026-05-07 18:24:44.103,2,0.72,1.08,1.19,110.51219999999999,52.2296,-2.838600000000003,175,75
2026-05-07 18:24:44.133,2,0.78,1.15,1.08,123.74220000000001,87.6596,-1.438600000000001,175,75
2026-05-07 18:24:44.161,2,0.88,1.16,1.08,136.37220000000002,124.3096,-5.888600000000004,175,75
2026-05-07 18:24:44.175,2,0.95,1.12,1.17,139.23219999999998,124.7296,-8.628600000000006,175,75
2026-05-07 18:24:44.180,2,0.83,1.17,0.99,138.2622,132.2996,10.331399999999997,175,75
2026-05-07 18:24:44.195,2,0.37,1.3,0.83,137.4022,106.0796,10.941399999999998,175,75
2026-05-07 18:24:44.217,2,0.76,1.02,1.38,99.9022,32.9096,1.5513999999999974,175,75
2026-05-07 18:24:44.235,2,0.86,1.01,1.31,97.9522,-27.8904,9.781399999999998,175,75
2026-05-07 18:24:44.245,2,0.82,1.06,1.15,106.6122,-82.46039999999999,18.621399999999998,175,75
2026-05-07 18:24:44.245,2,0.72,1.03,0.91,109.9622,-71.9704,8.931399999999996,175,75
2026-05-07 18:24:44.269,2,0.58,1.17,0.5,114.6622,48.0296,-7.108600000000003,175,75
2026-05-07 18:24:44.273,2,0.54,1.25,0.61,124.11219999999999,105.2796,-7.4086,175,75
2026-05-07 18:24:44.296,2,0.65,1.13,1.22,117.1022,111.1396,-12.468600000000002,175,75
2026-05-07 18:24:44.320,2,0.72,1.14,1.21,95.8822,-9.9604,7.041399999999996,175,75
2026-05-07 18:24:44.347,2,0.6,1.07,0.89,91.0622,-47.2204,8.691399999999998,175,75
2026-05-07 18:24:44.367,2,0.56,1.16,0.74,97.4022,46.0796,-5.9486000000000026,175,75
2026-05-07 18:24:44.378,2,0.58,1.19,0.88,101.7322,61.8696,-8.0186,175,75
2026-05-07 18:24:44.389,2,0.6,1.16,1.0,99.6022,62.2296,-8.2686,175,75
2026-05-07 18:24:44.399,2,0.61,1.11,1.02,95.4522,49.9196,-4.848600000000001,175,75
2026-05-07 18:24:44.410,2,0.58,1.11,1.0,93.1322,35.2196,-1.2486000000000033,175,75
2026-05-07 18:24:44.424,2,0.58,1.19,0.89,92.5922,33.1496,0.3313999999999986,175,75
2026-05-07 18:24:44.456,2,0.61,1.2,0.93,89.5422,46.0096,3.3813999999999957,175,75
2026-05-07 18:24:44.497,2,0.52,1.22,0.91,75.8822,10.9496,16.191399999999998,175,75
2026-05-07 18:24:44.497,2,0.55,1.23,0.86,75.8822,10.2196,12.411399999999997,175,75
2026-05-07 18:24:44.522,2,0.62,1.29,0.78,83.2022,14.6696,8.261399999999998,175,75
2026-05-07 18:24:44.536,2,0.67,1.31,0.93,77.2222,21.7496,3.8713999999999977,175,75
2026-05-07 18:24:44.563,2,1.17,1.67,1.32,75.1522,113.5096,17.8314,175,75
2026-05-07 18:24:44.587,2,1.05,0.97,-0.09,49.9622,27.479599999999998,-22.958600000000004,175,75
2026-05-07 18:24:44.604,2,1.27,1.68,0.52,129.54219999999998,213.0296,-11.438600000000001,175,75
2026-05-07 18:24:44.617,2,0.6,1.6,1.11,120.15220000000001,158.6996,-21.498600000000003,175,75
2026-05-07 18:24:44.628,2,0.87,1.17,1.27,85.7022,122.2996,-31.498600000000003,175,75
2026-05-07 18:24:44.647,2,0.83,1.09,0.87,49.8422,13.6396,-12.0486,175,75
2026-05-07 18:24:44.669,2,0.57,1.58,0.39,90.76219999999999,83.9396,-15.828600000000002,175,75
2026-05-07 18:24:44.691,2,0.85,1.57,0.72,73.6222,129.3696,-11.738600000000005,175,75
2026-05-07 18:24:44.703,2,0.69,1.22,0.81,67.4622,75.5296,-0.8886000000000038,175,75
2026-05-07 18:24:44.729,2,0.87,1.11,0.85,64.2922,51.8096,-0.21860000000000213,175,75
2026-05-07 18:24:44.729,2,0.89,1.11,0.84,58.932199999999995,34.8596,0.2713999999999963,175,75
2026-05-07 18:24:44.746,2,0.93,1.22,0.74,62.7722,39.729600000000005,-7.168600000000005,175,75
2026-05-07 18:24:44.759,2,1.01,1.21,0.75,68.9322,39.979600000000005,-14.358600000000003,175,75
2026-05-07 18:24:44.771,2,1.01,1.18,0.72,68.8122,34.119600000000005,-20.458600000000004,175,75
2026-05-07 18:24:44.787,2,0.97,1.21,0.65,67.1022,35.7696,-24.788600000000002,175,75
2026-05-07 18:24:44.803,2,0.83,1.32,0.51,68.6822,41.1396,-22.0486,175,75
2026-05-07 18:24:44.831,2,0.79,1.54,0.61,66.5522,49.2496,-16.308600000000006,175,75
2026-05-07 18:24:44.872,2,0.82,1.31,0.69,46.9122,-0.14039999999999964,-15.698600000000006,175,75
2026-05-07 18:24:44.907,2,0.59,1.3,0.6,40.3322,25.5896,-16.918600000000005,175,75
2026-05-07 18:24:44.918,2,0.57,1.3,0.62,39.0522,33.2096,-16.068600000000004,175,75
2026-05-07 18:24:44.928,2,0.57,1.32,0.64,38.0722,27.6596,-14.848600000000005,175,75
2026-05-07 18:24:44.939,2,0.59,1.34,0.65,38.0122,13.819600000000001,-11.918600000000005,175,75
2026-05-07 18:24:44.951,2,0.63,1.3,0.62,35.3922,-5.3904,-9.238600000000005,175,75
2026-05-07 18:24:44.977,2,0.75,1.22,0.46,23.382199999999997,-39.5904,-13.078600000000002,175,75
2026-05-07 18:24:44.987,2,0.69,1.26,0.39,28.2622,-22.400399999999998,-13.448600000000006,175,75
2026-05-07 18:24:45.000,2,0.6,1.32,0.38,35.9422,6.3796,-13.808600000000006,175,75
2026-05-07 18:24:45.053,2,0.44,1.39,0.48,29.172199999999997,6.3196,-0.5186000000000028,175,75
2026-05-07 18:24:45.085,2,0.58,1.28,0.61,10.7622,-7.520399999999999,-1.9186000000000014,175,75
2026-05-07 18:24:45.100,2,0.59,1.29,0.56,6.792200000000001,-23.6804,-2.6586000000000034,175,75
2026-05-07 18:24:45.111,2,0.71,1.27,0.46,3.6822,-35.6904,-12.468600000000002,175,75
2026-05-07 18:24:45.132,2,0.56,1.33,0.36,5.9422,-23.7404,-7.898600000000002,175,75
2026-05-07 18:24:45.142,2,0.46,1.37,0.35,11.0622,-2.830399999999999,-9.668600000000005,175,75
2026-05-07 18:24:45.154,2,0.49,1.41,0.49,9.232199999999999,61.9296,-3.0786000000000016,175,75
2026-05-07 18:24:45.202,2,0.61,1.32,0.71,-6.377800000000001,-39.8404,3.9913999999999987,175,75
2026-05-07 18:24:45.202,2,0.58,1.35,0.6,-11.5578,-61.120400000000004,4.841399999999997,175,75
2026-05-07 18:24:45.228,2,0.55,1.36,0.45,-14.8478,-63.800399999999996,5.511399999999998,175,75
2026-05-07 18:24:45.261,2,0.51,1.36,0.48,-15.0978,-27.090400000000002,11.061399999999997,175,75
2026-05-07 18:24:45.283,2,0.54,1.35,0.56,-18.8778,-31.910400000000003,12.341399999999997,175,75
2026-05-07 18:24:45.294,2,0.58,1.3,0.59,-29.0578,-54.290400000000005,16.251399999999997,175,75
2026-05-07 18:24:45.305,2,0.57,1.28,0.54,-31.1878,-64.8404,17.221399999999996,175,75
2026-05-07 18:24:45.316,2,0.55,1.27,0.51,-32.047799999999995,-67.6404,16.371399999999998,175,75
2026-05-07 18:24:45.332,2,0.53,1.28,0.47,-30.3978,-56.6104,19.4214,175,75
2026-05-07 18:24:45.348,2,0.54,1.28,0.5,-31.7378,-54.2304,19.721399999999996,175,75
2026-05-07 18:24:45.356,2,0.55,1.28,0.49,-33.9978,-53.07040000000001,23.3814,175,75
2026-05-07 18:24:45.372,2,0.59,1.28,0.47,-40.2778,-57.770399999999995,26.251399999999997,175,75
2026-05-07 18:24:45.397,2,0.65,1.26,0.46,-49.4278,-58.9204,32.651399999999995,175,75
2026-05-07 18:24:45.407,2,0.71,1.23,0.53,-53.5078,-66.4204,33.3814,175,75
2026-05-07 18:24:45.415,2,0.71,1.23,0.61,-57.2278,-83.3104,34.231399999999994,175,75
2026-05-07 18:24:45.441,2,0.52,1.29,0.73,-61.6778,-136.7304,39.0514,175,75
2026-05-07 18:24:45.452,2,0.55,1.28,0.77,-70.5178,-194.1704,46.611399999999996,175,75
2026-05-07 18:24:45.452,2,0.44,1.28,0.65,-81.8678,-241.8504,62.221399999999996,175,75
2026-05-07 18:24:45.480,2,-0.68,1.71,0.64,-103.9978,-221.7304,80.5114,175,75
2026-05-07 18:24:45.501,2,1.08,0.69,-0.68,-107.7178,-311.8504,-4.238600000000002,175,75
2026-05-07 18:24:45.511,2,0.13,0.94,-0.69,-73.87780000000001,-215.3904,38.081399999999995,175,75
2026-05-07 18:24:45.522,2,-0.58,1.27,-0.2,-37.4078,150.4096,42.8314,175,75
2026-05-07 18:24:45.540,2,0.39,1.5,0.04,-33.937799999999996,364.4296,49.6014,175,75
2026-05-07 18:24:45.540,2,0.67,1.6,0.44,-53.9378,380.5296,41.0614,175,75
2026-05-07 18:24:45.550,2,0.93,1.53,1.03,-64.90780000000001,158.6396,-23.2686,175,75
2026-05-07 18:24:45.556,2,0.83,1.48,1.14,-93.9978,61.0096,31.3114,175,75
2026-05-07 18:24:45.572,2,0.84,1.52,1.18,-100.0378,-72.46039999999999,59.541399999999996,175,75
2026-05-07 18:24:45.595,2,0.82,1.64,0.99,-88.6878,-180.5104,86.5514,175,75
2026-05-07 18:24:45.595,2,0.77,1.62,0.74,-84.6078,-240.3904,91.8614,175,75
2026-05-07 18:24:45.605,2,0.64,1.55,0.33,-100.7678,-173.9904,64.97139999999999,175,75
2026-05-07 18:24:45.619,2,0.69,1.58,0.18,-105.6478,-124.41040000000001,71.8614,175,75
2026-05-07 18:24:45.629,2,0.67,1.59,0.21,-96.73780000000001,-78.5604,71.8614,175,75
2026-05-07 18:24:45.648,2,0.73,1.51,0.41,-75.7678,-19.5304,70.6414,175,75
2026-05-07 18:24:45.648,2,0.85,1.44,0.56,-70.45779999999999,-21.4904,64.8414,175,75
2026-05-07 18:24:45.661,2,0.88,1.39,0.68,-76.98780000000001,-44.4104,61.611399999999996,175,75
2026-05-07 18:24:45.692,2,0.97,1.31,0.52,-95.8878,-61.0604,43.7514,175,75
2026-05-07 18:24:45.729,2,0.86,1.3,0.61,-103.3878,-21.6104,20.451399999999996,175,75
2026-05-07 18:24:45.778,2,0.62,1.27,0.8,-112.1078,-22.4604,16.611399999999996,175,75
2026-05-07 18:24:45.808,2,0.58,1.24,0.76,-121.4978,-46.8504,13.381399999999998,175,75
2026-05-07 18:24:45.808,2,0.52,1.31,0.72,-116.0078,-35.6304,11.311399999999997,175,75
2026-05-07 18:24:45.818,2,0.53,1.31,0.74,-110.2178,-31.120399999999997,7.891399999999997,175,75
2026-05-07 18:24:45.841,2,0.54,1.27,0.72,-114.7278,-22.520400000000002,10.331399999999997,175,75
2026-05-07 18:24:45.862,2,0.42,1.3,0.61,-113.4478,-7.520399999999999,13.931399999999996,175,75
2026-05-07 18:24:45.866,2,0.31,1.37,0.57,-103.1478,10.409600000000001,19.781399999999998,175,75
2026-05-07 18:24:45.889,2,0.44,1.34,0.8,-87.9578,15.4696,20.701399999999996,175,75
2026-05-07 18:24:45.889,2,0.47,1.37,0.82,-99.7878,-0.8103999999999996,25.5114,175,75
2026-05-07 18:24:45.911,2,0.67,1.36,0.74,-110.2778,-27.770400000000002,23.0114,175,75
2026-05-07 18:24:45.929,2,0.62,1.33,0.71,-90.2178,17.2296,21.001399999999997,175,75
2026-05-07 18:24:45.957,2,0.69,1.28,0.83,-88.6278,12.4196,16.6714,175,75
2026-05-07 18:24:45.978,2,0.61,1.25,0.85,-104.1178,-12.2804,13.621399999999998,175,75
2026-05-07 18:24:45.988,2,0.52,1.25,0.81,-104.1778,0.7096,7.411399999999997,175,75
2026-05-07 18:24:46.015,2,0.49,1.21,0.84,-108.2678,30.529600000000002,1.8613999999999962,175,75
2026-05-07 18:24:46.027,2,0.5,1.22,0.83,-108.2678,40.2796,-1.2486000000000033,175,75
2026-05-07 18:24:46.034,2,0.5,1.24,0.8,-104.5478,54.6696,-4.908600000000003,175,75
2026-05-07 18:24:46.061,2,0.48,1.27,0.81,-100.8878,66.7496,-6.308600000000002,175,75
2026-05-07 18:24:46.061,2,0.44,1.31,0.79,-98.0878,74.0596,-5.768600000000003,175,75
2026-05-07 18:24:46.069,2,0.39,1.36,0.87,-96.2578,75.1596,-6.008600000000001,175,75
2026-05-07 18:24:46.086,2,0.43,1.36,0.96,-99.4278,69.1896,-3.688600000000001,175,75
2026-05-07 18:24:46.096,2,0.48,1.3,1.04,-107.5378,47.8396,-0.4586000000000041,175,75
2026-05-07 18:24:46.124,2,0.48,1.18,0.95,-121.0078,-20.0804,1.2513999999999967,175,75
2026-05-07 18:24:46.154,2,0.37,1.22,0.82,-127.2278,-22.2804,0.7613999999999983,175,75
2026-05-07 18:24:46.184,2,0.34,1.25,0.78,-134.9778,13.5096,5.511399999999998,175,75
2026-05-07 18:24:46.184,2,0.38,1.2,0.82,-143.44779999999997,33.5796,7.281399999999998,175,75
2026-05-07 18:24:46.196,2,0.4,1.14,0.88,-155.88780000000003,37.6596,6.371399999999998,175,75
2026-05-07 18:24:46.220,2,0.4,1.13,0.87,-166.06779999999998,29.9796,8.991399999999999,175,75
2026-05-07 18:24:46.220,2,0.33,1.13,0.85,-172.1078,23.3296,7.041399999999996,175,75
2026-05-07 18:24:46.231,2,0.36,1.11,0.84,-186.49779999999998,9.8596,9.301399999999997,175,75
2026-05-07 18:24:46.250,2,0.3,1.09,0.87,-201.18779999999998,2.9696,7.041399999999996,175,75
