Time,ID,Ax,Ay,Az,Gx,Gy,Gz,Height,Weight
2026-05-11 17:56:47.918,2,-0.64,0.33,-0.39,28.1796,187.0596,-11.5222,175,75
2026-05-11 17:56:47.918,2,-0.72,-0.23,-0.24,-4.7504,221.0296,-19.202199999999998,175,75
2026-05-11 17:56:47.918,2,-0.41,0.12,0.04,-7.2504,69.5596,27.9878,175,75
2026-05-11 17:56:47.918,2,-0.34,0.16,0.09,-13.9504,64.92960000000001,25.607799999999997,175,75
2026-05-11 17:56:47.918,2,-0.27,0.23,0.21,-30.290399999999998,-12.9404,13.297799999999999,175,75
2026-05-11 17:56:47.918,2,-0.29,0.22,0.2,-27.6704,-56.1704,16.8878,175,75
2026-05-11 17:56:47.918,2,-0.59,-1.73,-1.24,-95.60040000000001,-397.4504,5.4878,175,75
2026-05-11 17:56:47.918,2,-0.85,-2.07,-1.82,-119.6804,-275.6204,-22.072200000000002,175,75
2026-05-11 17:56:47.918,2,-1.11,-1.56,-0.16,-8.0404,8.829600000000001,-23.4722,175,75
2026-05-11 17:56:47.918,2,-0.77,-1.34,-0.37,41.4696,-37.4504,-19.1422,175,75
2026-05-11 17:56:47.918,2,-0.72,-0.72,-0.4,68.4296,-81.90039999999999,2.1378000000000004,175,75
2026-05-11 17:56:47.918,2,-0.69,-0.4,-0.44,54.949600000000004,-91.0504,6.527799999999999,175,75
2026-05-11 17:56:47.918,2,-0.53,0.29,-0.4,-9.8104,-44.0304,17.1378,175,75
2026-05-11 17:56:47.918,2,-0.49,0.63,-0.34,-37.8604,-9.4604,22.1378,175,75
2026-05-11 17:56:47.919,2,-0.33,0.95,-0.28,-32.0604,21.6396,23.477800000000002,175,75
2026-05-11 17:56:47.919,2,-0.31,1.12,-0.13,-21.8204,52.7996,25.547800000000002,175,75
2026-05-11 17:56:47.919,2,-0.6,0.6,-0.35,-38.7704,-10.8004,11.8278,175,75
2026-05-11 17:56:47.919,2,-1.05,-1.55,-1.14,2.5695999999999994,40.6596,24.5178,175,75
2026-05-11 17:56:47.920,2,-1.09,-1.67,-1.17,42.3296,151.81959999999998,61.2778,175,75
2026-05-11 17:56:47.920,2,-0.92,-1.92,-0.73,-2.5504,89.4396,102.2578,175,75
2026-05-11 17:56:47.920,2,-0.91,-2.42,-0.61,-41.2104,80.2296,111.8278,175,75
2026-05-11 17:56:47.920,2,-0.76,-2.83,-0.42,-24.4404,66.9396,107.5578,175,75
2026-05-11 17:56:47.920,2,-0.45,-2.9,-0.54,8.1196,29.559599999999996,76.4078,175,75
2026-05-11 17:56:47.920,2,-0.3,-1.84,-0.08,62.3296,-50.190400000000004,54.3878,175,75
2026-05-11 17:56:47.920,2,-0.04,-1.32,-0.01,74.9496,-100.4404,58.907799999999995,175,75
2026-05-11 17:56:47.920,2,-0.13,-0.79,-0.11,53.9096,-146.3504,67.9278,175,75
2026-05-11 17:56:47.933,2,-0.19,-0.56,-0.33,25.4996,-154.7004,54.9978,175,75
2026-05-11 17:56:47.985,2,-0.15,-0.08,-0.62,45.559599999999996,-7.570399999999999,41.4078,175,75
2026-05-11 17:56:48.056,2,-0.15,0.01,-0.59,52.0796,45.6596,40.5478,175,75
2026-05-11 17:56:48.056,2,-0.17,0.06,-0.34,33.7296,147.6696,36.7678,175,75
2026-05-11 17:56:48.056,2,0.02,0.34,0.25,5.5596,150.71959999999999,26.467799999999997,175,75
2026-05-11 17:56:48.085,2,0.11,0.51,0.42,9.6396,144.8096,26.217799999999997,175,75
2026-05-11 17:56:48.085,2,0.32,0.56,0.68,14.519599999999999,137.8596,12.927800000000001,175,75
2026-05-11 17:56:48.141,2,0.17,0.57,0.63,-29.3804,34.629599999999996,1.8878000000000004,175,75
2026-05-11 17:56:48.141,2,-0.03,0.31,0.64,-50.8404,1.0296000000000003,-12.3722,175,75
2026-05-11 17:56:48.141,2,-0.11,0.04,0.86,-61.8204,-2.5103999999999997,-31.7622,175,75
2026-05-11 17:56:48.141,2,-0.04,-0.21,1.04,-56.7004,-25.9204,-52.8022,175,75
2026-05-11 17:56:48.424,2,-1.76,-2.84,-2.34,-50.4204,-436.5904,-236.16219999999998,175,75
2026-05-11 17:56:48.424,2,-2.29,-2.66,-3.08,-93.6504,-217.5104,-241.8322,175,75
2026-05-11 17:56:48.424,2,-2.46,-2.04,-3.54,-48.1604,49.1396,-219.5122,175,75
2026-05-11 17:56:48.424,2,-2.45,-1.74,-3.2,81.1096,290.7196,-143.29219999999998,175,75
2026-05-11 17:56:48.424,2,-2.1,-1.96,-1.3,150.7996,376.20959999999997,5.427800000000001,175,75
2026-05-11 17:56:48.425,2,-1.37,-1.76,-0.95,-6.5704,40.5396,-74.0822,175,75
2026-05-11 17:56:48.426,2,-1.57,-1.19,-1.34,-93.1604,-28.120399999999997,-18.1122,175,75
2026-05-11 17:56:48.426,2,-1.87,-0.57,-1.72,-107.5504,46.6396,8.477800000000002,175,75
2026-05-11 17:56:48.426,2,-1.3,-0.07,-1.28,38.9696,544.8096,76.2778,175,75
2026-05-11 17:56:48.426,2,-0.87,0.09,-0.83,83.8496,679.4996,87.4378,175,75
2026-05-11 17:56:48.426,2,-0.89,0.04,-0.22,105.0696,785.7796,57.98780000000001,175,75
2026-05-11 17:56:48.426,2,-1.02,-0.09,0.08,106.1696,836.1496,38.6578,175,75
2026-05-11 17:56:48.426,2,-0.93,0.12,0.43,141.6596,666.1496,37.9278,175,75
2026-05-11 17:56:48.427,2,-0.65,0.07,0.73,135.0696,519.0796,19.5178,175,75
2026-05-11 17:56:48.822,2,-0.22,0.04,0.2,-35.1704,-100.1304,0.18780000000000108,175,75
2026-05-11 17:56:48.822,2,-0.36,-0.09,-0.05,-25.1104,-133.4804,11.407800000000002,175,75
2026-05-11 17:56:48.822,2,-0.26,-0.18,-0.2,-25.540399999999998,-142.3904,15.7378,175,75
2026-05-11 17:56:48.822,2,-0.31,-0.03,0.09,-67.18039999999999,72.9796,-35.6122,175,75
2026-05-11 17:56:48.822,2,-0.28,0.01,0.3,-72.9804,54.809599999999996,-39.9422,175,75
2026-05-11 17:56:48.822,2,-0.23,0.15,0.54,-90.4804,-5.0704,-47.0722,175,75
2026-05-11 17:56:48.822,2,-0.16,0.33,0.76,-108.7704,-110.1304,-50.6722,175,75
2026-05-11 17:56:48.823,2,-0.16,0.36,0.88,-113.8304,-234.8904,-51.7022,175,75
2026-05-11 17:56:48.823,2,-0.52,-0.21,0.76,-127.9204,-468.67040000000003,-56.8322,175,75
2026-05-11 17:56:48.823,2,-0.61,-0.7,0.64,-144.3804,-552.4504000000001,-57.8022,175,75
2026-05-11 17:56:48.823,2,-0.77,-1.23,0.48,-154.3204,-607.0804,-54.0222,175,75
2026-05-11 17:56:48.823,2,-1.28,-1.86,0.03,-156.4504,-639.5204,-35.062200000000004,175,75
2026-05-11 17:56:48.823,2,-1.62,-2.23,-0.45,-146.9404,-636.2304,-14.2622,175,75
2026-05-11 17:56:48.823,2,-2.09,-2.52,-1.07,-123.4604,-576.7804,-23.4722,175,75
2026-05-11 17:56:48.823,2,-2.2,-1.82,-1.98,-52.7304,-444.0904,-107.1322,175,75
2026-05-11 17:56:48.823,2,-1.41,-1.43,-2.2,66.5996,-284.3404,-100.9722,175,75
2026-05-11 17:56:48.823,2,-1.03,-1.54,-1.34,140.0696,80.8396,68.6578,175,75
2026-05-11 17:56:48.823,2,-0.21,-0.32,-0.33,119.6396,92.79960000000001,51.2178,175,75
2026-05-11 17:56:48.823,2,-0.07,1.9,-0.07,68.9696,40.9096,15.7378,175,75
2026-05-11 17:56:48.824,2,-0.34,0.47,-0.39,12.2096,-22.5704,6.337800000000001,175,75
2026-05-11 17:56:48.908,2,-0.44,0.28,-0.62,14.829600000000001,12.5496,-1.5221999999999998,175,75
2026-05-11 17:56:48.908,2,-0.72,0.09,-0.9,29.2196,151.2096,0.5478000000000005,175,75
2026-05-11 17:56:48.909,2,-0.96,-0.24,-0.68,3.8496000000000006,293.76959999999997,11.0378,175,75
2026-05-11 17:56:48.909,2,-1.0,-0.41,-0.49,-16.5104,295.7196,13.2378,175,75
2026-05-11 17:56:48.923,2,-0.87,-1.93,-0.35,-90.60040000000001,-42.3904,44.0878,175,75
2026-05-11 17:56:48.978,2,-0.31,-2.24,-0.72,8.6696,1.1495999999999995,35.8578,175,75
2026-05-11 17:56:48.998,2,-0.26,-1.79,-0.5,43.3596,2.1896000000000004,13.047799999999999,175,75
2026-05-11 17:56:49.013,2,-0.2,-1.59,-0.62,44.0396,8.769599999999999,7.437799999999999,175,75
2026-05-11 17:56:49.024,2,-0.38,-0.94,-0.46,58.3596,9.3196,4.207799999999999,175,75
2026-05-11 17:56:49.032,2,-0.37,-0.77,-0.45,60.67959999999999,14.2596,-3.472199999999999,175,75
2026-05-11 17:56:49.041,2,-0.34,-0.58,-0.45,46.2296,26.089599999999997,-8.1122,175,75
2026-05-11 17:56:49.064,2,-0.27,0.02,-0.47,8.609599999999999,130.71959999999999,-3.3522,175,75
2026-05-11 17:56:49.074,2,-0.25,0.14,-0.4,10.4396,195.53959999999998,1.527800000000001,175,75
2026-05-11 17:56:49.102,2,-0.23,0.19,-0.27,10.7996,245.7796,2.9278000000000013,175,75
2026-05-11 17:56:49.102,2,-0.18,0.29,-0.02,7.629599999999998,294.8096,-0.6121999999999996,175,75
2026-05-11 17:56:49.131,2,0.0,0.44,0.37,-1.4504000000000001,305.9696,-10.6122,175,75
2026-05-11 17:56:49.131,2,0.12,0.45,0.57,-11.1504,265.8396,-20.1822,175,75
2026-05-11 17:56:49.142,2,0.22,0.41,0.79,-26.090400000000002,203.21959999999999,-35.3622,175,75
2026-05-11 17:56:49.152,2,0.25,0.32,0.93,-37.9804,127.1896,-53.2922,175,75
2026-05-11 17:56:49.164,2,0.25,0.21,0.95,-40.9004,39.2596,-71.34219999999999,175,75
2026-05-11 17:56:49.178,2,0.17,0.13,0.9,-38.7104,-37.6904,-84.6322,175,75
2026-05-11 17:56:49.178,2,0.06,0.06,0.74,-35.2904,-109.70039999999999,-95.4822,175,75
2026-05-11 17:56:49.191,2,-0.05,0.05,0.57,-33.9504,-158.6704,-100.6722,175,75
2026-05-11 17:56:49.202,2,-0.17,0.08,0.38,-32.9204,-191.2304,-101.76219999999999,175,75
2026-05-11 17:56:49.208,2,-0.23,0.1,0.19,-31.450400000000002,-203.9704,-103.5322,175,75
2026-05-11 17:56:49.235,2,-0.26,0.11,0.05,-29.1404,-198.3604,-103.5922,175,75
2026-05-11 17:56:49.235,2,-0.24,0.08,-0.1,-25.4204,-178.4804,-101.8922,175,75
2026-05-11 17:56:49.256,2,-0.36,-0.33,-0.35,-21.5104,-141.6604,-102.1322,175,75
2026-05-11 17:56:49.270,2,-0.52,-0.73,-0.59,-21.2104,-128.6704,-98.1722,175,75
2026-05-11 17:56:49.280,2,-0.7,-1.17,-0.88,-23.400399999999998,-135.2504,-92.5622,175,75
2026-05-11 17:56:49.303,2,-1.3,-2.35,-1.52,-36.2704,-15.9204,-93.2322,175,75
2026-05-11 17:56:49.314,2,-1.47,-2.54,-1.76,-6.760400000000001,76.6996,-89.9422,175,75
2026-05-11 17:56:49.327,2,-1.56,-2.29,-1.82,40.379599999999996,110.59960000000001,-92.7422,175,75
2026-05-11 17:56:49.340,2,-1.53,-1.78,-1.43,83.11959999999999,107.54960000000001,-52.9822,175,75
2026-05-11 17:56:49.355,2,-1.37,-1.79,-1.14,38.239599999999996,57.7296,-0.6121999999999996,175,75
2026-05-11 17:56:49.367,2,-1.37,-1.84,-1.01,4.3995999999999995,18.709600000000002,12.1978,175,75
2026-05-11 17:56:49.367,2,-1.24,-1.74,-1.01,-2.9804000000000004,-8.000399999999999,17.1378,175,75
2026-05-11 17:56:49.380,2,-1.08,-1.48,-1.02,21.4696,-21.3504,23.6578,175,75
2026-05-11 17:56:49.390,2,-0.97,-1.24,-1.03,44.7696,-9.4004,34.8178,175,75
2026-05-11 17:56:49.401,2,-0.84,-0.99,-0.95,54.949600000000004,40.1096,46.4078,175,75
2026-05-11 17:56:49.414,2,-0.69,-0.79,-0.83,50.7996,87.7296,49.3278,175,75
2026-05-11 17:56:49.426,2,-0.5,-0.62,-0.64,43.489599999999996,123.70960000000001,43.0478,175,75
2026-05-11 17:56:49.439,2,-0.36,-0.5,-0.49,36.8996,138.7696,37.8078,175,75
2026-05-11 17:56:49.451,2,-0.33,-0.37,-0.35,28.9696,139.9896,36.0378,175,75
2026-05-11 17:56:49.462,2,-0.37,-0.3,-0.34,17.1396,111.87960000000001,40.1278,175,75
2026-05-11 17:56:49.462,2,-0.48,-0.33,-0.33,5.5596,68.6496,40.9178,175,75
2026-05-11 17:56:49.484,2,-0.46,-0.42,-0.33,-6.3904,15.4796,40.7378,175,75
2026-05-11 17:56:49.486,2,-0.27,-0.44,-0.34,-11.330400000000001,-36.9004,39.8778,175,75
2026-05-11 17:56:49.499,2,-0.13,-0.33,-0.37,-14.990400000000001,-68.7304,38.7178,175,75
2026-05-11 17:56:49.510,2,0.02,-0.19,-0.38,-29.440399999999997,-81.23039999999999,35.1278,175,75
2026-05-11 17:56:49.521,2,0.1,-0.04,-0.38,-50.3604,-83.18039999999999,29.997799999999998,175,75
2026-05-11 17:56:49.562,2,0.19,0.28,-0.36,-82.2504,-77.45039999999999,12.497800000000002,175,75
2026-05-11 17:56:49.574,2,0.15,0.54,-0.14,-94.1404,-46.9604,-7.0722,175,75
2026-05-11 17:56:49.609,2,0.12,0.54,0.16,-98.8304,-20.7404,-22.8022,175,75
2026-05-11 17:56:49.616,2,0.11,0.52,0.28,-95.7804,-51.9604,-29.6322,175,75
2026-05-11 17:56:49.633,2,0.02,0.48,0.3,-96.2704,-95.68039999999999,-35.1222,175,75
2026-05-11 17:56:49.633,2,-0.04,0.41,0.26,-99.8704,-118.73039999999999,-38.7222,175,75
2026-05-11 17:56:49.654,2,-0.11,0.27,0.12,-108.10040000000001,-132.2704,-41.2222,175,75
2026-05-11 17:56:49.684,2,-0.21,0.11,-0.04,-108.2804,-109.2804,-43.962199999999996,175,75
2026-05-11 17:56:49.694,2,-0.32,-0.08,-0.18,-100.5404,-63.8504,-44.6322,175,75
2026-05-11 17:56:49.694,2,-0.41,-0.27,-0.32,-89.7504,-9.8904,-43.7222,175,75
2026-05-11 17:56:49.705,2,-0.57,-0.5,-0.49,-76.5104,36.5196,-37.6222,175,75
2026-05-11 17:56:49.715,2,-0.79,-0.81,-0.55,-64.7504,66.6396,-36.0322,175,75
2026-05-11 17:56:49.738,2,-1.28,-1.8,-0.5,-44.5004,120.04960000000001,-23.7222,175,75
2026-05-11 17:56:49.738,2,-1.38,-1.98,-0.52,-40.3604,73.2796,-28.4122,175,75
2026-05-11 17:56:49.749,2,-1.35,-1.81,-0.47,-27.6104,-0.8604000000000003,-46.2222,175,75
2026-05-11 17:56:49.812,2,-1.62,-1.53,-1.12,-63.4604,-239.34040000000002,-1.7622,175,75
2026-05-11 17:56:49.826,2,-1.76,-1.9,-1.38,-95.2304,-224.46040000000002,20.547800000000002,175,75
2026-05-11 17:56:49.835,2,-1.71,-1.83,-1.47,-68.7704,-122.3904,24.0878,175,75
2026-05-11 17:56:49.852,2,-1.09,-1.0,-1.07,141.71959999999999,155.4196,70.3678,175,75
2026-05-11 17:56:49.865,2,-0.94,-0.74,-0.74,148.6696,199.0796,80.1278,175,75
2026-05-11 17:56:49.876,2,-0.62,-0.35,-0.48,120.8596,208.09959999999998,93.9078,175,75
2026-05-11 17:56:49.876,2,-0.39,-0.02,-0.29,92.0196,186.4496,102.7478,175,75
2026-05-11 17:56:49.893,2,-0.27,0.18,-0.15,75.7996,177.3096,86.7678,175,75
2026-05-11 17:56:49.912,2,-0.24,0.52,-0.06,66.5996,197.7396,73.1078,175,75
2026-05-11 17:56:49.931,2,-0.25,0.69,0.04,45.6796,185.90959999999998,68.2978,175,75
2026-05-11 17:56:49.942,2,-0.26,0.82,0.2,24.159599999999998,160.0496,65.73780000000001,175,75
2026-05-11 17:56:49.953,2,-0.16,0.84,0.29,2.9396000000000004,131.75959999999998,64.2078,175,75
2026-05-11 17:56:49.964,2,0.03,0.63,0.39,-8.2204,21.1496,57.317800000000005,175,75
2026-05-11 17:56:49.978,2,0.11,0.53,0.39,-0.9003999999999994,-30.1304,50.3078,175,75
2026-05-11 17:56:49.989,2,0.19,0.41,0.35,0.6796000000000006,-86.0504,34.3278,175,75
2026-05-11 17:56:50.025,2,-0.22,-0.56,-0.56,-18.340400000000002,-217.81040000000002,-15.8522,175,75
2026-05-11 17:56:50.036,2,-0.41,-1.07,-0.92,-35.8404,-207.87040000000002,-26.5822,175,75
2026-05-11 17:56:50.047,2,-0.66,-1.54,-1.3,-44.440400000000004,-137.0204,-35.182199999999995,175,75
2026-05-11 17:56:50.058,2,-0.83,-1.94,-1.6,-23.8304,-37.3304,-27.0122,175,75
2026-05-11 17:56:50.059,2,-0.95,-2.27,-1.66,4.9496,29.019599999999997,-12.5022,175,75
2026-05-11 17:56:50.079,2,-1.03,-2.24,-1.55,54.3996,75.4196,-12.072199999999999,175,75
2026-05-11 17:56:50.101,2,-0.54,-2.38,-0.86,56.839600000000004,-16.5304,33.1078,175,75
2026-05-11 17:56:50.112,2,-0.51,-2.35,-0.85,54.459599999999995,-50.010400000000004,29.327800000000003,175,75
2026-05-11 17:56:50.113,2,-0.49,-2.04,-0.87,63.849599999999995,-70.9804,13.107800000000001,175,75
2026-05-11 17:56:50.136,2,-0.42,-1.56,-0.92,68.1796,-63.3604,-4.872199999999999,175,75
2026-05-11 17:56:50.147,2,-0.43,-0.91,-0.88,48.9096,19.559600000000003,-7.1322,175,75
2026-05-11 17:56:50.158,2,-0.33,-0.72,-0.7,42.3896,51.2696,-10.3622,175,75
2026-05-11 17:56:50.207,2,-0.16,-0.38,-0.36,32.9996,76.0296,-15.4222,175,75
2026-05-11 17:56:50.219,2,-0.1,-0.05,-0.26,35.559599999999996,85.8396,-19.5722,175,75
2026-05-11 17:56:50.230,2,-0.1,0.11,-0.25,39.8896,101.3896,-22.252200000000002,175,75
2026-05-11 17:56:50.241,2,-0.12,0.22,-0.23,40.559599999999996,120.41960000000002,-22.1922,175,75
2026-05-11 17:56:50.257,2,-0.17,0.46,0.03,25.8596,194.31959999999998,-23.5322,175,75
2026-05-11 17:56:50.258,2,-0.13,0.52,0.2,13.6696,228.46959999999999,-28.4722,175,75
2026-05-11 17:56:50.266,2,-0.03,0.54,0.29,3.0595999999999997,229.4996,-33.6622,175,75
2026-05-11 17:56:50.281,2,0.08,0.58,0.32,-6.4504,191.5196,-37.3722,175,75
2026-05-11 17:56:50.281,2,0.12,0.63,0.35,-12.5504,117.9796,-40.0022,175,75
2026-05-11 17:56:50.303,2,-0.03,0.56,0.43,-13.8904,50.419599999999996,-43.962199999999996,175,75
2026-05-11 17:56:50.315,2,-0.19,0.44,0.41,-19.3204,-8.1804,-55.0622,175,75
2026-05-11 17:56:50.326,2,-0.28,0.37,0.39,-32.4304,-59.400400000000005,-66.34219999999999,175,75
2026-05-11 17:56:50.375,2,-0.35,0.23,0.18,-46.8204,-120.68039999999999,-82.9822,175,75
2026-05-11 17:56:50.376,2,-0.44,0.15,0.06,-46.2104,-125.8604,-87.1322,175,75
2026-05-11 17:56:50.410,2,-0.47,0.13,-0.01,-43.830400000000004,-117.57039999999999,-89.4522,175,75
2026-05-11 17:56:50.420,2,-0.44,0.05,-0.02,-40.6604,-103.6704,-88.8422,175,75
2026-05-11 17:56:50.433,2,-0.4,-0.96,-0.19,-59.3804,-224.7604,-85.6122,175,75
2026-05-11 17:56:50.448,2,-0.59,-1.59,-0.54,-72.3104,-277.8704,-81.0922,175,75
2026-05-11 17:56:50.460,2,-1.34,-2.44,-1.86,-23.1004,-78.2404,-108.8422,175,75
2026-05-11 17:56:50.460,2,-1.37,-2.24,-1.92,63.5496,17.669600000000003,-92.0722,175,75
2026-05-11 17:56:50.473,2,-1.39,-1.86,-1.63,124.6396,50.4796,-77.8022,175,75
2026-05-11 17:56:50.473,2,-1.41,-1.78,-1.47,107.1396,40.4796,-47.7422,175,75
2026-05-11 17:56:50.507,2,-1.34,-1.81,-1.42,3.2395999999999994,-11.5304,-6.9521999999999995,175,75
2026-05-11 17:56:50.528,2,-1.08,-1.58,-1.2,58.489599999999996,30.659599999999998,26.217799999999997,175,75
2026-05-11 17:56:50.528,2,-1.04,-1.32,-1.03,56.349599999999995,40.1096,33.8378,175,75
2026-05-11 17:56:50.543,2,-0.95,-1.12,-0.94,45.9296,47.489599999999996,37.7478,175,75
2026-05-11 17:56:50.548,2,-0.79,-0.86,-0.84,39.0396,68.2196,45.7978,175,75
2026-05-11 17:56:50.562,2,-0.69,-0.72,-0.81,39.279599999999995,86.20960000000001,54.517799999999994,175,75
2026-05-11 17:56:50.575,2,-0.63,-0.66,-0.74,38.1196,111.6396,60.73780000000001,175,75
2026-05-11 17:56:50.590,2,-0.6,-0.7,-0.67,34.3396,146.3296,61.407799999999995,175,75
2026-05-11 17:56:50.601,2,-0.55,-0.67,-0.64,33.9096,176.4496,61.407799999999995,175,75
2026-05-11 17:56:50.611,2,-0.5,-0.55,-0.58,36.5396,201.5196,62.2578,175,75
2026-05-11 17:56:50.623,2,-0.45,-0.36,-0.48,37.9396,224.37959999999998,64.5778,175,75
2026-05-11 17:56:50.628,2,-0.28,-0.15,-0.34,34.9496,244.37959999999998,64.2678,175,75
2026-05-11 17:56:50.646,2,-0.08,0.08,-0.14,24.6396,270.1696,62.017799999999994,175,75
2026-05-11 17:56:50.646,2,0.07,0.28,-0.05,9.769599999999999,282.0596,59.267799999999994,175,75
2026-05-11 17:56:50.656,2,0.1,0.47,0.05,-6.090400000000001,284.3196,54.4478,175,75
2026-05-11 17:56:50.669,2,0.14,0.66,0.29,-24.200400000000002,297.3096,44.6378,175,75
2026-05-11 17:56:50.698,2,0.28,0.38,1.21,-59.010400000000004,245.4796,-17.2522,175,75
2026-05-11 17:56:50.711,2,0.2,0.26,1.3,-63.7104,86.3296,-41.462199999999996,175,75
2026-05-11 17:56:50.735,2,-0.04,0.16,0.98,-53.220400000000005,-193.3004,-68.3522,175,75
2026-05-11 17:56:50.770,2,-0.43,-0.34,-0.17,-84.38040000000001,-332.5104,-67.6822,175,75
2026-05-11 17:56:50.782,2,-0.45,-0.38,-0.35,-75.60040000000001,-268.3004,-68.9022,175,75
2026-05-11 17:56:50.792,2,-0.44,-0.53,-0.58,-40.4204,-115.8604,-72.6822,175,75
2026-05-11 17:56:50.803,2,-0.4,-0.76,-0.59,-16.3904,-59.830400000000004,-65.0022,175,75
2026-05-11 17:56:50.816,2,-0.31,-1.44,-0.47,-17.3704,-72.8104,-73.9022,175,75
2026-05-11 17:56:50.826,2,-0.12,-2.07,-0.48,-42.7304,-135.8004,-80.4822,175,75
2026-05-11 17:56:50.838,2,-0.27,-2.17,-0.84,-61.4504,-193.06040000000002,-81.4022,175,75
2026-05-11 17:56:50.844,2,-0.6,-1.73,-1.32,-40.0504,-183.5504,-91.6422,175,75
2026-05-11 17:56:50.857,2,-0.88,-1.4,-1.6,-3.8304,-101.6604,-71.8922,175,75
2026-05-11 17:56:50.885,2,-1.12,-1.5,-1.56,-8.7104,-27.330399999999997,-42.5022,175,75
2026-05-11 17:56:50.895,2,-1.22,-1.74,-1.41,-32.6704,3.1595999999999993,-30.7922,175,75
2026-05-11 17:56:50.895,2,-1.25,-1.89,-1.23,-44.8104,18.4696,-29.2022,175,75
2026-05-11 17:56:50.917,2,-1.15,-1.68,-1.01,-16.5104,14.4996,-32.0122,175,75
2026-05-11 17:56:50.917,2,-0.97,-1.25,-0.83,24.099599999999995,1.3895999999999997,-27.562199999999997,175,75
2026-05-11 17:56:50.929,2,-0.61,-0.37,-0.85,47.3896,-30.980400000000003,9.517800000000001,175,75
2026-05-11 17:56:50.937,2,-0.54,0.0,-1.09,32.5696,21.209600000000002,33.7778,175,75
2026-05-11 17:56:50.958,2,-0.7,0.33,-1.44,24.0396,159.37959999999998,56.407799999999995,175,75
2026-05-11 17:56:50.969,2,-0.77,0.49,-1.52,23.299599999999998,302.3696,71.3378,175,75
2026-05-11 17:56:50.969,2,-0.8,0.66,-1.32,29.5796,431.6996,92.0178,175,75
2026-05-11 17:56:50.979,2,-0.8,0.72,-0.96,50.4396,539.8096,103.9078,175,75
2026-05-11 17:56:50.991,2,-0.82,0.73,-0.52,82.3896,628.0996,97.3178,175,75
2026-05-11 17:56:51.008,2,-0.84,0.78,-0.14,68.4296,697.7995999999999,91.3378,175,75
2026-05-11 17:56:51.045,2,-0.71,0.73,0.66,-6.8204,623.8896,68.7778,175,75
2026-05-11 17:56:51.076,2,-0.53,0.34,0.84,13.789599999999998,518.4096,55.12779999999999,175,75
2026-05-11 17:56:51.106,2,-0.31,-0.14,1.17,-11.7604,252.4296,5.427800000000001,175,75
2026-05-11 17:56:51.106,2,-0.14,-0.26,1.19,-37.1804,106.0296,-16.7622,175,75
2026-05-11 17:56:51.161,2,0.03,-1.09,0.41,-29.9904,-307.4504,-40.2422,175,75
2026-05-11 17:56:51.227,2,-0.01,-1.68,0.05,-48.3404,-433.3604,-32.4422,175,75
2026-05-11 17:56:51.227,2,-0.14,-2.15,-0.35,-78.2204,-503.3604,-26.522199999999998,175,75
2026-05-11 17:56:51.249,2,-0.25,-1.32,-1.75,-41.0904,-221.7204,-47.6822,175,75
2026-05-11 17:56:51.250,2,-0.24,-1.2,-1.5,0.49959999999999916,-93.79039999999999,27.3778,175,75
2026-05-11 17:56:51.260,2,-0.2,-1.68,-1.11,4.579599999999999,11.089599999999999,64.7578,175,75
2026-05-11 17:56:51.271,2,-0.29,-2.27,-0.61,-9.3204,44.3196,63.59780000000001,175,75
2026-05-11 17:56:51.282,2,0.07,-1.63,-0.03,46.4696,-27.6304,35.0578,175,75
2026-05-11 17:56:51.292,2,0.23,-1.19,0.1,61.1096,-68.6704,44.6378,175,75
2026-05-11 17:56:51.292,2,0.13,-0.91,0.1,51.349599999999995,-88.2404,49.5778,175,75
2026-05-11 17:56:51.292,2,0.05,-0.72,0.07,32.9996,-98.12039999999999,43.7178,175,75
2026-05-11 17:56:51.303,2,0.0,-0.58,0.07,13.789599999999998,-99.6404,35.6678,175,75
2026-05-11 17:56:51.313,2,-0.03,-0.45,0.07,2.4496,-89.7704,25.607799999999997,175,75
2026-05-11 17:56:51.325,2,-0.06,-0.32,0.08,9.339599999999999,-75.7404,13.7778,175,75
2026-05-11 17:56:51.336,2,-0.09,-0.18,0.13,26.8996,-67.5104,3.777799999999999,175,75
2026-05-11 17:56:51.337,2,-0.11,-0.01,0.16,33.059599999999996,-69.8904,-4.7522,175,75
2026-05-11 17:56:51.380,2,-0.13,0.18,0.2,22.3896,-80.68039999999999,-12.5022,175,75
2026-05-11 17:56:51.393,2,-0.15,0.36,0.27,-5.7204,-83.0604,-19.452199999999998,175,75
2026-05-11 17:56:51.408,2,-0.11,0.52,0.44,-22.790399999999998,-79.40039999999999,-29.8122,175,75
2026-05-11 17:56:51.419,2,-0.06,0.61,0.54,-18.5304,-82.7504,-36.5222,175,75
2026-05-11 17:56:51.419,2,-0.03,0.67,0.6,-11.4504,-100.8004,-38.5322,175,75
2026-05-11 17:56:51.429,2,0.04,0.67,0.58,-10.1104,-131.0504,-39.452200000000005,175,75
2026-05-11 17:56:51.454,2,-0.01,0.61,0.46,-15.1704,-156.3504,-38.352199999999996,175,75
2026-05-11 17:56:51.460,2,-0.07,0.47,0.01,-17.4904,-132.8704,-39.202200000000005,175,75
2026-05-11 17:56:51.485,2,-0.18,0.43,-0.3,-12.1804,-68.2404,-36.8322,175,75
2026-05-11 17:56:51.504,2,-0.35,0.27,-0.32,7.1396,149.8696,-32.5022,175,75
2026-05-11 17:56:51.526,2,-0.35,0.15,-0.12,9.6396,230.65959999999998,-10.4222,175,75
2026-05-11 17:56:51.539,2,0.17,-0.55,0.22,17.0796,188.6496,-27.7422,175,75
2026-05-11 17:56:51.539,2,0.22,-1.4,0.22,53.7896,-128.4204,-43.7822,175,75
2026-05-11 17:56:51.555,2,-0.46,-2.54,-0.9,33.849599999999995,-512.5704,-19.1422,175,75
2026-05-11 17:56:51.574,2,-1.1,-3.07,-2.0,-20.6004,-478.73040000000003,-80.2422,175,75
2026-05-11 17:56:51.578,2,-0.97,-2.7,-3.46,-28.2804,-236.4704,-126.9522,175,75
2026-05-11 17:56:51.589,2,-0.92,-2.02,-2.89,11.289599999999998,-60.9204,-59.0222,175,75
2026-05-11 17:56:51.606,2,-0.44,-2.3,-1.08,11.839599999999999,62.18959999999999,44.7578,175,75
2026-05-11 17:56:51.617,2,-0.5,-2.23,-0.62,-29.440399999999997,5.419600000000001,-30.3022,175,75
2026-05-11 17:56:51.629,2,-0.08,-1.77,-0.45,-64.9904,-114.2804,-45.1222,175,75
2026-05-11 17:56:51.644,2,-0.19,-0.94,-0.48,-89.9304,-223.6104,-33.2922,175,75
2026-05-11 17:56:51.671,2,-0.35,-0.61,-0.64,-73.7704,-183.9104,-37.8622,175,75
2026-05-11 17:56:51.682,2,-0.35,-0.35,-0.58,-54.0704,-99.2204,-29.9422,175,75
2026-05-11 17:56:51.718,2,-0.39,-0.35,-0.19,-10.5404,77.1896,-6.582199999999999,175,75
2026-05-11 17:56:51.718,2,-0.32,-0.33,-0.08,-4.6204,76.7596,-1.8322000000000003,175,75
2026-05-11 17:56:51.740,2,-0.32,-0.22,0.05,3.1196,69.2596,2.0778,175,75
2026-05-11 17:56:51.751,2,-0.17,0.24,0.17,14.039599999999998,42.7996,15.427800000000001,175,75
2026-05-11 17:56:51.765,2,-0.14,0.48,0.14,11.539599999999998,33.7096,17.8678,175,75
2026-05-11 17:56:51.775,2,-0.19,0.6,0.12,4.8896,41.8196,17.0178,175,75
2026-05-11 17:56:51.790,2,-0.21,0.58,0.1,-2.6104000000000003,58.769600000000004,14.517800000000001,175,75
2026-05-11 17:56:51.824,2,-0.25,0.53,0.3,-7.7304,107.3096,-9.142199999999999,175,75
2026-05-11 17:56:51.824,2,-0.24,0.5,0.4,-12.8604,99.31960000000001,-16.7622,175,75
2026-05-11 17:56:51.835,2,-0.23,0.41,0.48,-19.1404,69.8096,-22.072200000000002,175,75
2026-05-11 17:56:51.855,2,-0.24,0.34,0.45,-25.1104,17.4296,-23.9022,175,75
2026-05-11 17:56:51.876,2,-0.33,0.04,0.24,-37.9204,-90.68039999999999,-22.562199999999997,175,75
2026-05-11 17:56:51.887,2,-0.34,-0.21,0.09,-40.9604,-135.1304,-23.8422,175,75
2026-05-11 17:56:51.898,2,-0.46,-0.51,-0.1,-37.9804,-169.7604,-23.0522,175,75
2026-05-11 17:56:51.906,2,-0.58,-0.98,-0.46,-31.270400000000002,-235.56040000000002,-16.6422,175,75
2026-05-11 17:56:51.921,2,-0.71,-1.52,-0.76,-41.510400000000004,-297.9404,-5.3622,175,75
2026-05-11 17:56:51.967,2,-0.83,-2.08,-1.11,-72.0604,-335.7404,9.267800000000001,175,75
2026-05-11 17:56:51.992,2,-1.01,-2.46,-1.48,-108.8304,-319.2804,9.1478,175,75
2026-05-11 17:56:51.992,2,-1.14,-2.15,-1.92,-109.5004,-229.8304,-17.9822,175,75
2026-05-11 17:56:52.004,2,-0.97,-1.21,-1.97,-40.2304,-129.03040000000001,-28.4722,175,75
2026-05-11 17:56:52.063,2,-0.93,-1.89,-1.01,-89.2004,-40.6804,-1.5822000000000003,175,75
2026-05-11 17:56:52.076,2,-0.82,-1.32,-1.02,-24.5604,-39.7004,-5.7322,175,75
2026-05-11 17:56:52.088,2,-0.7,-0.85,-0.98,18.549599999999998,-28.6704,12.0778,175,75
2026-05-11 17:56:52.098,2,-0.64,-0.46,-0.84,30.559599999999996,1.8796,21.1578,175,75
2026-05-11 17:56:52.098,2,-0.39,0.18,-0.65,14.579600000000001,74.4996,24.997799999999998,175,75
2026-05-11 17:56:52.111,2,-0.25,0.74,-0.46,-4.0104,116.9996,12.747800000000002,175,75
2026-05-11 17:56:52.121,2,-0.12,1.19,-0.18,-15.7204,184.43959999999998,10.857800000000001,175,75
2026-05-11 17:56:52.121,2,-0.15,1.6,-0.05,-6.8804,211.1496,6.157800000000002,175,75
2026-05-11 17:56:52.132,2,-0.15,1.69,0.21,-0.3604000000000003,184.0196,1.4678000000000004,175,75
2026-05-11 17:56:52.155,2,-0.16,1.39,0.42,0.8596000000000004,129.4996,2.1378000000000004,175,75
2026-05-11 17:56:52.166,2,-0.27,0.72,0.53,-41.0304,9.199599999999998,-4.2021999999999995,175,75
2026-05-11 17:56:52.176,2,-0.39,0.38,0.17,-51.760400000000004,-151.0504,-0.18219999999999992,175,75
2026-05-11 17:56:52.204,2,-0.5,-0.05,-0.26,-40.9004,-195.4404,16.9478,175,75
2026-05-11 17:56:52.226,2,-0.57,-1.35,-0.81,-59.7504,-153.24040000000002,9.207799999999999,175,75
2026-05-11 17:56:52.226,2,-0.71,-1.97,-1.18,-43.5304,-120.7404,15.0578,175,75
2026-05-11 17:56:52.236,2,-0.85,-2.18,-1.39,-20.0504,-19.340400000000002,9.637799999999999,175,75
2026-05-11 17:56:52.248,2,-0.73,-1.52,-1.44,16.959600000000002,79.6896,0.7378,175,75
2026-05-11 17:56:52.259,2,-0.42,-0.72,-0.85,59.949600000000004,171.3296,35.7978,175,75
2026-05-11 17:56:52.272,2,-0.37,-1.03,-0.55,45.3196,152.3696,39.8778,175,75
2026-05-11 17:56:52.294,2,-0.27,-2.22,-0.27,-6.8204,0.5996000000000006,19.147800000000004,175,75
2026-05-11 17:56:52.294,2,-0.41,-2.37,-0.39,21.229599999999998,-101.90039999999999,0.7978000000000005,175,75
2026-05-11 17:56:52.305,2,-0.58,-1.8,-0.45,53.489599999999996,-146.59040000000002,-21.6422,175,75
2026-05-11 17:56:52.324,2,-0.4,-1.02,-0.9,113.9096,-130.9804,-16.4622,175,75
2026-05-11 17:56:52.335,2,-0.42,-0.69,-1.03,85.7396,-84.46039999999999,-11.4022,175,75
2026-05-11 17:56:52.353,2,-0.38,-0.49,-1.09,62.879599999999996,-26.7804,-14.392199999999999,175,75
2026-05-11 17:56:52.364,2,-0.35,-0.31,-1.09,55.989599999999996,60.71959999999999,-12.8622,175,75
2026-05-11 17:56:52.374,2,-0.29,-0.12,-1.02,70.00959999999999,178.7696,-8.7822,175,75
2026-05-11 17:56:52.374,2,-0.29,0.03,-0.87,86.5396,269.1996,-5.4822,175,75
2026-05-11 17:56:52.465,2,-0.37,0.35,-0.35,94.4596,400.7196,-0.36219999999999963,175,75
2026-05-11 17:56:52.465,2,-0.36,0.48,-0.07,84.9496,419.4996,-0.6121999999999996,175,75
2026-05-11 17:56:52.465,2,-0.31,0.58,0.26,66.7196,380.2996,-0.8521999999999998,175,75
2026-05-11 17:56:52.480,2,-0.28,0.59,0.51,51.599599999999995,297.4296,-1.0922,175,75
2026-05-11 17:56:52.480,2,-0.24,0.5,0.68,37.879599999999996,203.46959999999999,-3.9022000000000006,175,75
2026-05-11 17:56:52.495,2,-0.16,0.37,0.77,18.909599999999998,76.7596,-10.972199999999999,175,75
2026-05-11 17:56:52.506,2,-0.17,0.37,0.67,14.829600000000001,-44.0304,-19.3322,175,75
2026-05-11 17:56:52.539,2,-0.21,0.36,0.41,16.049599999999998,-131.9604,-26.6422,175,75
2026-05-11 17:56:52.539,2,-0.28,0.36,0.19,11.289599999999998,-160.5004,-31.1622,175,75
2026-05-11 17:56:52.551,2,-0.36,0.33,-0.01,2.5695999999999994,-160.0104,-35.9122,175,75
2026-05-11 17:56:52.562,2,-0.34,0.29,-0.1,-6.4504,-94.5804,-42.2522,175,75
2026-05-11 17:56:52.575,2,-0.34,0.29,-0.04,-10.4804,-76.4104,-44.202200000000005,175,75
2026-05-11 17:56:52.599,2,-0.32,0.24,0.06,-13.8904,-71.5304,-45.9122,175,75
2026-05-11 17:56:52.599,2,-0.27,0.19,0.15,-13.5304,-83.6104,-47.1322,175,75
2026-05-11 17:56:52.623,2,-0.28,-0.29,0.17,-4.5604000000000005,-219.8304,-54.8122,175,75
2026-05-11 17:56:52.634,2,-0.39,-0.79,-0.06,-4.5004,-315.8604,-65.1822,175,75
2026-05-11 17:56:52.645,2,-0.63,-1.18,-0.12,-2.6704,-363.0004,-69.6922,175,75
2026-05-11 17:56:52.670,2,-1.6,-2.59,-1.07,12.079600000000001,-433.3004,-45.4822,175,75
2026-05-11 17:56:52.680,2,-1.98,-2.78,-1.44,-5.9004,-394.2204,-51.0322,175,75
2026-05-11 17:56:52.693,2,-2.13,-2.01,-2.02,51.4696,-275.0104,-69.6922,175,75
2026-05-11 17:56:52.706,2,-1.83,-1.95,-1.87,100.6796,-182.5704,-12.982199999999999,175,75
2026-05-11 17:56:52.718,2,-1.65,-1.9,-1.6,101.2896,-51.0504,23.537799999999997,175,75
2026-05-11 17:56:52.718,2,-1.47,-1.73,-1.47,88.1796,11.2096,28.9078,175,75
2026-05-11 17:56:52.734,2,-1.1,-1.39,-0.97,49.7696,85.4196,36.7078,175,75
2026-05-11 17:56:52.745,2,-0.99,-1.22,-0.74,30.739599999999996,116.7596,39.0878,175,75
2026-05-11 17:56:52.761,2,-0.87,-1.08,-0.53,21.959600000000002,137.3696,34.6978,175,75
2026-05-11 17:56:52.772,2,-0.67,-0.94,-0.32,24.6396,123.2796,22.1978,175,75
2026-05-11 17:56:52.772,2,-0.49,-0.75,-0.15,27.269599999999997,71.26960000000001,12.0778,175,75
2026-05-11 17:56:52.788,2,-0.4,-0.51,-0.07,22.449599999999997,11.6396,7.0778,175,75
2026-05-11 17:56:52.788,2,-0.43,-0.16,-0.12,5.009600000000001,-71.7804,6.277799999999999,175,75
2026-05-11 17:56:52.804,2,-0.48,-0.14,-0.31,-14.810400000000001,-109.6404,2.3178,175,75
2026-05-11 17:56:52.814,2,-0.51,-0.2,-0.42,-27.4304,-106.7204,3.5378000000000007,175,75
2026-05-11 17:56:52.824,2,-0.54,-0.23,-0.53,-32.9204,-75.8004,9.817800000000002,175,75
2026-05-11 17:56:52.844,2,-0.51,-0.12,-0.55,-22.5504,-11.6604,23.8378,175,75
2026-05-11 17:56:52.844,2,-0.41,0.01,-0.46,-13.5304,28.8296,34.2078,175,75
2026-05-11 17:56:52.856,2,-0.34,0.14,-0.36,-13.2804,62.1296,42.9278,175,75
2026-05-11 17:56:52.870,2,-0.27,0.28,-0.26,-21.8204,71.4496,45.4278,175,75
2026-05-11 17:56:52.877,2,-0.21,0.4,-0.17,-33.8904,68.5896,43.2978,175,75
2026-05-11 17:56:52.899,2,-0.09,0.47,-0.01,-42.4304,65.4196,35.5478,175,75
2026-05-11 17:56:52.919,2,0.0,0.43,0.15,-35.7804,29.4996,18.1078,175,75
2026-05-11 17:56:52.937,2,-0.02,0.42,0.2,-40.2304,0.6595999999999993,12.2578,175,75
2026-05-11 17:56:52.962,2,-0.17,0.25,0.11,-75.2904,-68.4204,-5.6122,175,75
2026-05-11 17:56:52.975,2,-0.25,0.15,0.03,-83.6504,-73.4804,-11.0322,175,75
2026-05-11 17:56:52.986,2,-0.35,-0.05,-0.1,-83.4004,-72.8704,-17.2522,175,75
2026-05-11 17:56:52.998,2,-0.57,-0.46,-0.34,-80.0504,-70.9204,-23.5922,175,75
2026-05-11 17:56:53.021,2,-0.85,-1.28,-0.68,-88.8904,-43.0004,-28.2322,175,75
2026-05-11 17:56:53.032,2,-0.98,-1.91,-0.82,-96.2704,1.9396000000000004,-32.9822,175,75
2026-05-11 17:56:53.054,2,-1.57,-2.01,-0.91,-35.2904,156.2096,-48.2322,175,75
2026-05-11 17:56:53.069,2,-1.72,-1.38,-0.91,53.7296,188.8896,-54.8722,175,75
2026-05-11 17:56:53.069,2,-1.7,-0.92,-0.73,95.3196,164.5596,-35.7322,175,75
2026-05-11 17:56:53.080,2,-1.49,-1.01,-0.44,76.89959999999999,69.0796,1.0977999999999994,175,75
2026-05-11 17:56:53.104,2,-1.3,-1.95,-0.35,-49.7504,-83.6704,10.7378,175,75
2026-05-11 17:56:53.114,2,-1.27,-1.77,-0.55,-27.550400000000003,-93.79039999999999,-6.6422,175,75
2026-05-11 17:56:53.125,2,-1.16,-1.32,-0.69,48.059599999999996,-78.9704,-16.2822,175,75
2026-05-11 17:56:53.137,2,-1.07,-0.94,-0.64,110.6796,-42.870400000000004,-10.9122,175,75
2026-05-11 17:56:53.150,2,-0.95,-0.45,-0.55,132.2696,5.169600000000001,5.367799999999999,175,75
2026-05-11 17:56:53.162,2,-0.76,0.06,-0.47,98.6096,38.7096,3.357800000000001,175,75
2026-05-11 17:56:53.174,2,-0.49,0.96,-0.43,37.0796,81.26960000000001,5.607800000000001,175,75
2026-05-11 17:56:53.186,2,-0.5,1.4,-0.32,28.849599999999995,128.5896,6.2178,175,75
2026-05-11 17:56:53.205,2,-0.33,1.26,-0.01,21.599600000000002,128.6496,27.867800000000003,175,75
2026-05-11 17:56:53.216,2,-0.25,0.72,0.19,-27.3104,54.9896,15.6678,175,75
2026-05-11 17:56:53.226,2,-0.15,0.5,0.29,-60.0504,-7.6904,4.447800000000001,175,75
2026-05-11 17:56:53.240,2,-0.18,0.32,0.22,-66.9404,-60.0704,-0.7921999999999993,175,75
2026-05-11 17:56:53.272,2,-0.44,-0.14,-0.14,-73.7704,-120.37039999999999,-6.1621999999999995,175,75
2026-05-11 17:56:53.296,2,-0.69,-1.01,-0.5,-89.2004,-90.98039999999999,-3.4122000000000003,175,75
2026-05-11 17:56:53.296,2,-0.85,-1.49,-0.64,-89.3204,-46.9604,3.2378,175,75
2026-05-11 17:56:53.307,2,-0.98,-2.01,-0.81,-83.7704,-8.3004,12.3778,175,75
2026-05-11 17:56:53.320,2,-1.14,-2.53,-0.98,-72.3104,24.9296,25.9178,175,75
2026-05-11 17:56:53.331,2,-1.33,-2.64,-1.13,-42.6104,61.389599999999994,23.9078,175,75
2026-05-11 17:56:53.341,2,-1.26,-1.72,-1.11,42.3896,106.51960000000001,-3.3522,175,75
2026-05-11 17:56:53.362,2,-0.66,-1.85,-0.43,44.2196,68.76960000000001,84.8778,175,75
2026-05-11 17:56:53.393,2,-0.57,-2.64,-0.34,-7.4904,7.489600000000001,54.817800000000005,175,75
2026-05-11 17:56:53.393,2,-0.53,-2.75,-0.39,-0.05039999999999978,-34.3404,23.1678,175,75
2026-05-11 17:56:53.427,2,-0.58,-1.49,-0.69,109.8296,-109.34039999999999,-39.1422,175,75
2026-05-11 17:56:53.455,2,-0.43,-0.11,-0.77,45.739599999999996,48.2196,-23.9022,175,75
2026-05-11 17:56:53.481,2,-0.31,0.14,-0.49,60.67959999999999,122.85960000000001,-13.1122,175,75
2026-05-11 17:56:53.495,2,-0.25,0.27,-0.25,54.949600000000004,135.59959999999998,-10.0022,175,75
2026-05-11 17:56:53.520,2,-0.24,0.35,-0.06,33.6096,119.4396,-15.972199999999999,175,75
2026-05-11 17:56:53.530,2,-0.25,0.37,0.02,21.8996,106.3296,-19.3322,175,75
2026-05-11 17:56:53.552,2,-0.25,0.42,0.11,-1.330400000000001,48.0396,-26.3422,175,75
2026-05-11 17:56:53.568,2,-0.26,0.46,0.1,-3.5304,-1.5904000000000007,-26.1622,175,75
2026-05-11 17:56:53.590,2,-0.24,0.39,0.11,1.4095999999999993,-4.6404,-26.7622,175,75
2026-05-11 17:56:53.601,2,-0.18,0.34,0.12,7.269599999999999,4.0196000000000005,-31.8322,175,75
2026-05-11 17:56:53.601,2,-0.13,0.27,0.12,15.129599999999998,14.4396,-38.7222,175,75
2026-05-11 17:56:53.624,2,-0.2,0.17,-0.09,30.6796,47.8596,-56.5822,175,75
2026-05-11 17:56:53.639,2,-0.28,0.19,-0.18,28.4296,83.2196,-65.2422,175,75
2026-05-11 17:56:53.646,2,-0.36,0.25,-0.32,19.279600000000002,104.1996,-64.4522,175,75
2026-05-11 17:56:53.663,2,-0.45,0.27,-0.32,2.8796,99.62960000000001,-60.4822,175,75
2026-05-11 17:56:53.677,2,-0.44,0.1,-0.35,-20.1104,61.1496,-61.1622,175,75
2026-05-11 17:56:53.688,2,-0.56,-0.23,-0.37,-57.4904,19.1396,-67.1922,175,75
2026-05-11 17:56:53.698,2,-0.67,-0.61,-0.44,-89.2604,-22.1404,-69.87219999999999,175,75
2026-05-11 17:56:53.708,2,-0.83,-1.04,-0.59,-110.2904,-86.29039999999999,-67.6822,175,75
2026-05-11 17:56:53.732,2,-1.17,-2.33,-1.19,-104.2604,-163.5504,-51.0322,175,75
2026-05-11 17:56:53.743,2,-1.44,-2.94,-1.5,-81.4504,-103.5504,-36.0322,175,75
2026-05-11 17:56:53.753,2,-1.51,-2.24,-1.66,-34.6804,-31.050400000000003,-62.7422,175,75
2026-05-11 17:56:53.764,2,-1.24,-1.7,-1.41,19.2196,8.769599999999999,-45.9122,175,75
2026-05-11 17:56:53.796,2,-1.02,-1.83,-0.97,6.2296,83.40960000000001,33.8378,175,75
2026-05-11 17:56:53.812,2,-0.86,-1.7,-0.81,30.989599999999996,110.90960000000001,42.7478,175,75
2026-05-11 17:56:53.817,2,-0.69,-1.55,-0.66,45.989599999999996,122.79960000000001,45.4278,175,75
2026-05-11 17:56:53.836,2,-0.57,-1.36,-0.53,42.4496,122.1896,41.5278,175,75
2026-05-11 17:56:53.848,2,-0.47,-1.12,-0.48,38.489599999999996,115.7196,36.7078,175,75
2026-05-11 17:56:53.871,2,-0.27,-0.57,-0.32,35.559599999999996,82.3696,32.6878,175,75
2026-05-11 17:56:53.875,2,-0.46,-0.58,-0.3,22.7496,100.53960000000001,37.4978,175,75
2026-05-11 17:56:53.893,2,-0.7,-0.76,-0.15,13.969600000000002,136.3896,37.9278,175,75
2026-05-11 17:56:53.902,2,-0.64,-0.87,-0.13,18.1796,145.59959999999998,26.9478,175,75
2026-05-11 17:56:53.916,2,-0.51,-0.72,-0.05,25.9296,131.2096,20.4878,175,75
2026-05-11 17:56:53.916,2,-0.38,-0.43,-0.08,30.379599999999996,105.1696,21.2778,175,75
2026-05-11 17:56:53.951,2,-0.25,0.21,-0.08,21.599600000000002,142.4296,41.1578,175,75
2026-05-11 17:56:54.038,2,-0.19,0.46,0.01,15.0096,175.53959999999998,47.8678,175,75
2026-05-11 17:56:54.049,2,-0.09,0.68,0.17,8.429599999999999,210.7796,48.2978,175,75
2026-05-11 17:56:54.059,2,-0.02,0.79,0.3,2.5695999999999994,223.40959999999998,43.6578,175,75
2026-05-11 17:56:54.059,2,0.06,0.87,0.48,-1.8803999999999998,213.40959999999998,34.6378,175,75
2026-05-11 17:56:54.059,2,0.11,0.86,0.62,-17.1204,175.2996,20.7378,175,75
2026-05-11 17:56:54.070,2,0.16,0.73,0.66,-32.9804,101.26960000000001,5.0578,175,75
2026-05-11 17:56:54.085,2,-0.06,0.48,0.66,-38.0404,44.1996,-15.6122,175,75
2026-05-11 17:56:54.124,2,-0.18,0.32,0.61,-42.5504,-1.8404000000000007,-26.952199999999998,175,75
2026-05-11 17:56:54.136,2,-0.27,0.14,0.38,-48.3404,-68.2404,-34.9422,175,75
2026-05-11 17:56:54.146,2,-0.25,-0.01,0.2,-45.8404,-102.9404,-32.562200000000004,175,75
2026-05-11 17:56:54.146,2,-0.25,-0.17,0.07,-38.5904,-127.51039999999999,-29.5722,175,75
2026-05-11 17:56:54.157,2,-0.32,-0.33,-0.11,-26.0304,-143.06040000000002,-25.5522,175,75
2026-05-11 17:56:54.168,2,-0.36,-0.41,-0.32,-15.0504,-166.96040000000002,-17.8622,175,75
2026-05-11 17:56:54.197,2,-0.68,-1.63,-0.79,-53.040400000000005,-247.87040000000002,-0.9122000000000003,175,75
2026-05-11 17:56:54.197,2,-0.94,-2.16,-1.24,-72.8604,-214.7004,-7.7421999999999995,175,75
2026-05-11 17:56:54.208,2,-1.14,-2.19,-1.7,-51.330400000000004,-148.4804,-30.182199999999998,175,75
2026-05-11 17:56:54.234,2,-1.26,-1.8,-1.76,23.9696,113.2196,2.4978,175,75
2026-05-11 17:56:54.250,2,-1.33,-2.39,-1.38,23.849599999999995,264.3796,41.2778,175,75
2026-05-11 17:56:54.261,2,-1.14,-2.11,-1.15,54.8896,285.8396,35.3678,175,75
2026-05-11 17:56:54.287,2,-0.46,-0.68,-0.7,73.6096,356.32959999999997,45.8578,175,75
2026-05-11 17:56:54.287,2,-0.42,-0.37,-0.53,61.1696,384.4996,50.2478,175,75
2026-05-11 17:56:54.298,2,-0.44,0.0,-0.26,42.3296,436.51959999999997,51.3378,175,75
2026-05-11 17:56:54.314,2,-0.25,0.55,0.32,9.4596,446.3896,11.887799999999999,175,75
2026-05-11 17:56:54.314,2,-0.11,0.77,0.48,-8.6504,380.5396,4.697800000000001,175,75
2026-05-11 17:56:54.324,2,-0.05,1.07,0.84,-29.3204,263.8896,-5.062199999999999,175,75
2026-05-11 17:56:54.335,2,-0.02,1.08,1.03,-55.7804,28.589599999999997,-17.9222,175,75
2026-05-11 17:56:54.353,2,-0.02,0.84,0.87,-66.7604,-96.23039999999999,-21.4622,175,75
2026-05-11 17:56:54.364,2,-0.18,0.65,0.59,-71.3304,-213.24040000000002,-24.632199999999997,175,75
2026-05-11 17:56:54.376,2,-0.2,0.53,0.25,-54.1404,-255.4404,-22.9222,175,75
2026-05-11 17:56:54.386,2,-0.22,0.42,0.07,-44.0704,-251.7204,-22.9222,175,75
2026-05-11 17:56:54.414,2,-0.18,0.24,-0.09,-38.2204,-233.24040000000002,-23.4722,175,75
2026-05-11 17:56:54.432,2,-0.13,-0.07,-0.18,-36.3904,-212.6304,-25.7922,175,75
2026-05-11 17:56:54.432,2,-0.2,-0.47,-0.23,-39.9304,-190.9204,-31.4022,175,75
2026-05-11 17:56:54.443,2,-0.36,-0.81,-0.34,-39.6804,-175.9804,-30.3622,175,75
2026-05-11 17:56:54.466,2,-0.45,-1.22,-0.51,-33.8304,-190.68040000000002,-24.452199999999998,175,75
2026-05-11 17:56:54.477,2,-0.44,-1.64,-0.75,-32.6104,-216.1104,-14.4522,175,75
2026-05-11 17:56:54.477,2,-0.62,-2.12,-1.09,-42.790400000000005,-226.1104,-3.052199999999999,175,75
2026-05-11 17:56:54.490,2,-0.93,-2.31,-1.48,-46.330400000000004,-152.9404,-6.1621999999999995,175,75
2026-05-11 17:56:54.501,2,-0.69,-1.64,-1.63,-15.4804,-14.4604,-17.5022,175,75
2026-05-11 17:56:54.531,2,-0.37,-1.28,-1.31,17.019599999999997,100.7196,32.6278,175,75
2026-05-11 17:56:54.542,2,-0.23,-1.85,-0.95,18.1796,156.6996,76.4078,175,75
2026-05-11 17:56:54.588,2,-0.26,-2.84,-0.69,-19.9304,148.8296,79.9978,175,75
2026-05-11 17:56:54.588,2,-0.27,-3.05,-0.39,-38.8304,97.0596,61.037800000000004,175,75
2026-05-11 17:56:54.602,2,-0.21,-2.47,-0.13,-27.8604,-8.8504,7.627800000000001,175,75
2026-05-11 17:56:54.624,2,0.11,-1.63,0.01,0.5595999999999997,-105.4404,-23.7222,175,75
2026-05-11 17:56:54.624,2,0.14,-0.96,-0.03,14.829600000000001,-165.1304,-1.4621999999999993,175,75
2026-05-11 17:56:54.645,2,-0.05,-0.34,-0.33,6.2296,-170.37040000000002,-3.1722,175,75
2026-05-11 17:56:54.645,2,-0.02,-0.18,-0.38,-14.0704,-121.5304,-4.4521999999999995,175,75
2026-05-11 17:56:54.645,2,0.0,-0.04,-0.39,-22.1204,-57.6304,-6.2822,175,75
2026-05-11 17:56:54.658,2,0.01,0.16,-0.25,-5.4803999999999995,46.6996,-10.3022,175,75
2026-05-11 17:56:54.669,2,-0.03,0.29,-0.16,4.9496,80.65960000000001,-13.9622,175,75
2026-05-11 17:56:54.669,2,-0.06,0.42,-0.04,11.2296,106.0296,-17.1922,175,75
2026-05-11 17:56:54.681,2,-0.1,0.54,0.07,11.469600000000002,119.8096,-20.6722,175,75
2026-05-11 17:56:54.692,2,-0.13,0.6,0.17,6.5296,115.9696,-24.022199999999998,175,75
2026-05-11 17:56:54.692,2,-0.14,0.59,0.26,0.31959999999999944,102.9196,-27.072200000000002,175,75
2026-05-11 17:56:54.704,2,-0.14,0.53,0.32,-5.1704,81.81960000000001,-31.6422,175,75
2026-05-11 17:56:54.715,2,-0.12,0.47,0.37,-6.9404,57.549600000000005,-37.0122,175,75
2026-05-11 17:56:54.715,2,-0.14,0.42,0.39,-4.5604000000000005,29.2596,-42.9822,175,75
2026-05-11 17:56:54.727,2,-0.15,0.4,0.42,-1.5704000000000002,2.9795999999999996,-48.8422,175,75
2026-05-11 17:56:54.748,2,-0.29,0.24,0.29,-10.9004,-89.8904,-63.5922,175,75
2026-05-11 17:56:54.769,2,-0.3,0.2,0.22,-9.2004,-86.96039999999999,-62.9822,175,75
2026-05-11 17:56:54.769,2,-0.29,0.17,0.18,-6.6404,-79.40039999999999,-62.8622,175,75
2026-05-11 17:56:54.780,2,-0.23,0.13,0.2,-2.4304000000000006,-71.0504,-60.7322,175,75
2026-05-11 17:56:54.788,2,-0.2,0.09,0.2,-1.8803999999999998,-82.1404,-60.0022,175,75
2026-05-11 17:56:54.802,2,-0.17,-0.05,0.23,-8.5304,-111.4704,-58.5322,175,75
2026-05-11 17:56:54.820,2,-0.12,-0.44,0.32,-18.040399999999998,-159.1604,-68.1722,175,75
2026-05-11 17:56:54.855,2,-0.92,-2.0,-0.75,9.4596,-420.2504,-89.6922,175,75
2026-05-11 17:56:54.951,2,-1.54,-2.36,-1.54,-8.1604,-406.5904,-93.9022,175,75
2026-05-11 17:56:54.961,2,-1.76,-2.3,-2.12,-18.2804,-336.1104,-112.9822,175,75
2026-05-11 17:56:54.961,2,-1.96,-1.89,-2.58,1.2295999999999996,-160.8004,-124.5722,175,75
2026-05-11 17:56:54.968,2,-1.77,-1.74,-2.53,40.379599999999996,11.089599999999999,-75.1822,175,75
2026-05-11 17:56:54.980,2,-1.72,-1.91,-2.15,70.3196,160.4796,-6.0922,175,75
2026-05-11 17:56:54.992,2,-1.54,-2.02,-1.64,85.5596,229.25959999999998,23.6578,175,75
2026-05-11 17:56:55.003,2,-1.21,-1.77,-1.18,91.5996,176.2696,10.6678,175,75
2026-05-11 17:56:55.003,2,-0.75,-1.18,-0.71,34.3396,-15.5604,41.8278,175,75
2026-05-11 17:56:55.003,2,-0.81,-0.99,-0.76,5.5596,-56.5304,46.8278,175,75
2026-05-11 17:56:55.015,2,-0.82,-0.84,-0.84,-7.180400000000001,-77.3904,40.9178,175,75
2026-05-11 17:56:55.036,2,-0.5,-0.4,-0.84,14.2796,-16.2304,28.477800000000002,175,75
2026-05-11 17:56:55.036,2,-0.44,-0.22,-0.82,17.629599999999996,44.559599999999996,30.3078,175,75
2026-05-11 17:56:55.046,2,-0.47,-0.1,-0.76,8.179599999999999,122.85960000000001,36.5278,175,75
2026-05-11 17:56:55.064,2,-0.5,-0.23,-0.55,-13.650400000000001,237.4896,52.017799999999994,175,75
2026-05-11 17:56:55.068,2,-0.49,-0.26,-0.38,-12.490400000000001,275.9096,56.3378,175,75
2026-05-11 17:56:55.086,2,-0.32,-0.06,0.06,-10.5404,267.9196,55.3678,175,75
2026-05-11 17:56:55.093,2,-0.24,0.05,0.24,-22.8604,234.31959999999998,48.5378,175,75
2026-05-11 17:56:55.104,2,-0.18,0.12,0.35,-36.7604,191.9996,40.6078,175,75
2026-05-11 17:56:55.120,2,-0.15,0.16,0.44,-46.940400000000004,139.1996,31.1578,175,75
2026-05-11 17:56:55.120,2,-0.14,0.2,0.48,-48.2804,102.3696,23.107799999999997,175,75
2026-05-11 17:56:55.131,2,-0.12,0.27,0.51,-45.720400000000005,65.53960000000001,15.797799999999999,175,75
2026-05-11 17:56:55.143,2,-0.1,0.36,0.53,-45.1104,28.8296,9.517800000000001,175,75
2026-05-11 17:56:55.153,2,-0.09,0.48,0.55,-47.4904,-11.0504,2.437800000000001,175,75
2026-05-11 17:56:55.163,2,-0.14,0.62,0.58,-39.4404,-75.98039999999999,-9.4522,175,75
2026-05-11 17:56:55.203,2,-0.23,0.6,0.54,-30.290399999999998,-120.07039999999999,-10.972199999999999,175,75
2026-05-11 17:56:55.203,2,-0.33,0.49,0.49,-28.4604,-165.68040000000002,-10.3622,175,75
2026-05-11 17:56:55.237,2,-0.36,0.36,0.43,-32.4904,-195.0104,-8.232199999999999,175,75
2026-05-11 17:56:55.248,2,-0.32,0.17,0.32,-35.7204,-220.1904,-5.7322,175,75
2026-05-11 17:56:55.261,2,-0.3,-0.1,0.16,-37.0004,-255.1904,-2.6221999999999994,175,75
2026-05-11 17:56:55.272,2,-0.48,-0.67,-0.01,-40.4804,-296.29040000000003,-4.4521999999999995,175,75
2026-05-11 17:56:55.272,2,-0.95,-1.36,-0.3,-47.2504,-293.6104,4.1478,175,75
2026-05-11 17:56:55.283,2,-1.2,-2.35,-1.0,-74.8704,-318.1804,7.377800000000001,175,75
2026-05-11 17:56:55.319,2,-1.37,-2.94,-1.34,-104.5004,-305.92040000000003,2.867799999999999,175,75
2026-05-11 17:56:55.331,2,-1.71,-3.0,-1.84,-97.7304,-127.7504,-53.5322,175,75
2026-05-11 17:56:55.384,2,-1.52,-1.51,-1.77,23.9696,-51.900400000000005,-68.5322,175,75
2026-05-11 17:56:55.423,2,-1.46,-1.27,-1.07,23.489599999999996,-45.5604,39.9978,175,75
2026-05-11 17:56:55.423,2,-1.49,-1.77,-1.02,-49.1404,-95.5604,48.8378,175,75
2026-05-11 17:56:55.423,2,-1.39,-1.77,-1.15,-44.2004,-105.1904,39.147800000000004,175,75
2026-05-11 17:56:55.435,2,-1.26,-1.31,-1.49,53.489599999999996,-5.1903999999999995,28.1678,175,75
2026-05-11 17:56:55.461,2,-0.38,0.87,-0.11,18.1196,270.8396,47.0178,175,75
2026-05-11 17:56:55.472,2,-0.16,1.37,0.03,5.319599999999999,228.9496,43.7178,175,75
2026-05-11 17:56:55.483,2,-0.18,1.6,0.08,6.899600000000001,178.46959999999999,59.147800000000004,175,75
2026-05-11 17:56:55.493,2,-0.25,1.63,0.18,-20.970399999999998,118.88960000000002,56.407799999999995,175,75
2026-05-11 17:56:55.493,2,-0.27,1.07,0.1,-55.290400000000005,63.6496,56.09780000000001,175,75
2026-05-11 17:56:55.521,2,-0.41,-0.11,-0.49,-72.7304,134.7496,53.1678,175,75
2026-05-11 17:56:55.532,2,-0.45,-0.48,-0.4,-88.8904,146.87959999999998,51.5278,175,75
2026-05-11 17:56:55.545,2,-0.49,-0.97,-0.31,-111.2104,151.87959999999998,41.7078,175,75
2026-05-11 17:56:55.558,2,-0.53,-1.23,-0.4,-121.5104,135.0496,36.8278,175,75
2026-05-11 17:56:55.582,2,-0.75,-1.61,-0.85,-115.5404,62.7296,38.9678,175,75
2026-05-11 17:56:55.592,2,-0.8,-1.56,-1.03,-100.0504,77.6696,37.8078,175,75
2026-05-11 17:56:55.592,2,-0.59,-1.11,-1.1,-68.6504,128.2796,32.6878,175,75
2026-05-11 17:56:55.604,2,-0.45,-0.74,-0.93,-49.440400000000004,162.0596,49.6378,175,75
2026-05-11 17:56:55.615,2,-0.42,-0.93,-0.69,-61.330400000000004,155.8396,65.1878,175,75
2026-05-11 17:56:55.615,2,-0.51,-1.53,-0.64,-80.1704,111.5796,72.4978,175,75
2026-05-11 17:56:55.627,2,-0.67,-2.08,-0.71,-86.7604,59.3796,72.1978,175,75
2026-05-11 17:56:55.642,2,-0.76,-2.5,-0.86,-71.2704,0.5996000000000006,66.5278,175,75
2026-05-11 17:56:55.651,2,-0.84,-2.37,-1.06,-25.9604,-5.1903999999999995,48.4178,175,75
2026-05-11 17:56:55.658,2,-0.71,-1.79,-1.04,18.7896,30.299599999999998,41.4078,175,75
2026-05-11 17:56:55.705,2,-0.45,-1.23,-0.87,55.379599999999996,92.54960000000001,60.187799999999996,175,75
2026-05-11 17:56:55.716,2,-0.39,-0.64,-0.41,66.2296,149.68959999999998,78.4178,175,75
2026-05-11 17:56:55.716,2,-0.33,-0.47,-0.33,63.5496,153.15959999999998,81.7078,175,75
2026-05-11 17:56:55.727,2,-0.29,-0.3,-0.28,66.5996,149.4996,82.4378,175,75
2026-05-11 17:56:55.727,2,-0.28,-0.18,-0.25,74.0396,148.7696,80.2478,175,75
2026-05-11 17:56:55.739,2,-0.32,-0.09,-0.24,78.7896,166.0296,75.9178,175,75
2026-05-11 17:56:55.761,2,-0.39,0.01,-0.26,76.7196,201.2696,72.4978,175,75
2026-05-11 17:56:55.761,2,-0.41,0.09,-0.25,71.1096,227.9796,69.9378,175,75
2026-05-11 17:56:55.778,2,-0.43,0.11,-0.17,61.4696,257.9196,68.1078,175,75
2026-05-11 17:56:55.791,2,-0.43,0.09,-0.09,51.959599999999995,283.2196,68.9078,175,75
2026-05-11 17:56:55.791,2,-0.46,0.05,-0.0,41.349599999999995,297.2496,67.1378,175,75
2026-05-11 17:56:55.812,2,-0.45,0.06,0.1,29.0396,294.4396,63.047799999999995,175,75
2026-05-11 17:56:55.812,2,-0.42,0.14,0.14,19.709600000000002,267.3696,59.6978,175,75
2026-05-11 17:56:55.824,2,-0.39,0.23,0.25,4.829599999999999,226.9996,52.1378,175,75
2026-05-11 17:56:55.834,2,-0.37,0.28,0.36,-15.5404,185.53959999999998,44.7578,175,75
2026-05-11 17:56:55.854,2,-0.35,0.29,0.45,-38.8904,121.9396,29.2078,175,75
2026-05-11 17:56:55.871,2,-0.37,0.28,0.47,-48.830400000000004,56.269600000000004,23.4178,175,75
2026-05-11 17:56:55.881,2,-0.36,0.27,0.46,-53.220400000000005,9.379600000000002,20.607799999999997,175,75
2026-05-11 17:56:55.881,2,-0.35,0.28,0.4,-57.6104,-39.1604,19.147800000000004,175,75
2026-05-11 17:56:55.892,2,-0.31,0.3,0.32,-61.5704,-71.29039999999999,20.9178,175,75
2026-05-11 17:56:55.902,2,-0.31,0.31,0.25,-62.4904,-89.09039999999999,24.3878,175,75
2026-05-11 17:56:55.920,2,-0.15,0.27,0.18,-62.3104,-114.46039999999999,37.3778,175,75
2026-05-11 17:56:55.930,2,0.14,0.11,0.18,-67.18039999999999,-180.74040000000002,47.0778,175,75
2026-05-11 17:56:55.955,2,0.36,-0.2,0.24,-72.9804,-284.0304,46.8278,175,75
2026-05-11 17:56:55.955,2,0.49,-0.54,0.28,-82.0604,-383.2404,38.1678,175,75
2026-05-11 17:56:56.002,2,0.33,-1.81,0.18,-174.6804,-681.9604,-24.752200000000002,175,75
2026-05-11 17:56:56.033,2,-0.4,-2.37,-0.51,-199.7504,-710.1904,-53.8422,175,75
2026-05-11 17:56:56.045,2,-1.34,-2.42,-1.79,-172.7904,-626.7204,-122.5622,175,75
2026-05-11 17:56:56.085,2,-1.76,-1.56,-3.31,-26.150399999999998,-193.24040000000002,-184.81220000000002,175,75
2026-05-11 17:56:56.096,2,-1.89,-0.89,-3.19,61.4096,145.71959999999999,-95.9122,175,75
2026-05-11 17:56:56.107,2,-1.71,-1.04,-2.57,135.3796,494.7496,29.937800000000003,175,75
2026-05-11 17:56:56.140,2,-1.41,-1.19,-1.35,217.3896,635.5996,130.8578,175,75
2026-05-11 17:56:56.151,2,-2.07,-1.22,-0.67,259.7096,551.5796,45.6078,175,75
2026-05-11 17:56:56.151,2,-1.5,-1.28,-0.21,230.1296,453.9496,18.6578,175,75
2026-05-11 17:56:56.178,2,-1.17,-1.14,0.16,152.4496,343.70959999999997,17.317800000000002,175,75
2026-05-11 17:56:56.216,2,-0.73,-0.36,0.21,-33.1604,42.5496,36.0378,175,75
2026-05-11 17:56:56.216,2,-0.82,0.23,-0.23,-6.5704,-106.6604,50.6078,175,75
2026-05-11 17:56:56.229,2,-0.85,0.31,-0.29,23.059599999999996,-76.23039999999999,56.4678,175,75
2026-05-11 17:56:56.229,2,-0.82,0.29,-0.32,21.229599999999998,-24.090400000000002,58.1678,175,75
2026-05-11 17:56:56.241,2,-0.63,0.1,-0.21,-2.6704,108.40960000000001,55.9178,175,75
2026-05-11 17:56:56.252,2,-0.59,-0.0,-0.11,8.059600000000001,156.4496,55.6678,175,75
2026-05-11 17:56:56.262,2,-0.5,-0.05,0.29,31.8996,196.5796,57.687799999999996,175,75
2026-05-11 17:56:56.273,2,-0.47,-0.05,0.48,19.459600000000002,165.7796,60.0578,175,75
2026-05-11 17:56:56.273,2,-0.39,-0.11,0.55,5.1296,113.6496,63.59780000000001,175,75
2026-05-11 17:56:56.294,2,-0.36,-0.18,0.47,2.999599999999999,59.6296,68.4178,175,75
2026-05-11 17:56:56.294,2,-0.34,-0.23,0.28,10.6196,41.5796,71.2778,175,75
2026-05-11 17:56:56.305,2,-0.32,-0.26,0.19,17.5696,58.0396,70.0578,175,75
2026-05-11 17:56:56.316,2,-0.25,-0.11,0.19,30.2496,137.8596,64.8778,175,75
2026-05-11 17:56:56.324,2,-0.17,0.04,0.3,28.669599999999996,146.93959999999998,62.4978,175,75
2026-05-11 17:56:56.324,2,-0.1,0.18,0.45,23.299599999999998,132.6696,59.267799999999994,175,75
2026-05-11 17:56:56.336,2,0.05,0.26,0.54,17.1396,74.1996,54.9978,175,75
2026-05-11 17:56:56.347,2,0.14,0.27,0.6,11.9596,-11.1704,51.3378,175,75
2026-05-11 17:56:56.347,2,0.21,0.06,0.58,2.1395999999999997,-128.9104,47.9278,175,75
2026-05-11 17:56:56.358,2,0.26,-0.27,0.4,-1.4504000000000001,-247.4504,44.147800000000004,175,75
2026-05-11 17:56:56.369,2,0.16,-0.7,0.22,-4.0704,-382.3904,43.2978,175,75
2026-05-11 17:56:56.374,2,-0.12,-1.27,-0.07,-14.810400000000001,-514.8303999999999,45.3678,175,75
2026-05-11 17:56:56.387,2,-0.62,-2.04,-0.5,-57.4304,-650.6804,48.5978,175,75
2026-05-11 17:56:56.400,2,-1.31,-2.75,-1.2,-161.6404,-749.2204,46.7078,175,75
2026-05-11 17:56:56.411,2,-1.81,-3.07,-1.85,-246.2704,-741.9604,9.637799999999999,175,75
2026-05-11 17:56:56.414,2,-2.67,-2.94,-2.69,-270.5404,-619.4604,-92.9822,175,75
2026-05-11 17:56:56.429,2,-1.9,-1.68,-2.79,-98.8304,-469.4004,-145.36219999999997,175,75
2026-05-11 17:56:56.472,2,-1.31,-1.87,-1.04,-34.3204,-139.7004,-34.7522,175,75
2026-05-11 17:56:56.477,2,-1.08,-1.34,-0.92,-22.1804,-92.6304,-25.3022,175,75
2026-05-11 17:56:56.524,2,-1.12,-0.68,-0.92,40.3196,24.4996,18.0478,175,75
2026-05-11 17:56:56.533,2,-0.99,-0.24,-0.66,25.9296,266.20959999999997,59.267799999999994,175,75
2026-05-11 17:56:56.551,2,-0.9,0.09,-0.43,-10.1104,378.0996,71.5278,175,75
2026-05-11 17:56:56.551,2,-0.84,0.38,-0.11,-16.3304,441.9996,80.0578,175,75
2026-05-11 17:56:56.573,2,-0.77,0.91,0.58,11.539599999999998,403.3396,85.9178,175,75
2026-05-11 17:56:56.573,2,-0.78,1.02,0.78,9.1596,310.7196,78.9078,175,75
2026-05-11 17:56:56.608,2,-0.7,1.01,0.77,-76.8204,49.4396,59.4478,175,75
2026-05-11 17:56:56.623,2,-0.78,0.95,0.48,-85.9004,-2.0804,57.37779999999999,175,75
2026-05-11 17:56:56.652,2,-0.8,0.59,0.07,-53.2804,-0.5603999999999996,69.2078,175,75
2026-05-11 17:56:56.652,2,-0.76,0.33,0.0,-48.2804,13.1596,77.6878,175,75
2026-05-11 17:56:56.652,2,-0.72,0.04,-0.02,-50.9604,12.859599999999999,79.2678,175,75
2026-05-11 17:56:56.667,2,-0.61,-0.35,-0.04,-50.540400000000005,-5.3704,72.5578,175,75
2026-05-11 17:56:56.672,2,-0.68,-0.71,-0.19,-39.870400000000004,-33.9104,64.7578,175,75
2026-05-11 17:56:56.686,2,-0.95,-1.02,-0.43,-25.290399999999998,-51.5904,61.4678,175,75
2026-05-11 17:56:56.686,2,-1.2,-1.29,-0.68,-0.7203999999999997,-58.6104,63.537800000000004,175,75
2026-05-11 17:56:56.700,2,-1.36,-1.47,-0.89,25.4396,-47.1404,60.3678,175,75
2026-05-11 17:56:56.710,2,-1.45,-1.41,-1.13,59.339600000000004,-12.4504,55.48780000000001,175,75
2026-05-11 17:56:56.720,2,-1.26,-0.83,-1.22,100.5596,30.3596,60.9778,175,75
2026-05-11 17:56:56.758,2,-0.72,-1.55,-1.04,49.099599999999995,114.01960000000001,104.5778,175,75
2026-05-11 17:56:56.767,2,-0.74,-2.0,-0.93,40.7996,184.68959999999998,101.9478,175,75
2026-05-11 17:56:56.780,2,-0.71,-2.11,-0.98,74.1596,228.9496,94.8778,175,75
2026-05-11 17:56:56.800,2,-0.82,-1.81,-0.72,122.3296,252.8596,77.6878,175,75
2026-05-11 17:56:56.811,2,-0.72,-1.37,-0.59,158.4896,225.90959999999998,60.797799999999995,175,75
2026-05-11 17:56:56.811,2,-0.61,-1.05,-0.42,145.8596,172.6096,54.87779999999999,175,75
2026-05-11 17:56:56.823,2,-0.54,-0.81,-0.33,109.7096,131.2096,53.7178,175,75
2026-05-11 17:56:56.827,2,-0.48,-0.63,-0.3,72.2696,101.3296,53.59780000000001,175,75
2026-05-11 17:56:56.839,2,-0.39,-0.51,-0.35,62.6896,92.0596,55.0578,175,75
2026-05-11 17:56:56.850,2,-0.33,-0.42,-0.41,82.8796,103.2196,58.7178,175,75
2026-05-11 17:56:56.867,2,-0.32,-0.34,-0.44,107.9996,136.1496,65.48780000000001,175,75
2026-05-11 17:56:56.876,2,-0.32,-0.25,-0.4,118.1796,189.68959999999998,71.8278,175,75
2026-05-11 17:56:56.891,2,-0.36,-0.21,-0.37,113.8496,231.93959999999998,72.3178,175,75
2026-05-11 17:56:56.891,2,-0.31,-0.14,-0.32,105.1896,257.7996,73.4778,175,75
2026-05-11 17:56:56.913,2,-0.17,0.03,-0.05,87.9996,304.2596,73.7178,175,75
2026-05-11 17:56:56.927,2,-0.06,0.13,0.12,78.6696,314.1396,72.4978,175,75
2026-05-11 17:56:56.940,2,0.08,0.24,0.29,67.5696,305.1696,67.9278,175,75
2026-05-11 17:56:56.949,2,0.2,0.33,0.47,56.1696,277.3096,60.8578,175,75
2026-05-11 17:56:56.968,2,0.31,0.38,0.63,46.8996,225.96959999999999,49.4478,175,75
2026-05-11 17:56:56.968,2,0.34,0.4,0.7,43.5496,164.62959999999998,32.1978,175,75
2026-05-11 17:56:56.990,2,0.26,0.36,0.65,42.3296,103.8896,12.317800000000002,175,75
2026-05-11 17:56:56.997,2,0.16,0.33,0.53,42.9996,74.31960000000001,3.9078000000000017,175,75
2026-05-11 17:56:57.007,2,0.11,0.34,0.39,44.5796,49.1996,-3.052199999999999,175,75
2026-05-11 17:56:57.019,2,0.1,0.27,0.24,45.989599999999996,50.2996,-12.9222,175,75
2026-05-11 17:56:57.027,2,0.08,0.18,0.08,53.6096,64.01960000000001,-21.8922,175,75
2026-05-11 17:56:57.037,2,0.01,0.02,0.07,61.839600000000004,86.7596,-22.9222,175,75
2026-05-11 17:56:57.072,2,-0.09,-0.6,-0.07,60.739599999999996,-34.4004,-36.1622,175,75
2026-05-11 17:56:57.099,2,-0.26,-1.24,-0.39,57.569599999999994,-165.68040000000002,-46.9522,175,75
2026-05-11 17:56:57.111,2,-0.58,-2.15,-0.84,38.849599999999995,-306.8404,-43.5922,175,75
2026-05-11 17:56:57.111,2,-1.45,-3.5,-1.85,-48.7704,-452.1404,-28.5322,175,75
2026-05-11 17:56:57.123,2,-1.82,-2.59,-2.26,-42.0604,-458.0004,-97.9822,175,75
2026-05-11 17:56:57.156,2,-1.14,-1.39,-2.11,1.0495999999999999,-470.1304,-58.2922,175,75
2026-05-11 17:56:57.170,2,-1.24,-1.72,-2.16,-58.5304,-374.7004,6.587800000000001,175,75
2026-05-11 17:56:57.180,2,-1.78,-2.12,-2.03,-116.2104,-242.6304,-20.3622,175,75
2026-05-11 17:56:57.240,2,-1.54,-1.91,-2.0,-100.4804,-103.18039999999999,-14.2022,175,75
2026-05-11 17:56:57.240,2,-1.63,-1.49,-1.84,-44.010400000000004,35.4796,14.637799999999999,175,75
2026-05-11 17:56:57.240,2,-1.53,-1.1,-1.56,5.249599999999999,171.2096,44.9978,175,75
2026-05-11 17:56:57.250,2,-1.37,-0.93,-1.28,2.0196000000000005,237.4296,48.2378,175,75
2026-05-11 17:56:57.261,2,-0.89,-0.65,-0.78,-35.0504,301.32959999999997,51.09780000000001,175,75
2026-05-11 17:56:57.261,2,-0.66,-0.31,-0.54,-56.2704,317.2496,55.547799999999995,175,75
2026-05-11 17:56:57.287,2,-0.57,0.0,-0.37,-55.540400000000005,318.4096,57.62779999999999,175,75
2026-05-11 17:56:57.309,2,-0.51,0.27,-0.26,-43.7104,329.1396,59.577799999999996,175,75
2026-05-11 17:56:57.309,2,-0.6,0.55,-0.11,-26.3904,343.8896,66.8878,175,75
2026-05-11 17:56:57.309,2,-0.61,0.8,0.02,-20.1104,383.0396,51.157799999999995,175,75
2026-05-11 17:56:57.319,2,-0.59,0.83,0.11,-15.900400000000001,419.4996,46.8278,175,75
2026-05-11 17:56:57.322,2,-0.78,0.21,0.34,-24.1404,416.8796,31.0978,175,75
2026-05-11 17:56:57.333,2,-0.85,0.01,0.41,-23.470399999999998,389.9896,25.977800000000002,175,75
2026-05-11 17:56:57.349,2,-0.74,-0.19,0.51,-6.760400000000001,327.5496,40.4278,175,75
2026-05-11 17:56:57.380,2,-0.6,-0.23,0.58,18.489600000000003,195.1696,55.6078,175,75
2026-05-11 17:56:57.392,2,-0.49,-0.23,0.6,24.949599999999997,141.3896,54.7578,175,75
2026-05-11 17:56:57.406,2,-0.39,-0.16,0.59,31.169599999999996,76.1496,54.0878,175,75
2026-05-11 17:56:57.415,2,-0.31,-0.04,0.52,35.379599999999996,8.649600000000001,52.7478,175,75
2026-05-11 17:56:57.429,2,-0.22,0.11,0.43,35.559599999999996,-81.6604,46.8278,175,75
2026-05-11 17:56:57.436,2,-0.23,0.2,0.27,32.3896,-154.34040000000002,45.7978,175,75
2026-05-11 17:56:57.447,2,-0.13,0.12,0.06,18.7896,-223.3004,33.6578,175,75
2026-05-11 17:56:57.459,2,-0.14,-0.12,-0.08,4.2196,-253.8504,30.187800000000003,175,75
2026-05-11 17:56:57.473,2,-0.27,-0.56,-0.27,-5.840400000000001,-259.3404,26.0978,175,75
2026-05-11 17:56:57.499,2,-0.48,-1.1,-0.5,-5.2304,-248.4204,27.687800000000003,175,75
2026-05-11 17:56:57.508,2,-0.67,-1.79,-0.83,-3.1004000000000005,-258.1804,36.1578,175,75
2026-05-11 17:56:57.508,2,-0.89,-2.37,-1.08,-14.0104,-253.24040000000002,41.2178,175,75
2026-05-11 17:56:57.521,2,-1.02,-2.67,-1.22,-22.0604,-222.4504,37.8078,175,75
2026-05-11 17:56:57.532,2,-1.14,-2.57,-1.42,-7.0604,-160.1904,20.427799999999998,175,75
2026-05-11 17:56:57.543,2,-0.96,-1.75,-1.35,59.8296,-94.40039999999999,-6.9521999999999995,175,75
2026-05-11 17:56:57.559,2,-0.63,-1.37,-0.99,113.4896,-24.830399999999997,36.0378,175,75
2026-05-11 17:56:57.559,2,-0.57,-1.57,-0.69,113.0596,26.449599999999997,95.9778,175,75
2026-05-11 17:56:57.572,2,-0.59,-1.75,-0.48,101.8396,42.2496,88.6578,175,75
2026-05-11 17:56:57.582,2,-0.57,-1.52,-0.24,103.7296,36.9996,68.4178,175,75
2026-05-11 17:56:57.621,2,-0.16,-0.89,0.03,150.0696,7.7996,68.7778,175,75
2026-05-11 17:56:57.621,2,-0.21,-0.72,0.04,164.7096,-4.400399999999999,72.9278,175,75
2026-05-11 17:56:57.645,2,-0.35,-0.06,-0.54,89.0996,-170.5004,11.337800000000001,175,75
2026-05-11 17:56:57.676,2,-0.42,0.41,-0.73,54.8296,-179.6404,1.4078,175,75
2026-05-11 17:56:57.686,2,-0.42,0.99,-0.95,10.0096,-142.4504,-7.7421999999999995,175,75
2026-05-11 17:56:57.698,2,-0.3,1.42,-1.08,-14.9304,-77.87039999999999,-8.3522,175,75
2026-05-11 17:56:57.698,2,-0.25,1.47,-1.1,-49.5604,39.0796,-9.0822,175,75
2026-05-11 17:56:57.708,2,-0.25,1.16,-0.99,-61.330400000000004,82.3696,-9.6922,175,75
2026-05-11 17:56:57.719,2,-0.36,0.81,-0.91,-78.1604,96.51960000000001,-13.0522,175,75
2026-05-11 17:56:57.727,2,-0.56,0.54,-0.92,-107.3104,79.98960000000001,-14.8722,175,75
2026-05-11 17:56:57.743,2,-0.72,0.29,-0.97,-123.5304,107.8596,-10.3622,175,75
2026-05-11 17:56:57.754,2,-0.82,0.04,-0.98,-118.0404,159.43959999999998,-2.6822,175,75
2026-05-11 17:56:57.770,2,-0.96,-0.25,-0.94,-105.4804,224.8096,7.197800000000001,175,75
2026-05-11 17:56:57.782,2,-1.06,-0.54,-0.88,-99.2004,265.2296,16.6478,175,75
2026-05-11 17:56:57.797,2,-1.29,-1.8,-0.78,-102.1804,292.4296,46.3378,175,75
2026-05-11 17:56:57.808,2,-1.37,-2.41,-0.82,-105.7804,273.4696,61.4678,175,75
2026-05-11 17:56:57.833,2,-1.49,-1.98,-1.0,-37.0604,250.0496,48.4178,175,75
2026-05-11 17:56:57.833,2,-1.09,-1.03,-0.76,33.5496,251.75959999999998,38.7178,175,75
2026-05-11 17:56:57.847,2,-0.69,-0.65,-0.46,34.9496,257.6096,97.6278,175,75
2026-05-11 17:56:57.857,2,-0.71,-0.83,-0.43,-11.0904,238.21959999999999,154.87779999999998,175,75
2026-05-11 17:56:57.870,2,-0.82,-1.45,-0.39,-54.9904,215.4796,171.70780000000002,175,75
2026-05-11 17:56:57.882,2,-0.78,-1.99,-0.29,-61.3904,208.2796,163.4778,175,75
2026-05-11 17:56:57.903,2,-0.43,-2.12,0.07,40.2496,171.87959999999998,89.8778,175,75
2026-05-11 17:56:57.937,2,-0.53,-0.82,-0.05,48.9696,-9.7004,86.5878,175,75
2026-05-11 17:56:57.952,2,-0.54,-0.69,-0.14,14.399600000000001,-24.7604,94.6378,175,75
2026-05-11 17:56:57.957,2,-0.4,-0.69,-0.2,0.06959999999999944,4.5596,102.8678,175,75
2026-05-11 17:56:57.975,2,-0.25,-0.69,-0.22,16.049599999999998,51.7596,105.2478,175,75
2026-05-11 17:56:57.992,2,-0.17,-0.62,-0.18,41.8396,103.5896,106.2178,175,75
2026-05-11 17:56:58.002,2,-0.16,-0.5,-0.13,55.379599999999996,142.3696,106.0978,175,75
2026-05-11 17:56:58.013,2,-0.14,-0.31,-0.01,59.099599999999995,189.9296,103.7178,175,75
2026-05-11 17:56:58.013,2,-0.13,-0.18,0.09,51.8996,213.2796,101.2178,175,75
2026-05-11 17:56:58.040,2,-0.12,-0.08,0.21,38.5496,226.2696,96.8878,175,75
2026-05-11 17:56:58.040,2,-0.07,-0.01,0.37,22.5096,221.0896,90.1878,175,75
2026-05-11 17:56:58.050,2,-0.02,-0.01,0.49,12.629599999999998,197.8596,82.8078,175,75
2026-05-11 17:56:58.065,2,0.08,-0.03,0.63,1.4095999999999993,137.7996,68.9078,175,75
2026-05-11 17:56:58.075,2,0.11,0.01,0.67,-3.6504000000000003,74.1396,58.907799999999995,175,75
2026-05-11 17:56:58.085,2,0.07,0.08,0.6,-3.5904,23.6496,50.0578,175,75
2026-05-11 17:56:58.101,2,0.04,0.13,0.48,-1.9404000000000003,0.4795999999999996,40.6078,175,75
2026-05-11 17:56:58.111,2,0.03,0.18,0.36,-2.0604000000000005,0.29959999999999987,34.8178,175,75
2026-05-11 17:56:58.111,2,0.03,0.22,0.3,-3.8304,12.429599999999999,29.5178,175,75
2026-05-11 17:56:58.125,2,0.06,0.28,0.24,-6.2104,30.5396,26.3378,175,75
2026-05-11 17:56:58.128,2,0.13,0.33,0.23,-8.2204,48.3396,24.0278,175,75
2026-05-11 17:56:58.150,2,0.19,0.34,0.26,-9.6204,55.71959999999999,21.3378,175,75
2026-05-11 17:56:58.150,2,0.26,0.23,0.37,-10.6004,52.5496,12.747800000000002,175,75
2026-05-11 17:56:58.176,2,0.31,0.01,0.48,-9.6804,37.4296,0.5478000000000005,175,75
2026-05-11 17:56:58.176,2,0.35,-0.27,0.45,-5.7804,-22.6304,-14.0822,175,75
2026-05-11 17:56:58.196,2,0.13,-1.05,-0.01,-15.840399999999999,-239.46040000000002,-50.9722,175,75
2026-05-11 17:56:58.221,2,-0.09,-1.8,-0.45,-9.3204,-312.0804,-68.4122,175,75
2026-05-11 17:56:58.221,2,-0.32,-2.5,-0.94,-13.590399999999999,-344.1604,-61.5222,175,75
2026-05-11 17:56:58.231,2,-0.68,-3.11,-1.52,-34.5604,-347.0804,-54.9422,175,75
2026-05-11 17:56:58.251,2,-1.18,-2.92,-2.07,-40.4804,-267.2704,-74.6322,175,75
2026-05-11 17:56:58.251,2,-1.0,-1.64,-2.63,23.299599999999998,-129.7704,-105.9722,175,75
2026-05-11 17:56:58.274,2,-0.36,-0.91,-2.21,101.7796,35.2996,-38.5322,175,75
2026-05-11 17:56:58.277,2,-0.7,-1.71,-1.71,35.0096,174.25959999999998,-12.1922,175,75
2026-05-11 17:56:58.306,2,-0.87,-2.17,-1.46,-27.550400000000003,206.0296,-9.5122,175,75
2026-05-11 17:56:58.306,2,-0.88,-2.09,-1.13,-19.6804,179.1996,-20.9722,175,75
2026-05-11 17:56:58.306,2,-0.77,-1.76,-0.86,12.9996,132.0596,-35.182199999999995,175,75
2026-05-11 17:56:58.322,2,-0.65,-1.46,-0.68,27.9396,70.4796,-35.5522,175,75
2026-05-11 17:56:58.356,2,-0.64,-1.24,-0.58,14.579600000000001,26.209600000000002,-25.9122,175,75
2026-05-11 17:56:58.356,2,-0.65,-1.08,-0.61,-6.8204,9.629600000000002,-19.0822,175,75
2026-05-11 17:56:58.368,2,-0.64,-0.98,-0.67,-20.1704,6.4495999999999984,-12.982199999999999,175,75
2026-05-11 17:56:58.368,2,-0.58,-0.88,-0.69,-18.8304,25.909599999999998,-6.0922,175,75
2026-05-11 17:56:58.379,2,-0.56,-0.8,-0.68,-9.3804,57.3696,-1.5221999999999998,175,75
2026-05-11 17:56:58.422,2,-0.47,-0.41,-0.4,11.7796,141.93959999999998,-5.4822,175,75
2026-05-11 17:56:58.439,2,-0.35,0.37,-0.05,18.1796,164.9296,-19.7522,175,75
2026-05-11 17:56:58.449,2,-0.34,0.65,0.07,15.129599999999998,156.0296,-25.9122,175,75
2026-05-11 17:56:58.449,2,-0.35,0.8,0.14,9.519599999999999,140.1096,-31.2222,175,75
2026-05-11 17:56:58.468,2,-0.36,0.73,0.23,15.739600000000001,119.7496,-32.7422,175,75
2026-05-11 17:56:58.488,2,-0.45,0.32,0.12,12.3896,82.8596,-32.8622,175,75
2026-05-11 17:56:58.488,2,-0.49,0.13,0.02,13.9096,74.4996,-33.2322,175,75
2026-05-11 17:56:58.499,2,-0.52,0.01,-0.08,18.549599999999998,84.31960000000001,-31.0922,175,75
2026-05-11 17:56:58.540,2,-0.6,-0.1,-0.19,25.4996,110.2296,-26.4622,175,75
2026-05-11 17:56:58.540,2,-0.67,-0.15,-0.29,34.709599999999995,149.7496,-19.3322,175,75
2026-05-11 17:56:58.552,2,-0.8,-0.13,-0.38,42.4496,197.9796,-8.412199999999999,175,75
2026-05-11 17:56:58.552,2,-0.88,-0.09,-0.45,46.4096,238.09959999999998,5.797799999999999,175,75
2026-05-11 17:56:58.563,2,-0.87,-0.08,-0.4,45.9296,278.70959999999997,20.977800000000002,175,75
2026-05-11 17:56:58.563,2,-0.71,-0.11,-0.19,36.7196,315.3596,32.1978,175,75
2026-05-11 17:56:58.608,2,-0.54,-0.12,0.03,24.279599999999995,313.5296,33.8378,175,75
2026-05-11 17:56:58.608,2,-0.39,-0.08,0.2,11.469600000000002,277.4896,29.6978,175,75
2026-05-11 17:56:58.621,2,-0.26,0.04,0.36,-0.17040000000000077,200.53959999999998,21.7678,175,75
2026-05-11 17:56:58.632,2,-0.12,0.11,0.47,-9.990400000000001,111.87960000000001,16.8878,175,75
2026-05-11 17:56:58.632,2,0.0,0.02,0.57,-30.1104,-1.2904,10.1878,175,75
2026-05-11 17:56:58.645,2,0.07,-0.24,0.55,-51.150400000000005,-104.2204,0.12780000000000058,175,75
2026-05-11 17:56:58.674,2,-0.65,-1.18,-0.44,-44.3804,-402.3304,-3.5922,175,75
2026-05-11 17:56:58.689,2,-0.94,-1.44,-0.86,-46.760400000000004,-429.7704,11.587800000000001,175,75
2026-05-11 17:56:58.689,2,-0.93,-1.75,-1.2,-64.0104,-403.1804,31.3378,175,75
2026-05-11 17:56:58.700,2,-0.91,-2.03,-1.57,-86.1504,-279.5804,39.0878,175,75
2026-05-11 17:56:58.710,2,-0.89,-1.73,-1.76,-52.1804,-78.73039999999999,41.1578,175,75
2026-05-11 17:56:58.713,2,-0.68,-1.42,-1.34,19.099600000000002,95.53960000000001,63.7778,175,75
2026-05-11 17:56:58.724,2,-0.7,-1.54,-0.95,33.239599999999996,164.7496,87.7478,175,75
2026-05-11 17:56:58.735,2,-0.7,-1.71,-0.73,17.3296,174.5596,98.0478,175,75
2026-05-11 17:56:58.750,2,-0.56,-1.52,-0.41,-3.6504000000000003,124.25959999999999,80.5478,175,75
2026-05-11 17:56:58.762,2,-0.41,-1.09,-0.28,16.839599999999997,98.8896,79.5778,175,75
2026-05-11 17:56:58.767,2,-0.37,-0.74,-0.24,37.0196,101.6996,85.1278,175,75
2026-05-11 17:56:58.780,2,-0.32,-0.36,-0.23,46.169599999999996,104.37960000000001,83.7778,175,75
2026-05-11 17:56:58.793,2,-0.27,-0.02,-0.24,43.2996,103.5896,79.4478,175,75
2026-05-11 17:56:58.805,2,-0.17,0.43,-0.23,34.6396,100.7196,77.0778,175,75
2026-05-11 17:56:58.820,2,-0.09,1.02,-0.22,15.859599999999999,111.4496,72.7478,175,75
2026-05-11 17:56:58.827,2,-0.09,1.43,-0.06,2.749599999999999,152.4896,72.6878,175,75
2026-05-11 17:56:58.839,2,-0.12,1.46,0.02,-24.200400000000002,151.5196,71.0378,175,75
2026-05-11 17:56:58.857,2,-0.06,0.65,0.14,-54.3204,95.3596,58.537800000000004,175,75
2026-05-11 17:56:58.880,2,-0.21,-0.03,-0.07,-88.5904,-50.9804,16.5278,175,75
2026-05-11 17:56:58.884,2,-0.54,-0.21,-0.47,-82.8604,-78.12039999999999,16.3378,175,75
2026-05-11 17:56:58.899,2,-0.7,-0.48,-0.76,-77.0004,-54.9504,28.2378,175,75
2026-05-11 17:56:58.915,2,-0.75,-0.88,-0.93,-79.5604,4.259600000000001,43.1678,175,75
2026-05-11 17:56:58.915,2,-0.88,-1.35,-1.01,-82.2504,97.2496,63.047799999999995,175,75
2026-05-11 17:56:58.941,2,-1.12,-3.11,-1.4,-49.9304,269.9296,131.2178,175,75
2026-05-11 17:56:58.960,2,-0.99,-0.95,-0.61,107.9396,306.57959999999997,45.1278,175,75
2026-05-11 17:56:58.973,2,0.14,-0.58,-0.32,126.1096,279.3796,98.8378,175,75
2026-05-11 17:56:58.988,2,-0.2,-1.65,-0.16,-63.1004,125.7196,117.8078,175,75
2026-05-11 17:56:59.008,2,-0.22,-2.41,-0.29,-140.4204,58.5896,79.7578,175,75
2026-05-11 17:56:59.020,2,-0.23,-2.25,-0.5,-117.7904,-20.6804,31.5278,175,75
2026-05-11 17:56:59.042,2,-0.22,-1.7,-0.45,-46.510400000000004,-36.0504,8.4178,175,75
2026-05-11 17:56:59.042,2,-0.08,-1.14,-0.28,14.769599999999999,-25.5004,24.147800000000004,175,75
2026-05-11 17:56:59.054,2,-0.2,-0.68,-0.27,10.1896,-17.0204,47.8078,175,75
2026-05-11 17:56:59.064,2,-0.2,-0.5,-0.36,-12.490400000000001,-12.1404,51.4678,175,75
2026-05-11 17:56:59.067,2,-0.16,-0.43,-0.47,-10.1704,18.949599999999997,58.7778,175,75
2026-05-11 17:56:59.078,2,-0.14,-0.41,-0.57,19.8296,77.8596,68.5378,175,75
2026-05-11 17:56:59.096,2,-0.15,-0.48,-0.6,58.9696,176.1496,73.23780000000001,175,75
2026-05-11 17:56:59.129,2,-0.18,-0.5,-0.55,65.00959999999999,258.64959999999996,70.1878,175,75
2026-05-11 17:56:59.139,2,-0.21,-0.42,-0.45,52.8196,334.4396,66.3378,175,75
2026-05-11 17:56:59.139,2,-0.27,-0.26,-0.28,34.3396,407.8596,62.2578,175,75
2026-05-11 17:56:59.151,2,-0.3,-0.13,-0.08,22.3296,463.0996,58.4178,175,75
2026-05-11 17:56:59.151,2,-0.29,0.01,0.16,11.4096,495.8396,54.0878,175,75
2026-05-11 17:56:59.162,2,-0.26,0.15,0.42,0.9296000000000006,499.3796,45.1278,175,75
2026-05-11 17:56:59.162,2,-0.19,0.25,0.65,-6.760400000000001,467.2496,36.0978,175,75
2026-05-11 17:56:59.173,2,-0.1,0.28,0.82,-9.6204,395.4196,27.497799999999998,175,75
2026-05-11 17:56:59.197,2,0.04,0.22,0.94,-15.1104,214.68959999999998,10.1878,175,75
2026-05-11 17:56:59.242,2,0.47,0.08,0.58,-31.5704,-32.6304,-54.9422,175,75
2026-05-11 17:56:59.242,2,0.51,0.05,0.45,-33.3404,-80.2504,-71.2222,175,75
2026-05-11 17:56:59.265,2,0.6,-0.02,0.23,-31.8804,-143.12040000000002,-90.7922,175,75
2026-05-11 17:56:59.265,2,0.58,-0.23,-0.04,-29.1404,-185.2504,-110.7922,175,75
2026-05-11 17:56:59.275,2,0.43,-0.48,-0.39,-26.760399999999997,-206.84040000000002,-121.9522,175,75
2026-05-11 17:56:59.313,2,-0.09,-1.35,-1.22,-44.5004,-227.5104,-120.0022,175,75
2026-05-11 17:56:59.330,2,-0.17,-2.13,-1.61,-76.5704,-185.2504,-103.9622,175,75
2026-05-11 17:56:59.343,2,-0.24,-2.5,-1.86,-82.6104,-115.68039999999999,-100.4222,175,75
2026-05-11 17:56:59.343,2,-0.25,-2.23,-1.99,-42.4304,-18.970399999999998,-105.4822,175,75
2026-05-11 17:56:59.354,2,-0.0,-1.39,-1.69,18.669600000000003,60.5396,-96.7022,175,75
2026-05-11 17:56:59.354,2,0.26,-0.85,-1.34,22.8196,62.549600000000005,-78.5922,175,75
2026-05-11 17:56:59.384,2,0.18,-0.84,-0.96,-84.7504,-7.8104,-75.12219999999999,175,75
2026-05-11 17:56:59.384,2,0.0,-1.26,-1.08,-128.8304,-7.0804,-71.4622,175,75
2026-05-11 17:56:59.396,2,-0.07,-1.4,-1.31,-102.7904,8.039600000000002,-69.81219999999999,175,75
2026-05-11 17:56:59.396,2,-0.15,-1.16,-1.31,-31.090400000000002,83.5896,-56.2822,175,75
2026-05-11 17:56:59.407,2,-0.17,-0.88,-1.1,5.1896,165.96959999999999,-38.4122,175,75
2026-05-11 17:56:59.423,2,-0.22,-0.68,-0.88,14.039599999999998,223.09959999999998,-25.1822,175,75
2026-05-11 17:56:59.426,2,-0.21,-0.61,-0.72,19.279600000000002,239.9896,-20.8522,175,75
2026-05-11 17:56:59.435,2,-0.2,-0.55,-0.61,32.5096,251.57959999999997,-10.4222,175,75
2026-05-11 17:56:59.448,2,-0.23,-0.5,-0.46,47.6896,253.88959999999997,-3.8422,175,75
2026-05-11 17:56:59.459,2,-0.19,-0.41,-0.32,45.2496,252.6096,-5.792199999999999,175,75
2026-05-11 17:56:59.468,2,-0.13,-0.27,-0.2,36.5396,246.38959999999997,-9.2622,175,75
2026-05-11 17:56:59.483,2,-0.06,-0.01,-0.04,27.9396,236.0896,-14.9422,175,75
2026-05-11 17:56:59.536,2,-0.21,0.51,0.06,39.1596,98.4696,-35.5522,175,75
2026-05-11 17:56:59.546,2,-0.27,0.26,-0.06,33.7896,95.29960000000001,-34.5122,175,75
2026-05-11 17:56:59.560,2,-0.33,0.07,-0.14,37.7496,112.3696,-33.7222,175,75
2026-05-11 17:56:59.573,2,-0.33,-0.04,-0.16,46.2896,133.15959999999998,-29.2022,175,75
2026-05-11 17:56:59.573,2,-0.3,-0.17,-0.11,54.1596,147.2496,-23.7822,175,75
2026-05-11 17:56:59.583,2,-0.28,-0.27,-0.09,57.2696,145.71959999999999,-19.022199999999998,175,75
2026-05-11 17:56:59.593,2,-0.27,-0.38,-0.03,59.39959999999999,132.7396,-16.4022,175,75
2026-05-11 17:56:59.604,2,-0.21,-0.33,-0.03,61.53959999999999,113.9496,-14.9422,175,75
2026-05-11 17:56:59.650,2,-0.06,-0.08,-0.13,49.459599999999995,42.3696,-17.7422,175,75
2026-05-11 17:56:59.656,2,0.13,-0.09,-0.18,11.899600000000001,-5.7404,-33.6622,175,75
2026-05-11 17:56:59.662,2,0.26,0.02,-0.19,-5.5404,-40.7404,-43.352199999999996,175,75
2026-05-11 17:56:59.672,2,0.34,0.18,-0.19,-26.090400000000002,-95.68039999999999,-54.0222,175,75
2026-05-11 17:56:59.689,2,0.36,0.26,-0.2,-50.6604,-128.8504,-57.5622,175,75
2026-05-11 17:56:59.694,2,0.39,0.16,-0.24,-78.2204,-152.5104,-63.352199999999996,175,75
2026-05-11 17:56:59.724,2,0.31,-0.42,-0.43,-99.0104,-198.12040000000002,-73.4122,175,75
2026-05-11 17:56:59.736,2,0.22,-0.58,-0.56,-95.2904,-213.18040000000002,-65.8522,175,75
2026-05-11 17:56:59.739,2,0.18,-0.76,-0.74,-92.1804,-215.37040000000002,-49.2622,175,75
2026-05-11 17:56:59.763,2,0.26,-0.89,-0.97,-70.2904,-82.1404,-13.7822,175,75
2026-05-11 17:56:59.776,2,0.25,-0.83,-0.98,-43.1604,14.379600000000002,0.3678000000000008,175,75
2026-05-11 17:56:59.794,2,0.2,-0.89,-0.86,-19.3804,100.2296,15.1878,175,75
2026-05-11 17:56:59.805,2,0.08,-1.03,-0.68,-11.0304,162.18959999999998,28.1678,175,75
2026-05-11 17:56:59.816,2,-0.02,-1.17,-0.52,-12.7304,195.7796,39.147800000000004,175,75
2026-05-11 17:56:59.816,2,-0.08,-1.27,-0.34,-17.9804,209.37959999999998,59.0278,175,75
2026-05-11 17:56:59.827,2,-0.1,-1.19,-0.19,-18.400399999999998,201.3296,72.98780000000001,175,75
2026-05-11 17:56:59.843,2,-0.04,-0.89,0.02,-14.2604,189.1996,85.7978,175,75
2026-05-11 17:56:59.853,2,0.01,-0.6,0.15,-12.000399999999999,177.6696,94.5178,175,75
2026-05-11 17:56:59.864,2,0.08,-0.22,0.3,-11.0904,144.1996,99.0278,175,75
2026-05-11 17:56:59.864,2,0.12,0.02,0.43,-10.7804,107.48960000000001,93.9078,175,75
2026-05-11 17:56:59.879,2,0.16,0.25,0.53,-14.0704,56.029599999999995,81.4078,175,75
2026-05-11 17:56:59.895,2,0.15,0.5,0.6,-23.1004,-4.8304,50.3078,175,75
2026-05-11 17:56:59.904,2,0.04,0.61,0.56,-34.1404,-48.0004,26.0978,175,75
2026-05-11 17:56:59.913,2,-0.07,0.5,0.48,-50.1704,-88.18039999999999,5.4878,175,75
2026-05-11 17:56:59.927,2,0.02,0.43,0.27,-48.7704,-125.9204,-5.062199999999999,175,75
2026-05-11 17:56:59.943,2,-0.02,0.44,0.18,-40.2904,-134.0904,-4.9422,175,75
2026-05-11 17:56:59.947,2,-0.04,0.41,0.03,-36.2104,-115.4404,-5.9121999999999995,175,75
2026-05-11 17:56:59.960,2,-0.04,0.37,-0.1,-41.0304,-82.51039999999999,-4.9422,175,75
2026-05-11 17:56:59.965,2,0.19,0.14,-0.21,-37.0604,-62.080400000000004,-7.9822,175,75
2026-05-11 17:56:59.978,2,0.38,-0.07,-0.23,-24.3204,-59.8904,-14.572199999999999,175,75
2026-05-11 17:56:59.987,2,0.49,-0.29,-0.25,-7.1204,-57.8104,-22.6822,175,75
2026-05-11 17:57:00.010,2,0.57,-0.45,-0.36,-0.9703999999999997,-80.01039999999999,-33.5922,175,75
2026-05-11 17:57:00.039,2,0.41,-1.08,-1.03,6.659599999999999,-132.5104,-40.3622,175,75
2026-05-11 17:57:00.050,2,0.35,-1.2,-1.36,15.0096,-72.9404,-26.4622,175,75
2026-05-11 17:57:00.054,2,0.4,-1.04,-1.45,21.8996,19.809600000000003,-19.1422,175,75
2026-05-11 17:57:00.070,2,0.39,-0.7,-1.25,24.769599999999997,182.2496,-4.5122,175,75
2026-05-11 17:57:00.076,2,0.2,-0.83,-0.87,21.839599999999997,302.5496,14.517800000000001,175,75
2026-05-11 17:57:00.100,2,0.01,-1.2,-0.53,26.779599999999995,359.3196,39.2678,175,75
2026-05-11 17:57:00.111,2,-0.08,-1.55,-0.22,41.6596,363.3396,66.8278,175,75
2026-05-11 17:57:00.116,2,-0.09,-1.69,0.09,67.9996,322.0596,87.3178,175,75
2026-05-11 17:57:00.142,2,0.28,-1.04,0.4,86.89959999999999,186.6996,97.8678,175,75
2026-05-11 17:57:00.163,2,0.27,-0.78,0.14,83.5496,95.1096,107.3778,175,75
2026-05-11 17:57:00.172,2,0.27,-0.75,-0.03,82.50959999999999,96.1496,98.4178,175,75
2026-05-11 17:57:00.183,2,0.22,-0.61,-0.21,72.0796,125.7196,92.8678,175,75
2026-05-11 17:57:00.199,2,0.26,-0.37,-0.34,46.4096,156.2696,86.2778,175,75
2026-05-11 17:57:00.204,2,0.26,-0.16,-0.35,20.0696,193.09959999999998,85.9778,175,75
2026-05-11 17:57:00.266,2,0.23,0.19,0.17,-38.6504,344.01959999999997,66.4678,175,75
2026-05-11 17:57:00.330,2,0.21,0.3,0.53,-26.6404,303.9496,48.9078,175,75
2026-05-11 17:57:00.330,2,0.23,0.37,0.71,-17.790399999999998,224.5596,37.0778,175,75
2026-05-11 17:57:00.335,2,0.21,0.39,0.78,-16.1504,154.0196,25.977800000000002,175,75
2026-05-11 17:57:00.349,2,0.21,0.39,0.7,-26.8804,19.019599999999997,-3.722199999999999,175,75
2026-05-11 17:57:00.371,2,0.08,0.34,0.33,-13.650400000000001,-9.1604,-37.072199999999995,175,75
2026-05-11 17:57:00.378,2,0.06,0.33,0.32,-5.3604,7.489600000000001,-42.682199999999995,175,75
2026-05-11 17:57:00.390,2,0.08,0.21,0.42,12.1396,18.8896,-49.1422,175,75
2026-05-11 17:57:00.390,2,0.09,0.16,0.5,19.339599999999997,9.019599999999999,-52.0122,175,75
2026-05-11 17:57:00.414,2,0.21,-0.12,0.56,30.2496,-38.2404,-57.0122,175,75
2026-05-11 17:57:00.417,2,0.19,-0.55,0.51,37.209599999999995,-70.7404,-60.4822,175,75
2026-05-11 17:57:00.474,2,-0.15,-2.41,-0.13,65.00959999999999,-169.6404,-44.572199999999995,175,75
2026-05-11 17:57:00.484,2,-0.04,-1.97,-0.16,64.0996,-135.0704,-42.312200000000004,175,75
2026-05-11 17:57:00.497,2,0.18,-1.55,-0.04,41.1096,-98.48039999999999,-9.9422,175,75
2026-05-11 17:57:00.504,2,0.23,-1.59,-0.02,9.2796,-69.2204,16.3378,175,75
2026-05-11 17:57:00.536,2,0.34,-1.64,0.0,-13.2804,-53.2404,25.7378,175,75
2026-05-11 17:57:00.569,2,0.46,-1.39,0.04,-16.7604,-51.7804,33.3578,175,75
2026-05-11 17:57:00.569,2,0.51,-1.18,0.09,-13.590399999999999,-51.1104,40.4878,175,75
2026-05-11 17:57:00.580,2,0.56,-1.04,0.14,-12.9204,-47.330400000000004,42.1378,175,75
2026-05-11 17:57:00.592,2,0.54,-0.94,0.18,-31.6404,-68.79039999999999,34.9378,175,75
2026-05-11 17:57:00.605,2,0.54,-0.9,0.18,-41.8804,-90.7404,25.9178,175,75
2026-05-11 17:57:00.605,2,0.52,-0.74,0.16,-45.9604,-111.7204,17.6878,175,75
2026-05-11 17:57:00.616,2,0.46,-0.31,0.06,-34.0704,-101.4104,0.7378,175,75
2026-05-11 17:57:00.631,2,0.33,-0.04,-0.05,-24.6804,-68.7304,-6.462199999999999,175,75
2026-05-11 17:57:00.653,2,0.1,-0.0,-0.22,-17.5504,23.589599999999997,-8.9622,175,75
2026-05-11 17:57:00.667,2,0.08,-0.19,-0.28,-21.700400000000002,79.1396,-5.9722,175,75
2026-05-11 17:57:00.680,2,0.02,0.18,-0.14,0.18960000000000043,205.1096,11.2778,175,75
2026-05-11 17:57:00.695,2,-0.02,0.31,0.02,2.8796,257.5496,17.4378,175,75
2026-05-11 17:57:00.707,2,-0.03,0.36,0.22,0.7995999999999999,287.6096,14.517800000000001,175,75
2026-05-11 17:57:00.720,2,0.03,0.31,0.54,-5.1704,280.9696,3.777799999999999,175,75
2026-05-11 17:57:00.742,2,0.18,0.28,0.94,-9.990400000000001,92.9196,-30.6122,175,75
2026-05-11 17:57:00.754,2,0.22,0.33,0.94,-14.6204,-37.7504,-50.1222,175,75
2026-05-11 17:57:00.754,2,0.22,0.34,0.81,-21.5104,-116.1104,-64.81219999999999,175,75
2026-05-11 17:57:00.774,2,0.19,0.33,0.59,-29.3804,-167.4504,-75.9722,175,75
2026-05-11 17:57:00.774,2,0.15,0.25,0.43,-35.2304,-186.1704,-82.5622,175,75
2026-05-11 17:57:00.797,2,0.15,0.02,0.32,-42.3104,-181.1704,-87.3722,175,75
2026-05-11 17:57:00.797,2,0.22,-0.36,0.28,-51.4504,-167.5104,-92.3122,175,75
2026-05-11 17:57:00.810,2,0.24,-0.83,0.26,-60.4804,-178.4804,-100.7922,175,75
2026-05-11 17:57:00.825,2,0.19,-1.22,0.16,-63.4604,-204.7604,-102.6222,175,75
2026-05-11 17:57:00.840,2,0.05,-1.45,-0.03,-60.290400000000005,-223.12040000000002,-92.5622,175,75
2026-05-11 17:57:00.851,2,0.02,-1.45,-0.31,-54.8104,-206.7204,-77.8622,175,75
2026-05-11 17:57:00.870,2,0.01,-1.13,-0.57,-39.6804,-123.9704,-58.7222,175,75
2026-05-11 17:57:00.886,2,-0.11,-1.23,-0.46,-12.8604,173.8296,1.527800000000001,175,75
2026-05-11 17:57:00.899,2,-0.24,-1.67,-0.32,-17.0004,258.64959999999996,18.4178,175,75
2026-05-11 17:57:00.927,2,-0.21,-1.93,-0.18,-4.3804,282.3096,35.8578,175,75
2026-05-11 17:57:00.942,2,-0.17,-1.7,-0.02,21.5396,266.4496,47.4378,175,75
2026-05-11 17:57:00.949,2,-0.08,-1.25,0.12,36.6596,252.6096,57.7478,175,75
2026-05-11 17:57:00.960,2,0.04,-0.86,0.26,31.7196,244.5596,73.4778,175,75
2026-05-11 17:57:00.972,2,0.09,-0.6,0.38,14.219600000000002,227.4296,76.7678,175,75
2026-05-11 17:57:00.984,2,0.1,-0.47,0.54,10.379599999999998,205.65959999999998,63.23780000000001,175,75
2026-05-11 17:57:00.984,2,0.12,-0.29,0.64,19.2196,172.12959999999998,46.3378,175,75
2026-05-11 17:57:00.997,2,0.17,0.01,0.68,40.0696,104.8096,25.9178,175,75
2026-05-11 17:57:01.008,2,-0.08,0.67,0.48,81.3496,-32.1404,-5.062199999999999,175,75
2026-05-11 17:57:01.021,2,-0.14,0.86,0.41,80.2496,-60.8004,-10.9122,175,75
2026-05-11 17:57:01.037,2,-0.12,0.88,0.35,59.8296,-82.6904,-15.9122,175,75
2026-05-11 17:57:01.051,2,-0.04,0.82,0.35,44.7696,-89.70039999999999,-22.8022,175,75
2026-05-11 17:57:01.051,2,0.07,0.5,0.26,34.5796,-89.2204,-29.9422,175,75
2026-05-11 17:57:01.068,2,0.09,0.33,0.2,34.6396,-77.3904,-35.5522,175,75
2026-05-11 17:57:01.074,2,0.07,0.23,0.11,38.1196,-60.8004,-38.2922,175,75
2026-05-11 17:57:01.083,2,0.03,0.17,0.05,39.7696,-45.8604,-34.1422,175,75
2026-05-11 17:57:01.094,2,0.06,-0.01,0.02,39.9496,-31.590400000000002,-28.9022,175,75
2026-05-11 17:57:01.105,2,0.26,-0.35,0.06,33.1796,-26.3504,-28.8422,175,75
2026-05-11 17:57:01.116,2,0.51,-0.63,0.16,17.9996,-46.6604,-29.4522,175,75
2026-05-11 17:57:01.128,2,0.57,-0.65,0.22,13.429599999999999,-56.1704,-33.7222,175,75
2026-05-11 17:57:01.140,2,0.6,-0.58,0.27,15.2496,-71.1104,-39.452200000000005,175,75
2026-05-11 17:57:01.153,2,0.62,-0.63,0.28,12.079600000000001,-105.98039999999999,-42.9822,175,75
2026-05-11 17:57:01.174,2,0.59,-1.01,0.13,-17.6104,-177.87040000000002,-55.6722,175,75
2026-05-11 17:57:01.184,2,0.54,-1.05,0.01,-32.5504,-188.8504,-54.4522,175,75
2026-05-11 17:57:01.184,2,0.38,-1.05,-0.09,-41.4504,-161.0504,-46.7622,175,75
2026-05-11 17:57:01.210,2,0.25,-1.27,-0.18,-38.1004,-46.8404,-13.6622,175,75
2026-05-11 17:57:01.221,2,0.2,-1.49,-0.08,-29.9904,2.7996,9.5778,175,75
2026-05-11 17:57:01.239,2,0.23,-1.68,0.08,-28.400399999999998,27.309599999999996,30.427799999999998,175,75
2026-05-11 17:57:01.239,2,0.37,-1.58,0.23,-30.1104,15.2296,49.5178,175,75
2026-05-11 17:57:01.279,2,0.65,-0.88,0.19,-32.5504,-80.2504,79.3278,175,75
2026-05-11 17:57:01.286,2,0.6,-0.83,0.08,-37.9204,-72.7504,73.3578,175,75
2026-05-11 17:57:01.299,2,0.43,-0.69,0.02,-36.3304,-30.9204,67.6878,175,75
2026-05-11 17:57:01.319,2,0.21,-0.36,0.11,-27.4304,34.2596,54.0278,175,75
2026-05-11 17:57:01.330,2,0.18,-0.15,0.15,-20.660400000000003,37.2496,48.2378,175,75
2026-05-11 17:57:01.341,2,0.15,0.04,0.18,-14.1404,31.5796,42.1378,175,75
2026-05-11 17:57:01.356,2,0.16,0.2,0.19,-12.5504,13.7096,36.7678,175,75
2026-05-11 17:57:01.371,2,0.18,0.4,0.16,-14.750399999999999,-3.6104000000000003,35.4878,175,75
2026-05-11 17:57:01.390,2,0.21,0.54,0.08,-27.370400000000004,17.489600000000003,30.857799999999997,175,75
2026-05-11 17:57:01.401,2,0.16,0.45,0.11,-35.2304,57.4296,22.8078,175,75
2026-05-11 17:57:01.423,2,0.09,0.27,0.24,-30.1104,92.12960000000001,4.3278,175,75
2026-05-11 17:57:01.444,2,-0.03,0.21,0.42,-14.990400000000001,72.48960000000001,-25.062199999999997,175,75
2026-05-11 17:57:01.480,2,-0.08,0.17,0.46,2.999599999999999,-24.1604,-45.2422,175,75
2026-05-11 17:57:01.491,2,-0.07,0.05,0.38,6.349600000000001,-54.0304,-48.8422,175,75
2026-05-11 17:57:01.509,2,-0.05,-0.08,0.23,7.819599999999999,-68.9104,-48.1122,175,75
2026-05-11 17:57:01.521,2,-0.01,-0.24,0.12,7.079600000000001,-57.690400000000004,-41.6422,175,75
2026-05-11 17:57:01.532,2,0.01,-0.51,0.09,6.719600000000002,-24.700400000000002,-30.1222,175,75
2026-05-11 17:57:01.537,2,0.08,-0.9,0.12,6.9596,6.089600000000001,-24.202199999999998,175,75
2026-05-11 17:57:01.549,2,0.12,-1.34,0.14,13.6696,23.6496,-24.452199999999998,175,75
2026-05-11 17:57:01.567,2,0.14,-1.61,0.11,27.629599999999996,22.6096,-22.9222,175,75
2026-05-11 17:57:01.572,2,0.1,-1.71,0.06,48.7296,8.469600000000002,-19.1422,175,75
2026-05-11 17:57:01.588,2,0.06,-1.5,0.04,62.3896,-0.13039999999999985,-11.5822,175,75
2026-05-11 17:57:01.588,2,0.01,-1.4,0.06,57.7496,-0.6204000000000001,5.187799999999999,175,75
2026-05-11 17:57:01.599,2,0.0,-1.63,0.03,40.7996,-0.8604000000000003,23.537799999999997,175,75
2026-05-11 17:57:01.610,2,0.12,-2.04,-0.04,24.0396,-12.5104,44.6378,175,75
2026-05-11 17:57:01.659,2,0.78,-0.83,0.09,23.4296,55.5996,82.6278,175,75
2026-05-11 17:57:01.665,2,0.71,-0.71,0.17,10.3196,77.42960000000001,75.7978,175,75
2026-05-11 17:57:01.679,2,0.65,-0.65,0.23,-3.5904,79.37960000000001,64.4478,175,75
2026-05-11 17:57:01.687,2,0.67,-0.57,0.24,-14.560400000000001,48.0396,48.4778,175,75
2026-05-11 17:57:01.702,2,0.69,-0.42,0.2,-18.160400000000003,3.589600000000001,34.8178,175,75
2026-05-11 17:57:01.733,2,0.49,-0.61,-0.05,-53.2804,25.659599999999998,22.3178,175,75
2026-05-11 17:57:01.745,2,0.49,-0.5,-0.1,-53.830400000000004,61.8196,22.687800000000003,175,75
2026-05-11 17:57:01.754,2,0.45,-0.16,-0.04,-33.7104,114.2596,32.6278,175,75
2026-05-11 17:57:01.814,2,0.26,0.26,0.19,-27.790399999999998,195.2396,34.9978,175,75
2026-05-11 17:57:01.824,2,0.19,0.23,0.34,-38.4604,215.2996,24.937800000000003,175,75
2026-05-11 17:57:01.824,2,0.15,0.1,0.45,-44.7504,205.1096,14.0278,175,75
2026-05-11 17:57:01.834,2,0.11,0.02,0.55,-47.790400000000005,164.31959999999998,-2.802199999999999,175,75
2026-05-11 17:57:01.834,2,0.05,0.07,0.63,-47.0004,126.0896,-16.0922,175,75
2026-05-11 17:57:01.845,2,0.03,0.14,0.65,-44.1404,96.9396,-25.4822,175,75
2026-05-11 17:57:01.845,2,0.02,0.23,0.66,-37.4304,67.42960000000001,-31.2822,175,75
2026-05-11 17:57:01.863,2,0.03,0.26,0.69,-22.9204,46.3296,-37.922200000000004,175,75
2026-05-11 17:57:01.873,2,0.04,0.22,0.75,-5.0504,24.4996,-48.1122,175,75
2026-05-11 17:57:01.885,2,0.11,0.17,0.8,6.839599999999999,-5.2504,-56.0922,175,75
2026-05-11 17:57:01.898,2,0.29,-0.19,0.67,27.9996,-128.9704,-92.1922,175,75
2026-05-11 17:57:01.909,2,0.32,-0.46,0.45,31.349599999999995,-151.1104,-109.4522,175,75
2026-05-11 17:57:01.922,2,0.34,-0.66,0.25,31.5396,-156.1704,-115.8522,175,75
2026-05-11 17:57:01.936,2,0.35,-0.98,-0.02,36.2296,-147.6304,-113.3522,175,75
2026-05-11 17:57:01.944,2,0.31,-1.43,-0.24,45.4396,-104.6404,-104.26219999999999,175,75
2026-05-11 17:57:01.956,2,0.21,-1.68,-0.4,50.989599999999996,-35.2504,-93.9022,175,75
2026-05-11 17:57:01.979,2,0.15,-1.45,-0.43,81.89959999999999,175.2396,-60.1222,175,75
2026-05-11 17:57:01.989,2,0.1,-1.48,-0.23,81.5396,235.59959999999998,-42.312200000000004,175,75
2026-05-11 17:57:02.003,2,0.02,-1.61,0.02,69.39959999999999,271.26959999999997,-26.8922,175,75
2026-05-11 17:57:02.014,2,-0.04,-1.71,0.26,49.709599999999995,243.3396,-10.5522,175,75
2026-05-11 17:57:02.026,2,-0.01,-1.75,0.41,27.3296,151.1496,-0.9721999999999991,175,75
2026-05-11 17:57:02.040,2,-0.01,-1.55,0.43,4.2796,62.3696,5.9178,175,75
2026-05-11 17:57:02.048,2,0.03,-1.17,0.36,-24.3804,-8.4804,17.4378,175,75
2026-05-11 17:57:02.057,2,0.07,-0.89,0.3,-45.290400000000005,-41.900400000000005,26.217799999999997,175,75
2026-05-11 17:57:02.079,2,0.02,-0.47,0.22,-62.0604,-47.510400000000004,28.8378,175,75
2026-05-11 17:57:02.094,2,-0.02,-0.23,0.23,-55.1104,-40.3104,22.9878,175,75
2026-05-11 17:57:02.109,2,-0.05,0.11,0.2,-40.8404,-44.9504,14.267800000000001,175,75
2026-05-11 17:57:02.116,2,-0.17,0.44,0.11,-26.150399999999998,-47.5704,8.5978,175,75
2026-05-11 17:57:02.123,2,-0.26,0.58,0.04,-20.2304,-34.2204,7.8078,175,75
2026-05-11 17:57:02.140,2,-0.33,0.56,0.02,-24.9304,-11.7204,9.267800000000001,175,75
2026-05-11 17:57:02.150,2,-0.33,0.5,0.05,-30.4204,22.8596,12.8078,175,75
2026-05-11 17:57:02.154,2,-0.3,0.46,0.14,-23.470399999999998,66.6996,18.3578,175,75
2026-05-11 17:57:02.167,2,-0.22,0.46,0.29,-4.5604000000000005,93.5896,18.1678,175,75
2026-05-11 17:57:02.196,2,-0.16,0.5,0.41,6.2896,91.6396,18.2978,175,75
2026-05-11 17:57:02.196,2,-0.14,0.54,0.53,11.899600000000001,71.81960000000001,16.4078,175,75
2026-05-11 17:57:02.207,2,-0.08,0.48,0.63,13.5496,24.019599999999997,8.7778,175,75
2026-05-11 17:57:02.234,2,0.01,0.24,0.71,11.719600000000002,-21.1104,0.5478000000000005,175,75
2026-05-11 17:57:02.234,2,0.19,-0.08,0.73,10.0096,-63.3604,-14.0822,175,75
2026-05-11 17:57:02.243,2,0.43,-0.46,0.75,11.539599999999998,-108.18039999999999,-37.6222,175,75
2026-05-11 17:57:02.271,2,0.67,-0.78,0.75,16.5396,-160.4404,-61.4022,175,75
2026-05-11 17:57:02.283,2,0.65,-0.74,0.56,23.549599999999998,-233.4204,-86.4022,175,75
2026-05-11 17:57:02.296,2,0.47,-1.07,-0.16,-6.0304,-232.3904,-80.8522,175,75
2026-05-11 17:57:02.322,2,0.34,-0.92,-0.33,-17.0604,-153.9104,-60.3622,175,75
2026-05-11 17:57:02.352,2,0.25,-0.95,-0.39,-20.540399999999998,-59.9504,-40.422200000000004,175,75
2026-05-11 17:57:02.352,2,0.19,-1.14,-0.36,-25.720399999999998,44.4396,-17.6222,175,75
2026-05-11 17:57:02.352,2,0.13,-1.32,-0.28,-26.0304,127.1896,9.5778,175,75
2026-05-11 17:57:02.388,2,0.09,-1.65,-0.07,-9.6204,225.59959999999998,65.2478,175,75
2026-05-11 17:57:02.388,2,0.13,-1.46,0.02,-2.6104000000000003,240.3596,82.0778,175,75
2026-05-11 17:57:02.388,2,0.32,-1.17,0.21,-2.3104000000000005,259.3196,96.5878,175,75
2026-05-11 17:57:02.413,2,0.54,-1.0,0.46,-24.4404,276.8196,106.8278,175,75
2026-05-11 17:57:02.413,2,0.57,-1.01,0.66,-49.3804,272.1296,96.2778,175,75
2026-05-11 17:57:02.413,2,0.51,-1.01,0.84,-67.3704,254.07959999999997,79.9378,175,75
2026-05-11 17:57:02.423,2,0.38,-0.9,0.96,-71.7604,213.21959999999999,63.8378,175,75
2026-05-11 17:57:02.459,2,0.26,-0.68,1.01,-63.830400000000004,139.1996,48.6578,175,75
2026-05-11 17:57:02.464,2,0.04,-0.21,0.89,-54.1404,-47.2004,27.927799999999998,175,75
2026-05-11 17:57:02.475,2,-0.06,-0.02,0.69,-59.010400000000004,-118.5504,18.8378,175,75
2026-05-11 17:57:02.501,2,-0.09,0.13,0.48,-62.2504,-147.81040000000002,13.5978,175,75
2026-05-11 17:57:02.501,2,-0.14,0.29,0.31,-58.400400000000005,-152.0204,11.707799999999999,175,75
2026-05-11 17:57:02.501,2,-0.15,0.41,0.21,-48.3404,-125.1904,15.0578,175,75
2026-05-11 17:57:02.511,2,-0.11,0.45,0.18,-38.6504,-70.8004,17.5578,175,75
2026-05-11 17:57:02.541,2,-0.08,0.46,0.16,-33.8904,-33.6704,17.0178,175,75
2026-05-11 17:57:02.541,2,-0.1,0.47,0.17,-25.7804,-2.8704,15.0578,175,75
2026-05-11 17:57:02.552,2,-0.13,0.45,0.25,-11.7604,35.5396,5.547799999999999,175,75
2026-05-11 17:57:02.552,2,-0.3,0.45,0.32,3.3596000000000004,55.909600000000005,-10.972199999999999,175,75
2026-05-11 17:57:02.570,2,-0.26,0.39,0.47,15.1896,63.159600000000005,-30.182199999999998,175,75
2026-05-11 17:57:02.591,2,-0.15,0.4,0.61,23.4296,29.559599999999996,-40.852199999999996,175,75
2026-05-11 17:57:02.601,2,-0.14,0.39,0.64,32.1396,-7.4504,-43.5922,175,75
2026-05-11 17:57:02.601,2,-0.13,0.35,0.58,42.8196,-34.0304,-40.6122,175,75
2026-05-11 17:57:02.613,2,-0.08,0.31,0.5,51.349599999999995,-53.120400000000004,-34.1422,175,75
2026-05-11 17:57:02.617,2,0.1,0.23,0.45,56.349599999999995,-77.3904,-25.3622,175,75
2026-05-11 17:57:02.646,2,0.39,0.01,0.46,52.5696,-101.0504,-26.3422,175,75
2026-05-11 17:57:02.646,2,0.56,-0.21,0.51,46.4096,-116.29039999999999,-40.3022,175,75
2026-05-11 17:57:02.662,2,0.58,-0.75,0.51,29.5796,-145.5004,-69.0822,175,75
2026-05-11 17:57:02.673,2,0.53,-1.18,0.47,21.1096,-161.84040000000002,-79.3922,175,75
2026-05-11 17:57:02.684,2,0.51,-1.48,0.31,20.2496,-173.0004,-79.3322,175,75
2026-05-11 17:57:02.701,2,0.32,-1.84,0.06,34.099599999999995,-139.09040000000002,-69.0222,175,75
2026-05-11 17:57:02.712,2,0.26,-1.76,-0.19,55.4396,-52.5704,-41.0922,175,75
2026-05-11 17:57:02.722,2,0.42,-1.28,0.02,52.879599999999996,38.8896,-22.9222,175,75
2026-05-11 17:57:02.738,2,0.54,-1.25,0.48,27.7496,127.48960000000001,-9.3322,175,75
2026-05-11 17:57:02.753,2,0.6,-1.53,0.74,13.9096,152.9796,-6.7622,175,75
2026-05-11 17:57:02.813,2,0.52,-1.65,0.81,24.949599999999997,118.5896,-2.562199999999999,175,75
2026-05-11 17:57:02.823,2,0.5,-1.52,0.39,74.7696,32.919599999999996,14.5778,175,75
2026-05-11 17:57:02.824,2,0.49,-1.37,0.14,70.9296,27.799599999999998,17.8678,175,75
2026-05-11 17:57:02.827,2,0.41,-1.15,-0.01,57.50959999999999,105.1096,31.1578,175,75
2026-05-11 17:57:02.839,2,0.38,-1.01,0.07,44.2196,206.6996,46.4078,175,75
2026-05-11 17:57:02.850,2,0.31,-1.04,0.32,35.2496,261.51959999999997,48.3578,175,75
2026-05-11 17:57:02.850,2,0.29,-1.06,0.6,24.519599999999997,263.0996,42.2578,175,75
2026-05-11 17:57:02.850,2,0.31,-0.91,0.86,3.3596000000000004,184.9296,31.2778,175,75
2026-05-11 17:57:02.872,2,0.22,-0.37,0.89,-39.5004,-37.1404,21.037799999999997,175,75
2026-05-11 17:57:02.872,2,0.15,-0.21,0.74,-43.7104,-93.18039999999999,15.607800000000001,175,75
2026-05-11 17:57:02.906,2,0.01,-0.12,0.55,-42.6704,-119.70039999999999,10.0578,175,75
2026-05-11 17:57:02.906,2,-0.09,-0.2,0.34,-44.620400000000004,-128.8504,4.877800000000001,175,75
2026-05-11 17:57:02.918,2,-0.18,-0.32,0.13,-52.370400000000004,-127.0804,-0.42220000000000013,175,75
2026-05-11 17:57:02.918,2,-0.21,-0.26,-0.06,-56.3904,-101.1704,-0.5521999999999991,175,75
2026-05-11 17:57:02.943,2,-0.17,0.31,-0.08,-47.0604,9.809600000000001,24.577800000000003,175,75
2026-05-11 17:57:02.973,2,-0.18,0.51,0.1,-46.760400000000004,58.9496,30.1278,175,75
2026-05-11 17:57:02.973,2,-0.16,0.5,0.41,-54.3204,77.0596,17.1378,175,75
2026-05-11 17:57:03.015,2,-0.18,0.31,0.78,-70.6604,-73.4204,-18.5922,175,75
2026-05-11 17:57:03.015,2,-0.17,0.26,0.65,-59.3804,-223.7904,-32.312200000000004,175,75
2026-05-11 17:57:03.015,2,-0.26,0.28,0.41,-52.8604,-254.8304,-35.1222,175,75
2026-05-11 17:57:03.027,2,-0.23,0.23,0.28,-48.650400000000005,-251.84040000000002,-36.3422,175,75
2026-05-11 17:57:03.038,2,-0.04,-0.2,0.09,-36.3304,-198.6704,-34.812200000000004,175,75
2026-05-11 17:57:03.052,2,0.0,-0.31,-0.0,-25.1704,-180.74040000000002,-34.8722,175,75
2026-05-11 17:57:03.111,2,0.14,-0.28,-0.05,-12.1204,-151.7204,-33.9022,175,75
2026-05-11 17:57:03.130,2,0.53,-0.3,-0.02,-3.5904,-49.6404,-30.3622,175,75
2026-05-11 17:57:03.156,2,0.37,-1.35,-0.1,12.019599999999999,-16.4104,-37.1322,175,75
2026-05-11 17:57:03.162,2,0.07,-1.39,-0.14,10.4996,86.6396,-17.7422,175,75
2026-05-11 17:57:03.198,2,-0.1,-1.71,-0.15,2.4496,107.3696,2.197800000000001,175,75
2026-05-11 17:57:03.198,2,-0.2,-1.9,-0.16,0.5595999999999997,113.9496,26.1578,175,75
2026-05-11 17:57:03.209,2,-0.23,-1.9,-0.15,2.2096,126.20960000000001,46.7078,175,75
2026-05-11 17:57:03.209,2,-0.09,-1.55,-0.04,7.9396,142.3696,60.0578,175,75
2026-05-11 17:57:03.221,2,0.11,-1.1,0.15,9.7096,135.90959999999998,66.9478,175,75
2026-05-11 17:57:03.234,2,0.11,-0.78,0.35,8.059600000000001,100.4796,62.8678,175,75
2026-05-11 17:57:03.245,2,0.13,-0.53,0.43,6.659599999999999,45.8396,45.0578,175,75
2026-05-11 17:57:03.256,2,0.19,-0.12,0.39,3.5496,-50.010400000000004,23.107799999999997,175,75
2026-05-11 17:57:03.302,2,0.19,0.39,0.21,2.0196000000000005,-106.59039999999999,10.4878,175,75
2026-05-11 17:57:03.313,2,0.16,0.89,0.01,3.8496000000000006,-89.40039999999999,2.1378000000000004,175,75
2026-05-11 17:57:03.323,2,0.19,1.13,-0.13,-7.180400000000001,-37.2704,-1.0321999999999996,175,75
2026-05-11 17:57:03.323,2,0.21,1.17,-0.08,-14.4404,39.629599999999996,-1.7021999999999995,175,75
2026-05-11 17:57:03.338,2,0.26,0.72,0.07,-23.040399999999998,129.62959999999998,-5.1822,175,75
2026-05-11 17:57:03.346,2,0.26,0.26,0.32,-20.540399999999998,146.5796,-18.2322,175,75
2026-05-11 17:57:03.346,2,0.3,0.09,0.52,-20.4804,109.4396,-31.9522,175,75
2026-05-11 17:57:03.359,2,0.35,0.05,0.61,-13.4604,50.5396,-42.1922,175,75
2026-05-11 17:57:03.359,2,0.43,-0.03,0.61,-5.9604,-4.5804,-50.9722,175,75
2026-05-11 17:57:03.369,2,0.54,-0.33,0.56,-4.5604000000000005,-54.0904,-66.5222,175,75
2026-05-11 17:57:03.375,2,0.57,-0.5,0.47,2.1395999999999997,-76.84039999999999,-75.6722,175,75
2026-05-11 17:57:03.390,2,0.54,-0.66,0.4,10.989600000000001,-91.84039999999999,-83.4722,175,75
2026-05-11 17:57:03.413,2,0.48,-0.76,0.31,16.049599999999998,-108.6104,-86.0322,175,75
2026-05-11 17:57:03.425,2,0.2,-0.97,-0.01,7.3896,-93.73039999999999,-66.34219999999999,175,75
2026-05-11 17:57:03.437,2,0.13,-1.03,-0.18,-4.4404,-69.0304,-49.8722,175,75
2026-05-11 17:57:03.470,2,0.04,-0.94,-0.25,-19.5604,46.8196,-9.572199999999999,175,75
2026-05-11 17:57:03.488,2,0.03,-1.09,-0.15,-32.0004,131.81959999999998,19.8178,175,75
2026-05-11 17:57:03.543,2,0.09,-1.5,0.47,-68.2804,185.96959999999999,72.6878,175,75
2026-05-11 17:57:03.543,2,0.31,-1.18,0.69,-59.620400000000004,125.47960000000002,69.9978,175,75
2026-05-11 17:57:03.554,2,0.36,-0.73,0.85,-43.5904,-54.1604,53.537800000000004,175,75
2026-05-11 17:57:03.564,2,0.29,-0.5,0.56,-22.3704,-197.6904,33.0478,175,75
2026-05-11 17:57:03.577,2,0.18,-0.3,0.28,-16.8804,-212.9404,29.0278,175,75
2026-05-11 17:57:03.635,2,0.16,-0.15,0.08,-14.0104,-188.06040000000002,28.6578,175,75
2026-05-11 17:57:03.635,2,0.15,-0.03,-0.07,-14.810400000000001,-127.1404,29.327800000000003,175,75
2026-05-11 17:57:03.646,2,0.16,0.09,-0.14,-16.8204,-49.1604,31.2778,175,75
2026-05-11 17:57:03.658,2,0.11,0.18,-0.12,-15.3604,12.309600000000001,33.5378,175,75
2026-05-11 17:57:03.658,2,0.06,0.27,-0.04,-11.7004,70.1096,37.0778,175,75
2026-05-11 17:57:03.658,2,0.0,0.31,0.1,-7.3104,111.51960000000001,36.2778,175,75
2026-05-11 17:57:03.675,2,-0.06,0.29,0.33,-9.6804,126.9996,26.4078,175,75
2026-05-11 17:57:03.675,2,-0.11,0.29,0.44,-14.6804,97.6096,16.5278,175,75
2026-05-11 17:57:03.687,2,-0.18,0.31,0.45,-13.7704,51.0896,11.157800000000002,175,75
2026-05-11 17:57:03.707,2,-0.25,0.27,0.37,-9.9304,8.5296,7.0778,175,75
2026-05-11 17:57:03.720,2,-0.31,0.22,0.29,-9.3804,-12.750399999999999,4.267800000000001,175,75
2026-05-11 17:57:03.738,2,-0.22,0.14,0.18,-14.0104,-43.7904,1.8277999999999999,175,75
2026-05-11 17:57:03.753,2,-0.05,0.08,0.23,-19.2604,-65.3704,-3.7821999999999996,175,75
2026-05-11 17:57:03.765,2,0.11,-0.08,0.35,-27.4304,-83.79039999999999,-17.8022,175,75
2026-05-11 17:57:03.776,2,0.23,-0.22,0.45,-36.8204,-114.8304,-33.352199999999996,175,75
2026-05-11 17:57:03.786,2,0.3,-0.45,0.51,-44.9904,-171.2304,-52.0722,175,75
2026-05-11 17:57:03.797,2,0.25,-0.8,0.37,-43.1004,-251.53040000000001,-64.1422,175,75
2026-05-11 17:57:03.809,2,0.11,-1.08,0.18,-37.8604,-301.7804,-68.3522,175,75
2026-05-11 17:57:03.820,2,-0.07,-1.36,-0.08,-31.090400000000002,-331.5904,-64.2022,175,75
2026-05-11 17:57:03.831,2,-0.2,-1.62,-0.42,-28.830399999999997,-327.0204,-50.7922,175,75
2026-05-11 17:57:03.897,2,-0.05,-1.79,-1.02,75.5596,224.8696,61.767799999999994,175,75
2026-05-11 17:57:03.910,2,0.06,-2.08,-0.54,71.5396,307.2496,76.5278,175,75
2026-05-11 17:57:03.939,2,0.17,-2.0,-0.2,66.9596,300.4196,75.7978,175,75
2026-05-11 17:57:03.949,2,0.33,-1.68,0.1,59.339600000000004,237.0596,67.3778,175,75
2026-05-11 17:57:03.949,2,0.5,-1.39,0.4,34.8896,146.4496,55.187799999999996,175,75
2026-05-11 17:57:03.973,2,0.6,-1.16,0.48,-4.3204,37.489599999999996,44.6978,175,75
2026-05-11 17:57:04.006,2,0.53,-1.07,0.39,-27.980400000000003,-42.6304,34.3278,175,75
2026-05-11 17:57:04.019,2,0.42,-0.95,0.15,-47.5504,-119.46039999999999,25.1278,175,75
2026-05-11 17:57:04.030,2,0.37,-0.73,-0.1,-52.4304,-137.9404,26.5278,175,75
2026-05-11 17:57:04.041,2,0.36,-0.52,-0.23,-47.7304,-105.1304,28.7778,175,75
2026-05-11 17:57:04.053,2,0.43,-0.3,-0.28,-38.5904,-30.5004,31.9478,175,75
2026-05-11 17:57:04.053,2,0.48,-0.07,-0.15,-31.150399999999998,64.1996,27.8078,175,75
2026-05-11 17:57:04.059,2,0.45,0.06,-0.0,-29.870400000000004,105.7196,18.477800000000002,175,75
2026-05-11 17:57:04.070,2,0.35,0.18,0.2,-32.1804,133.09959999999998,1.4078,175,75
2026-05-11 17:57:04.078,2,0.25,0.17,0.36,-34.5604,116.20960000000001,-10.732199999999999,175,75
2026-05-11 17:57:04.091,2,0.22,0.03,0.39,-37.7904,72.79960000000001,-17.9822,175,75
2026-05-11 17:57:04.104,2,0.1,-0.16,0.32,-38.8904,24.1396,-22.562199999999997,175,75
2026-05-11 17:57:04.104,2,0.01,-0.2,0.16,-33.4004,17.1896,-20.2422,175,75
2026-05-11 17:57:04.118,2,-0.09,-0.13,0.02,-25.540399999999998,40.5396,-16.522199999999998,175,75
2026-05-11 17:57:04.129,2,-0.13,-0.07,0.02,-18.7104,88.4696,-13.1122,175,75
2026-05-11 17:57:04.139,2,-0.15,-0.02,0.1,-16.5104,120.8396,-11.4022,175,75
2026-05-11 17:57:04.150,2,-0.21,0.01,0.25,-15.2904,129.25959999999998,-11.4622,175,75
2026-05-11 17:57:04.151,2,-0.23,0.03,0.42,-13.9504,102.79960000000001,-15.6722,175,75
2026-05-11 17:57:04.159,2,-0.21,0.04,0.52,-13.2804,64.0796,-18.7222,175,75
2026-05-11 17:57:04.172,2,-0.23,0.12,0.49,-13.2804,-20.3104,-22.9222,175,75
2026-05-11 17:57:04.195,2,-0.34,0.17,0.12,-12.1204,-102.9404,-21.2822,175,75
2026-05-11 17:57:04.195,2,-0.34,0.14,0.03,-17.7304,-96.1704,-21.1622,175,75
2026-05-11 17:57:04.206,2,-0.21,-0.03,0.05,-24.5004,-69.0304,-14.8722,175,75
2026-05-11 17:57:04.213,2,-0.16,-0.22,0.12,-25.840400000000002,-65.07039999999999,-14.392199999999999,175,75
2026-05-11 17:57:04.226,2,-0.19,-0.76,0.4,-20.6004,-150.0104,-30.0022,175,75
2026-05-11 17:57:04.237,2,-0.23,-0.96,0.35,-22.3104,-244.46040000000002,-35.182199999999995,175,75
2026-05-11 17:57:04.237,2,-0.34,-1.1,0.17,-29.0704,-341.35040000000004,-38.4722,175,75
2026-05-11 17:57:04.248,2,-0.45,-1.24,-0.34,-43.7104,-420.8604,-40.062200000000004,175,75
2026-05-11 17:57:04.259,2,-0.58,-1.39,-0.76,-61.150400000000005,-421.7204,-35.6122,175,75
2026-05-11 17:57:04.282,2,-0.63,-1.53,-1.57,-66.2704,-109.7704,19.937800000000003,175,75
2026-05-11 17:57:04.300,2,-0.64,-1.95,-1.27,-2.9204,289.3796,89.8178,175,75
2026-05-11 17:57:04.314,2,-0.56,-2.14,-0.83,2.2696000000000005,379.1396,116.2178,175,75
2026-05-11 17:57:04.337,2,-0.17,-1.75,-0.21,-25.1104,330.4796,110.4278,175,75
2026-05-11 17:57:04.350,2,0.04,-1.44,-0.05,-43.040400000000005,287.9796,102.2578,175,75
2026-05-11 17:57:04.365,2,0.15,-1.11,0.0,-63.220400000000005,258.64959999999996,88.0478,175,75
2026-05-11 17:57:04.373,2,0.18,-0.8,-0.02,-75.8404,244.31959999999998,69.3878,175,75
2026-05-11 17:57:04.412,2,0.24,-0.19,0.02,-87.4304,219.9896,55.427800000000005,175,75
2026-05-11 17:57:04.423,2,0.27,-0.15,0.05,-91.8204,209.43959999999998,50.7978,175,75
2026-05-11 17:57:04.448,2,0.7,0.16,0.08,-110.7204,152.9796,-16.6422,175,75
2026-05-11 17:57:04.460,2,0.82,0.28,0.08,-113.8304,161.6396,-38.352199999999996,175,75
2026-05-11 17:57:04.471,2,1.16,0.29,0.21,-116.4504,175.59959999999998,-49.1422,175,75
2026-05-11 17:57:04.493,2,1.38,0.13,0.36,-112.7304,185.2996,-65.4222,175,75
2026-05-11 17:57:04.493,2,1.49,-0.3,0.56,-98.1604,192.6696,-101.5822,175,75
2026-05-11 17:57:04.509,2,1.46,-0.66,0.64,-83.7704,177.4296,-136.5822,175,75
2026-05-11 17:57:04.520,2,1.4,-0.91,0.5,-71.21039999999999,107.6096,-171.4022,175,75
2026-05-11 17:57:04.531,2,1.31,-1.09,0.21,-48.040400000000005,55.299600000000005,-192.0122,175,75
2026-05-11 17:57:04.543,2,1.31,-1.36,-0.01,-8.8904,91.6396,-197.98219999999998,175,75
2026-05-11 17:57:04.564,2,1.17,-1.74,-0.15,25.799599999999998,162.4296,-203.5322,175,75
2026-05-11 17:57:04.574,2,1.05,-2.06,-0.2,61.4096,243.8296,-208.35219999999998,175,75
2026-05-11 17:57:04.574,2,0.82,-2.34,-0.15,98.0596,313.5896,-208.41219999999998,175,75
2026-05-11 17:57:04.587,2,0.55,-2.08,0.11,110.2496,340.7796,-207.37220000000002,175,75
2026-05-11 17:57:04.655,2,0.56,-1.77,0.42,111.1696,356.6396,-206.0322,175,75
2026-05-11 17:57:04.655,2,0.22,-1.62,0.58,108.6096,265.6596,-186.4022,175,75
2026-05-11 17:57:04.655,2,-0.24,-0.91,0.21,104.1596,133.46959999999999,-127.9222,175,75
2026-05-11 17:57:04.667,2,-0.21,-0.61,0.1,76.5996,121.57960000000001,-100.7322,175,75
2026-05-11 17:57:04.678,2,-0.09,-0.37,0.1,47.7496,140.7796,-80.1822,175,75
2026-05-11 17:57:04.693,2,-0.05,-0.27,0.14,40.0696,156.1496,-71.4022,175,75
2026-05-11 17:57:04.735,2,-0.1,-0.2,0.18,45.3196,150.3596,-63.7222,175,75
2026-05-11 17:57:04.745,2,-0.22,-0.18,0.19,52.879599999999996,135.2996,-58.2322,175,75
2026-05-11 17:57:04.762,2,-0.33,-0.16,0.2,54.459599999999995,127.66960000000002,-53.9622,175,75
2026-05-11 17:57:04.762,2,-0.36,-0.17,0.23,46.959599999999995,120.16960000000002,-53.5922,175,75
2026-05-11 17:57:04.778,2,-0.32,-0.14,0.24,35.9296,104.6896,-54.1422,175,75
2026-05-11 17:57:04.778,2,-0.32,-0.1,0.24,28.239599999999996,87.12960000000001,-53.5322,175,75
2026-05-11 17:57:04.788,2,-0.29,-0.05,0.24,21.839599999999997,65.53960000000001,-55.1822,175,75
2026-05-11 17:57:04.798,2,-0.14,-0.03,0.28,13.8496,27.919599999999996,-64.0822,175,75
2026-05-11 17:57:04.832,2,-0.03,-0.04,0.43,-9.9304,-24.7604,-91.9522,175,75
2026-05-11 17:57:04.832,2,-0.01,-0.0,0.51,-17.3104,-47.080400000000004,-104.9422,175,75
2026-05-11 17:57:04.843,2,0.04,0.01,0.6,-20.540399999999998,-74.5804,-119.6322,175,75
2026-05-11 17:57:04.864,2,-0.1,-0.04,0.47,-17.6104,-174.1604,-145.24220000000003,175,75
2026-05-11 17:57:04.878,2,-0.16,-0.04,0.19,-18.340400000000002,-184.1604,-157.31220000000002,175,75
2026-05-11 17:57:04.892,2,-0.03,-0.06,0.13,-17.3104,-141.0504,-158.5922,175,75
2026-05-11 17:57:04.892,2,0.01,-0.12,0.07,-15.0504,-95.2504,-158.9022,175,75
2026-05-11 17:57:04.903,2,-0.05,-0.23,0.02,-8.7104,-26.050400000000003,-160.9722,175,75
2026-05-11 17:57:04.920,2,-0.03,-0.32,0.03,-0.17040000000000077,34.4996,-163.7822,175,75
2026-05-11 17:57:04.953,2,-0.27,-0.38,-0.18,20.559600000000003,185.2996,-172.56220000000002,175,75
2026-05-11 17:57:04.976,2,-0.42,-0.37,-0.3,33.7296,261.14959999999996,-170.06220000000002,175,75
2026-05-11 17:57:04.976,2,-0.48,-0.34,-0.38,52.8196,372.2496,-151.0322,175,75
2026-05-11 17:57:04.987,2,-0.66,0.0,-0.33,86.4696,541.6396,-115.5522,175,75
2026-05-11 17:57:04.987,2,-0.57,0.65,0.28,127.3896,799.0196,-65.5522,175,75
2026-05-11 17:57:04.999,2,-0.58,0.91,1.04,155.9296,933.5296,-31.7022,175,75
2026-05-11 17:57:05.020,2,-0.96,0.51,2.73,201.4096,738.7696,-53.7822,175,75
2026-05-11 17:57:05.020,2,-0.52,0.74,3.46,185.9896,420.1696,-50.1222,175,75
2026-05-11 17:57:05.031,2,-0.37,0.72,3.32,140.7996,-36.3504,-72.2522,175,75
2026-05-11 17:57:05.045,2,-0.85,0.49,2.27,97.9996,-392.6304,-113.5922,175,75
2026-05-11 17:57:05.056,2,-1.02,0.9,1.57,90.7396,-458.6104,-116.4022,175,75
2026-05-11 17:57:05.081,2,-0.29,1.71,0.62,-36.4504,-306.5304,-40.062200000000004,175,75
2026-05-11 17:57:05.099,2,0.02,0.38,0.61,-119.7504,-44.2804,-25.6722,175,75
2026-05-11 17:57:05.110,2,0.05,0.11,0.83,-113.8304,39.4996,-41.8922,175,75
2026-05-11 17:57:05.129,2,0.2,0.23,1.12,-111.9404,39.379599999999996,-56.8922,175,75
2026-05-11 17:57:05.140,2,0.26,0.26,1.33,-129.9304,39.1996,-65.9722,175,75
2026-05-11 17:57:05.158,2,0.14,0.22,1.28,-102.8604,11.9996,-70.6122,175,75
2026-05-11 17:57:05.169,2,0.08,0.18,1.41,-81.7604,-29.700400000000002,-78.0522,175,75
2026-05-11 17:57:05.217,2,-0.39,0.55,0.96,-65.6604,-267.9404,-84.3922,175,75
2026-05-11 17:57:05.228,2,-0.45,0.79,0.41,-57.1804,-218.18040000000002,-53.5322,175,75
2026-05-11 17:57:05.261,2,-0.07,0.3,0.51,-51.0304,-34.4004,-10.0022,175,75
2026-05-11 17:57:05.272,2,0.03,0.14,0.74,-54.5604,-40.0704,-18.9022,175,75
2026-05-11 17:57:05.284,2,0.13,-0.05,0.91,-61.0904,-67.8104,-38.7822,175,75
2026-05-11 17:57:05.304,2,0.06,-0.16,0.78,-72.3104,-187.3304,-72.7422,175,75
2026-05-11 17:57:05.316,2,-0.02,-0.06,0.58,-73.5904,-204.8304,-76.8922,175,75
2026-05-11 17:57:05.316,2,-0.04,0.11,0.42,-72.9204,-174.6404,-75.6722,175,75
2026-05-11 17:57:05.328,2,0.03,0.22,0.36,-70.7204,-120.9204,-72.5022,175,75
2026-05-11 17:57:05.363,2,0.31,0.22,0.6,-54.260400000000004,12.7296,-69.87219999999999,175,75
2026-05-11 17:57:05.388,2,0.53,0.56,1.24,-48.7104,-2.7504,-93.2922,175,75
2026-05-11 17:57:05.400,2,0.51,0.7,1.24,-52.0004,-61.2904,-98.2322,175,75
2026-05-11 17:57:05.417,2,0.49,0.66,0.84,-59.870400000000004,-87.20039999999999,-106.2822,175,75
2026-05-11 17:57:05.426,2,0.39,0.65,0.65,-59.6804,-47.4504,-104.8722,175,75
2026-05-11 17:57:05.439,2,0.24,0.47,0.52,-52.120400000000004,34.0796,-96.0322,175,75
2026-05-11 17:57:05.451,2,0.14,0.21,0.57,-54.9304,90.4196,-88.9022,175,75
2026-05-11 17:57:05.482,2,0.1,0.09,0.93,-75.4204,76.0896,-74.2022,175,75
2026-05-11 17:57:05.482,2,0.14,0.34,1.01,-68.1004,7.309600000000001,-66.7622,175,75
2026-05-11 17:57:05.493,2,0.22,0.38,1.03,-66.21039999999999,-57.7504,-61.8922,175,75
2026-05-11 17:57:05.503,2,0.3,0.1,0.96,-78.4004,-126.4704,-65.7322,175,75
2026-05-11 17:57:05.517,2,0.39,-0.16,0.81,-90.9004,-175.1904,-82.6822,175,75
2026-05-11 17:57:05.540,2,0.25,-0.23,0.43,-83.1604,-195.56040000000002,-119.4522,175,75
2026-05-11 17:57:05.551,2,0.22,-0.12,0.25,-79.1404,-185.0704,-126.5222,175,75
2026-05-11 17:57:05.563,2,0.23,-0.04,0.08,-78.7104,-133.7904,-130.6122,175,75
2026-05-11 17:57:05.587,2,0.27,-0.08,-0.01,-84.2604,-27.870399999999997,-133.35219999999998,175,75
2026-05-11 17:57:05.631,2,0.07,0.11,1.07,13.7296,446.4496,-148.41219999999998,175,75
2026-05-11 17:57:05.688,2,0.15,0.83,1.69,49.3396,480.9096,-136.4622,175,75
2026-05-11 17:57:05.688,2,0.1,1.56,2.44,50.6796,352.5496,-126.4622,175,75
2026-05-11 17:57:05.688,2,0.16,1.7,2.76,30.129599999999996,140.1096,-141.5222,175,75
2026-05-11 17:57:05.688,2,-0.09,1.87,1.92,3.4895999999999994,-323.6104,-191.7622,175,75
2026-05-11 17:57:05.718,2,-0.57,2.6,0.64,-85.1704,-385.0704,-179.81220000000002,175,75
2026-05-11 17:57:05.735,2,-0.44,1.57,0.22,-168.7104,-3.6104000000000003,-77.6822,175,75
2026-05-11 17:57:05.759,2,-0.01,1.8,0.73,-153.28040000000001,213.03959999999998,-21.4622,175,75
2026-05-11 17:57:05.771,2,0.54,0.96,2.24,-174.9304,155.2396,-17.0722,175,75
2026-05-11 17:57:05.782,2,0.49,0.51,2.68,-181.6404,-83.6704,-52.9222,175,75
2026-05-11 17:57:05.800,2,0.03,0.3,1.69,-155.0504,-534.4004,-100.6122,175,75
2026-05-11 17:57:05.812,2,-0.18,0.4,1.2,-149.56040000000002,-598.0604,-98.5322,175,75
2026-05-11 17:57:05.823,2,-0.34,0.49,0.65,-161.8204,-599.2204,-87.3722,175,75
2026-05-11 17:57:05.841,2,-0.16,0.27,-0.13,-175.6004,-299.4604,-37.2522,175,75
2026-05-11 17:57:05.852,2,-0.08,0.13,-0.01,-149.3204,-139.2204,-21.0322,175,75
2026-05-11 17:57:05.852,2,-0.2,0.02,0.44,-135.7804,-50.8604,-13.5322,175,75
2026-05-11 17:57:05.864,2,-0.26,-0.09,0.82,-151.2704,-42.510400000000004,-21.7622,175,75
2026-05-11 17:57:05.864,2,-0.22,-0.24,1.01,-168.2204,-106.0504,-39.572199999999995,175,75
2026-05-11 17:57:05.875,2,-0.18,-0.33,1.05,-179.1404,-259.4604,-61.8922,175,75
2026-05-11 17:57:05.889,2,-0.24,-0.25,0.83,-172.1804,-324.0304,-71.5822,175,75
2026-05-11 17:57:05.913,2,-0.3,0.16,0.28,-162.7304,-262.5704,-63.0522,175,75
2026-05-11 17:57:05.914,2,-0.28,0.16,0.23,-161.5104,-155.2504,-49.8122,175,75
2026-05-11 17:57:05.932,2,-0.25,-0.08,0.41,-158.9504,-19.830399999999997,-40.2422,175,75
2026-05-11 17:57:05.947,2,-0.41,-0.2,0.77,-162.6104,49.629599999999996,-48.6622,175,75
2026-05-11 17:57:05.974,2,-0.53,0.14,1.18,-172.1804,6.9396,-76.5222,175,75
2026-05-11 17:57:06.007,2,-0.04,0.38,1.32,-129.9304,28.949599999999997,-69.81219999999999,175,75
2026-05-11 17:57:06.021,2,0.03,0.35,1.41,-124.9304,24.199599999999997,-75.79220000000001,175,75
2026-05-11 17:57:06.032,2,0.24,0.57,1.42,-110.2304,3.2196,-77.9822,175,75
2026-05-11 17:57:06.044,2,0.36,0.82,1.3,-90.8404,-21.7804,-73.7222,175,75
2026-05-11 17:57:06.054,2,0.44,0.93,1.16,-77.0004,-30.2504,-64.2622,175,75
2026-05-11 17:57:06.057,2,0.58,0.97,1.02,-66.4504,-11.9604,-48.4722,175,75
2026-05-11 17:57:06.088,2,0.89,0.69,0.94,-58.220400000000005,62.799600000000005,-22.312199999999997,175,75
2026-05-11 17:57:06.088,2,1.1,0.57,1.04,-66.3304,85.53960000000001,-21.4022,175,75
2026-05-11 17:57:06.100,2,1.16,0.61,1.2,-79.2604,76.6996,-27.312199999999997,175,75
2026-05-11 17:57:06.111,2,1.25,0.74,1.32,-95.7804,36.5796,-38.2322,175,75
2026-05-11 17:57:06.201,2,1.3,0.76,1.31,-105.4804,8.769599999999999,-45.9122,175,75
2026-05-11 17:57:06.212,2,1.23,0.6,1.22,-122.5504,-8.2404,-61.1622,175,75
2026-05-11 17:57:06.212,2,1.19,0.47,1.25,-142.4904,-10.8004,-67.62219999999999,175,75
2026-05-11 17:57:06.235,2,1.19,0.31,1.28,-154.4404,-27.6304,-74.6922,175,75
2026-05-11 17:57:06.247,2,1.11,0.13,1.26,-157.7904,-48.0004,-85.9722,175,75
2026-05-11 17:57:06.247,2,0.98,0.05,1.16,-151.9404,-67.5104,-100.7922,175,75
2026-05-11 17:57:06.261,2,0.81,0.07,1.02,-146.2704,-73.2404,-108.6622,175,75
2026-05-11 17:57:06.284,2,0.65,0.05,0.89,-140.5404,-56.0504,-114.3322,175,75
2026-05-11 17:57:06.297,2,0.5,-0.13,0.76,-136.5704,-20.5604,-121.9522,175,75
2026-05-11 17:57:06.307,2,0.3,-0.21,0.71,-129.75039999999998,13.829600000000001,-121.4022,175,75
2026-05-11 17:57:06.318,2,0.08,-0.0,0.7,-116.7004,39.629599999999996,-116.2222,175,75
2026-05-11 17:57:06.318,2,-0.03,0.32,0.75,-102.6704,55.909600000000005,-104.26219999999999,175,75
2026-05-11 17:57:06.330,2,-0.08,0.55,0.8,-96.0304,54.43959999999999,-89.6322,175,75
2026-05-11 17:57:06.341,2,-0.1,0.78,0.86,-92.9804,29.7496,-70.8522,175,75
2026-05-11 17:57:06.351,2,0.03,0.69,0.89,-88.9504,-54.0904,-47.5622,175,75
2026-05-11 17:57:06.366,2,-0.01,0.37,0.84,-102.8604,-145.5004,-48.4722,175,75
2026-05-11 17:57:06.379,2,-0.08,0.3,0.72,-114.99040000000001,-184.46040000000002,-49.6322,175,75
2026-05-11 17:57:06.390,2,-0.11,0.18,0.55,-122.2504,-205.62040000000002,-50.7922,175,75
2026-05-11 17:57:06.394,2,-0.06,0.01,0.43,-122.0604,-198.6104,-52.1922,175,75
2026-05-11 17:57:06.407,2,-0.09,-0.22,0.38,-118.1604,-161.1704,-58.9022,175,75
2026-05-11 17:57:06.419,2,-0.11,-0.37,0.36,-115.1104,-124.7704,-67.0122,175,75
2026-05-11 17:57:06.431,2,-0.19,-0.34,0.37,-115.6604,-97.0804,-74.0822,175,75
2026-05-11 17:57:06.442,2,-0.31,-0.02,0.35,-113.7104,-66.1704,-72.37219999999999,175,75
2026-05-11 17:57:06.453,2,-0.15,0.27,0.46,-103.4004,38.5896,-51.3422,175,75
2026-05-11 17:57:06.463,2,0.24,0.17,0.9,-93.8904,104.7496,-52.6222,175,75
2026-05-11 17:57:06.500,2,0.43,0.72,1.31,-59.620400000000004,-18.1804,-103.5322,175,75
2026-05-11 17:57:06.524,2,0.44,0.94,1.16,-53.3404,-32.6904,-98.2922,175,75
2026-05-11 17:57:06.524,2,0.44,0.95,1.12,-54.0704,-11.2304,-94.6322,175,75
2026-05-11 17:57:06.534,2,0.46,1.04,1.16,-56.2704,10.2296,-89.3322,175,75
2026-05-11 17:57:06.546,2,0.46,1.12,1.23,-54.620400000000004,6.9396,-83.5922,175,75
2026-05-11 17:57:06.546,2,0.39,0.81,1.28,-54.0704,-30.2504,-77.1322,175,75
2026-05-11 17:57:06.557,2,0.24,0.42,1.17,-64.5604,-76.5304,-79.8122,175,75
2026-05-11 17:57:06.570,2,0.21,0.35,1.03,-75.6604,-110.01039999999999,-76.7622,175,75
2026-05-11 17:57:06.611,2,0.31,0.57,0.71,-94.2004,-116.23039999999999,-46.9522,175,75
2026-05-11 17:57:06.635,2,0.48,0.43,0.71,-102.8604,-84.5804,-31.8322,175,75
2026-05-11 17:57:06.646,2,0.65,0.01,0.85,-124.1404,-102.3304,-48.1122,175,75
2026-05-11 17:57:06.646,2,0.59,-0.12,0.84,-138.9504,-139.09040000000002,-71.5222,175,75
2026-05-11 17:57:06.659,2,0.57,-0.2,0.75,-147.6104,-166.2904,-90.3622,175,75
2026-05-11 17:57:06.682,2,0.33,-0.05,0.26,-171.3304,-121.96039999999999,-121.4022,175,75
2026-05-11 17:57:06.692,2,0.34,-0.02,0.21,-166.2704,-67.0804,-120.0022,175,75
2026-05-11 17:57:06.704,2,0.31,-0.02,0.3,-159.0704,-6.1704,-118.5922,175,75
2026-05-11 17:57:06.704,2,0.27,-0.09,0.45,-153.7104,30.909599999999998,-122.1922,175,75
2026-05-11 17:57:06.732,2,0.21,-0.12,0.65,-148.2204,21.8196,-131.2222,175,75
2026-05-11 17:57:06.745,2,0.26,0.36,0.76,-123.3404,-73.0004,-135.6722,175,75
2026-05-11 17:57:06.775,2,0.44,0.9,0.61,-159.8704,-105.9204,-119.5722,175,75
2026-05-11 17:57:06.793,2,0.61,0.99,0.7,-201.6404,-102.0204,-117.6222,175,75
2026-05-11 17:57:06.809,2,0.55,1.35,0.75,-246.4504,-57.5704,-111.3422,175,75
2026-05-11 17:57:06.809,2,0.64,1.26,0.83,-262.7304,16.519599999999997,-105.3622,175,75
2026-05-11 17:57:06.843,2,0.35,0.84,1.4,-265.36039999999997,228.15959999999998,-78.4122,175,75
2026-05-11 17:57:06.854,2,0.47,0.89,1.73,-242.7904,287.9196,-67.9822,175,75
2026-05-11 17:57:06.866,2,0.56,0.82,2.24,-198.9504,279.01959999999997,-70.3622,175,75
2026-05-11 17:57:06.877,2,0.56,0.7,2.62,-155.2904,184.4996,-86.4622,175,75
2026-05-11 17:57:06.887,2,0.54,0.64,2.71,-136.7604,35.9096,-110.5522,175,75
2026-05-11 17:57:06.907,2,0.31,0.71,1.92,-113.5304,-194.5804,-129.3322,175,75
2026-05-11 17:57:06.925,2,0.22,0.65,1.63,-104.1404,-212.6904,-127.9822,175,75
2026-05-11 17:57:06.936,2,-0.03,0.4,1.15,-87.49040000000001,-191.7204,-120.1222,175,75
2026-05-11 17:57:06.948,2,-0.14,0.32,0.99,-81.2104,-175.8004,-115.9122,175,75
2026-05-11 17:57:06.957,2,-0.19,0.27,0.87,-76.2704,-161.53040000000001,-111.6422,175,75
2026-05-11 17:57:06.986,2,-0.3,0.16,0.71,-78.6504,-118.48039999999999,-100.1822,175,75
2026-05-11 17:57:06.998,2,-0.34,0.14,0.71,-85.7804,-106.4704,-94.51219999999999,175,75
2026-05-11 17:57:07.030,2,-0.39,-0.31,0.89,-102.9804,-157.4504,-90.4222,175,75
2026-05-11 17:57:07.037,2,-0.49,-0.28,0.84,-106.4504,-187.87040000000002,-89.26219999999999,175,75
2026-05-11 17:57:07.050,2,-0.48,-0.22,0.76,-106.0304,-202.2604,-89.2022,175,75
2026-05-11 17:57:07.063,2,-0.49,-0.04,0.74,-106.3304,-202.9404,-84.8122,175,75
2026-05-11 17:57:07.076,2,-0.44,0.11,0.74,-109.3204,-193.6704,-78.9622,175,75
2026-05-11 17:57:07.084,2,-0.37,0.05,0.74,-115.2904,-205.5004,-79.5722,175,75
2026-05-11 17:57:07.096,2,-0.37,-0.04,0.66,-114.8704,-219.2204,-80.5522,175,75
2026-05-11 17:57:07.109,2,-0.37,-0.08,0.57,-110.8404,-214.09040000000002,-81.9522,175,75
2026-05-11 17:57:07.121,2,-0.32,-0.06,0.52,-112.0004,-208.7304,-79.6322,175,75
2026-05-11 17:57:07.131,2,-0.25,-0.05,0.48,-117.1804,-189.1604,-77.8622,175,75
2026-05-11 17:57:07.142,2,-0.11,-0.12,0.48,-128.7704,-172.81040000000002,-78.2322,175,75
2026-05-11 17:57:07.152,2,-0.08,-0.15,0.48,-143.28040000000001,-168.3004,-83.4122,175,75
2026-05-11 17:57:07.163,2,0.02,-0.07,0.45,-156.3904,-180.8004,-88.8422,175,75
2026-05-11 17:57:07.190,2,0.21,0.14,0.35,-203.28040000000001,-206.3504,-80.2422,175,75
2026-05-11 17:57:07.215,2,0.5,0.28,0.42,-234.2004,-168.18040000000002,-66.4622,175,75
2026-05-11 17:57:07.225,2,0.67,0.45,0.51,-234.9304,-137.2704,-59.8122,175,75
2026-05-11 17:57:07.236,2,0.8,0.73,0.58,-229.1404,-99.5804,-49.2022,175,75
2026-05-11 17:57:07.257,2,0.79,0.95,0.52,-225.2904,-73.9104,-35.6122,175,75
2026-05-11 17:57:07.269,2,0.95,0.5,0.64,-221.9404,16.089599999999997,-26.8922,175,75
2026-05-11 17:57:07.281,2,0.87,0.39,0.83,-199.4404,83.09960000000001,-20.6122,175,75
2026-05-11 17:57:07.291,2,0.81,0.58,1.02,-174.5004,137.9796,-9.4522,175,75
2026-05-11 17:57:07.306,2,1.04,0.48,1.47,-165.2904,159.9896,11.4678,175,75
2026-05-11 17:57:07.345,2,1.13,-0.09,1.76,-158.7104,54.0796,-25.002200000000002,175,75
2026-05-11 17:57:07.359,2,0.89,-0.13,1.51,-164.6204,-21.590400000000002,-56.5222,175,75
2026-05-11 17:57:07.375,2,0.68,0.1,1.34,-149.3804,-2.2603999999999997,-73.3522,175,75
2026-05-11 17:57:07.390,2,0.57,0.24,1.39,-134.9304,21.029600000000002,-77.9822,175,75
2026-05-11 17:57:07.405,2,0.42,0.21,1.43,-119.6804,15.5996,-83.9022,175,75
2026-05-11 17:57:07.420,2,0.1,0.44,1.31,-87.6104,-36.1104,-81.5822,175,75
2026-05-11 17:57:07.429,2,-0.03,0.64,1.2,-80.0504,-53.4804,-71.7622,175,75
2026-05-11 17:57:07.441,2,-0.12,0.87,1.05,-79.0704,-57.940400000000004,-56.7622,175,75
2026-05-11 17:57:07.451,2,-0.12,1.05,0.96,-81.4504,-49.400400000000005,-38.0522,175,75
2026-05-11 17:57:07.476,2,-0.1,1.09,0.92,-85.5404,-34.5804,-19.5122,175,75
2026-05-11 17:57:07.476,2,-0.03,0.94,0.86,-88.2204,-25.1904,0.4878,175,75
2026-05-11 17:57:07.497,2,0.08,0.72,0.88,-84.6804,-39.0304,9.517800000000001,175,75
2026-05-11 17:57:07.513,2,0.15,0.44,0.93,-80.60040000000001,-60.9204,4.027799999999999,175,75
2026-05-11 17:57:07.518,2,0.18,0.21,0.97,-83.4604,-102.1404,-8.5322,175,75
2026-05-11 17:57:07.530,2,0.11,0.06,0.85,-84.2004,-158.4204,-21.702199999999998,175,75
2026-05-11 17:57:07.556,2,0.16,0.03,0.53,-90.9004,-231.84040000000002,-28.4722,175,75
2026-05-11 17:57:07.556,2,0.17,-0.03,0.36,-97.4304,-228.4804,-29.1422,175,75
2026-05-11 17:57:07.570,2,0.23,-0.15,0.22,-99.0704,-203.4804,-33.0522,175,75
2026-05-11 17:57:07.587,2,0.31,-0.17,0.1,-92.7904,-172.2604,-40.062200000000004,175,75
2026-05-11 17:57:07.600,2,0.37,-0.0,0.05,-79.4404,-128.7904,-38.9022,175,75
