Time,ID,Ax,Ay,Az,Gx,Gy,Gz,Height,Weight
2026-05-09 14:44:46.057,2,0.12,-0.21,0.88,-64.429,77.8968,-8.294,175,75
2026-05-09 14:44:46.076,2,0.07,-0.27,0.87,-48.699000000000005,151.3068,-18.534,175,75
2026-05-09 14:44:46.087,2,0.12,-0.32,0.94,-44.619,186.7968,-27.984,175,75
2026-05-09 14:44:46.114,2,0.19,-0.33,1.05,-36.629000000000005,216.1268,-42.494,175,75
2026-05-09 14:44:46.125,2,0.15,-0.31,1.07,-27.358999999999998,223.8668,-47.254000000000005,175,75
2026-05-09 14:44:46.138,2,0.1,-0.28,1.08,-21.019,231.7368,-49.504000000000005,175,75
2026-05-09 14:44:46.152,2,-0.03,-0.21,1.1,-9.858999999999998,260.4568,-46.763999999999996,175,75
2026-05-09 14:44:46.160,2,-0.09,-0.19,1.14,-3.398999999999999,271.4268,-49.144000000000005,175,75
2026-05-09 14:44:46.173,2,-0.09,-0.17,1.22,2.3310000000000004,279.59680000000003,-52.864000000000004,175,75
2026-05-09 14:44:46.184,2,-0.06,-0.12,1.28,8.611,277.70680000000004,-57.684,175,75
2026-05-09 14:44:46.190,2,0.01,-0.05,1.34,12.761000000000003,258.7468,-58.474000000000004,175,75
2026-05-09 14:44:46.213,2,0.05,0.05,1.37,14.711000000000002,217.1568,-53.59400000000001,175,75
2026-05-09 14:44:46.223,2,0.06,0.12,1.39,13.741000000000003,176.6068,-49.324,175,75
2026-05-09 14:44:46.223,2,0.04,0.16,1.34,12.581000000000003,144.4768,-43.654,175,75
2026-05-09 14:44:46.244,2,-0.01,0.19,1.28,13.981000000000002,119.5368,-38.534,175,75
2026-05-09 14:44:46.267,2,-0.09,0.19,1.18,22.881,96.3068,-31.094,175,75
2026-05-09 14:44:46.278,2,-0.1,0.17,1.18,23.921000000000003,96.3068,-27.744,175,75
2026-05-09 14:44:46.278,2,-0.1,0.15,1.18,24.961000000000002,94.35679999999999,-23.044000000000004,175,75
2026-05-09 14:44:46.290,2,-0.07,0.12,1.19,27.031000000000002,84.6568,-19.694000000000003,175,75
2026-05-09 14:44:46.318,2,-0.02,0.1,1.23,31.181,55.8168,-13.474000000000004,175,75
2026-05-09 14:44:46.332,2,-0.01,0.11,1.22,31.781000000000002,35.086800000000004,-10.604000000000003,175,75
2026-05-09 14:44:46.343,2,-0.0,0.12,1.18,31.181,17.4668,-7.494000000000003,175,75
2026-05-09 14:44:46.356,2,-0.01,0.11,1.14,29.711000000000002,-0.0931999999999995,-2.924000000000003,175,75
2026-05-09 14:44:46.362,2,-0.04,0.12,1.1,28.431,-8.323199999999998,1.525999999999998,175,75
2026-05-09 14:44:46.375,2,-0.04,0.12,1.08,28.311000000000003,-9.733199999999998,4.205999999999998,175,75
2026-05-09 14:44:46.386,2,-0.02,0.11,1.07,28.251,-8.573199999999998,4.8859999999999975,175,75
2026-05-09 14:44:46.386,2,0.0,0.1,1.07,27.641000000000002,-7.1732,5.615999999999998,175,75
2026-05-09 14:44:46.397,2,0.01,0.11,1.09,27.391000000000002,-7.103199999999999,5.795999999999998,175,75
2026-05-09 14:44:46.408,2,0.0,0.12,1.1,26.541,-10.523199999999997,7.015999999999998,175,75
2026-05-09 14:44:46.418,2,-0.01,0.11,1.1,22.761000000000003,-17.2932,9.695999999999998,175,75
2026-05-09 14:44:46.440,2,-0.0,0.08,1.09,15.201,-30.6432,11.345999999999998,175,75
2026-05-09 14:44:46.452,2,0.02,0.03,1.07,5.631000000000001,-40.2132,11.955999999999998,175,75
2026-05-09 14:44:46.464,2,0.03,-0.01,1.07,0.5710000000000006,-39.0632,10.795999999999998,175,75
2026-05-09 14:44:46.477,2,0.02,-0.05,1.07,-3.2189999999999994,-26.7432,6.955999999999998,175,75
2026-05-09 14:44:46.494,2,0.02,-0.1,1.08,-5.228999999999999,-3.453199999999999,-3.834000000000003,175,75
2026-05-09 14:44:46.509,2,0.02,-0.09,1.09,-6.568999999999999,0.9968000000000021,-6.644000000000002,175,75
2026-05-09 14:44:46.540,2,0.01,-0.06,1.08,-9.068999999999999,-2.8431999999999995,-7.314000000000004,175,75
2026-05-09 14:44:46.550,2,0.0,-0.03,1.06,-7.848999999999999,0.3968000000000007,-6.464000000000002,175,75
2026-05-09 14:44:46.550,2,0.01,-0.01,1.06,-5.169,6.246800000000001,-5.724000000000004,175,75
2026-05-09 14:44:46.568,2,0.03,0.01,1.06,-1.5089999999999995,13.4968,-5.184000000000001,175,75
2026-05-09 14:44:46.578,2,0.05,0.04,1.07,1.971000000000001,18.8668,-2.6140000000000008,175,75
2026-05-09 14:44:46.590,2,0.06,0.06,1.1,4.591,23.0768,0.1859999999999964,175,75
2026-05-09 14:44:46.603,2,0.07,0.07,1.12,6.721000000000001,24.236800000000002,2.6259999999999977,175,75
2026-05-09 14:44:46.623,2,0.1,0.01,1.16,8.741,17.646800000000002,6.775999999999998,175,75
2026-05-09 14:44:46.634,2,0.12,-0.03,1.16,9.891000000000002,8.136800000000001,5.975999999999997,175,75
2026-05-09 14:44:46.644,2,0.11,-0.05,1.16,11.661000000000001,-0.5231999999999992,3.605999999999998,175,75
2026-05-09 14:44:46.658,2,0.05,-0.02,1.09,16.541,2.956800000000001,0.9759999999999991,175,75
2026-05-09 14:44:46.720,2,0.02,-0.05,1.14,25.141000000000002,55.5768,5.065999999999997,175,75
2026-05-09 14:44:46.733,2,0.03,-0.08,1.19,25.321,59.3568,6.4659999999999975,175,75
2026-05-09 14:44:46.745,2,0.04,-0.09,1.21,26.361,53.6268,6.105999999999998,175,75
2026-05-09 14:44:46.777,2,0.03,-0.06,1.22,30.021000000000004,27.586800000000004,6.955999999999998,175,75
2026-05-09 14:44:46.787,2,0.01,-0.03,1.21,31.421000000000003,22.3468,6.955999999999998,175,75
2026-05-09 14:44:46.799,2,0.01,-0.01,1.2,32.580999999999996,19.416800000000002,6.705999999999998,175,75
2026-05-09 14:44:46.813,2,0.01,-0.0,1.2,33.431,15.0868,7.075999999999999,175,75
2026-05-09 14:44:46.825,2,0.01,-0.01,1.2,32.330999999999996,6.426800000000002,7.805999999999997,175,75
2026-05-09 14:44:46.834,2,-0.0,-0.02,1.21,30.871,-5.463199999999999,8.055999999999997,175,75
2026-05-09 14:44:46.845,2,-0.01,-0.02,1.2,29.161000000000005,-15.5832,7.3859999999999975,175,75
2026-05-09 14:44:46.858,2,-0.01,-0.02,1.17,25.441000000000003,-29.3632,8.055999999999997,175,75
2026-05-09 14:44:46.869,2,-0.03,-0.03,1.15,22.761000000000003,-37.2932,8.905999999999999,175,75
2026-05-09 14:44:46.893,2,-0.06,-0.03,1.1,18.071,-40.7032,7.995999999999999,175,75
2026-05-09 14:44:46.905,2,-0.08,-0.01,1.08,16.541,-36.1332,7.745999999999999,175,75
2026-05-09 14:44:46.928,2,-0.08,-0.02,1.09,10.261,-35.4032,8.175999999999998,175,75
2026-05-09 14:44:46.939,2,-0.08,-0.03,1.11,4.591,-41.1932,9.695999999999998,175,75
2026-05-09 14:44:46.953,2,-0.07,-0.03,1.11,1.5410000000000004,-50.8232,8.845999999999998,175,75
2026-05-09 14:44:46.964,2,-0.07,0.0,1.09,0.5010000000000003,-58.813199999999995,7.3859999999999975,175,75
2026-05-09 14:44:46.977,2,-0.04,0.04,1.05,0.1410000000000009,-65.0932,4.395999999999997,175,75
2026-05-09 14:44:46.977,2,-0.07,0.08,1.03,-0.2289999999999992,-66.1332,3.8459999999999983,175,75
2026-05-09 14:44:46.990,2,-0.1,0.12,1.01,-0.3489999999999993,-60.4032,3.6659999999999986,175,75
2026-05-09 14:44:47.003,2,-0.13,0.13,0.99,-0.2289999999999992,-50.0332,2.865999999999998,175,75
2026-05-09 14:44:47.019,2,-0.14,0.12,0.99,-1.4489999999999994,-43.0232,2.445999999999998,175,75
2026-05-09 14:44:47.035,2,-0.13,0.12,1.02,-4.129,-37.6532,2.9259999999999984,175,75
2026-05-09 14:44:47.045,2,-0.12,0.11,1.03,-6.688999999999999,-34.6732,3.535999999999998,175,75
2026-05-09 14:44:47.056,2,-0.11,0.07,1.05,-10.229,-35.7032,3.905999999999999,175,75
2026-05-09 14:44:47.069,2,-0.1,0.02,1.05,-13.579,-39.8532,3.235999999999997,175,75
2026-05-09 14:44:47.091,2,-0.13,-0.02,1.02,-17.608999999999998,-32.4732,1.1659999999999968,175,75
2026-05-09 14:44:47.106,2,-0.14,-0.03,1.02,-17.299,-25.8232,-0.9740000000000038,175,75
2026-05-09 14:44:47.130,2,-0.13,-0.0,1.03,-15.408999999999999,-14.303199999999999,-1.0340000000000025,175,75
2026-05-09 14:44:47.154,2,-0.06,-0.02,1.07,-13.759,-26.313200000000002,1.8359999999999985,175,75
2026-05-09 14:44:47.163,2,-0.07,-0.0,1.06,-13.088999999999999,-31.013199999999998,2.865999999999998,175,75
2026-05-09 14:44:47.185,2,-0.06,0.01,1.04,-11.139,-33.0232,3.4759999999999973,175,75
2026-05-09 14:44:47.203,2,0.01,0.02,1.06,-10.108999999999998,-33.4532,2.315999999999997,175,75
2026-05-09 14:44:47.213,2,0.03,0.01,1.08,-10.108999999999998,-29.913200000000003,2.3859999999999975,175,75
2026-05-09 14:44:47.224,2,0.03,0.02,1.08,-9.858999999999998,-27.843200000000003,2.3859999999999975,175,75
2026-05-09 14:44:47.247,2,0.04,-0.0,1.11,-13.698999999999998,-26.0732,2.445999999999998,175,75
2026-05-09 14:44:47.259,2,0.05,-0.05,1.13,-15.779,-17.0432,1.3459999999999965,175,75
2026-05-09 14:44:47.274,2,0.08,-0.09,1.15,-15.408999999999999,-16.193199999999997,-3.4740000000000038,175,75
2026-05-09 14:44:47.285,2,0.12,-0.13,1.17,-13.818999999999999,-17.593199999999996,-9.874000000000002,175,75
2026-05-09 14:44:47.297,2,0.13,-0.1,1.15,-11.928999999999998,-12.3532,-15.184000000000005,175,75
2026-05-09 14:44:47.310,2,0.11,-0.01,1.07,-4.738999999999999,5.576800000000001,-21.334000000000003,175,75
2026-05-09 14:44:47.323,2,0.06,0.06,1.03,1.051000000000001,22.766800000000003,-22.804000000000002,175,75
2026-05-09 14:44:47.334,2,0.03,0.1,1.04,7.151000000000001,41.6768,-23.834000000000003,175,75
2026-05-09 14:44:47.351,2,0.04,0.07,1.09,10.811,57.4068,-22.864000000000004,175,75
2026-05-09 14:44:47.362,2,0.05,-0.01,1.15,11.421,64.3568,-19.934000000000005,175,75
2026-05-09 14:44:47.384,2,0.07,-0.2,1.21,16.241000000000003,50.8168,-15.664000000000001,175,75
2026-05-09 14:44:47.395,2,0.09,-0.24,1.21,18.131,33.7468,-14.574000000000005,175,75
2026-05-09 14:44:47.395,2,0.08,-0.22,1.19,21.241000000000003,17.5268,-12.434000000000001,175,75
2026-05-09 14:44:47.417,2,0.08,-0.15,1.13,25.931,12.766800000000002,-9.084000000000003,175,75
2026-05-09 14:44:47.431,2,0.04,-0.02,1.07,36.781,23.1368,-1.644000000000002,175,75
2026-05-09 14:44:47.449,2,0.02,0.04,1.11,42.461,35.5768,2.0759999999999987,175,75
2026-05-09 14:44:47.460,2,0.04,0.07,1.14,46.721,36.3668,4.3359999999999985,175,75
2026-05-09 14:44:47.484,2,0.11,0.12,1.18,50.991,10.206800000000001,10.555999999999997,175,75
2026-05-09 14:44:47.495,2,0.11,0.11,1.17,47.391,-14.2432,12.015999999999998,175,75
2026-05-09 14:44:47.505,2,0.12,0.12,1.14,40.751,-38.1432,13.535999999999998,175,75
2026-05-09 14:44:47.518,2,0.1,0.15,1.1,35.141,-53.8132,14.395999999999997,175,75
2026-05-09 14:44:47.533,2,0.09,0.18,1.07,32.091,-53.1432,14.395999999999997,175,75
2026-05-09 14:44:47.560,2,0.12,0.13,1.08,12.881,-29.5432,13.725999999999997,175,75
2026-05-09 14:44:47.586,2,0.16,0.07,1.1,-0.8389999999999995,-26.563200000000002,8.845999999999998,175,75
2026-05-09 14:44:47.603,2,0.17,0.05,1.11,-9.009,-24.7932,5.185999999999998,175,75
2026-05-09 14:44:47.618,2,0.18,0.11,1.12,-21.198999999999998,-15.953199999999997,-1.394000000000002,175,75
2026-05-09 14:44:47.627,2,0.2,0.14,1.14,-26.569,-13.023199999999997,-2.554000000000002,175,75
2026-05-09 14:44:47.643,2,0.24,0.13,1.19,-33.459,-9.913199999999998,-3.1040000000000028,175,75
2026-05-09 14:44:47.654,2,0.25,0.08,1.22,-41.689,-9.6032,-4.504000000000001,175,75
2026-05-09 14:44:47.664,2,0.25,0.01,1.26,-47.729,-13.023199999999997,-7.804000000000002,175,75
2026-05-09 14:44:47.677,2,0.25,-0.05,1.26,-48.029,-31.623199999999997,-16.394000000000005,175,75
2026-05-09 14:44:47.687,2,0.24,-0.03,1.25,-45.589,-36.6832,-19.324000000000005,175,75
2026-05-09 14:44:47.696,2,0.22,-0.02,1.21,-44.309000000000005,-39.6032,-20.244,175,75
2026-05-09 14:44:47.708,2,0.19,-0.0,1.16,-44.129000000000005,-37.1032,-19.634,175,75
2026-05-09 14:44:47.722,2,0.15,-0.02,1.13,-40.589,-24.6732,-18.654000000000003,175,75
2026-05-09 14:44:47.732,2,0.15,-0.01,1.11,-30.349,-7.783199999999999,-18.414,175,75
2026-05-09 14:44:47.743,2,0.19,0.01,1.13,-20.718999999999998,3.6868000000000016,-17.804000000000002,175,75
2026-05-09 14:44:47.754,2,0.22,0.02,1.15,-12.479,11.796800000000001,-15.794000000000004,175,75
2026-05-09 14:44:47.793,2,0.28,0.05,1.2,14.831000000000003,-4.363199999999999,-9.264000000000003,175,75
2026-05-09 14:44:47.803,2,0.28,0.06,1.19,20.021,-14.543199999999997,-6.524000000000001,175,75
2026-05-09 14:44:47.814,2,0.26,0.06,1.15,24.891000000000002,-23.203200000000002,-3.4740000000000038,175,75
2026-05-09 14:44:47.824,2,0.23,0.06,1.12,29.771000000000004,-27.9032,0.3059999999999974,175,75
2026-05-09 14:44:47.835,2,0.22,0.07,1.09,33.001,-28.203200000000002,3.2959999999999976,175,75
2026-05-09 14:44:47.835,2,0.19,0.08,1.06,35.931,-21.2532,3.9659999999999975,175,75
2026-05-09 14:44:47.846,2,0.19,0.08,1.06,37.760999999999996,-11.373199999999999,4.275999999999998,175,75
2026-05-09 14:44:47.857,2,0.19,0.09,1.05,38.190999999999995,-0.8231999999999982,4.515999999999998,175,75
2026-05-09 14:44:47.884,2,0.2,0.11,1.06,39.101,9.4768,3.355999999999998,175,75
2026-05-09 14:44:47.884,2,0.23,0.14,1.07,38.491,12.466800000000001,3.905999999999999,175,75
2026-05-09 14:44:47.895,2,0.23,0.13,1.1,37.091,11.856800000000002,5.125999999999998,175,75
2026-05-09 14:44:47.906,2,0.23,0.11,1.11,32.211,5.636800000000001,5.365999999999998,175,75
2026-05-09 14:44:47.918,2,0.22,0.06,1.12,26.241000000000003,-3.8131999999999984,5.365999999999998,175,75
2026-05-09 14:44:47.955,2,0.16,0.01,1.11,9.651,-12.533199999999999,6.5859999999999985,175,75
2026-05-09 14:44:47.974,2,0.19,0.05,1.09,-5.898999999999999,-20.093199999999996,2.9959999999999987,175,75
2026-05-09 14:44:47.988,2,0.18,0.07,1.09,-11.318999999999999,-21.623199999999997,2.6259999999999977,175,75
2026-05-09 14:44:47.997,2,0.18,0.08,1.08,-18.399,-21.013199999999998,2.0759999999999987,175,75
2026-05-09 14:44:48.013,2,0.16,0.07,1.09,-24.189,-19.6032,0.12599999999999767,175,75
2026-05-09 14:44:48.049,2,0.18,0.13,1.09,-33.889,-9.4232,-2.804000000000002,175,75
2026-05-09 14:44:48.059,2,0.17,0.13,1.1,-38.579,-5.763199999999999,-3.894000000000002,175,75
2026-05-09 14:44:48.070,2,0.18,0.12,1.12,-41.019000000000005,-1.9231999999999996,-5.114000000000001,175,75
2026-05-09 14:44:48.093,2,0.16,0.14,1.13,-38.519000000000005,4.536800000000001,-5.974000000000004,175,75
2026-05-09 14:44:48.113,2,0.17,0.15,1.15,-33.639,8.9868,-8.534000000000002,175,75
2026-05-09 14:44:48.128,2,0.19,0.14,1.16,-29.979,5.516800000000002,-8.964000000000002,175,75
2026-05-09 14:44:48.143,2,0.19,0.08,1.12,-22.788999999999998,9.356800000000002,-6.0340000000000025,175,75
2026-05-09 14:44:48.164,2,0.12,0.04,1.15,-18.519,17.7068,-6.214000000000002,175,75
2026-05-09 14:44:48.164,2,0.14,-0.0,1.14,-12.788999999999998,28.626800000000003,-6.0340000000000025,175,75
2026-05-09 14:44:48.179,2,0.12,-0.02,1.14,-6.928999999999999,29.906800000000004,-4.264000000000003,175,75
2026-05-09 14:44:48.198,2,0.1,-0.01,1.19,-1.7489999999999992,17.0968,-0.9140000000000015,175,75
2026-05-09 14:44:48.213,2,0.12,-0.01,1.2,-0.6489999999999996,6.676800000000002,2.5059999999999985,175,75
2026-05-09 14:44:48.219,2,0.12,-0.03,1.2,-0.4089999999999998,-4.183199999999999,5.555999999999997,175,75
2026-05-09 14:44:48.246,2,0.12,-0.05,1.16,1.301000000000001,-16.2532,7.315999999999997,175,75
2026-05-09 14:44:48.258,2,0.11,-0.05,1.14,1.3610000000000007,-13.933199999999998,7.805999999999997,175,75
2026-05-09 14:44:48.272,2,0.11,-0.04,1.1,0.7510000000000003,-12.233199999999998,9.085999999999999,175,75
2026-05-09 14:44:48.284,2,0.1,-0.03,1.1,0.0810000000000004,-7.4732,7.195999999999998,175,75
2026-05-09 14:44:48.295,2,0.11,-0.01,1.1,0.2010000000000005,-1.0731999999999982,6.165999999999999,175,75
2026-05-09 14:44:48.314,2,0.12,0.01,1.13,-3.148999999999999,-0.21319999999999872,6.4659999999999975,175,75
2026-05-09 14:44:48.328,2,0.12,0.02,1.12,-3.9489999999999994,-1.6231999999999989,7.1359999999999975,175,75
2026-05-09 14:44:48.347,2,0.16,0.04,1.12,-3.7589999999999995,2.1568000000000014,5.065999999999997,175,75
2026-05-09 14:44:48.359,2,0.15,0.06,1.11,-3.7589999999999995,5.636800000000001,4.515999999999998,175,75
2026-05-09 14:44:48.381,2,0.12,0.07,1.13,-2.9089999999999994,10.266800000000002,5.185999999999998,175,75
2026-05-09 14:44:48.393,2,0.13,0.07,1.14,-2.7889999999999997,7.766800000000002,4.695999999999998,175,75
2026-05-09 14:44:48.409,2,0.15,0.06,1.16,-3.5189999999999992,-3.203199999999999,3.605999999999998,175,75
2026-05-09 14:44:48.422,2,0.15,0.06,1.16,-4.188999999999999,-14.543199999999997,4.455999999999998,175,75
2026-05-09 14:44:48.422,2,0.15,0.05,1.14,-3.5789999999999993,-19.8532,3.9659999999999975,175,75
2026-05-09 14:44:48.432,2,0.13,0.03,1.12,-3.398999999999999,-22.413200000000003,3.605999999999998,175,75
2026-05-09 14:44:48.456,2,0.09,-0.01,1.08,-3.0889999999999995,-15.343199999999998,1.5859999999999985,175,75
2026-05-09 14:44:48.467,2,0.09,-0.03,1.08,-3.2189999999999994,-10.463199999999999,-0.30400000000000205,175,75
2026-05-09 14:44:48.494,2,0.08,-0.04,1.07,-5.039,-4.913199999999998,-2.1340000000000003,175,75
2026-05-09 14:44:48.517,2,0.08,-0.03,1.07,-7.539,-2.1031999999999993,-4.204000000000001,175,75
2026-05-09 14:44:48.526,2,0.06,-0.0,1.06,-8.459,4.716800000000001,-3.6540000000000035,175,75
2026-05-09 14:44:48.555,2,0.04,0.01,1.09,-6.808999999999999,18.806800000000003,-5.484000000000002,175,75
2026-05-09 14:44:48.555,2,0.05,0.02,1.1,-6.388999999999999,18.986800000000002,-4.574000000000002,175,75
2026-05-09 14:44:48.566,2,0.05,0.01,1.11,-6.5089999999999995,15.516800000000002,-5.114000000000001,175,75
2026-05-09 14:44:48.587,2,0.06,-0.01,1.14,-6.2589999999999995,7.156800000000001,-5.484000000000002,175,75
2026-05-09 14:44:48.587,2,0.05,-0.01,1.13,-5.8389999999999995,-3.2631999999999994,-4.874000000000002,175,75
2026-05-09 14:44:48.611,2,0.04,-0.01,1.1,-3.3389999999999995,-11.5632,-6.214000000000002,175,75
2026-05-09 14:44:48.645,2,0.01,-0.03,1.06,3.4910000000000005,7.5268000000000015,-5.244000000000003,175,75
2026-05-09 14:44:48.685,2,0.03,-0.01,1.09,9.411000000000001,18.3168,-3.1640000000000015,175,75
2026-05-09 14:44:48.696,2,0.05,0.0,1.11,10.201,13.986800000000002,-1.8240000000000016,175,75
2026-05-09 14:44:48.707,2,0.05,0.01,1.11,10.501000000000001,10.3968,-0.7940000000000005,175,75
2026-05-09 14:44:48.710,2,0.05,0.02,1.1,10.021,7.156800000000001,0.6759999999999984,175,75
2026-05-09 14:44:48.739,2,0.05,0.02,1.09,8.801000000000002,10.636800000000001,1.2859999999999978,175,75
2026-05-09 14:44:48.751,2,0.06,0.01,1.1,7.151000000000001,13.436800000000002,0.7959999999999994,175,75
2026-05-09 14:44:48.763,2,0.07,0.01,1.11,4.771,13.986800000000002,0.6759999999999984,175,75
2026-05-09 14:44:48.772,2,0.07,0.0,1.11,2.5810000000000004,13.196800000000001,0.5559999999999974,175,75
2026-05-09 14:44:48.783,2,0.07,0.01,1.12,0.0810000000000004,11.606800000000002,0.9759999999999991,175,75
2026-05-09 14:44:48.795,2,0.07,0.01,1.11,-2.2389999999999994,9.9068,0.8559999999999981,175,75
2026-05-09 14:44:48.795,2,0.07,0.01,1.1,-4.619,10.326800000000002,1.0359999999999978,175,75
2026-05-09 14:44:48.806,2,0.07,0.02,1.1,-6.568999999999999,13.626800000000001,0.6759999999999984,175,75
2026-05-09 14:44:48.820,2,0.08,0.03,1.11,-8.088999999999999,16.6068,1.0359999999999978,175,75
2026-05-09 14:44:48.843,2,0.09,0.04,1.11,-9.129,16.7968,1.5859999999999985,175,75
2026-05-09 14:44:48.843,2,0.1,0.05,1.12,-9.858999999999998,15.396800000000002,1.6459999999999972,175,75
2026-05-09 14:44:48.854,2,0.1,0.07,1.13,-9.799,13.8068,2.9959999999999987,175,75
2026-05-09 14:44:48.876,2,0.11,0.08,1.14,-9.369,10.1468,4.0859999999999985,175,75
2026-05-09 14:44:48.876,2,0.11,0.08,1.15,-10.039,8.016800000000002,4.395999999999997,175,75
2026-05-09 14:44:48.889,2,0.1,0.07,1.15,-10.289,5.936800000000002,5.735999999999997,175,75
2026-05-09 14:44:48.929,2,0.1,0.05,1.12,-7.728999999999999,-0.8231999999999982,4.7559999999999985,175,75
2026-05-09 14:44:48.955,2,0.11,0.05,1.11,-5.169,11.916800000000002,4.815999999999997,175,75
2026-05-09 14:44:48.984,2,0.11,0.04,1.14,1.051000000000001,18.806800000000003,3.0559999999999974,175,75
2026-05-09 14:44:49.006,2,0.11,0.04,1.16,3.2510000000000003,13.256800000000002,4.3359999999999985,175,75
2026-05-09 14:44:49.016,2,0.11,0.03,1.17,3.3710000000000004,6.676800000000002,4.575999999999999,175,75
2026-05-09 14:44:49.042,2,0.12,0.01,1.17,3.1910000000000007,-3.6331999999999987,4.515999999999998,175,75
2026-05-09 14:44:49.048,2,0.11,-0.01,1.16,3.311000000000001,-7.233199999999998,4.275999999999998,175,75
2026-05-09 14:44:49.059,2,0.11,-0.02,1.13,3.0010000000000003,-7.593199999999998,4.6359999999999975,175,75
2026-05-09 14:44:49.084,2,0.09,-0.04,1.1,3.9210000000000003,3.926800000000001,3.7259999999999973,175,75
2026-05-09 14:44:49.096,2,0.08,-0.04,1.11,5.081,11.796800000000001,2.9959999999999987,175,75
2026-05-09 14:44:49.108,2,0.1,-0.03,1.11,6.541000000000001,17.7068,2.5059999999999985,175,75
2026-05-09 14:44:49.118,2,0.11,-0.0,1.13,7.331,19.5368,2.565999999999997,175,75
2026-05-09 14:44:49.128,2,0.13,-0.01,1.15,7.271,18.1368,1.7059999999999977,175,75
2026-05-09 14:44:49.143,2,0.14,-0.01,1.17,6.481000000000001,10.9968,1.2859999999999978,175,75
2026-05-09 14:44:49.152,2,0.13,-0.0,1.17,5.571000000000001,3.8668000000000013,2.2559999999999985,175,75
2026-05-09 14:44:49.180,2,0.12,0.0,1.15,5.811000000000001,-10.643199999999998,0.6759999999999984,175,75
2026-05-09 14:44:49.191,2,0.12,0.01,1.14,5.381000000000001,-11.1932,0.3059999999999974,175,75
2026-05-09 14:44:49.213,2,0.11,0.02,1.12,4.711000000000001,-10.093199999999998,-0.6040000000000028,175,75
2026-05-09 14:44:49.225,2,0.11,0.02,1.12,5.441,-7.6532,-0.9740000000000038,175,75
2026-05-09 14:44:49.237,2,0.11,0.02,1.11,4.961000000000001,-6.253199999999998,-1.644000000000002,175,75
2026-05-09 14:44:49.249,2,0.11,0.02,1.11,4.041000000000001,-4.543199999999999,-2.434000000000001,175,75
2026-05-09 14:44:49.259,2,0.11,0.01,1.11,3.0710000000000006,-2.8431999999999995,-3.1040000000000028,175,75
2026-05-09 14:44:49.271,2,0.11,0.01,1.12,3.431000000000001,-1.6231999999999989,-3.3540000000000028,175,75
2026-05-09 14:44:49.283,2,0.1,0.0,1.12,3.311000000000001,-1.1931999999999992,-4.384,175,75
2026-05-09 14:44:49.294,2,0.1,0.0,1.13,2.641000000000001,-0.7031999999999989,-4.324000000000002,175,75
2026-05-09 14:44:49.315,2,0.1,0.01,1.13,3.6109999999999998,-1.863199999999999,-5.9140000000000015,175,75
2026-05-09 14:44:49.331,2,0.09,0.01,1.13,4.041000000000001,-4.003199999999998,-5.304000000000002,175,75
2026-05-09 14:44:49.331,2,0.09,0.02,1.13,3.9810000000000008,-6.983199999999998,-5.6640000000000015,175,75
2026-05-09 14:44:49.343,2,0.09,0.02,1.13,3.8609999999999998,-9.303199999999999,-5.7940000000000005,175,75
2026-05-09 14:44:49.359,2,0.09,0.03,1.12,3.551000000000001,-10.283199999999999,-5.114000000000001,175,75
2026-05-09 14:44:49.369,2,0.08,0.03,1.1,4.591,-8.143199999999998,-4.874000000000002,175,75
2026-05-09 14:44:49.395,2,0.09,0.05,1.1,6.481000000000001,-3.2631999999999994,-5.9140000000000015,175,75
2026-05-09 14:44:49.407,2,0.08,0.06,1.1,6.971000000000001,-1.0131999999999994,-5.424000000000003,175,75
2026-05-09 14:44:49.407,2,0.08,0.06,1.11,7.331,0.4568000000000012,-5.184000000000001,175,75
2026-05-09 14:44:49.423,2,0.07,0.03,1.11,7.151000000000001,0.9968000000000021,-4.934000000000001,175,75
2026-05-09 14:44:49.435,2,0.07,0.02,1.11,6.481000000000001,-1.6831999999999994,-4.874000000000002,175,75
2026-05-09 14:44:49.446,2,0.07,0.01,1.11,6.111,-4.063199999999998,-4.634,175,75
2026-05-09 14:44:49.467,2,0.08,0.0,1.09,2.521000000000001,-7.843199999999998,-3.964000000000002,175,75
2026-05-09 14:44:49.478,2,0.08,0.01,1.09,1.051000000000001,-6.193199999999999,-3.4140000000000015,175,75
2026-05-09 14:44:49.503,2,0.07,0.04,1.07,1.1110000000000007,4.296800000000001,-4.384,175,75
2026-05-09 14:44:49.513,2,0.08,0.03,1.1,-0.1089999999999991,9.2368,-4.264000000000003,175,75
2026-05-09 14:44:49.525,2,0.08,0.04,1.11,-1.1989999999999994,11.426800000000002,-4.324000000000002,175,75
2026-05-09 14:44:49.537,2,0.08,0.03,1.12,-1.2589999999999995,10.936800000000002,-4.084000000000003,175,75
2026-05-09 14:44:49.547,2,0.08,0.03,1.12,-1.1389999999999993,8.686800000000002,-3.894000000000002,175,75
2026-05-09 14:44:49.551,2,0.08,0.04,1.12,-1.6289999999999996,6.546800000000001,-3.964000000000002,175,75
2026-05-09 14:44:49.563,2,0.08,0.04,1.12,-2.1789999999999994,5.326800000000001,-4.084000000000003,175,75
2026-05-09 14:44:49.612,2,0.08,0.02,1.11,-1.0789999999999993,5.756800000000001,-3.2940000000000005,175,75
2026-05-09 14:44:49.635,2,0.09,0.03,1.1,-0.4689999999999994,7.286800000000001,-2.2540000000000013,175,75
2026-05-09 14:44:49.647,2,0.09,0.03,1.1,-0.7189999999999994,8.436800000000002,-1.8240000000000016,175,75
2026-05-09 14:44:49.667,2,0.09,0.03,1.1,-0.7789999999999995,13.9268,-2.6140000000000008,175,75
2026-05-09 14:44:49.680,2,0.09,0.03,1.1,-0.8389999999999995,15.9968,-2.9840000000000018,175,75
2026-05-09 14:44:49.691,2,0.09,0.03,1.1,-0.8989999999999996,18.4968,-2.924000000000003,175,75
2026-05-09 14:44:49.703,2,0.09,0.03,1.11,-1.5089999999999995,19.6568,-3.0440000000000005,175,75
2026-05-09 14:44:49.703,2,0.08,0.03,1.11,-2.2989999999999995,21.126800000000003,-2.9840000000000018,175,75
2026-05-09 14:44:49.724,2,0.09,0.02,1.13,-2.728999999999999,22.6468,-3.834000000000003,175,75
2026-05-09 14:44:49.736,2,0.1,0.02,1.13,-3.0889999999999995,20.1468,-4.264000000000003,175,75
2026-05-09 14:44:49.760,2,0.1,0.04,1.13,-3.148999999999999,17.2868,-4.024000000000001,175,75
2026-05-09 14:44:49.770,2,0.1,0.04,1.13,-3.0289999999999995,16.2468,-3.894000000000002,175,75
2026-05-09 14:44:49.794,2,0.09,0.04,1.13,-2.9689999999999994,10.576800000000002,-3.2240000000000038,175,75
2026-05-09 14:44:49.819,2,0.09,0.03,1.13,-2.608999999999999,9.786800000000001,-3.1640000000000015,175,75
2026-05-09 14:44:49.819,2,0.08,0.03,1.12,-2.3589999999999995,10.636800000000001,-3.1040000000000028,175,75
2026-05-09 14:44:49.830,2,0.09,0.03,1.12,-1.5689999999999995,10.206800000000001,-3.714000000000002,175,75
2026-05-09 14:44:49.845,2,0.1,0.05,1.12,-1.0189999999999992,11.126800000000001,-4.204000000000001,175,75
2026-05-09 14:44:49.866,2,0.08,0.03,1.13,-0.1689999999999996,13.3168,-3.964000000000002,175,75
2026-05-09 14:44:49.904,2,0.08,0.02,1.13,-1.2589999999999995,8.136800000000001,-4.754000000000001,175,75
2026-05-09 14:44:49.927,2,0.08,0.02,1.14,-3.398999999999999,6.366800000000001,-3.894000000000002,175,75
2026-05-09 14:44:49.933,2,0.08,0.02,1.12,-4.499,6.246800000000001,-4.324000000000002,175,75
2026-05-09 14:44:49.940,2,0.09,0.02,1.11,-5.529,6.306800000000001,-4.264000000000003,175,75
2026-05-09 14:44:49.949,2,0.08,0.03,1.12,-5.898999999999999,8.016800000000002,-4.024000000000001,175,75
2026-05-09 14:44:49.966,2,0.07,0.03,1.12,-6.998999999999999,15.456800000000001,-4.994000000000003,175,75
2026-05-09 14:44:49.983,2,0.07,0.03,1.12,-8.029,16.5468,-5.184000000000001,175,75
2026-05-09 14:44:49.994,2,0.08,0.04,1.13,-8.948999999999998,16.3668,-5.364000000000001,175,75
2026-05-09 14:44:50.018,2,0.08,0.03,1.15,-10.719,15.636800000000001,-5.974000000000004,175,75
2026-05-09 14:44:50.043,2,0.08,0.02,1.16,-10.649,17.5868,-6.884,175,75
2026-05-09 14:44:50.054,2,0.09,0.01,1.17,-10.779,15.266800000000002,-7.374000000000002,175,75
2026-05-09 14:44:50.063,2,0.09,0.02,1.17,-10.779,13.4968,-7.004000000000001,175,75
2026-05-09 14:44:50.086,2,0.08,0.03,1.18,-10.108999999999998,11.7368,-6.214000000000002,175,75
2026-05-09 14:44:50.097,2,0.09,0.02,1.19,-9.129,9.2368,-6.824000000000002,175,75
2026-05-09 14:44:50.097,2,0.09,0.02,1.19,-9.009,5.0268000000000015,-7.004000000000001,175,75
2026-05-09 14:44:50.109,2,0.09,0.03,1.19,-8.399,-1.0731999999999982,-6.524000000000001,175,75
2026-05-09 14:44:50.134,2,0.07,0.04,1.18,-5.779,-9.123199999999999,-6.094000000000001,175,75
2026-05-09 14:44:50.165,2,0.06,0.03,1.15,-3.5789999999999993,-11.0132,-4.934000000000001,175,75
2026-05-09 14:44:50.177,2,0.05,0.02,1.14,-1.9289999999999994,-7.413199999999998,-4.204000000000001,175,75
2026-05-09 14:44:50.193,2,0.06,0.03,1.13,0.6310000000000002,2.346800000000001,-4.024000000000001,175,75
2026-05-09 14:44:50.202,2,0.06,0.03,1.13,1.6610000000000005,5.756800000000001,-3.714000000000002,175,75
2026-05-09 14:44:50.226,2,0.06,0.03,1.15,2.271000000000001,6.916800000000001,-3.5340000000000025,175,75
2026-05-09 14:44:50.237,2,0.08,0.02,1.16,1.971000000000001,3.376800000000001,-3.894000000000002,175,75
2026-05-09 14:44:50.253,2,0.08,0.03,1.15,0.9910000000000005,0.5168000000000017,-3.774000000000001,175,75
2026-05-09 14:44:50.264,2,0.07,0.03,1.14,1.2410000000000005,0.7568000000000019,-2.684000000000001,175,75
2026-05-09 14:44:50.288,2,0.05,0.04,1.13,2.761000000000001,5.086800000000001,-3.2240000000000038,175,75
2026-05-09 14:44:50.291,2,0.07,0.06,1.13,3.551000000000001,4.716800000000001,-3.714000000000002,175,75
2026-05-09 14:44:50.340,2,0.07,0.05,1.14,4.5310000000000015,-0.7631999999999994,-0.6640000000000015,175,75
2026-05-09 14:44:50.353,2,0.07,0.04,1.13,5.201000000000001,-1.9831999999999983,-0.7240000000000038,175,75
2026-05-09 14:44:50.357,2,0.07,0.04,1.12,4.831,-2.1031999999999993,-0.6040000000000028,175,75
2026-05-09 14:44:50.373,2,0.07,0.04,1.12,3.9210000000000003,-0.5231999999999992,-0.18400000000000105,175,75
2026-05-09 14:44:50.384,2,0.07,0.03,1.12,3.311000000000001,-0.3431999999999995,-0.18400000000000105,175,75
2026-05-09 14:44:50.384,2,0.08,0.02,1.12,2.761000000000001,-1.5031999999999979,-0.30400000000000205,175,75
2026-05-09 14:44:50.417,2,0.07,0.02,1.11,-0.2889999999999997,-1.9231999999999996,-0.24400000000000333,175,75
2026-05-09 14:44:50.435,2,0.07,0.02,1.11,-0.7189999999999994,4.416800000000001,-1.2140000000000022,175,75
2026-05-09 14:44:50.448,2,0.07,0.03,1.11,-0.8989999999999996,4.476800000000002,-0.8540000000000028,175,75
2026-05-09 14:44:50.448,2,0.07,0.03,1.12,-1.0789999999999993,4.786800000000001,-0.9140000000000015,175,75
2026-05-09 14:44:50.458,2,0.08,0.04,1.12,-2.1189999999999993,5.936800000000002,-1.394000000000002,175,75
2026-05-09 14:44:50.480,2,0.09,0.04,1.13,-2.4189999999999996,5.876800000000001,-0.7940000000000005,175,75
2026-05-09 14:44:50.493,2,0.08,0.04,1.13,-1.4489999999999994,4.906800000000001,-0.42400000000000304,175,75
2026-05-09 14:44:50.520,2,0.08,0.03,1.13,-1.5689999999999995,3.9868000000000015,-0.42400000000000304,175,75
2026-05-09 14:44:50.538,2,0.08,0.02,1.13,-1.3889999999999993,3.926800000000001,-0.5440000000000005,175,75
2026-05-09 14:44:50.559,2,0.07,0.03,1.13,0.4410000000000007,9.4768,-0.11400000000000077,175,75
2026-05-09 14:44:50.572,2,0.08,0.03,1.14,1.3610000000000007,10.8168,-0.36400000000000077,175,75
2026-05-09 14:44:50.588,2,0.07,0.03,1.14,1.4210000000000003,10.696800000000001,0.12599999999999767,175,75
2026-05-09 14:44:50.598,2,0.08,0.03,1.16,1.7810000000000006,8.016800000000002,-0.36400000000000077,175,75
2026-05-09 14:44:50.612,2,0.08,0.04,1.17,1.6610000000000005,3.926800000000001,-0.8540000000000028,175,75
2026-05-09 14:44:50.624,2,0.1,0.04,1.16,0.9910000000000005,-0.283199999999999,-0.7240000000000038,175,75
2026-05-09 14:44:50.651,2,0.09,0.04,1.11,-0.3489999999999993,0.2668000000000017,-0.6040000000000028,175,75
2026-05-09 14:44:50.677,2,0.06,0.04,1.12,-0.3489999999999993,12.036800000000001,0.06599999999999895,175,75
2026-05-09 14:44:50.699,2,0.07,0.02,1.15,0.1410000000000009,9.966800000000001,-0.8540000000000028,175,75
2026-05-09 14:44:50.714,2,0.08,0.03,1.17,-0.7789999999999995,5.0268000000000015,-0.48400000000000176,175,75
2026-05-09 14:44:50.724,2,0.08,0.02,1.18,-1.3189999999999995,-0.7631999999999994,-0.30400000000000205,175,75
2026-05-09 14:44:50.761,2,0.07,0.04,1.12,-2.3589999999999995,-8.6332,0.24599999999999866,175,75
2026-05-09 14:44:50.773,2,0.06,0.03,1.11,-2.728999999999999,-3.753199999999998,0.5559999999999974,175,75
2026-05-09 14:44:50.800,2,0.05,0.01,1.13,-0.6489999999999996,7.036800000000001,-0.48400000000000176,175,75
2026-05-09 14:44:50.825,2,0.06,0.02,1.18,-1.9989999999999992,4.536800000000001,0.36599999999999966,175,75
2026-05-09 14:44:50.837,2,0.06,0.02,1.17,-2.2389999999999994,-0.5231999999999992,1.0359999999999978,175,75
2026-05-09 14:44:50.877,2,0.07,0.04,1.13,-3.4589999999999996,-6.503199999999998,1.6459999999999972,175,75
2026-05-09 14:44:50.889,2,0.06,0.02,1.14,-1.5689999999999995,-0.3431999999999995,1.5859999999999985,175,75
2026-05-09 14:44:50.900,2,0.06,0.03,1.15,-1.7489999999999992,-0.7031999999999989,1.6459999999999972,175,75
2026-05-09 14:44:50.923,2,0.06,0.03,1.17,-1.0789999999999993,-4.793199999999999,2.445999999999998,175,75
2026-05-09 14:44:50.937,2,0.07,0.02,1.16,-0.8389999999999995,-9.6032,3.1759999999999984,175,75
2026-05-09 14:44:50.963,2,0.06,0.02,1.13,-0.4689999999999994,-9.483199999999998,3.4159999999999986,175,75
2026-05-09 14:44:50.984,2,0.07,0.02,1.12,-0.6489999999999996,-6.253199999999998,3.1759999999999984,175,75
2026-05-09 14:44:50.984,2,0.07,0.01,1.13,-1.1389999999999993,-2.3531999999999993,3.1759999999999984,175,75
2026-05-09 14:44:51.008,2,0.08,-0.01,1.16,-1.8689999999999993,-4.603199999999999,2.8059999999999974,175,75
2026-05-09 14:44:51.037,2,0.07,0.02,1.17,-2.728999999999999,-11.983199999999998,2.6259999999999977,175,75
2026-05-09 14:44:51.046,2,0.07,0.03,1.14,-3.0889999999999995,-13.8132,3.115999999999998,175,75
2026-05-09 14:44:51.059,2,0.07,0.04,1.14,-2.2989999999999995,-13.023199999999997,3.235999999999997,175,75
2026-05-09 14:44:51.069,2,0.07,0.05,1.14,-1.8089999999999993,-12.413199999999998,2.9259999999999984,175,75
2026-05-09 14:44:51.078,2,0.08,0.06,1.14,-1.0789999999999993,-11.983199999999998,2.865999999999998,175,75
2026-05-09 14:44:51.104,2,0.08,0.05,1.15,-1.8089999999999993,-14.913199999999998,2.9259999999999984,175,75
2026-05-09 14:44:51.114,2,0.08,0.05,1.15,-1.3189999999999995,-15.703199999999997,3.7259999999999973,175,75
2026-05-09 14:44:51.127,2,0.07,0.04,1.14,-0.4089999999999998,-15.953199999999997,3.4159999999999986,175,75
2026-05-09 14:44:51.137,2,0.07,0.05,1.13,0.261000000000001,-15.7632,3.4759999999999973,175,75
2026-05-09 14:44:51.149,2,0.07,0.06,1.12,0.9310000000000009,-13.8132,3.355999999999998,175,75
2026-05-09 14:44:51.149,2,0.07,0.07,1.12,1.051000000000001,-11.9232,3.1759999999999984,175,75
2026-05-09 14:44:51.176,2,0.07,0.07,1.14,1.6610000000000005,-7.843199999999998,3.905999999999999,175,75
2026-05-09 14:44:51.188,2,0.07,0.06,1.14,1.4210000000000003,-10.463199999999999,3.4759999999999973,175,75
2026-05-09 14:44:51.199,2,0.07,0.05,1.14,1.4210000000000003,-13.6932,3.535999999999998,175,75
2026-05-09 14:44:51.210,2,0.06,0.05,1.14,1.4210000000000003,-13.573199999999998,3.4759999999999973,175,75
2026-05-09 14:44:51.236,2,0.06,0.02,1.12,1.4810000000000008,-11.0132,3.235999999999997,175,75
2026-05-09 14:44:51.249,2,0.04,0.01,1.12,1.5410000000000004,-7.293199999999997,3.115999999999998,175,75
2026-05-09 14:44:51.263,2,0.05,-0.01,1.12,2.5810000000000004,-5.953199999999999,2.195999999999998,175,75
2026-05-09 14:44:51.286,2,0.05,-0.0,1.14,3.681,-4.6732,2.685999999999998,175,75
2026-05-09 14:44:51.288,2,0.05,0.01,1.14,4.2810000000000015,-6.983199999999998,2.6259999999999977,175,75
2026-05-09 14:44:51.299,2,0.06,0.02,1.14,5.081,-8.203199999999997,3.235999999999997,175,75
2026-05-09 14:44:51.338,2,0.05,0.02,1.12,5.9910000000000005,-9.183199999999998,5.305999999999997,175,75
2026-05-09 14:44:51.354,2,0.04,0.02,1.12,7.271,-7.9032,4.7559999999999985,175,75
2026-05-09 14:44:51.358,2,0.05,0.04,1.12,7.331,-5.893199999999998,5.0059999999999985,175,75
2026-05-09 14:44:51.373,2,0.06,0.04,1.11,7.641000000000001,-4.793199999999999,5.555999999999997,175,75
2026-05-09 14:44:51.373,2,0.06,0.06,1.12,7.941,-4.063199999999998,6.225999999999997,175,75
2026-05-09 14:44:51.386,2,0.06,0.06,1.13,9.281000000000002,-3.3931999999999984,6.955999999999998,175,75
2026-05-09 14:44:51.399,2,0.07,0.06,1.13,10.141000000000002,-4.243199999999998,7.015999999999998,175,75
2026-05-09 14:44:51.422,2,0.07,0.05,1.13,8.131,-8.023199999999997,7.925999999999998,175,75
2026-05-09 14:44:51.436,2,0.07,0.04,1.12,7.391000000000001,-8.2632,8.055999999999997,175,75
2026-05-09 14:44:51.451,2,0.06,0.0,1.14,5.631000000000001,-10.4032,7.805999999999997,175,75
2026-05-09 14:44:51.462,2,0.05,0.01,1.14,4.5310000000000015,-12.293199999999997,7.805999999999997,175,75
2026-05-09 14:44:51.483,2,0.06,0.05,1.13,1.971000000000001,-14.913199999999998,7.745999999999999,175,75
2026-05-09 14:44:51.499,2,0.07,0.06,1.12,1.9110000000000005,-13.323199999999998,6.645999999999997,175,75
2026-05-09 14:44:51.512,2,0.07,0.06,1.12,1.2410000000000005,-13.453199999999997,6.225999999999997,175,75
2026-05-09 14:44:51.524,2,0.07,0.06,1.14,1.051000000000001,-12.233199999999998,5.615999999999998,175,75
2026-05-09 14:44:51.536,2,0.07,0.06,1.14,0.261000000000001,-12.843199999999998,4.945999999999998,175,75
2026-05-09 14:44:51.559,2,0.05,0.03,1.16,-1.7489999999999992,-16.7432,6.105999999999998,175,75
2026-05-09 14:44:51.571,2,0.03,0.01,1.15,-2.8489999999999993,-16.313200000000002,6.285999999999998,175,75
2026-05-09 14:44:51.603,2,0.03,0.0,1.16,-2.608999999999999,-15.283199999999999,7.195999999999998,175,75
2026-05-09 14:44:51.613,2,0.02,0.03,1.15,-1.4489999999999994,-12.1732,7.625999999999998,175,75
2026-05-09 14:44:51.640,2,0.02,0.03,1.18,-3.0289999999999995,-2.9631999999999987,10.125999999999998,175,75
2026-05-09 14:44:51.667,2,0.04,0.1,1.19,-5.228999999999999,-6.503199999999998,10.365999999999998,175,75
2026-05-09 14:44:51.686,2,0.06,0.17,1.22,-3.5789999999999993,-0.21319999999999872,9.085999999999999,175,75
2026-05-09 14:44:51.699,2,0.08,0.19,1.24,-3.148999999999999,-2.7131999999999987,9.145999999999997,175,75
2026-05-09 14:44:51.712,2,0.08,0.22,1.25,-3.6989999999999994,-7.963199999999999,11.165999999999997,175,75
2026-05-09 14:44:51.712,2,0.07,0.23,1.25,-3.2189999999999994,-10.643199999999998,12.445999999999998,175,75
2026-05-09 14:44:51.735,2,0.08,0.23,1.25,-1.8089999999999993,-13.203199999999997,12.136,175,75
2026-05-09 14:44:51.758,2,0.1,0.23,1.26,-0.6489999999999996,-15.093199999999998,10.425999999999998,175,75
2026-05-09 14:44:51.770,2,0.12,0.22,1.27,-1.0189999999999992,-14.733199999999998,7.805999999999997,175,75
2026-05-09 14:44:51.782,2,0.12,0.2,1.28,-1.9989999999999992,-17.5332,6.105999999999998,175,75
2026-05-09 14:44:51.793,2,0.12,0.24,1.29,-1.1389999999999993,-16.5032,3.7259999999999973,175,75
2026-05-09 14:44:51.823,2,0.14,0.27,1.33,6.421,19.0468,0.36599999999999966,175,75
2026-05-09 14:44:51.834,2,0.17,0.19,1.37,8.981000000000002,33.8668,-1.2140000000000022,175,75
2026-05-09 14:44:51.838,2,0.19,0.06,1.41,12.521,40.8768,-5.114000000000001,175,75
2026-05-09 14:44:51.855,2,0.19,-0.02,1.46,15.261000000000003,41.8568,-8.164000000000001,175,75
2026-05-09 14:44:51.865,2,0.16,-0.07,1.48,18.001,41.4868,-11.464000000000002,175,75
2026-05-09 14:44:51.869,2,0.13,-0.1,1.51,22.881,43.8668,-15.974000000000004,175,75
2026-05-09 14:44:51.882,2,0.1,-0.1,1.49,28.681,50.6368,-15.604,175,75
2026-05-09 14:44:51.909,2,0.08,-0.14,1.48,37.330999999999996,66.1268,-11.214000000000002,175,75
2026-05-09 14:44:51.920,2,0.05,-0.21,1.48,41.181,83.1368,-9.994000000000003,175,75
2026-05-09 14:44:51.932,2,0.01,-0.32,1.53,46.721,106.2468,-12.074000000000002,175,75
2026-05-09 14:44:51.957,2,-0.0,-0.36,1.56,49.411,97.4068,-15.974000000000004,175,75
2026-05-09 14:44:52.003,2,-0.1,-0.27,1.4,37.701,53.2568,-3.774000000000001,175,75
2026-05-09 14:44:52.020,2,-0.14,-0.25,1.34,39.281,52.6468,-2.554000000000002,175,75
2026-05-09 14:44:52.034,2,-0.18,-0.22,1.28,40.201,53.6268,-1.2140000000000022,175,75
2026-05-09 14:44:52.070,2,-0.24,-0.03,1.19,39.711,29.236800000000002,10.065999999999999,175,75
2026-05-09 14:44:52.081,2,-0.24,0.01,1.16,38.370999999999995,14.9068,13.475999999999997,175,75
2026-05-09 14:44:52.093,2,-0.23,0.08,1.12,38.370999999999995,0.6368000000000009,16.525999999999996,175,75
2026-05-09 14:44:52.104,2,-0.2,0.15,1.07,39.471,-12.593199999999998,20.426,175,75
2026-05-09 14:44:52.120,2,-0.17,0.23,1.02,41.601,-20.1532,21.705999999999996,175,75
2026-05-09 14:44:52.152,2,-0.11,0.67,0.97,54.351,-19.3632,9.755999999999997,175,75
2026-05-09 14:44:52.178,2,-0.07,1.12,0.99,59.161,-23.3232,12.565999999999999,175,75
2026-05-09 14:44:52.188,2,-0.02,1.28,1.02,58.921,-26.623199999999997,16.345999999999997,175,75
2026-05-09 14:44:52.206,2,0.03,1.38,1.09,59.041,-30.8232,20.796,175,75
2026-05-09 14:44:52.206,2,0.12,1.32,1.19,62.331,-36.5632,21.105999999999998,175,75
2026-05-09 14:44:52.218,2,0.14,1.13,1.31,68.191,-40.6432,16.645999999999997,175,75
2026-05-09 14:44:52.235,2,0.09,0.87,1.42,76.78099999999999,-44.1232,6.345999999999998,175,75
2026-05-09 14:44:52.264,2,-0.09,0.42,1.59,87.761,-72.1732,0.8559999999999981,175,75
2026-05-09 14:44:52.275,2,-0.24,0.1,1.69,75.14099999999999,-80.5232,6.705999999999998,175,75
2026-05-09 14:44:52.287,2,-0.4,-0.23,1.68,51.300999999999995,-81.1932,16.226,175,75
2026-05-09 14:44:52.287,2,-0.43,-0.4,1.6,32.821,-82.5332,24.336,175,75
2026-05-09 14:44:52.301,2,-0.38,-0.41,1.48,17.761000000000003,-76.9832,28.605999999999998,175,75
2026-05-09 14:44:52.322,2,-0.23,-0.1,1.5,17.521,30.8168,22.805999999999997,175,75
2026-05-09 14:44:52.334,2,-0.17,-0.04,1.7,15.751000000000001,149.8468,20.616,175,75
2026-05-09 14:44:52.344,2,-0.2,-0.2,1.93,3.6109999999999998,232.6468,14.025999999999998,175,75
2026-05-09 14:44:52.376,2,-0.32,-0.33,2.26,-9.309,210.9368,-4.694000000000003,175,75
2026-05-09 14:44:52.386,2,-0.3,-0.28,2.47,-20.589,53.2568,-14.024000000000001,175,75
2026-05-09 14:44:52.407,2,-0.33,-0.44,2.33,-36.749,-57.473200000000006,0.3059999999999974,175,75
2026-05-09 14:44:52.420,2,-0.39,-0.58,2.11,-47.479,-117.0432,10.425999999999998,175,75
2026-05-09 14:44:52.431,2,-0.48,-0.57,1.76,-49.309000000000005,-136.6232,24.575999999999997,175,75
2026-05-09 14:44:52.431,2,-0.48,-0.46,1.52,-46.689,-125.2132,28.415999999999997,175,75
2026-05-09 14:44:52.454,2,-0.45,-0.21,1.29,-34.009,-99.9132,22.445999999999998,175,75
2026-05-09 14:44:52.454,2,-0.27,0.06,1.12,-6.018999999999999,-62.533199999999994,2.565999999999997,175,75
2026-05-09 14:44:52.476,2,0.02,0.32,1.08,24.471,-11.983199999999998,4.815999999999997,175,75
2026-05-09 14:44:52.476,2,0.12,0.56,1.12,38.550999999999995,37.406800000000004,31.285999999999998,175,75
2026-05-09 14:44:52.500,2,0.0,0.77,1.2,41.181,88.6868,40.976,175,75
2026-05-09 14:44:52.500,2,-0.03,0.81,1.35,29.711000000000002,110.3968,21.836,175,75
2026-05-09 14:44:52.509,2,0.09,0.83,1.49,9.711000000000002,92.6468,18.665999999999997,175,75
2026-05-09 14:44:52.535,2,0.18,0.92,1.57,-6.078999999999999,21.736800000000002,28.785999999999998,175,75
2026-05-09 14:44:52.535,2,0.2,1.09,1.6,-5.648999999999999,-78.6332,32.926,175,75
2026-05-09 14:44:52.562,2,0.05,1.41,1.37,17.091,-183.3232,38.476,175,75
2026-05-09 14:44:52.574,2,-0.08,1.42,1.17,20.691000000000003,-192.4732,39.336,175,75
2026-05-09 14:44:52.574,2,-0.16,1.33,1.06,16.781000000000002,-188.1432,41.346,175,75
2026-05-09 14:44:52.603,2,-0.25,1.07,0.92,3.9210000000000003,-137.5332,38.296,175,75
2026-05-09 14:44:52.608,2,-0.23,1.01,0.88,4.041000000000001,-106.6232,34.456,175,75
2026-05-09 14:44:52.628,2,-0.12,1.1,0.87,18.431,-34.8532,29.275999999999996,175,75
2026-05-09 14:44:52.643,2,-0.04,1.15,0.95,24.221,2.956800000000001,28.785999999999998,175,75
2026-05-09 14:44:52.661,2,0.01,1.1,1.08,24.831000000000003,37.406800000000004,28.296,175,75
2026-05-09 14:44:52.661,2,-0.01,0.89,1.2,24.891000000000002,53.8068,24.336,175,75
2026-05-09 14:44:52.691,2,-0.21,0.29,1.39,10.501000000000001,40.5768,20.796,175,75
2026-05-09 14:44:52.705,2,-0.3,-0.01,1.47,-6.869,26.366799999999998,21.955999999999996,175,75
2026-05-09 14:44:52.716,2,-0.34,-0.35,1.55,-31.999,15.326800000000002,20.616,175,75
2026-05-09 14:44:52.733,2,-0.28,-0.71,1.62,-68.699,-0.21319999999999872,15.125999999999998,175,75
2026-05-09 14:44:52.744,2,-0.26,-0.68,1.63,-74.069,-0.0931999999999995,4.205999999999998,175,75
2026-05-09 14:44:52.757,2,-0.21,-0.43,1.61,-60.469,15.636800000000001,-22.554000000000002,175,75
2026-05-09 14:44:52.768,2,-0.04,-0.17,1.74,-42.359,59.9668,-33.774,175,75
2026-05-09 14:44:52.785,2,-0.0,0.04,1.89,-33.339,105.2068,-22.434000000000005,175,75
2026-05-09 14:44:52.791,2,-0.07,0.14,1.98,-28.029,118.8068,-25.054000000000002,175,75
2026-05-09 14:44:52.848,2,-0.1,0.52,2.03,11.911000000000001,-66.7432,-10.424000000000003,175,75
2026-05-09 14:44:52.860,2,-0.06,0.48,1.94,13.251000000000001,-70.89320000000001,-9.694000000000003,175,75
2026-05-09 14:44:52.871,2,-0.03,0.35,1.91,17.881,-42.2932,-10.184000000000001,175,75
2026-05-09 14:44:52.880,2,-0.01,0.07,1.91,27.821,-9.733199999999998,-12.614,175,75
2026-05-09 14:44:52.893,2,-0.05,-0.27,1.95,39.221,7.286800000000001,-13.714000000000002,175,75
2026-05-09 14:44:52.906,2,-0.08,-0.46,1.98,44.041,-0.283199999999999,-12.614,175,75
2026-05-09 14:44:52.909,2,-0.16,-0.63,1.98,45.141,-25.8932,-12.684000000000001,175,75
2026-05-09 14:44:52.921,2,-0.22,-0.74,1.94,38.741,-53.0832,-13.594000000000001,175,75
2026-05-09 14:44:52.968,2,-0.5,-0.57,1.39,-3.2789999999999995,-12.533199999999999,11.955999999999998,175,75
2026-05-09 14:44:52.986,2,-0.43,-0.36,1.32,2.2110000000000003,9.786800000000001,-3.774000000000001,175,75
2026-05-09 14:44:52.987,2,-0.26,-0.12,1.34,16.181,31.126800000000003,-35.244,175,75
2026-05-09 14:44:53.051,2,0.01,1.35,1.35,33.861,-3.873199999999999,11.285999999999998,175,75
2026-05-09 14:44:53.056,2,0.03,1.55,1.35,0.9310000000000009,-78.0232,24.336,175,75
2026-05-09 14:44:53.069,2,0.18,1.7,1.33,-24.308999999999997,-125.95320000000001,29.145999999999997,175,75
2026-05-09 14:44:53.084,2,0.22,1.77,1.23,-27.788999999999998,-140.8932,30.855999999999998,175,75
2026-05-09 14:44:53.088,2,0.1,1.64,1.12,-6.449,-125.70320000000001,22.195999999999998,175,75
2026-05-09 14:44:53.128,2,-0.12,1.47,1.12,39.891,-78.0832,13.665999999999999,175,75
2026-05-09 14:44:53.153,2,-0.25,1.14,1.29,40.141,-78.5132,22.746,175,75
2026-05-09 14:44:53.153,2,-0.22,0.93,1.4,38.190999999999995,-77.9632,21.165999999999997,175,75
2026-05-09 14:44:53.165,2,-0.19,0.69,1.47,40.080999999999996,-77.6532,19.575999999999997,175,75
2026-05-09 14:44:53.182,2,-0.25,0.41,1.53,45.751,-72.7132,18.415999999999997,175,75
2026-05-09 14:44:53.204,2,-0.55,-0.16,1.49,43.800999999999995,-34.303200000000004,26.345999999999997,175,75
2026-05-09 14:44:53.236,2,-0.64,-0.21,1.29,16.181,28.3168,38.726,175,75
2026-05-09 14:44:53.254,2,-0.41,-0.32,1.39,-0.2889999999999997,112.7668,40.306,175,75
2026-05-09 14:44:53.268,2,-0.33,-0.41,1.51,-10.649,149.2368,36.226,175,75
2026-05-09 14:44:53.279,2,-0.31,-0.46,1.61,-18.819,170.2668,19.816,175,75
2026-05-09 14:44:53.293,2,-0.36,-0.37,1.65,-19.069,159.5968,-2.2540000000000013,175,75
2026-05-09 14:44:53.303,2,-0.37,-0.17,1.66,-16.809,117.3468,-18.354,175,75
2026-05-09 14:44:53.314,2,-0.31,-0.01,1.68,-28.819,63.3768,-13.224000000000004,175,75
2026-05-09 14:44:53.326,2,-0.3,0.05,1.63,-49.559000000000005,25.3268,-1.394000000000002,175,75
2026-05-09 14:44:53.332,2,-0.27,0.08,1.52,-74.619,-4.003199999999998,8.055999999999997,175,75
2026-05-09 14:44:53.357,2,-0.12,0.17,1.42,-68.519,66.91680000000001,5.365999999999998,175,75
2026-05-09 14:44:53.369,2,-0.09,0.22,1.48,-48.399,131.8568,-3.0440000000000005,175,75
2026-05-09 14:44:53.382,2,-0.1,0.27,1.65,-26.569,189.9668,-16.944000000000003,175,75
2026-05-09 14:44:53.392,2,-0.1,0.34,1.83,-12.788999999999998,212.4068,-28.044000000000004,175,75
2026-05-09 14:44:53.402,2,-0.03,0.53,2.02,-2.1189999999999993,195.6368,-29.994,175,75
2026-05-09 14:44:53.414,2,-0.05,0.76,2.2,4.2810000000000015,138.4968,-15.854,175,75
2026-05-09 14:44:53.418,2,-0.06,0.88,2.29,9.711000000000002,71.1268,-4.574000000000002,175,75
2026-05-09 14:44:53.446,2,-0.07,0.66,2.28,21.601000000000003,-88.9332,18.355999999999998,175,75
2026-05-09 14:44:53.455,2,-0.23,0.28,2.1,30.501,-113.7532,28.476,175,75
2026-05-09 14:44:53.470,2,-0.39,-0.19,1.92,36.781,-105.2132,39.816,175,75
2026-05-09 14:44:53.475,2,-0.48,-0.61,1.85,31.181,-88.0232,53.906,175,75
2026-05-09 14:44:53.486,2,-0.42,-1.3,1.93,-4.619,-61.6832,87.316,175,75
2026-05-09 14:44:53.504,2,-0.38,-1.79,2.03,-57.419000000000004,-41.1932,132.566,175,75
2026-05-09 14:44:53.515,2,-0.47,-1.72,2.05,-109.069,-38.3932,139.946,175,75
2026-05-09 14:44:53.528,2,-0.82,-1.1,1.82,-89.369,-54.1232,30.676,175,75
2026-05-09 14:44:53.550,2,-0.48,-0.37,1.45,49.101,-30.2132,-197.494,175,75
2026-05-09 14:44:53.550,2,-0.18,0.06,1.4,117.03099999999999,12.5868,-232.744,175,75
2026-05-09 14:44:53.573,2,0.11,1.27,1.26,98.981,81.3068,107.446,175,75
2026-05-09 14:44:53.594,2,-0.29,1.31,1.35,89.351,-18.513199999999998,-4.694000000000003,175,75
2026-05-09 14:44:53.598,2,0.68,1.29,1.41,34.650999999999996,-22.233200000000004,17.685999999999996,175,75
2026-05-09 14:44:53.613,2,0.38,1.5,1.18,12.641000000000002,-61.193200000000004,42.566,175,75
2026-05-09 14:44:53.624,2,0.31,1.41,1.1,26.481,-97.7132,11.525999999999998,175,75
2026-05-09 14:44:53.654,2,0.05,1.29,0.81,37.521,-105.8232,12.386,175,75
2026-05-09 14:44:53.654,2,0.01,1.22,0.74,25.811,-100.9532,5.185999999999998,175,75
2026-05-09 14:44:53.669,2,-0.02,1.22,0.7,13.311,-84.9132,4.6359999999999975,175,75
2026-05-09 14:44:53.682,2,-0.08,1.23,0.66,4.1610000000000005,-56.1332,2.3859999999999975,175,75
2026-05-09 14:44:53.688,2,-0.08,1.21,0.68,1.6610000000000005,-9.4232,-3.714000000000002,175,75
2026-05-09 14:44:53.703,2,-0.05,1.16,0.75,8.741,41.1268,-5.5440000000000005,175,75
2026-05-09 14:44:53.713,2,-0.0,1.15,0.83,15.321000000000002,68.1968,-7.134,175,75
2026-05-09 14:44:53.738,2,0.06,1.08,1.07,21.361,97.7668,-9.874000000000002,175,75
2026-05-09 14:44:53.763,2,-0.14,0.44,1.36,12.091000000000001,20.266800000000003,-10.664000000000001,175,75
2026-05-09 14:44:53.774,2,-0.12,0.26,1.41,6.721000000000001,-30.763199999999998,-9.874000000000002,175,75
2026-05-09 14:44:53.786,2,-0.13,0.17,1.44,1.8510000000000009,-55.703199999999995,-8.964000000000002,175,75
2026-05-09 14:44:53.800,2,-0.09,0.11,1.43,-7.359,-63.5732,-9.814000000000004,175,75
2026-05-09 14:44:53.810,2,-0.02,0.12,1.41,-15.718999999999998,-53.3232,-14.024000000000001,175,75
2026-05-09 14:44:53.823,2,0.06,0.17,1.41,-18.339,-29.5432,-22.074000000000005,175,75
2026-05-09 14:44:53.823,2,0.05,0.2,1.47,-12.608999999999998,3.5668000000000015,-27.804000000000002,175,75
2026-05-09 14:44:53.837,2,-0.0,0.15,1.61,-0.6489999999999996,51.3668,-35.544000000000004,175,75
2026-05-09 14:44:53.858,2,-0.16,-0.13,1.83,-4.249,86.1268,-39.324000000000005,175,75
2026-05-09 14:44:53.868,2,-0.22,-0.32,1.92,-17.669,68.8668,-36.824000000000005,175,75
2026-05-09 14:44:53.891,2,-0.14,-0.57,2.13,-46.509,24.0468,-49.873999999999995,175,75
2026-05-09 14:44:53.913,2,-0.0,-0.15,2.01,-14.498999999999999,20.2068,-54.994,175,75
2026-05-09 14:44:53.924,2,0.0,-0.02,1.99,15.751000000000001,28.866799999999998,-43.224000000000004,175,75
2026-05-09 14:44:53.935,2,-0.03,-0.05,2.01,22.461000000000002,33.8068,-36.214,175,75
2026-05-09 14:44:53.948,2,-0.1,-0.17,2.03,17.031000000000002,35.8168,-31.584000000000003,175,75
2026-05-09 14:44:53.965,2,-0.15,-0.34,2.03,8.801000000000002,24.236800000000002,-25.184000000000005,175,75
2026-05-09 14:44:53.976,2,-0.17,-0.48,2.01,6.301000000000001,7.286800000000001,-20.244,175,75
2026-05-09 14:44:53.981,2,-0.15,-0.65,2.0,3.1910000000000007,-10.4032,-17.684000000000005,175,75
2026-05-09 14:44:53.995,2,-0.13,-0.78,1.96,-4.068999999999999,-17.1032,-19.574000000000005,175,75
2026-05-09 14:44:54.007,2,-0.17,-0.84,1.9,-12.238999999999999,-9.0632,-24.574000000000005,175,75
2026-05-09 14:44:54.018,2,-0.36,-0.58,1.65,-15.959,24.9068,-37.684000000000005,175,75
2026-05-09 14:44:54.030,2,-0.4,-0.31,1.54,-5.468999999999999,32.9568,-55.664,175,75
2026-05-09 14:44:54.042,2,-0.28,-0.02,1.49,10.811,42.6468,-69.574,175,75
2026-05-09 14:44:54.052,2,0.06,0.39,1.53,23.801000000000002,56.9768,-44.504000000000005,175,75
2026-05-09 14:44:54.069,2,0.18,0.84,1.54,28.921000000000003,53.9268,-14.084000000000003,175,75
2026-05-09 14:44:54.100,2,-0.07,1.21,1.22,31.911000000000005,-33.2032,-24.084000000000003,175,75
2026-05-09 14:44:54.116,2,-0.2,1.27,1.0,29.281000000000002,-85.3432,-15.854,175,75
2026-05-09 14:44:54.126,2,-0.26,1.34,0.87,24.351000000000003,-105.8232,-9.144000000000002,175,75
2026-05-09 14:44:54.129,2,-0.27,1.41,0.77,15.631,-103.4532,-3.4740000000000038,175,75
2026-05-09 14:44:54.143,2,-0.24,1.44,0.7,5.871000000000001,-83.8732,0.5559999999999974,175,75
2026-05-09 14:44:54.153,2,-0.18,1.44,0.68,-4.858999999999999,-52.2932,2.7459999999999987,175,75
2026-05-09 14:44:54.157,2,-0.14,1.42,0.72,-13.698999999999998,-6.7432,-1.0340000000000025,175,75
2026-05-09 14:44:54.169,2,-0.14,1.4,0.79,-10.838999999999999,61.8568,-11.214000000000002,175,75
2026-05-09 14:44:54.178,2,-0.13,1.39,0.87,0.6310000000000002,100.3268,-16.334000000000003,175,75
2026-05-09 14:44:54.195,2,-0.11,1.4,1.0,16.111,115.1468,-19.324000000000005,175,75
2026-05-09 14:44:54.209,2,-0.15,1.43,1.1,27.581,98.3768,-15.304000000000002,175,75
2026-05-09 14:44:54.209,2,-0.21,1.43,1.16,36.851,47.6468,0.06599999999999895,175,75
2026-05-09 14:44:54.243,2,-0.4,1.15,1.25,40.571,-52.233200000000004,46.406,175,75
2026-05-09 14:44:54.254,2,-0.39,1.04,1.28,46.541,-35.5232,50.796,175,75
2026-05-09 14:44:54.278,2,-0.34,0.39,1.67,65.441,56.4268,38.416,175,75
2026-05-09 14:44:54.301,2,-0.57,-0.56,2.13,29.591000000000005,107.0968,24.455999999999996,175,75
2026-05-09 14:44:54.316,2,-0.63,-0.8,2.23,9.961000000000002,71.6068,28.605999999999998,175,75
2026-05-09 14:44:54.316,2,-0.73,-0.87,2.29,-3.5189999999999992,34.8468,34.336,175,75
2026-05-09 14:44:54.329,2,-0.75,-0.78,2.27,-10.108999999999998,5.636800000000001,31.836,175,75
2026-05-09 14:44:54.341,2,-0.72,-0.59,2.19,-5.779,2.956800000000001,12.195999999999998,175,75
2026-05-09 14:44:54.347,2,-0.57,-0.38,2.14,5.9910000000000005,28.986800000000002,-15.364000000000004,175,75
2026-05-09 14:44:54.360,2,-0.27,-0.2,2.21,14.651,68.74680000000001,-17.494,175,75
2026-05-09 14:44:54.369,2,-0.17,-0.0,2.32,10.631,116.3068,11.645999999999997,175,75
2026-05-09 14:44:54.393,2,-0.38,-0.08,2.4,-21.508999999999997,88.4368,-1.394000000000002,175,75
2026-05-09 14:44:54.410,2,-0.33,-0.12,2.37,-33.029,30.516800000000003,0.7359999999999971,175,75
2026-05-09 14:44:54.436,2,-0.31,0.06,1.99,-41.809000000000005,-57.9032,3.9659999999999975,175,75
2026-05-09 14:44:54.436,2,-0.28,0.09,1.82,-44.009,-42.4132,2.9259999999999984,175,75
2026-05-09 14:44:54.447,2,-0.26,0.13,1.65,-44.859,-10.343199999999998,-0.6040000000000028,175,75
2026-05-09 14:44:54.459,2,-0.27,0.17,1.56,-42.539,21.2468,-9.504000000000001,175,75
2026-05-09 14:44:54.481,2,-0.2,0.3,1.47,-33.279,75.6368,-29.384,175,75
2026-05-09 14:44:54.486,2,-0.13,0.43,1.45,-30.898999999999997,75.1468,-37.004000000000005,175,75
2026-05-09 14:44:54.505,2,-0.1,0.55,1.43,-30.779,60.696799999999996,-39.144000000000005,175,75
2026-05-09 14:44:54.528,2,0.01,0.9,1.34,-29.369,-1.5631999999999984,-32.984,175,75
2026-05-09 14:44:54.539,2,0.04,1.07,1.26,-25.839,-31.983200000000004,-24.204,175,75
2026-05-09 14:44:54.565,2,-0.01,1.19,1.09,-13.338999999999999,-33.5732,-12.864,175,75
2026-05-09 14:44:54.587,2,0.03,1.13,1.12,16.111,21.9768,-9.504000000000001,175,75
2026-05-09 14:44:54.612,2,-0.11,0.66,1.5,73.981,96.1868,8.725999999999997,175,75
2026-05-09 14:44:54.629,2,-0.14,0.33,1.71,78.551,93.4368,20.496,175,75
2026-05-09 14:44:54.639,2,-0.23,-0.2,1.96,68.611,78.7468,33.056,175,75
2026-05-09 14:44:54.653,2,-0.28,-0.68,2.17,48.071,62.7068,37.07599999999999,175,75
2026-05-09 14:44:54.659,2,-0.28,-1.13,2.34,23.611,36.4268,37.316,175,75
2026-05-09 14:44:54.670,2,-0.27,-1.51,2.47,-9.979,-8.5132,44.696,175,75
2026-05-09 14:44:54.680,2,-0.45,-1.32,2.37,-31.869,-59.1832,44.885999999999996,175,75
2026-05-09 14:44:54.706,2,-0.88,-0.4,1.81,26.481,-75.1532,-60.854,175,75
2026-05-09 14:44:54.715,2,-0.69,-0.09,1.65,70.631,-48.0832,-110.544,175,75
2026-05-09 14:44:54.730,2,-0.11,0.54,1.75,62.461,75.5768,27.805999999999997,175,75
2026-05-09 14:44:54.749,2,-0.24,0.59,1.68,25.871000000000002,57.0368,9.815999999999999,175,75
2026-05-09 14:44:54.763,2,-0.2,0.34,1.81,-8.279,34.7868,-45.364000000000004,175,75
2026-05-09 14:44:54.774,2,-0.02,0.34,1.78,-34.429,32.406800000000004,-34.814,175,75
2026-05-09 14:44:54.787,2,-0.21,0.55,1.48,-13.639,-26.7432,-49.144000000000005,175,75
2026-05-09 14:44:54.799,2,-0.08,0.78,1.37,-13.518999999999998,-43.3932,-42.554,175,75
2026-05-09 14:44:54.820,2,-0.08,1.12,1.17,-18.639,-55.953199999999995,-26.584000000000003,175,75
2026-05-09 14:44:54.833,2,-0.04,1.39,1.05,-17.608999999999998,-60.64320000000001,-17.924,175,75
2026-05-09 14:44:54.854,2,0.07,1.45,0.97,-13.639,-33.7532,-1.274000000000001,175,75
2026-05-09 14:44:54.877,2,0.06,1.12,0.98,9.041,-1.3731999999999989,-4.324000000000002,175,75
2026-05-09 14:44:54.889,2,0.04,1.16,0.99,22.091,0.08680000000000199,-2.8640000000000008,175,75
2026-05-09 14:44:54.898,2,-0.03,1.15,1.02,32.641,5.146800000000002,2.3859999999999975,175,75
2026-05-09 14:44:54.916,2,-0.08,1.05,1.08,39.101,13.196800000000001,4.815999999999997,175,75
2026-05-09 14:44:54.927,2,-0.16,0.92,1.16,49.351,24.5968,5.675999999999998,175,75
2026-05-09 14:44:54.939,2,-0.2,0.83,1.22,58.001,31.736800000000002,5.615999999999998,175,75
2026-05-09 14:44:54.953,2,-0.26,0.64,1.33,66.42099999999999,27.766800000000003,8.785999999999998,175,75
2026-05-09 14:44:54.967,2,-0.28,0.55,1.4,63.611000000000004,15.206800000000001,12.865999999999998,175,75
2026-05-09 14:44:54.967,2,-0.29,0.44,1.5,56.050999999999995,-0.03319999999999901,16.836,175,75
2026-05-09 14:44:54.986,2,-0.35,0.24,1.62,41.661,-4.6732,16.895999999999997,175,75
2026-05-09 14:44:55.003,2,-0.45,0.0,1.7,26.301000000000002,-1.0731999999999982,11.465999999999998,175,75
2026-05-09 14:44:55.015,2,-0.52,-0.14,1.75,14.041,0.5168000000000017,8.295999999999998,175,75
2026-05-09 14:44:55.038,2,-0.6,-0.26,1.9,-5.289,0.8168000000000006,-3.594000000000001,175,75
2026-05-09 14:44:55.038,2,-0.55,-0.17,1.93,-4.129,-3.203199999999999,-6.394000000000002,175,75
2026-05-09 14:44:55.050,2,-0.5,-0.03,1.95,3.431000000000001,-10.4032,-3.2940000000000005,175,75
2026-05-09 14:44:55.062,2,-0.46,0.08,1.96,6.971000000000001,-16.013199999999998,-0.6640000000000015,175,75
2026-05-09 14:44:55.069,2,-0.43,0.15,1.94,1.7810000000000006,-20.343199999999996,1.0359999999999978,175,75
2026-05-09 14:44:55.348,2,-0.4,0.23,1.89,-6.018999999999999,-24.6732,2.0759999999999987,175,75
2026-05-09 14:44:55.348,2,-0.38,0.32,1.82,-8.219,-21.8632,2.565999999999997,175,75
2026-05-09 14:44:55.348,2,-0.39,0.36,1.79,-3.2189999999999994,-9.0632,2.315999999999997,175,75
2026-05-09 14:44:55.348,2,-0.4,0.33,1.75,-9.799,18.3168,-2.3140000000000036,175,75
2026-05-09 14:44:55.348,2,-0.37,0.4,1.74,-13.149000000000001,17.4068,-1.764000000000003,175,75
2026-05-09 14:44:55.348,2,-0.34,0.45,1.72,-12.608999999999998,18.196800000000003,-0.24400000000000333,175,75
2026-05-09 14:44:55.348,2,-0.32,0.49,1.7,-10.169,19.3568,0.06599999999999895,175,75
2026-05-09 14:44:55.349,2,-0.29,0.51,1.68,-6.869,20.8168,0.06599999999999895,175,75
2026-05-09 14:44:55.349,2,-0.28,0.51,1.69,-4.0089999999999995,21.1868,-0.7240000000000038,175,75
2026-05-09 14:44:55.349,2,-0.37,0.39,1.59,-7.539,-29.6732,-2.554000000000002,175,75
2026-05-09 14:44:55.349,2,-0.39,0.41,1.52,-9.559,-29.8532,-2.4940000000000033,175,75
2026-05-09 14:44:55.349,2,-0.39,0.42,1.49,-10.588999999999999,-20.4632,-2.0040000000000013,175,75
2026-05-09 14:44:55.349,2,-0.39,0.45,1.47,-10.408999999999999,-4.123199999999999,-2.7440000000000033,175,75
2026-05-09 14:44:55.349,2,-0.38,0.47,1.48,-8.459,22.8968,-4.634,175,75
2026-05-09 14:44:55.349,2,-0.34,0.49,1.52,-4.858999999999999,46.6768,-6.214000000000002,175,75
2026-05-09 14:44:55.349,2,-0.32,0.5,1.58,-1.5689999999999995,54.1068,-7.554000000000002,175,75
2026-05-09 14:44:55.349,2,-0.29,0.53,1.63,0.6310000000000002,48.6268,-8.414000000000001,175,75
2026-05-09 14:44:55.349,2,-0.27,0.57,1.65,1.4210000000000003,30.9968,-7.004000000000001,175,75
2026-05-09 14:44:55.349,2,-0.26,0.6,1.63,1.5410000000000004,6.676800000000002,-3.5340000000000025,175,75
2026-05-09 14:44:55.453,2,-0.27,0.64,1.58,0.9910000000000005,-12.413199999999998,-0.8540000000000028,175,75
2026-05-09 14:44:55.453,2,-0.29,0.67,1.46,-0.1089999999999991,-14.303199999999999,0.4259999999999984,175,75
2026-05-09 14:44:55.453,2,-0.29,0.66,1.44,-1.0189999999999992,-4.243199999999998,-0.5440000000000005,175,75
2026-05-09 14:44:55.453,2,-0.29,0.63,1.45,-2.1189999999999993,11.676800000000002,-2.924000000000003,175,75
2026-05-09 14:44:55.453,2,-0.31,0.56,1.51,0.6310000000000002,33.8068,-11.464000000000002,175,75
2026-05-09 14:44:55.453,2,-0.32,0.54,1.53,3.4910000000000005,34.476800000000004,-15.114000000000004,175,75
2026-05-09 14:44:55.453,2,-0.32,0.54,1.53,5.751,27.6468,-16.704,175,75
2026-05-09 14:44:55.740,2,-0.34,0.57,1.43,3.681,-1.5631999999999984,-17.684000000000005,175,75
2026-05-09 14:44:55.740,2,-0.31,0.59,1.36,1.971000000000001,-10.523199999999997,-18.774,175,75
2026-05-09 14:44:55.740,2,-0.24,0.64,1.3,-0.5289999999999995,-12.1732,-20.184000000000005,175,75
2026-05-09 14:44:55.740,2,-0.19,0.73,1.27,-0.8389999999999995,0.8168000000000006,-22.434000000000005,175,75
2026-05-09 14:44:55.740,2,-0.14,0.8,1.25,0.6910000000000007,17.9568,-26.824000000000005,175,75
2026-05-09 14:44:55.740,2,-0.02,0.89,1.27,0.7510000000000003,17.9568,-30.794000000000004,175,75
2026-05-09 14:44:55.740,2,-0.01,1.03,1.29,5.811000000000001,15.936800000000002,-26.944000000000003,175,75
2026-05-09 14:44:55.740,2,0.05,1.1,1.27,14.891000000000002,15.936800000000002,-25.114000000000004,175,75
2026-05-09 14:44:55.741,2,0.09,1.17,1.29,27.091,18.4968,-22.804000000000002,175,75
2026-05-09 14:44:55.741,2,0.09,1.26,1.31,41.661,33.5668,-18.894000000000005,175,75
2026-05-09 14:44:55.741,2,0.06,1.34,1.38,57.521,59.2368,-13.414000000000001,175,75
2026-05-09 14:44:55.741,2,-0.07,1.31,1.54,83.801,95.8768,-7.254000000000001,175,75
2026-05-09 14:44:55.741,2,-0.1,1.12,1.77,103.92099999999999,110.5768,-4.204000000000001,175,75
2026-05-09 14:44:55.741,2,-0.18,0.87,2.03,109.961,106.9768,8.235999999999997,175,75
2026-05-09 14:44:55.741,2,-0.56,-0.04,2.44,57.271,41.7368,-5.424000000000003,175,75
2026-05-09 14:44:55.741,2,-0.66,-0.52,2.59,8.681000000000001,4.2368000000000015,-27.744,175,75
2026-05-09 14:44:55.741,2,-0.82,-0.79,2.64,-39.619,21.306800000000003,-38.294000000000004,175,75
2026-05-09 14:44:55.741,2,-0.97,-0.69,2.58,-63.149,48.196799999999996,-54.144000000000005,175,75
2026-05-09 14:44:55.741,2,-1.0,-0.6,2.62,-57.909,59.5368,-74.994,175,75
2026-05-09 14:44:55.985,2,-0.94,-0.52,2.72,-37.359,66.7368,-91.274,175,75
2026-05-09 14:44:55.985,2,-0.73,-0.39,2.76,-19.919,40.2068,-86.944,175,75
2026-05-09 14:44:55.985,2,-0.65,-0.06,2.56,-44.009,-63.453199999999995,-78.354,175,75
2026-05-09 14:44:55.985,2,-0.6,0.14,2.35,-60.109,-78.0232,-78.964,175,75
2026-05-09 14:44:55.986,2,-0.5,0.36,2.15,-64.739,-78.39320000000001,-76.944,175,75
2026-05-09 14:44:55.986,2,-0.39,0.58,1.97,-56.869,-55.033199999999994,-72.554,175,75
2026-05-09 14:44:55.986,2,-0.32,0.69,1.83,-47.609,-23.513199999999998,-68.224,175,75
2026-05-09 14:44:55.986,2,-0.26,0.77,1.58,-66.569,-37.3532,-62.684,175,75
2026-05-09 14:44:55.986,2,-0.26,0.87,1.46,-76.749,-55.1532,-56.763999999999996,175,75
2026-05-09 14:44:55.986,2,-0.07,1.01,1.16,-72.669,-58.75320000000001,-51.944,175,75
2026-05-09 14:44:55.986,2,-0.22,1.04,0.99,-50.719,-1.0731999999999982,-57.92400000000001,175,75
2026-05-09 14:44:55.986,2,-0.2,1.1,0.97,-43.029,11.9768,-53.964,175,75
2026-05-09 14:44:55.986,2,-0.17,1.01,1.0,-45.649,13.5668,-35.054,175,75
2026-05-09 14:44:55.986,2,-0.14,0.94,0.98,-38.219,1.546800000000001,-32.374,175,75
2026-05-09 14:44:55.987,2,-0.18,0.92,0.89,-23.578999999999997,-23.513199999999998,-22.254000000000005,175,75
2026-05-09 14:44:56.018,2,-0.22,0.88,0.85,-20.648999999999997,-22.593200000000003,-12.074000000000002,175,75
2026-05-09 14:44:56.083,2,-0.24,0.84,0.85,-17.608999999999998,-15.283199999999999,-9.204,175,75
2026-05-09 14:44:56.083,2,-0.24,0.8,0.84,-14.619,-9.123199999999999,-6.584000000000003,175,75
2026-05-09 14:44:56.083,2,-0.24,0.78,0.86,-10.588999999999999,-4.913199999999998,-2.434000000000001,175,75
2026-05-09 14:44:56.083,2,-0.23,0.74,0.92,-6.318999999999999,-11.9232,5.495999999999999,175,75
2026-05-09 14:44:56.083,2,-0.21,0.7,0.96,-5.959,-16.193199999999997,9.695999999999998,175,75
2026-05-09 14:44:56.083,2,-0.18,0.64,0.99,-3.9489999999999994,-14.363199999999997,11.035999999999998,175,75
2026-05-09 14:44:56.083,2,-0.18,0.43,1.17,2.091,17.3468,7.3859999999999975,175,75
2026-05-09 14:44:56.374,2,-0.2,0.22,1.3,3.3710000000000004,35.5768,4.575999999999999,175,75
2026-05-09 14:44:56.374,2,-0.25,-0.07,1.44,3.9810000000000008,41.4868,4.025999999999998,175,75
2026-05-09 14:44:56.374,2,-0.29,-0.35,1.56,2.761000000000001,33.1368,9.945999999999998,175,75
2026-05-09 14:44:56.374,2,-0.39,-0.74,1.68,-3.4589999999999996,19.0468,29.145999999999997,175,75
2026-05-09 14:44:56.374,2,-0.4,-1.24,1.78,-23.279,-2.4731999999999985,76.95599999999999,175,75
2026-05-09 14:44:56.374,2,-0.47,-1.59,1.84,-50.409,-32.7132,136.346,175,75
2026-05-09 14:44:56.375,2,-0.78,-1.57,1.82,-55.289,-20.703199999999995,138.966,175,75
2026-05-09 14:44:56.375,2,-1.19,-1.35,1.64,-30.839,46.3068,66.46600000000001,175,75
2026-05-09 14:44:56.375,2,-0.84,-0.98,1.62,31.721,77.5868,-54.384,175,75
2026-05-09 14:44:56.375,2,-0.63,-0.82,1.91,71.971,75.4568,-108.044,175,75
2026-05-09 14:44:56.375,2,-0.47,-0.68,2.14,99.041,118.8068,-138.354,175,75
2026-05-09 14:44:56.376,2,-0.04,-0.28,2.4,42.701,129.7168,14.945999999999998,175,75
2026-05-09 14:44:56.376,2,-0.6,-0.14,2.2,-13.698999999999998,9.176800000000002,30.915999999999997,175,75
2026-05-09 14:44:56.376,2,-0.69,-0.3,2.25,-37.419000000000004,-62.173199999999994,-8.354000000000003,175,75
2026-05-09 14:44:56.376,2,-0.12,-0.08,2.04,-17.968999999999998,-98.39320000000001,-34.324000000000005,175,75
2026-05-09 14:44:56.376,2,-0.0,0.21,1.84,17.271,-85.7632,-31.884,175,75
2026-05-09 14:44:56.376,2,-0.01,0.41,1.67,40.381,-69.4232,-34.504000000000005,175,75
2026-05-09 14:44:56.376,2,-0.0,0.56,1.5,48.190999999999995,-58.0232,-34.024,175,75
2026-05-09 14:44:56.376,2,-0.02,0.71,1.33,43.921,-59.303200000000004,-32.004000000000005,175,75
2026-05-09 14:44:56.376,2,-0.05,1.06,1.07,18.861,-64.3032,-19.264000000000003,175,75
2026-05-09 14:44:56.376,2,-0.04,1.41,0.97,12.761000000000003,-37.9032,-10.424000000000003,175,75
2026-05-09 14:44:56.376,2,-0.02,1.67,0.96,21.241000000000003,15.756800000000002,-12.134,175,75
2026-05-09 14:44:56.376,2,0.03,1.68,1.02,29.651,70.5168,-15.544000000000004,175,75
2026-05-09 14:44:56.376,2,0.02,1.48,1.12,27.331000000000003,98.9868,-15.304000000000002,175,75
2026-05-09 14:44:56.470,2,-0.02,1.16,1.26,19.531000000000002,107.5868,-18.104,175,75
2026-05-09 14:44:56.470,2,-0.04,0.86,1.38,23.551000000000002,57.2868,-30.794000000000004,175,75
2026-05-09 14:44:56.470,2,-0.07,0.88,1.42,30.931,10.456800000000001,-30.854,175,75
2026-05-09 14:44:56.470,2,-0.19,0.97,1.43,35.080999999999996,-6.623199999999999,-29.144000000000005,175,75
2026-05-09 14:44:56.470,2,-0.32,0.73,1.47,53.491,51.9168,-17.004000000000005,175,75
2026-05-09 14:44:56.537,2,-0.34,0.5,1.57,52.940999999999995,81.0668,-18.894000000000005,175,75
2026-05-09 14:44:56.537,2,-0.3,0.33,1.69,49.531,100.7568,-25.054000000000002,175,75
2026-05-09 14:44:56.537,2,-0.31,0.14,1.82,46.300999999999995,111.7368,-33.224000000000004,175,75
2026-05-09 14:44:56.553,2,-0.4,-0.0,1.95,43.131,111.4268,-42.194,175,75
2026-05-09 14:44:56.553,2,-0.49,-0.04,2.01,41.480999999999995,96.3668,-48.714,175,75
2026-05-09 14:44:56.558,2,-0.51,0.07,2.0,43.431,50.0868,-57.494,175,75
2026-05-09 14:44:56.571,2,-0.5,0.21,1.94,45.260999999999996,13.136800000000001,-56.584,175,75
2026-05-09 14:44:56.635,2,-0.53,0.3,1.66,18.311,-20.0332,-46.274,175,75
2026-05-09 14:44:56.635,2,-0.54,0.24,1.57,-9.309,-3.6331999999999987,-48.834,175,75
2026-05-09 14:44:56.635,2,-0.53,0.25,1.5,-26.319,20.9968,-52.804,175,75
2026-05-09 14:44:56.635,2,-0.48,0.31,1.43,-37.179,45.266799999999996,-58.534000000000006,175,75
2026-05-09 14:44:56.635,2,-0.34,0.41,1.41,-44.979,56.7368,-63.714,175,75
2026-05-09 14:44:56.635,2,-0.24,0.52,1.43,-54.069,58.9268,-64.504,175,75
2026-05-09 14:44:56.635,2,-0.16,0.65,1.46,-66.079,60.3268,-64.084,175,75
2026-05-09 14:44:56.814,2,-0.03,1.4,1.28,-60.229,-50.0932,-18.354,175,75
2026-05-09 14:44:56.814,2,0.11,1.57,1.27,-43.399,-42.0432,4.145999999999997,175,75
2026-05-09 14:44:56.814,2,0.14,1.47,1.33,-21.258999999999997,-12.593199999999998,3.115999999999998,175,75
2026-05-09 14:44:56.814,2,0.1,1.2,1.44,9.591000000000001,16.4268,-4.444000000000003,175,75
2026-05-09 14:44:56.814,2,-0.01,0.94,1.54,25.381,28.1368,-7.134,175,75
2026-05-09 14:44:56.814,2,-0.44,-0.19,1.91,21.111,28.5668,-12.434000000000001,175,75
2026-05-09 14:44:56.925,2,-0.65,-1.38,2.0,-40.289,-16.563200000000002,37.995999999999995,175,75
2026-05-09 14:44:56.925,2,-0.76,-1.5,1.93,-82.60900000000001,-47.8432,84.756,175,75
2026-05-09 14:44:56.925,2,-1.02,-1.45,1.85,-98.519,-38.5732,73.476,175,75
2026-05-09 14:44:56.925,2,-1.58,-1.56,1.54,-87.479,81.3068,-15.364000000000004,175,75
2026-05-09 14:44:56.925,2,-1.14,-1.62,1.3,-55.289,174.8468,-91.394,175,75
2026-05-09 14:44:56.925,2,-0.92,-1.06,2.02,33.071,197.5868,-116.274,175,75
2026-05-09 14:44:56.925,2,-0.94,-0.75,2.03,30.381000000000004,236.0668,-122.924,175,75
2026-05-09 14:44:56.925,2,-0.83,-0.21,1.83,5.021,166.1268,-137.684,175,75
2026-05-09 14:44:56.925,2,-0.46,-0.03,1.86,-2.9089999999999994,130.8768,-119.934,175,75
2026-05-09 14:44:56.932,2,-0.46,0.4,1.73,-12.178999999999998,91.60679999999999,-44.874,175,75
2026-05-09 14:44:56.946,2,-0.27,0.3,1.63,8.001000000000001,12.526800000000001,-42.984,175,75
2026-05-09 14:44:57.203,2,-0.24,0.33,1.41,12.821000000000002,-81.7432,-15.604,175,75
2026-05-09 14:44:57.203,2,-0.13,0.68,1.12,17.641000000000002,-138.0232,8.175999999999998,175,75
2026-05-09 14:44:57.203,2,-0.15,0.9,0.98,27.271,-128.3932,17.316,175,75
2026-05-09 14:44:57.204,2,-0.1,1.05,0.89,40.811,-106.0132,24.636,175,75
2026-05-09 14:44:57.204,2,-0.05,1.04,0.9,45.870999999999995,-77.7832,28.665999999999997,175,75
2026-05-09 14:44:57.204,2,-0.03,0.94,0.95,41.601,-50.5232,24.755999999999997,175,75
2026-05-09 14:44:57.204,2,-0.03,0.86,0.96,37.461,-37.8432,18.785999999999998,175,75
2026-05-09 14:44:57.204,2,-0.02,0.79,0.99,39.101,-45.8232,16.956,175,75
2026-05-09 14:44:57.204,2,-0.03,0.77,0.98,44.771,-64.6732,17.866,175,75
2026-05-09 14:44:57.205,2,-0.04,0.75,0.95,49.471,-89.4232,16.465999999999998,175,75
2026-05-09 14:44:57.205,2,-0.14,0.77,0.89,51.181,-101.8632,14.885999999999997,175,75
2026-05-09 14:44:57.205,2,-0.2,0.8,0.84,49.281,-93.7532,11.165999999999997,175,75
2026-05-09 14:44:57.205,2,-0.25,0.86,0.78,46.601,-74.1232,6.645999999999997,175,75
2026-05-09 14:44:57.205,2,-0.25,0.92,0.73,48.550999999999995,-48.2632,4.205999999999998,175,75
2026-05-09 14:44:57.205,2,-0.26,0.99,0.73,57.580999999999996,21.4268,4.275999999999998,175,75
2026-05-09 14:44:57.205,2,-0.24,1.0,0.8,60.260999999999996,74.5368,3.605999999999998,175,75
2026-05-09 14:44:57.205,2,-0.23,1.04,0.93,62.941,125.1468,3.4759999999999973,175,75
2026-05-09 14:44:57.205,2,-0.07,1.09,1.34,69.711,168.8668,6.955999999999998,175,75
2026-05-09 14:44:57.205,2,-0.11,1.03,1.56,68.981,158.0768,13.725999999999997,175,75
2026-05-09 14:44:57.384,2,-0.4,0.55,1.86,53.251,84.0468,28.906,175,75
2026-05-09 14:44:57.384,2,-0.64,0.2,1.97,35.631,25.5768,33.176,175,75
2026-05-09 14:44:57.384,2,-0.83,-0.1,2.05,14.891000000000002,-11.373199999999999,33.056,175,75
2026-05-09 14:44:57.384,2,-0.93,-0.36,2.1,-9.129,-35.5832,30.366,175,75
2026-05-09 14:44:57.385,2,-0.98,-0.55,2.1,-41.079,-62.2332,22.136,175,75
2026-05-09 14:44:57.385,2,-0.82,-0.57,2.09,-57.969,24.416800000000002,-3.1040000000000028,175,75
2026-05-09 14:44:57.385,2,-0.76,-0.55,2.01,-71.749,-23.453200000000002,-12.494000000000003,175,75
2026-05-09 14:44:57.385,2,-0.7,-0.46,1.92,-72.35900000000001,-46.803200000000004,-24.504000000000005,175,75
2026-05-09 14:44:57.385,2,-0.59,-0.36,1.83,-72.96900000000001,-51.0732,-35.974000000000004,175,75
2026-05-09 14:44:57.385,2,-0.35,-0.25,1.76,-78.459,-45.5232,-48.224000000000004,175,75
2026-05-09 14:44:57.385,2,-0.04,0.11,1.56,-76.019,-23.693199999999997,-67.554,175,75
2026-05-09 14:44:57.387,2,-0.0,0.42,1.42,-56.929,-30.8932,-75.854,175,75
2026-05-09 14:44:57.442,2,-0.05,0.85,1.27,-31.448999999999998,-40.1532,-70.794,175,75
2026-05-09 14:44:57.464,2,-0.07,1.74,1.14,-2.4189999999999996,-34.7932,-37.374,175,75
2026-05-09 14:44:57.478,2,0.12,2.02,1.11,0.3210000000000006,-42.6532,-15.054000000000002,175,75
2026-05-09 14:44:57.489,2,0.34,1.49,1.16,11.851000000000003,-33.5732,4.8859999999999975,175,75
2026-05-09 14:44:57.489,2,0.34,1.16,1.2,32.031,-8.933199999999998,-4.934000000000001,175,75
2026-05-09 14:44:57.501,2,0.25,0.87,1.17,69.711,25.4568,-16.584000000000003,175,75
2026-05-09 14:44:57.512,2,-0.09,0.51,1.34,119.221,54.9668,-17.554000000000002,175,75
2026-05-09 14:44:57.540,2,-0.4,-0.97,1.76,37.580999999999996,40.2068,17.445999999999998,175,75
2026-05-09 14:44:57.547,2,-0.33,-1.55,1.8,-20.718999999999998,-25.4032,68.96600000000001,175,75
2026-05-09 14:44:57.563,2,-0.49,-1.68,1.66,-79.429,-75.5232,129.886,175,75
2026-05-09 14:44:57.572,2,-1.3,-1.19,1.15,-66.749,33.6868,-1.1540000000000035,175,75
2026-05-09 14:44:57.587,2,-0.93,-0.48,0.89,-8.759,75.8168,-123.654,175,75
2026-05-09 14:44:57.613,2,0.84,0.18,2.06,110.441,218.0768,-144.694,175,75
2026-05-09 14:44:57.624,2,-0.15,0.78,1.88,51.181,306.1868,51.105999999999995,175,75
2026-05-09 14:44:57.636,2,-0.47,0.69,1.76,43.251,190.6968,-18.104,175,75
2026-05-09 14:44:57.647,2,-0.54,0.27,1.99,28.071,105.6968,-71.464,175,75
2026-05-09 14:44:57.647,2,-0.18,0.08,2.12,-14.248999999999999,4.176800000000001,-49.20400000000001,175,75
2026-05-09 14:44:57.664,2,-0.37,0.24,1.8,-36.629000000000005,-88.6932,-15.604,175,75
2026-05-09 14:44:57.676,2,-0.39,0.25,1.58,-28.089,-134.3632,-31.094,175,75
2026-05-09 14:44:57.690,2,-0.24,0.23,1.39,-19.309,-118.39320000000001,-26.704,175,75
2026-05-09 14:44:57.701,2,-0.29,0.25,1.26,-18.399,-66.9232,-19.634,175,75
2026-05-09 14:44:57.723,2,-0.24,0.29,1.17,-15.468999999999998,57.3468,-48.224000000000004,175,75
2026-05-09 14:44:57.734,2,-0.18,0.35,1.22,-8.459,76.1868,-48.894000000000005,175,75
2026-05-09 14:44:57.744,2,-0.15,0.42,1.27,-3.9489999999999994,76.3068,-45.854,175,75
2026-05-09 14:44:57.744,2,-0.13,0.5,1.29,-3.8189999999999995,58.4968,-44.024,175,75
2026-05-09 14:44:57.770,2,-0.12,0.63,1.27,-10.529,20.4568,-38.044000000000004,175,75
2026-05-09 14:44:57.781,2,-0.09,0.97,1.16,-22.179,-22.4732,-21.944000000000003,175,75
2026-05-09 14:44:57.803,2,0.01,1.07,1.14,-21.198999999999998,-20.763199999999998,-20.604,175,75
2026-05-09 14:44:57.814,2,0.07,1.14,1.17,-20.468999999999998,-10.823199999999998,-22.254000000000005,175,75
2026-05-09 14:44:57.820,2,0.1,1.23,1.2,-17.179,1.796800000000001,-25.544000000000004,175,75
2026-05-09 14:44:57.843,2,0.17,1.35,1.27,-12.178999999999998,2.346800000000001,-28.834000000000003,175,75
2026-05-09 14:44:57.857,2,0.17,1.49,1.31,-6.078999999999999,-4.363199999999999,-27.614000000000004,175,75
2026-05-09 14:44:57.857,2,0.1,1.63,1.34,0.5010000000000003,-3.693199999999999,-23.534,175,75
2026-05-09 14:44:57.870,2,0.08,1.71,1.4,7.521,-1.1931999999999992,-21.644000000000005,175,75
2026-05-09 14:44:57.894,2,0.23,1.49,1.78,10.871000000000002,15.876800000000001,-27.804000000000002,175,75
2026-05-09 14:44:57.907,2,0.19,1.17,1.95,14.161000000000001,25.756800000000002,-39.144000000000005,175,75
2026-05-09 14:44:57.918,2,0.09,0.39,2.08,16.661,17.2868,-59.634,175,75
2026-05-09 14:44:57.943,2,-0.29,-1.75,2.04,-25.589,-61.9832,4.145999999999997,175,75
2026-05-09 14:44:57.967,2,-1.24,-2.86,1.54,-142.179,-36.0132,172.926,175,75
2026-05-09 14:44:57.977,2,-2.76,-2.14,0.44,-104.499,256.1268,-50.794,175,75
2026-05-09 14:44:57.988,2,-0.51,-1.18,0.8,19.651,71.9768,-219.504,175,75
2026-05-09 14:44:57.999,2,-0.59,-1.05,2.01,136.24099999999999,42.6468,-284.32399999999996,175,75
2026-05-09 14:44:58.013,2,-0.36,-0.91,2.34,155.441,215.3968,-255.91400000000002,175,75
2026-05-09 14:44:58.013,2,-0.06,-0.69,2.1,129.351,242.5868,-193.534,175,75
2026-05-09 14:44:58.024,2,-0.19,-0.29,2.0,36.971,144.3568,-19.084000000000003,175,75
2026-05-09 14:44:58.040,2,-0.53,0.07,1.84,-22.179,-18.263199999999998,-2.924000000000003,175,75
2026-05-09 14:44:58.062,2,-0.78,0.04,1.83,-59.069,-85.9532,-55.054,175,75
2026-05-09 14:44:58.062,2,-0.44,0.07,1.64,-66.079,-94.9732,-63.164,175,75
2026-05-09 14:44:58.073,2,-0.17,0.25,1.42,-49.679,-88.9332,-27.924,175,75
2026-05-09 14:44:58.086,2,-0.16,0.41,1.32,-19.009,-63.39320000000001,-3.774000000000001,175,75
2026-05-09 14:44:58.098,2,-0.18,0.46,1.2,17.031000000000002,-27.1732,-11.214000000000002,175,75
2026-05-09 14:44:58.124,2,-0.06,0.56,1.13,42.580999999999996,0.3268000000000004,-18.354,175,75
2026-05-09 14:44:58.124,2,-0.07,0.73,1.08,45.501,-16.313200000000002,-14.444000000000003,175,75
2026-05-09 14:44:58.136,2,-0.09,1.0,1.04,53.190999999999995,-43.8132,-7.494000000000003,175,75
2026-05-09 14:44:58.147,2,-0.09,1.14,1.01,59.101,-55.093199999999996,-2.434000000000001,175,75
2026-05-09 14:44:58.164,2,-0.1,1.19,0.98,61.480999999999995,-61.3732,0.4259999999999984,175,75
2026-05-09 14:44:58.176,2,-0.11,1.1,0.95,55.631,-61.863200000000006,2.0159999999999982,175,75
2026-05-09 14:44:58.197,2,-0.15,0.9,0.87,45.571,-58.3232,-5.5440000000000005,175,75
2026-05-09 14:44:58.208,2,-0.21,0.93,0.82,50.811,-44.6732,-6.824000000000002,175,75
2026-05-09 14:44:58.218,2,-0.29,1.02,0.8,61.541,-13.0832,-7.254000000000001,175,75
2026-05-09 14:44:58.265,2,-0.24,1.15,1.01,60.691,123.4368,-0.18400000000000105,175,75
2026-05-09 14:44:58.300,2,-0.06,1.12,1.59,65.931,137.0368,9.455999999999998,175,75
2026-05-09 14:44:58.311,2,-0.15,0.73,1.86,45.931,62.1568,14.695999999999998,175,75
2026-05-09 14:44:58.323,2,-0.3,0.39,1.88,30.811000000000003,7.286800000000001,14.335999999999999,175,75
2026-05-09 14:44:58.333,2,-0.47,-0.03,1.84,11.911000000000001,-58.0232,15.555999999999997,175,75
2026-05-09 14:44:58.346,2,-0.65,-0.47,1.77,-15.408999999999999,-113.8732,23.476,175,75
2026-05-09 14:44:58.372,2,-0.67,-0.79,1.7,-54.859,-140.4032,37.385999999999996,175,75
2026-05-09 14:44:58.372,2,-0.65,-0.86,1.63,-88.089,-135.9532,48.176,175,75
2026-05-09 14:44:58.383,2,-0.66,-0.79,1.53,-113.399,-107.2332,42.316,175,75
2026-05-09 14:44:58.391,2,-0.73,-0.75,1.44,-124.979,-39.3632,13.605999999999998,175,75
2026-05-09 14:44:58.396,2,-0.8,-0.85,1.32,-113.459,89.9068,-29.814,175,75
2026-05-09 14:44:58.411,2,-0.72,-0.97,1.29,-96.07900000000001,172.3468,-39.814,175,75
2026-05-09 14:44:58.423,2,-0.68,-1.03,1.37,-81.929,216.5468,-34.384,175,75
2026-05-09 14:44:58.435,2,-0.75,-0.99,1.53,-76.629,235.6968,-42.374,175,75
2026-05-09 14:44:58.448,2,-0.8,-0.81,1.65,-79.919,227.2868,-80.914,175,75
2026-05-09 14:44:58.448,2,-0.71,-0.61,1.75,-84.309,199.0468,-143.834,175,75
2026-05-09 14:44:58.460,2,-0.49,-0.37,1.79,-82.539,169.4168,-203.654,175,75
2026-05-09 14:44:58.473,2,-0.24,-0.08,1.8,-74.679,151.0668,-233.41400000000002,175,75
2026-05-09 14:44:58.484,2,0.38,0.56,1.95,-92.849,132.1568,-101.274,175,75
2026-05-09 14:44:58.496,2,-0.28,1.17,1.73,-88.149,105.8768,-92.31400000000001,175,75
2026-05-09 14:44:58.508,2,-0.08,1.34,1.75,-77.849,55.2068,-118.35400000000001,175,75
2026-05-09 14:44:58.530,2,-0.06,1.56,1.72,-68.889,-52.4132,-72.494,175,75
2026-05-09 14:44:58.554,2,0.04,1.59,1.66,-38.579,-82.4132,-66.394,175,75
2026-05-09 14:44:58.582,2,-0.12,1.1,1.2,42.701,-65.8232,-14.144000000000002,175,75
2026-05-09 14:44:58.600,2,-0.03,0.66,1.2,76.661,7.096800000000002,9.205999999999998,175,75
2026-05-09 14:44:58.625,2,-0.01,-0.21,1.62,88.801,134.7868,8.905999999999999,175,75
2026-05-09 14:44:58.649,2,-0.02,-0.86,1.82,73.981,135.8168,20.125999999999998,175,75
2026-05-09 14:44:58.649,2,0.01,-1.59,1.93,35.811,41.1268,72.566,175,75
2026-05-09 14:44:58.679,2,-1.04,-0.82,1.46,-11.018999999999998,-211.4332,26.285999999999998,175,75
2026-05-09 14:44:58.692,2,-0.88,-0.59,1.13,-1.5089999999999995,-128.2632,-139.994,175,75
2026-05-09 14:44:58.705,2,-0.22,-0.27,1.16,22.031000000000002,-75.4032,-210.304,175,75
2026-05-09 14:44:58.716,2,0.15,-0.08,1.32,49.711,-10.343199999999998,-217.314,175,75
2026-05-09 14:44:58.727,2,0.24,0.33,1.52,41.480999999999995,136.1868,-0.8540000000000028,175,75
2026-05-09 14:44:58.738,2,-0.16,0.45,1.41,38.251,206.4868,43.296,175,75
2026-05-09 14:44:58.770,2,-0.36,-0.34,1.78,16.781000000000002,122.0368,-80.794,175,75
2026-05-09 14:44:58.786,2,-0.14,-0.29,1.82,-17.299,39.656800000000004,-60.604,175,75
2026-05-09 14:44:58.796,2,-0.14,0.03,1.71,-25.168999999999997,-19.6732,-34.634,175,75
2026-05-09 14:44:58.811,2,-0.19,0.23,1.53,-16.139,-63.6332,-29.574000000000005,175,75
2026-05-09 14:44:58.811,2,-0.16,0.25,1.43,-9.068999999999999,-68.0832,-28.164,175,75
2026-05-09 14:44:58.821,2,-0.21,0.22,1.3,-6.748999999999999,-35.5232,-22.074000000000005,175,75
2026-05-09 14:44:58.834,2,-0.28,0.23,1.24,-5.898999999999999,-1.3131999999999984,-26.334000000000003,175,75
2026-05-09 14:44:58.835,2,-0.29,0.29,1.21,-1.6889999999999992,18.986800000000002,-34.754000000000005,175,75
2026-05-09 14:44:58.846,2,-0.21,0.41,1.23,8.431000000000001,19.9068,-35.184000000000005,175,75
2026-05-09 14:44:58.868,2,-0.22,0.6,1.19,9.831,-11.623199999999999,-19.324000000000005,175,75
2026-05-09 14:44:58.878,2,-0.24,0.68,1.14,4.771,-26.0732,-13.534000000000002,175,75
2026-05-09 14:44:58.878,2,-0.21,0.78,1.06,-0.8989999999999996,-33.4532,-7.924000000000003,175,75
2026-05-09 14:44:58.893,2,-0.19,0.9,0.99,-4.738999999999999,-27.2932,-4.754000000000001,175,75
2026-05-09 14:44:58.920,2,-0.14,1.17,0.97,-2.9089999999999994,35.4568,-11.154000000000003,175,75
2026-05-09 14:44:58.932,2,-0.1,1.31,1.03,1.051000000000001,74.4168,-17.004000000000005,175,75
2026-05-09 14:44:58.932,2,-0.03,1.42,1.12,4.1610000000000005,92.7068,-22.744,175,75
2026-05-09 14:44:58.962,2,0.01,1.51,1.35,4.221000000000001,46.6068,-22.374000000000002,175,75
2026-05-09 14:44:58.974,2,-0.03,1.49,1.38,2.1510000000000007,6.4868000000000015,-18.534,175,75
2026-05-09 14:44:58.984,2,-0.1,1.44,1.36,2.761000000000001,-30.583199999999998,-11.394000000000002,175,75
2026-05-09 14:44:59.015,2,-0.1,0.99,1.43,15.141000000000002,-18.7532,-1.7040000000000006,175,75
2026-05-09 14:44:59.035,2,-0.05,-0.45,1.84,4.471000000000001,31.6068,0.7959999999999994,175,75
2026-05-09 14:44:59.047,2,0.07,-1.29,1.97,-14.189,30.3268,20.555999999999997,175,75
2026-05-09 14:44:59.057,2,0.01,-2.31,2.04,-63.149,-4.6732,115.676,175,75
2026-05-09 14:44:59.058,2,-0.18,-2.75,2.0,-122.789,-68.3232,259.086,175,75
2026-05-09 14:44:59.070,2,-1.59,-2.37,1.57,-122.299,-31.8632,189.08599999999998,175,75
2026-05-09 14:44:59.101,2,-0.85,-1.75,0.99,-22.968999999999998,-17.233199999999997,-147.314,175,75
2026-05-09 14:44:59.101,2,-0.74,-1.48,1.78,48.001,-73.6332,-216.524,175,75
2026-05-09 14:44:59.111,2,-0.53,-1.18,1.94,63.611000000000004,11.9768,-231.214,175,75
2026-05-09 14:44:59.133,2,-0.25,-0.38,1.63,36.421,97.1568,-210.794,175,75
2026-05-09 14:44:59.145,2,0.26,0.01,1.7,-2.608999999999999,94.9068,-116.274,175,75
2026-05-09 14:44:59.165,2,-0.13,0.53,1.54,-40.779,108.6868,4.945999999999998,175,75
2026-05-09 14:44:59.168,2,-0.33,0.52,1.58,-42.669000000000004,75.1468,-41.584,175,75
2026-05-09 14:44:59.181,2,-0.1,0.49,1.56,-28.148999999999997,92.5868,-70.664,175,75
2026-05-09 14:44:59.196,2,0.05,0.56,1.52,-7.848999999999999,95.4568,-49.694,175,75
2026-05-09 14:44:59.208,2,-0.03,0.65,1.47,13.981000000000002,80.9368,-32.374,175,75
2026-05-09 14:44:59.218,2,-0.07,0.67,1.48,31.480999999999998,42.6468,-42.194,175,75
2026-05-09 14:44:59.229,2,0.02,0.81,1.45,33.311,7.956800000000001,-38.474000000000004,175,75
2026-05-09 14:44:59.233,2,0.01,1.01,1.34,37.641,-30.523200000000003,-29.694000000000003,175,75
2026-05-09 14:44:59.251,2,-0.03,1.19,1.2,48.800999999999995,-74.4232,-21.524,175,75
2026-05-09 14:44:59.257,2,-0.07,1.18,1.08,54.351,-94.6032,-11.884,175,75
2026-05-09 14:44:59.271,2,-0.1,1.04,0.98,52.821,-101.8032,-2.434000000000001,175,75
2026-05-09 14:44:59.282,2,-0.11,0.88,0.92,47.271,-99.1232,-0.054000000000002046,175,75
2026-05-09 14:44:59.324,2,-0.2,0.69,0.8,48.370999999999995,-48.3932,-10.794,175,75
2026-05-09 14:44:59.324,2,-0.22,0.65,0.71,58.980999999999995,-26.373199999999997,-13.044,175,75
2026-05-09 14:44:59.336,2,-0.28,0.67,0.67,74.101,3.1968000000000014,-8.654000000000003,175,75
2026-05-09 14:44:59.346,2,-0.27,0.7,0.68,75.631,31.486800000000002,-6.334000000000003,175,75
2026-05-09 14:44:59.378,2,-0.13,0.98,0.88,75.631,163.1368,-3.1040000000000028,175,75
2026-05-09 14:44:59.394,2,-0.1,1.09,1.04,81.851,195.9968,-1.3340000000000032,175,75
2026-05-09 14:44:59.404,2,-0.03,1.12,1.28,82.941,222.7668,1.7059999999999977,175,75
2026-05-09 14:44:59.445,2,-0.24,0.06,1.95,28.980999999999998,95.6968,17.926,175,75
2026-05-09 14:44:59.467,2,-0.5,-1.15,1.95,-36.689,-118.0232,48.666,175,75
2026-05-09 14:44:59.481,2,-0.77,-1.11,1.62,-123.459,-176.3132,98.90599999999999,175,75
2026-05-09 14:44:59.498,2,-1.09,-0.8,1.36,-148.519,-119.67320000000001,31.836,175,75
2026-05-09 14:44:59.511,2,-0.87,-0.9,1.05,-116.869,126.3068,-111.03399999999999,175,75
2026-05-09 14:44:59.524,2,-0.47,-0.95,1.43,-67.359,188.8668,-106.584,175,75
2026-05-09 14:44:59.534,2,-0.51,-0.97,1.71,-47.729,240.5768,-86.464,175,75
2026-05-09 14:44:59.541,2,-0.62,-0.86,1.86,-43.949000000000005,271.4268,-87.004,175,75
2026-05-09 14:44:59.556,2,-0.73,-0.66,1.83,-58.219,214.7868,-120.054,175,75
2026-05-09 14:44:59.586,2,-0.62,-0.12,1.57,-74.18900000000001,89.6568,-166.824,175,75
2026-05-09 14:44:59.599,2,-0.24,0.21,1.41,-64.369,85.8768,-165.304,175,75
2026-05-09 14:44:59.610,2,0.15,0.65,1.39,-58.339,98.3768,-80.604,175,75
2026-05-09 14:44:59.649,2,0.04,1.46,1.55,-28.218999999999998,87.2868,-55.244,175,75
2026-05-09 14:44:59.681,2,0.09,1.57,1.53,-2.9089999999999994,-70.64320000000001,-33.164,175,75
2026-05-09 14:44:59.681,2,0.05,1.57,1.38,10.440999999999999,-139.2432,-14.994,175,75
2026-05-09 14:44:59.704,2,-0.01,1.22,1.12,31.851000000000003,-154.2432,7.5059999999999985,175,75
2026-05-09 14:44:59.715,2,-0.02,0.97,1.04,43.431,-117.2932,10.855999999999998,175,75
2026-05-09 14:44:59.724,2,0.01,0.76,1.03,53.071,-75.4632,9.205999999999998,175,75
2026-05-09 14:44:59.738,2,0.02,0.42,1.1,66.851,-3.9331999999999994,4.8859999999999975,175,75
2026-05-09 14:44:59.750,2,-0.02,0.1,1.23,76.481,55.9368,0.1859999999999964,175,75
2026-05-09 14:44:59.758,2,-0.05,-0.33,1.4,75.201,83.6868,1.6459999999999972,175,75
2026-05-09 14:44:59.768,2,-0.01,-0.82,1.55,56.781,54.7168,15.555999999999997,175,75
2026-05-09 14:44:59.781,2,0.03,-1.22,1.65,31.111,9.9068,45.976,175,75
2026-05-09 14:44:59.793,2,-0.05,-1.56,1.66,-14.369,-56.803200000000004,110.18599999999999,175,75
2026-05-09 14:44:59.805,2,-0.22,-1.46,1.55,-37.539,-104.7932,125.006,175,75
2026-05-09 14:44:59.816,2,-0.76,-1.1,1.35,-36.689,-94.1232,48.476,175,75
2026-05-09 14:44:59.845,2,-0.2,-0.68,1.27,10.631,27.5268,-164.144,175,75
2026-05-09 14:44:59.864,2,0.06,-0.32,1.67,45.631,142.0968,-180.424,175,75
2026-05-09 14:44:59.875,2,0.25,-0.12,1.83,4.961000000000001,152.8268,-69.994,175,75
2026-05-09 14:44:59.887,2,-0.03,0.03,1.72,-24.429,103.4368,-32.254000000000005,175,75
2026-05-09 14:44:59.892,2,-0.33,-0.16,1.76,-44.799,23.1368,-53.354,175,75
2026-05-09 14:44:59.915,2,-0.2,-0.38,1.7,-66.929,-26.193199999999997,-69.994,175,75
2026-05-09 14:44:59.917,2,-0.14,-0.32,1.53,-69.619,-32.2932,-60.244,175,75
2026-05-09 14:44:59.929,2,-0.19,-0.12,1.34,-54.739000000000004,-13.143199999999998,-50.184,175,75
2026-05-09 14:44:59.950,2,-0.26,0.02,1.2,-28.029,33.1968,-51.70400000000001,175,75
2026-05-09 14:44:59.951,2,-0.27,0.09,1.12,-2.1789999999999994,83.0168,-57.074,175,75
2026-05-09 14:44:59.961,2,-0.26,0.15,1.1,10.571000000000002,119.4168,-58.714,175,75
2026-05-09 14:44:59.971,2,-0.22,0.21,1.12,9.711000000000002,131.6068,-58.964,175,75
2026-05-09 14:44:59.983,2,-0.16,0.3,1.14,2.761000000000001,123.8668,-57.004000000000005,175,75
2026-05-09 14:44:59.990,2,-0.05,0.47,1.18,-6.018999999999999,97.2168,-53.774,175,75
2026-05-09 14:45:00.016,2,-0.05,0.66,1.18,-8.948999999999998,76.3068,-52.31400000000001,175,75
2026-05-09 14:45:00.016,2,-0.06,0.79,1.15,-6.568999999999999,62.766799999999996,-53.294,175,75
2026-05-09 14:45:00.050,2,-0.06,1.1,1.07,-8.639,-7.843199999999998,-46.584,175,75
2026-05-09 14:45:00.062,2,-0.05,1.18,1.04,-13.948999999999998,-28.813200000000002,-44.874,175,75
2026-05-09 14:45:00.073,2,-0.08,1.27,1.01,-15.649000000000001,-37.0432,-43.894000000000005,175,75
2026-05-09 14:45:00.088,2,-0.09,1.35,0.98,-11.259,-28.513199999999998,-43.534,175,75
2026-05-09 14:45:00.099,2,-0.1,1.43,0.99,-3.148999999999999,-6.983199999999998,-42.434000000000005,175,75
2026-05-09 14:45:00.109,2,-0.11,1.46,1.04,6.181,29.1768,-41.214,175,75
2026-05-09 14:45:00.132,2,-0.04,1.31,1.23,20.021,89.1768,-39.264,175,75
2026-05-09 14:45:00.146,2,-0.01,1.07,1.41,29.961000000000002,98.6868,-36.334,175,75
2026-05-09 14:45:00.159,2,-0.0,0.67,1.55,35.021,89.7168,-31.094,175,75
2026-05-09 14:45:00.184,2,0.07,-0.87,1.89,6.851,17.0368,-2.804000000000002,175,75
2026-05-09 14:45:00.184,2,0.14,-1.96,1.99,-30.349,-29.733200000000004,67.256,175,75
2026-05-09 14:45:00.210,2,-0.22,-2.77,1.65,-114.919,-106.6232,314.086,175,75
2026-05-09 14:45:00.210,2,-1.99,-2.39,1.1,-92.909,-1.743199999999998,203.846,175,75
2026-05-09 14:45:00.225,2,-1.49,-2.01,0.06,-16.139,182.0368,-57.98400000000001,175,75
2026-05-09 14:45:00.236,2,-0.84,-1.75,0.97,91.721,-12.1732,-167.614,175,75
2026-05-09 14:45:00.248,2,-0.57,-1.49,1.75,148.801,57.766799999999996,-200.424,175,75
2026-05-09 14:45:00.269,2,-0.37,-1.0,1.81,140.631,164.9068,-209.204,175,75
2026-05-09 14:45:00.279,2,-0.27,-0.48,1.67,93.431,151.6768,-209.264,175,75
2026-05-09 14:45:00.294,2,0.35,0.1,1.75,12.881,79.10679999999999,-133.834,175,75
2026-05-09 14:45:00.306,2,-0.07,0.5,1.56,-15.408999999999999,59.1768,-12.314000000000004,175,75
2026-05-09 14:45:00.316,2,-0.15,0.66,1.38,-13.399000000000001,-8.753199999999998,-1.764000000000003,175,75
2026-05-09 14:45:00.327,2,-0.37,0.5,1.33,-3.8889999999999993,-32.8432,-30.974000000000004,175,75
2026-05-09 14:45:00.338,2,-0.13,0.42,1.25,6.971000000000001,-29.2432,-34.384,175,75
2026-05-09 14:45:00.364,2,-0.13,0.69,1.06,47.391,-4.4232,-19.324000000000005,175,75
2026-05-09 14:45:00.376,2,-0.07,0.9,1.03,65.81099999999999,-8.6332,-27.134,175,75
2026-05-09 14:45:00.394,2,-0.07,1.19,0.99,77.761,-41.0732,-3.964000000000002,175,75
2026-05-09 14:45:00.400,2,-0.06,1.11,0.97,69.351,-62.9632,-2.7440000000000033,175,75
2026-05-09 14:45:00.418,2,-0.07,0.83,0.83,47.461,-108.8732,-1.8840000000000003,175,75
2026-05-09 14:45:00.441,2,-0.12,0.75,0.76,45.690999999999995,-123.9332,-8.104000000000003,175,75
2026-05-09 14:45:00.451,2,-0.23,0.73,0.65,45.321,-129.0032,-16.094,175,75
2026-05-09 14:45:00.462,2,-0.29,0.74,0.53,46.911,-126.4332,-21.644000000000005,175,75
2026-05-09 14:45:00.475,2,-0.34,0.69,0.49,46.300999999999995,-101.9232,-26.644000000000005,175,75
2026-05-09 14:45:00.485,2,-0.33,0.63,0.42,41.050999999999995,-78.6932,-28.294000000000004,175,75
2026-05-09 14:45:00.485,2,-0.35,0.62,0.32,31.851000000000003,-64.3632,-30.604,175,75
2026-05-09 14:45:00.504,2,-0.43,0.65,0.3,17.881,-40.2832,-33.104,175,75
2026-05-09 14:45:00.514,2,-0.4,0.66,0.31,2.9410000000000007,-4.9731999999999985,-33.894000000000005,175,75
2026-05-09 14:45:00.540,2,-0.29,0.65,0.36,-35.779,68.2568,-36.154,175,75
2026-05-09 14:45:00.540,2,-0.28,0.63,0.43,-42.669000000000004,90.7568,-38.894000000000005,175,75
2026-05-09 14:45:00.571,2,-0.21,0.42,0.72,-44.919000000000004,140.8168,-36.524,175,75
2026-05-09 14:45:00.571,2,-0.19,0.22,0.85,-53.519000000000005,148.5668,-31.274,175,75
2026-05-09 14:45:00.579,2,-0.15,-0.13,1.05,-78.089,131.3068,-19.694000000000003,175,75
2026-05-09 14:45:00.604,2,-0.1,-0.88,1.34,-156.569,35.2068,15.675999999999998,175,75
2026-05-09 14:45:00.613,2,-0.03,-1.19,1.39,-200.529,-15.703199999999997,44.396,175,75
2026-05-09 14:45:00.623,2,-0.03,-1.47,1.42,-243.819,-59.2432,83.606,175,75
2026-05-09 14:45:00.641,2,-0.13,-1.77,1.37,-293.75899999999996,-97.1732,142.016,175,75
2026-05-09 14:45:00.651,2,-0.36,-2.05,1.29,-329.55899999999997,-98.0232,185.36599999999999,175,75
2026-05-09 14:45:00.676,2,-1.0,-2.2,0.97,-320.469,-6.983199999999998,43.416,175,75
2026-05-09 14:45:00.686,2,-0.83,-2.13,0.9,-291.62899999999996,11.546800000000001,-49.504000000000005,175,75
2026-05-09 14:45:00.699,2,-0.68,-1.86,0.96,-258.029,23.8668,-119.50399999999999,175,75
2026-05-09 14:45:00.710,2,-0.45,-1.4,1.03,-215.899,49.5368,-194.084,175,75
2026-05-09 14:45:00.735,2,-0.05,-0.47,1.21,-131.319,104.9068,-331.09400000000005,175,75
2026-05-09 14:45:00.735,2,0.5,-0.12,1.32,-101.509,131.3068,-356.94399999999996,175,75
2026-05-09 14:45:00.750,2,1.7,0.8,1.54,-132.359,169.4768,-4.264000000000003,175,75
2026-05-09 14:45:00.764,2,0.58,1.44,1.22,-115.039,162.7068,36.105999999999995,175,75
2026-05-09 14:45:00.777,2,1.02,0.98,1.26,-96.139,65.9368,-75.184,175,75
2026-05-09 14:45:00.787,2,1.79,0.78,1.5,-127.60900000000001,-21.623199999999997,-52.614000000000004,175,75
2026-05-09 14:45:00.799,2,1.83,0.7,1.25,-137.669,-74.4832,-57.494,175,75
2026-05-09 14:45:00.809,2,2.32,0.3,1.05,-125.169,-133.8132,-94.694,175,75
2026-05-09 14:45:00.819,2,2.46,-0.1,0.9,-127.239,-140.5232,-113.53399999999999,175,75
2026-05-09 14:45:00.834,2,2.71,-0.8,0.77,-141.929,-134.3632,-159.814,175,75
2026-05-09 14:45:00.850,2,2.67,-1.25,0.35,-161.569,-178.3932,-200.724,175,75
2026-05-09 14:45:00.899,2,1.01,-2.45,-0.33,-191.50900000000001,120.4568,-225.974,175,75
2026-05-09 14:45:00.908,2,0.62,-2.68,-0.15,-226.809,299.84680000000003,-247.864,175,75
2026-05-09 14:45:00.919,2,0.3,-2.51,0.05,-225.169,428.07680000000005,-274.08399999999995,175,75
2026-05-09 14:45:00.942,2,-0.15,-1.99,0.35,-58.459,546.2468,-282.554,175,75
2026-05-09 14:45:00.960,2,-0.48,-1.89,0.67,65.441,544.4168,-228.834,175,75
2026-05-09 14:45:00.986,2,-0.97,-1.47,1.16,240.381,395.8768,-229.754,175,75
2026-05-09 14:45:00.997,2,-1.16,-1.26,1.4,242.21099999999998,256.7968,-344.57399999999996,175,75
2026-05-09 14:45:00.997,2,-1.09,-1.08,1.48,210.931,183.7468,-424.81399999999996,175,75
2026-05-09 14:45:01.013,2,-0.83,-0.65,1.44,154.71099999999998,105.6368,-495.4839999999999,175,75
2026-05-09 14:45:01.024,2,-0.62,-0.28,1.34,119.711,70.02680000000001,-511.884,175,75
2026-05-09 14:45:01.037,2,0.8,0.39,1.31,73.191,41.3668,-263.22400000000005,175,75
2026-05-09 14:45:01.048,2,-0.3,1.17,0.97,67.03099999999999,78.3168,-73.534,175,75
2026-05-09 14:45:01.059,2,-0.45,0.97,0.81,96.481,36.4268,-106.274,175,75
2026-05-09 14:45:01.069,2,-0.55,0.42,0.89,111.481,13.986800000000002,-191.704,175,75
2026-05-09 14:45:01.114,2,-0.23,0.36,1.06,85.381,17.2168,-157.434,175,75
2026-05-09 14:45:01.125,2,-0.26,0.42,1.07,85.021,-24.6732,-138.714,175,75
2026-05-09 14:45:01.157,2,-0.38,0.32,0.92,54.830999999999996,-124.2432,-124.084,175,75
2026-05-09 14:45:01.167,2,-0.36,0.3,0.81,48.491,-124.91319999999999,-121.214,175,75
2026-05-09 14:45:01.193,2,-0.27,0.27,0.72,46.111,-110.0932,-119.32400000000001,175,75
2026-05-09 14:45:01.205,2,-0.23,0.31,0.66,44.161,-91.5632,-115.91400000000002,175,75
2026-05-09 14:45:01.215,2,-0.21,0.45,0.6,43.001,-62.783199999999994,-112.00399999999999,175,75
2026-05-09 14:45:01.227,2,-0.13,0.58,0.58,41.721,-31.9232,-108.714,175,75
2026-05-09 14:45:01.231,2,-0.05,0.72,0.6,39.830999999999996,-6.5632,-102.804,175,75
2026-05-09 14:45:01.244,2,0.09,0.91,0.65,39.591,17.1568,-94.084,175,75
2026-05-09 14:45:01.252,2,0.2,1.11,0.67,41.050999999999995,25.696800000000003,-79.934,175,75
2026-05-09 14:45:01.264,2,0.51,1.43,0.68,44.351,6.796800000000001,-60.724000000000004,175,75
2026-05-09 14:45:01.277,2,0.77,1.82,0.73,39.961,-35.4032,-32.314,175,75
2026-05-09 14:45:01.296,2,0.82,2.08,0.88,9.411000000000001,-33.2032,-10.364,175,75
2026-05-09 14:45:01.307,2,0.89,1.54,0.9,-27.729,-15.343199999999998,9.145999999999997,175,75
2026-05-09 14:45:01.319,2,1.13,1.16,0.95,-49.919000000000004,-29.5432,10.795999999999998,175,75
2026-05-09 14:45:01.339,2,1.41,1.26,1.1,-49.369,-40.7632,15.365999999999998,175,75
2026-05-09 14:45:01.350,2,1.55,1.32,1.27,-37.359,-63.5732,8.965999999999998,175,75
2026-05-09 14:45:01.396,2,1.16,1.45,0.79,-36.999,-275.9532,8.355999999999998,175,75
2026-05-09 14:45:01.396,2,0.9,1.58,0.55,-38.029,-290.2132,15.005999999999998,175,75
2026-05-09 14:45:01.407,2,0.65,1.66,0.32,-38.029,-267.84319999999997,25.496,175,75
2026-05-09 14:45:01.421,2,0.51,1.61,0.18,-36.629000000000005,-210.9532,31.955999999999996,175,75
2026-05-09 14:45:01.430,2,0.43,1.47,0.17,-35.169,-118.0232,38.056,175,75
2026-05-09 14:45:01.447,2,0.46,1.36,0.24,-25.409,-37.9632,40.306,175,75
2026-05-09 14:45:01.458,2,0.5,1.3,0.37,-12.608999999999998,4.906800000000001,42.135999999999996,175,75
2026-05-09 14:45:01.458,2,0.52,1.24,0.52,-0.4689999999999994,26.796800000000005,45.366,175,75
2026-05-09 14:45:01.483,2,0.52,1.07,0.73,4.2810000000000015,-6.253199999999998,52.135999999999996,175,75
2026-05-09 14:45:01.491,2,0.43,1.0,0.72,-11.198999999999998,-56.313199999999995,50.616,175,75
2026-05-09 14:45:01.511,2,0.3,0.96,0.64,-31.139,-93.0232,46.105999999999995,175,75
2026-05-09 14:45:01.527,2,0.23,0.94,0.53,-41.389,-93.5132,42.626,175,75
2026-05-09 14:45:01.527,2,0.19,0.94,0.46,-45.469,-76.4332,37.926,175,75
2026-05-09 14:45:01.541,2,0.2,0.96,0.44,-49.129000000000005,-51.6232,34.635999999999996,175,75
2026-05-09 14:45:01.552,2,0.2,1.02,0.45,-54.679,-20.093199999999996,32.926,175,75
2026-05-09 14:45:01.560,2,0.21,1.08,0.53,-62.359,23.3168,28.845999999999997,175,75
2026-05-09 14:45:01.577,2,0.23,1.07,0.67,-67.789,55.5768,22.016,175,75
2026-05-09 14:45:01.599,2,0.29,0.99,0.89,-74.499,68.0768,2.865999999999998,175,75
2026-05-09 14:45:01.622,2,0.32,0.98,0.95,-78.819,45.266799999999996,-6.524000000000001,175,75
2026-05-09 14:45:01.632,2,0.38,1.01,0.97,-86.319,9.786800000000001,-16.034,175,75
2026-05-09 14:45:01.652,2,0.38,1.09,0.79,-104.799,-18.3232,-27.864000000000004,175,75
2026-05-09 14:45:01.663,2,0.36,1.08,0.74,-110.649,-7.533199999999999,-32.074000000000005,175,75
2026-05-09 14:45:01.663,2,0.4,1.11,0.73,-115.649,11.426800000000002,-37.494,175,75
2026-05-09 14:45:01.674,2,0.57,1.22,0.8,-120.289,55.0868,-37.924,175,75
2026-05-09 14:45:01.694,2,0.74,1.3,0.91,-122.849,97.5868,-36.094,175,75
2026-05-09 14:45:01.705,2,0.95,1.37,1.02,-121.929,125.0268,-34.874,175,75
2026-05-09 14:45:01.717,2,1.18,1.5,1.18,-115.529,138.0768,-31.824000000000005,175,75
2026-05-09 14:45:01.728,2,1.21,1.61,1.28,-109.069,128.8068,-32.924,175,75
2026-05-09 14:45:01.738,2,1.26,1.67,1.24,-105.649,98.3768,-37.254000000000005,175,75
2026-05-09 14:45:01.751,2,1.33,1.73,1.16,-102.729,25.1468,-9.144000000000002,175,75
2026-05-09 14:45:01.764,2,1.27,1.35,1.22,-131.259,10.516800000000002,10.125999999999998,175,75
2026-05-09 14:45:01.778,2,1.35,1.23,1.25,-148.279,45.6368,7.315999999999997,175,75
2026-05-09 14:45:01.795,2,1.48,1.18,1.24,-146.019,70.02680000000001,-0.9740000000000038,175,75
2026-05-09 14:45:01.807,2,1.62,1.22,1.27,-124.739,43.7468,-3.3540000000000028,175,75
2026-05-09 14:45:01.807,2,1.58,1.37,1.27,-111.999,15.636800000000001,3.605999999999998,175,75
2026-05-09 14:45:01.820,2,1.45,1.51,1.21,-111.629,-16.2532,10.245999999999999,175,75
2026-05-09 14:45:01.831,2,1.3,1.51,1.08,-127.479,-67.2332,24.816,175,75
2026-05-09 14:45:01.842,2,1.15,1.37,1.03,-133.949,-86.2532,28.235999999999997,175,75
2026-05-09 14:45:01.854,2,1.07,1.14,1.05,-134.189,-83.0232,24.575999999999997,175,75
2026-05-09 14:45:01.866,2,1.18,0.98,1.1,-131.13899999999998,-78.5732,15.305999999999997,175,75
2026-05-09 14:45:01.878,2,1.24,0.98,1.23,-132.059,-88.4532,4.205999999999998,175,75
2026-05-09 14:45:01.889,2,1.22,0.95,1.33,-138.399,-100.64320000000001,-10.424000000000003,175,75
2026-05-09 14:45:01.900,2,1.22,0.8,1.36,-151.389,-146.8032,-28.224000000000004,175,75
2026-05-09 14:45:01.900,2,1.12,0.66,1.31,-161.569,-206.3732,-35.974000000000004,175,75
2026-05-09 14:45:01.941,2,0.58,0.62,0.64,-177.059,-316.0132,-43.414,175,75
2026-05-09 14:45:01.953,2,0.44,0.86,0.34,-178.819,-266.4332,-41.644000000000005,175,75
2026-05-09 14:45:01.968,2,0.51,2.01,-0.15,-153.639,-35.4032,-28.654000000000003,175,75
2026-05-09 14:45:01.987,2,0.62,2.74,0.04,-123.949,183.4368,-16.884,175,75
2026-05-09 14:45:01.998,2,0.96,2.43,0.68,-106.68900000000001,318.19680000000005,2.2559999999999985,175,75
2026-05-09 14:45:02.008,2,1.14,1.91,1.07,-101.569,315.9368,7.745999999999999,175,75
2026-05-09 14:45:02.008,2,1.23,1.73,1.38,-98.339,245.5768,10.065999999999999,175,75
2026-05-09 14:45:02.024,2,1.2,1.9,1.6,-90.779,105.7568,20.676,175,75
2026-05-09 14:45:02.046,2,0.91,1.79,1.35,-85.959,-202.5332,54.336,175,75
2026-05-09 14:45:02.064,2,0.6,1.54,1.03,-86.509,-287.7132,65.42599999999999,175,75
2026-05-09 14:45:02.077,2,0.48,1.36,0.75,-79.369,-304.0632,69.816,175,75
2026-05-09 14:45:02.088,2,0.42,1.24,0.52,-69.619,-281.3732,74.696,175,75
2026-05-09 14:45:02.099,2,0.43,1.03,0.36,-59.069,-214.4232,72.316,175,75
2026-05-09 14:45:02.102,2,0.5,0.85,0.31,-57.789,-133.2032,67.076,175,75
2026-05-09 14:45:02.114,2,0.56,0.72,0.35,-55.589,-50.4632,59.756,175,75
2026-05-09 14:45:02.127,2,0.59,0.59,0.47,-46.869,21.306800000000003,50.796,175,75
2026-05-09 14:45:02.157,2,0.56,0.39,0.72,-39.309000000000005,84.6568,33.965999999999994,175,75
2026-05-09 14:45:02.163,2,0.52,0.39,0.82,-44.309000000000005,90.3968,23.415999999999997,175,75
2026-05-09 14:45:02.175,2,0.47,0.46,0.88,-52.239000000000004,80.8768,14.275999999999998,175,75
2026-05-09 14:45:02.200,2,0.38,0.63,0.91,-58.699000000000005,34.4168,3.8459999999999983,175,75
2026-05-09 14:45:02.210,2,0.33,0.66,0.9,-58.519000000000005,12.096800000000002,1.3459999999999965,175,75
2026-05-09 14:45:02.221,2,0.29,0.71,0.88,-55.719,5.936800000000002,-1.524000000000001,175,75
2026-05-09 14:45:02.235,2,0.25,0.79,0.82,-51.259,10.026800000000001,-2.434000000000001,175,75
2026-05-09 14:45:02.260,2,0.23,0.8,0.79,-43.399,20.266800000000003,-4.084000000000003,175,75
2026-05-09 14:45:02.276,2,0.28,0.71,0.78,-35.649,28.0768,-4.574000000000002,175,75
2026-05-09 14:45:02.300,2,0.46,0.85,0.79,-22.729,38.5668,-5.974000000000004,175,75
2026-05-09 14:45:02.312,2,0.59,0.95,0.82,-29.799,36.8568,-0.7240000000000038,175,75
2026-05-09 14:45:02.338,2,1.04,0.85,1.08,-44.069,42.766799999999996,-13.044,175,75
2026-05-09 14:45:02.347,2,1.36,0.75,1.27,-51.259,28.376800000000003,-26.884,175,75
2026-05-09 14:45:02.362,2,1.58,0.88,1.41,-57.119,4.176800000000001,-49.754000000000005,175,75
2026-05-09 14:45:02.373,2,1.68,1.23,1.37,-57.479,-25.8932,-59.084,175,75
2026-05-09 14:45:02.373,2,1.75,1.68,1.19,-56.869,-68.5132,-53.474000000000004,175,75
2026-05-09 14:45:02.392,2,1.63,2.02,1.0,-59.679,-108.8132,-37.134,175,75
2026-05-09 14:45:02.403,2,1.57,2.2,0.85,-68.819,-128.2632,-19.444000000000003,175,75
2026-05-09 14:45:02.416,2,1.57,2.12,0.8,-90.169,-94.0032,-1.8240000000000016,175,75
2026-05-09 14:45:02.429,2,1.58,1.89,0.88,-105.529,-27.1032,0.9159999999999968,175,75
2026-05-09 14:45:02.439,2,1.63,1.79,0.93,-106.569,35.2068,1.4659999999999975,175,75
2026-05-09 14:45:02.450,2,1.73,1.88,1.05,-101.869,63.196799999999996,9.815999999999999,175,75
2026-05-09 14:45:02.450,2,1.66,2.02,1.24,-112.539,77.4068,21.895999999999997,175,75
2026-05-09 14:45:02.464,2,1.71,2.01,1.41,-134.979,79.2968,27.385999999999996,175,75
2026-05-09 14:45:02.485,2,1.8,1.8,1.65,-162.909,46.4868,30.796,175,75
2026-05-09 14:45:02.497,2,1.74,1.35,1.77,-168.279,-1.5631999999999984,20.796,175,75
2026-05-09 14:45:02.507,2,1.71,0.99,1.78,-153.579,-69.0632,7.925999999999998,175,75
2026-05-09 14:45:02.518,2,1.41,0.92,1.66,-117.96900000000001,-169.4832,-3.774000000000001,175,75
2026-05-09 14:45:02.530,2,1.2,0.93,1.5,-117.729,-216.6232,-8.714000000000002,175,75
2026-05-09 14:45:02.555,2,0.92,0.94,1.3,-121.449,-257.23319999999995,-9.874000000000002,175,75
2026-05-09 14:45:02.579,2,0.41,1.01,0.71,-113.819,-263.2632,-5.114000000000001,175,75
2026-05-09 14:45:02.590,2,0.25,1.13,0.48,-104.979,-238.6332,-0.054000000000002046,175,75
2026-05-09 14:45:02.601,2,0.11,1.37,0.25,-92.119,-165.5232,11.225999999999999,175,75
2026-05-09 14:45:02.602,2,0.06,1.57,0.19,-79.799,-53.3232,22.195999999999998,175,75
2026-05-09 14:45:02.616,2,0.1,1.59,0.31,-68.639,94.2968,31.775999999999996,175,75
2026-05-09 14:45:02.628,2,0.2,1.46,0.61,-58.889,193.8068,41.775999999999996,175,75
2026-05-09 14:45:02.639,2,0.3,1.34,0.89,-54.429,232.5868,47.07599999999999,175,75
2026-05-09 14:45:02.656,2,0.47,0.95,1.47,-65.959,175.5168,47.385999999999996,175,75
2026-05-09 14:45:02.668,2,0.55,0.75,1.64,-84.18900000000001,30.266800000000003,42.806,175,75
2026-05-09 14:45:02.682,2,0.54,0.71,1.65,-93.089,-86.1332,39.885999999999996,175,75
2026-05-09 14:45:02.694,2,0.44,0.74,1.52,-90.289,-202.1732,34.516,175,75
2026-05-09 14:45:02.707,2,0.3,0.8,1.2,-82.179,-281.4332,29.086,175,75
2026-05-09 14:45:02.732,2,0.1,0.82,0.65,-76.68900000000001,-271.74319999999994,17.866,175,75
2026-05-09 14:45:02.732,2,0.1,0.82,0.51,-74.009,-226.6832,9.636,175,75
2026-05-09 14:45:02.757,2,0.11,0.85,0.34,-67.729,-62.6532,-12.494000000000003,175,75
2026-05-09 14:45:02.791,2,0.27,0.95,0.44,-72.179,79.0468,-32.684000000000005,175,75
2026-05-09 14:45:02.791,2,0.39,1.06,0.57,-73.949,119.4768,-38.224000000000004,175,75
2026-05-09 14:45:02.806,2,0.5,1.19,0.71,-73.519,135.8768,-37.984,175,75
2026-05-09 14:45:02.822,2,0.64,1.28,0.79,-73.459,128.7468,-34.324000000000005,175,75
2026-05-09 14:45:02.822,2,0.73,1.36,0.9,-76.68900000000001,108.2568,-24.204,175,75
2026-05-09 14:45:02.848,2,0.83,1.41,0.98,-85.10900000000001,80.8768,-23.714,175,75
2026-05-09 14:45:02.871,2,1.3,1.97,0.97,-87.239,2.706800000000001,-2.1340000000000003,175,75
2026-05-09 14:45:02.871,2,1.44,2.06,1.01,-81.07900000000001,-26.5032,6.285999999999998,175,75
2026-05-09 14:45:02.904,2,1.23,1.7,0.74,-97.35900000000001,-63.2632,2.685999999999998,175,75
2026-05-09 14:45:02.915,2,1.32,1.97,0.41,-86.929,-102.8432,34.57599999999999,175,75
2026-05-09 14:45:02.937,2,1.1,2.12,0.36,-80.959,-33.3932,89.816,175,75
2026-05-09 14:45:02.938,2,1.28,1.64,0.44,-120.229,64.7168,100.676,175,75
2026-05-09 14:45:02.955,2,1.55,1.42,0.61,-140.589,86.1868,106.40599999999999,175,75
2026-05-09 14:45:02.985,2,1.74,1.24,1.0,-122.239,85.6968,104.886,175,75
2026-05-09 14:45:02.985,2,1.84,1.02,1.13,-121.319,56.6068,92.926,175,75
2026-05-09 14:45:02.999,2,1.97,0.8,1.2,-134.00900000000001,-26.9232,77.626,175,75
2026-05-09 14:45:03.009,2,1.85,0.72,1.16,-143.699,-102.7832,58.666,175,75
2026-05-09 14:45:03.021,2,1.63,0.7,1.01,-147.119,-137.3532,40.676,175,75
2026-05-09 14:45:03.031,2,1.38,0.63,0.83,-151.929,-152.4132,16.956,175,75
2026-05-09 14:45:03.055,2,1.24,0.47,0.7,-178.219,-140.2832,-23.044000000000004,175,75
2026-05-09 14:45:03.068,2,1.12,0.52,0.65,-181.929,-121.13319999999999,-45.854,175,75
2026-05-09 14:45:03.078,2,0.97,0.7,0.56,-176.449,-99.9132,-58.104,175,75
2026-05-09 14:45:03.086,2,0.74,1.1,0.34,-163.639,-68.6932,-62.004000000000005,175,75
2026-05-09 14:45:03.108,2,0.39,1.79,-0.08,-139.859,5.756800000000001,-39.874,175,75
2026-05-09 14:45:03.111,2,0.28,2.08,-0.16,-119.309,107.3468,-20.794000000000004,175,75
2026-05-09 14:45:03.131,2,0.38,2.16,0.05,-96.319,231.8568,-4.024000000000001,175,75
2026-05-09 14:45:03.142,2,0.55,2.0,0.49,-85.039,324.4168,13.235999999999997,175,75
2026-05-09 14:45:03.151,2,0.66,1.93,0.84,-78.949,350.14680000000004,17.996,175,75
2026-05-09 14:45:03.161,2,0.89,1.92,1.28,-71.749,309.0468,26.406,175,75
2026-05-09 14:45:03.174,2,1.1,1.84,1.53,-65.109,168.4968,42.135999999999996,175,75
2026-05-09 14:45:03.187,2,1.18,1.66,1.59,-65.289,-28.5732,58.846,175,75
2026-05-09 14:45:03.197,2,1.08,1.5,1.45,-76.199,-215.1532,73.356,175,75
2026-05-09 14:45:03.217,2,0.83,1.34,1.05,-88.759,-332.35319999999996,84.886,175,75
2026-05-09 14:45:03.217,2,0.66,1.18,0.69,-92.059,-349.1832,89.576,175,75
2026-05-09 14:45:03.241,2,0.5,0.93,0.3,-85.779,-309.1832,88.846,175,75
2026-05-09 14:45:03.241,2,0.37,0.68,0.1,-72.60900000000001,-218.3932,78.29599999999999,175,75
2026-05-09 14:45:03.258,2,0.29,0.42,0.08,-64.309,-59.7932,57.745999999999995,175,75
2026-05-09 14:45:03.273,2,0.3,0.34,0.27,-69.979,90.3968,35.426,175,75
2026-05-09 14:45:03.284,2,0.32,0.41,0.45,-74.249,163.1968,21.525999999999996,175,75
2026-05-09 14:45:03.295,2,0.35,0.52,0.64,-75.229,208.3168,10.305999999999997,175,75
2026-05-09 14:45:03.306,2,0.4,0.56,0.88,-77.35900000000001,207.9568,5.495999999999999,175,75
2026-05-09 14:45:03.316,2,0.41,0.49,1.05,-85.10900000000001,160.3968,4.395999999999997,175,75
2026-05-09 14:45:03.341,2,0.33,0.44,1.09,-98.57900000000001,43.2568,-2.1940000000000026,175,75
2026-05-09 14:45:03.354,2,0.29,0.49,1.03,-93.089,22.1568,-10.244000000000003,175,75
2026-05-09 14:45:03.354,2,0.28,0.57,1.0,-85.899,19.7868,-18.654000000000003,175,75
2026-05-09 14:45:03.376,2,0.27,0.66,0.98,-80.409,31.976800000000004,-24.384,175,75
2026-05-09 14:45:03.401,2,0.31,0.85,1.09,-61.869,17.646800000000002,-31.094,175,75
2026-05-09 14:45:03.424,2,0.3,0.87,1.09,-59.369,-23.453200000000002,-26.094,175,75
2026-05-09 14:45:03.432,2,0.3,0.76,0.96,-65.349,-93.8732,-5.5440000000000005,175,75
2026-05-09 14:45:03.452,2,0.7,0.79,0.85,-76.139,-119.85319999999999,-3.2940000000000005,175,75
2026-05-09 14:45:03.466,2,0.94,0.89,0.89,-84.18900000000001,-101.5032,-9.504000000000001,175,75
2026-05-09 14:45:03.480,2,1.35,1.23,0.97,-97.729,-54.673199999999994,-17.924,175,75
2026-05-09 14:45:03.489,2,1.61,1.7,1.13,-109.979,-19.063200000000002,-29.024,175,75
2026-05-09 14:45:03.500,2,1.67,2.27,1.28,-116.999,13.436800000000002,-40.304,175,75
2026-05-09 14:45:03.521,2,1.62,2.15,1.39,-95.46900000000001,-87.9032,-33.354,175,75
2026-05-09 14:45:03.538,2,1.59,2.03,1.28,-102.729,-193.8132,-20.854,175,75
2026-05-09 14:45:03.550,2,1.43,2.13,0.93,-128.219,-248.2032,-6.644000000000002,175,75
2026-05-09 14:45:03.564,2,1.28,2.25,0.26,-147.78900000000002,-176.0132,40.066,175,75
2026-05-09 14:45:03.587,2,1.2,2.19,0.23,-149.919,-29.4232,61.346,175,75
2026-05-09 14:45:03.598,2,1.5,1.9,0.52,-170.169,168.9868,66.226,175,75
2026-05-09 14:45:03.603,2,1.72,1.56,1.01,-176.199,301.4868,47.385999999999996,175,75
2026-05-09 14:45:03.642,2,1.42,1.24,2.27,-157.119,13.196800000000001,-26.704,175,75
2026-05-09 14:45:03.663,2,1.21,1.67,2.09,-157.419,-206.0732,-8.534000000000002,175,75
2026-05-09 14:45:03.663,2,1.0,1.8,1.65,-165.959,-319.0632,15.245999999999999,175,75
2026-05-09 14:45:03.674,2,0.8,1.75,1.23,-183.149,-359.85319999999996,34.696,175,75
2026-05-09 14:45:03.695,2,0.75,1.69,0.94,-190.349,-342.35319999999996,44.57599999999999,175,75
2026-05-09 14:45:03.706,2,0.71,1.68,0.64,-178.75900000000001,-262.59319999999997,51.955999999999996,175,75
2026-05-09 14:45:03.706,2,0.68,1.71,0.48,-148.889,-162.4732,54.516,175,75
2026-05-09 14:45:03.737,2,0.48,1.5,0.81,-53.639,116.9168,52.925999999999995,175,75
2026-05-09 14:45:03.748,2,0.4,1.33,1.02,-40.959,154.7168,47.745999999999995,175,75
2026-05-09 14:45:03.753,2,0.4,1.08,1.2,-40.039,117.2168,47.316,175,75
2026-05-09 14:45:03.765,2,0.64,0.93,1.3,-48.819,-23.873199999999997,54.336,175,75
2026-05-09 14:45:03.787,2,0.61,0.91,1.37,-48.639,-155.5232,64.576,175,75
2026-05-09 14:45:03.798,2,0.48,0.87,1.24,-40.469,-206.6832,60.556,175,75
2026-05-09 14:45:03.803,2,0.35,0.81,1.03,-31.389,-229.1232,51.705999999999996,175,75
2026-05-09 14:45:03.850,2,0.07,0.74,0.56,-26.689,-96.8632,14.515999999999998,175,75
2026-05-09 14:45:03.863,2,0.04,0.73,0.46,-41.319,-7.533199999999999,-0.7240000000000038,175,75
2026-05-09 14:45:03.876,2,0.09,0.81,0.45,-48.459,41.1868,-10.974000000000004,175,75
2026-05-09 14:45:03.887,2,0.19,1.0,0.5,-51.259,107.0968,-20.544000000000004,175,75
2026-05-09 14:45:03.912,2,0.32,1.28,0.74,-41.929,223.8668,-33.594,175,75
2026-05-09 14:45:03.912,2,0.42,1.31,0.9,-42.419000000000004,249.7868,-40.304,175,75
2026-05-09 14:45:03.932,2,0.52,1.28,1.12,-45.899,248.3168,-45.794000000000004,175,75
2026-05-09 14:45:03.951,2,0.66,1.27,1.28,-50.649,198.4368,-48.164,175,75
2026-05-09 14:45:03.967,2,0.96,1.26,1.52,-70.899,32.9568,-37.314,175,75
2026-05-09 14:45:03.977,2,1.01,1.28,1.53,-79.919,-25.953200000000002,-37.004000000000005,175,75
2026-05-09 14:45:03.988,2,1.12,1.45,1.37,-84.559,-100.3432,-37.194,175,75
2026-05-09 14:45:04.015,2,1.2,1.67,1.12,-77.299,-153.4532,-29.814,175,75
2026-05-09 14:45:04.031,2,1.15,1.68,0.79,-66.389,-144.3032,-18.294000000000004,175,75
2026-05-09 14:45:04.044,2,1.18,1.55,0.64,-65.40899999999999,-114.9732,-14.384,175,75
2026-05-09 14:45:04.044,2,1.19,1.46,0.53,-61.449000000000005,-89.8532,-5.364000000000001,175,75
2026-05-09 14:45:04.066,2,1.03,1.54,0.41,-74.009,-5.583199999999998,12.195999999999998,175,75
2026-05-09 14:45:04.087,2,0.93,1.53,0.33,-97.119,36.0668,23.785999999999998,175,75
2026-05-09 14:45:04.098,2,1.0,1.47,0.32,-103.279,44.9068,39.456,175,75
2026-05-09 14:45:04.108,2,1.07,1.4,0.38,-95.10900000000001,54.9668,55.976,175,75
2026-05-09 14:45:04.115,2,1.19,1.28,0.5,-93.519,63.4368,65.42599999999999,175,75
2026-05-09 14:45:04.149,2,1.52,0.67,0.93,-121.509,49.9068,60.616,175,75
2026-05-09 14:45:04.156,2,1.56,0.41,1.04,-118.399,31.6068,42.135999999999996,175,75
2026-05-09 14:45:04.162,2,1.52,0.23,1.1,-113.519,4.536800000000001,23.176,175,75
2026-05-09 14:45:04.175,2,1.31,0.12,1.07,-112.35900000000001,-50.8232,-6.0340000000000025,175,75
2026-05-09 14:45:04.194,2,0.94,0.43,0.74,-136.50900000000001,-185.0332,-35.604,175,75
2026-05-09 14:45:04.231,2,0.87,1.14,0.14,-140.589,-195.4032,-38.834,175,75
2026-05-09 14:45:04.267,2,0.93,2.51,-0.17,-71.509,50.266799999999996,-1.644000000000002,175,75
2026-05-09 14:45:04.276,2,0.99,2.12,0.09,-67.359,91.1268,21.955999999999996,175,75
2026-05-09 14:45:04.285,2,1.02,1.81,0.25,-73.339,82.8968,30.555999999999997,175,75
2026-05-09 14:45:04.297,2,1.06,1.7,0.45,-75.589,62.0968,34.516,175,75
2026-05-09 14:45:04.310,2,1.08,1.73,0.57,-67.669,28.196800000000003,44.396,175,75
2026-05-09 14:45:04.336,2,0.93,1.4,0.65,-64.129,-62.4132,56.226,175,75
2026-05-09 14:45:04.346,2,0.87,1.21,0.54,-77.789,-108.14320000000001,61.226,175,75
2026-05-09 14:45:04.377,2,0.76,0.7,0.42,-88.459,-49.6032,59.885999999999996,175,75
2026-05-09 14:45:04.406,2,0.66,0.48,0.58,-84.559,13.986800000000002,43.786,175,75
2026-05-09 14:45:04.419,2,0.57,0.47,0.7,-90.959,29.7168,37.506,175,75
2026-05-09 14:45:04.436,2,0.43,0.49,0.83,-109.309,14.9068,30.616,175,75
2026-05-09 14:45:04.456,2,0.42,0.53,0.86,-131.809,-51.2532,34.946,175,75
2026-05-09 14:45:04.470,2,0.41,0.51,0.82,-138.519,-73.39320000000001,37.016,175,75
2026-05-09 14:45:04.481,2,0.33,0.48,0.81,-139.429,-60.89320000000001,32.196,175,75
2026-05-09 14:45:04.520,2,0.37,0.54,0.81,-135.899,-0.7031999999999989,13.605999999999998,175,75
2026-05-09 14:45:04.590,2,1.05,0.85,0.95,-152.729,21.736800000000002,-1.274000000000001,175,75
2026-05-09 14:45:04.608,2,1.38,0.94,1.11,-150.959,23.8668,-10.974000000000004,175,75
2026-05-09 14:45:04.625,2,1.56,1.2,1.16,-139.129,19.7168,-29.204,175,75
2026-05-09 14:45:04.625,2,1.61,1.76,1.01,-121.809,-14.543199999999997,-27.254000000000005,175,75
2026-05-09 14:45:04.632,2,1.51,2.41,0.88,-115.229,-45.8232,-12.254000000000001,175,75
2026-05-09 14:45:04.646,2,1.41,2.45,0.92,-134.189,-27.7132,-1.0340000000000025,175,75
2026-05-09 14:45:04.669,2,1.26,2.04,0.88,-157.479,13.686800000000002,-1.8240000000000016,175,75
2026-05-09 14:45:04.699,2,1.24,1.67,1.24,-179.429,211.1868,43.846,175,75
2026-05-09 14:45:04.718,2,1.52,1.62,2.05,-183.579,334.2968,11.895999999999997,175,75
2026-05-09 14:45:04.740,2,1.53,1.56,2.95,-152.609,237.2868,-16.524,175,75
2026-05-09 14:45:04.756,2,1.27,1.4,3.07,-155.589,100.6968,-25.914,175,75
2026-05-09 14:45:04.756,2,1.15,1.28,2.92,-146.139,-50.7632,-44.444,175,75
2026-05-09 14:45:04.770,2,1.17,1.22,2.54,-134.00900000000001,-227.5932,-44.324000000000005,175,75
2026-05-09 14:45:04.807,2,0.33,1.32,0.94,-137.729,-368.8732,-8.414000000000001,175,75
2026-05-09 14:45:04.807,2,0.23,1.26,0.63,-136.50900000000001,-298.1432,2.565999999999997,175,75
2026-05-09 14:45:04.830,2,0.21,1.42,0.33,-81.569,8.256800000000002,23.785999999999998,175,75
2026-05-09 14:45:04.846,2,0.32,1.47,0.48,-51.749,143.8068,37.995999999999995,175,75
2026-05-09 14:45:04.865,2,0.54,1.34,1.07,-26.869,220.2668,54.336,175,75
2026-05-09 14:45:04.876,2,0.64,1.22,1.42,-25.288999999999998,173.0168,62.076,175,75
2026-05-09 14:45:04.887,2,0.65,1.03,1.65,-27.968999999999998,76.9768,64.636,175,75
2026-05-09 14:45:04.903,2,0.58,0.84,1.68,-32.299,-61.1332,60.006,175,75
2026-05-09 14:45:04.913,2,0.45,0.75,1.51,-29.069,-188.2032,51.036,175,75
2026-05-09 14:45:04.926,2,0.35,0.75,1.26,-21.628999999999998,-256.5032,42.926,175,75
2026-05-09 14:45:04.936,2,0.28,0.76,1.04,-15.959,-279.67319999999995,38.116,175,75
2026-05-09 14:45:04.976,2,0.22,0.73,0.45,-2.8489999999999993,-162.7832,1.0359999999999978,175,75
2026-05-09 14:45:04.987,2,0.25,0.87,0.36,1.4210000000000003,-93.8132,-9.204,175,75
2026-05-09 14:45:05.002,2,0.3,1.08,0.34,3.1310000000000002,23.4368,-21.464,175,75
2026-05-09 14:45:05.022,2,0.37,1.03,0.51,-13.279,89.5968,-35.424,175,75
2026-05-09 14:45:05.036,2,0.48,1.0,0.62,-19.619,99.4768,-41.464,175,75
2026-05-09 14:45:05.049,2,0.66,1.03,0.74,-23.029,83.8068,-44.324000000000005,175,75
2026-05-09 14:45:05.064,2,0.99,1.13,0.94,-29.558999999999997,20.876800000000003,-48.474000000000004,175,75
2026-05-09 14:45:05.079,2,1.12,1.16,0.98,-39.799,-26.623199999999997,-52.254000000000005,175,75
2026-05-09 14:45:05.103,2,1.33,1.3,0.88,-52.969,-88.7532,-58.294,175,75
2026-05-09 14:45:05.116,2,1.57,1.99,0.61,-53.339,-176.2532,-33.654,175,75
2026-05-09 14:45:05.119,2,1.46,2.06,0.52,-47.419000000000004,-162.3532,-29.264000000000003,175,75
2026-05-09 14:45:05.133,2,1.37,1.79,0.41,-51.569,-142.1732,-28.534,175,75
2026-05-09 14:45:05.154,2,0.99,1.65,-0.17,-65.959,-147.2932,-18.164,175,75
2026-05-09 14:45:05.168,2,1.02,1.8,-0.31,-54.009,-152.2932,14.275999999999998,175,75
2026-05-09 14:45:05.175,2,0.93,1.89,-0.24,-69.559,-71.4332,26.105999999999998,175,75
2026-05-09 14:45:05.217,2,1.32,1.81,0.31,-93.639,214.4768,37.626,175,75
2026-05-09 14:45:05.228,2,1.26,1.66,0.68,-80.289,230.0268,42.926,175,75
2026-05-09 14:45:05.239,2,1.14,1.47,0.9,-84.18900000000001,209.0468,44.516,175,75
2026-05-09 14:45:05.252,2,1.12,1.19,1.1,-107.479,122.5268,46.465999999999994,175,75
2026-05-09 14:45:05.264,2,1.17,1.05,1.23,-126.07900000000001,34.476800000000004,50.675999999999995,175,75
2026-05-09 14:45:05.274,2,1.17,0.74,1.36,-151.25900000000001,-107.8432,46.586,175,75
2026-05-09 14:45:05.284,2,1.24,0.64,1.29,-154.679,-155.0932,39.206,175,75
2026-05-09 14:45:05.294,2,1.2,0.64,1.13,-150.469,-196.2532,28.235999999999997,175,75
2026-05-09 14:45:05.331,2,0.39,0.6,0.42,-127.60900000000001,-129.1832,-12.194000000000003,175,75
2026-05-09 14:45:05.348,2,0.36,0.58,0.36,-145.28900000000002,-124.00319999999999,-19.634,175,75
2026-05-09 14:45:05.359,2,0.35,0.83,0.25,-159.429,-105.0932,-24.814,175,75
2026-05-09 14:45:05.385,2,0.61,2.27,-0.18,-116.629,-47.3532,2.0159999999999982,175,75
2026-05-09 14:45:05.408,2,0.75,2.34,0.19,-55.469,188.1368,51.705999999999996,175,75
2026-05-09 14:45:05.421,2,0.97,2.35,0.42,-58.279,167.6468,68.536,175,75
2026-05-09 14:45:05.432,2,1.1,2.19,0.68,-58.339,85.7568,90.976,175,75
2026-05-09 14:45:05.446,2,1.16,1.77,0.83,-63.759,-3.6331999999999987,99.336,175,75
2026-05-09 14:45:05.460,2,1.07,1.31,0.88,-76.07900000000001,-102.4732,101.896,175,75
2026-05-09 14:45:05.471,2,0.97,1.08,0.77,-81.809,-171.0132,100.18599999999999,175,75
2026-05-09 14:45:05.493,2,0.54,0.57,0.18,-77.35900000000001,-231.2532,95.856,175,75
2026-05-09 14:45:05.506,2,0.44,0.38,-0.01,-82.789,-188.1432,88.536,175,75
2026-05-09 14:45:05.521,2,0.39,0.29,-0.11,-90.10900000000001,-109.0032,81.776,175,75
2026-05-09 14:45:05.551,2,0.35,0.48,0.23,-110.409,192.2868,55.306,175,75
2026-05-09 14:45:05.569,2,0.4,0.5,0.51,-119.129,252.5868,44.57599999999999,175,75
2026-05-09 14:45:05.583,2,0.5,0.44,0.85,-131.319,274.1768,31.955999999999996,175,75
2026-05-09 14:45:05.616,2,0.56,0.47,1.4,-155.529,68.8668,17.746,175,75
2026-05-09 14:45:05.628,2,0.48,0.55,1.36,-152.609,-18.5732,21.586,175,75
2026-05-09 14:45:05.651,2,0.38,0.54,1.09,-140.839,-99.6732,22.805999999999997,175,75
2026-05-09 14:45:05.666,2,0.37,0.53,0.92,-131.44899999999998,-92.1732,17.195999999999998,175,75
2026-05-09 14:45:05.686,2,0.34,0.65,0.74,-112.789,-39.9732,19.086,175,75
2026-05-09 14:45:05.700,2,0.5,0.64,0.75,-110.589,-6.193199999999999,19.025999999999996,175,75
2026-05-09 14:45:05.712,2,0.64,0.58,0.85,-114.499,33.0168,15.855999999999998,175,75
2026-05-09 14:45:05.726,2,1.12,0.56,1.1,-109.919,91.4868,-4.264000000000003,175,75
2026-05-09 14:45:05.747,2,1.31,0.65,1.23,-105.039,97.3468,-24.324000000000005,175,75
2026-05-09 14:45:05.757,2,1.32,0.85,1.25,-102.789,94.2968,-40.974000000000004,175,75
2026-05-09 14:45:05.767,2,1.34,1.27,1.19,-102.669,70.3968,-48.474000000000004,175,75
2026-05-09 14:45:05.767,2,1.35,1.73,1.16,-109.009,41.6068,-44.384,175,75
2026-05-09 14:45:05.804,2,1.23,2.34,0.98,-148.949,39.9668,-28.534,175,75
2026-05-09 14:45:05.827,2,1.42,1.99,1.38,-167.849,123.9868,31.465999999999998,175,75
2026-05-09 14:45:05.837,2,1.63,1.89,1.75,-194.499,233.6868,25.005999999999997,175,75
2026-05-09 14:45:05.851,2,1.83,1.73,2.37,-206.629,298.3768,-3.1640000000000015,175,75
