Time,ID,Ax,Ay,Az,Gx,Gy,Gz,Height,Weight
2026-05-09 16:00:00.824,2,-0.44,-0.66,0.38,-42.2144,4.577800000000003,5.5736,175,75
2026-05-09 16:00:00.824,2,-0.44,-0.63,0.45,-19.5344,33.84780000000001,-2.5364,175,75
2026-05-09 16:00:00.824,2,-0.51,-0.59,0.58,3.025599999999999,64.3378,-9.4864,175,75
2026-05-09 16:00:00.866,2,-0.47,-0.52,0.66,10.035599999999999,68.0578,-14.296399999999998,175,75
2026-05-09 16:00:00.866,2,-0.44,-0.48,0.73,6.7456,42.997800000000005,-18.3264,175,75
2026-05-09 16:00:00.866,2,-0.45,-0.45,0.77,-2.5244,15.367800000000003,-13.6964,175,75
2026-05-09 16:00:00.871,2,-0.42,-0.42,0.76,-7.2744,-13.952199999999998,-0.8864000000000001,175,75
2026-05-09 16:00:00.878,2,-0.45,-0.4,0.73,-4.224400000000003,-33.1622,10.093599999999999,175,75
2026-05-09 16:00:00.957,2,-0.47,-0.37,0.47,21.8656,-8.472199999999994,-4.1164000000000005,175,75
2026-05-09 16:00:00.968,2,-0.43,-0.4,0.49,31.2556,-23.1622,-6.8664,175,75
2026-05-09 16:00:00.978,2,-0.42,-0.43,0.49,31.315599999999996,-39.8722,-14.726400000000002,175,75
2026-05-09 16:00:01.063,2,-0.42,-0.39,0.37,47.4156,27.0178,-30.276400000000002,175,75
2026-05-09 16:00:01.078,2,-0.6,-0.22,0.8,54.855599999999995,112.1378,-35.7664,175,75
2026-05-09 16:00:01.092,2,0.13,-0.17,0.65,9.305599999999998,-196.3322,-18.0164,175,75
2026-05-09 16:00:01.102,2,-0.14,-0.22,0.63,-30.024400000000004,-234.7522,34.3536,175,75
2026-05-09 16:00:01.112,2,-0.27,-0.29,0.34,-52.5844,-204.8122,48.9936,175,75
2026-05-09 16:00:01.123,2,-0.5,-0.41,0.18,-48.7444,-159.0822,8.0136,175,75
2026-05-09 16:00:01.123,2,-0.55,-0.47,0.02,-39.294399999999996,-84.44219999999999,-37.2264,175,75
2026-05-09 16:00:01.136,2,-0.31,-0.42,0.0,-21.664400000000004,-32.5522,-55.7664,175,75
2026-05-09 16:00:01.160,2,-0.09,-0.31,0.27,4.7955999999999985,52.1978,-24.0564,175,75
2026-05-09 16:00:01.234,2,-0.25,-0.32,0.44,-35.514399999999995,1.4078000000000017,-70.21640000000001,175,75
2026-05-09 16:00:01.273,2,-0.15,-0.6,0.51,-48.4944,-6.702199999999998,-36.2564,175,75
2026-05-09 16:00:01.284,2,-0.3,-0.68,0.47,-54.294399999999996,-10.782199999999996,-30.456400000000002,175,75
2026-05-09 16:00:01.284,2,-0.45,-0.65,0.34,-52.9444,-15.782199999999996,-68.2064,175,75
2026-05-09 16:00:01.284,2,-0.38,-0.55,0.3,-39.59440000000001,-13.6522,-92.4764,175,75
2026-05-09 16:00:01.330,2,-0.28,-0.45,0.3,-29.354400000000002,0.7378000000000036,-92.6564,175,75
2026-05-09 16:00:01.352,2,-0.45,-0.56,0.17,-31.9744,58.4778,-58.7564,175,75
2026-05-09 16:00:01.433,2,-0.56,-0.51,0.22,13.635599999999998,277.07779999999997,-40.456399999999995,175,75
2026-05-09 16:00:01.437,2,-0.64,-0.53,0.22,22.415599999999998,286.2278,-42.7164,175,75
2026-05-09 16:00:01.460,2,-0.72,-0.42,0.28,31.075599999999998,289.39779999999996,-58.5064,175,75
2026-05-09 16:00:01.512,2,-0.61,-0.22,0.42,30.2256,291.2278,-33.2064,175,75
2026-05-09 16:00:01.543,2,-0.47,-0.3,0.55,39.9756,207.1978,6.5536,175,75
2026-05-09 16:00:01.543,2,-0.37,-0.47,0.6,25.775599999999997,128.3578,19.7836,175,75
2026-05-09 16:00:01.553,2,-0.33,-0.51,0.61,13.145599999999998,102.86780000000002,19.0536,175,75
2026-05-09 16:00:01.565,2,-0.21,-0.53,0.61,5.1655999999999995,60.6178,23.8736,175,75
2026-05-09 16:00:01.577,2,-0.16,-0.57,0.62,11.3156,36.717800000000004,25.703599999999998,175,75
2026-05-09 16:00:01.599,2,-0.18,-0.59,0.62,13.815599999999998,13.607800000000003,25.3336,175,75
2026-05-09 16:00:01.611,2,-0.25,-0.53,0.56,10.775599999999999,-15.3022,20.633599999999998,175,75
2026-05-09 16:00:01.627,2,-0.27,-0.47,0.53,9.4256,-25.0522,17.6536,175,75
2026-05-09 16:00:01.639,2,-0.26,-0.43,0.48,10.165599999999998,-27.922199999999997,17.953599999999998,175,75
2026-05-09 16:00:01.649,2,-0.23,-0.4,0.43,11.985599999999998,-27.252199999999995,20.703599999999998,175,75
2026-05-09 16:00:01.670,2,-0.22,-0.43,0.37,18.575599999999998,-0.5421999999999976,24.8436,175,75
2026-05-09 16:00:01.688,2,-0.18,-0.47,0.36,24.6156,33.177800000000005,22.7136,175,75
2026-05-09 16:00:01.700,2,-0.17,-0.47,0.36,27.4756,50.2478,21.793599999999998,175,75
2026-05-09 16:00:01.701,2,-0.18,-0.46,0.39,30.4656,69.6378,22.043599999999998,175,75
2026-05-09 16:00:01.714,2,-0.19,-0.44,0.44,31.8656,81.71780000000001,22.5936,175,75
2026-05-09 16:00:01.725,2,-0.19,-0.43,0.49,31.8056,86.77780000000001,22.5936,175,75
2026-05-09 16:00:01.736,2,-0.16,-0.43,0.56,31.6256,84.0878,22.4636,175,75
2026-05-09 16:00:01.759,2,-0.13,-0.45,0.61,30.775599999999997,71.9578,22.5236,175,75
2026-05-09 16:00:01.759,2,-0.12,-0.44,0.6,28.3356,49.6978,20.5136,175,75
2026-05-09 16:00:01.778,2,-0.14,-0.41,0.61,25.775599999999997,32.6278,18.563599999999997,175,75
2026-05-09 16:00:01.826,2,-0.16,-0.35,0.61,28.025599999999997,22.4478,22.953599999999998,175,75
2026-05-09 16:00:01.872,2,-0.11,-0.4,0.68,29.485599999999998,-13.772199999999998,22.1636,175,75
2026-05-09 16:00:01.872,2,-0.13,-0.41,0.68,26.6856,-30.9122,20.453599999999998,175,75
2026-05-09 16:00:01.884,2,-0.14,-0.42,0.68,22.7256,-40.91219999999999,18.0736,175,75
2026-05-09 16:00:01.884,2,-0.15,-0.42,0.66,18.025599999999997,-49.5622,16.0036,175,75
2026-05-09 16:00:01.896,2,-0.16,-0.41,0.61,14.485599999999998,-60.6022,12.6536,175,75
2026-05-09 16:00:01.906,2,-0.2,-0.37,0.54,12.415599999999998,-69.44219999999999,8.503599999999999,175,75
2026-05-09 16:00:01.929,2,-0.26,-0.23,0.4,6.445599999999999,-35.6022,6.853599999999999,175,75
2026-05-09 16:00:01.979,2,-0.16,-0.41,0.63,11.255599999999998,1.717800000000004,10.1536,175,75
2026-05-09 16:00:02.017,2,-0.15,-0.46,0.7,13.275599999999999,-22.002199999999995,7.7136000000000005,175,75
2026-05-09 16:00:02.028,2,-0.15,-0.52,0.67,10.285599999999999,-48.892199999999995,3.5035999999999996,175,75
2026-05-09 16:00:02.063,2,-0.18,-0.52,0.64,8.635599999999998,-54.142199999999995,0.7036000000000002,175,75
2026-05-09 16:00:02.063,2,-0.19,-0.54,0.62,8.575599999999998,-57.9822,-6.4364,175,75
2026-05-09 16:00:02.079,2,-0.2,-0.55,0.6,9.855599999999999,-58.41219999999999,-8.2064,175,75
2026-05-09 16:00:02.119,2,-0.24,-0.38,0.49,8.945599999999999,-63.9522,-22.2264,175,75
2026-05-09 16:00:02.126,2,-0.25,-0.32,0.44,8.575599999999998,-55.782199999999996,-20.276400000000002,175,75
2026-05-09 16:00:02.126,2,-0.27,-0.31,0.45,9.795599999999999,-42.742200000000004,-16.7964,175,75
2026-05-09 16:00:02.138,2,-0.29,-0.31,0.47,10.345599999999997,-34.9922,-15.3964,175,75
2026-05-09 16:00:02.159,2,-0.28,-0.32,0.51,9.4256,-35.0522,-16.0664,175,75
2026-05-09 16:00:02.171,2,-0.26,-0.32,0.55,7.475599999999998,-42.6722,-17.3464,175,75
2026-05-09 16:00:02.180,2,-0.24,-0.33,0.56,3.6355999999999984,-55.972199999999994,-16.9864,175,75
2026-05-09 16:00:02.191,2,-0.24,-0.33,0.56,0.035599999999998744,-65.72219999999999,-15.336400000000001,175,75
2026-05-09 16:00:02.207,2,-0.24,-0.34,0.54,-3.924400000000002,-72.25219999999999,-14.0564,175,75
2026-05-09 16:00:02.207,2,-0.24,-0.36,0.52,-6.3644,-76.4522,-12.5964,175,75
2026-05-09 16:00:02.219,2,-0.25,-0.38,0.5,-7.334400000000002,-78.59219999999999,-13.2664,175,75
2026-05-09 16:00:02.230,2,-0.25,-0.39,0.48,-8.194400000000002,-78.6522,-14.176400000000001,175,75
2026-05-09 16:00:02.241,2,-0.24,-0.4,0.47,-8.924400000000002,-76.5222,-13.996400000000001,175,75
2026-05-09 16:00:02.252,2,-0.23,-0.42,0.46,-9.4144,-73.04220000000001,-12.406400000000001,175,75
2026-05-09 16:00:02.278,2,-0.25,-0.43,0.4,-8.804400000000001,-47.13219999999999,-10.2164,175,75
2026-05-09 16:00:02.286,2,-0.25,-0.43,0.4,-7.2744,-33.102199999999996,-10.7664,175,75
2026-05-09 16:00:02.297,2,-0.24,-0.42,0.41,-5.384400000000003,-22.312199999999997,-10.0964,175,75
2026-05-09 16:00:02.309,2,-0.24,-0.42,0.42,-3.924400000000002,-16.032199999999996,-10.0964,175,75
2026-05-09 16:00:02.327,2,-0.24,-0.41,0.41,-4.1644000000000005,-12.002199999999995,-10.0964,175,75
2026-05-09 16:00:02.338,2,-0.24,-0.4,0.41,-3.4344,-5.302199999999999,-10.0364,175,75
2026-05-09 16:00:02.351,2,-0.24,-0.39,0.41,-0.26440000000000197,6.897800000000004,-8.7564,175,75
2026-05-09 16:00:02.361,2,-0.24,-0.38,0.42,3.4555999999999987,14.697800000000003,-7.9564,175,75
2026-05-09 16:00:02.361,2,-0.23,-0.37,0.46,7.2955999999999985,22.0178,-8.2064,175,75
2026-05-09 16:00:02.389,2,-0.22,-0.37,0.5,9.485599999999998,20.247800000000005,-6.9264,175,75
2026-05-09 16:00:02.400,2,-0.2,-0.39,0.51,10.465599999999998,16.717800000000004,-5.4564,175,75
2026-05-09 16:00:02.415,2,-0.2,-0.4,0.52,12.535599999999999,12.257800000000003,-4.0564,175,75
2026-05-09 16:00:02.415,2,-0.2,-0.4,0.53,15.285599999999999,6.897800000000004,-4.4264,175,75
2026-05-09 16:00:02.454,2,-0.19,-0.4,0.53,16.3756,0.9178000000000033,-5.2164,175,75
2026-05-09 16:00:02.500,2,-0.17,-0.42,0.52,18.6956,-19.502199999999995,-4.9764,175,75
2026-05-09 16:00:02.500,2,-0.18,-0.42,0.51,20.095599999999997,-23.712199999999996,-6.0664,175,75
2026-05-09 16:00:02.504,2,-0.18,-0.42,0.49,21.135599999999997,-25.972199999999994,-6.5564,175,75
2026-05-09 16:00:02.538,2,-0.19,-0.4,0.47,23.5156,-23.4122,-6.2564,175,75
2026-05-09 16:00:02.589,2,-0.2,-0.36,0.41,23.275599999999997,-17.132199999999997,-7.2264,175,75
2026-05-09 16:00:02.589,2,-0.19,-0.36,0.38,21.7456,6.167800000000003,-3.3264,175,75
2026-05-09 16:00:02.600,2,-0.19,-0.37,0.39,21.505599999999998,16.107800000000005,-2.5364,175,75
2026-05-09 16:00:02.610,2,-0.19,-0.37,0.41,21.3756,24.887800000000002,-3.1464,175,75
2026-05-09 16:00:02.622,2,-0.18,-0.38,0.45,20.2256,29.827800000000003,-4.5464,175,75
2026-05-09 16:00:02.644,2,-0.16,-0.39,0.51,14.4256,24.5178,-4.1764,175,75
2026-05-09 16:00:02.660,2,-0.17,-0.4,0.52,13.945599999999999,20.247800000000005,-3.2664,175,75
2026-05-09 16:00:02.671,2,-0.18,-0.4,0.51,13.575599999999998,14.157800000000003,-3.5664,175,75
2026-05-09 16:00:02.682,2,-0.18,-0.39,0.5,12.5956,7.137800000000002,-5.0364,175,75
2026-05-09 16:00:02.685,2,-0.18,-0.37,0.47,11.685599999999999,4.277800000000003,-4.0564,175,75
2026-05-09 16:00:02.696,2,-0.19,-0.37,0.45,11.685599999999999,5.917800000000003,-3.4464,175,75
2026-05-09 16:00:02.707,2,-0.18,-0.37,0.46,12.725599999999998,8.847800000000003,-2.2264,175,75
2026-05-09 16:00:02.729,2,-0.18,-0.38,0.46,13.455599999999999,9.887800000000002,-1.4964,175,75
2026-05-09 16:00:02.739,2,-0.18,-0.39,0.47,13.7556,9.277800000000003,-2.1064,175,75
2026-05-09 16:00:02.749,2,-0.17,-0.39,0.48,13.575599999999998,7.627800000000004,-2.2864,175,75
2026-05-09 16:00:02.761,2,-0.18,-0.4,0.48,13.635599999999998,5.007800000000003,-1.9264000000000001,175,75
2026-05-09 16:00:02.783,2,-0.19,-0.4,0.48,15.465599999999998,3.7878000000000043,-1.6764000000000001,175,75
2026-05-09 16:00:02.794,2,-0.2,-0.39,0.46,15.225599999999998,4.087800000000001,-1.7364,175,75
2026-05-09 16:00:02.806,2,-0.19,-0.37,0.45,14.4256,5.497800000000002,-1.9864,175,75
2026-05-09 16:00:02.818,2,-0.18,-0.37,0.45,13.875599999999999,7.997800000000002,-0.21640000000000015,175,75
2026-05-09 16:00:02.832,2,-0.19,-0.39,0.46,13.575599999999998,9.757800000000003,2.1036,175,75
2026-05-09 16:00:02.913,2,-0.17,-0.39,0.48,10.8356,2.0778000000000034,0.0935999999999999,175,75
2026-05-09 16:00:02.913,2,-0.18,-0.38,0.47,10.4056,-2.0021999999999984,-0.8864000000000001,175,75
2026-05-09 16:00:02.947,2,-0.18,-0.39,0.45,9.125599999999999,-0.3021999999999956,-0.1564000000000001,175,75
2026-05-09 16:00:02.947,2,-0.18,-0.39,0.45,9.6756,1.5878000000000014,-0.7063999999999999,175,75
2026-05-09 16:00:02.958,2,-0.18,-0.39,0.45,10.165599999999998,3.7878000000000043,-1.3764,175,75
2026-05-09 16:00:02.980,2,-0.18,-0.38,0.45,10.2256,7.507800000000003,-1.7364,175,75
2026-05-09 16:00:03.004,2,-0.18,-0.38,0.46,8.695599999999999,9.757800000000003,-1.2564,175,75
2026-05-09 16:00:03.116,2,-0.17,-0.41,0.47,7.355599999999999,5.557800000000004,-2.2864,175,75
2026-05-09 16:00:03.126,2,-0.18,-0.4,0.46,8.025599999999999,5.797800000000002,-2.8964,175,75
2026-05-09 16:00:03.126,2,-0.19,-0.39,0.45,7.845599999999999,6.287800000000004,-2.5964,175,75
2026-05-09 16:00:03.131,2,-0.18,-0.39,0.45,7.9655999999999985,7.507800000000003,-2.7763999999999998,175,75
2026-05-09 16:00:03.142,2,-0.18,-0.39,0.45,8.5156,8.787800000000004,-2.4764,175,75
2026-05-09 16:00:03.157,2,-0.18,-0.39,0.45,9.185599999999999,9.947800000000004,-2.2264,175,75
2026-05-09 16:00:03.169,2,-0.17,-0.39,0.46,9.615599999999999,9.457800000000002,-3.2664,175,75
2026-05-09 16:00:03.180,2,-0.17,-0.39,0.47,9.555599999999998,9.087800000000001,-3.3264,175,75
2026-05-09 16:00:03.190,2,-0.17,-0.39,0.47,9.485599999999998,8.727800000000002,-3.0164,175,75
2026-05-09 16:00:03.190,2,-0.17,-0.39,0.46,9.555599999999998,8.787800000000004,-2.7763999999999998,175,75
2026-05-09 16:00:03.207,2,-0.17,-0.4,0.46,9.555599999999998,9.277800000000003,-3.0164,175,75
2026-05-09 16:00:03.219,2,-0.17,-0.39,0.46,10.035599999999999,9.697800000000004,-3.3864,175,75
2026-05-09 16:00:03.230,2,-0.17,-0.39,0.46,10.285599999999999,9.277800000000003,-4.4264,175,75
2026-05-09 16:00:03.240,2,-0.18,-0.38,0.47,10.465599999999998,8.547800000000002,-4.9064,175,75
2026-05-09 16:00:03.252,2,-0.18,-0.38,0.47,10.2256,8.237800000000004,-4.1764,175,75
2026-05-09 16:00:03.263,2,-0.19,-0.38,0.46,9.555599999999998,7.807800000000004,-3.5064,175,75
2026-05-09 16:00:03.299,2,-0.18,-0.38,0.47,9.305599999999998,10.247800000000002,-3.9364,175,75
2026-05-09 16:00:03.320,2,-0.17,-0.38,0.47,8.3356,10.067800000000002,-3.6963999999999997,175,75
2026-05-09 16:00:03.333,2,-0.19,-0.38,0.46,8.025599999999999,8.547800000000002,-3.7564,175,75
2026-05-09 16:00:03.348,2,-0.18,-0.38,0.46,7.725599999999998,8.667800000000003,-4.4264,175,75
2026-05-09 16:00:03.479,2,-0.19,-0.39,0.46,7.6655999999999995,9.157800000000002,-2.9564,175,75
2026-05-09 16:00:03.533,2,-0.19,-0.39,0.47,7.785599999999999,9.887800000000002,-2.4064,175,75
2026-05-09 16:00:03.555,2,-0.19,-0.39,0.46,7.4155999999999995,10.187800000000003,-2.4764,175,75
2026-05-09 16:00:03.555,2,-0.19,-0.39,0.47,7.845599999999999,10.367800000000003,-1.8664,175,75
2026-05-09 16:00:03.586,2,-0.19,-0.39,0.47,8.635599999999998,6.347800000000003,-1.3164,175,75
2026-05-09 16:00:03.601,2,-0.2,-0.39,0.46,9.005599999999998,5.857800000000005,-1.1264,175,75
2026-05-09 16:00:03.631,2,-0.19,-0.38,0.44,10.2256,8.057800000000004,-1.0064,175,75
2026-05-09 16:00:03.641,2,-0.19,-0.38,0.46,10.345599999999997,9.577800000000003,-0.6463999999999999,175,75
2026-05-09 16:00:03.663,2,-0.19,-0.39,0.46,10.775599999999999,10.007800000000003,-1.0064,175,75
2026-05-09 16:00:03.673,2,-0.19,-0.39,0.45,11.0156,8.907800000000002,-0.7063999999999999,175,75
2026-05-09 16:00:03.694,2,-0.19,-0.4,0.46,11.255599999999998,9.697800000000004,-0.03639999999999999,175,75
2026-05-09 16:00:03.694,2,-0.18,-0.4,0.46,11.505599999999998,9.517800000000001,-0.39639999999999986,175,75
2026-05-09 16:00:03.705,2,-0.18,-0.4,0.46,11.865599999999999,8.357800000000005,-0.9463999999999999,175,75
2026-05-09 16:00:03.705,2,-0.18,-0.4,0.45,11.685599999999999,7.867800000000003,-1.3764,175,75
2026-05-09 16:00:03.733,2,-0.19,-0.39,0.45,11.5656,8.357800000000005,-0.9463999999999999,175,75
2026-05-09 16:00:03.743,2,-0.2,-0.39,0.44,11.7456,9.517800000000001,-0.5864,175,75
2026-05-09 16:00:03.755,2,-0.2,-0.39,0.44,11.625599999999999,11.167800000000003,-0.5164,175,75
2026-05-09 16:00:03.767,2,-0.18,-0.39,0.45,11.5656,12.447800000000003,-0.6463999999999999,175,75
2026-05-09 16:00:03.785,2,-0.18,-0.39,0.45,10.645599999999998,10.437800000000003,-0.21640000000000015,175,75
2026-05-09 16:00:03.809,2,-0.18,-0.37,0.45,11.3156,11.227800000000002,-1.4964,175,75
2026-05-09 16:00:03.883,2,-0.19,-0.37,0.45,10.035599999999999,10.677800000000001,-0.21640000000000015,175,75
2026-05-09 16:00:03.883,2,-0.2,-0.37,0.44,9.305599999999998,11.467800000000004,0.2136,175,75
2026-05-09 16:00:03.908,2,-0.2,-0.37,0.45,8.755599999999998,11.897800000000004,0.7036000000000002,175,75
2026-05-09 16:00:03.908,2,-0.2,-0.38,0.45,8.395599999999998,11.467800000000004,0.6335999999999999,175,75
2026-05-09 16:00:03.935,2,-0.2,-0.38,0.46,6.625599999999999,8.417800000000003,2.0435999999999996,175,75
2026-05-09 16:00:03.939,2,-0.21,-0.39,0.46,6.565599999999998,7.807800000000004,2.5936000000000003,175,75
2026-05-09 16:00:03.956,2,-0.19,-0.4,0.46,6.7456,6.837800000000001,2.7736,175,75
2026-05-09 16:00:03.970,2,-0.19,-0.4,0.47,6.7456,5.007800000000003,3.0136000000000003,175,75
2026-05-09 16:00:04.014,2,-0.2,-0.41,0.47,6.075599999999998,2.257800000000003,3.5035999999999996,175,75
2026-05-09 16:00:04.014,2,-0.2,-0.41,0.46,5.895599999999998,1.8378000000000014,3.6235999999999997,175,75
2026-05-09 16:00:04.054,2,-0.2,-0.41,0.45,6.375599999999999,3.4178000000000033,3.9936,175,75
2026-05-09 16:00:04.054,2,-0.19,-0.41,0.45,6.375599999999999,4.517800000000001,3.4436,175,75
2026-05-09 16:00:04.054,2,-0.18,-0.41,0.45,6.985599999999998,5.187800000000003,3.3236,175,75
2026-05-09 16:00:04.068,2,-0.19,-0.4,0.45,8.0856,5.367800000000003,3.8036000000000003,175,75
2026-05-09 16:00:04.123,2,-0.17,-0.38,0.45,9.485599999999998,4.947800000000004,4.0536,175,75
2026-05-09 16:00:04.171,2,-0.16,-0.39,0.46,6.925599999999999,0.18780000000000285,3.8036000000000003,175,75
2026-05-09 16:00:04.182,2,-0.16,-0.39,0.46,5.705599999999999,-2.9221999999999966,4.1136,175,75
2026-05-09 16:00:04.258,2,-0.14,-0.4,0.43,7.2955999999999985,-14.812199999999997,3.0136000000000003,175,75
2026-05-09 16:00:04.258,2,-0.14,-0.42,0.41,8.3356,-14.632199999999997,2.1635999999999997,175,75
2026-05-09 16:00:04.270,2,-0.14,-0.42,0.41,9.305599999999998,-12.5522,1.3136,175,75
2026-05-09 16:00:04.322,2,-0.14,-0.42,0.39,11.375599999999999,-2.312199999999997,-1.5564,175,75
2026-05-09 16:00:04.354,2,-0.14,-0.44,0.42,11.865599999999999,-2.492199999999997,-1.6164,175,75
2026-05-09 16:00:04.360,2,-0.14,-0.44,0.43,12.665599999999998,-4.0822,-1.7964,175,75
2026-05-09 16:00:04.373,2,-0.15,-0.46,0.44,12.5956,-7.552199999999999,-1.7364,175,75
2026-05-09 16:00:04.385,2,-0.16,-0.47,0.43,11.505599999999998,-12.5522,-1.1264,175,75
2026-05-09 16:00:04.407,2,-0.16,-0.49,0.42,9.2456,-18.282199999999996,-0.7664,175,75
2026-05-09 16:00:04.418,2,-0.17,-0.51,0.41,9.4256,-19.752199999999995,0.15359999999999996,175,75
2026-05-09 16:00:04.429,2,-0.19,-0.51,0.39,9.4256,-19.562199999999997,0.023600000000000065,175,75
2026-05-09 16:00:04.447,2,-0.25,-0.51,0.38,8.695599999999999,-18.8322,0.7036000000000002,175,75
2026-05-09 16:00:04.547,2,-0.64,-0.61,0.36,-10.2044,4.757800000000003,16.8536,175,75
2026-05-09 16:00:04.547,2,-0.68,-0.56,0.41,-7.824400000000001,6.527800000000003,10.2136,175,75
2026-05-09 16:00:04.547,2,-0.72,-0.46,0.43,-4.6544000000000025,5.367800000000003,1.6736000000000004,175,75
2026-05-09 16:00:04.560,2,-0.74,-0.27,0.41,-5.814400000000003,2.7478000000000016,-7.7764,175,75
2026-05-09 16:00:04.572,2,-0.72,-0.1,0.35,-10.5744,4.277800000000003,-4.666399999999999,175,75
2026-05-09 16:00:04.572,2,-0.71,0.04,0.28,-14.7744,4.337800000000001,6.9836,175,75
2026-05-09 16:00:04.610,2,-0.77,0.2,0.2,-19.9644,5.307800000000004,26.4336,175,75
2026-05-09 16:00:04.647,2,-0.75,0.2,0.14,-72.4644,64.0878,66.6736,175,75
2026-05-09 16:00:04.659,2,-0.62,0.01,0.2,-92.2744,97.74780000000001,72.0436,175,75
2026-05-09 16:00:04.671,2,-0.55,-0.02,0.22,-94.7744,93.2378,71.2436,175,75
2026-05-09 16:00:04.684,2,-0.38,-0.16,0.17,-102.6444,50.0078,70.8236,175,75
2026-05-09 16:00:04.701,2,-0.24,-0.34,0.15,-103.1344,43.177800000000005,69.4136,175,75
2026-05-09 16:00:04.706,2,-0.17,-0.55,0.16,-95.0844,51.717800000000004,70.0936,175,75
2026-05-09 16:00:04.734,2,-0.05,-1.05,0.15,-50.9944,49.7578,62.71360000000001,175,75
2026-05-09 16:00:04.761,2,-0.17,-1.5,0.13,-13.554400000000001,5.307800000000004,72.0436,175,75
2026-05-09 16:00:04.780,2,-0.01,-1.83,0.21,22.595599999999997,31.347800000000003,95.5736,175,75
2026-05-09 16:00:04.809,2,0.05,-2.06,0.3,77.0556,35.067800000000005,103.6236,175,75
2026-05-09 16:00:04.822,2,-0.01,-2.05,0.39,93.0856,26.227800000000002,86.00359999999999,175,75
2026-05-09 16:00:04.833,2,-0.08,-1.91,0.52,94.18560000000001,16.287800000000004,44.4836,175,75
2026-05-09 16:00:04.854,2,-0.05,-1.37,0.61,68.5756,-7.742199999999997,-31.1264,175,75
2026-05-09 16:00:04.869,2,-0.03,-0.95,0.61,51.375600000000006,-17.9822,-63.0864,175,75
2026-05-09 16:00:04.873,2,-0.03,-0.62,0.6,43.2756,-14.6922,-77.2264,175,75
2026-05-09 16:00:04.886,2,0.22,-0.3,0.59,41.075599999999994,14.887800000000002,-35.7664,175,75
2026-05-09 16:00:04.897,2,0.11,0.0,0.55,42.4756,46.8378,30.703599999999998,175,75
2026-05-09 16:00:04.908,2,-0.02,0.18,0.59,44.6756,60.5578,56.2436,175,75
2026-05-09 16:00:04.926,2,-0.07,0.13,0.78,17.9656,44.2778,3.1336000000000004,175,75
2026-05-09 16:00:04.955,2,0.04,0.47,0.78,-18.314400000000003,19.217800000000004,3.5035999999999996,175,75
2026-05-09 16:00:04.967,2,-0.02,0.66,0.69,-17.5844,-14.022199999999998,-8.2664,175,75
2026-05-09 16:00:04.978,2,-0.08,0.76,0.61,-15.144400000000001,-29.0822,-12.2864,175,75
2026-05-09 16:00:04.985,2,-0.21,0.88,0.5,-15.5744,-33.5922,-11.2564,175,75
2026-05-09 16:00:04.996,2,-0.32,0.96,0.43,-20.634400000000003,-13.282199999999996,-9.5464,175,75
2026-05-09 16:00:05.032,2,-0.3,0.72,0.61,-10.514400000000002,48.4778,-18.1464,175,75
2026-05-09 16:00:05.043,2,-0.28,0.67,0.67,-3.8644,17.937800000000003,-20.706400000000002,175,75
2026-05-09 16:00:05.055,2,-0.24,0.64,0.69,-2.2144000000000013,-24.562199999999997,-20.5164,175,75
2026-05-09 16:00:05.114,2,-0.65,0.26,0.02,7.055599999999998,-124.69219999999999,14.543599999999998,175,75
2026-05-09 16:00:05.173,2,-0.73,-2.05,-0.11,-19.8344,-95.78219999999999,142.0436,175,75
2026-05-09 16:00:05.207,2,-2.01,-2.06,-0.47,-20.7544,21.527800000000003,71.55359999999999,175,75
2026-05-09 16:00:05.222,2,-2.1,-2.02,-0.48,-10.874400000000001,83.7878,2.4636000000000005,175,75
2026-05-09 16:00:05.232,2,-1.63,-2.05,-0.3,5.5855999999999995,120.9778,-49.486399999999996,175,75
2026-05-09 16:00:05.232,2,-1.24,-2.03,-0.08,19.185599999999997,133.2978,-52.7164,175,75
2026-05-09 16:00:05.242,2,-0.88,-1.9,0.16,29.6756,133.5478,-23.686400000000003,175,75
2026-05-09 16:00:05.270,2,-0.77,-1.68,0.31,16.3156,81.5878,14.9636,175,75
2026-05-09 16:00:05.281,2,-0.95,-1.24,0.35,5.095599999999999,68.1778,-20.456400000000002,175,75
2026-05-09 16:00:05.300,2,-0.9,-0.95,0.34,9.6756,55.067800000000005,-57.2264,175,75
2026-05-09 16:00:05.300,2,-0.83,-0.56,0.33,20.095599999999997,35.9778,-102.5364,175,75
2026-05-09 16:00:05.321,2,-0.73,-0.26,0.31,29.6756,20.067800000000005,-138.81640000000002,175,75
2026-05-09 16:00:05.360,2,-0.43,0.31,0.19,29.6156,48.4778,60.2136,175,75
2026-05-09 16:00:05.432,2,-1.04,0.34,0.12,7.725599999999998,59.217800000000004,-42.776399999999995,175,75
2026-05-09 16:00:05.497,2,-0.38,0.76,0.28,-3.3744000000000014,-151.6422,6.123600000000001,175,75
2026-05-09 16:00:05.639,2,-1.87,-1.33,-0.16,82.8456,122.3278,-56.3764,175,75
2026-05-09 16:00:05.670,2,-0.34,-0.93,0.73,-17.3344,130.7378,59.0536,175,75
2026-05-09 16:00:05.697,2,-0.75,-0.56,0.8,-21.604400000000002,86.1678,92.6536,175,75
2026-05-09 16:00:05.727,2,-1.3,0.05,0.63,9.615599999999999,-27.742199999999997,-39.0564,175,75
2026-05-09 16:00:05.844,2,-0.47,0.52,0.41,-24.6544,106.83780000000002,-31.7364,175,75
2026-05-09 16:00:05.854,2,-0.34,0.23,0.3,-29.5344,-89.44219999999999,36.5536,175,75
2026-05-09 16:00:05.854,2,-0.4,-0.22,0.21,-48.1944,-128.35219999999998,53.933600000000006,175,75
2026-05-09 16:00:05.866,2,-0.39,-0.58,0.15,-55.0844,-135.66219999999998,70.5136,175,75
2026-05-09 16:00:05.877,2,-0.52,-1.06,0.13,-53.254400000000004,-107.8022,82.1636,175,75
2026-05-09 16:00:05.911,2,-0.76,-1.87,-0.36,8.945599999999999,15.797800000000002,104.3536,175,75
2026-05-09 16:00:05.941,2,-1.08,-1.51,-0.47,51.1356,2.807800000000004,36.6736,175,75
2026-05-09 16:00:05.958,2,-1.04,-1.34,-0.45,79.9756,-16.0922,-49.486399999999996,175,75
2026-05-09 16:00:05.984,2,-0.28,-1.56,-0.38,63.3356,-49.142199999999995,-64.4864,175,75
2026-05-09 16:00:05.995,2,-0.24,-1.63,-0.47,51.5656,-31.5822,-24.7864,175,75
2026-05-09 16:00:05.995,2,-0.5,-1.53,-0.63,54.6156,38.607800000000005,26.9836,175,75
2026-05-09 16:00:06.006,2,-0.67,-1.34,-0.65,73.5756,118.96780000000001,25.883599999999998,175,75
2026-05-09 16:00:06.012,2,-0.57,-1.03,-0.2,99.0656,164.6978,-14.2364,175,75
2026-05-09 16:00:06.054,2,-0.37,-0.7,0.07,70.0956,94.6378,-53.6264,175,75
2026-05-09 16:00:06.076,2,-0.29,-0.36,0.11,2.7255999999999982,-14.4422,-26.5564,175,75
2026-05-09 16:00:06.102,2,-0.49,-0.15,0.21,17.0556,33.9078,-23.5664,175,75
2026-05-09 16:00:06.116,2,-0.44,-0.07,0.28,13.205599999999999,40.9178,-32.7164,175,75
2026-05-09 16:00:06.126,2,-0.37,0.08,0.33,3.3355999999999995,38.6678,-43.5064,175,75
2026-05-09 16:00:06.137,2,-0.33,0.23,0.35,-5.574400000000001,27.807800000000004,-46.3764,175,75
2026-05-09 16:00:06.173,2,-0.29,0.42,0.31,-12.5244,8.117800000000003,-40.6464,175,75
2026-05-09 16:00:06.173,2,-0.29,0.56,0.28,-14.224400000000003,-9.992199999999997,-31.0664,175,75
2026-05-09 16:00:06.173,2,-0.36,0.77,0.26,-10.7544,-19.382199999999997,-19.9764,175,75
2026-05-09 16:00:06.179,2,-0.37,0.88,0.25,-6.7943999999999996,-12.1922,-16.8664,175,75
2026-05-09 16:00:06.201,2,-0.32,0.95,0.26,-3.014400000000002,2.3278000000000034,-16.3164,175,75
2026-05-09 16:00:06.235,2,-0.28,0.99,0.3,-1.0544000000000011,21.6578,-16.9264,175,75
2026-05-09 16:00:06.235,2,-0.27,0.98,0.36,0.525599999999999,40.6178,-18.1464,175,75
2026-05-09 16:00:06.239,2,-0.21,0.86,0.48,-0.8744000000000014,28.547800000000002,-23.1464,175,75
2026-05-09 16:00:06.263,2,-0.21,0.75,0.55,-4.2943999999999996,-22.432199999999995,-22.4064,175,75
2026-05-09 16:00:06.280,2,-0.43,0.27,0.44,-22.3344,-199.8122,-15.2164,175,75
2026-05-09 16:00:06.280,2,-0.46,-0.07,0.36,-31.424400000000002,-242.5522,0.39360000000000017,175,75
2026-05-09 16:00:06.316,2,-0.38,-1.2,0.29,-53.0744,-284.3822,48.7436,175,75
2026-05-09 16:00:06.361,2,-2.18,-2.14,-0.49,-16.304400000000005,-37.13219999999999,59.7836,175,75
2026-05-09 16:00:06.368,2,-2.22,-1.92,-0.38,11.865599999999999,9.637800000000002,-45.096399999999996,175,75
2026-05-09 16:00:06.382,2,-1.72,-1.87,-0.12,27.1156,11.467800000000004,-101.9264,175,75
2026-05-09 16:00:06.405,2,-1.06,-1.52,0.17,14.305599999999998,-7.742199999999997,-82.71640000000001,175,75
2026-05-09 16:00:06.417,2,-0.95,-1.23,0.28,-9.224400000000003,0.6178000000000026,-39.1164,175,75
2026-05-09 16:00:06.448,2,-1.03,-0.72,0.28,2.2955999999999985,14.827800000000003,-37.166399999999996,175,75
2026-05-09 16:00:06.473,2,-0.94,0.28,0.25,37.4756,1.6578000000000017,-178.1464,175,75
2026-05-09 16:00:06.512,2,-0.16,0.63,0.18,27.665599999999998,17.687800000000003,-103.5064,175,75
2026-05-09 16:00:06.512,2,-1.14,0.75,0.1,19.915599999999998,94.45779999999999,49.4836,175,75
2026-05-09 16:00:06.524,2,-0.46,0.38,0.3,10.775599999999999,93.11780000000002,19.543599999999998,175,75
2026-05-09 16:00:06.550,2,-0.43,0.44,0.28,24.2456,138.1778,-14.296399999999998,175,75
2026-05-09 16:00:06.588,2,-0.26,0.36,0.41,21.8656,150.4378,23.5036,175,75
2026-05-09 16:00:06.588,2,-0.13,0.17,0.51,16.7456,144.6978,29.7236,175,75
2026-05-09 16:00:06.598,2,-0.0,-0.07,0.59,13.945599999999999,111.3478,17.4036,175,75
2026-05-09 16:00:06.611,2,0.0,-0.16,0.64,12.965599999999998,75.3078,4.1136,175,75
2026-05-09 16:00:06.611,2,-0.07,-0.09,0.6,17.0556,23.477800000000002,-12.836400000000001,175,75
2026-05-09 16:00:06.621,2,-0.12,0.17,0.45,21.6256,-39.02219999999999,-26.1264,175,75
2026-05-09 16:00:06.636,2,-0.17,0.34,0.31,18.0856,-79.50219999999999,-19.9764,175,75
2026-05-09 16:00:06.646,2,-0.27,0.42,0.18,13.275599999999999,-97.8622,-2.5364,175,75
2026-05-09 16:00:06.672,2,-0.35,-0.13,0.01,11.445599999999999,-94.81219999999999,40.2736,175,75
2026-05-09 16:00:06.672,2,-0.31,-0.58,0.02,16.1956,-66.7022,45.8836,175,75
2026-05-09 16:00:06.702,2,-0.31,-1.46,-0.04,32.5956,-35.722199999999994,74.2936,175,75
2026-05-09 16:00:06.717,2,-0.55,-1.76,-0.11,35.6456,-45.362199999999994,114.5436,175,75
2026-05-09 16:00:06.758,2,-1.49,-1.79,-0.27,46.6256,30.557800000000004,74.5436,175,75
2026-05-09 16:00:06.758,2,-1.66,-1.54,-0.23,55.40559999999999,61.527800000000006,-28.5664,175,75
2026-05-09 16:00:06.786,2,-1.23,-1.38,-0.04,66.3156,57.9978,-92.2264,175,75
2026-05-09 16:00:06.797,2,-0.93,-1.17,0.03,68.8156,41.4078,-92.2864,175,75
2026-05-09 16:00:06.823,2,-1.01,-0.45,0.01,12.5956,137.1978,-34.486399999999996,175,75
2026-05-09 16:00:06.836,2,-1.06,-0.14,0.1,9.9756,224.33780000000002,-31.186400000000003,175,75
2026-05-09 16:00:06.848,2,-1.14,0.23,0.22,17.9656,289.33779999999996,-44.7264,175,75
2026-05-09 16:00:06.851,2,-1.2,0.7,0.37,29.3056,339.7578,-80.5164,175,75
2026-05-09 16:00:06.867,2,-0.76,1.0,0.57,24.8556,339.88779999999997,-93.8764,175,75
2026-05-09 16:00:06.927,2,-0.28,0.71,0.83,-79.1644,14.457800000000002,45.573600000000006,175,75
2026-05-09 16:00:06.927,2,-0.39,0.41,0.72,-75.1444,-54.502199999999995,22.3436,175,75
2026-05-09 16:00:06.931,2,-0.75,0.35,0.57,-59.7144,-68.34219999999999,-4.9064,175,75
2026-05-09 16:00:06.966,2,-0.65,0.39,0.31,-29.2944,-74.1422,-22.046400000000002,175,75
2026-05-09 16:00:06.966,2,-0.7,0.5,0.19,-9.654400000000003,-52.3722,-10.276399999999999,175,75
2026-05-09 16:00:06.966,2,-0.72,0.37,0.14,-9.834400000000002,0.7378000000000036,16.1836,175,75
2026-05-09 16:00:07.029,2,-0.36,-1.53,0.23,-1.9744000000000028,-21.3322,118.9936,175,75
2026-05-09 16:00:07.066,2,-0.57,-1.24,0.0,15.5856,-63.3422,-12.1664,175,75
2026-05-09 16:00:07.075,2,-0.28,-1.18,-0.03,16.865599999999997,-107.06219999999999,-43.206399999999995,175,75
2026-05-09 16:00:07.129,2,-0.42,-1.71,-0.59,41.0156,-100.1722,46.793600000000005,175,75
2026-05-09 16:00:07.229,2,-0.19,-0.28,0.25,51.375600000000006,98.11780000000002,-14.906400000000001,175,75
2026-05-09 16:00:07.229,2,-0.21,-0.24,0.3,45.955600000000004,53.2978,-28.5064,175,75
2026-05-09 16:00:07.239,2,-0.21,-0.11,0.31,32.4756,6.587800000000001,-48.2664,175,75
2026-05-09 16:00:07.250,2,-0.21,0.07,0.26,18.0856,-28.282199999999996,-61.1864,175,75
2026-05-09 16:00:07.266,2,-0.26,0.35,0.2,5.4655999999999985,-51.032199999999996,-64.6664,175,75
2026-05-09 16:00:07.277,2,-0.35,0.67,0.13,0.16559999999999953,-48.282199999999996,-57.7164,175,75
2026-05-09 16:00:07.289,2,-0.42,0.85,0.12,-0.6944000000000017,-31.392199999999995,-48.816399999999994,175,75
2026-05-09 16:00:07.301,2,-0.42,0.99,0.14,3.275599999999999,10.437800000000003,-39.1164,175,75
2026-05-09 16:00:07.313,2,-0.36,0.98,0.23,0.7055999999999987,48.9078,-33.5664,175,75
2026-05-09 16:00:07.326,2,-0.31,0.95,0.35,-3.6844,76.9578,-34.4264,175,75
2026-05-09 16:00:07.331,2,-0.22,0.92,0.47,-5.144400000000001,90.43780000000001,-43.7564,175,75
2026-05-09 16:00:07.351,2,-0.18,0.9,0.54,-2.1544000000000025,77.3278,-51.7964,175,75
2026-05-09 16:00:07.364,2,-0.19,0.89,0.63,3.6355999999999984,33.2378,-57.2864,175,75
2026-05-09 16:00:07.369,2,-0.23,0.82,0.65,7.6655999999999995,-28.042199999999994,-53.7564,175,75
2026-05-09 16:00:07.408,2,-0.55,0.1,0.56,-23.984400000000004,-195.7222,-20.2164,175,75
2026-05-09 16:00:07.441,2,-0.69,-0.66,0.42,-42.764399999999995,-236.15219999999997,19.6036,175,75
2026-05-09 16:00:07.441,2,-0.64,-0.98,0.38,-45.874399999999994,-245.6622,47.833600000000004,175,75
2026-05-09 16:00:07.451,2,-0.71,-1.44,0.29,-47.5244,-243.77219999999997,88.9936,175,75
2026-05-09 16:00:07.476,2,-1.22,-2.18,0.04,-36.6044,-155.91219999999998,106.7336,175,75
2026-05-09 16:00:07.476,2,-1.53,-2.24,-0.12,-24.8344,-120.60219999999998,56.4936,175,75
2026-05-09 16:00:07.487,2,-1.76,-1.98,-0.21,-8.0744,-107.8022,-22.4064,175,75
2026-05-09 16:00:07.487,2,-1.64,-1.75,-0.2,9.555599999999998,-103.28219999999999,-87.8364,175,75
2026-05-09 16:00:07.513,2,-1.11,-1.46,-0.23,28.8756,-65.3022,-69.05640000000001,175,75
2026-05-09 16:00:07.532,2,-1.04,-1.49,-0.25,27.7856,-7.742199999999997,-26.2564,175,75
2026-05-09 16:00:07.545,2,-1.01,-1.48,-0.2,29.1256,81.0478,22.7736,175,75
2026-05-09 16:00:07.583,2,-0.86,-1.25,0.08,49.6756,188.4778,55.7036,175,75
2026-05-09 16:00:07.583,2,-0.83,-1.02,0.3,63.0256,183.6678,25.1536,175,75
2026-05-09 16:00:07.583,2,-0.77,-0.81,0.43,69.0056,143.6078,-21.0064,175,75
2026-05-09 16:00:07.610,2,-0.6,-0.14,0.53,42.7856,-25.362199999999994,-152.28640000000001,175,75
2026-05-09 16:00:07.646,2,0.2,0.41,0.25,2.2955999999999985,-143.41219999999998,-140.2164,175,75
2026-05-09 16:00:07.698,2,-0.52,0.72,0.05,-5.324400000000001,161.7178,-23.9964,175,75
2026-05-09 16:00:07.709,2,-0.52,0.71,0.19,2.8455999999999992,189.2178,-2.1064,175,75
2026-05-09 16:00:07.721,2,-0.39,0.54,0.31,1.075599999999998,197.7478,15.273599999999998,175,75
2026-05-09 16:00:07.731,2,-0.2,0.13,0.55,-19.104400000000002,143.11780000000002,24.9636,175,75
2026-05-09 16:00:07.779,2,-0.2,0.11,0.74,-29.2244,9.697800000000004,-0.4563999999999999,175,75
2026-05-09 16:00:07.779,2,-0.16,0.22,0.58,-14.964400000000001,-48.6522,-3.3264,175,75
2026-05-09 16:00:07.785,2,-0.28,0.37,0.46,-1.9144000000000005,-91.3922,6.0636,175,75
2026-05-09 16:00:07.806,2,-0.4,0.39,0.3,4.425599999999999,-122.6122,24.6036,175,75
2026-05-09 16:00:07.828,2,-0.5,0.19,0.18,4.7955999999999985,-152.7422,48.8736,175,75
2026-05-09 16:00:07.828,2,-0.52,-0.11,0.15,3.515599999999999,-168.4722,71.1236,175,75
2026-05-09 16:00:07.850,2,-0.38,-0.65,0.11,2.6655999999999995,-178.41219999999998,88.3236,175,75
2026-05-09 16:00:07.871,2,-1.16,-1.94,-0.4,18.205599999999997,-11.9422,113.2036,175,75
2026-05-09 16:00:07.917,2,-1.35,-1.35,-0.12,92.4156,147.6278,-21.6764,175,75
2026-05-09 16:00:07.944,2,-0.69,-1.04,0.46,107.5956,129.5778,-73.69640000000001,175,75
2026-05-09 16:00:07.952,2,-0.49,-1.03,0.55,85.9556,108.4178,-55.456399999999995,175,75
2026-05-09 16:00:07.953,2,-0.22,-1.07,0.66,23.5156,49.6378,9.0536,175,75
2026-05-09 16:00:07.968,2,-0.15,-0.97,0.64,-0.8144000000000027,18.117800000000003,35.4536,175,75
2026-05-09 16:00:07.970,2,-0.42,-0.71,0.64,-5.574400000000001,2.507800000000003,-9.5464,175,75
2026-05-09 16:00:07.988,2,-0.48,-0.57,0.64,-5.384400000000003,5.677800000000001,-60.3964,175,75
2026-05-09 16:00:07.998,2,-0.54,-0.4,0.62,-10.2044,2.1978000000000044,-97.71640000000001,175,75
2026-05-09 16:00:08.009,2,-0.56,-0.14,0.58,-17.0344,-8.712199999999996,-135.3364,175,75
2026-05-09 16:00:08.032,2,-0.41,0.68,0.29,-20.634400000000003,-35.91219999999999,-163.87640000000002,175,75
2026-05-09 16:00:08.043,2,-0.41,1.54,0.05,-12.5244,-51.52219999999999,-76.9264,175,75
2026-05-09 16:00:08.056,2,-1.11,1.98,-0.07,34.185599999999994,-18.4122,-65.8264,175,75
2026-05-09 16:00:08.093,2,-1.09,0.74,-0.09,-22.6444,65.0078,63.13360000000001,175,75
2026-05-09 16:00:08.127,2,0.09,0.36,0.19,-88.2544,85.43780000000001,109.6636,175,75
2026-05-09 16:00:08.139,2,-1.24,0.07,0.1,-59.1644,81.5878,22.043599999999998,175,75
2026-05-09 16:00:08.139,2,-0.52,-0.49,0.09,-27.524400000000004,52.8078,8.2636,175,75
2026-05-09 16:00:08.166,2,-0.51,-1.0,0.2,-35.6344,27.387800000000002,54.9636,175,75
2026-05-09 16:00:08.213,2,-1.22,-1.22,-0.39,66.3156,7.807800000000004,-14.906400000000001,175,75
2026-05-09 16:00:08.255,2,-0.44,-1.15,-0.15,89.7356,-66.03219999999999,-78.44640000000001,175,75
2026-05-09 16:00:08.267,2,-0.24,-1.47,-0.35,31.565599999999996,-64.2622,32.1036,175,75
2026-05-09 16:00:08.267,2,-0.49,-1.42,-0.49,28.025599999999997,-13.532199999999996,47.3436,175,75
2026-05-09 16:00:08.281,2,-0.69,-1.3,-0.58,37.6656,46.467800000000004,35.823600000000006,175,75
2026-05-09 16:00:08.291,2,-0.76,-1.04,-0.47,59.9156,91.9578,1.1836000000000002,175,75
2026-05-09 16:00:08.303,2,-0.67,-0.89,-0.25,69.6756,109.02780000000001,-22.7164,175,75
2026-05-09 16:00:08.315,2,-0.53,-0.75,-0.04,68.8756,118.90780000000001,-35.096399999999996,175,75
2026-05-09 16:00:08.382,2,-0.01,-0.16,0.37,8.395599999999998,-26.392199999999995,7.4036,175,75
2026-05-09 16:00:08.393,2,-0.11,0.01,0.33,12.9056,-76.4522,-3.2664,175,75
2026-05-09 16:00:08.427,2,-0.25,0.31,0.13,11.505599999999998,-96.5822,-17.0464,175,75
2026-05-09 16:00:08.427,2,-0.25,0.74,-0.01,11.255599999999998,-59.02219999999999,-23.7564,175,75
2026-05-09 16:00:08.450,2,-0.21,0.98,0.02,14.855599999999999,-18.222199999999994,-22.1064,175,75
2026-05-09 16:00:08.459,2,-0.13,1.13,0.03,19.5556,20.797800000000002,-22.8964,175,75
2026-05-09 16:00:08.470,2,0.1,0.93,0.34,10.705599999999999,84.3978,-31.5564,175,75
2026-05-09 16:00:08.480,2,0.16,0.74,0.47,1.315599999999998,70.7378,-42.2864,175,75
2026-05-09 16:00:08.492,2,0.18,0.67,0.55,-1.5443999999999996,30.437800000000003,-53.386399999999995,175,75
2026-05-09 16:00:08.503,2,0.17,0.68,0.58,0.16559999999999953,-32.002199999999995,-60.706399999999995,175,75
2026-05-09 16:00:08.573,2,0.1,0.61,0.55,-0.3244000000000007,-95.84219999999999,-59.176399999999994,175,75
2026-05-09 16:00:08.585,2,-0.39,-0.83,0.26,-64.1644,-219.5022,-18.686400000000003,175,75
2026-05-09 16:00:08.585,2,-0.51,-1.27,0.22,-81.3644,-206.1522,1.6736000000000004,175,75
2026-05-09 16:00:08.608,2,-1.41,-2.24,-0.34,-36.1844,-25.722199999999994,78.8736,175,75
2026-05-09 16:00:08.631,2,-2.11,-1.61,-0.12,60.345600000000005,75.7978,-86.7364,175,75
2026-05-09 16:00:08.644,2,-1.69,-1.66,0.1,62.235600000000005,50.9178,-101.6764,175,75
2026-05-09 16:00:08.656,2,-1.39,-1.7,0.2,47.4756,30.187800000000003,-76.19640000000001,175,75
2026-05-09 16:00:08.668,2,-1.18,-1.63,0.2,18.0856,7.257800000000003,-25.886400000000002,175,75
2026-05-09 16:00:08.679,2,-1.2,-1.49,0.16,2.115599999999999,6.167800000000003,-0.09640000000000004,175,75
2026-05-09 16:00:08.689,2,-1.25,-1.3,0.1,2.355599999999999,35.857800000000005,1.5536000000000003,175,75
2026-05-09 16:00:08.700,2,-1.18,-1.1,0.12,22.9056,63.6678,-15.0364,175,75
2026-05-09 16:00:08.713,2,-1.1,-0.83,0.22,48.7556,71.5878,-37.8364,175,75
2026-05-09 16:00:08.724,2,-1.02,-0.59,0.3,60.8356,67.8078,-58.3264,175,75
2026-05-09 16:00:08.735,2,-0.91,-0.29,0.34,67.9656,53.177800000000005,-92.9564,175,75
2026-05-09 16:00:08.759,2,-0.55,0.31,0.28,55.8356,-10.722199999999994,-155.3364,175,75
2026-05-09 16:00:08.769,2,0.15,0.87,0.13,41.685599999999994,-29.502199999999995,-48.566399999999994,175,75
2026-05-09 16:00:08.806,2,-0.2,0.49,0.06,12.295599999999999,-19.632199999999997,83.50359999999999,175,75
2026-05-09 16:00:08.817,2,-0.96,0.47,0.05,-6.054400000000001,33.2378,42.043600000000005,175,75
2026-05-09 16:00:08.830,2,-0.61,0.46,0.02,-5.144400000000001,89.3378,17.3436,175,75
2026-05-09 16:00:08.841,2,-0.29,0.42,0.16,2.4755999999999982,112.3878,23.383599999999998,175,75
2026-05-09 16:00:08.851,2,-0.18,0.24,0.36,1.0155999999999992,127.5078,42.5936,175,75
2026-05-09 16:00:08.861,2,-0.02,0.04,0.48,-6.724400000000003,108.3578,38.013600000000004,175,75
2026-05-09 16:00:08.874,2,-0.03,-0.1,0.58,-17.6444,54.6378,23.0136,175,75
2026-05-09 16:00:08.874,2,-0.08,-0.09,0.58,-24.354400000000002,-8.342199999999998,13.4436,175,75
2026-05-09 16:00:08.908,2,-0.39,0.32,0.18,-14.714400000000001,-156.3922,30.7636,175,75
2026-05-09 16:00:08.936,2,-0.52,-0.31,0.01,-1.3643999999999998,-134.9322,75.8236,175,75
2026-05-09 16:00:08.945,2,-0.39,-0.72,0.01,5.345599999999999,-93.10220000000001,73.8736,175,75
2026-05-09 16:00:08.960,2,-0.28,-1.26,-0.0,9.2456,-39.502199999999995,68.8736,175,75
2026-05-09 16:00:08.975,2,-0.19,-1.66,-0.13,5.285599999999999,-32.6722,84.4136,175,75
2026-05-09 16:00:09.012,2,-1.21,-1.7,-0.41,56.01559999999999,67.74780000000001,41.7336,175,75
2026-05-09 16:00:09.023,2,-1.09,-1.5,-0.24,66.8056,94.27780000000001,-55.5864,175,75
2026-05-09 16:00:09.033,2,-0.68,-1.38,0.03,61.625600000000006,100.8578,-90.1564,175,75
2026-05-09 16:00:09.038,2,-0.4,-1.26,0.21,51.01559999999999,106.1678,-90.5164,175,75
2026-05-09 16:00:09.054,2,-0.17,-1.12,0.35,29.6156,102.68780000000001,-70.5864,175,75
2026-05-09 16:00:09.067,2,-0.21,-1.01,0.41,12.1756,96.0478,-44.486399999999996,175,75
2026-05-09 16:00:09.080,2,-0.51,-0.56,0.37,1.315599999999998,84.02780000000001,-25.8264,175,75
2026-05-09 16:00:09.090,2,-0.69,-0.25,0.32,9.125599999999999,66.46780000000001,-55.9464,175,75
2026-05-09 16:00:09.109,2,-0.86,0.05,0.3,18.275599999999997,61.287800000000004,-100.27640000000001,175,75
2026-05-09 16:00:09.121,2,-0.94,0.33,0.26,24.1256,70.0678,-137.34640000000002,175,75
2026-05-09 16:00:09.131,2,-0.68,1.02,0.14,25.8356,112.80780000000001,-126.7964,175,75
2026-05-09 16:00:09.144,2,-1.3,1.73,0.17,34.5556,212.1978,-61.496399999999994,175,75
2026-05-09 16:00:09.158,2,-1.22,1.12,0.34,8.755599999999998,208.7278,-23.386400000000002,175,75
2026-05-09 16:00:09.166,2,-1.13,0.67,0.53,-47.09440000000001,169.6978,69.6036,175,75
2026-05-09 16:00:09.203,2,-0.93,0.58,0.64,-92.03439999999999,118.2978,147.8336,175,75
2026-05-09 16:00:09.218,2,-1.14,0.48,0.23,7.475599999999998,-165.1122,-34.846399999999996,175,75
2026-05-09 16:00:09.251,2,-0.9,0.49,-0.16,10.2256,-231.70219999999998,48.933600000000006,175,75
2026-05-09 16:00:09.263,2,-1.32,-0.05,-0.23,-5.814400000000003,-143.2822,118.6836,175,75
2026-05-09 16:00:09.263,2,-0.58,-0.79,-0.16,-35.20440000000001,-42.252199999999995,112.83359999999999,175,75
2026-05-09 16:00:09.284,2,-1.11,-1.21,-0.21,-50.3244,97.0178,92.4636,175,75
2026-05-09 16:00:09.297,2,-0.47,-1.58,-0.16,-33.8644,142.80780000000001,95.0236,175,75
2026-05-09 16:00:09.309,2,-0.48,-1.58,0.01,27.7256,90.43780000000001,93.9336,175,75
2026-05-09 16:00:09.314,2,-0.65,-1.31,-0.03,55.8956,43.357800000000005,45.4536,175,75
2026-05-09 16:00:09.413,2,-0.63,-1.44,-0.44,88.4556,92.3278,32.7736,175,75
2026-05-09 16:00:09.430,2,-0.69,-1.18,-0.24,103.0856,97.1378,-15.456399999999999,175,75
2026-05-09 16:00:09.430,2,-0.62,-1.0,-0.06,97.7256,87.8078,-49.6064,175,75
2026-05-09 16:00:09.430,2,-0.51,-0.83,0.06,80.5256,73.1178,-69.66640000000001,175,75
2026-05-09 16:00:09.436,2,-0.41,-0.67,0.13,59.0656,53.787800000000004,-78.0864,175,75
2026-05-09 16:00:09.503,2,-0.26,-0.24,0.18,28.6956,11.897800000000004,25.2136,175,75
2026-05-09 16:00:09.503,2,-0.31,-0.27,0.2,34.6756,-1.522199999999998,9.543600000000001,175,75
2026-05-09 16:00:09.503,2,-0.38,-0.24,0.21,34.1256,-17.252199999999995,-20.456400000000002,175,75
2026-05-09 16:00:09.523,2,-0.3,0.22,0.17,15.225599999999998,-28.952199999999998,-65.1564,175,75
2026-05-09 16:00:09.523,2,-0.28,0.49,0.13,11.685599999999999,-18.952199999999998,-60.096399999999996,175,75
2026-05-09 16:00:09.531,2,-0.29,0.75,0.08,12.1756,-6.392199999999995,-48.816399999999994,175,75
2026-05-09 16:00:09.544,2,-0.36,0.84,0.01,11.445599999999999,4.397800000000004,-36.986399999999996,175,75
2026-05-09 16:00:09.556,2,-0.44,1.01,0.01,19.9756,26.4078,-33.9364,175,75
2026-05-09 16:00:09.567,2,-0.47,1.03,0.05,19.915599999999998,48.6678,-36.5564,175,75
2026-05-09 16:00:09.617,2,-0.42,0.98,0.21,9.125599999999999,100.49780000000001,-32.8964,175,75
2026-05-09 16:00:09.617,2,-0.39,0.9,0.31,4.485599999999998,108.11780000000002,-32.8364,175,75
2026-05-09 16:00:09.617,2,-0.36,0.78,0.42,2.7255999999999982,105.24780000000001,-32.8364,175,75
2026-05-09 16:00:09.628,2,-0.36,0.7,0.46,5.5855999999999995,81.77780000000001,-34.7864,175,75
2026-05-09 16:00:09.628,2,-0.42,0.63,0.52,8.575599999999998,42.567800000000005,-37.8964,175,75
2026-05-09 16:00:09.639,2,-0.43,0.54,0.54,7.235599999999998,-21.392199999999995,-36.5564,175,75
2026-05-09 16:00:09.649,2,-0.41,0.33,0.54,-2.8244000000000007,-94.38219999999998,-24.116400000000002,175,75
2026-05-09 16:00:09.696,2,-0.46,-0.38,0.45,-29.354400000000002,-224.69219999999999,17.043599999999998,175,75
2026-05-09 16:00:09.696,2,-0.62,-0.79,0.51,-40.3844,-267.1322,50.0936,175,75
2026-05-09 16:00:09.707,2,-0.74,-1.75,0.06,-49.294399999999996,-278.35220000000004,133.9936,175,75
2026-05-09 16:00:09.730,2,-1.25,-2.1,-0.24,-43.8644,-225.60219999999998,147.8336,175,75
2026-05-09 16:00:09.730,2,-1.92,-2.38,-0.56,-27.3344,-102.8022,106.00359999999999,175,75
2026-05-09 16:00:09.762,2,-2.24,-2.22,-0.69,-5.084400000000002,-0.7221999999999973,19.2336,175,75
2026-05-09 16:00:09.762,2,-1.99,-1.97,-0.53,22.595599999999997,49.6978,-68.38640000000001,175,75
2026-05-09 16:00:09.787,2,-1.38,-1.84,-0.19,48.3356,70.7378,-99.60640000000001,175,75
2026-05-09 16:00:09.799,2,-0.97,-1.69,0.06,57.90559999999999,82.68780000000001,-69.5464,175,75
2026-05-09 16:00:09.799,2,-0.81,-1.56,0.15,52.845600000000005,87.62780000000001,-36.676399999999994,175,75
2026-05-09 16:00:09.844,2,-0.85,-1.15,0.21,37.0556,86.8378,-7.6564,175,75
2026-05-09 16:00:09.853,2,-0.87,-0.6,0.24,42.5956,69.21780000000001,-57.8364,175,75
2026-05-09 16:00:09.912,2,-0.74,-0.06,0.34,51.1356,37.3878,-125.7664,175,75
2026-05-09 16:00:09.912,2,-0.22,0.47,0.21,26.9256,17.6278,-30.0364,175,75
2026-05-09 16:00:09.922,2,-0.4,0.41,0.24,4.615599999999999,-30.602199999999996,51.793600000000005,175,75
2026-05-09 16:00:09.962,2,-0.53,0.79,0.07,10.285599999999999,7.687800000000003,-9.2964,175,75
2026-05-09 16:00:09.965,2,-0.63,0.94,0.16,22.9056,52.0178,37.1636,175,75
2026-05-09 16:00:09.981,2,-0.3,0.17,0.47,-1.2444000000000024,41.957800000000006,48.3836,175,75
2026-05-09 16:00:10.027,2,-0.32,-0.18,0.61,-10.634400000000003,-52.0622,17.2836,175,75
2026-05-09 16:00:10.058,2,-0.5,-0.02,0.53,1.4455999999999989,-142.8022,4.7836,175,75
2026-05-09 16:00:10.058,2,-0.81,0.13,0.13,15.895599999999998,-294.3222,41.183600000000006,175,75
2026-05-09 16:00:10.069,2,-0.9,-0.07,-0.03,14.915599999999998,-332.86220000000003,91.3736,175,75
2026-05-09 16:00:10.069,2,-0.63,-0.6,-0.12,5.525599999999999,-325.78220000000005,145.2736,175,75
2026-05-09 16:00:10.093,2,-1.06,-1.79,-0.34,-22.3344,-4.022199999999998,134.5436,175,75
2026-05-09 16:00:10.110,2,-1.15,-1.84,-0.17,16.6256,190.1278,166.9836,175,75
2026-05-09 16:00:10.155,2,-1.31,-1.12,0.34,101.1956,108.4778,-44.6064,175,75
2026-05-09 16:00:10.201,2,-0.44,-0.9,0.44,-77.03439999999999,53.607800000000005,-32.8964,175,75
2026-05-09 16:00:10.241,2,-0.73,0.18,0.46,28.5156,180.0078,-114.1164,175,75
2026-05-09 16:00:10.241,2,-0.51,0.75,0.6,47.2356,253.23780000000002,-126.1264,175,75
2026-05-09 16:00:10.241,2,-0.58,1.77,0.83,11.255599999999998,305.8578,-25.6464,175,75
2026-05-09 16:00:10.286,2,-0.26,0.41,0.91,-23.314400000000003,-38.5922,11.8536,175,75
2026-05-09 16:00:10.286,2,-0.39,0.36,0.62,-8.2544,-81.88219999999998,-18.7564,175,75
2026-05-09 16:00:10.298,2,-0.31,0.41,0.14,5.895599999999998,-117.5522,-35.3364,175,75
2026-05-09 16:00:10.336,2,-0.57,0.65,0.05,38.0856,-126.94219999999999,-29.7864,175,75
2026-05-09 16:00:10.349,2,-0.77,0.08,-0.25,33.0256,-64.2022,27.043599999999998,175,75
2026-05-09 16:00:10.398,2,-0.69,-1.01,-0.25,-18.744400000000002,142.2578,28.6836,175,75
2026-05-09 16:00:10.398,2,-0.47,-1.39,-0.2,-9.4144,170.8578,54.6636,175,75
2026-05-09 16:00:10.398,2,-0.51,-1.68,-0.16,10.775599999999999,156.89780000000002,102.5936,175,75
2026-05-09 16:00:10.409,2,-0.78,-1.66,-0.19,32.1756,144.5778,129.4836,175,75
2026-05-09 16:00:10.420,2,-1.15,-1.25,-0.38,71.3756,111.95779999999999,61.433600000000006,175,75
2026-05-09 16:00:10.431,2,-1.18,-0.96,-0.34,90.2856,71.8378,-51.1264,175,75
2026-05-09 16:00:10.442,2,-0.72,-0.91,-0.19,82.7856,23.667800000000003,-118.3264,175,75
2026-05-09 16:00:10.498,2,-0.13,-1.41,-0.38,7.055599999999998,-55.362199999999994,45.9436,175,75
2026-05-09 16:00:10.508,2,-0.55,-1.59,-0.55,15.525599999999999,13.057800000000002,106.9836,175,75
2026-05-09 16:00:10.509,2,-0.91,-1.67,-0.7,37.4156,109.33780000000002,99.6636,175,75
2026-05-09 16:00:10.548,2,-0.42,-0.96,0.31,79.1856,110.7378,-78.2664,175,75
2026-05-09 16:00:10.548,2,-0.27,-0.79,0.37,53.0256,41.107800000000005,-91.1264,175,75
2026-05-09 16:00:10.561,2,-0.21,-0.64,0.38,18.8156,-32.252199999999995,-92.71640000000001,175,75
2026-05-09 16:00:10.620,2,-0.31,-0.06,0.21,-18.494400000000002,-81.5822,17.4036,175,75
2026-05-09 16:00:10.620,2,-0.46,0.01,0.2,7.475599999999998,-35.91219999999999,6.5536,175,75
2026-05-09 16:00:10.652,2,-0.46,0.01,0.21,20.645599999999998,-15.972199999999994,-20.0964,175,75
2026-05-09 16:00:10.664,2,-0.45,0.49,0.24,2.115599999999999,-25.422199999999997,-50.5864,175,75
2026-05-09 16:00:10.682,2,-0.47,1.21,0.12,2.905599999999998,-9.382199999999997,-42.166399999999996,175,75
2026-05-09 16:00:10.730,2,-0.25,0.64,0.42,-24.414400000000004,-16.1522,-22.2264,175,75
2026-05-09 16:00:10.741,2,-0.24,0.59,0.45,-20.5144,-38.472199999999994,-26.7364,175,75
2026-05-09 16:00:10.793,2,-0.52,-0.5,0.29,-47.8844,-153.7122,22.1036,175,75
2026-05-09 16:00:10.806,2,-0.58,-1.1,0.3,-58.624399999999994,-154.9322,53.2036,175,75
2026-05-09 16:00:10.814,2,-0.63,-1.53,0.1,-78.0744,-156.5822,84.8436,175,75
2026-05-09 16:00:10.837,2,-0.95,-1.86,-0.05,-73.0744,-131.76219999999998,120.5136,175,75
2026-05-09 16:00:10.837,2,-1.36,-2.06,-0.25,-48.6844,-79.63219999999998,115.8836,175,75
2026-05-09 16:00:10.850,2,-1.75,-2.13,-0.36,-16.9744,-23.772199999999998,72.4036,175,75
2026-05-09 16:00:10.861,2,-1.81,-2.09,-0.29,16.0156,26.897800000000004,-9.7864,175,75
2026-05-09 16:00:10.873,2,-1.4,-2.08,-0.04,31.985599999999998,44.8878,-60.0364,175,75
2026-05-09 16:00:10.884,2,-1.04,-1.97,0.13,33.5156,46.2278,-62.4764,175,75
2026-05-09 16:00:10.894,2,-0.89,-1.81,0.18,29.6756,39.2778,-53.0864,175,75
2026-05-09 16:00:10.907,2,-0.85,-1.59,0.18,24.6156,32.2578,-47.166399999999996,175,75
2026-05-09 16:00:10.919,2,-0.9,-1.31,0.12,23.575599999999998,36.467800000000004,-53.4464,175,75
2026-05-09 16:00:10.929,2,-0.92,-1.09,0.09,26.7456,46.1678,-68.5664,175,75
2026-05-09 16:00:10.943,2,-0.89,-0.74,0.09,34.7956,59.5178,-96.9864,175,75
2026-05-09 16:00:10.953,2,-0.85,-0.5,0.11,39.7356,67.2578,-115.0964,175,75
2026-05-09 16:00:10.967,2,-0.75,-0.23,0.17,43.0256,76.8378,-129.8464,175,75
2026-05-09 16:00:10.979,2,-0.58,-0.0,0.23,40.5856,87.93780000000001,-130.0964,175,75
2026-05-09 16:00:10.985,2,-0.31,0.23,0.24,28.5156,116.83780000000002,-51.986399999999996,175,75
2026-05-09 16:00:10.995,2,-0.57,0.55,0.21,18.575599999999998,124.45779999999999,21.793599999999998,175,75
2026-05-09 16:00:11.002,2,-0.39,0.57,0.27,17.5356,104.15780000000001,21.793599999999998,175,75
2026-05-09 16:00:11.031,2,-0.48,0.55,0.26,19.1256,31.167800000000003,-9.176400000000001,175,75
2026-05-09 16:00:11.031,2,-0.39,0.63,0.2,17.235599999999998,15.617800000000003,-2.2264,175,75
2026-05-09 16:00:11.044,2,-0.41,0.78,0.12,13.695599999999999,0.30780000000000385,7.4036,175,75
2026-05-09 16:00:11.055,2,-0.49,0.88,0.11,14.0056,1.467800000000004,9.9036,175,75
2026-05-09 16:00:11.078,2,-0.53,0.65,0.14,0.035599999999998744,57.7478,8.8736,175,75
2026-05-09 16:00:11.106,2,-0.39,0.22,0.33,-12.7044,73.2978,2.1036,175,75
2026-05-09 16:00:11.120,2,-0.36,0.14,0.36,-12.334400000000002,43.4778,-6.9864,175,75
2026-05-09 16:00:11.129,2,-0.37,0.1,0.35,-12.214400000000001,-7.742199999999997,-6.9864,175,75
2026-05-09 16:00:11.169,2,-0.51,-0.7,0.13,-19.5344,-88.47219999999999,63.073600000000006,175,75
2026-05-09 16:00:11.180,2,-0.66,-0.94,0.24,-16.7244,-71.2122,78.0736,175,75
2026-05-09 16:00:11.213,2,-1.08,-1.77,-0.27,30.4656,54.3378,127.52359999999999,175,75
2026-05-09 16:00:11.224,2,-1.35,-1.56,-0.31,48.51559999999999,68.4178,63.99360000000001,175,75
2026-05-09 16:00:11.237,2,-1.31,-1.31,-0.23,56.4456,66.1078,-36.0064,175,75
2026-05-09 16:00:11.237,2,-1.02,-1.19,-0.11,48.6356,56.2278,-90.0364,175,75
2026-05-09 16:00:11.262,2,-0.7,-1.02,-0.03,22.845599999999997,43.357800000000005,-104.1164,175,75
2026-05-09 16:00:11.272,2,-0.49,-0.94,-0.05,-7.7044,40.73780000000001,-79.66640000000001,175,75
2026-05-09 16:00:11.297,2,-0.57,-0.71,-0.07,-23.314400000000003,151.7178,18.203599999999998,175,75
2026-05-09 16:00:11.337,2,-0.64,-0.19,0.24,17.665599999999998,241.95780000000002,-34.236399999999996,175,75
2026-05-09 16:00:11.337,2,-0.69,0.15,0.35,27.665599999999998,248.7278,-78.8764,175,75
2026-05-09 16:00:11.369,2,-0.62,0.77,0.4,27.1756,258.9078,-121.7364,175,75
2026-05-09 16:00:11.369,2,-0.57,2.21,0.34,4.185599999999999,259.3378,-37.5364,175,75
2026-05-09 16:00:11.407,2,-0.34,0.44,0.96,-78.31439999999999,166.1078,132.8936,175,75
2026-05-09 16:00:11.407,2,-1.17,0.3,1.27,-48.014399999999995,-101.2122,7.523599999999999,175,75
2026-05-09 16:00:11.457,2,-0.42,0.24,0.28,26.8656,-283.35220000000004,-42.2264,175,75
2026-05-09 16:00:11.481,2,-0.32,-0.48,-0.31,3.3355999999999995,-268.28220000000005,65.94359999999999,175,75
2026-05-09 16:00:11.491,2,-0.96,-1.06,-0.58,-16.664400000000004,-83.53219999999999,23.813599999999997,175,75
2026-05-09 16:00:11.501,2,-0.31,-1.56,-0.65,-14.104400000000002,43.4778,27.043599999999998,175,75
2026-05-09 16:00:11.501,2,-0.2,-1.76,-0.44,-2.4644000000000013,102.80780000000001,48.6236,175,75
2026-05-09 16:00:11.548,2,-0.37,-1.31,-0.15,48.205600000000004,96.83780000000002,52.5936,175,75
2026-05-09 16:00:11.548,2,-0.3,-0.8,-0.02,66.8056,-64.38219999999998,-92.2864,175,75
2026-05-09 16:00:11.589,2,-0.1,-0.89,-0.01,33.5156,-113.7122,-105.3964,175,75
2026-05-09 16:00:11.589,2,0.23,-1.11,-0.12,-5.994400000000002,-137.19219999999999,-33.1464,175,75
2026-05-09 16:00:11.589,2,-0.05,-1.24,-0.24,-5.574400000000001,-110.3022,54.113600000000005,175,75
2026-05-09 16:00:11.596,2,-0.27,-1.53,-0.33,12.535599999999999,-58.7122,54.293600000000005,175,75
2026-05-09 16:00:11.604,2,-0.36,-1.63,-0.41,33.0856,-36.94219999999999,43.3836,175,75
2026-05-09 16:00:11.642,2,-0.76,-1.28,-0.23,82.7856,-12.5522,-38.3264,175,75
2026-05-09 16:00:11.642,2,-0.71,-1.06,-0.15,84.7356,-20.972199999999994,-76.0064,175,75
2026-05-09 16:00:11.642,2,-0.61,-0.86,-0.07,74.7356,-33.712199999999996,-98.9364,175,75
2026-05-09 16:00:11.669,2,-0.43,-0.64,0.03,52.7256,-42.3722,-106.9264,175,75
2026-05-09 16:00:11.680,2,-0.21,-0.2,0.09,25.955599999999997,-10.0522,-13.4464,175,75
2026-05-09 16:00:11.680,2,-0.33,-0.06,0.14,31.2556,8.667800000000003,13.503599999999999,175,75
2026-05-09 16:00:11.692,2,-0.46,-0.09,0.26,36.8656,14.757800000000003,-10.586400000000001,175,75
2026-05-09 16:00:11.709,2,-0.44,-0.04,0.32,29.6756,9.027800000000003,-38.6864,175,75
2026-05-09 16:00:11.742,2,-0.37,0.37,0.26,10.895599999999998,-30.4822,-55.5164,175,75
2026-05-09 16:00:11.752,2,-0.39,0.73,0.16,9.185599999999999,-48.0422,-44.426399999999994,175,75
2026-05-09 16:00:11.762,2,-0.55,1.13,0.05,13.025599999999999,-55.112199999999994,-24.9064,175,75
2026-05-09 16:00:11.762,2,-0.57,1.41,-0.03,33.9456,-39.2022,-15.706399999999999,175,75
2026-05-09 16:00:11.774,2,-0.58,1.38,-0.0,34.6156,-9.8722,-7.1664,175,75
2026-05-09 16:00:11.786,2,-0.59,1.17,0.06,19.915599999999998,32.3278,-1.2564,175,75
2026-05-09 16:00:11.799,2,-0.55,0.93,0.17,-0.8144000000000027,60.3678,-9.5464,175,75
2026-05-09 16:00:11.812,2,-0.43,0.71,0.29,-15.264400000000002,62.8678,-20.886400000000002,175,75
2026-05-09 16:00:11.846,2,-0.34,0.5,0.38,-19.8344,-15.722199999999994,-32.5364,175,75
2026-05-09 16:00:11.866,2,-0.38,0.44,0.37,-23.0144,-72.5522,-30.1564,175,75
2026-05-09 16:00:11.895,2,-0.48,-0.45,0.08,-60.3244,-193.2822,33.683600000000006,175,75
2026-05-09 16:00:11.895,2,-0.52,-0.86,0.02,-57.644400000000005,-171.0322,37.8936,175,75
2026-05-09 16:00:11.905,2,-0.62,-1.28,-0.05,-48.254400000000004,-125.4222,48.073600000000006,175,75
2026-05-09 16:00:11.917,2,-0.58,-1.52,-0.15,-39.904399999999995,-94.38219999999998,70.2736,175,75
2026-05-09 16:00:11.917,2,-0.73,-1.88,-0.28,-25.5744,-64.81219999999999,97.9536,175,75
2026-05-09 16:00:11.963,2,-1.35,-2.04,-0.46,21.8056,16.957800000000002,92.7736,175,75
2026-05-09 16:00:11.975,2,-1.47,-2.09,-0.44,39.9156,46.6578,23.6836,175,75
2026-05-09 16:00:11.990,2,-1.17,-2.24,-0.27,44.245599999999996,53.5478,-25.3364,175,75
2026-05-09 16:00:11.990,2,-0.82,-1.95,-0.03,40.6456,59.1578,-26.0664,175,75
2026-05-09 16:00:12.007,2,-0.89,-1.58,-0.05,47.8456,52.4478,-43.8764,175,75
2026-05-09 16:00:12.046,2,-0.57,-0.33,0.2,41.8056,35.497800000000005,-125.88640000000001,175,75
2026-05-09 16:00:12.057,2,-0.44,-0.02,0.25,33.455600000000004,38.84780000000001,-138.0864,175,75
2026-05-09 16:00:12.067,2,-0.14,0.23,0.24,22.5356,51.957800000000006,-80.0364,175,75
2026-05-09 16:00:12.081,2,-0.44,0.53,0.21,8.755599999999998,56.0478,19.0536,175,75
2026-05-09 16:00:12.138,2,-0.59,0.26,0.36,-9.354400000000002,-30.172199999999997,-6.5564,175,75
2026-05-09 16:00:12.173,2,-0.55,0.53,0.26,-0.14440000000000097,-27.002199999999995,-29.6664,175,75
2026-05-09 16:00:12.173,2,-0.55,0.77,0.18,9.615599999999999,-18.892199999999995,-25.7664,175,75
2026-05-09 16:00:12.194,2,-0.61,1.11,0.1,16.5656,5.247800000000002,-3.8164,175,75
2026-05-09 16:00:12.209,2,-0.41,0.57,0.28,-8.9844,39.5778,18.5036,175,75
2026-05-09 16:00:12.212,2,-0.41,0.18,0.32,-27.4644,-5.542199999999994,-0.3363999999999998,175,75
2026-05-09 16:00:12.216,2,-0.48,0.14,0.27,-23.8644,-37.612199999999994,-6.4963999999999995,175,75
2026-05-09 16:00:12.246,2,-0.79,0.12,0.04,-18.0744,-74.38219999999998,12.223600000000001,175,75
2026-05-09 16:00:12.255,2,-0.68,-0.51,0.1,-23.8644,-36.88219999999999,66.3736,175,75
2026-05-09 16:00:12.283,2,-0.63,-1.16,0.33,-24.414400000000004,-37.80219999999999,134.6636,175,75
2026-05-09 16:00:12.316,2,-1.59,-1.32,-0.27,54.0056,-69.2622,87.6536,175,75
2026-05-09 16:00:12.326,2,-1.57,-1.36,-0.32,67.6656,-44.2622,-10.706399999999999,175,75
2026-05-09 16:00:12.340,2,-1.06,-1.43,-0.29,53.0256,-8.472199999999994,-59.7264,175,75
2026-05-09 16:00:12.350,2,-0.87,-1.36,-0.27,36.8656,14.697800000000003,-48.996399999999994,175,75
2026-05-09 16:00:12.389,2,-0.82,-1.2,-0.26,24.065599999999996,75.6778,-7.4064,175,75
2026-05-09 16:00:12.403,2,-0.72,-0.84,0.04,43.3356,232.1378,53.7436,175,75
2026-05-09 16:00:12.431,2,-0.76,-0.69,0.19,44.7956,253.3578,33.683600000000006,175,75
2026-05-09 16:00:12.497,2,-0.45,1.55,0.7,-29.7144,142.9978,61.0636,175,75
2026-05-09 16:00:12.527,2,-0.21,0.32,0.87,-42.8244,-47.612199999999994,51.003600000000006,175,75
2026-05-09 16:00:12.539,2,-0.1,0.27,0.75,-39.294399999999996,-93.34219999999999,30.7636,175,75
2026-05-09 16:00:12.550,2,-0.53,0.63,-0.01,30.2256,-169.7522,-3.2664,175,75
2026-05-09 16:00:12.550,2,-0.72,0.5,0.02,40.1656,-157.2522,16.4936,175,75
2026-05-09 16:00:12.564,2,-0.71,0.18,-0.2,31.315599999999996,-129.20219999999998,47.043600000000005,175,75
2026-05-09 16:00:12.577,2,-0.6,-0.36,-0.23,-5.994400000000002,-50.6022,61.433600000000006,175,75
2026-05-09 16:00:12.600,2,-0.21,-1.27,-0.24,-23.374399999999998,172.86780000000002,39.6636,175,75
2026-05-09 16:00:12.659,2,-0.31,-1.54,0.0,29.2456,143.2978,122.5936,175,75
2026-05-09 16:00:12.659,2,-0.68,-0.89,-0.0,92.5356,-14.6922,18.6836,175,75
2026-05-09 16:00:12.670,2,-0.55,-0.95,0.03,82.5956,-131.1522,-71.4364,175,75
2026-05-09 16:00:12.670,2,-0.3,-1.11,-0.03,38.8156,-205.66219999999998,-89.2364,175,75
2026-05-09 16:00:12.709,2,-0.16,-1.26,-0.16,0.9555999999999987,-250.9122,-69.1764,175,75
2026-05-09 16:00:12.709,2,-0.19,-1.38,-0.35,-20.5144,-258.5922,-37.776399999999995,175,75
2026-05-09 16:00:12.709,2,-0.42,-1.45,-0.61,-15.9344,-207.8022,-14.6664,175,75
2026-05-09 16:00:12.722,2,-0.78,-1.44,-1.02,54.735600000000005,-14.6922,-15.706399999999999,175,75
2026-05-09 16:00:12.731,2,-0.82,-1.21,-0.78,77.5956,63.607800000000005,-34.1164,175,75
2026-05-09 16:00:12.766,2,-0.7,-0.96,-0.45,78.1456,117.74780000000001,-44.7864,175,75
2026-05-09 16:00:12.766,2,-0.56,-0.82,-0.22,69.6756,140.2478,-42.8364,175,75
2026-05-09 16:00:12.812,2,-0.29,-0.47,0.26,47.355599999999995,84.02780000000001,-21.4964,175,75
2026-05-09 16:00:12.812,2,-0.28,-0.36,0.33,44.855599999999995,30.737800000000004,-30.886400000000002,175,75
2026-05-09 16:00:12.825,2,-0.31,-0.21,0.36,38.8756,-36.2122,-52.2264,175,75
2026-05-09 16:00:12.837,2,-0.35,-0.06,0.28,25.4656,-104.81219999999999,-79.2364,175,75
2026-05-09 16:00:12.861,2,-0.6,0.83,-0.06,4.555599999999998,-97.7422,-24.4864,175,75
2026-05-09 16:00:12.872,2,-0.6,0.96,-0.08,12.665599999999998,-26.9422,-28.206400000000002,175,75
2026-05-09 16:00:12.895,2,-0.49,0.98,0.03,23.395599999999998,71.9578,-42.166399999999996,175,75
2026-05-09 16:00:12.917,2,-0.39,0.94,0.2,1.5055999999999994,100.49780000000001,-40.3364,175,75
2026-05-09 16:00:12.927,2,-0.33,0.87,0.29,-7.584400000000002,84.6978,-39.2964,175,75
2026-05-09 16:00:12.940,2,-0.31,0.75,0.36,-14.354400000000002,55.2478,-36.066399999999994,175,75
2026-05-09 16:00:12.940,2,-0.34,0.62,0.4,-19.2244,10.187800000000003,-33.0164,175,75
2026-05-09 16:00:12.988,2,-0.45,0.33,0.42,-30.3244,-76.1522,-29.7864,175,75
2026-05-09 16:00:12.995,2,-0.38,-0.16,0.38,-50.4444,-141.3922,-6.9264,175,75
2026-05-09 16:00:13.007,2,-0.24,-0.91,0.1,-71.3644,-207.3122,29.6636,175,75
2026-05-09 16:00:13.040,2,-0.42,-1.28,0.17,-83.31439999999999,-222.7422,71.30359999999999,175,75
2026-05-09 16:00:13.051,2,-0.84,-1.61,-0.08,-75.8744,-191.76219999999998,108.50359999999999,175,75
2026-05-09 16:00:13.051,2,-1.41,-1.86,-0.41,-44.59440000000001,-66.94219999999999,94.3536,175,75
2026-05-09 16:00:13.066,2,-1.66,-1.89,-0.57,-11.7944,36.5878,47.653600000000004,175,75
2026-05-09 16:00:13.077,2,-1.61,-1.62,-0.41,37.5356,115.43780000000001,-33.4464,175,75
2026-05-09 16:00:13.088,2,-0.94,-1.48,0.16,89.0656,127.68780000000001,-58.0164,175,75
2026-05-09 16:00:13.112,2,-0.61,-1.65,0.27,80.1656,90.0078,-13.3264,175,75
2026-05-09 16:00:13.123,2,-0.81,-1.68,0.21,27.665599999999998,17.0178,44.8436,175,75
2026-05-09 16:00:13.136,2,-1.06,-1.43,0.07,21.075599999999998,34.457800000000006,-5.2764,175,75
2026-05-09 16:00:13.147,2,-1.01,-1.14,0.04,31.6856,37.8678,-63.206399999999995,175,75
2026-05-09 16:00:13.187,2,-0.64,-0.18,0.22,44.245599999999996,40.7978,-141.12640000000002,175,75
2026-05-09 16:00:13.228,2,0.19,0.13,0.29,17.1756,85.0078,-33.2664,175,75
2026-05-09 16:00:13.228,2,-0.27,0.41,0.26,9.365599999999999,102.86780000000002,62.71360000000001,175,75
2026-05-09 16:00:13.270,2,-0.33,0.5,0.32,33.205600000000004,51.0478,6.7336,175,75
2026-05-09 16:00:13.276,2,-0.35,0.63,0.28,46.8056,40.9778,-31.616400000000002,175,75
2026-05-09 16:00:13.280,2,-0.08,0.88,0.2,51.1356,28.967800000000004,-30.6464,175,75
2026-05-09 16:00:13.291,2,-0.12,1.2,0.14,46.8056,16.717800000000004,-6.1264,175,75
2026-05-09 16:00:13.291,2,-0.15,1.43,0.11,47.355599999999995,8.847800000000003,6.183599999999999,175,75
2026-05-09 16:00:13.305,2,0.08,0.75,0.3,11.375599999999999,-9.202199999999998,13.7436,175,75
2026-05-09 16:00:13.328,2,0.05,0.06,0.32,-16.914400000000004,-86.03219999999999,-16.7964,175,75
2026-05-09 16:00:13.338,2,-0.06,0.03,0.22,-10.814400000000003,-120.54219999999998,-27.4064,175,75
2026-05-09 16:00:13.350,2,-0.28,0.1,-0.06,-7.0344000000000015,-174.20219999999998,-26.2564,175,75
2026-05-09 16:00:13.360,2,-0.36,-0.07,-0.14,-15.5744,-154.69219999999999,-5.6464,175,75
2026-05-09 16:00:13.372,2,-0.3,-0.44,-0.15,-23.554400000000005,-97.8622,4.5436,175,75
2026-05-09 16:00:13.386,2,-0.21,-1.23,-0.12,-20.5744,12.867800000000003,14.9036,175,75
2026-05-09 16:00:13.401,2,-0.27,-1.57,-0.12,-15.0244,35.247800000000005,46.3136,175,75
2026-05-09 16:00:13.412,2,-0.52,-1.82,-0.35,-7.1544000000000025,34.5178,77.3436,175,75
2026-05-09 16:00:13.412,2,-1.16,-1.45,-0.39,14.125599999999999,52.0778,79.11359999999999,175,75
2026-05-09 16:00:13.424,2,-1.69,-1.17,-0.51,35.955600000000004,76.1678,38.7436,175,75
2026-05-09 16:00:13.466,2,-1.21,-1.27,0.06,38.6356,177.0778,-26.9264,175,75
2026-05-09 16:00:13.478,2,-0.96,-1.34,0.19,21.1956,191.7778,25.2136,175,75
2026-05-09 16:00:13.489,2,-1.01,-1.35,0.25,4.065599999999998,173.9678,72.5936,175,75
2026-05-09 16:00:13.512,2,-1.53,-0.96,0.34,-7.884400000000003,149.6978,53.5636,175,75
2026-05-09 16:00:13.517,2,-1.55,-0.63,0.43,-7.7044,132.5678,-20.5164,175,75
2026-05-09 16:00:13.536,2,-1.4,-0.25,0.48,-9.104400000000002,127.2578,-70.5864,175,75
2026-05-09 16:00:13.557,2,-0.69,0.76,0.49,-1.2444000000000024,147.5078,-129.6664,175,75
2026-05-09 16:00:13.573,2,-0.3,1.7,0.44,-2.5844000000000023,170.1278,94.9036,175,75
2026-05-09 16:00:13.587,2,-1.35,1.58,0.62,15.8356,214.51780000000002,102.3436,175,75
2026-05-09 16:00:13.597,2,-0.45,0.73,0.66,-16.5444,195.9778,158.3236,175,75
2026-05-09 16:00:13.610,2,1.02,0.03,1.02,-53.984399999999994,98.90780000000001,149.6636,175,75
2026-05-09 16:00:13.620,2,-0.62,-0.02,0.86,-60.144400000000005,43.0578,75.94359999999999,175,75
2026-05-09 16:00:13.630,2,-0.03,0.18,0.57,-45.6944,-12.002199999999995,-3.0864,175,75
2026-05-09 16:00:13.640,2,0.18,0.71,0.31,-15.444400000000002,-61.392199999999995,6.7336,175,75
2026-05-09 16:00:13.679,2,-0.03,0.97,0.05,3.515599999999999,-72.00219999999999,61.433600000000006,175,75
2026-05-09 16:00:13.723,2,0.2,-1.22,0.2,-34.4144,234.33780000000002,42.3436,175,75
2026-05-09 16:00:13.733,2,0.46,-1.67,0.0,-42.404399999999995,180.67780000000002,69.11359999999999,175,75
2026-05-09 16:00:13.757,2,0.18,-1.84,0.15,-43.4344,90.9178,117.9536,175,75
2026-05-09 16:00:13.791,2,-0.48,-1.4,-0.17,-24.5344,-1.8221999999999987,94.6636,175,75
2026-05-09 16:00:13.791,2,-1.1,-0.94,-0.46,2.7255999999999982,8.667800000000003,-41.4364,175,75
2026-05-09 16:00:13.791,2,-0.53,-1.03,-0.48,10.8356,33.177800000000005,-117.10640000000001,175,75
2026-05-09 16:00:13.801,2,0.38,-1.51,0.02,16.685599999999997,146.1078,49.3536,175,75
2026-05-09 16:00:13.812,2,0.25,-1.55,0.04,26.3756,150.30780000000001,128.4436,175,75
2026-05-09 16:00:13.820,2,-0.12,-1.53,0.07,44.5556,116.95779999999999,155.0936,175,75
2026-05-09 16:00:13.852,2,-0.55,-1.42,0.06,59.0656,88.5478,123.9336,175,75
2026-05-09 16:00:13.852,2,-0.74,-1.39,0.11,61.685599999999994,57.2578,43.6236,175,75
2026-05-09 16:00:13.852,2,-0.59,-1.43,0.23,50.2856,32.8678,-38.8764,175,75
2026-05-09 16:00:13.887,2,-0.32,-1.16,0.25,21.985599999999998,3.727800000000002,-92.2864,175,75
2026-05-09 16:00:13.887,2,-0.07,-0.46,0.29,8.205599999999999,27.507800000000003,-100.3364,175,75
2026-05-09 16:00:13.929,2,0.04,-0.15,0.36,20.2256,97.86780000000002,-30.8264,175,75
2026-05-09 16:00:13.929,2,-0.08,-0.02,0.7,50.2256,202.4478,37.1636,175,75
2026-05-09 16:00:13.941,2,-0.2,-0.21,0.88,52.5356,187.6278,11.003599999999999,175,75
2026-05-09 16:00:13.962,2,-0.22,-0.24,0.98,49.0056,139.5178,-11.5564,175,75
2026-05-09 16:00:13.972,2,-0.13,0.02,0.96,39.7956,31.897800000000004,-37.4064,175,75
2026-05-09 16:00:13.973,2,-0.0,0.82,0.61,37.6656,-87.06219999999999,36.0636,175,75
2026-05-09 16:00:13.984,2,-0.06,1.02,0.39,51.1956,-103.04219999999998,49.903600000000004,175,75
2026-05-09 16:00:13.995,2,-0.04,1.09,0.29,65.40559999999999,-82.8622,36.1236,175,75
2026-05-09 16:00:14.037,2,-0.16,0.75,0.22,66.8056,50.857800000000005,18.8736,175,75
2026-05-09 16:00:14.037,2,-0.18,0.66,0.25,66.1956,117.0778,-1.6764000000000001,175,75
2026-05-09 16:00:14.038,2,-0.1,0.7,0.28,72.6656,149.6978,-25.2164,175,75
2026-05-09 16:00:14.064,2,-0.02,0.78,0.32,75.3456,135.4978,-31.616400000000002,175,75
2026-05-09 16:00:14.075,2,-0.0,0.8,0.35,66.3156,96.1678,-26.7364,175,75
2026-05-09 16:00:14.075,2,-0.05,0.63,0.22,23.145599999999998,-36.2122,-19.546400000000002,175,75
2026-05-09 16:00:14.086,2,-0.17,0.51,0.1,9.9756,-65.97219999999999,-15.6464,175,75
2026-05-09 16:00:14.099,2,-0.36,0.25,-0.01,11.7456,-59.8722,-10.5164,175,75
2026-05-09 16:00:14.112,2,-0.39,-0.12,-0.03,16.255599999999998,-33.532199999999996,-6.4963999999999995,175,75
2026-05-09 16:00:14.134,2,-0.21,-0.99,-0.04,7.905599999999998,-47.4322,5.2736,175,75
2026-05-09 16:00:14.145,2,-0.24,-1.47,-0.12,-8.134400000000003,-97.8622,36.613600000000005,175,75
2026-05-09 16:00:14.156,2,-0.48,-1.76,-0.28,-20.9344,-121.09219999999999,68.2636,175,75
2026-05-09 16:00:14.167,2,-1.11,-1.93,-0.56,-16.244400000000002,-81.03219999999999,97.5236,175,75
2026-05-09 16:00:14.179,2,-1.56,-2.06,-0.9,8.395599999999998,15.367800000000003,72.4636,175,75
2026-05-09 16:00:14.198,2,-1.53,-2.19,-0.96,41.745599999999996,97.5678,20.633599999999998,175,75
2026-05-09 16:00:14.207,2,-1.24,-2.28,-0.74,67.7856,144.2178,4.2336,175,75
2026-05-09 16:00:14.220,2,-1.05,-2.25,-0.53,77.1156,169.8278,18.563599999999997,175,75
2026-05-09 16:00:14.231,2,-0.99,-2.12,-0.37,65.9556,184.9478,34.2336,175,75
2026-05-09 16:00:14.243,2,-0.98,-1.97,-0.24,47.1156,200.2478,37.3436,175,75
2026-05-09 16:00:14.255,2,-0.86,-1.8,-0.1,31.135599999999997,218.54780000000002,31.063599999999997,175,75
2026-05-09 16:00:14.262,2,-0.65,-1.52,0.09,24.3056,225.4378,16.0036,175,75
2026-05-09 16:00:14.273,2,-0.47,-1.17,0.25,27.595599999999997,207.5078,-10.0364,175,75
2026-05-09 16:00:14.282,2,-0.37,-0.84,0.37,31.2556,185.4378,-42.2264,175,75
2026-05-09 16:00:14.304,2,0.08,0.02,0.47,28.205599999999997,150.1278,-107.10640000000001,175,75
2026-05-09 16:00:14.326,2,-0.12,0.63,0.37,25.955599999999997,187.6278,69.72359999999999,175,75
2026-05-09 16:00:14.352,2,-0.15,0.31,0.39,29.3056,132.5078,19.6636,175,75
2026-05-09 16:00:14.363,2,-0.35,0.39,0.25,31.565599999999996,117.93780000000001,-5.3964,175,75
2026-05-09 16:00:14.363,2,-0.32,0.74,0.01,38.205600000000004,106.95779999999999,7.283600000000001,175,75
2026-05-09 16:00:14.373,2,-0.45,0.94,-0.02,37.355599999999995,117.99780000000001,25.2736,175,75
2026-05-09 16:00:14.386,2,-0.39,0.88,0.05,33.6956,162.01780000000002,31.433600000000002,175,75
2026-05-09 16:00:14.401,2,-0.12,0.02,0.43,-12.584400000000002,261.7778,17.3436,175,75
2026-05-09 16:00:14.435,2,-0.01,-0.16,0.63,-26.5444,239.5778,-10.3964,175,75
2026-05-09 16:00:14.446,2,-0.01,0.11,0.7,-18.134400000000003,156.2878,-42.0464,175,75
2026-05-09 16:00:14.446,2,0.12,0.53,0.64,-14.474400000000003,62.5078,-40.1564,175,75
2026-05-09 16:00:14.458,2,0.07,0.9,0.5,-14.834400000000002,-23.1622,-2.1664,175,75
2026-05-09 16:00:14.464,2,-0.01,0.98,0.34,-28.624399999999998,-76.94219999999999,22.8336,175,75
2026-05-09 16:00:14.481,2,0.0,0.76,0.26,-41.794399999999996,-78.04220000000001,28.203599999999998,175,75
2026-05-09 16:00:14.481,2,-0.03,0.5,0.24,-48.8044,-39.44219999999999,24.8436,175,75
2026-05-09 16:00:14.506,2,0.03,0.23,0.26,-38.1944,28.1778,7.8936,175,75
2026-05-09 16:00:14.519,2,0.28,-0.06,0.34,-15.384400000000003,49.1578,-3.9364,175,75
2026-05-09 16:00:14.536,2,0.51,-0.43,0.49,-2.0944000000000003,19.3378,-7.5363999999999995,175,75
2026-05-09 16:00:14.547,2,0.62,-0.94,0.53,-12.214400000000001,-67.13219999999998,-2.8364,175,75
2026-05-09 16:00:14.547,2,0.39,-1.37,0.33,-36.424400000000006,-212.8022,31.5536,175,75
2026-05-09 16:00:14.566,2,-1.1,-1.53,-0.84,-63.6844,-315.0522,17.043599999999998,175,75
2026-05-09 16:00:14.576,2,-2.01,-1.35,-1.42,-58.0744,-103.35219999999998,-84.5464,175,75
2026-05-09 16:00:14.587,2,-1.45,-1.11,-1.39,-45.20440000000001,92.2578,-163.5064,175,75
2026-05-09 16:00:14.597,2,-0.12,-0.82,-0.69,-20.444399999999998,260.7978,-75.1564,175,75
2026-05-09 16:00:14.610,2,-0.54,-0.7,0.01,2.8455999999999992,421.1078,98.44359999999999,175,75
2026-05-09 16:00:14.664,2,-0.42,-1.49,0.39,42.7856,336.77779999999996,173.2636,175,75
2026-05-09 16:00:14.664,2,-0.63,-1.72,0.59,35.4056,223.9678,199.0536,175,75
2026-05-09 16:00:14.675,2,-1.26,-1.68,0.87,-4.104400000000002,61.287800000000004,132.9536,175,75
2026-05-09 16:00:14.675,2,-1.94,-1.36,0.95,-53.4344,38.84780000000001,-12.476400000000002,175,75
2026-05-09 16:00:14.718,2,-1.6,-0.39,0.75,-84.9644,105.24780000000001,-198.9964,175,75
2026-05-09 16:00:14.729,2,-1.46,0.15,0.77,-60.9344,163.6078,-230.3364,175,75
2026-05-09 16:00:14.729,2,-1.3,0.63,0.85,-21.664400000000004,243.6678,-255.4564,175,75
2026-05-09 16:00:14.754,2,-1.1,0.44,1.38,49.125600000000006,225.79780000000002,156.43359999999998,175,75
2026-05-09 16:00:14.765,2,0.3,-0.24,1.8,37.9056,-106.76219999999998,155.7636,175,75
2026-05-09 16:00:14.765,2,-1.19,0.02,1.24,55.465599999999995,-173.6522,105.33359999999999,175,75
2026-05-09 16:00:14.776,2,-0.67,0.42,0.66,77.2956,-314.8722,10.273599999999998,175,75
2026-05-09 16:00:14.779,2,-0.27,0.61,0.34,91.5056,-383.5922,-28.6264,175,75
2026-05-09 16:00:14.794,2,0.01,1.0,-0.02,123.2756,-420.2422,61.003600000000006,175,75
2026-05-09 16:00:14.831,2,-0.42,0.21,-0.93,182.66559999999998,-386.8822,130.2736,175,75
2026-05-09 16:00:14.852,2,-1.78,-0.75,-1.23,98.8756,-105.2422,9.0536,175,75
2026-05-09 16:00:14.867,2,-0.97,-1.24,-1.23,-27.094400000000004,279.88779999999997,64.4836,175,75
2026-05-09 16:00:14.879,2,-0.2,-1.49,-0.5,13.945599999999999,329.7578,117.3436,175,75
2026-05-09 16:00:14.924,2,-0.36,-1.23,-0.15,68.9456,130.0078,90.5136,175,75
2026-05-09 16:00:14.924,2,-0.21,-1.18,-0.06,53.7556,84.27780000000001,39.0536,175,75
2026-05-09 16:00:14.935,2,0.02,-1.28,0.06,24.9756,41.1678,11.3036,175,75
2026-05-09 16:00:14.973,2,0.26,-1.46,0.18,-2.3344000000000023,15.127800000000002,12.4636,175,75
2026-05-09 16:00:14.991,2,0.29,-1.57,0.12,-22.944399999999998,-20.782199999999996,86.4336,175,75
2026-05-09 16:00:15.002,2,-0.06,-1.36,-0.12,3.3355999999999995,-25.0522,82.28359999999999,175,75
2026-05-09 16:00:15.002,2,-0.34,-1.21,-0.23,15.645599999999998,1.5278000000000027,23.563599999999997,175,75
2026-05-09 16:00:15.012,2,0.01,-0.97,0.06,-20.024400000000004,118.4778,-42.7164,175,75
2026-05-09 16:00:15.014,2,0.14,-0.68,0.19,-28.924400000000002,171.4678,-14.546399999999998,175,75
2026-05-09 16:00:15.032,2,0.05,0.08,0.56,16.3756,256.7778,-11.9864,175,75
2026-05-09 16:00:15.053,2,0.22,0.43,0.76,28.635599999999997,188.11780000000002,-35.886399999999995,175,75
2026-05-09 16:00:15.061,2,0.14,0.66,0.8,16.985599999999998,134.6978,-13.206399999999999,175,75
2026-05-09 16:00:15.077,2,0.03,0.76,0.77,7.175599999999999,73.8478,-5.0364,175,75
2026-05-09 16:00:15.089,2,-0.01,0.71,0.71,2.115599999999999,24.827800000000003,-6.6164,175,75
2026-05-09 16:00:15.089,2,-0.1,0.67,0.63,-0.14440000000000097,-10.0522,-7.5363999999999995,175,75
2026-05-09 16:00:15.108,2,-0.17,0.7,0.54,1.685599999999999,-27.492199999999997,-12.776399999999999,175,75
2026-05-09 16:00:15.121,2,-0.16,0.75,0.48,6.135599999999998,-31.212199999999996,-19.6064,175,75
2026-05-09 16:00:15.144,2,-0.15,0.78,0.43,8.875599999999999,-23.4122,-22.776400000000002,175,75
2026-05-09 16:00:15.155,2,-0.15,0.77,0.39,7.055599999999998,-7.312199999999997,-23.4464,175,75
2026-05-09 16:00:15.167,2,-0.17,0.69,0.3,-5.384400000000003,27.327800000000003,-35.456399999999995,175,75
2026-05-09 16:00:15.167,2,-0.18,0.72,0.27,-3.6244000000000014,40.4378,-41.676399999999994,175,75
2026-05-09 16:00:15.179,2,-0.2,0.75,0.25,1.9255999999999993,49.0878,-44.9064,175,75
2026-05-09 16:00:15.188,2,-0.17,0.69,0.28,8.395599999999998,52.567800000000005,-44.846399999999996,175,75
2026-05-09 16:00:15.194,2,-0.17,0.47,0.35,9.125599999999999,48.2978,-40.096399999999996,175,75
2026-05-09 16:00:15.222,2,-0.05,0.01,0.44,0.22559999999999825,19.397800000000004,-32.0464,175,75
2026-05-09 16:00:15.236,2,0.09,-0.52,0.47,-11.6644,-40.30219999999999,-25.3364,175,75
2026-05-09 16:00:15.247,2,0.02,-1.14,0.41,-27.944399999999998,-136.3322,2.9536,175,75
2026-05-09 16:00:15.272,2,-0.53,-1.92,-0.1,-43.8044,-263.7122,141.7936,175,75
2026-05-09 16:00:15.283,2,-1.25,-2.23,-0.53,-33.8644,-247.6722,168.62359999999998,175,75
2026-05-09 16:00:15.283,2,-2.41,-2.41,-1.07,-11.5444,-90.2422,106.6736,175,75
2026-05-09 16:00:15.295,2,-2.78,-2.29,-1.34,5.8355999999999995,45.0078,11.9836,175,75
2026-05-09 16:00:15.305,2,-2.34,-1.9,-1.22,38.8156,148.2378,-119.2964,175,75
2026-05-09 16:00:15.318,2,-1.66,-1.64,-0.73,74.7956,192.2578,-160.8264,175,75
2026-05-09 16:00:15.318,2,-1.12,-1.5,-0.3,96.2556,223.7878,-142.1064,175,75
2026-05-09 16:00:15.328,2,-0.83,-1.47,-0.01,98.3956,236.95780000000002,-81.6164,175,75
2026-05-09 16:00:15.333,2,-0.66,-1.5,0.13,81.5656,235.2478,-4.9764,175,75
2026-05-09 16:00:15.346,2,-0.59,-1.58,0.19,37.965599999999995,190.1878,101.7936,175,75
2026-05-09 16:00:15.361,2,-0.84,-1.41,0.13,9.2456,132.2578,132.5936,175,75
2026-05-09 16:00:15.389,2,-1.26,-1.13,0.01,6.685599999999999,108.3578,68.6836,175,75
2026-05-09 16:00:15.425,2,-1.27,-0.93,-0.01,18.275599999999997,106.71780000000001,-20.9464,175,75
2026-05-09 16:00:15.436,2,-0.9,-0.73,0.03,30.525599999999997,99.45779999999999,-87.4764,175,75
2026-05-09 16:00:15.436,2,-0.64,-0.29,0.14,35.5256,90.49780000000001,-131.7964,175,75
2026-05-09 16:00:15.447,2,-0.41,0.06,0.17,34.855599999999995,103.90780000000001,-146.9864,175,75
2026-05-09 16:00:15.447,2,0.13,0.82,0.03,36.4456,176.4078,-6.3164,175,75
2026-05-09 16:00:15.458,2,-0.87,1.27,-0.09,32.355599999999995,234.9478,63.073600000000006,175,75
2026-05-09 16:00:15.458,2,-0.67,1.15,0.03,43.205600000000004,253.9678,45.0236,175,75
2026-05-09 16:00:15.487,2,-0.38,0.54,0.26,19.8556,234.39780000000002,33.3836,175,75
2026-05-09 16:00:15.487,2,-0.55,0.23,0.37,-5.874400000000001,228.23780000000002,42.9536,175,75
2026-05-09 16:00:15.519,2,-0.04,0.08,0.49,-21.5444,146.4678,32.833600000000004,175,75
2026-05-09 16:00:15.519,2,0.01,0.1,0.51,-6.124400000000001,84.8278,23.2636,175,75
2026-05-09 16:00:15.531,2,-0.01,0.1,0.43,-35.514399999999995,43.0578,30.1536,175,75
2026-05-09 16:00:15.543,2,0.0,0.22,0.35,-47.70440000000001,37.3278,14.4836,175,75
2026-05-09 16:00:15.590,2,0.0,0.44,0.26,-20.874399999999998,57.9978,18.133599999999998,175,75
2026-05-09 16:00:15.601,2,0.03,0.28,0.3,-14.224400000000003,75.43780000000001,13.4436,175,75
2026-05-09 16:00:15.612,2,0.09,0.1,0.3,-11.7944,60.7378,11.793600000000001,175,75
2026-05-09 16:00:15.623,2,0.18,-0.23,0.31,-7.214400000000001,14.217800000000002,17.7736,175,75
2026-05-09 16:00:15.634,2,0.28,-0.57,0.31,-6.304400000000001,-39.9322,26.1836,175,75
2026-05-09 16:00:15.645,2,0.28,-1.04,0.23,-10.634400000000003,-116.1522,43.4436,175,75
2026-05-09 16:00:15.698,2,-0.32,-1.64,-0.24,-26.054400000000005,-201.0922,95.7636,175,75
2026-05-09 16:00:15.698,2,-0.89,-1.73,-0.57,-22.1544,-151.5822,82.7736,175,75
2026-05-09 16:00:15.709,2,-1.44,-1.62,-0.82,0.16559999999999953,18.117800000000003,6.4936,175,75
2026-05-09 16:00:15.725,2,-1.13,-1.35,-0.68,32.2956,129.7578,-59.7264,175,75
2026-05-09 16:00:15.757,2,-0.54,-0.86,0.11,98.9456,204.0278,-62.0464,175,75
2026-05-09 16:00:15.768,2,-0.35,-0.9,0.28,90.46560000000001,201.2278,-13.6264,175,75
2026-05-09 16:00:15.781,2,-0.22,-1.11,0.34,51.01559999999999,152.6278,38.013600000000004,175,75
2026-05-09 16:00:15.790,2,-0.43,-1.21,0.38,-12.644400000000001,101.52780000000001,80.5736,175,75
2026-05-09 16:00:15.855,2,-0.89,-0.94,0.32,-59.3544,117.5078,50.9436,175,75
2026-05-09 16:00:15.867,2,-1.19,-0.62,0.22,-63.624399999999994,150.7978,-17.7164,175,75
2026-05-09 16:00:15.877,2,-1.15,-0.27,0.27,-45.9344,178.9678,-88.8164,175,75
2026-05-09 16:00:15.889,2,-1.04,0.15,0.39,-17.274400000000004,212.4478,-139.7264,175,75
2026-05-09 16:00:15.900,2,-0.71,0.65,0.51,3.4555999999999987,268.2978,-150.03640000000001,175,75
2026-05-09 16:00:15.900,2,-0.35,1.34,0.43,-6.424400000000002,294.9478,-10.586400000000001,175,75
2026-05-09 16:00:15.900,2,-1.02,1.57,0.52,-6.9144000000000005,289.57779999999997,19.0536,175,75
2026-05-09 16:00:15.912,2,-0.92,1.4,0.44,-14.534400000000002,236.89780000000002,27.3436,175,75
2026-05-09 16:00:15.927,2,-0.14,0.65,0.59,-68.92439999999999,75.24780000000001,107.4636,175,75
2026-05-09 16:00:15.927,2,-0.57,0.42,0.57,-60.0844,27.867800000000003,65.5736,175,75
2026-05-09 16:00:15.938,2,-0.53,0.14,0.39,-41.9744,27.9978,43.013600000000004,175,75
2026-05-09 16:00:15.949,2,-0.1,-0.07,0.36,-38.1944,6.957800000000002,49.2336,175,75
2026-05-09 16:00:15.960,2,-0.08,-0.33,0.32,-31.914400000000004,-19.322199999999995,66.00359999999999,175,75
2026-05-09 16:00:15.963,2,-0.06,-0.58,0.27,-29.104400000000002,-33.892199999999995,73.5636,175,75
2026-05-09 16:00:15.975,2,-0.04,-0.86,0.17,-25.1444,-52.612199999999994,77.5936,175,75
2026-05-09 16:00:16.054,2,-0.12,-1.65,-0.4,0.46559999999999846,-60.4822,65.7036,175,75
2026-05-09 16:00:16.096,2,-0.23,-1.79,-0.66,22.235599999999998,-15.842199999999998,44.543600000000005,175,75
2026-05-09 16:00:16.101,2,-0.37,-1.65,-0.9,45.8356,44.5778,4.6636,175,75
2026-05-09 16:00:16.116,2,-0.29,-1.06,-0.91,71.01559999999999,120.49780000000001,-55.0364,175,75
2026-05-09 16:00:16.156,2,0.49,-1.62,0.1,76.9256,157.7478,108.6236,175,75
2026-05-09 16:00:16.156,2,-0.26,-1.56,0.09,65.1656,13.727800000000002,59.6636,175,75
2026-05-09 16:00:16.167,2,0.66,-0.02,0.02,-14.904400000000003,-24.6922,-38.996399999999994,175,75
2026-05-09 16:00:16.179,2,-0.24,0.5,0.04,10.775599999999999,75.3678,69.5436,175,75
2026-05-09 16:00:16.179,2,-0.08,0.1,0.24,30.345599999999997,131.83780000000002,8.4436,175,75
2026-05-09 16:00:16.179,2,0.01,-0.25,0.55,22.9056,140.8578,-15.8264,175,75
2026-05-09 16:00:16.188,2,-0.02,-0.17,0.65,12.9056,117.74780000000001,-30.276400000000002,175,75
2026-05-09 16:00:16.202,2,-0.14,0.19,0.63,11.135599999999998,65.5578,-54.2964,175,75
2026-05-09 16:00:16.212,2,-0.09,0.54,0.56,16.9256,11.467800000000004,-61.7964,175,75
2026-05-09 16:00:16.224,2,-0.13,0.94,0.42,26.0156,-36.52219999999999,-27.2864,175,75
2026-05-09 16:00:16.235,2,-0.36,1.14,0.34,28.025599999999997,-51.392199999999995,-3.0864,175,75
2026-05-09 16:00:16.235,2,-0.32,1.02,0.25,27.415599999999998,-51.4522,-3.7564,175,75
2026-05-09 16:00:16.246,2,-0.34,0.79,0.25,11.075599999999998,-27.1922,-8.0164,175,75
2026-05-09 16:00:16.257,2,-0.36,0.67,0.26,1.4455999999999989,11.837800000000001,-16.6764,175,75
2026-05-09 16:00:16.269,2,-0.28,0.68,0.26,18.5156,68.1178,-43.816399999999994,175,75
2026-05-09 16:00:16.282,2,-0.24,0.77,0.37,33.3356,61.287800000000004,-45.7664,175,75
2026-05-09 16:00:16.297,2,-0.31,0.69,0.41,19.005599999999998,42.1978,-40.096399999999996,175,75
2026-05-09 16:00:16.309,2,-0.31,0.52,0.41,3.575599999999998,17.077800000000003,-33.1464,175,75
2026-05-09 16:00:16.319,2,-0.13,-0.16,0.4,-18.6844,-78.8922,-10.7664,175,75
2026-05-09 16:00:16.332,2,-0.05,-0.68,0.35,-24.7144,-127.13219999999998,4.2336,175,75
2026-05-09 16:00:16.371,2,-0.14,-1.31,0.14,-36.794399999999996,-175.7222,33.6236,175,75
2026-05-09 16:00:16.410,2,-0.44,-1.69,-0.1,-39.2244,-196.45219999999998,77.4636,175,75
2026-05-09 16:00:16.422,2,-0.86,-1.99,-0.4,-32.154399999999995,-174.9322,101.00359999999999,175,75
2026-05-09 16:00:16.433,2,-1.34,-2.19,-0.73,-17.4644,-112.5522,86.4336,175,75
2026-05-09 16:00:16.433,2,-1.77,-2.29,-0.99,8.575599999999998,-10.112199999999994,30.7636,175,75
2026-05-09 16:00:16.454,2,-1.45,-2.17,-0.94,41.1356,87.3878,-44.7264,175,75
2026-05-09 16:00:16.454,2,-0.93,-2.08,-0.7,59.79559999999999,118.90780000000001,-64.4864,175,75
2026-05-09 16:00:16.494,2,-0.63,-1.97,-0.36,70.0956,130.6778,-23.1464,175,75
2026-05-09 16:00:16.519,2,-1.01,-1.54,-0.23,18.6356,95.0678,60.2136,175,75
2026-05-09 16:00:16.524,2,-0.81,-1.34,-0.16,5.285599999999999,80.24780000000001,4.1136,175,75
2026-05-09 16:00:16.568,2,-0.44,-0.69,-0.01,1.4455999999999989,45.4978,-59.236399999999996,175,75
2026-05-09 16:00:16.579,2,-0.28,-0.33,0.04,3.395599999999998,38.4178,-82.2264,175,75
2026-05-09 16:00:16.589,2,0.3,0.21,0.05,5.895599999999998,61.2278,-26.2564,175,75
2026-05-09 16:00:16.611,2,-0.24,0.81,0.12,34.7356,152.0778,8.4436,175,75
2026-05-09 16:00:16.611,2,-0.29,0.44,0.24,17.4756,158.7278,15.453599999999998,175,75
2026-05-09 16:00:16.621,2,-0.41,0.42,0.25,-6.054400000000001,106.77780000000001,7.0436000000000005,175,75
2026-05-09 16:00:16.633,2,-0.33,0.65,0.15,15.5856,67.1378,6.7336,175,75
2026-05-09 16:00:16.644,2,-0.28,0.56,0.15,9.6756,67.62780000000001,28.203599999999998,175,75
2026-05-09 16:00:16.644,2,-0.18,0.34,0.19,-6.424400000000002,71.8378,34.4836,175,75
2026-05-09 16:00:16.654,2,-0.13,0.12,0.24,-23.744400000000002,81.1078,23.2636,175,75
2026-05-09 16:00:16.665,2,-0.12,-0.01,0.3,-34.7144,98.5478,6.433599999999999,175,75
2026-05-09 16:00:16.678,2,-0.21,0.25,0.41,-27.884400000000003,91.1078,-13.566400000000002,175,75
2026-05-09 16:00:16.688,2,-0.19,0.37,0.43,-29.2244,73.2978,-16.1964,175,75
2026-05-09 16:00:16.700,2,-0.13,0.47,0.44,-39.534400000000005,35.9778,-3.3264,175,75
2026-05-09 16:00:16.700,2,-0.13,0.51,0.42,-47.5844,6.227800000000002,10.2136,175,75
2026-05-09 16:00:16.723,2,-0.17,0.42,0.35,-50.144400000000005,-18.222199999999994,22.7736,175,75
2026-05-09 16:00:16.756,2,-0.11,0.17,0.3,-49.904399999999995,-27.132199999999997,34.9636,175,75
2026-05-09 16:00:16.780,2,0.11,-0.35,0.34,-49.53439999999999,-41.33219999999999,48.9936,175,75
2026-05-09 16:00:16.793,2,0.16,-1.49,0.41,-42.70440000000001,-79.56219999999999,86.0636,175,75
2026-05-09 16:00:16.814,2,0.01,-1.94,0.29,-34.7144,-94.81219999999999,143.9936,175,75
2026-05-09 16:00:16.814,2,-0.46,-2.09,0.09,-10.7544,-108.59219999999999,200.9436,175,75
2026-05-09 16:00:16.814,2,-1.23,-1.87,-0.13,30.095599999999997,-90.4222,131.6736,175,75
2026-05-09 16:00:16.831,2,-1.47,-1.62,-0.13,51.375600000000006,-88.8922,13.0136,175,75
2026-05-09 16:00:16.842,2,-0.36,-1.39,0.24,43.0856,-201.3922,-107.16640000000001,175,75
2026-05-09 16:00:16.852,2,-0.25,-1.34,0.18,21.4456,-247.0022,-87.2864,175,75
2026-05-09 16:00:16.865,2,-0.22,-1.3,-0.02,-13.0744,-280.54220000000004,-44.6064,175,75
2026-05-09 16:00:16.865,2,-0.75,-1.04,-0.45,-46.2444,-200.3622,-8.1464,175,75
2026-05-09 16:00:16.910,2,-0.7,-0.37,-0.43,5.5855999999999995,113.3578,3.0136000000000003,175,75
2026-05-09 16:00:16.951,2,-0.68,-0.01,-0.14,23.455599999999997,191.3478,13.563599999999997,175,75
2026-05-09 16:00:16.961,2,-0.68,0.37,0.15,33.8156,263.9678,6.5536,175,75
2026-05-09 16:00:16.972,2,-0.61,0.7,0.32,41.6256,298.1178,-15.6464,175,75
2026-05-09 16:00:17.003,2,-0.33,1.02,0.49,7.845599999999999,183.54780000000002,27.5236,175,75
2026-05-09 16:00:17.007,2,-0.64,0.99,0.37,-15.144400000000001,32.1978,9.723600000000001,175,75
2026-05-09 16:00:17.015,2,-0.6,1.08,0.26,-1.1844000000000001,18.297800000000002,9.3536,175,75
2026-05-09 16:00:17.049,2,-0.53,1.05,0.17,7.535599999999999,-4.4422,26.063599999999997,175,75
2026-05-09 16:00:17.063,2,-0.41,0.8,0.11,-0.14440000000000097,-33.472199999999994,50.153600000000004,175,75
2026-05-09 16:00:17.104,2,-0.24,0.38,0.09,-23.194399999999998,-61.33219999999999,61.6736,175,75
2026-05-09 16:00:17.115,2,-0.3,-0.07,0.02,-45.5744,-50.972199999999994,44.293600000000005,175,75
2026-05-09 16:00:17.115,2,-0.5,-0.43,-0.12,-54.59439999999999,0.977800000000002,26.8536,175,75
2026-05-09 16:00:17.142,2,-0.27,-1.24,-0.16,-17.0344,78.96780000000001,49.0536,175,75
2026-05-09 16:00:17.142,2,-0.28,-1.39,-0.14,9.0656,58.5478,53.8136,175,75
2026-05-09 16:00:17.154,2,0.27,-0.93,-0.42,51.985600000000005,-9.2622,-62.4064,175,75
2026-05-09 16:00:17.165,2,0.4,-1.09,-0.4,36.6256,9.027800000000003,18.6236,175,75
2026-05-09 16:00:17.180,2,-0.21,-1.65,-0.54,44.7356,68.4178,56.793600000000005,175,75
2026-05-09 16:00:17.191,2,-0.43,-1.64,-0.48,57.965599999999995,75.5578,22.5936,175,75
2026-05-09 16:00:17.202,2,-0.49,-1.27,-0.28,68.0256,100.9178,-38.9364,175,75
2026-05-09 16:00:17.202,2,-0.22,-0.91,-0.07,70.3456,87.0778,-87.8364,175,75
2026-05-09 16:00:17.213,2,0.11,-0.64,0.08,61.01559999999999,55.9778,-85.27640000000001,175,75
2026-05-09 16:00:17.225,2,0.26,-0.41,0.07,47.6656,35.1278,-25.7664,175,75
2026-05-09 16:00:17.236,2,0.03,-0.31,0.02,38.3956,13.607800000000003,16.3736,175,75
2026-05-09 16:00:17.246,2,-0.24,-0.41,0.02,36.3756,15.737800000000004,-3.9964,175,75
2026-05-09 16:00:17.257,2,-0.25,-0.37,0.04,35.3456,29.827800000000003,-28.8764,175,75
2026-05-09 16:00:17.257,2,-0.22,-0.17,0.11,32.2956,42.4478,-37.0464,175,75
2026-05-09 16:00:17.280,2,-0.3,0.49,0.21,29.5556,80.7978,-50.3964,175,75
2026-05-09 16:00:17.291,2,-0.3,0.7,0.24,29.1856,91.1678,-55.0364,175,75
2026-05-09 16:00:17.299,2,-0.3,0.83,0.24,24.005599999999998,94.7578,-48.0164,175,75
2026-05-09 16:00:17.331,2,-0.32,0.94,0.33,19.1256,95.8578,-36.4364,175,75
2026-05-09 16:00:17.389,2,-0.27,0.9,0.38,11.135599999999998,83.1178,-28.0864,175,75
2026-05-09 16:00:17.400,2,-0.32,0.78,0.46,3.695599999999999,72.3278,-25.6464,175,75
2026-05-09 16:00:17.400,2,-0.31,0.72,0.5,3.8755999999999986,66.52780000000001,-28.3264,175,75
2026-05-09 16:00:17.459,2,-0.32,0.66,0.55,20.5856,21.287800000000004,-36.926399999999994,175,75
2026-05-09 16:00:17.494,2,-0.3,0.64,0.53,20.095599999999997,-5.782199999999996,-36.8664,175,75
2026-05-09 16:00:17.494,2,-0.3,0.62,0.48,15.645599999999998,-35.66219999999999,-35.5164,175,75
2026-05-09 16:00:17.542,2,-0.36,0.43,0.32,7.4155999999999995,-80.4822,-24.7264,175,75
2026-05-09 16:00:17.542,2,-0.32,0.21,0.29,5.345599999999999,-89.75219999999999,-15.5164,175,75
2026-05-09 16:00:17.571,2,-0.17,-0.28,0.29,1.3755999999999986,-99.44219999999999,-2.2864,175,75
2026-05-09 16:00:17.581,2,-0.3,-1.91,-0.03,-1.4844000000000008,-165.9722,84.5436,175,75
2026-05-09 16:00:17.591,2,-1.94,-1.78,-1.01,44.1256,-59.992200000000004,-82.9564,175,75
2026-05-09 16:00:17.602,2,-0.7,-1.75,-0.56,36.1956,76.5878,-3.4464,175,75
2026-05-09 16:00:17.615,2,-1.02,-1.56,-0.56,24.9756,151.0478,117.28359999999999,175,75
2026-05-09 16:00:17.626,2,-1.21,-1.37,-0.5,31.2556,176.83780000000002,112.83359999999999,175,75
2026-05-09 16:00:17.636,2,-1.23,-1.19,-0.33,39.9756,181.64780000000002,74.3536,175,75
2026-05-09 16:00:17.652,2,-0.81,-0.84,0.15,34.6756,127.93780000000001,-17.1664,175,75
2026-05-09 16:00:17.665,2,-0.59,-0.56,0.25,20.525599999999997,84.15780000000001,-50.3964,175,75
2026-05-09 16:00:17.675,2,-0.42,-0.14,0.23,1.4455999999999989,16.6578,-93.7564,175,75
2026-05-09 16:00:17.675,2,-0.03,0.25,0.14,-8.554400000000001,-18.712199999999996,-90.3364,175,75
2026-05-09 16:00:17.698,2,-0.74,1.3,-0.24,2.4155999999999995,18.477800000000002,80.7036,175,75
2026-05-09 16:00:17.698,2,-0.7,1.09,-0.17,26.2556,63.4178,62.3436,175,75
2026-05-09 16:00:17.715,2,-0.6,0.31,0.03,6.565599999999998,103.96780000000001,54.2336,175,75
2026-05-09 16:00:17.727,2,-0.63,-0.03,0.13,-23.0744,135.1278,68.7436,175,75
2026-05-09 16:00:17.740,2,-0.41,0.06,0.24,-31.5444,126.77780000000001,34.2336,175,75
2026-05-09 16:00:17.751,2,-0.2,0.17,0.28,-16.3644,98.2978,9.6036,175,75
2026-05-09 16:00:17.762,2,-0.01,0.27,0.34,-23.624399999999998,43.6678,42.403600000000004,175,75
2026-05-09 16:00:17.774,2,-0.17,0.14,0.39,-52.154399999999995,39.0878,32.4636,175,75
2026-05-09 16:00:17.785,2,-0.15,0.15,0.4,-47.3344,34.2778,25.9436,175,75
2026-05-09 16:00:17.826,2,-0.15,0.29,0.39,-28.804400000000005,7.687800000000003,24.8436,175,75
2026-05-09 16:00:17.879,2,-0.1,0.12,0.33,-28.984400000000004,-25.9122,38.8136,175,75
2026-05-09 16:00:17.941,2,-0.04,-0.28,0.31,-33.4944,-47.9822,55.823600000000006,175,75
2026-05-09 16:00:17.941,2,-0.03,-0.66,0.27,-34.7144,-63.16219999999999,65.8236,175,75
2026-05-09 16:00:17.941,2,-0.12,-1.01,0.18,-32.09440000000001,-74.81219999999999,77.9536,175,75
2026-05-09 16:00:17.951,2,-0.25,-1.46,-0.29,-38.4944,-78.16219999999998,93.50359999999999,175,75
2026-05-09 16:00:17.963,2,-1.34,-1.57,-0.79,10.165599999999998,57.1978,76.9836,175,75
2026-05-09 16:00:17.963,2,-1.54,-1.37,-0.87,44.1256,136.4078,38.3836,175,75
2026-05-09 16:00:17.990,2,-1.26,-1.06,-0.49,81.3756,222.1978,-5.7064,175,75
2026-05-09 16:00:18.021,2,-0.54,-0.87,0.37,77.2956,310.1278,20.453599999999998,175,75
2026-05-09 16:00:18.046,2,-0.13,-1.2,0.67,4.7955999999999985,129.0278,89.78359999999999,175,75
2026-05-09 16:00:18.057,2,-0.3,-1.14,0.74,-40.3844,-18.6522,107.22359999999999,175,75
2026-05-09 16:00:18.082,2,-0.57,-0.82,0.57,-64.1644,-122.98219999999998,62.9536,175,75
2026-05-09 16:00:18.137,2,0.04,0.92,-0.28,-0.08440000000000225,-58.83219999999999,9.413599999999999,175,75
2026-05-09 16:00:18.137,2,-1.05,1.61,-0.53,49.3656,98.7278,87.7736,175,75
2026-05-09 16:00:18.151,2,-0.5,1.21,-0.24,77.8456,222.86780000000002,33.7436,175,75
2026-05-09 16:00:18.159,2,-0.47,0.27,0.36,-5.994400000000002,366.1678,23.6236,175,75
2026-05-09 16:00:18.171,2,-0.48,0.32,0.43,-15.7544,355.4378,-8.1464,175,75
2026-05-09 16:00:18.185,2,-0.6,0.57,0.03,-5.444400000000002,-50.6022,74.78359999999999,175,75
2026-05-09 16:00:18.210,2,-0.22,-0.08,0.01,-36.48440000000001,-81.2122,119.11359999999999,175,75
2026-05-09 16:00:18.277,2,-0.56,-0.81,-0.08,-54.59439999999999,-33.472199999999994,81.9836,175,75
2026-05-09 16:00:18.292,2,-0.66,-1.23,-0.28,-43.1344,66.40780000000001,65.5736,175,75
2026-05-09 16:00:18.317,2,-0.34,-1.56,-0.26,11.375599999999999,110.18780000000001,76.7936,175,75
2026-05-09 16:00:18.317,2,-0.56,-1.13,0.04,29.735599999999998,107.2578,57.4636,175,75
2026-05-09 16:00:18.328,2,-0.39,-1.15,-0.12,40.0356,96.1078,23.4436,175,75
2026-05-09 16:00:18.328,2,-0.28,-0.88,-0.08,39.7356,47.9378,-20.5164,175,75
2026-05-09 16:00:18.352,2,0.26,-1.35,-0.29,9.2456,-48.472199999999994,82.6536,175,75
2026-05-09 16:00:18.410,2,-0.67,-1.68,-0.83,47.1156,66.8378,28.9936,175,75
2026-05-09 16:00:18.448,2,-0.07,-0.75,-0.08,60.7756,186.1078,-77.4764,175,75
2026-05-09 16:00:18.459,2,0.24,-0.35,0.16,51.5656,211.2878,-9.6664,175,75
2026-05-09 16:00:18.459,2,0.2,-0.12,0.22,46.1956,191.1678,31.9836,175,75
2026-05-09 16:00:18.486,2,0.14,-0.14,0.32,44.6756,103.3578,23.7436,175,75
2026-05-09 16:00:18.486,2,0.05,-0.18,0.43,28.0856,-9.022199999999998,-3.6264000000000003,175,75
2026-05-09 16:00:18.498,2,-0.14,0.54,0.25,14.795599999999999,12.627800000000002,-30.706400000000002,175,75
2026-05-09 16:00:18.555,2,-0.12,0.7,0.4,18.395599999999998,83.3578,-31.6764,175,75
2026-05-09 16:00:18.646,2,-0.15,0.56,0.45,12.785599999999999,-14.322199999999995,-43.3264,175,75
2026-05-09 16:00:18.679,2,-0.63,-1.74,-0.24,-21.124399999999998,-210.7222,67.5936,175,75
2026-05-09 16:00:18.690,2,-1.73,-1.79,-1.05,47.1756,74.6978,-68.8164,175,75
2026-05-09 16:00:18.734,2,-0.76,-1.63,-0.34,70.4656,114.15780000000001,-63.9364,175,75
2026-05-09 16:00:18.753,2,-0.67,-1.66,-0.28,57.355599999999995,105.24780000000001,-7.1664,175,75
2026-05-09 16:00:18.753,2,-0.78,-1.66,-0.27,34.0056,90.6178,52.223600000000005,175,75
2026-05-09 16:00:18.763,2,-0.99,-1.58,-0.29,15.525599999999999,100.36780000000002,72.6536,175,75
2026-05-09 16:00:18.776,2,-0.96,-1.29,-0.15,15.705599999999999,127.5678,8.203600000000002,175,75
2026-05-09 16:00:18.776,2,-0.76,-1.06,0.02,21.135599999999997,112.93780000000001,-25.706400000000002,175,75
2026-05-09 16:00:18.790,2,-0.46,-0.27,0.27,20.645599999999998,75.6178,-97.5364,175,75
2026-05-09 16:00:18.822,2,-0.08,0.21,0.33,15.955599999999999,57.3278,-123.3264,175,75
2026-05-09 16:00:18.847,2,-0.41,1.1,0.2,27.9056,122.5678,30.3336,175,75
2026-05-09 16:00:18.858,2,-0.46,0.56,0.45,24.485599999999998,103.17779999999999,14.843599999999999,175,75
2026-05-09 16:00:18.859,2,-0.54,0.23,0.53,6.865599999999999,88.0578,26.793599999999998,175,75
2026-05-09 16:00:18.882,2,-0.34,0.56,0.37,7.2955999999999985,-102.5522,15.633599999999998,175,75
2026-05-09 16:00:19.008,2,-0.63,0.0,-0.08,-28.804400000000005,-81.6422,36.613600000000005,175,75
2026-05-09 16:00:19.020,2,-0.45,0.48,0.06,2.4755999999999982,112.3878,24.9636,175,75
2026-05-09 16:00:19.042,2,-0.37,0.44,0.19,2.115599999999999,119.27780000000001,26.793599999999998,175,75
2026-05-09 16:00:19.053,2,0.24,-0.4,0.37,-28.0744,-44.9322,69.2336,175,75
2026-05-09 16:00:19.065,2,0.32,-0.97,0.36,-41.8544,-169.26219999999998,89.78359999999999,175,75
2026-05-09 16:00:19.065,2,0.07,-1.44,0.17,-47.404399999999995,-245.5422,116.1236,175,75
2026-05-09 16:00:19.065,2,-1.39,-1.69,-0.97,-8.0744,-83.47219999999999,34.4836,175,75
2026-05-09 16:00:19.078,2,-1.1,-1.49,-1.04,22.2956,-20.972199999999994,-43.386399999999995,175,75
2026-05-09 16:00:19.089,2,0.06,-1.22,-0.22,42.2956,23.177800000000005,-72.5964,175,75
2026-05-09 16:00:19.110,2,-0.24,-1.35,-0.34,-1.7943999999999996,26.957800000000002,45.2136,175,75
2026-05-09 16:00:19.121,2,-0.68,-1.39,-0.44,-29.164400000000004,70.9778,86.2436,175,75
2026-05-09 16:00:19.121,2,-1.21,-1.12,-0.45,-19.9044,181.1078,55.2136,175,75
2026-05-09 16:00:19.156,2,-1.16,-0.41,0.05,48.6356,258.6678,-76.19640000000001,175,75
2026-05-09 16:00:19.156,2,-1.1,-0.08,0.26,66.3156,272.2578,-118.7564,175,75
2026-05-09 16:00:19.183,2,-0.26,1.42,0.5,3.0855999999999995,220.2478,-56.7964,175,75
2026-05-09 16:00:19.230,2,-0.95,0.48,0.36,-77.2144,64.8278,146.0636,175,75
2026-05-09 16:00:19.252,2,-0.53,0.56,-0.03,-2.644400000000001,10.437800000000003,10.453600000000002,175,75
2026-05-09 16:00:19.278,2,-0.71,0.42,-0.05,-8.8644,42.567800000000005,85.0936,175,75
2026-05-09 16:00:19.307,2,-0.02,-1.44,-0.15,-41.6644,135.30780000000001,99.05359999999999,175,75
2026-05-09 16:00:19.316,2,-0.34,-1.47,-0.24,4.125599999999999,114.15780000000001,85.4536,175,75
2026-05-09 16:00:19.330,2,-0.38,-1.09,-0.27,35.955600000000004,105.24780000000001,-1.1964,175,75
2026-05-09 16:00:19.373,2,0.43,-0.66,0.08,38.7556,63.787800000000004,-76.7364,175,75
2026-05-09 16:00:19.373,2,0.67,-0.61,0.07,22.595599999999997,50.6178,1.9135999999999997,175,75
2026-05-09 16:00:19.385,2,0.52,-0.77,0.0,12.235599999999998,14.457800000000002,85.33359999999999,175,75
2026-05-09 16:00:19.385,2,0.45,-1.11,-0.06,9.125599999999999,-48.892199999999995,120.5136,175,75
2026-05-09 16:00:19.411,2,-0.11,-1.46,-0.24,11.625599999999999,-93.7722,110.6336,175,75
2026-05-09 16:00:19.412,2,-0.57,-1.35,-0.61,28.815599999999996,-27.002199999999995,-28.4464,175,75
2026-05-09 16:00:19.426,2,-0.35,-1.04,-0.45,34.7956,-10.782199999999996,-93.7564,175,75
2026-05-09 16:00:19.453,2,0.23,-0.36,-0.2,33.6356,31.527800000000003,-40.886399999999995,175,75
2026-05-09 16:00:19.461,2,0.05,-0.02,-0.2,35.6456,55.6178,28.203599999999998,175,75
2026-05-09 16:00:19.484,2,-0.06,-0.11,-0.11,39.4256,64.3978,12.7136,175,75
2026-05-09 16:00:19.515,2,-0.27,-0.08,0.15,17.1156,74.15780000000001,-16.6164,175,75
2026-05-09 16:00:19.530,2,-0.35,0.15,0.18,18.205599999999997,79.5778,-31.0064,175,75
2026-05-09 16:00:19.552,2,-0.27,0.63,0.26,22.1156,76.71780000000001,-35.7664,175,75
2026-05-09 16:00:19.577,2,-0.22,0.86,0.33,13.695599999999999,51.5878,-18.6264,175,75
2026-05-09 16:00:19.593,2,-0.25,0.88,0.41,9.4256,43.6678,-18.2664,175,75
2026-05-09 16:00:19.607,2,-0.23,0.87,0.44,11.195599999999999,40.067800000000005,-20.2164,175,75
2026-05-09 16:00:19.619,2,-0.2,0.85,0.48,13.815599999999998,32.8078,-25.3964,175,75
2026-05-09 16:00:19.632,2,-0.17,0.83,0.5,15.955599999999999,14.457800000000002,-29.4264,175,75
2026-05-09 16:00:19.632,2,-0.16,0.79,0.5,14.125599999999999,-10.362199999999994,-28.936400000000003,175,75
2026-05-09 16:00:19.651,2,-0.19,0.47,0.42,-3.014400000000002,-79.2022,-21.9264,175,75
2026-05-09 16:00:19.681,2,-0.16,0.13,0.34,-17.274400000000004,-121.2122,-17.3464,175,75
2026-05-09 16:00:19.684,2,-0.14,-0.2,0.25,-22.4644,-150.85219999999998,-12.656400000000001,175,75
2026-05-09 16:00:19.696,2,-0.28,-0.67,0.14,-21.604400000000002,-171.6422,-1.7364,175,75
2026-05-09 16:00:19.706,2,-0.43,-1.02,-0.03,-21.1844,-176.1522,13.563599999999997,175,75
2026-05-09 16:00:19.706,2,-0.65,-1.37,-0.2,-16.7244,-158.8922,38.2036,175,75
2026-05-09 16:00:19.718,2,-1.0,-1.61,-0.47,-5.2044,-117.4322,59.6036,175,75
2026-05-09 16:00:19.732,2,-1.44,-1.8,-0.8,19.005599999999998,-32.0622,61.2436,175,75
2026-05-09 16:00:19.753,2,-1.61,-1.87,-0.91,45.0956,54.7578,28.9336,175,75
2026-05-09 16:00:19.776,2,-1.11,-1.84,-0.54,71.3156,123.90780000000001,-22.046400000000002,175,75
2026-05-09 16:00:19.790,2,-0.78,-1.91,-0.19,56.9256,108.96780000000001,30.823600000000003,175,75
2026-05-09 16:00:19.800,2,-0.92,-1.89,-0.18,37.4156,79.9478,63.13360000000001,175,75
2026-05-09 16:00:19.811,2,-1.17,-1.71,-0.23,19.735599999999998,56.717800000000004,47.833600000000004,175,75
2026-05-09 16:00:19.829,2,-0.88,-1.22,-0.13,24.5556,12.627800000000002,-50.5164,175,75
2026-05-09 16:00:19.840,2,-0.62,-0.83,-0.05,29.1856,-11.032199999999996,-82.6564,175,75
2026-05-09 16:00:19.848,2,-0.45,-0.49,-0.03,30.2856,-27.8022,-104.2964,175,75
2026-05-09 16:00:19.862,2,-0.11,-0.18,-0.06,29.6756,-41.7622,-105.3364,175,75
2026-05-09 16:00:19.876,2,0.11,0.47,-0.18,35.465599999999995,-4.0822,31.003600000000002,175,75
2026-05-09 16:00:19.887,2,-0.53,1.02,-0.3,49.735600000000005,41.2278,79.1736,175,75
2026-05-09 16:00:19.898,2,-0.4,0.68,-0.14,53.575599999999994,70.0678,39.4136,175,75
2026-05-09 16:00:19.916,2,-0.39,0.02,0.1,-1.1844000000000001,139.5178,34.1736,175,75
2026-05-09 16:00:19.926,2,-0.47,0.19,0.17,-8.314400000000003,146.6578,20.1536,175,75
2026-05-09 16:00:19.936,2,-0.48,0.41,0.2,0.09559999999999924,143.9078,-2.0464,175,75
2026-05-09 16:00:19.948,2,-0.31,0.62,0.25,13.455599999999999,133.4178,-12.1064,175,75
2026-05-09 16:00:19.994,2,0.06,0.14,0.42,-18.6844,-33.532199999999996,39.293600000000005,175,75
2026-05-09 16:00:20.007,2,-0.03,0.04,0.31,-29.104400000000002,-70.66219999999998,26.2436,175,75
2026-05-09 16:00:20.017,2,-0.13,0.11,0.19,-26.424400000000002,-77.8022,12.223600000000001,175,75
2026-05-09 16:00:20.030,2,-0.25,0.27,0.07,-15.3244,-55.91219999999999,0.39360000000000017,175,75
2026-05-09 16:00:20.047,2,-0.32,0.4,0.0,-6.244400000000002,-16.3322,-2.7164,175,75
2026-05-09 16:00:20.062,2,-0.26,0.2,0.04,-2.644400000000001,37.0778,9.413599999999999,175,75
2026-05-09 16:00:20.115,2,-0.31,-1.59,-0.1,-9.714400000000001,-137.98219999999998,86.8536,175,75
2026-05-09 16:00:20.115,2,-0.7,-1.73,-0.4,-6.304400000000001,-148.16219999999998,111.00359999999999,175,75
2026-05-09 16:00:20.135,2,-1.75,-1.6,-0.97,20.895599999999998,23.177800000000005,5.2136000000000005,175,75
2026-05-09 16:00:20.157,2,-1.33,-1.37,-0.7,35.3456,88.5478,-79.7264,175,75
2026-05-09 16:00:20.169,2,-0.93,-1.16,-0.24,42.1156,117.99780000000001,-89.66640000000001,175,75
2026-05-09 16:00:20.180,2,-0.66,-1.11,-0.01,37.965599999999995,133.6678,-59.0564,175,75
2026-05-09 16:00:20.184,2,-0.49,-1.19,0.03,17.2956,99.5778,3.8036000000000003,175,75
2026-05-09 16:00:20.196,2,-0.59,-1.21,0.06,-9.4144,47.8678,60.7036,175,75
2026-05-09 16:00:20.206,2,-0.83,-1.06,0.03,-33.7444,30.737800000000004,80.7636,175,75
2026-05-09 16:00:20.218,2,-1.14,-0.85,-0.05,-36.9144,59.8878,37.2836,175,75
2026-05-09 16:00:20.228,2,-1.14,-0.64,-0.03,-26.604400000000002,97.1978,-28.6264,175,75
2026-05-09 16:00:20.269,2,-0.88,0.29,0.21,-0.5744000000000007,175.0078,-125.21640000000001,175,75
2026-05-09 16:00:20.281,2,-0.56,1.81,0.16,-3.4344,314.21779999999995,3.8036000000000003,175,75
2026-05-09 16:00:20.314,2,-0.29,-0.06,0.9,-67.8844,56.897800000000004,55.0236,175,75
2026-05-09 16:00:20.338,2,-0.69,0.18,0.77,-27.7644,6.347800000000003,5.5736,175,75
2026-05-09 16:00:20.349,2,-0.53,0.48,0.29,9.735599999999998,-100.4222,-40.0364,175,75
2026-05-09 16:00:20.361,2,-0.44,1.03,0.08,31.565599999999996,-149.44219999999999,-7.7164,175,75
2026-05-09 16:00:20.409,2,-0.03,-0.52,-0.1,-15.264400000000002,-83.7722,127.71359999999999,175,75
2026-05-09 16:00:20.413,2,-0.32,-1.38,-0.4,-38.924400000000006,25.4978,72.1636,175,75
2026-05-09 16:00:20.426,2,-0.25,-1.61,-0.49,-25.3244,13.847800000000003,71.9136,175,75
2026-05-09 16:00:20.438,2,-0.4,-1.66,-0.56,2.8455999999999992,19.637800000000002,69.4836,175,75
2026-05-09 16:00:20.449,2,-0.58,-1.33,-0.6,31.315599999999996,59.5178,26.1836,175,75
2026-05-09 16:00:20.459,2,-0.35,-0.84,-0.42,43.1456,66.0478,-40.456399999999995,175,75
2026-05-09 16:00:20.482,2,0.29,-0.48,-0.12,25.0356,61.3478,12.523599999999998,175,75
2026-05-09 16:00:20.507,2,0.22,-1.42,-0.15,17.2956,-43.222199999999994,110.1536,175,75
2026-05-09 16:00:20.516,2,-0.04,-1.72,-0.29,22.7256,-66.2722,103.6836,175,75
2026-05-09 16:00:20.542,2,-0.46,-1.25,-0.56,45.705600000000004,1.5278000000000027,-82.10640000000001,175,75
2026-05-09 16:00:20.557,2,-0.27,-0.89,-0.42,50.7756,9.697800000000004,-117.8364,175,75
2026-05-09 16:00:20.568,2,0.13,-0.49,-0.27,51.745599999999996,29.1578,-91.9264,175,75
2026-05-09 16:00:20.578,2,0.14,-0.08,-0.25,50.345600000000005,62.137800000000006,-5.8264,175,75
2026-05-09 16:00:20.595,2,-0.11,0.19,-0.25,52.1756,84.3378,39.1736,175,75
2026-05-09 16:00:20.608,2,-0.18,-0.02,-0.13,49.735600000000005,81.9578,7.8336,175,75
2026-05-09 16:00:20.608,2,-0.17,-0.17,0.0,35.8356,84.6378,-6.5564,175,75
2026-05-09 16:00:20.632,2,-0.22,-0.05,0.16,7.6655999999999995,103.7278,-23.5064,175,75
2026-05-09 16:00:20.665,2,-0.26,0.49,0.2,12.5956,95.0678,-53.3264,175,75
2026-05-09 16:00:20.674,2,-0.34,0.81,0.21,19.2456,96.2878,-47.6564,175,75
2026-05-09 16:00:20.686,2,-0.44,1.04,0.2,22.9656,104.8878,-37.5364,175,75
2026-05-09 16:00:20.699,2,-0.41,1.14,0.24,29.1256,117.3278,-29.4264,175,75
2026-05-09 16:00:20.699,2,-0.35,1.04,0.32,25.4056,120.9778,-18.8764,175,75
2026-05-09 16:00:20.734,2,-0.29,0.66,0.49,2.115599999999999,97.0778,-15.706399999999999,175,75
2026-05-09 16:00:20.734,2,-0.28,0.61,0.52,-2.0344000000000015,72.0178,-25.1564,175,75
2026-05-09 16:00:20.758,2,-0.25,0.64,0.51,-0.14440000000000097,38.967800000000004,-31.796400000000002,175,75
2026-05-09 16:00:20.769,2,-0.21,0.73,0.45,0.28559999999999874,-37.3722,-27.776400000000002,175,75
2026-05-09 16:00:20.769,2,-0.28,0.66,0.38,-6.854400000000002,-56.8222,-24.116400000000002,175,75
2026-05-09 16:00:20.800,2,-0.28,-0.04,0.19,-6.124400000000001,-95.91219999999998,-7.5964,175,75
2026-05-09 16:00:20.821,2,-0.2,-0.52,0.12,-0.8744000000000014,-123.7722,2.5936000000000003,175,75
2026-05-09 16:00:20.825,2,-0.28,-0.99,0.02,2.905599999999998,-145.91219999999998,17.8936,175,75
2026-05-09 16:00:20.851,2,-0.84,-1.68,-0.39,10.165599999999998,-110.78219999999999,62.16360000000001,175,75
2026-05-09 16:00:20.855,2,-1.34,-1.78,-0.73,29.1256,-24.322199999999995,61.3736,175,75
2026-05-09 16:00:20.867,2,-1.52,-1.73,-0.86,51.685599999999994,41.287800000000004,28.383599999999998,175,75
2026-05-09 16:00:20.888,2,-0.98,-1.71,-0.42,78.3356,83.1778,-28.6264,175,75
2026-05-09 16:00:20.899,2,-0.75,-1.87,-0.21,62.845600000000005,82.5078,13.7436,175,75
2026-05-09 16:00:20.910,2,-0.83,-1.96,-0.2,35.5256,72.2578,70.6336,175,75
2026-05-09 16:00:20.927,2,-1.06,-1.93,-0.25,22.415599999999998,75.12780000000001,79.8436,175,75
2026-05-09 16:00:20.939,2,-1.17,-1.79,-0.28,23.8156,79.6378,50.513600000000004,175,75
2026-05-09 16:00:20.953,2,-1.07,-1.46,-0.19,37.1156,65.9778,-16.5564,175,75
2026-05-09 16:00:20.953,2,-0.87,-1.17,-0.07,44.0656,48.9078,-53.386399999999995,175,75
2026-05-09 16:00:20.974,2,-0.7,-0.83,0.01,42.965599999999995,36.107800000000005,-73.7564,175,75
2026-05-09 16:00:20.986,2,-0.33,-0.22,0.07,30.645599999999998,21.4078,-96.3764,175,75
2026-05-09 16:00:21.021,2,-0.1,0.72,0.04,38.6956,65.43780000000001,73.6836,175,75
2026-05-09 16:00:21.031,2,-0.14,0.3,0.14,30.095599999999997,45.6178,38.8136,175,75
2026-05-09 16:00:21.043,2,-0.03,0.18,0.17,6.565599999999998,33.2378,37.653600000000004,175,75
2026-05-09 16:00:21.058,2,-0.2,0.46,0.06,-7.584400000000002,11.287800000000004,24.2336,175,75
2026-05-09 16:00:21.068,2,-0.28,0.76,-0.04,1.9255999999999993,18.9078,12.773599999999998,175,75
2026-05-09 16:00:21.093,2,-0.33,0.94,-0.06,13.5156,53.967800000000004,21.0036,175,75
2026-05-09 16:00:21.106,2,-0.18,0.73,0.16,8.755599999999998,119.33780000000002,23.203599999999998,175,75
2026-05-09 16:00:21.127,2,-0.06,0.48,0.3,-3.4344,125.9778,19.9036,175,75
2026-05-09 16:00:21.137,2,0.07,0.22,0.41,-16.424400000000002,95.36780000000002,10.633600000000001,175,75
2026-05-09 16:00:21.148,2,0.08,0.09,0.45,-23.314400000000003,26.107800000000005,3.5035999999999996,175,75
2026-05-09 16:00:21.151,2,-0.03,0.11,0.38,-26.664400000000004,-47.3122,0.7635999999999998,175,75
2026-05-09 16:00:21.167,2,-0.22,0.22,0.25,-28.314400000000003,-89.56219999999999,-0.39639999999999986,175,75
2026-05-09 16:00:21.180,2,-0.35,0.25,0.12,-26.244400000000002,-96.3322,4.9036,175,75
2026-05-09 16:00:21.195,2,-0.38,0.03,0.03,-19.774400000000004,-88.7122,21.1236,175,75
2026-05-09 16:00:21.253,2,-0.22,-1.36,-0.01,-8.924400000000002,-82.13219999999998,52.833600000000004,175,75
2026-05-09 16:00:21.253,2,-0.43,-1.64,-0.19,-15.634400000000003,-81.7022,79.78359999999999,175,75
2026-05-09 16:00:21.253,2,-1.01,-1.74,-0.48,-7.334400000000002,-41.0922,94.6636,175,75
2026-05-09 16:00:21.265,2,-1.55,-1.57,-0.71,10.525599999999999,30.677800000000005,54.293600000000005,175,75
2026-05-09 16:00:21.286,2,-0.82,-1.13,0.04,66.8056,156.4678,-72.8964,175,75
2026-05-09 16:00:21.338,2,-0.42,-1.36,0.24,-11.974400000000003,4.577800000000003,77.4036,175,75
2026-05-09 16:00:21.338,2,-0.72,-1.12,0.1,-26.914400000000004,-14.142199999999995,59.6636,175,75
2026-05-09 16:00:21.349,2,-1.11,-0.76,-0.1,-25.994400000000002,12.997800000000003,-27.046400000000002,175,75
2026-05-09 16:00:21.365,2,-0.98,-0.36,-0.12,-9.654400000000003,59.0278,-108.99640000000001,175,75
2026-05-09 16:00:21.376,2,-0.27,0.72,0.05,18.6356,166.1078,-82.8964,175,75
2026-05-09 16:00:21.429,2,0.29,0.42,0.81,-66.6044,221.7178,80.4536,175,75
2026-05-09 16:00:21.477,2,-0.44,0.75,0.02,-4.104400000000002,-200.2422,-1.1964,175,75
2026-05-09 16:00:21.494,2,-0.66,0.84,-0.09,6.985599999999998,-202.8622,27.8936,175,75
2026-05-09 16:00:21.518,2,-0.47,0.07,-0.32,-9.964400000000001,-74.9922,61.7336,175,75
2026-05-09 16:00:21.531,2,0.02,-0.95,-0.26,-15.084400000000002,122.5078,34.0536,175,75
2026-05-09 16:00:21.587,2,-0.96,-0.8,-0.53,26.075599999999998,-40.6022,-125.7064,175,75
2026-05-09 16:00:21.600,2,0.51,-0.62,-0.09,9.4256,-16.642199999999995,-126.9264,175,75
2026-05-09 16:00:21.614,2,0.17,-0.55,-0.15,14.2456,19.5178,51.7336,175,75
2026-05-09 16:00:21.624,2,0.4,-1.01,-0.15,28.395599999999998,-31.272199999999998,126.37359999999998,175,75
2026-05-09 16:00:21.636,2,-0.06,-1.38,-0.16,37.7256,-82.31219999999999,113.6236,175,75
2026-05-09 16:00:21.646,2,-0.54,-1.54,-0.31,40.2856,-68.34219999999999,73.44359999999999,175,75
2026-05-09 16:00:21.667,2,-0.74,-1.2,-0.41,34.4256,-46.8222,-68.9364,175,75
2026-05-09 16:00:21.679,2,-0.54,-0.92,-0.28,33.6956,-40.782199999999996,-117.9564,175,75
2026-05-09 16:00:21.686,2,-0.3,-0.63,-0.13,34.6156,-32.3722,-135.3364,175,75
2026-05-09 16:00:21.704,2,0.04,-0.28,-0.04,36.5056,6.587800000000001,-66.9864,175,75
2026-05-09 16:00:21.753,2,-0.28,-0.02,0.28,16.1356,-4.752199999999995,-38.6264,175,75
2026-05-09 16:00:21.781,2,-0.48,0.77,0.04,9.2456,-59.2622,-26.616400000000002,175,75
2026-05-09 16:00:21.793,2,-0.55,0.96,-0.04,16.685599999999997,-37.252199999999995,-25.0964,175,75
2026-05-09 16:00:21.804,2,-0.57,1.08,-0.02,25.4056,19.827800000000003,-19.366400000000002,175,75
2026-05-09 16:00:21.811,2,-0.51,1.02,0.1,20.2856,57.3878,-17.4764,175,75
2026-05-09 16:00:21.826,2,-0.47,0.83,0.25,5.1655999999999995,95.0678,-21.3764,175,75
2026-05-09 16:00:21.841,2,-0.41,0.73,0.35,-5.324400000000001,105.36780000000002,-30.6464,175,75
2026-05-09 16:00:21.852,2,-0.34,0.7,0.41,-8.494400000000002,88.1178,-38.566399999999994,175,75
2026-05-09 16:00:21.867,2,-0.25,0.74,0.47,-6.7943999999999996,26.897800000000004,-37.8364,175,75
2026-05-09 16:00:21.877,2,-0.27,0.72,0.48,-6.854400000000002,-38.83219999999999,-28.6264,175,75
2026-05-09 16:00:21.886,2,-0.35,0.58,0.42,-16.7244,-103.8322,-19.546400000000002,175,75
2026-05-09 16:00:21.899,2,-0.4,0.39,0.28,-26.9744,-140.54219999999998,-11.796399999999998,175,75
2026-05-09 16:00:21.909,2,-0.44,0.08,0.18,-29.6544,-160.7822,1.3136,175,75
2026-05-09 16:00:21.932,2,-0.35,-0.8,0.1,-26.424400000000002,-162.3122,23.5036,175,75
2026-05-09 16:00:21.946,2,-0.33,-1.4,0.05,-22.524400000000004,-149.63219999999998,48.073600000000006,175,75
2026-05-09 16:00:21.979,2,-0.91,-2.07,-0.44,-8.134400000000003,-73.8322,118.7436,175,75
2026-05-09 16:00:21.979,2,-1.41,-2.08,-0.68,19.485599999999998,-13.772199999999998,100.1536,175,75
2026-05-09 16:00:21.998,2,-1.44,-1.7,-0.41,88.2756,92.1378,-57.2264,175,75
2026-05-09 16:00:22.014,2,-0.86,-1.76,-0.0,96.2556,84.8278,-54.486399999999996,175,75
2026-05-09 16:00:22.021,2,-0.55,-1.9,0.13,83.6356,63.4178,-18.0864,175,75
2026-05-09 16:00:22.050,2,-1.05,-1.49,-0.05,16.3156,-2.192199999999996,-10.6464,175,75
2026-05-09 16:00:22.086,2,-0.89,-0.58,0.0,43.2756,-14.0822,-133.9964,175,75
2026-05-09 16:00:22.127,2,-0.73,1.15,-0.1,62.235600000000005,51.287800000000004,65.2136,175,75
2026-05-09 16:00:22.140,2,0.0,0.46,0.32,28.7556,35.497800000000005,43.323600000000006,175,75
2026-05-09 16:00:22.156,2,-0.73,0.44,0.29,12.5956,56.4078,18.203599999999998,175,75
2026-05-09 16:00:22.169,2,-0.35,0.68,0.25,13.395599999999998,49.1578,-0.03639999999999999,175,75
2026-05-09 16:00:22.180,2,-0.42,0.91,0.25,28.205599999999997,19.397800000000004,13.933599999999998,175,75
2026-05-09 16:00:22.200,2,-0.29,0.71,0.29,28.575599999999998,-36.4522,48.683600000000006,175,75
2026-05-09 16:00:22.208,2,-0.19,0.36,0.35,11.625599999999999,-88.59219999999999,54.4836,175,75
2026-05-09 16:00:22.220,2,-0.15,0.05,0.33,-10.144400000000001,-138.4722,46.2436,175,75
2026-05-09 16:00:22.266,2,-0.62,0.15,-0.12,27.235599999999998,-40.8422,8.503599999999999,175,75
2026-05-09 16:00:22.306,2,-0.33,-1.11,0.2,14.855599999999999,-20.4822,52.4636,175,75
2026-05-09 16:00:22.329,2,-0.29,-1.32,-0.15,9.615599999999999,-34.0822,72.1036,175,75
2026-05-09 16:00:22.329,2,-0.76,-1.38,0.12,22.2956,-16.702199999999998,93.8736,175,75
2026-05-09 16:00:22.341,2,-1.09,-1.31,0.03,38.5156,-5.362199999999994,82.6536,175,75
2026-05-09 16:00:22.364,2,-1.44,-1.19,0.09,80.1656,27.9978,-18.8164,175,75
2026-05-09 16:00:22.375,2,-1.17,-1.24,0.32,93.8756,45.5578,-54.9764,175,75
2026-05-09 16:00:22.386,2,-0.87,-1.26,0.44,95.1656,38.967800000000004,-45.6464,175,75
2026-05-09 16:00:22.435,2,-0.93,-1.33,0.24,49.0056,-94.0222,42.9536,175,75
2026-05-09 16:00:22.446,2,-1.18,-1.16,0.02,35.6456,-85.3622,-2.8364,175,75
2026-05-09 16:00:22.446,2,-1.26,-1.01,-0.11,26.565599999999996,-35.972199999999994,-52.166399999999996,175,75
2026-05-09 16:00:22.457,2,-1.04,-0.77,-0.15,22.0556,32.1978,-86.7964,175,75
2026-05-09 16:00:22.471,2,-0.75,-0.44,-0.12,26.5056,87.2578,-99.7864,175,75
2026-05-09 16:00:22.471,2,-0.45,-0.15,-0.2,32.6656,103.8478,-93.99640000000001,175,75
2026-05-09 16:00:22.490,2,0.07,0.35,-0.49,34.4256,92.62780000000001,-17.2264,175,75
2026-05-09 16:00:22.512,2,0.07,1.06,-0.95,34.9156,54.397800000000004,57.1636,175,75
2026-05-09 16:00:22.512,2,-0.15,1.33,-1.42,17.2956,72.4478,-11.7364,175,75
2026-05-09 16:00:22.520,2,-0.26,1.33,-1.94,-19.7144,170.1878,-50.0364,175,75
2026-05-09 16:00:22.536,2,-0.49,0.88,-2.18,-85.2644,392.01779999999997,-34.846399999999996,175,75
2026-05-09 16:00:22.546,2,0.09,0.1,-2.04,-96.0544,589.8878000000001,-59.426399999999994,175,75
2026-05-09 16:00:22.558,2,0.94,-0.57,-1.56,-78.8644,629.0878,-118.9364,175,75
2026-05-09 16:00:22.582,2,1.6,-1.36,-0.87,-90.6344,494.9478,-261.2564,175,75
2026-05-09 16:00:22.591,2,1.6,-1.36,-0.84,-91.6644,413.9078,-330.8264,175,75
2026-05-09 16:00:22.632,2,1.89,-1.37,-0.89,-15.444400000000002,373.6678,-392.89639999999997,175,75
2026-05-09 16:00:22.690,2,0.17,-3.2,0.27,178.0856,334.27779999999996,-323.6264,175,75
2026-05-09 16:00:22.710,2,-0.16,-2.53,0.78,203.63559999999998,182.1978,-512.8364,175,75
2026-05-09 16:00:22.710,2,-0.14,-2.02,1.24,183.20559999999998,52.5078,-586.1264,175,75
2026-05-09 16:00:22.734,2,-0.27,-1.54,1.44,137.2356,-13.222199999999994,-596.6764,175,75
2026-05-09 16:00:22.745,2,-0.08,-0.58,1.15,-70.0244,-23.222199999999994,-464.3664,175,75
2026-05-09 16:00:22.769,2,-0.21,-0.38,1.13,-84.4744,-22.002199999999995,-254.1164,175,75
2026-05-09 16:00:22.785,2,-0.48,-0.52,1.32,-62.3344,-174.5622,-165.5164,175,75
2026-05-09 16:00:22.796,2,-0.84,-0.36,1.17,-64.2944,-180.60219999999998,-180.09640000000002,175,75
2026-05-09 16:00:22.808,2,-1.05,-0.08,0.88,-67.5844,-178.10219999999998,-224.84640000000002,175,75
2026-05-09 16:00:22.837,2,-0.97,0.33,0.52,-68.6244,-140.48219999999998,-267.59639999999996,175,75
2026-05-09 16:00:22.860,2,-1.06,0.81,0.39,-48.5544,-53.282199999999996,-123.69640000000001,175,75
2026-05-09 16:00:22.860,2,-1.14,0.64,0.45,-43.98440000000001,-2.1321999999999974,-90.4564,175,75
2026-05-09 16:00:22.905,2,-0.19,-0.54,1.03,-77.9444,-116.1522,-143.87640000000002,175,75
2026-05-09 16:00:22.960,2,-0.82,0.1,0.21,-42.5244,-221.2122,-138.56640000000002,175,75
2026-05-09 16:00:22.960,2,-0.96,0.19,0.07,-36.544399999999996,-181.3322,-132.4764,175,75
2026-05-09 16:00:23.012,2,-0.44,0.72,-0.02,31.2556,267.9378,-102.8964,175,75
2026-05-09 16:00:23.023,2,-0.29,0.79,0.18,49.245599999999996,306.3478,-101.3164,175,75
2026-05-09 16:00:23.034,2,-0.17,0.76,0.29,55.2856,318.4778,-100.88640000000001,175,75
2026-05-09 16:00:23.046,2,-0.09,0.77,0.36,53.6356,300.3078,-97.5364,175,75
2026-05-09 16:00:23.060,2,-0.14,1.42,0.35,45.955600000000004,237.0778,-91.7364,175,75
2026-05-09 16:00:23.082,2,0.25,1.93,0.43,43.205600000000004,210.9778,-65.6464,175,75
2026-05-09 16:00:23.082,2,0.55,2.05,0.7,28.145599999999998,188.8478,-43.0164,175,75
2026-05-09 16:00:23.120,2,0.44,2.07,0.72,17.9056,-18.472199999999994,-27.7164,175,75
2026-05-09 16:00:23.131,2,0.38,2.36,0.64,34.7956,-67.4322,-7.4064,175,75
2026-05-09 16:00:23.159,2,0.2,2.39,0.55,20.2856,-85.97219999999999,24.1736,175,75
2026-05-09 16:00:23.160,2,0.21,2.25,0.42,-2.3344000000000023,-100.48219999999998,46.9136,175,75
2026-05-09 16:00:23.170,2,0.22,2.02,0.42,-33.4944,-102.98219999999998,61.3736,175,75
2026-05-09 16:00:23.170,2,0.33,1.84,0.5,-51.2444,-81.7022,64.3536,175,75
2026-05-09 16:00:23.182,2,0.5,1.72,0.6,-42.8844,-53.3422,60.823600000000006,175,75
2026-05-09 16:00:23.197,2,0.76,1.45,0.8,-26.424400000000002,-40.05219999999999,58.1336,175,75
2026-05-09 16:00:23.207,2,0.88,1.16,1.01,-23.374399999999998,-57.252199999999995,50.823600000000006,175,75
2026-05-09 16:00:23.242,2,0.42,1.08,0.84,-14.534400000000002,-248.3522,48.9936,175,75
2026-05-09 16:00:23.253,2,0.25,0.87,0.49,-31.604400000000002,-285.17220000000003,43.8136,175,75
2026-05-09 16:00:23.263,2,0.15,0.83,0.26,-35.9344,-292.98220000000003,40.0936,175,75
2026-05-09 16:00:23.292,2,-0.09,0.71,0.03,-35.6344,-187.19219999999999,38.683600000000006,175,75
2026-05-09 16:00:23.302,2,-0.06,0.64,-0.03,-33.1944,-50.8422,20.8236,175,75
2026-05-09 16:00:23.316,2,0.27,0.78,0.1,-1.7943999999999996,144.4578,1.7336,175,75
2026-05-09 16:00:23.340,2,0.36,0.75,0.64,27.665599999999998,245.61780000000002,-24.366400000000002,175,75
2026-05-09 16:00:23.367,2,0.37,0.56,1.04,6.015599999999999,70.24780000000001,-34.486399999999996,175,75
2026-05-09 16:00:23.377,2,0.32,0.62,1.0,-3.8644,-27.672199999999997,-23.6264,175,75
2026-05-09 16:00:23.387,2,0.33,0.72,0.83,-5.694400000000002,-129.32219999999998,-10.336400000000001,175,75
2026-05-09 16:00:23.409,2,0.48,0.88,0.4,-6.424400000000002,-196.5222,-16.0064,175,75
2026-05-09 16:00:23.421,2,0.43,1.01,0.17,-2.4044000000000025,-166.82219999999998,-22.5364,175,75
2026-05-09 16:00:23.440,2,-0.02,1.16,-0.07,16.4456,40.7978,-50.2164,175,75
2026-05-09 16:00:23.466,2,-0.18,1.48,0.05,34.6756,218.05780000000001,-60.0364,175,75
2026-05-09 16:00:23.473,2,0.0,1.65,0.2,44.1256,257.32779999999997,-53.3264,175,75
2026-05-09 16:00:23.483,2,0.31,1.74,0.44,45.7756,255.61780000000002,-35.0364,175,75
2026-05-09 16:00:23.498,2,0.49,1.45,0.77,25.345599999999997,184.5778,-12.3464,175,75
2026-05-09 16:00:23.507,2,0.54,1.1,0.88,-5.2044,71.71780000000001,4.6036,175,75
2026-05-09 16:00:23.526,2,0.31,1.24,0.57,-22.704400000000003,-108.95219999999998,28.563599999999997,175,75
2026-05-09 16:00:23.547,2,-0.02,1.71,0.14,-14.834400000000002,-149.44219999999999,50.3936,175,75
2026-05-09 16:00:23.558,2,-0.03,1.88,0.01,-24.7144,-101.2122,78.0136,175,75
2026-05-09 16:00:23.570,2,0.09,1.79,0.04,-32.2744,-33.1622,87.28359999999999,175,75
2026-05-09 16:00:23.581,2,0.35,1.44,0.17,-30.024400000000004,29.217800000000004,91.30359999999999,175,75
2026-05-09 16:00:23.593,2,0.58,1.12,0.35,-25.994400000000002,17.937800000000003,86.61359999999999,175,75
2026-05-09 16:00:23.593,2,0.68,0.87,0.5,-29.594400000000004,-33.282199999999996,81.4936,175,75
2026-05-09 16:00:23.627,2,0.56,0.68,0.34,-73.8644,-291.9422,80.5136,175,75
2026-05-09 16:00:23.635,2,0.5,0.73,0.04,-84.8344,-361.5222,82.7136,175,75
2026-05-09 16:00:23.658,2,0.27,0.58,-0.42,-96.7944,-319.6322,55.7036,175,75
2026-05-09 16:00:23.678,2,0.11,0.36,-0.7,-101.5444,-132.8622,39.3536,175,75
2026-05-09 16:00:23.688,2,0.13,0.24,-0.74,-103.1944,-10.542199999999994,27.4636,175,75
2026-05-09 16:00:23.698,2,0.18,0.17,-0.51,-99.1044,86.1078,13.383600000000001,175,75
2026-05-09 16:00:23.698,2,0.22,0.12,-0.25,-93.6244,152.0778,4.2936,175,75
2026-05-09 16:00:23.713,2,0.3,0.12,-0.01,-90.3244,212.3878,-9.2964,175,75
2026-05-09 16:00:23.737,2,0.21,0.47,0.14,-83.9844,255.1278,-24.6664,175,75
2026-05-09 16:00:23.737,2,0.02,1.02,0.2,-69.53439999999999,296.4078,-31.4964,175,75
2026-05-09 16:00:23.767,2,0.25,2.13,0.63,-25.204400000000003,414.7578,-31.5564,175,75
2026-05-09 16:00:23.780,2,0.73,2.22,1.18,-20.2644,416.64779999999996,-34.846399999999996,175,75
2026-05-09 16:00:23.780,2,1.16,1.83,1.84,-36.794399999999996,319.82779999999997,-47.166399999999996,175,75
2026-05-09 16:00:23.836,2,1.28,1.53,2.27,-62.09439999999999,161.58780000000002,-52.6564,175,75
2026-05-09 16:00:23.850,2,1.24,1.6,2.45,-66.8544,-24.022199999999998,-44.666399999999996,175,75
2026-05-09 16:00:23.866,2,0.61,1.98,1.54,-24.0444,-373.41220000000004,4.5436,175,75
2026-05-09 16:00:23.866,2,0.35,2.14,0.93,-27.6444,-428.6522,16.2436,175,75
2026-05-09 16:00:23.866,2,0.22,2.28,0.43,-56.42439999999999,-449.0222,22.7136,175,75
2026-05-09 16:00:23.886,2,-0.16,2.4,0.7,-50.264399999999995,-372.1922,29.0536,175,75
2026-05-09 16:00:23.897,2,-0.24,2.33,-0.11,-52.5244,-204.0822,33.9936,175,75
2026-05-09 16:00:23.908,2,-0.31,1.79,-0.05,-23.984400000000004,87.74780000000001,21.313599999999997,175,75
2026-05-09 16:00:23.916,2,0.15,1.24,0.63,26.4456,354.7578,-9.6664,175,75
2026-05-09 16:00:23.942,2,0.32,1.18,1.09,30.4056,328.2378,-18.7564,175,75
2026-05-09 16:00:23.965,2,0.16,1.0,1.47,12.785599999999999,-21.032199999999996,13.383600000000001,175,75
2026-05-09 16:00:23.977,2,-0.02,0.42,0.5,-1.7943999999999996,-415.36220000000003,66.1836,175,75
