Time,ID,Ax,Ay,Az,Gx,Gy,Gz,Height,Weight
2026-05-09 14:54:17.629,2,1.39,-1.24,1.04,-208.72119999999998,171.77579999999998,40.855599999999995,175,75
2026-05-09 14:54:17.629,2,1.54,-1.04,1.31,-184.2112,171.4158,32.0756,175,75
2026-05-09 14:54:17.629,2,1.74,-0.75,1.16,-111.6512,71.8358,22.3756,175,75
2026-05-09 14:54:17.629,2,1.79,-0.67,1.23,-84.8212,114.9458,16.0356,175,75
2026-05-09 14:54:17.629,2,1.93,-0.56,1.39,-44.09119999999999,114.2158,5.115600000000001,175,75
2026-05-09 14:54:17.629,2,1.97,-0.53,1.44,-32.8112,90.8058,1.2155999999999985,175,75
2026-05-09 14:54:17.629,2,1.99,-0.5,1.46,-24.0212,58.11580000000001,-2.6844,175,75
2026-05-09 14:54:17.629,2,1.95,-0.59,1.36,-2.8112,31.895799999999998,-10.0644,175,75
2026-05-09 14:54:17.629,2,2.01,-0.68,1.3,15.428799999999999,18.6058,-13.904400000000003,175,75
2026-05-09 14:54:17.629,2,2.09,-0.71,1.08,30.7288,-14.6842,-19.754399999999997,175,75
2026-05-09 14:54:17.629,2,2.12,-0.7,0.95,36.278800000000004,-21.2742,-22.3144,175,75
2026-05-09 14:54:17.629,2,2.15,-0.67,0.56,52.6788,28.975800000000003,-35.6144,175,75
2026-05-09 14:54:17.629,2,2.19,-0.66,0.47,61.768800000000006,85.8058,-43.5344,175,75
2026-05-09 14:54:17.629,2,2.25,-0.7,0.55,74.7588,136.3558,-50.554399999999994,175,75
2026-05-09 14:54:17.629,2,2.3,-0.77,0.76,89.5688,155.4358,-57.804399999999994,175,75
2026-05-09 14:54:17.629,2,2.32,-0.75,0.88,99.38879999999999,134.8258,-63.354400000000005,175,75
2026-05-09 14:54:17.629,2,2.33,-0.67,0.93,95.3688,56.22580000000001,-64.45439999999999,175,75
2026-05-09 14:54:17.630,2,2.29,-0.68,0.88,89.9388,16.5358,-65.55439999999999,175,75
2026-05-09 14:54:17.630,2,2.42,-0.85,0.73,79.7588,-53.584199999999996,-81.70439999999999,175,75
2026-05-09 14:54:17.950,2,2.41,-1.08,0.18,103.77879999999999,46.47580000000001,-122.80440000000002,175,75
2026-05-09 14:54:17.950,2,2.11,-0.93,0.11,110.7888,92.5758,-136.0944,175,75
2026-05-09 14:54:17.950,2,1.98,-0.72,0.42,113.4088,192.26579999999998,-141.3444,175,75
2026-05-09 14:54:17.950,2,1.87,-0.94,0.72,122.9288,216.6558,-144.39440000000002,175,75
2026-05-09 14:54:17.951,2,1.78,-1.1,0.89,145.2388,136.4158,-132.9844,175,75
2026-05-09 14:54:17.951,2,1.8,-0.87,0.91,151.5188,48.8558,-120.4844,175,75
2026-05-09 14:54:17.951,2,1.74,-0.66,0.86,142.0088,-34.014199999999995,-108.59440000000001,175,75
2026-05-09 14:54:17.951,2,1.72,-0.79,0.64,115.5488,-89.4442,-106.83439999999999,175,75
2026-05-09 14:54:17.951,2,1.65,-0.74,0.62,159.0188,7.935800000000001,-77.0744,175,75
2026-05-09 14:54:18.041,2,1.75,-0.5,0.45,147.18880000000001,2.8158000000000003,-60.614399999999996,175,75
2026-05-09 14:54:18.082,2,1.81,-0.52,0.48,147.86880000000002,17.5758,-58.2344,175,75
2026-05-09 14:54:18.082,2,1.88,-0.58,0.5,153.1688,23.3058,-56.3444,175,75
2026-05-09 14:54:18.185,2,1.87,-0.49,0.46,152.0688,18.1858,-55.6744,175,75
2026-05-09 14:54:18.185,2,1.86,-0.42,0.47,146.9488,25.1358,-51.584399999999995,175,75
2026-05-09 14:54:18.334,2,1.94,-0.45,0.43,144.3288,-12.424199999999999,-53.7844,175,75
2026-05-09 14:54:18.334,2,1.86,-0.4,0.41,140.7288,46.22580000000001,-51.0944,175,75
2026-05-09 14:54:18.334,2,1.92,-0.49,0.49,143.5988,40.195800000000006,-49.5144,175,75
2026-05-09 14:54:18.334,2,1.94,-0.29,0.42,135.7888,9.945799999999998,-51.6444,175,75
2026-05-09 14:54:18.454,2,1.93,-0.25,0.48,127.1288,38.5458,-46.6444,175,75
2026-05-09 14:54:18.454,2,1.91,-0.32,0.42,126.27879999999999,29.765800000000002,-45.1244,175,75
2026-05-09 14:54:18.454,2,1.86,-0.19,0.43,129.2688,49.0358,-44.0844,175,75
2026-05-09 14:54:18.454,2,1.86,-0.15,0.52,121.27879999999999,54.4658,-40.2444,175,75
2026-05-09 14:54:18.617,2,1.92,-0.26,0.55,123.5388,35.9258,-37.0744,175,75
2026-05-09 14:54:18.617,2,1.93,-0.13,0.56,124.5088,30.3158,-36.8944,175,75
2026-05-09 14:54:18.618,2,1.96,-0.24,0.57,117.7988,-4.994199999999999,-39.0244,175,75
2026-05-09 14:54:18.618,2,1.96,-0.23,0.53,117.4388,-9.8042,-39.9444,175,75
2026-05-09 14:54:18.618,2,1.92,-0.2,0.49,116.0988,-7.614199999999999,-42.5644,175,75
2026-05-09 14:54:18.631,2,1.91,-0.22,0.51,113.4088,24.585800000000003,-41.5844,175,75
2026-05-09 14:54:18.807,2,1.86,-0.2,0.58,108.5388,9.5258,-39.4544,175,75
2026-05-09 14:54:18.807,2,1.88,-0.14,0.66,116.0388,33.2458,-38.2944,175,75
2026-05-09 14:54:18.852,2,1.82,-0.11,0.56,117.7988,32.6358,-35.0044,175,75
2026-05-09 14:54:18.852,2,1.89,-0.17,0.67,120.7888,19.9458,-36.4044,175,75
2026-05-09 14:54:18.852,2,1.9,-0.13,0.66,119.5088,-0.6041999999999996,-37.5644,175,75
2026-05-09 14:54:18.964,2,1.82,-0.11,0.48,115.97879999999999,2.8158000000000003,-38.7844,175,75
2026-05-09 14:54:18.964,2,1.84,-0.13,0.46,116.5188,4.3358,-38.8444,175,75
2026-05-09 14:54:19.024,2,1.82,-0.07,0.39,127.55879999999999,24.765800000000002,-38.3544,175,75
2026-05-09 14:54:19.098,2,1.86,-0.12,0.44,127.9288,26.715799999999998,-39.0244,175,75
2026-05-09 14:54:19.098,2,1.89,-0.2,0.46,126.6488,2.205800000000001,-43.7244,175,75
2026-05-09 14:54:19.098,2,1.81,-0.03,0.37,127.6788,4.5858,-49.7544,175,75
2026-05-09 14:54:19.098,2,1.8,-0.1,0.37,127.0688,2.0858,-49.3944,175,75
2026-05-09 14:54:19.462,2,1.76,-0.08,0.38,126.8288,25.865799999999997,-50.7944,175,75
2026-05-09 14:54:19.462,2,1.8,-0.04,0.48,125.6088,24.7058,-48.41439999999999,175,75
2026-05-09 14:54:19.463,2,1.72,-0.07,0.45,120.1788,6.715800000000001,-47.13440000000001,175,75
2026-05-09 14:54:19.463,2,1.67,-0.05,0.39,119.5688,2.5758,-45.184400000000004,175,75
2026-05-09 14:54:19.463,2,1.68,-0.09,0.38,121.0988,39.4658,-40.4244,175,75
2026-05-09 14:54:19.463,2,1.71,-0.07,0.44,125.97879999999999,40.7458,-37.9844,175,75
2026-05-09 14:54:19.463,2,1.69,-0.06,0.51,125.6088,35.985800000000005,-35.7344,175,75
2026-05-09 14:54:19.463,2,1.68,-0.06,0.55,124.5688,29.215799999999998,-32.7444,175,75
2026-05-09 14:54:19.463,2,1.7,-0.12,0.48,118.16879999999999,-39.9242,-29.754399999999997,175,75
2026-05-09 14:54:19.463,2,1.64,-0.14,0.4,117.6788,-42.554199999999994,-31.7744,175,75
2026-05-09 14:54:19.463,2,1.61,-0.16,0.33,120.8488,-27.6742,-32.4444,175,75
2026-05-09 14:54:19.463,2,1.67,-0.18,0.43,126.27879999999999,-2.0641999999999996,-24.2744,175,75
2026-05-09 14:54:19.833,2,1.56,-0.17,0.34,126.1588,-10.604199999999999,-25.2444,175,75
2026-05-09 14:54:19.833,2,1.58,-0.32,0.28,136.64880000000002,12.145800000000001,-14.8844,175,75
2026-05-09 14:54:19.833,2,1.69,-0.51,0.34,135.5488,-4.1941999999999995,-16.3444,175,75
2026-05-09 14:54:19.834,2,1.66,-0.55,0.32,136.27880000000002,-11.2042,-19.144399999999997,175,75
2026-05-09 14:54:19.834,2,1.65,-0.57,0.28,152.7988,18.3658,-6.404399999999999,175,75
2026-05-09 14:54:19.834,2,1.65,-0.63,0.31,155.2388,17.0258,-6.224399999999999,175,75
2026-05-09 14:54:19.834,2,1.64,-0.7,0.35,162.43880000000001,-14.3142,2.015599999999999,175,75
2026-05-09 14:54:19.834,2,1.63,-0.72,0.27,161.9488,-24.3142,3.4155999999999995,175,75
2026-05-09 14:54:19.834,2,1.6,-0.72,0.25,162.55880000000002,-10.4142,6.4056,175,75
2026-05-09 14:54:19.834,2,1.59,-0.71,0.26,166.64880000000002,9.5258,12.1356,175,75
2026-05-09 14:54:19.834,2,1.65,-0.76,0.3,170.6088,18.8558,22.3756,175,75
2026-05-09 14:54:19.835,2,1.71,-0.89,0.36,173.5388,12.695799999999998,28.775599999999997,175,75
2026-05-09 14:54:19.835,2,1.68,-0.93,0.36,174.08880000000002,12.575800000000001,30.4256,175,75
2026-05-09 14:54:19.835,2,1.65,-0.94,0.36,175.11880000000002,13.9758,31.7656,175,75
2026-05-09 14:54:19.835,2,1.67,-0.92,0.36,174.68880000000001,17.6958,35.9156,175,75
2026-05-09 14:54:19.905,2,1.74,-0.97,0.42,160.6688,30.9258,41.8256,175,75
2026-05-09 14:54:19.922,2,1.72,-0.93,0.45,158.5388,30.9258,46.8856,175,75
2026-05-09 14:54:19.922,2,1.76,-0.9,0.43,155.36880000000002,32.7558,53.1656,175,75
2026-05-09 14:54:19.933,2,1.8,-0.91,0.41,153.1088,37.9358,55.5456,175,75
2026-05-09 14:54:19.994,2,1.8,-0.92,0.57,136.0988,72.2058,72.8656,175,75
2026-05-09 14:54:20.062,2,2.04,-1.09,0.58,116.7688,20.9258,63.7156,175,75
2026-05-09 14:54:20.062,2,1.96,-1.05,0.54,102.3788,15.4358,56.8256,175,75
2026-05-09 14:54:20.063,2,1.87,-0.98,0.5,94.8188,19.5258,55.2456,175,75
2026-05-09 14:54:20.195,2,1.82,-0.97,0.84,36.15880000000001,26.835800000000003,65.6656,175,75
2026-05-09 14:54:20.195,2,1.74,-0.94,0.78,29.6288,9.825800000000001,67.8056,175,75
2026-05-09 14:54:20.346,2,1.64,-0.94,0.62,12.0688,46.835800000000006,72.6156,175,75
2026-05-09 14:54:20.346,2,1.68,-0.96,0.67,4.9988,56.5958,73.2256,175,75
2026-05-09 14:54:20.346,2,1.68,-0.95,0.73,-1.4611999999999998,52.7558,70.2456,175,75
2026-05-09 14:54:20.346,2,1.52,-0.91,0.65,-42.3812,-62.974199999999996,62.9256,175,75
2026-05-09 14:54:20.346,2,1.42,-0.71,0.46,-62.56119999999999,-129.1342,63.5356,175,75
2026-05-09 14:54:20.346,2,1.28,-0.53,0.14,-83.4812,-136.0242,68.8356,175,75
2026-05-09 14:54:20.346,2,1.46,-0.48,-0.17,-99.5112,-123.46419999999999,57.1356,175,75
2026-05-09 14:54:20.569,2,2.92,-0.88,-0.85,-261.6512,-11.4542,81.7056,175,75
2026-05-09 14:54:20.569,2,2.58,-0.97,-1.1,-291.5912,-6.6342,53.7156,175,75
2026-05-09 14:54:20.569,2,2.14,-1.19,-0.37,-286.5912,318.7858,117.9256,175,75
2026-05-09 14:54:20.569,2,1.97,-1.58,-0.06,-273.6012,356.9658,112.6156,175,75
2026-05-09 14:54:20.569,2,3.04,-2.33,0.65,-270.7912,159.27579999999998,10.4856,175,75
2026-05-09 14:54:20.569,2,2.34,-2.81,1.25,-306.77119999999996,-67.0042,-27.5644,175,75
2026-05-09 14:54:20.569,2,2.39,-3.19,1.32,-378.2312,-324.01419999999996,-8.354400000000002,175,75
2026-05-09 14:54:20.569,2,1.45,-1.85,-0.93,-208.1712,484.4658,-72.5044,175,75
2026-05-09 14:54:20.625,2,1.76,-1.71,1.21,2.5587999999999997,517.1458,-205.55440000000002,175,75
2026-05-09 14:54:20.625,2,1.95,-1.55,1.33,25.5488,424.7058,-213.5944,175,75
2026-05-09 14:54:20.625,2,2.0,-1.41,1.39,43.598800000000004,288.48580000000004,-220.0644,175,75
2026-05-09 14:54:20.625,2,2.0,-1.31,1.32,57.378800000000005,106.0458,-215.30440000000002,175,75
2026-05-09 14:54:20.625,2,1.79,-1.33,0.94,67.4388,-125.2342,-208.7244,175,75
2026-05-09 14:54:20.895,2,1.54,-1.04,0.2,89.9988,4.5858,-238.3544,175,75
2026-05-09 14:54:20.895,2,1.48,-0.98,0.52,128.8388,75.61580000000001,-228.8444,175,75
2026-05-09 14:54:20.895,2,1.47,-0.89,0.61,135.7288,72.0858,-223.9044,175,75
2026-05-09 14:54:20.895,2,1.46,-0.76,0.73,141.0988,43.1158,-213.7244,175,75
2026-05-09 14:54:20.895,2,1.48,-0.72,0.75,139.7588,21.1658,-210.42440000000002,175,75
2026-05-09 14:54:20.895,2,1.47,-0.71,0.73,136.21880000000002,1.8357999999999999,-205.4844,175,75
2026-05-09 14:54:20.896,2,1.44,-0.68,0.67,132.55880000000002,-5.844199999999999,-201.4044,175,75
2026-05-09 14:54:20.896,2,1.4,-0.64,0.6,131.64880000000002,-10.1142,-198.4144,175,75
2026-05-09 14:54:20.896,2,1.42,-0.4,0.58,135.17880000000002,-33.7742,-169.08440000000002,175,75
2026-05-09 14:54:20.896,2,1.44,-0.36,0.54,133.0488,-43.2842,-166.5244,175,75
2026-05-09 14:54:20.896,2,1.38,-0.32,0.5,132.0688,-49.014199999999995,-164.33440000000002,175,75
2026-05-09 14:54:20.929,2,1.3,-0.3,0.46,128.6588,-41.27419999999999,-157.1344,175,75
2026-05-09 14:54:20.929,2,1.31,-0.01,0.24,107.6188,17.0858,-124.7544,175,75
2026-05-09 14:54:21.010,2,1.32,0.03,0.29,107.0088,31.3558,-111.09440000000001,175,75
2026-05-09 14:54:21.011,2,1.35,0.09,0.35,100.5488,-2.0641999999999996,-95.55439999999999,175,75
2026-05-09 14:54:21.042,2,1.38,0.11,0.32,96.94879999999999,-13.5842,-92.68440000000001,175,75
2026-05-09 14:54:21.042,2,1.4,0.13,0.29,89.6288,-30.0542,-90.4844,175,75
2026-05-09 14:54:21.042,2,1.37,0.15,0.24,85.05879999999999,-33.9542,-87.3844,175,75
2026-05-09 14:54:21.303,2,1.35,0.17,0.21,83.16879999999999,-28.3442,-84.5144,175,75
2026-05-09 14:54:21.303,2,1.43,0.16,0.01,73.6588,-10.844199999999999,-47.444399999999995,175,75
2026-05-09 14:54:21.303,2,1.28,0.31,-0.07,73.7188,24.1558,-30.9144,175,75
2026-05-09 14:54:21.303,2,1.3,0.4,-0.05,81.58879999999999,42.3858,-16.9544,175,75
2026-05-09 14:54:21.304,2,1.3,0.4,-0.0,79.1488,53.2458,-6.464400000000001,175,75
2026-05-09 14:54:21.304,2,1.42,0.42,-0.09,21.8288,-12.1842,9.9956,175,75
2026-05-09 14:54:21.304,2,1.39,0.37,-0.15,17.0688,-16.9442,17.3156,175,75
2026-05-09 14:54:21.304,2,1.35,0.27,-0.07,-29.8212,2.2658000000000014,34.6956,175,75
2026-05-09 14:54:21.414,2,1.52,0.25,0.12,-22.1312,16.2958,40.9756,175,75
2026-05-09 14:54:21.414,2,1.38,0.32,-0.06,-38.7812,-47.554199999999994,14.695599999999999,175,75
2026-05-09 14:54:21.414,2,1.39,0.34,0.03,-24.8812,6.105800000000001,23.4756,175,75
2026-05-09 14:54:21.430,2,1.54,0.26,0.22,-28.1712,-28.4642,16.5256,175,75
2026-05-09 14:54:21.450,2,1.47,0.33,0.16,-31.4612,-65.3542,8.4156,175,75
2026-05-09 14:54:21.477,2,1.48,0.33,0.1,-31.0412,-67.6742,9.6356,175,75
2026-05-09 14:54:21.477,2,1.46,0.3,0.06,-29.8212,-57.6742,11.215599999999998,175,75
2026-05-09 14:54:21.477,2,1.44,0.28,0.04,-26.8912,-42.0642,12.0756,175,75
2026-05-09 14:54:21.549,2,1.48,0.28,0.05,-14.4512,-38.4642,4.6356,175,75
2026-05-09 14:54:21.570,2,1.4,0.34,-0.03,-9.7612,-13.1642,5.0556,175,75
2026-05-09 14:54:21.570,2,1.4,0.36,-0.03,-6.0412,2.875800000000001,9.6356,175,75
2026-05-09 14:54:21.592,2,1.46,0.34,0.0,-4.151199999999999,14.215799999999998,13.105599999999999,175,75
2026-05-09 14:54:21.592,2,1.47,0.29,0.02,-4.4512,15.925799999999999,15.185599999999999,175,75
2026-05-09 14:54:21.615,2,1.49,0.24,0.07,-7.321200000000001,12.325800000000001,13.715599999999998,175,75
2026-05-09 14:54:21.648,2,1.47,0.26,0.1,-8.1112,-8.8342,10.7956,175,75
2026-05-09 14:54:21.658,2,1.48,0.29,0.09,-6.7712,-14.3842,12.2556,175,75
2026-05-09 14:54:21.685,2,1.5,0.24,0.1,-9.0212,-21.214199999999998,15.185599999999999,175,75
2026-05-09 14:54:21.685,2,1.46,0.22,0.08,-11.401200000000001,-27.6742,15.3056,175,75
2026-05-09 14:54:21.694,2,1.49,0.21,0.08,-13.1712,-30.4142,13.2956,175,75
2026-05-09 14:54:21.720,2,1.49,0.24,0.07,-11.7712,-28.1642,13.8356,175,75
2026-05-09 14:54:21.732,2,1.51,0.26,0.06,-9.7012,-25.7242,12.6156,175,75
2026-05-09 14:54:21.742,2,1.49,0.26,0.04,-10.1812,-18.3442,11.8856,175,75
2026-05-09 14:54:21.746,2,1.46,0.26,0.04,-10.6112,-10.354199999999999,12.1356,175,75
2026-05-09 14:54:21.759,2,1.48,0.26,0.06,-10.0012,-4.3142,12.2556,175,75
2026-05-09 14:54:21.779,2,1.49,0.26,0.07,-9.0912,-2.3042,12.6856,175,75
2026-05-09 14:54:21.800,2,1.47,0.23,0.08,-11.7712,-2.794199999999999,12.7456,175,75
2026-05-09 14:54:21.866,2,1.47,0.26,0.1,-12.3812,-11.514199999999999,12.195599999999999,175,75
2026-05-09 14:54:21.874,2,1.47,0.26,0.1,-13.481200000000001,-15.604199999999999,11.1556,175,75
2026-05-09 14:54:21.900,2,1.42,0.29,0.1,-14.571200000000001,-13.464199999999998,13.4756,175,75
2026-05-09 14:54:21.900,2,1.43,0.28,0.09,-13.9012,-8.524199999999999,14.935599999999999,175,75
2026-05-09 14:54:21.901,2,1.45,0.28,0.1,-11.9512,-7.914199999999999,15.7256,175,75
2026-05-09 14:54:21.926,2,1.46,0.27,0.1,-11.2812,-8.344199999999999,14.8756,175,75
2026-05-09 14:54:21.926,2,1.47,0.26,0.11,-12.2012,-6.514199999999999,14.7556,175,75
2026-05-09 14:54:21.949,2,1.46,0.27,0.13,-11.651200000000001,-3.1641999999999992,11.465599999999998,175,75
2026-05-09 14:54:21.949,2,1.44,0.3,0.14,-10.4312,-4.1941999999999995,10.3656,175,75
2026-05-09 14:54:21.960,2,1.45,0.31,0.14,-10.311200000000001,-5.2942,9.695599999999999,175,75
2026-05-09 14:54:21.997,2,1.46,0.34,0.09,-8.1112,-7.5542,6.945599999999999,175,75
2026-05-09 14:54:22.024,2,1.45,0.35,0.08,-5.911200000000001,-3.4041999999999994,6.2156,175,75
2026-05-09 14:54:22.045,2,1.45,0.36,0.1,-4.7012,0.615800000000001,4.755599999999999,175,75
2026-05-09 14:54:22.056,2,1.46,0.36,0.08,-4.331200000000001,-3.3442,2.9856,175,75
2026-05-09 14:54:22.057,2,1.44,0.34,0.02,-3.0512,-9.3142,-0.9743999999999993,175,75
2026-05-09 14:54:22.067,2,1.42,0.35,-0.01,-1.7112000000000003,-1.3941999999999997,-0.18440000000000012,175,75
2026-05-09 14:54:22.081,2,1.41,0.34,-0.02,-0.24120000000000008,8.1158,0.9756,175,75
2026-05-09 14:54:22.095,2,1.43,0.34,0.01,1.0388,16.8358,4.025599999999999,175,75
2026-05-09 14:54:22.106,2,1.47,0.32,0.01,1.0988,12.575800000000001,3.5356000000000005,175,75
2026-05-09 14:54:22.122,2,1.44,0.3,0.02,0.4887999999999999,6.105800000000001,2.9856,175,75
2026-05-09 14:54:22.135,2,1.44,0.31,0.02,1.3988,5.5558000000000005,3.8355999999999995,175,75
2026-05-09 14:54:22.151,2,1.46,0.3,0.05,0.8488,3.7258000000000004,4.515599999999999,175,75
2026-05-09 14:54:22.222,2,1.45,0.27,0.06,-2.0711999999999997,1.4758000000000004,4.8756,175,75
2026-05-09 14:54:22.222,2,1.46,0.25,0.06,-2.2612,2.8158000000000003,4.935599999999999,175,75
2026-05-09 14:54:22.222,2,1.45,0.25,0.08,-2.2011999999999996,2.445800000000001,4.2056000000000004,175,75
2026-05-09 14:54:22.236,2,1.47,0.25,0.09,-3.5412000000000003,1.4158,3.5955999999999992,175,75
2026-05-09 14:54:22.260,2,1.47,0.27,0.1,-5.671200000000001,-2.124199999999999,2.015599999999999,175,75
2026-05-09 14:54:22.272,2,1.5,0.26,0.09,-5.4312000000000005,-5.2942,0.48559999999999803,175,75
2026-05-09 14:54:22.292,2,1.48,0.27,0.07,-5.491199999999999,-5.7242,-0.6743999999999986,175,75
2026-05-09 14:54:22.303,2,1.48,0.26,0.06,-4.9412,-1.754199999999999,-1.7043999999999997,175,75
2026-05-09 14:54:22.312,2,1.48,0.26,0.07,-3.6612000000000005,5.615800000000001,-1.0944000000000003,175,75
2026-05-09 14:54:22.338,2,1.49,0.25,0.09,-2.0711999999999997,8.7258,-0.8544000000000018,175,75
2026-05-09 14:54:22.384,2,1.51,0.26,0.13,0.17879999999999985,8.1158,-1.894400000000001,175,75
2026-05-09 14:54:22.384,2,1.52,0.27,0.13,0.17879999999999985,3.4257999999999997,-2.314399999999999,175,75
2026-05-09 14:54:22.402,2,1.51,0.25,0.07,0.2387999999999999,-6.754199999999999,-6.1644000000000005,175,75
2026-05-09 14:54:22.424,2,1.48,0.28,0.06,2.7988,1.0458000000000007,-5.064399999999999,175,75
2026-05-09 14:54:22.443,2,1.5,0.28,0.06,4.0188,7.695800000000001,-3.1743999999999986,175,75
2026-05-09 14:54:22.450,2,1.5,0.27,0.06,4.5687999999999995,8.6658,-1.9543999999999997,175,75
2026-05-09 14:54:22.495,2,1.51,0.28,0.08,4.2088,6.595800000000001,-1.8343999999999987,175,75
2026-05-09 14:54:22.495,2,1.5,0.28,0.09,4.0888,2.5758,-2.3843999999999994,175,75
2026-05-09 14:54:22.570,2,1.47,0.28,0.06,3.2288,-0.41419999999999924,-2.1343999999999994,175,75
2026-05-09 14:54:22.586,2,1.49,0.28,0.07,5.1188,3.4257999999999997,-1.5244,175,75
2026-05-09 14:54:22.597,2,1.49,0.28,0.07,5.6088000000000005,5.195800000000001,-0.8544000000000018,175,75
2026-05-09 14:54:22.640,2,1.49,0.27,0.1,5.8488,2.9958,-0.9144000000000005,175,75
2026-05-09 14:54:22.664,2,1.48,0.26,0.09,6.2188,1.7758000000000012,-1.2243999999999993,175,75
2026-05-09 14:54:22.664,2,1.48,0.26,0.1,6.828799999999999,0.4958,-1.7744,175,75
2026-05-09 14:54:22.677,2,1.48,0.28,0.09,8.5988,-1.3341999999999992,-3.054400000000001,175,75
2026-05-09 14:54:22.689,2,1.46,0.27,0.1,10.7888,5.9258,-2.2544000000000004,175,75
2026-05-09 14:54:22.698,2,1.46,0.26,0.09,11.0388,5.5558000000000005,-2.6844,175,75
2026-05-09 14:54:22.717,2,1.46,0.25,0.08,12.438799999999999,7.5758,-2.984400000000001,175,75
2026-05-09 14:54:22.728,2,1.47,0.24,0.08,12.1288,7.695800000000001,-4.2044,175,75
2026-05-09 14:54:22.728,2,1.47,0.24,0.09,11.0388,6.715800000000001,-4.144400000000001,175,75
2026-05-09 14:54:22.740,2,1.48,0.23,0.08,9.8188,5.5558000000000005,-3.904399999999999,175,75
2026-05-09 14:54:22.752,2,1.49,0.22,0.08,8.838799999999999,4.095800000000001,-4.394400000000001,175,75
2026-05-09 14:54:22.763,2,1.49,0.21,0.08,7.1888000000000005,3.1858000000000013,-4.814399999999999,175,75
2026-05-09 14:54:22.782,2,1.48,0.22,0.07,5.7888,3.0558000000000005,-5.244399999999999,175,75
2026-05-09 14:54:22.821,2,1.47,0.24,0.07,5.1188,5.9258,-6.0944,175,75
2026-05-09 14:54:22.834,2,1.48,0.25,0.07,4.5088,9.5258,-5.124400000000001,175,75
2026-05-09 14:54:22.852,2,1.49,0.23,0.1,3.6588000000000003,10.555800000000001,-5.3644,175,75
2026-05-09 14:54:22.865,2,1.49,0.23,0.1,3.7788,8.605799999999999,-5.734400000000001,175,75
2026-05-09 14:54:22.865,2,1.5,0.22,0.11,3.7788,6.4158,-6.5244,175,75
2026-05-09 14:54:22.865,2,1.49,0.22,0.11,3.3487999999999998,5.615800000000001,-7.5044,175,75
2026-05-09 14:54:22.882,2,1.48,0.23,0.11,3.2288,5.375800000000001,-7.624400000000001,175,75
2026-05-09 14:54:22.894,2,1.47,0.25,0.11,3.7188,3.4257999999999997,-8.354400000000002,175,75
2026-05-09 14:54:22.904,2,1.48,0.26,0.09,3.3487999999999998,3.5458000000000007,-8.354400000000002,175,75
2026-05-09 14:54:22.905,2,1.47,0.25,0.1,3.5987999999999998,7.695800000000001,-7.5044,175,75
2026-05-09 14:54:22.930,2,1.49,0.23,0.11,3.5388,9.395800000000001,-7.2544,175,75
2026-05-09 14:54:22.941,2,1.5,0.22,0.13,0.9787999999999999,6.045800000000001,-8.354400000000002,175,75
2026-05-09 14:54:22.953,2,1.5,0.22,0.12,0.7888,2.3858000000000006,-9.0244,175,75
2026-05-09 14:54:22.968,2,1.5,0.23,0.11,0.058800000000000185,0.9257999999999997,-9.8844,175,75
2026-05-09 14:54:23.034,2,1.51,0.25,0.13,-1.5211999999999999,11.835799999999999,-6.894400000000001,175,75
2026-05-09 14:54:23.047,2,1.51,0.26,0.13,-1.8912,8.9758,-7.014400000000002,175,75
2026-05-09 14:54:23.058,2,1.5,0.27,0.11,-1.4611999999999998,6.595800000000001,-6.834399999999999,175,75
2026-05-09 14:54:23.080,2,1.51,0.26,0.09,-0.8512,4.705800000000001,-7.134399999999999,175,75
2026-05-09 14:54:23.093,2,1.52,0.26,0.09,-1.4012000000000002,7.0858,-6.7044,175,75
2026-05-09 14:54:23.103,2,1.54,0.26,0.08,-1.1612,8.3658,-6.224399999999999,175,75
2026-05-09 14:54:23.114,2,1.53,0.26,0.09,-0.4912000000000001,7.5758,-6.894400000000001,175,75
2026-05-09 14:54:23.128,2,1.52,0.27,0.09,-1.5912000000000002,7.205800000000001,-6.7744,175,75
2026-05-09 14:54:23.158,2,1.47,0.28,0.11,1.2788,19.3958,-4.2044,175,75
2026-05-09 14:54:23.184,2,1.53,0.27,0.16,2.0088,16.2958,-3.8444000000000003,175,75
2026-05-09 14:54:23.206,2,1.53,0.26,0.15,0.9787999999999999,7.3258,-5.974399999999999,175,75
2026-05-09 14:54:23.295,2,1.44,0.3,0.11,-1.1012,7.265800000000001,-7.6844,175,75
2026-05-09 14:54:23.309,2,1.49,0.29,0.13,-2.1312,19.7058,-5.064399999999999,175,75
2026-05-09 14:54:23.309,2,1.5,0.28,0.16,-1.7711999999999999,21.5958,-5.304400000000001,175,75
2026-05-09 14:54:23.341,2,1.53,0.29,0.19,-2.3812,18.7258,-6.644400000000001,175,75
2026-05-09 14:54:23.355,2,1.5,0.31,0.18,-4.821199999999999,11.6558,-7.744399999999999,175,75
2026-05-09 14:54:23.362,2,1.52,0.31,0.17,-5.491199999999999,12.695799999999998,-7.984400000000001,175,75
2026-05-09 14:54:23.464,2,1.54,0.3,0.16,-5.4312000000000005,15.8658,-8.904399999999999,175,75
2026-05-09 14:54:23.472,2,1.54,0.31,0.17,-5.6112,18.1158,-7.984400000000001,175,75
2026-05-09 14:54:23.472,2,1.54,0.31,0.18,-5.4312000000000005,22.0858,-7.314399999999999,175,75
2026-05-09 14:54:23.511,2,1.55,0.32,0.17,-4.2112,23.0558,-7.924399999999999,175,75
2026-05-09 14:54:23.511,2,1.52,0.32,0.17,-3.3512,23.1858,-6.9544,175,75
2026-05-09 14:54:23.553,2,1.54,0.27,0.17,-6.2812,25.8058,-5.554400000000001,175,75
2026-05-09 14:54:23.568,2,1.53,0.27,0.18,-6.4612,23.7258,-6.404399999999999,175,75
2026-05-09 14:54:23.582,2,1.55,0.28,0.21,-6.2812,22.9358,-5.9144000000000005,175,75
2026-05-09 14:54:23.582,2,1.55,0.29,0.23,-6.5212,17.2658,-6.7744,175,75
2026-05-09 14:54:23.630,2,1.36,0.34,0.29,-16.8312,29.825799999999997,4.1456,175,75
2026-05-09 14:54:23.659,2,1.39,0.34,0.31,-21.5212,39.7058,11.2756,175,75
2026-05-09 14:54:23.743,2,1.51,0.35,0.3,-15.981200000000001,42.025800000000004,19.6956,175,75
2026-05-09 14:54:23.757,2,1.56,0.31,0.3,-10.8512,40.7458,26.0356,175,75
2026-05-09 14:54:23.771,2,1.57,0.29,0.31,-10.4312,43.5458,28.535600000000002,175,75
2026-05-09 14:54:23.845,2,1.72,0.21,0.22,-6.2812,14.945799999999998,51.2156,175,75
2026-05-09 14:54:23.889,2,1.72,0.24,0.2,-3.4812,61.22580000000001,63.5956,175,75
2026-05-09 14:54:23.909,2,1.75,0.17,0.24,-3.7212,89.4658,71.8856,175,75
2026-05-09 14:54:23.980,2,1.81,0.12,0.32,-7.2012,105.31580000000001,77.1956,175,75
2026-05-09 14:54:24.011,2,1.9,0.03,0.55,-30.551199999999998,99.8258,87.37559999999999,175,75
2026-05-09 14:54:24.021,2,1.91,0.04,0.57,-34.6312,90.31580000000001,87.6856,175,75
2026-05-09 14:54:24.083,2,1.98,-0.12,0.77,-40.6712,99.39580000000001,82.07560000000001,175,75
2026-05-09 14:54:24.136,2,2.05,-0.16,0.81,-41.5212,73.6658,68.90559999999999,175,75
2026-05-09 14:54:24.217,2,2.04,-0.17,0.83,-40.371199999999995,77.14580000000001,65.79560000000001,175,75
2026-05-09 14:54:24.227,2,2.01,-0.19,0.85,-38.661199999999994,75.92580000000001,63.5956,175,75
2026-05-09 14:54:24.228,2,2.02,-0.21,0.88,-38.3512,71.4158,60.4256,175,75
2026-05-09 14:54:24.238,2,2.04,-0.24,0.91,-38.3512,64.4658,56.5256,175,75
2026-05-09 14:54:24.250,2,1.98,-0.19,0.86,-31.281200000000002,74.8858,44.1456,175,75
2026-05-09 14:54:24.263,2,1.97,-0.18,0.88,-30.671200000000002,83.42580000000001,42.4356,175,75
2026-05-09 14:54:24.290,2,2.02,-0.2,1.02,-44.511199999999995,63.97580000000001,35.0556,175,75
2026-05-09 14:54:24.290,2,2.04,-0.24,1.01,-45.911199999999994,61.22580000000001,35.605599999999995,175,75
2026-05-09 14:54:24.300,2,2.04,-0.29,1.0,-48.721199999999996,59.7658,35.0556,175,75
2026-05-09 14:54:24.330,2,2.01,-0.31,0.99,-53.051199999999994,55.3158,32.0156,175,75
2026-05-09 14:54:24.330,2,1.99,-0.3,1.0,-54.6312,53.6058,31.275599999999997,175,75
2026-05-09 14:54:24.341,2,1.99,-0.3,1.01,-57.871199999999995,54.3958,30.9756,175,75
2026-05-09 14:54:24.352,2,1.98,-0.3,1.04,-62.7412,58.1858,29.9956,175,75
2026-05-09 14:54:24.362,2,1.98,-0.29,1.05,-64.27120000000001,60.92580000000001,30.9756,175,75
2026-05-09 14:54:24.373,2,1.96,-0.29,1.06,-65.6712,60.3758,31.035600000000002,175,75
2026-05-09 14:54:24.385,2,1.93,-0.29,1.07,-67.6212,58.915800000000004,31.525599999999997,175,75
2026-05-09 14:54:24.396,2,1.92,-0.3,1.06,-69.2112,57.2658,31.465600000000002,175,75
2026-05-09 14:54:24.396,2,1.9,-0.31,1.06,-70.4912,56.89580000000001,31.275599999999997,175,75
2026-05-09 14:54:24.409,2,1.88,-0.31,1.05,-70.91120000000001,57.695800000000006,29.9956,175,75
2026-05-09 14:54:24.431,2,1.84,-0.29,1.07,-75.4312,65.1358,28.535600000000002,175,75
2026-05-09 14:54:24.441,2,1.83,-0.29,1.08,-79.5112,66.0458,28.715600000000002,175,75
2026-05-09 14:54:24.441,2,1.79,-0.29,1.07,-84.5712,63.665800000000004,27.8056,175,75
2026-05-09 14:54:24.453,2,1.71,-0.25,0.98,-94.0912,67.2658,28.965600000000002,175,75
2026-05-09 14:54:24.459,2,1.66,-0.23,0.93,-99.7012,76.9658,30.5456,175,75
2026-05-09 14:54:24.471,2,1.65,-0.22,0.91,-104.1512,94.2158,32.1356,175,75
2026-05-09 14:54:24.481,2,1.64,-0.23,0.89,-106.6512,112.6358,34.7556,175,75
2026-05-09 14:54:24.508,2,1.67,-0.4,1.02,-115.1812,140.3758,29.5756,175,75
2026-05-09 14:54:24.541,2,1.65,-0.41,1.05,-117.2012,142.7558,27.0756,175,75
2026-05-09 14:54:24.581,2,1.61,-0.38,1.09,-121.16120000000001,136.2258,22.4356,175,75
2026-05-09 14:54:24.592,2,1.57,-0.33,1.11,-128.60119999999998,124.3958,20.7956,175,75
2026-05-09 14:54:24.609,2,1.54,-0.33,1.06,-145.1812,112.0258,27.9256,175,75
2026-05-09 14:54:24.621,2,1.53,-0.4,1.04,-142.32119999999998,124.09580000000001,27.5556,175,75
2026-05-09 14:54:24.660,2,1.54,-0.45,1.05,-137.38119999999998,137.9358,27.6156,175,75
2026-05-09 14:54:24.724,2,1.55,-0.42,1.26,-139.1512,152.3858,26.6456,175,75
2026-05-09 14:54:24.735,2,1.53,-0.43,1.31,-142.2012,157.8758,26.5856,175,75
2026-05-09 14:54:24.746,2,1.5,-0.48,1.36,-145.00119999999998,176.83579999999998,28.0456,175,75
2026-05-09 14:54:24.762,2,1.44,-0.72,1.48,-127.13119999999999,202.5058,16.8256,175,75
2026-05-09 14:54:24.762,2,1.45,-0.72,1.5,-123.8412,183.6658,15.605599999999999,175,75
2026-05-09 14:54:24.762,2,1.41,-0.69,1.51,-122.7412,167.02579999999998,12.8656,175,75
2026-05-09 14:54:24.783,2,1.33,-0.71,1.61,-123.3512,177.6358,11.3356,175,75
2026-05-09 14:54:24.794,2,1.33,-0.77,1.72,-123.05120000000001,200.2558,11.035599999999999,175,75
2026-05-09 14:54:24.804,2,1.36,-0.88,1.81,-118.66120000000001,224.27579999999998,6.8856,175,75
2026-05-09 14:54:24.817,2,1.42,-1.07,2.03,-94.5112,164.64579999999998,-0.7344000000000008,175,75
2026-05-09 14:54:24.826,2,1.52,-1.14,1.78,-84.02120000000001,126.65580000000001,-2.314399999999999,175,75
2026-05-09 14:54:24.840,2,1.4,-1.1,1.68,-69.6312,110.6858,-3.904399999999999,175,75
2026-05-09 14:54:24.840,2,1.32,-1.05,1.52,-58.481199999999994,123.8558,-6.9544,175,75
2026-05-09 14:54:24.852,2,1.23,-1.0,1.43,-55.551199999999994,173.7858,-7.194400000000002,175,75
2026-05-09 14:54:24.866,2,1.11,-0.99,1.39,-50.371199999999995,232.14579999999998,-2.984400000000001,175,75
2026-05-09 14:54:24.866,2,1.06,-1.02,1.48,-37.5012,290.80580000000003,1.7056000000000004,175,75
2026-05-09 14:54:24.876,2,1.13,-1.11,1.72,-14.7012,333.9758,2.685599999999999,175,75
2026-05-09 14:54:24.887,2,1.23,-1.17,1.96,4.8187999999999995,339.3958,2.8656000000000006,175,75
2026-05-09 14:54:25.011,2,0.79,-1.39,1.68,111.88879999999999,207.3858,18.2256,175,75
2026-05-09 14:54:25.011,2,0.83,-0.71,1.8,151.27880000000002,213.9158,19.3856,175,75
2026-05-09 14:54:25.045,2,0.8,-0.26,1.91,98.8988,125.49580000000002,27.985599999999998,175,75
2026-05-09 14:54:25.063,2,0.78,-0.78,1.89,103.5988,202.02579999999998,49.3856,175,75
2026-05-09 14:54:25.127,2,1.06,-0.68,1.9,117.6788,154.8258,41.0356,175,75
2026-05-09 14:54:25.162,2,0.74,-0.55,1.97,118.9588,111.1058,49.7556,175,75
2026-05-09 14:54:25.172,2,0.84,-0.61,1.83,119.2688,28.7858,37.0756,175,75
2026-05-09 14:54:25.172,2,0.79,-0.55,1.77,88.83879999999999,-32.8542,20.3656,175,75
2026-05-09 14:54:25.226,2,0.44,-0.36,1.49,36.3988,-71.63419999999999,42.4356,175,75
2026-05-09 14:54:25.259,2,0.12,-0.59,1.09,-40.0012,-82.7342,122.7456,175,75
2026-05-09 14:54:25.300,2,1.26,-0.7,1.82,-49.3912,100.92580000000001,131.0356,175,75
2026-05-09 14:54:25.364,2,0.56,-0.7,1.81,-23.1712,35.2558,116.88560000000001,175,75
2026-05-09 14:54:25.364,2,0.83,-0.59,1.93,-38.231199999999994,-13.1642,96.4656,175,75
2026-05-09 14:54:25.430,2,0.21,-0.63,1.74,5.2988,-15.4142,102.6156,175,75
2026-05-09 14:54:25.445,2,0.54,-0.73,1.97,43.4788,-23.3442,104.38560000000001,175,75
2026-05-09 14:54:25.500,2,0.66,-0.62,1.65,50.5488,-167.73420000000002,67.5556,175,75
2026-05-09 14:54:25.530,2,0.53,-0.73,1.52,90.66879999999999,17.0858,92.5556,175,75
2026-05-09 14:54:25.544,2,0.6,-0.62,1.6,110.2988,81.7758,99.38560000000001,175,75
2026-05-09 14:54:25.555,2,0.68,-0.55,1.73,119.7588,100.61580000000001,104.0256,175,75
2026-05-09 14:54:25.693,2,0.73,0.04,1.7,131.0388,28.6058,45.3056,175,75
2026-05-09 14:54:25.693,2,0.95,0.07,1.84,118.0488,-37.0042,30.8556,175,75
2026-05-09 14:54:25.775,2,0.82,0.22,1.65,75.8488,49.8858,39.0856,175,75
2026-05-09 14:54:25.815,2,0.8,0.26,1.6,48.2888,-14.624199999999998,35.4256,175,75
2026-05-09 14:54:25.815,2,0.79,0.28,1.56,48.778800000000004,33.1158,31.4056,175,75
2026-05-09 14:54:25.840,2,0.57,0.37,1.63,57.1888,98.8558,46.3356,175,75
2026-05-09 14:54:25.862,2,0.97,0.06,1.96,47.4388,75.0758,32.6156,175,75
2026-05-09 14:54:25.862,2,0.91,0.14,1.95,46.338800000000006,36.835800000000006,28.3556,175,75
2026-05-09 14:54:25.887,2,0.64,0.46,1.62,30.5488,-57.6742,29.2056,175,75
2026-05-09 14:54:25.898,2,0.86,0.37,1.56,27.9288,-19.804199999999998,33.4156,175,75
2026-05-09 14:54:26.008,2,1.19,0.12,1.67,13.8988,60.555800000000005,11.465599999999998,175,75
2026-05-09 14:54:26.017,2,0.61,0.29,1.62,9.3288,31.655800000000003,24.9956,175,75
2026-05-09 14:54:26.018,2,0.78,0.38,1.78,-5.671200000000001,14.2758,24.8156,175,75
2026-05-09 14:54:26.036,2,1.02,0.39,1.77,-19.2112,-21.0842,30.1156,175,75
2026-05-09 14:54:26.048,2,0.86,0.29,1.7,-27.2612,-42.4942,23.6556,175,75
2026-05-09 14:54:26.129,2,0.9,0.17,1.57,-34.941199999999995,-25.1742,24.1456,175,75
2026-05-09 14:54:26.162,2,0.78,0.28,1.61,-54.2712,49.275800000000004,52.6856,175,75
2026-05-09 14:54:26.172,2,0.92,0.32,1.81,-50.8512,58.78580000000001,52.2556,175,75
2026-05-09 14:54:26.202,2,0.85,0.27,1.84,-57.011199999999995,-26.2742,46.8856,175,75
2026-05-09 14:54:26.218,2,0.84,0.36,1.72,-58.291199999999996,-52.4942,47.2556,175,75
2026-05-09 14:54:26.295,2,0.78,0.25,1.85,-44.4512,58.8558,71.2156,175,75
2026-05-09 14:54:26.295,2,1.15,0.26,2.03,-40.981199999999994,58.055800000000005,67.0156,175,75
2026-05-09 14:54:26.295,2,1.51,0.23,2.37,-22.3212,82.0258,58.3556,175,75
2026-05-09 14:54:26.308,2,1.35,0.03,2.36,-1.3412000000000002,51.595800000000004,37.2556,175,75
2026-05-09 14:54:26.320,2,1.36,-0.18,2.29,8.3488,-15.1142,9.8756,175,75
2026-05-09 14:54:26.332,2,0.98,-0.08,2.11,0.4887999999999999,-71.2142,-6.584399999999999,175,75
2026-05-09 14:54:26.342,2,1.28,0.14,2.04,8.6588,-62.734199999999994,-6.7044,175,75
2026-05-09 14:54:26.370,2,1.19,0.33,1.77,11.338799999999999,-56.2142,6.5855999999999995,175,75
2026-05-09 14:54:26.370,2,1.06,0.18,1.64,2.8688000000000002,-53.164199999999994,17.8056,175,75
2026-05-09 14:54:26.387,2,0.82,0.13,1.63,-1.4611999999999998,47.445800000000006,13.9056,175,75
2026-05-09 14:54:26.404,2,0.99,0.17,1.74,-7.4412,66.28580000000001,49.205600000000004,175,75
2026-05-09 14:54:26.419,2,1.14,0.2,1.78,-20.4912,33.2458,44.8756,175,75
2026-05-09 14:54:26.435,2,1.17,0.2,1.97,-43.231199999999994,-3.9541999999999993,25.3056,175,75
2026-05-09 14:54:26.446,2,1.05,0.24,1.96,-44.09119999999999,-40.1742,26.8856,175,75
2026-05-09 14:54:26.466,2,1.48,0.15,1.85,-51.1012,-95.7242,28.0456,175,75
2026-05-09 14:54:26.477,2,1.19,0.07,1.68,-64.94120000000001,-139.9242,19.0856,175,75
2026-05-09 14:54:26.477,2,1.18,0.04,1.75,-74.02120000000001,-133.4042,3.5356000000000005,175,75
2026-05-09 14:54:26.499,2,1.35,0.12,1.87,-74.5112,-95.8442,-1.1644000000000005,175,75
2026-05-09 14:54:26.513,2,1.38,-0.03,2.0,-62.6812,-105.96419999999999,4.025599999999999,175,75
2026-05-09 14:54:26.589,2,0.97,-0.17,1.89,-47.5612,-80.35419999999999,-4.144400000000001,175,75
2026-05-09 14:54:26.589,2,1.3,-0.12,1.81,-40.371199999999995,-38.404199999999996,3.105599999999999,175,75
2026-05-09 14:54:26.612,2,0.98,0.06,1.77,-38.051199999999994,-24.3142,13.4756,175,75
2026-05-09 14:54:26.612,2,0.65,0.28,1.75,-32.5612,4.945800000000001,-1.0344000000000015,175,75
2026-05-09 14:54:26.623,2,1.07,0.16,2.22,-21.101200000000002,-36.4542,33.9056,175,75
2026-05-09 14:54:26.636,2,0.97,-0.08,2.36,-10.1812,-83.3442,15.4856,175,75
2026-05-09 14:54:26.676,2,1.3,-0.1,1.96,18.288800000000002,-354.38419999999996,-51.16439999999999,175,75
2026-05-09 14:54:26.687,2,1.44,-0.12,1.65,-10.3712,-436.63419999999996,-76.89439999999999,175,75
2026-05-09 14:54:26.704,2,1.25,-0.07,1.44,-25.1812,-429.9942,-84.8144,175,75
2026-05-09 14:54:26.711,2,1.25,-0.05,1.28,-34.151199999999996,-415.6042,-87.9844,175,75
2026-05-09 14:54:26.716,2,1.29,-0.03,1.15,-49.331199999999995,-411.0842,-92.68440000000001,175,75
2026-05-09 14:54:26.741,2,1.11,0.07,1.19,-77.0112,-368.3442,-63.114399999999996,175,75
2026-05-09 14:54:26.764,2,1.13,0.07,1.06,-123.9012,-396.14419999999996,-26.284399999999998,175,75
2026-05-09 14:54:26.787,2,1.03,0.06,0.75,-152.9912,-370.2942,21.1556,175,75
2026-05-09 14:54:26.870,2,1.03,0.06,0.64,-146.5212,-322.4942,42.9856,175,75
2026-05-09 14:54:26.902,2,1.22,-0.33,0.92,-121.4612,36.1058,185.4856,175,75
2026-05-09 14:54:26.903,2,1.24,-0.41,1.0,-127.32119999999999,51.8958,195.3056,175,75
2026-05-09 14:54:26.959,2,1.28,-0.44,1.02,-146.5912,55.7458,227.6156,175,75
2026-05-09 14:54:27.005,2,1.19,-0.82,1.31,-158.72119999999998,32.3258,281.8856,175,75
2026-05-09 14:54:27.012,2,1.23,-0.97,1.42,-157.38119999999998,-26.2042,293.9056,175,75
2026-05-09 14:54:27.024,2,1.58,-1.17,1.57,-133.41119999999998,-148.5842,323.3556,175,75
2026-05-09 14:54:27.034,2,1.78,-1.32,1.55,-108.05120000000001,-163.6442,322.68559999999997,175,75
2026-05-09 14:54:27.054,2,1.82,-1.43,1.48,-82.2612,-159.13420000000002,327.6156,175,75
2026-05-09 14:54:27.076,2,1.66,-1.47,1.37,-54.6312,-150.0542,322.6156,175,75
2026-05-09 14:54:27.080,2,1.59,-1.45,1.22,-28.4112,-145.35420000000002,325.6656,175,75
2026-05-09 14:54:27.130,2,12.35,-4.07,-0.34,-143.0512,196.3558,48.965599999999995,175,75
2026-05-09 14:54:27.130,2,3.1,-2.88,-1.3,-120.1812,-121.5142,152.8656,175,75
2026-05-09 14:54:27.130,2,4.02,-3.64,-0.09,-47.9912,395.3158,-93.5344,175,75
2026-05-09 14:54:27.141,2,2.69,-2.2,0.42,-0.9811999999999999,251.41579999999996,-26.0944,175,75
2026-05-09 14:54:27.152,2,1.29,-1.33,1.03,39.3888,208.2458,-84.6944,175,75
2026-05-09 14:54:27.163,2,1.36,-1.05,1.28,34.1488,149.0358,-84.8144,175,75
2026-05-09 14:54:27.175,2,1.26,-1.01,1.14,-30.491200000000003,-11.0842,-23.904400000000003,175,75
2026-05-09 14:54:27.175,2,1.12,-1.28,1.01,-52.5612,-72.49419999999999,-18.6644,175,75
2026-05-09 14:54:27.187,2,1.13,-1.6,0.87,-59.8212,-108.10419999999999,-20.9144,175,75
2026-05-09 14:54:27.217,2,1.36,-1.4,0.52,-62.81119999999999,-66.0842,-11.3444,175,75
2026-05-09 14:54:27.251,2,1.1,-1.18,0.88,-33.84119999999999,71.0458,9.445599999999999,175,75
2026-05-09 14:54:27.267,2,1.17,-1.18,1.04,-30.4312,62.445800000000006,15.5456,175,75
2026-05-09 14:54:27.267,2,1.22,-1.2,1.22,-37.8112,36.5358,17.0756,175,75
2026-05-09 14:54:27.304,2,1.1,-1.1,1.28,-46.161199999999994,-14.014199999999999,20.4256,175,75
2026-05-09 14:54:27.304,2,1.08,-1.06,1.32,-44.6312,-22.6742,21.5856,175,75
2026-05-09 14:54:27.322,2,1.12,-1.03,1.33,-44.941199999999995,-36.694199999999995,25.5456,175,75
2026-05-09 14:54:27.336,2,1.1,-1.0,1.28,-46.59119999999999,-50.6042,28.9056,175,75
2026-05-09 14:54:27.348,2,1.14,-1.01,1.23,-46.041199999999996,-49.9242,27.4356,175,75
2026-05-09 14:54:27.359,2,1.14,-1.03,1.18,-40.731199999999994,-33.834199999999996,27.7456,175,75
2026-05-09 14:54:27.359,2,1.11,-1.02,1.11,-38.9612,-24.4442,31.8856,175,75
2026-05-09 14:54:27.374,2,1.15,-0.98,1.03,-41.9512,-16.6342,34.6956,175,75
2026-05-09 14:54:27.387,2,1.22,-0.96,0.98,-45.6712,2.3258,34.8756,175,75
2026-05-09 14:54:27.410,2,1.41,-1.08,1.06,-51.5212,16.965799999999998,26.525599999999997,175,75
2026-05-09 14:54:27.422,2,1.43,-1.07,1.05,-63.0512,9.395800000000001,22.5556,175,75
2026-05-09 14:54:27.562,2,1.6,-1.01,1.01,-55.0612,115.00580000000001,25.1856,175,75
2026-05-09 14:54:27.562,2,1.6,-0.98,1.02,-48.411199999999994,139.9458,23.9056,175,75
2026-05-09 14:54:27.594,2,1.54,-0.93,1.0,-56.4612,133.30579999999998,22.4956,175,75
2026-05-09 14:54:27.615,2,1.6,-0.96,0.95,-68.1712,125.9858,19.9956,175,75
2026-05-09 14:54:27.625,2,1.59,-0.92,0.94,-69.8212,134.8258,19.2656,175,75
2026-05-09 14:54:27.648,2,1.69,-0.95,0.93,-72.7412,128.9158,15.4856,175,75
2026-05-09 14:54:27.648,2,1.99,-1.07,0.93,-83.11120000000001,118.3058,9.8156,175,75
2026-05-09 14:54:27.662,2,2.05,-1.03,0.88,-88.2312,137.14579999999998,6.8856,175,75
2026-05-09 14:54:27.674,2,2.11,-0.85,0.86,-82.6212,159.8258,-4.144400000000001,175,75
2026-05-09 14:54:27.713,2,1.82,-0.5,0.73,-91.77120000000001,162.7558,-16.584400000000002,175,75
2026-05-09 14:54:27.724,2,1.73,-0.52,0.63,-99.0912,158.1858,-20.3044,175,75
2026-05-09 14:54:27.739,2,1.65,-0.55,0.55,-112.1312,156.5958,-21.404400000000003,175,75
2026-05-09 14:54:27.772,2,1.51,-0.51,0.58,-129.0912,162.08579999999998,-10.3644,175,75
2026-05-09 14:54:27.783,2,1.57,-0.56,0.56,-135.1212,140.98579999999998,-4.574400000000001,175,75
2026-05-09 14:54:27.824,2,1.65,-0.85,0.74,-142.9312,128.1858,17.6856,175,75
2026-05-09 14:54:27.847,2,1.62,-0.88,0.73,-144.82119999999998,112.50580000000001,27.6856,175,75
2026-05-09 14:54:27.857,2,1.69,-0.84,0.72,-139.2112,113.3058,31.8256,175,75
2026-05-09 14:54:27.868,2,1.78,-0.76,0.64,-129.57119999999998,104.9458,41.8256,175,75
2026-05-09 14:54:27.885,2,1.87,-0.83,0.55,-135.9812,75.3758,37.1356,175,75
2026-05-09 14:54:27.885,2,1.76,-0.78,0.56,-146.3412,98.78580000000001,39.5756,175,75
2026-05-09 14:54:27.906,2,1.86,-0.58,0.54,-133.0512,122.87580000000001,41.1556,175,75
2026-05-09 14:54:27.906,2,1.94,-0.49,0.57,-121.2812,102.81580000000001,37.1356,175,75
2026-05-09 14:54:27.929,2,1.83,-0.43,0.44,-140.06119999999999,88.7258,32.6856,175,75
2026-05-09 14:54:27.940,2,1.76,-0.36,0.33,-139.2712,89.9458,34.3256,175,75
2026-05-09 14:54:27.973,2,1.61,-0.32,0.2,-127.8712,96.0458,35.3656,175,75
2026-05-09 14:54:27.985,2,1.61,-0.3,0.23,-120.3712,117.4458,36.465599999999995,175,75
2026-05-09 14:54:27.985,2,1.88,-0.29,0.11,-111.83120000000001,100.4958,36.8256,175,75
2026-05-09 14:54:28.006,2,1.87,-0.38,0.21,-113.72120000000001,75.7458,23.9656,175,75
2026-05-09 14:54:28.020,2,1.9,-0.18,0.23,-88.2312,49.0358,29.7556,175,75
2026-05-09 14:54:28.032,2,1.82,-0.24,0.14,-80.3112,9.585799999999999,24.0256,175,75
2026-05-09 14:54:28.043,2,2.04,-0.36,0.06,-75.3112,-2.2441999999999993,18.7156,175,75
2026-05-09 14:54:28.079,2,1.7,-0.24,-0.1,-5.5512,54.945800000000006,1.2756000000000007,175,75
2026-05-09 14:54:28.079,2,1.64,-0.07,-0.1,5.2988,72.6958,5.9155999999999995,175,75
2026-05-09 14:54:28.100,2,1.8,-0.19,0.05,16.7688,102.4458,8.1656,175,75
2026-05-09 14:54:28.113,2,2.05,-0.55,0.31,24.3888,123.9758,8.9056,175,75
2026-05-09 14:54:28.128,2,2.03,-0.73,0.46,33.958800000000004,122.08579999999999,8.4756,175,75
2026-05-09 14:54:28.138,2,1.96,-0.75,0.54,43.4788,92.2658,9.2656,175,75
2026-05-09 14:54:28.138,2,1.79,-0.68,0.54,47.3188,38.665800000000004,11.7656,175,75
2026-05-09 14:54:28.155,2,1.74,-0.7,0.55,40.1188,12.145800000000001,14.3856,175,75
2026-05-09 14:54:28.189,2,1.52,-0.96,0.48,36.948800000000006,47.875800000000005,41.1556,175,75
2026-05-09 14:54:28.247,2,1.43,-1.1,0.9,8.8988,33.7858,56.4656,175,75
2026-05-09 14:54:28.247,2,1.42,-1.21,0.83,-5.1812000000000005,35.6158,56.8256,175,75
2026-05-09 14:54:28.254,2,1.45,-1.32,0.77,-13.481200000000001,36.1058,50.0556,175,75
2026-05-09 14:54:28.281,2,1.53,-1.33,0.7,-13.5412,41.7158,43.7756,175,75
2026-05-09 14:54:28.281,2,1.4,-1.19,0.64,-13.481200000000001,61.28580000000001,45.1156,175,75
2026-05-09 14:54:28.296,2,1.35,-0.98,0.66,-16.4012,87.6358,42.1956,175,75
2026-05-09 14:54:28.308,2,1.3,-0.94,0.72,-24.0212,104.8258,44.8756,175,75
2026-05-09 14:54:28.318,2,1.58,-1.09,0.93,-32.9912,132.4458,42.1956,175,75
2026-05-09 14:54:28.338,2,1.75,-1.29,1.04,-39.7012,124.9458,40.855599999999995,175,75
2026-05-09 14:54:28.350,2,1.76,-1.4,1.05,-40.2412,103.2458,34.0256,175,75
2026-05-09 14:54:28.363,2,1.72,-1.4,1.03,-37.7412,89.8258,28.965600000000002,175,75
2026-05-09 14:54:28.373,2,1.51,-1.38,0.9,-42.621199999999995,67.3858,26.3356,175,75
2026-05-09 14:54:28.398,2,1.36,-1.45,0.75,-54.4512,52.025800000000004,31.8256,175,75
2026-05-09 14:54:28.398,2,1.35,-1.62,0.79,-59.09119999999999,48.8558,39.5756,175,75
2026-05-09 14:54:28.428,2,1.12,-1.67,0.84,-71.0412,20.4358,42.0756,175,75
2026-05-09 14:54:28.444,2,1.0,-1.52,0.84,-73.2912,30.255799999999997,50.6056,175,75
2026-05-09 14:54:28.455,2,0.98,-1.36,0.72,-73.9012,44.7058,65.6656,175,75
2026-05-09 14:54:28.476,2,1.29,-1.43,0.8,-65.1212,110.7458,75.60560000000001,175,75
2026-05-09 14:54:28.516,2,1.35,-1.51,0.69,-73.4812,136.83579999999998,93.90559999999999,175,75
2026-05-09 14:54:28.527,2,1.2,-1.44,0.57,-66.5912,272.8158,88.7756,175,75
2026-05-09 14:54:28.540,2,1.14,-1.34,0.67,-54.09119999999999,334.1558,93.7756,175,75
2026-05-09 14:54:28.551,2,1.06,-1.29,0.93,-35.3112,380.55580000000003,86.7656,175,75
2026-05-09 14:54:28.575,2,1.46,-1.36,1.25,-31.771200000000004,403.7258,72.7456,175,75
2026-05-09 14:54:28.585,2,1.54,-1.35,1.32,-52.871199999999995,390.80580000000003,66.5856,175,75
2026-05-09 14:54:28.598,2,1.56,-1.3,1.31,-63.6612,376.8358,62.2556,175,75
2026-05-09 14:54:28.598,2,1.49,-1.22,1.28,-61.89119999999999,361.5958,55.9756,175,75
2026-05-09 14:54:28.609,2,1.45,-1.17,1.29,-55.2412,348.60580000000004,49.1456,175,75
2026-05-09 14:54:28.622,2,1.41,-1.09,1.3,-48.721199999999996,331.9658,44.8156,175,75
2026-05-09 14:54:28.634,2,1.38,-1.01,1.32,-47.011199999999995,316.8958,43.715599999999995,175,75
2026-05-09 14:54:28.652,2,1.36,-0.8,1.31,-48.481199999999994,266.6558,48.9056,175,75
2026-05-09 14:54:28.673,2,1.33,-0.71,1.19,-50.6112,210.3158,67.6856,175,75
2026-05-09 14:54:28.690,2,1.27,-0.76,1.04,-57.621199999999995,177.5758,79.6956,175,75
2026-05-09 14:54:28.710,2,1.28,-0.71,0.85,-64.5112,137.7558,88.29560000000001,175,75
2026-05-09 14:54:28.730,2,1.4,-0.64,0.74,-73.41120000000001,100.92580000000001,94.57560000000001,175,75
2026-05-09 14:54:28.736,2,1.49,-0.53,0.63,-90.61120000000001,56.53580000000001,104.9356,175,75
2026-05-09 14:54:28.755,2,1.65,-0.44,0.47,-111.5912,14.0958,108.47559999999999,175,75
2026-05-09 14:54:28.763,2,1.73,-0.4,0.35,-128.41119999999998,-9.924199999999999,109.0856,175,75
2026-05-09 14:54:28.774,2,1.95,-0.38,0.3,-148.72119999999998,-18.7742,114.0856,175,75
2026-05-09 14:54:28.787,2,2.2,-0.39,0.15,-166.8912,-47.6742,117.4956,175,75
2026-05-09 14:54:28.823,2,2.47,-0.71,-0.03,-195.6712,-126.3942,97.4956,175,75
2026-05-09 14:54:28.823,2,2.43,-0.89,-0.15,-211.28119999999998,-144.2542,90.60560000000001,175,75
2026-05-09 14:54:28.834,2,2.45,-1.16,-0.25,-225.6712,-163.5842,78.10560000000001,175,75
2026-05-09 14:54:28.841,2,2.53,-1.34,-0.32,-246.3412,-189.7442,62.8656,175,75
2026-05-09 14:54:28.884,2,2.54,-1.47,-0.77,-280.9812,-172.0042,17.2556,175,75
2026-05-09 14:54:28.894,2,2.51,-1.55,-0.91,-274.7012,-118.46419999999999,2.685599999999999,175,75
2026-05-09 14:54:28.930,2,2.52,-1.76,-0.91,-266.1012,47.9358,-12.5644,175,75
2026-05-09 14:54:28.943,2,2.62,-1.98,-0.38,-250.31119999999999,229.4658,-56.3444,175,75
2026-05-09 14:54:28.943,2,2.65,-2.03,-0.08,-234.3912,276.4758,-81.52440000000001,175,75
2026-05-09 14:54:28.949,2,2.73,-2.06,0.3,-215.6712,296.9658,-115.67440000000002,175,75
2026-05-09 14:54:28.961,2,2.76,-2.11,0.84,-198.78119999999998,274.5258,-159.5744,175,75
2026-05-09 14:54:28.979,2,2.67,-2.15,1.15,-191.4612,244.0958,-190.61440000000002,175,75
2026-05-09 14:54:28.992,2,2.5,-2.16,1.44,-181.9512,195.61579999999998,-228.2344,175,75
2026-05-09 14:54:28.992,2,2.43,-2.11,1.52,-164.7612,152.5758,-248.6644,175,75
2026-05-09 14:54:29.006,2,2.38,-2.05,1.54,-144.2712,113.9758,-259.75440000000003,175,75
2026-05-09 14:54:29.010,2,2.39,-2.02,1.51,-123.11120000000001,70.9858,-268.5944,175,75
2026-05-09 14:54:29.020,2,2.31,-2.09,1.44,-111.5912,49.945800000000006,-276.2844,175,75
2026-05-09 14:54:29.043,2,2.06,-2.27,1.24,-82.6812,82.4458,-294.2044,175,75
2026-05-09 14:54:29.053,2,1.99,-2.33,1.2,-45.981199999999994,123.05579999999999,-308.6644,175,75
2026-05-09 14:54:29.065,2,1.96,-2.33,1.25,-8.901200000000001,144.8258,-316.7044,175,75
2026-05-09 14:54:29.087,2,1.83,-2.34,1.27,54.3288,153.30579999999998,-320.3644,175,75
2026-05-09 14:54:29.098,2,1.8,-2.37,1.26,82.8688,146.2258,-320.9144,175,75
2026-05-09 14:54:29.098,2,1.76,-2.39,1.24,108.47879999999999,143.42579999999998,-317.31440000000003,175,75
2026-05-09 14:54:29.124,2,1.73,-2.39,1.23,136.0988,145.3758,-317.9244,175,75
2026-05-09 14:54:29.134,2,1.74,-2.37,1.23,157.7388,145.2558,-315.6744,175,75
2026-05-09 14:54:29.158,2,1.78,-2.45,1.2,198.5988,102.2058,-307.0744,175,75
2026-05-09 14:54:29.158,2,1.71,-2.49,1.14,208.0488,81.53580000000001,-304.0844,175,75
2026-05-09 14:54:29.193,2,1.62,-2.34,0.87,243.71880000000002,74.03580000000001,-290.4844,175,75
2026-05-09 14:54:29.242,2,1.47,-2.23,0.89,284.9988,60.31580000000001,-270.06440000000003,175,75
2026-05-09 14:54:29.256,2,1.58,-2.13,0.95,290.78880000000004,25.195800000000002,-260.4844,175,75
2026-05-09 14:54:29.276,2,1.55,-2.34,0.73,286.7088,-47.8542,-255.3044,175,75
2026-05-09 14:54:29.289,2,1.48,-2.28,0.58,290.2388,-45.474199999999996,-257.6844,175,75
2026-05-09 14:54:29.300,2,1.48,-2.11,0.44,294.1488,-24.1942,-254.45440000000002,175,75
2026-05-09 14:54:29.338,2,1.6,-1.98,0.51,296.5188,1.8357999999999999,-242.62439999999998,175,75
2026-05-09 14:54:29.357,2,1.54,-1.98,0.43,295.9088,-13.464199999999998,-243.7244,175,75
2026-05-09 14:54:29.404,2,1.56,-1.61,0.22,281.3988,6.775800000000001,-223.2944,175,75
2026-05-09 14:54:29.450,2,1.47,-1.48,0.11,278.16880000000003,19.9458,-215.67440000000002,175,75
2026-05-09 14:54:29.462,2,1.56,-1.41,0.15,275.9088,19.8858,-207.0144,175,75
2026-05-09 14:54:29.515,2,1.47,-1.27,-0.08,259.1488,-3.644199999999999,-201.0944,175,75
2026-05-09 14:54:29.515,2,1.48,-1.13,-0.08,253.4088,11.0458,-189.39440000000002,175,75
2026-05-09 14:54:29.573,2,1.61,-1.45,0.08,261.8888,-54.624199999999995,-175.0644,175,75
2026-05-09 14:54:29.587,2,1.44,-1.41,-0.05,266.03880000000004,-76.88419999999999,-179.5744,175,75
2026-05-09 14:54:29.620,2,1.41,-1.41,-0.14,268.8988,-58.224199999999996,-177.7444,175,75
2026-05-09 14:54:29.632,2,1.43,-1.44,-0.14,270.78880000000004,-52.0042,-178.5344,175,75
2026-05-09 14:54:29.674,2,1.43,-1.73,-0.1,284.2088,-50.474199999999996,-191.0944,175,75
2026-05-09 14:54:29.689,2,1.37,-1.74,-0.11,285.66880000000003,-50.664199999999994,-192.4444,175,75
2026-05-09 14:54:29.704,2,1.15,-1.59,-0.27,271.5188,-51.8142,-194.2744,175,75
2026-05-09 14:54:29.712,2,1.18,-1.51,-0.32,264.5088,-43.6442,-193.11440000000002,175,75
2026-05-09 14:54:29.726,2,1.26,-1.51,-0.34,262.0688,-22.554199999999998,-188.17440000000002,175,75
2026-05-09 14:54:29.740,2,1.33,-1.61,-0.3,260.2988,0.2558000000000007,-185.67440000000002,175,75
2026-05-09 14:54:29.767,2,0.95,-1.4,-0.44,231.9488,7.265800000000001,-172.0144,175,75
2026-05-09 14:54:29.790,2,0.96,-1.41,-0.43,215.7888,30.075799999999997,-144.0244,175,75
2026-05-09 14:54:29.814,2,1.14,-1.52,-0.27,193.9588,39.7058,-116.1644,175,75
2026-05-09 14:54:29.904,2,1.21,-0.91,-0.07,103.0488,44.095800000000004,0.05559999999999832,175,75
2026-05-09 14:54:29.960,2,1.41,-0.58,0.3,1.8288,82.4458,69.81559999999999,175,75
2026-05-09 14:54:30.005,2,1.64,-0.8,0.48,-69.7012,60.805800000000005,74.4456,175,75
2026-05-09 14:54:30.105,2,1.82,-0.72,0.73,-143.35119999999998,115.4358,62.315599999999996,175,75
2026-05-09 14:54:30.118,2,1.96,-0.52,0.83,-151.7712,103.6658,56.5256,175,75
2026-05-09 14:54:30.133,2,1.95,-0.53,0.85,-168.41119999999998,83.3058,51.8256,175,75
2026-05-09 14:54:30.184,2,1.86,-0.5,0.75,-172.38119999999998,82.6358,54.0256,175,75
2026-05-09 14:54:30.198,2,1.89,-0.37,0.78,-175.7312,75.0758,55.3656,175,75
2026-05-09 14:54:30.226,2,1.89,-0.39,0.66,-188.2312,60.86580000000001,55.6656,175,75
2026-05-09 14:54:30.281,2,1.85,-0.35,0.58,-190.2412,118.11580000000001,72.9256,175,75
2026-05-09 14:54:30.313,2,1.89,-0.48,0.56,-199.3312,109.2158,75.2456,175,75
2026-05-09 14:54:30.325,2,1.9,-0.54,0.51,-201.8312,106.7158,75.2456,175,75
2026-05-09 14:54:30.325,2,1.91,-0.55,0.5,-202.81119999999999,107.9358,75.9156,175,75
2026-05-09 14:54:30.348,2,1.86,-0.37,0.52,-201.8912,119.9458,78.90559999999999,175,75
2026-05-09 14:54:30.381,2,1.87,-0.39,0.54,-203.66119999999998,119.0958,78.9656,175,75
2026-05-09 14:54:30.381,2,1.92,-0.42,0.55,-203.4812,106.5958,77.6856,175,75
2026-05-09 14:54:30.420,2,1.93,-0.4,0.51,-209.3912,91.4158,71.82560000000001,175,75
2026-05-09 14:54:30.432,2,1.87,-0.35,0.5,-207.0112,91.2258,71.2156,175,75
2026-05-09 14:54:30.490,2,1.78,-0.26,0.49,-211.16119999999998,98.5458,68.9656,175,75
2026-05-09 14:54:30.505,2,1.76,-0.13,0.49,-200.2412,99.64580000000001,72.6856,175,75
2026-05-09 14:54:30.538,2,1.9,-0.19,0.55,-187.6212,50.6158,65.6656,175,75
2026-05-09 14:54:30.560,2,1.9,-0.14,0.52,-181.5212,20.2558,60.9756,175,75
2026-05-09 14:54:30.583,2,1.86,-0.01,0.34,-170.7312,-21.6942,55.7956,175,75
2026-05-09 14:54:30.602,2,2.01,0.0,0.28,-163.5412,-24.1942,52.0756,175,75
2026-05-09 14:54:30.622,2,2.08,-0.02,0.2,-162.0112,-41.944199999999995,41.1556,175,75
2026-05-09 14:54:30.622,2,2.07,0.02,0.13,-157.56119999999999,-51.27419999999999,35.605599999999995,175,75
2026-05-09 14:54:30.643,2,2.05,0.1,0.05,-148.9012,-59.804199999999994,31.095599999999997,175,75
2026-05-09 14:54:30.658,2,2.01,0.22,-0.0,-143.72119999999998,-62.124199999999995,33.355599999999995,175,75
2026-05-09 14:54:30.669,2,2.02,0.27,-0.02,-142.0112,-61.8142,31.035600000000002,175,75
2026-05-09 14:54:30.683,2,2.05,0.23,-0.03,-141.22119999999998,-57.734199999999994,16.8256,175,75
2026-05-09 14:54:30.695,2,2.04,0.18,-0.04,-134.3312,-67.9742,5.3056,175,75
2026-05-09 14:54:30.727,2,1.97,0.32,-0.04,-117.5012,-76.4542,-2.014400000000002,175,75
2026-05-09 14:54:30.753,2,2.02,0.34,0.06,-114.4512,-86.6942,-7.444400000000002,175,75
2026-05-09 14:54:30.778,2,2.04,0.29,0.04,-116.77120000000001,-110.5342,-18.2344,175,75
2026-05-09 14:54:30.792,2,2.05,0.29,0.0,-115.7912,-115.4142,-24.6344,175,75
2026-05-09 14:54:30.831,2,1.9,0.33,0.0,-102.7412,-78.6442,-24.2044,175,75
2026-05-09 14:54:30.843,2,1.81,0.27,0.08,-104.94120000000001,-67.2442,-22.074399999999997,175,75
2026-05-09 14:54:30.855,2,1.81,0.21,0.14,-113.66120000000001,-64.1942,-23.1744,175,75
2026-05-09 14:54:30.880,2,1.8,0.12,0.2,-133.1712,-66.8142,-31.3444,175,75
2026-05-09 14:54:30.889,2,1.78,0.1,0.19,-138.9012,-68.1642,-33.6644,175,75
2026-05-09 14:54:30.906,2,1.74,0.08,0.18,-145.91119999999998,-62.124199999999995,-35.0044,175,75
2026-05-09 14:54:30.923,2,1.71,0.05,0.16,-151.0412,-46.8142,-35.6744,175,75
2026-05-09 14:54:30.935,2,1.68,-0.01,0.19,-151.9512,0.4358000000000013,-30.5544,175,75
2026-05-09 14:54:30.945,2,1.68,-0.03,0.23,-151.8312,15.7458,-30.4844,175,75
2026-05-09 14:54:30.957,2,1.72,-0.05,0.29,-151.5912,26.5958,-32.3844,175,75
2026-05-09 14:54:30.984,2,1.67,-0.04,0.35,-156.4012,22.9358,-38.7844,175,75
2026-05-09 14:54:30.997,2,1.65,-0.05,0.36,-155.6712,28.7858,-38.5344,175,75
2026-05-09 14:54:31.007,2,1.64,-0.09,0.33,-154.0912,37.9958,-34.5144,175,75
2026-05-09 14:54:31.007,2,1.57,-0.09,0.32,-151.8312,47.265800000000006,-30.0644,175,75
2026-05-09 14:54:31.023,2,1.52,-0.06,0.33,-146.7712,63.11580000000001,-28.0544,175,75
2026-05-09 14:54:31.134,2,1.59,0.12,0.58,-99.8212,102.3258,-8.354400000000002,175,75
2026-05-09 14:54:31.134,2,1.66,0.15,0.64,-93.1712,81.3558,-12.014400000000002,175,75
2026-05-09 14:54:31.176,2,1.56,0.07,0.57,-81.6512,4.3958,-13.1144,175,75
2026-05-09 14:54:31.207,2,1.58,0.27,0.56,-36.221199999999996,79.9458,-4.394400000000001,175,75
2026-05-09 14:54:31.218,2,1.6,0.23,0.56,-33.1712,77.14580000000001,-6.0344000000000015,175,75
2026-05-09 14:54:31.286,2,1.51,0.59,0.56,-14.761199999999999,65.8058,-6.894400000000001,175,75
2026-05-09 14:54:31.293,2,1.35,0.67,0.56,-14.0912,94.2158,7.195599999999999,175,75
2026-05-09 14:54:31.306,2,1.59,0.63,0.67,-12.071200000000001,100.4358,22.6856,175,75
2026-05-09 14:54:31.317,2,1.94,0.24,0.81,-37.5612,-19.8642,6.765599999999999,175,75
2026-05-09 14:54:31.324,2,2.15,0.19,0.74,-61.59119999999999,-116.0242,-8.534400000000002,175,75
2026-05-09 14:54:31.399,2,0.82,-0.37,1.74,-112.1312,-10.604199999999999,-95.24440000000001,175,75
2026-05-09 14:54:31.410,2,8.92,0.02,0.71,-172.6212,55.4358,228.4756,175,75
2026-05-09 14:54:31.422,2,0.59,0.68,-0.72,-28.1712,-266.81419999999997,-188.4144,175,75
2026-05-09 14:54:31.437,2,0.8,1.83,-0.09,25.9088,301.6558,55.5456,175,75
2026-05-09 14:54:31.524,2,1.35,0.54,0.57,-54.511199999999995,-247.4242,17.3156,175,75
2026-05-09 14:54:31.580,2,1.4,0.54,0.71,-14.391200000000001,165.4958,22.1956,175,75
2026-05-09 14:54:31.593,2,1.51,0.57,0.79,-25.0612,125.0758,26.0956,175,75
2026-05-09 14:54:31.603,2,1.55,0.53,0.88,-27.5612,87.14580000000001,30.1156,175,75
2026-05-09 14:54:31.635,2,1.57,0.53,0.93,-12.5012,48.5458,39.0256,175,75
2026-05-09 14:54:31.685,2,1.92,0.59,0.97,-12.6212,-44.3142,44.6356,175,75
2026-05-09 14:54:31.685,2,1.93,0.61,0.91,-10.0012,-41.8842,44.995599999999996,175,75
2026-05-09 14:54:31.717,2,1.97,0.53,0.86,-3.7811999999999997,-33.8942,39.2656,175,75
2026-05-09 14:54:31.717,2,2.03,0.52,0.86,0.8488,-28.284200000000002,34.0256,175,75
2026-05-09 14:54:31.760,2,2.17,0.55,0.88,-1.4012000000000002,-33.5242,23.3556,175,75
2026-05-09 14:54:31.822,2,2.04,0.53,0.76,7.1888000000000005,-8.2842,-2.6844,175,75
2026-05-09 14:54:31.833,2,1.99,0.46,0.79,9.6288,12.6358,-8.2344,175,75
2026-05-09 14:54:31.874,2,1.96,0.44,0.85,12.008799999999999,4.3358,-18.784399999999998,175,75
2026-05-09 14:54:31.893,2,1.88,0.47,0.83,12.7988,3.6058000000000012,-21.584400000000002,175,75
2026-05-09 14:54:31.901,2,1.84,0.47,0.81,12.9888,1.5958000000000014,-24.084400000000002,175,75
2026-05-09 14:54:31.920,2,1.78,0.45,0.81,17.2588,6.045800000000001,-29.6344,175,75
2026-05-09 14:54:31.960,2,1.67,0.46,0.77,17.4988,-4.5642,-34.3344,175,75
2026-05-09 14:54:31.968,2,1.62,0.45,0.77,15.848799999999999,-5.2942,-33.8444,175,75
2026-05-09 14:54:32.033,2,1.41,0.55,0.63,12.438799999999999,-15.2942,-17.9244,175,75
2026-05-09 14:54:32.054,2,1.33,0.52,0.6,19.9388,2.695800000000001,-8.904399999999999,175,75
2026-05-09 14:54:32.065,2,1.34,0.47,0.63,24.6288,13.1858,-4.4544,175,75
2026-05-09 14:54:32.096,2,1.43,0.43,0.75,27.2588,6.1658,4.265599999999999,175,75
2026-05-09 14:54:32.097,2,1.48,0.38,0.78,23.0488,-9.194199999999999,6.275599999999999,175,75
2026-05-09 14:54:32.118,2,1.5,0.36,0.76,17.0088,-39.5042,6.0356000000000005,175,75
2026-05-09 14:54:32.118,2,1.47,0.37,0.69,13.0488,-57.4942,6.2156,175,75
2026-05-09 14:54:32.156,2,1.56,0.28,0.58,13.0488,-36.334199999999996,7.8056,175,75
2026-05-09 14:54:32.200,2,1.52,0.41,0.58,9.7588,-47.304199999999994,-3.9644000000000013,175,75
2026-05-09 14:54:32.277,2,1.88,0.61,0.75,45.6088,3.6058000000000012,29.5756,175,75
2026-05-09 14:54:32.307,2,2.08,0.44,0.75,37.7988,-70.2342,21.8856,175,75
2026-05-09 14:54:32.321,2,2.0,0.36,0.46,17.9888,-118.0342,5.4856,175,75
2026-05-09 14:54:32.344,2,1.93,0.38,0.3,12.928799999999999,-93.9542,-3.9644000000000013,175,75
2026-05-09 14:54:32.369,2,1.97,0.57,0.35,18.718799999999998,23.4858,-16.284399999999998,175,75
2026-05-09 14:54:32.395,2,1.96,0.62,0.45,15.848799999999999,32.695800000000006,-16.224400000000003,175,75
2026-05-09 14:54:32.407,2,1.91,0.63,0.46,10.6688,31.225800000000003,-15.614400000000003,175,75
2026-05-09 14:54:32.476,2,1.88,0.56,0.73,12.188799999999999,68.1858,-20.9144,175,75
2026-05-09 14:54:32.479,2,1.91,0.54,0.81,7.1288,52.3858,-22.684400000000004,175,75
2026-05-09 14:54:32.520,2,1.72,0.54,0.58,-9.5112,17.3258,-22.254399999999997,175,75
2026-05-09 14:54:32.538,2,1.69,0.52,0.61,-5.241199999999999,48.8558,-21.3444,175,75
2026-05-09 14:54:32.538,2,1.71,0.47,0.69,-0.8512,74.7058,-21.834400000000002,175,75
2026-05-09 14:54:32.561,2,1.73,0.45,0.77,2.6788,86.1658,-22.504399999999997,175,75
2026-05-09 14:54:32.633,2,1.77,0.43,0.94,3.9588,50.805800000000005,-23.534399999999998,175,75
2026-05-09 14:54:32.633,2,1.71,0.41,0.93,7.3788,42.025800000000004,-26.224400000000003,175,75
2026-05-09 14:54:32.645,2,1.62,0.44,0.87,12.3188,27.695800000000002,-28.964399999999998,175,75
2026-05-09 14:54:32.645,2,1.58,0.46,0.86,15.608799999999999,34.335800000000006,-29.4544,175,75
2026-05-09 14:54:32.656,2,1.58,0.48,0.84,18.8388,39.8858,-28.724400000000003,175,75
2026-05-09 14:54:32.752,2,1.54,0.47,0.83,33.168800000000005,61.53580000000001,-22.9844,175,75
2026-05-09 14:54:32.774,2,1.53,0.48,0.89,36.3988,68.78580000000001,-19.2744,175,75
2026-05-09 14:54:32.782,2,1.5,0.46,0.87,37.378800000000005,65.0758,-19.0244,175,75
2026-05-09 14:54:32.793,2,1.49,0.47,0.86,39.018800000000006,63.665800000000004,-19.2044,175,75
2026-05-09 14:54:32.793,2,1.49,0.49,0.86,40.848800000000004,67.81580000000001,-17.684400000000004,175,75
2026-05-09 14:54:32.804,2,1.5,0.49,0.87,42.3188,71.7758,-13.174399999999999,175,75
2026-05-09 14:54:32.850,2,1.51,0.51,0.89,47.9288,37.265800000000006,-9.394400000000001,175,75
2026-05-09 14:54:32.917,2,1.5,0.54,0.73,44.628800000000005,32.695800000000006,2.015599999999999,175,75
2026-05-09 14:54:32.946,2,1.4,0.62,0.84,40.238800000000005,73.8558,19.9956,175,75
2026-05-09 14:54:33.049,2,3.27,-0.23,1.12,-102.6812,-175.9642,-47.9244,175,75
2026-05-09 14:54:33.054,2,1.75,0.24,-0.19,-26.4012,-312.9742,-52.3144,175,75
2026-05-09 14:54:33.065,2,1.51,0.38,0.14,34.2688,-145.7842,-133.17440000000002,175,75
2026-05-09 14:54:33.076,2,1.26,1.01,-0.02,64.8188,203.54579999999999,-53.354400000000005,175,75
2026-05-09 14:54:33.088,2,1.55,0.79,0.91,60.7888,356.10580000000004,11.945599999999999,175,75
2026-05-09 14:54:33.100,2,1.44,0.49,1.02,28.1088,315.1958,-42.1344,175,75
2026-05-09 14:54:33.154,2,1.79,0.79,1.12,67.6188,23.4858,17.6156,175,75
2026-05-09 14:54:33.216,2,1.77,0.38,0.84,54.9988,-64.5042,0.605599999999999,175,75
2026-05-09 14:54:33.248,2,1.59,0.42,0.45,51.0388,-60.414199999999994,-12.444400000000002,175,75
2026-05-09 14:54:33.259,2,1.62,0.44,0.27,67.9888,30.5558,-6.0944,175,75
2026-05-09 14:54:33.265,2,1.6,0.46,0.28,72.0688,57.3258,-7.384399999999999,175,75
2026-05-09 14:54:33.276,2,1.59,0.53,0.29,73.3488,85.9858,-5.064399999999999,175,75
2026-05-09 14:54:33.283,2,1.62,0.57,0.33,74.38879999999999,106.7758,0.18560000000000088,175,75
2026-05-09 14:54:33.361,2,1.77,0.51,0.52,46.15880000000001,152.3258,15.7256,175,75
2026-05-09 14:54:33.365,2,1.82,0.49,0.59,45.488800000000005,152.6358,16.3356,175,75
2026-05-09 14:54:33.365,2,1.83,0.49,0.65,46.708800000000004,148.2458,15.855599999999999,175,75
2026-05-09 14:54:33.378,2,1.86,0.51,0.73,49.5088,141.4158,15.7256,175,75
2026-05-09 14:54:33.378,2,1.9,0.51,0.82,51.0388,130.0758,16.4056,175,75
2026-05-09 14:54:33.388,2,1.95,0.49,0.88,51.8888,113.8558,16.7656,175,75
2026-05-09 14:54:33.410,2,1.99,0.45,0.93,51.278800000000004,79.39580000000001,16.8256,175,75
2026-05-09 14:54:33.426,2,2.0,0.38,0.89,49.628800000000005,-30.1742,8.9656,175,75
2026-05-09 14:54:33.430,2,1.97,0.41,0.79,45.848800000000004,-70.7242,4.2056000000000004,175,75
2026-05-09 14:54:33.442,2,1.93,0.43,0.69,42.4388,-85.5342,1.9455999999999989,175,75
2026-05-09 14:54:33.454,2,1.88,0.42,0.6,39.448800000000006,-84.74419999999999,0.7256,175,75
2026-05-09 14:54:33.470,2,1.84,0.41,0.51,38.2288,-60.234199999999994,-2.0744000000000007,175,75
2026-05-09 14:54:33.480,2,1.85,0.38,0.5,40.7888,-51.7542,-4.944400000000002,175,75
2026-05-09 14:54:33.500,2,1.78,0.39,0.47,42.2588,-49.624199999999995,-11.0944,175,75
2026-05-09 14:54:33.570,2,1.73,0.35,0.43,17.9288,2.025800000000001,-13.054400000000001,175,75
2026-05-09 14:54:33.598,2,1.72,0.37,0.43,13.8988,11.895800000000001,-12.5644,175,75
2026-05-09 14:54:33.644,2,1.61,0.36,0.57,14.3288,41.3558,-9.7544,175,75
2026-05-09 14:54:33.683,2,1.56,0.41,0.59,2.0688,10.925799999999999,-7.194400000000002,175,75
2026-05-09 14:54:33.696,2,1.57,0.42,0.59,2.9888,6.595800000000001,-5.7943999999999996,175,75
2026-05-09 14:54:33.708,2,1.57,0.42,0.58,4.3888,1.8357999999999999,-3.8444000000000003,175,75
2026-05-09 14:54:33.743,2,1.57,0.41,0.56,6.2188,-5.4742,0.4255999999999993,175,75
2026-05-09 14:54:33.785,2,1.64,0.37,0.62,10.9088,-9.5642,1.5256000000000007,175,75
2026-05-09 14:54:33.814,2,1.54,0.5,0.5,3.2288,-43.7142,-1.1644000000000005,175,75
2026-05-09 14:54:33.823,2,1.51,0.49,0.46,3.5388,-37.5542,-0.5544000000000011,175,75
2026-05-09 14:54:33.897,2,1.49,0.51,0.44,5.5488,-10.1142,4.6356,175,75
2026-05-09 14:54:33.912,2,1.58,0.51,0.54,4.9388000000000005,13.425799999999999,11.945599999999999,175,75
2026-05-09 14:54:33.912,2,1.62,0.49,0.58,3.7188,10.925799999999999,12.7456,175,75
2026-05-09 14:54:33.939,2,1.65,0.47,0.62,1.5188,2.445800000000001,12.375599999999999,175,75
2026-05-09 14:54:33.951,2,1.64,0.47,0.6,0.8488,-19.5042,11.095600000000001,175,75
2026-05-09 14:54:33.951,2,1.65,0.5,0.6,-4.151199999999999,-14.924199999999999,11.035599999999999,175,75
2026-05-09 14:54:33.951,2,1.67,0.51,0.6,-5.981200000000001,-10.4742,11.095600000000001,175,75
2026-05-09 14:54:33.979,2,1.67,0.57,0.6,-11.7712,-17.7942,11.3356,175,75
2026-05-09 14:54:33.987,2,1.68,0.6,0.61,-16.1612,-17.4242,12.6856,175,75
2026-05-09 14:54:34.101,2,1.87,0.63,0.78,-25.6112,-41.27419999999999,19.0256,175,75
2026-05-09 14:54:34.101,2,1.91,0.59,0.79,-27.9312,-53.9542,17.8656,175,75
2026-05-09 14:54:34.116,2,1.95,0.56,0.74,-28.9612,-63.9542,16.2756,175,75
2026-05-09 14:54:34.147,2,1.9,0.54,0.69,-24.2712,-44.3142,8.8356,175,75
2026-05-09 14:54:34.147,2,1.87,0.54,0.71,-22.9912,-33.9542,8.0456,175,75
2026-05-09 14:54:34.161,2,1.87,0.5,0.73,-22.3812,-31.2742,6.3355999999999995,175,75
2026-05-09 14:54:34.308,2,1.59,0.46,0.84,-2.9911999999999996,34.7058,-10.304400000000001,175,75
2026-05-09 14:54:34.411,2,1.57,0.49,0.88,20.1188,12.5058,-1.9543999999999997,175,75
2026-05-09 14:54:34.481,2,1.58,0.49,0.77,25.7288,-23.1042,-1.2844000000000015,175,75
2026-05-09 14:54:34.481,2,1.56,0.51,0.73,27.7988,-23.9542,-0.7344000000000008,175,75
2026-05-09 14:54:34.481,2,1.58,0.5,0.72,29.5088,-20.4742,0.4255999999999993,175,75
2026-05-09 14:54:34.481,2,1.61,0.47,0.72,30.2988,-18.644199999999998,0.855599999999999,175,75
2026-05-09 14:54:34.493,2,1.63,0.45,0.71,31.5188,-27.1842,-1.644400000000001,175,75
2026-05-09 14:54:34.510,2,1.64,0.45,0.7,30.8488,-36.6342,-4.7544,175,75
2026-05-09 14:54:34.552,2,1.62,0.56,0.51,23.4788,-36.4542,-7.564399999999999,175,75
2026-05-09 14:54:34.621,2,1.43,0.59,0.55,18.288800000000002,39.6458,-5.244399999999999,175,75
2026-05-09 14:54:34.698,2,1.61,0.67,0.28,-30.731199999999998,-149.01420000000002,-22.684400000000004,175,75
2026-05-09 14:54:34.698,2,-1.05,1.09,0.15,-1.3412000000000002,-111.4542,-74.9444,175,75
2026-05-09 14:54:34.698,2,0.57,0.76,0.88,-19.3912,-39.7442,-151.2244,175,75
2026-05-09 14:54:34.713,2,0.96,0.16,-0.78,1.7088,-369.6842,-193.8444,175,75
2026-05-09 14:54:34.724,2,1.24,0.7,-0.02,13.8988,84.2158,-34.3344,175,75
2026-05-09 14:54:34.743,2,1.66,1.17,0.31,53.838800000000006,262.99580000000003,64.9956,175,75
2026-05-09 14:54:34.781,2,2.02,0.45,0.91,3.0488,274.8858,54.6956,175,75
2026-05-09 14:54:34.781,2,1.81,0.07,1.25,-49.09119999999999,51.655800000000006,-41.9544,175,75
2026-05-09 14:54:34.791,2,2.04,0.5,1.08,-55.731199999999994,-115.0542,2.0756000000000014,175,75
2026-05-09 14:54:34.837,2,1.62,0.5,0.57,-32.441199999999995,-370.2942,-2.314399999999999,175,75
2026-05-09 14:54:34.849,2,1.14,0.4,-0.07,-62.261199999999995,-150.47420000000002,-21.894399999999997,175,75
2026-05-09 14:54:34.894,2,1.32,0.34,-0.05,-10.491200000000001,108.3058,-5.1844,175,75
2026-05-09 14:54:34.894,2,1.42,0.41,0.39,-3.4812,187.6958,-2.1343999999999994,175,75
2026-05-09 14:54:34.936,2,1.59,0.48,0.59,-13.5412,83.7258,8.8356,175,75
2026-05-09 14:54:34.957,2,1.57,0.55,0.63,2.5587999999999997,73.3058,7.7456,175,75
2026-05-09 14:54:34.979,2,1.68,0.52,0.69,1.3388,53.6058,9.2056,175,75
2026-05-09 14:54:35.145,2,1.79,0.51,0.66,-4.5112000000000005,-3.1641999999999992,4.6356,175,75
2026-05-09 14:54:35.155,2,1.75,0.57,0.63,-9.0212,-35.0542,2.9856,175,75
2026-05-09 14:54:35.155,2,1.78,0.56,0.6,-8.6012,-31.8142,2.1356,175,75
2026-05-09 14:54:35.155,2,1.8,0.58,0.6,-6.651200000000001,-15.2342,3.5955999999999992,175,75
2026-05-09 14:54:35.163,2,1.83,0.58,0.62,-3.7212,-5.174199999999999,2.8656000000000006,175,75
2026-05-09 14:54:35.179,2,1.87,0.53,0.7,-0.9112,-0.7241999999999997,-1.1644000000000005,175,75
2026-05-09 14:54:35.179,2,1.85,0.58,0.71,1.6488,-14.504199999999999,-5.244399999999999,175,75
2026-05-09 14:54:35.207,2,1.83,0.57,0.7,2.7988,-43.584199999999996,-10.554400000000001,175,75
2026-05-09 14:54:35.390,2,1.45,0.61,0.6,18.8388,-4.1342,-21.404400000000003,175,75
2026-05-09 14:54:35.402,2,1.32,0.52,0.55,16.1588,14.465799999999998,-14.0244,175,75
2026-05-09 14:54:35.420,2,1.27,0.31,0.69,18.898799999999998,16.1058,-13.5944,175,75
2026-05-09 14:54:35.432,2,1.27,0.3,0.69,15.2988,-2.5542,-12.5044,175,75
2026-05-09 14:54:35.435,2,1.26,0.29,0.66,8.5988,-29.3142,-8.8444,175,75
2026-05-09 14:54:35.448,2,1.21,0.27,0.63,6.6488,-38.3442,-6.3444,175,75
2026-05-09 14:54:35.460,2,1.14,0.28,0.52,7.008800000000001,-40.724199999999996,-3.054400000000001,175,75
2026-05-09 14:54:35.467,2,1.09,0.26,0.45,9.2088,-32.7942,-1.644400000000001,175,75
2026-05-09 14:54:35.487,2,0.81,0.3,0.41,23.2288,47.6358,4.1456,175,75
2026-05-09 14:54:35.487,2,1.04,0.27,0.54,28.4088,89.8858,12.8656,175,75
2026-05-09 14:54:35.521,2,1.2,0.58,0.29,-6.4612,-67.2442,5.5456,175,75
2026-05-09 14:54:35.533,2,-0.66,0.87,0.21,26.648799999999998,-57.6142,-28.5944,175,75
2026-05-09 14:54:35.543,2,0.24,0.57,0.77,25.9088,37.875800000000005,-79.7544,175,75
2026-05-09 14:54:35.543,2,3.79,0.22,1.28,-75.1812,78.6058,276.2756,175,75
2026-05-09 14:54:35.560,2,1.58,0.22,0.7,-59.151199999999996,-86.5142,3.5955999999999992,175,75
2026-05-09 14:54:35.584,2,1.14,0.61,0.23,-20.0012,-123.46419999999999,-70.4844,175,75
2026-05-09 14:54:35.595,2,1.16,1.34,-0.1,1.8288,123.78580000000001,-9.334399999999999,175,75
2026-05-09 14:54:35.603,2,1.24,2.0,-0.09,56.588800000000006,196.83579999999998,69.5156,175,75
2026-05-09 14:54:35.610,2,1.48,1.27,0.66,40.3688,289.3958,112.9256,175,75
2026-05-09 14:54:35.624,2,2.7,0.52,1.07,-10.6712,256.2858,67.6856,175,75
2026-05-09 14:54:35.647,2,2.08,0.17,1.32,-52.8112,90.7458,6.765599999999999,175,75
2026-05-09 14:54:35.658,2,2.22,0.51,1.3,-58.661199999999994,-17.7942,39.8156,175,75
2026-05-09 14:54:35.669,2,2.06,0.61,1.11,-28.4112,-284.19419999999997,27.2556,175,75
2026-05-09 14:54:35.669,2,2.18,0.55,0.98,-43.051199999999994,-349.6842,33.1656,175,75
2026-05-09 14:54:35.716,2,1.71,0.63,0.31,-72.5612,-225.35420000000002,17.0156,175,75
2026-05-09 14:54:35.716,2,1.65,0.61,-0.05,-53.231199999999994,-89.5042,5.605599999999999,175,75
2026-05-09 14:54:35.760,2,1.74,0.62,0.39,-6.2212,191.1058,14.9956,175,75
2026-05-09 14:54:35.760,2,1.82,0.55,0.74,4.5088,236.83579999999998,8.775599999999999,175,75
2026-05-09 14:54:35.782,2,2.06,0.43,1.22,-8.231200000000001,222.8758,-2.314399999999999,175,75
2026-05-09 14:54:35.782,2,2.14,0.44,1.33,-20.9112,176.04579999999999,-5.244399999999999,175,75
2026-05-09 14:54:35.788,2,2.15,0.49,1.4,-24.8812,110.00580000000001,-4.2744,175,75
2026-05-09 14:54:35.872,2,1.92,0.37,1.34,18.8388,138.36579999999998,-15.004399999999997,175,75
2026-05-09 14:54:35.890,2,1.91,0.35,1.52,44.448800000000006,120.9258,-21.464399999999998,175,75
2026-05-09 14:54:35.890,2,1.91,0.38,1.53,49.1488,99.5858,-17.7444,175,75
2026-05-09 14:54:35.901,2,1.9,0.36,1.52,53.40880000000001,97.6958,-15.7344,175,75
2026-05-09 14:54:35.912,2,1.9,0.3,1.47,58.838800000000006,106.7158,-16.034399999999998,175,75
2026-05-09 14:54:35.912,2,1.91,0.24,1.45,71.3988,131.77579999999998,-17.9844,175,75
2026-05-09 14:54:35.924,2,1.88,0.21,1.44,84.08879999999999,158.1858,-19.2044,175,75
2026-05-09 14:54:35.935,2,1.85,0.21,1.49,101.5188,195.6858,-19.8844,175,75
2026-05-09 14:54:35.957,2,1.82,0.2,1.59,113.2888,211.5958,-20.4844,175,75
2026-05-09 14:54:35.957,2,1.85,0.17,1.67,118.1088,211.2258,-15.124400000000001,175,75
2026-05-09 14:54:35.975,2,1.87,0.14,1.69,120.3688,199.39579999999998,-10.854400000000002,175,75
2026-05-09 14:54:35.982,2,1.84,0.14,1.68,127.9888,168.30579999999998,-6.0944,175,75
2026-05-09 14:54:36.031,2,1.86,0.11,1.6,145.2988,142.9958,2.7455999999999996,175,75
2026-05-09 14:54:36.101,2,1.97,-0.06,1.56,169.93880000000001,139.0958,8.105599999999999,175,75
2026-05-09 14:54:36.185,2,2.02,-0.1,1.54,172.0688,132.5058,9.025599999999999,175,75
2026-05-09 14:54:36.231,2,2.15,-0.28,1.3,185.42880000000002,78.7258,8.105599999999999,175,75
2026-05-09 14:54:36.231,2,2.16,-0.29,1.18,190.11880000000002,75.25580000000001,6.5855999999999995,175,75
2026-05-09 14:54:36.245,2,2.22,-0.3,1.0,207.43880000000001,108.78580000000001,-1.7043999999999997,175,75
2026-05-09 14:54:36.263,2,2.31,-0.3,0.95,203.2888,81.7758,-4.944400000000002,175,75
2026-05-09 14:54:36.286,2,2.35,-0.33,0.83,197.61880000000002,62.81580000000001,-10.124400000000001,175,75
2026-05-09 14:54:36.286,2,2.32,-0.31,0.76,197.2588,60.4358,-11.9544,175,75
2026-05-09 14:54:36.306,2,2.22,-0.3,0.67,196.33880000000002,101.2258,-15.424399999999999,175,75
2026-05-09 14:54:36.335,2,2.52,-0.36,0.65,194.2688,167.02579999999998,-13.2344,175,75
2026-05-09 14:54:36.374,2,2.5,-0.48,0.62,194.7588,170.4358,-26.3444,175,75
2026-05-09 14:54:36.418,2,2.28,-0.33,0.64,199.99880000000002,148.54579999999999,-22.7444,175,75
2026-05-09 14:54:36.458,2,1.53,-0.11,0.7,207.3188,155.4358,-19.754399999999997,175,75
2026-05-09 14:54:36.491,2,-0.58,0.58,0.25,216.27880000000002,156.5958,-53.354400000000005,175,75
2026-05-09 14:54:36.512,2,9.48,-2.17,3.94,159.08880000000002,-54.194199999999995,-34.1444,175,75
2026-05-09 14:54:36.512,2,5.23,-0.56,-0.28,152.3788,-134.4442,24.7556,175,75
2026-05-09 14:54:36.522,2,1.16,-0.31,-0.63,180.11880000000002,23.5458,-236.2244,175,75
2026-05-09 14:54:36.574,2,1.65,0.16,-0.47,147.55880000000002,187.8758,-99.9444,175,75
2026-05-09 14:54:36.574,2,1.61,0.09,-0.41,148.2288,191.89579999999998,-95.42439999999999,175,75
2026-05-09 14:54:36.599,2,1.68,0.06,-0.3,141.7688,166.2258,-91.09440000000001,175,75
2026-05-09 14:54:36.599,2,1.64,0.06,-0.28,135.9788,156.6558,-85.9744,175,75
2026-05-09 14:54:36.610,2,1.6,0.05,-0.26,135.9088,147.5058,-81.1644,175,75
2026-05-09 14:54:36.627,2,1.62,-0.01,-0.16,128.5988,110.0758,-74.5144,175,75
2026-05-09 14:54:36.667,2,1.61,-0.06,-0.13,123.8988,100.4958,-73.11439999999999,175,75
2026-05-09 14:54:36.667,2,1.64,-0.1,-0.12,120.4888,78.42580000000001,-74.5144,175,75
2026-05-09 14:54:36.693,2,1.68,-0.11,-0.07,116.58879999999999,51.595800000000004,-78.2344,175,75
2026-05-09 14:54:36.725,2,1.62,-0.11,-0.14,115.2388,15.1358,-88.6644,175,75
2026-05-09 14:54:36.776,2,1.43,-0.02,-0.32,91.5188,51.775800000000004,-81.2244,175,75
2026-05-09 14:54:36.815,2,1.41,-0.03,-0.32,92.9888,66.0458,-78.7244,175,75
2026-05-09 14:54:36.815,2,1.42,-0.08,-0.23,99.6888,84.9458,-75.8544,175,75
2026-05-09 14:54:36.847,2,1.54,-0.08,0.04,103.0488,89.8858,-75.42439999999999,175,75
2026-05-09 14:54:36.881,2,1.53,0.09,0.09,71.88879999999999,84.7058,-44.8144,175,75
2026-05-09 14:54:36.895,2,1.53,0.19,0.1,54.7588,54.525800000000004,-42.5644,175,75
2026-05-09 14:54:36.895,2,1.45,0.24,0.09,40.058800000000005,27.935799999999997,-38.2944,175,75
2026-05-09 14:54:36.921,2,1.39,0.18,-0.02,28.898799999999998,-0.5341999999999993,-36.2244,175,75
2026-05-09 14:54:36.921,2,1.36,0.15,-0.05,25.6088,-4.1342,-33.1744,175,75
2026-05-09 14:54:36.967,2,1.46,0.26,-0.14,7.928800000000001,-19.0142,-25.6744,175,75
2026-05-09 14:54:36.967,2,1.45,0.33,-0.22,-0.6112000000000002,-25.8442,-21.3444,175,75
2026-05-09 14:54:36.977,2,1.42,0.33,-0.26,-3.8412,-17.304199999999998,-16.7744,175,75
2026-05-09 14:54:36.989,2,1.38,0.31,-0.29,-2.0711999999999997,8.5458,-4.7544,175,75
2026-05-09 14:54:37.009,2,1.42,0.34,-0.22,1.8288,25.255799999999997,12.6156,175,75
2026-05-09 14:54:37.037,2,1.67,0.25,0.04,-0.8512,-53.8942,30.485599999999998,175,75
2026-05-09 14:54:37.058,2,1.6,0.2,-0.06,-8.7212,-99.8642,30.1156,175,75
2026-05-09 14:54:37.070,2,1.55,0.16,-0.13,-9.9412,-101.0842,31.8856,175,75
2026-05-09 14:54:37.080,2,1.52,0.07,-0.14,-4.7612000000000005,-80.96419999999999,37.2556,175,75
2026-05-09 14:54:37.091,2,1.53,0.03,-0.07,-5.0611999999999995,-72.9142,37.1956,175,75
2026-05-09 14:54:37.091,2,1.55,0.02,-0.02,-5.981200000000001,-68.2842,37.745599999999996,175,75
2026-05-09 14:54:37.104,2,1.5,0.02,0.04,-7.1312,-74.74419999999999,37.5556,175,75
2026-05-09 14:54:37.108,2,1.34,0.06,0.05,-9.821200000000001,-83.1642,42.495599999999996,175,75
2026-05-09 14:54:37.126,2,1.25,0.09,0.04,-8.901200000000001,-80.4142,43.355599999999995,175,75
2026-05-09 14:54:37.136,2,1.13,0.12,0.09,-4.571199999999999,-43.8942,58.5356,175,75
2026-05-09 14:54:37.147,2,1.2,0.09,0.11,7.3187999999999995,15.075800000000001,74.2656,175,75
2026-05-09 14:54:37.147,2,1.39,-0.01,0.2,16.0988,43.4258,88.65559999999999,175,75
2026-05-09 14:54:37.175,2,2.07,-0.33,0.43,-5.491199999999999,-17.1242,58.6556,175,75
2026-05-09 14:54:37.207,2,5.68,-0.44,0.79,-70.4912,-85.8442,241.1556,175,75
2026-05-09 14:54:37.231,2,2.81,-0.29,-0.58,-47.441199999999995,-59.3842,39.4456,175,75
2026-05-09 14:54:37.231,2,1.74,-0.09,-1.52,-33.9612,-391.39419999999996,-15.9144,175,75
2026-05-09 14:54:37.241,2,1.08,-0.62,0.09,-59.0212,-123.2842,-59.3944,175,75
2026-05-09 14:54:37.256,2,1.05,0.64,-0.51,-30.121199999999998,251.89579999999998,102.8056,175,75
2026-05-09 14:54:37.266,2,1.6,0.62,0.11,34.9988,160.1358,105.1156,175,75
2026-05-09 14:54:37.279,2,1.46,0.21,0.38,26.5188,146.9658,70.3656,175,75
2026-05-09 14:54:37.347,2,1.48,0.58,-0.03,-47.6812,-59.0742,54.1456,175,75
2026-05-09 14:54:37.357,2,1.53,0.49,-0.12,-17.1312,-1.9441999999999995,82.8056,175,75
2026-05-09 14:54:37.361,2,1.54,0.44,-0.0,-12.8712,2.025800000000001,88.04560000000001,175,75
2026-05-09 14:54:37.407,2,1.65,0.36,0.14,-10.0012,-13.464199999999998,89.9956,175,75
2026-05-09 14:54:37.418,2,1.73,0.3,0.17,-12.1312,-58.4642,92.5556,175,75
2026-05-09 14:54:37.418,2,1.72,0.25,0.1,-21.4612,-108.2842,92.6856,175,75
2026-05-09 14:54:37.453,2,1.65,0.01,-0.28,-24.1512,-81.57419999999999,86.7056,175,75
2026-05-09 14:54:37.477,2,1.64,-0.01,-0.31,-26.1612,-63.7142,84.32560000000001,175,75
2026-05-09 14:54:37.488,2,1.61,0.0,-0.34,-36.59119999999999,-33.2842,80.9156,175,75
2026-05-09 14:54:37.499,2,1.57,0.05,-0.35,-42.8112,-9.1342,81.15559999999999,175,75
2026-05-09 14:54:37.499,2,1.56,0.08,-0.35,-46.1012,14.5258,81.09559999999999,175,75
2026-05-09 14:54:37.522,2,1.57,0.06,-0.35,-52.261199999999995,31.2858,82.1956,175,75
2026-05-09 14:54:37.533,2,1.52,0.03,-0.35,-67.5012,46.9658,81.40559999999999,175,75
2026-05-09 14:54:37.545,2,1.45,0.05,-0.34,-79.02120000000001,62.085800000000006,78.29560000000001,175,75
2026-05-09 14:54:37.545,2,1.5,0.03,-0.31,-93.66120000000001,88.9158,73.35560000000001,175,75
2026-05-09 14:54:37.552,2,1.48,0.02,-0.24,-104.02120000000001,111.89580000000001,70.54560000000001,175,75
2026-05-09 14:54:37.565,2,1.48,0.04,-0.17,-107.3212,122.5758,66.8856,175,75
2026-05-09 14:54:37.580,2,1.47,0.05,-0.07,-114.02120000000001,117.81580000000001,63.5956,175,75
2026-05-09 14:54:37.592,2,1.46,0.08,0.06,-127.32119999999999,114.7058,61.7656,175,75
2026-05-09 14:54:37.604,2,1.54,0.03,0.17,-143.1712,112.9358,61.0956,175,75
2026-05-09 14:54:37.616,2,1.62,0.0,0.31,-154.0912,103.0558,58.4756,175,75
2026-05-09 14:54:37.626,2,1.75,0.01,0.42,-165.3712,74.2158,50.3656,175,75
2026-05-09 14:54:37.626,2,1.81,0.03,0.49,-173.1112,28.9158,40.5456,175,75
2026-05-09 14:54:37.644,2,1.82,0.05,0.53,-177.38119999999998,-4.5642,32.5556,175,75
2026-05-09 14:54:37.656,2,1.83,0.09,0.53,-185.00119999999998,-43.164199999999994,26.5856,175,75
2026-05-09 14:54:37.668,2,1.8,0.13,0.52,-191.5912,-59.3142,24.9356,175,75
2026-05-09 14:54:37.678,2,1.7,0.17,0.51,-196.4012,-61.4542,29.8156,175,75
2026-05-09 14:54:37.692,2,1.68,0.13,0.54,-193.78119999999998,-51.084199999999996,32.8056,175,75
2026-05-09 14:54:37.733,2,1.67,0.1,0.58,-192.2612,-42.1842,35.605599999999995,175,75
2026-05-09 14:54:37.733,2,1.72,0.14,0.64,-193.8412,-42.4242,35.7956,175,75
2026-05-09 14:54:37.733,2,1.78,0.2,0.69,-207.9912,-61.084199999999996,33.105599999999995,175,75
2026-05-09 14:54:37.756,2,1.74,0.24,0.72,-222.2612,-75.4742,30.7256,175,75
2026-05-09 14:54:37.756,2,1.7,0.24,0.7,-222.9312,-75.7242,31.1556,175,75
2026-05-09 14:54:37.765,2,1.67,0.22,0.69,-216.6512,-76.0242,32.9856,175,75
2026-05-09 14:54:37.786,2,1.7,0.16,0.73,-210.06119999999999,-75.2342,33.2956,175,75
2026-05-09 14:54:37.834,2,1.68,0.13,0.77,-227.8712,-73.2242,25.6056,175,75
2026-05-09 14:54:37.843,2,1.67,0.11,0.78,-231.16119999999998,-65.0542,19.3856,175,75
2026-05-09 14:54:37.860,2,1.66,0.11,0.79,-231.28119999999998,-41.2142,19.3856,175,75
2026-05-09 14:54:37.860,2,1.67,0.09,0.79,-231.10119999999998,-15.4742,18.1056,175,75
2026-05-09 14:54:37.888,2,1.69,0.01,0.88,-231.5912,35.6858,4.445599999999999,175,75
2026-05-09 14:54:37.898,2,1.68,-0.0,0.91,-232.2612,58.055800000000005,-6.1644000000000005,175,75
2026-05-09 14:54:37.914,2,1.6,0.01,0.93,-232.9912,74.1558,-14.0244,175,75
2026-05-09 14:54:37.926,2,1.55,0.01,0.97,-231.8312,98.6058,-21.894399999999997,175,75
2026-05-09 14:54:37.926,2,1.51,0.01,1.03,-229.63119999999998,131.04579999999999,-28.2344,175,75
2026-05-09 14:54:37.938,2,1.53,-0.01,1.1,-227.2012,171.3558,-32.0144,175,75
2026-05-09 14:54:37.949,2,1.51,0.02,1.14,-221.6512,213.6058,-38.5344,175,75
2026-05-09 14:54:37.976,2,1.23,-0.03,1.36,-198.4812,310.55580000000003,-51.0944,175,75
2026-05-09 14:54:38.067,2,1.28,-0.01,1.78,-174.3312,320.55580000000003,-117.92440000000002,175,75
2026-05-09 14:54:38.067,2,1.04,0.11,1.98,-189.1512,304.9458,-122.1944,175,75
2026-05-09 14:54:38.095,2,-0.87,0.42,1.95,-181.7712,269.6458,-123.5344,175,75
2026-05-09 14:54:38.107,2,1.6,0.18,1.97,-82.9912,125.43580000000001,-106.70439999999999,175,75
2026-05-09 14:54:38.122,2,0.6,0.21,1.9,-96.2812,143.8558,-153.5944,175,75
2026-05-09 14:54:38.134,2,0.16,0.51,1.89,-58.411199999999994,207.26579999999998,-128.11440000000002,175,75
2026-05-09 14:54:38.144,2,0.22,0.44,2.15,-62.3812,230.4958,-115.7944,175,75
2026-05-09 14:54:38.156,2,0.52,0.46,2.24,-82.9312,197.8758,-73.4144,175,75
2026-05-09 14:54:38.167,2,0.52,0.41,2.25,-73.41120000000001,152.20579999999998,-48.1744,175,75
2026-05-09 14:54:38.167,2,0.52,0.24,2.25,-50.551199999999994,94.8858,-47.9244,175,75
2026-05-09 14:54:38.174,2,0.45,0.07,2.26,-21.1612,21.4758,-84.33439999999999,175,75
2026-05-09 14:54:38.185,2,0.43,0.14,2.19,-19.3912,0.9858000000000002,-102.62440000000001,175,75
2026-05-09 14:54:38.227,2,0.49,0.32,2.03,-24.5112,-17.6742,-99.6944,175,75
2026-05-09 14:54:38.233,2,0.36,0.33,1.89,-30.121199999999998,-15.784199999999998,-92.3844,175,75
2026-05-09 14:54:38.233,2,0.28,0.32,1.78,-32.5612,12.575800000000001,-85.9744,175,75
2026-05-09 14:54:38.248,2,0.2,0.34,1.73,-31.8912,79.3358,-76.70439999999999,175,75
2026-05-09 14:54:38.248,2,0.19,0.39,1.77,-32.2012,140.2558,-67.68440000000001,175,75
2026-05-09 14:54:38.259,2,0.23,0.43,1.87,-34.7012,189.33579999999998,-49.5144,175,75
2026-05-09 14:54:38.271,2,0.21,0.4,1.96,-35.1812,205.7458,-35.0044,175,75
2026-05-09 14:54:38.271,2,0.19,0.32,2.07,-27.441200000000002,203.30579999999998,-25.1244,175,75
2026-05-09 14:54:38.289,2,0.09,0.31,2.15,-9.8812,185.55579999999998,-22.504399999999997,175,75
2026-05-09 14:54:38.302,2,-0.12,0.27,2.32,18.4788,119.8858,-21.404400000000003,175,75
2026-05-09 14:54:38.330,2,-0.2,0.33,2.24,11.8288,27.265800000000002,3.355599999999999,175,75
2026-05-09 14:54:38.364,2,-0.22,0.3,2.17,22.3788,8.7958,22.8056,175,75
2026-05-09 14:54:38.364,2,-0.23,0.28,2.13,29.148799999999998,7.0858,36.215599999999995,175,75
2026-05-09 14:54:38.376,2,-0.24,0.3,2.11,32.5588,12.9958,43.595600000000005,175,75
2026-05-09 14:54:38.386,2,-0.23,0.3,2.14,32.738800000000005,15.1358,57.8056,175,75
2026-05-09 14:54:38.399,2,-0.18,0.3,2.16,31.3388,7.3258,80.85560000000001,175,75
2026-05-09 14:54:38.413,2,-0.08,0.28,2.16,34.5088,-9.684199999999999,103.47559999999999,175,75
2026-05-09 14:54:38.423,2,0.01,0.23,2.12,39.268800000000006,-30.9042,117.6856,175,75
2026-05-09 14:54:38.433,2,0.03,0.19,2.13,47.378800000000005,-45.904199999999996,123.41560000000001,175,75
2026-05-09 14:54:38.445,2,0.17,0.16,2.17,55.668800000000005,-52.304199999999994,135.4856,175,75
2026-05-09 14:54:38.470,2,0.28,0.18,2.17,59.3288,-74.1942,146.94559999999998,175,75
2026-05-09 14:54:38.481,2,0.43,0.15,2.12,75.9088,-122.1242,160.3656,175,75
2026-05-09 14:54:38.494,2,0.45,0.13,2.08,83.83879999999999,-139.5042,160.3056,175,75
2026-05-09 14:54:38.507,2,0.47,0.13,2.03,95.4288,-149.8642,163.5956,175,75
2026-05-09 14:54:38.519,2,0.56,0.12,1.98,105.9088,-154.38420000000002,174.5156,175,75
2026-05-09 14:54:38.519,2,0.6,0.06,1.94,113.1088,-158.6442,183.10559999999998,175,75
2026-05-09 14:54:38.536,2,0.66,0.02,1.91,118.8988,-163.4042,187.3156,175,75
2026-05-09 14:54:38.548,2,0.72,0.0,1.86,125.8488,-175.66420000000002,191.5856,175,75
2026-05-09 14:54:38.559,2,0.8,0.01,1.81,134.99880000000002,-199.7442,199.44559999999998,175,75
2026-05-09 14:54:38.573,2,0.89,-0.04,1.7,145.7288,-229.8042,201.5856,175,75
2026-05-09 14:54:38.600,2,1.02,-0.1,1.54,167.7988,-256.5742,192.07559999999998,175,75
2026-05-09 14:54:38.600,2,1.06,-0.09,1.49,175.05880000000002,-260.0542,192.3756,175,75
2026-05-09 14:54:38.614,2,1.04,-0.07,1.45,177.3788,-261.0242,193.35559999999998,175,75
2026-05-09 14:54:38.625,2,0.99,-0.12,1.39,178.2888,-267.7342,194.63559999999998,175,75
2026-05-09 14:54:38.634,2,1.04,-0.19,1.34,183.2888,-280.4142,190.9756,175,75
2026-05-09 14:54:38.650,2,1.09,-0.24,1.29,197.1288,-309.9242,182.9256,175,75
2026-05-09 14:54:38.661,2,1.16,-0.35,1.22,207.0688,-336.14419999999996,176.7056,175,75
2026-05-09 14:54:38.678,2,1.05,-0.39,0.98,224.8788,-388.1642,158.7756,175,75
2026-05-09 14:54:38.709,2,0.99,-0.49,0.7,250.9788,-364.07419999999996,134.0856,175,75
2026-05-09 14:54:38.717,2,0.91,-0.51,0.54,264.8188,-343.1642,129.3856,175,75
2026-05-09 14:54:38.743,2,0.93,-0.73,0.32,306.3988,-176.2742,117.4956,175,75
2026-05-09 14:54:38.761,2,0.96,-0.76,0.36,326.8288,-116.0842,122.4956,175,75
2026-05-09 14:54:38.761,2,0.96,-0.77,0.45,338.3488,-75.96419999999999,122.9856,175,75
2026-05-09 14:54:38.782,2,1.07,-0.82,0.68,343.7188,-42.4942,117.07560000000001,175,75
2026-05-09 14:54:38.806,2,1.09,-0.9,0.78,336.1588,-79.68419999999999,107.6156,175,75
2026-05-09 14:54:38.817,2,1.09,-0.95,0.74,334.8788,-99.0142,98.22559999999999,175,75
2026-05-09 14:54:38.847,2,1.04,-1.06,0.56,340.72880000000004,-90.96419999999999,69.9956,175,75
2026-05-09 14:54:38.885,2,1.29,-0.97,0.49,355.72880000000004,-42.1842,41.6456,175,75
2026-05-09 14:54:38.898,2,1.31,-0.95,0.52,352.6788,-46.7542,27.0756,175,75
2026-05-09 14:54:38.930,2,1.73,-0.96,0.41,331.8888,-119.1942,-6.1644000000000005,175,75
2026-05-09 14:54:38.942,2,1.68,-1.09,0.12,295.78880000000004,-149.8042,-37.0744,175,75
2026-05-09 14:54:38.959,2,1.56,-1.1,-0.1,264.4488,-138.2842,-56.7044,175,75
2026-05-09 14:54:38.978,2,1.71,-0.91,-0.79,214.2088,-93.5242,-80.9744,175,75
2026-05-09 14:54:38.990,2,1.64,-0.9,-1.04,204.0188,-37.7942,-70.24440000000001,175,75
2026-05-09 14:54:39.000,2,1.49,-0.89,-1.2,188.71880000000002,45.555800000000005,-56.7044,175,75
2026-05-09 14:54:39.037,2,1.97,-0.7,-1.09,133.83880000000002,312.8158,27.5556,175,75
2026-05-09 14:54:39.048,2,2.25,-0.96,-0.85,122.6788,338.18580000000003,52.5556,175,75
2026-05-09 14:54:39.067,2,2.57,-1.22,-0.62,98.8988,295.3158,56.9456,175,75
2026-05-09 14:54:39.088,2,2.8,-1.4,-0.44,58.8988,183.6658,52.1956,175,75
2026-05-09 14:54:39.115,2,2.74,-1.44,-0.77,-37.9312,-136.7542,23.5356,175,75
2026-05-09 14:54:39.139,2,2.01,-1.09,-1.43,-98.2912,-197.1842,41.8856,175,75
2026-05-09 14:54:39.171,2,1.85,-0.75,-1.13,-99.6312,-43.8942,91.2156,175,75
2026-05-09 14:54:39.181,2,1.72,-0.66,-0.5,-108.7812,5.8058000000000005,109.1456,175,75
2026-05-09 14:54:39.200,2,1.7,-0.62,-0.33,-115.3112,8.1858,111.2756,175,75
2026-05-09 14:54:39.210,2,1.58,-0.54,-0.05,-122.9312,-12.3642,114.1456,175,75
2026-05-09 14:54:39.237,2,1.54,-0.49,0.13,-127.6212,-35.8442,118.22559999999999,175,75
2026-05-09 14:54:39.255,2,1.5,-0.49,0.19,-130.85119999999998,-47.2442,117.7456,175,75
2026-05-09 14:54:39.300,2,1.39,-0.48,0.24,-127.7412,-54.7442,121.40559999999999,175,75
2026-05-09 14:54:39.306,2,1.38,-0.47,0.27,-130.4312,-50.5342,124.5156,175,75
2026-05-09 14:54:39.326,2,1.36,-0.49,0.29,-130.4912,-45.844199999999994,125.66560000000001,175,75
2026-05-09 14:54:39.326,2,1.33,-0.51,0.31,-128.9612,-46.1442,124.5156,175,75
2026-05-09 14:54:39.358,2,1.38,-0.66,0.44,-125.1812,-62.8542,112.7456,175,75
2026-05-09 14:54:39.394,2,1.36,-0.68,0.46,-128.1112,-143.4042,86.2756,175,75
2026-05-09 14:54:39.405,2,1.25,-0.64,0.36,-123.7812,-153.8942,81.0356,175,75
2026-05-09 14:54:39.415,2,1.14,-0.62,0.26,-115.8512,-147.91420000000002,73.10560000000001,175,75
2026-05-09 14:54:39.458,2,1.17,-0.7,0.18,-88.3512,-78.8342,59.3856,175,75
2026-05-09 14:54:39.469,2,1.15,-0.66,0.14,-82.5012,-55.3542,52.9856,175,75
2026-05-09 14:54:39.479,2,1.12,-0.6,0.14,-78.2912,-41.3942,46.9456,175,75
2026-05-09 14:54:39.490,2,1.07,-0.48,0.12,-68.41120000000001,-16.2742,45.3656,175,75
2026-05-09 14:54:39.503,2,1.05,-0.39,0.12,-54.5712,11.0458,45.1856,175,75
2026-05-09 14:54:39.533,2,1.03,-0.39,0.25,-31.771200000000004,52.875800000000005,43.2256,175,75
2026-05-09 14:54:39.534,2,1.05,-0.38,0.34,-19.2112,60.86580000000001,41.1556,175,75
2026-05-09 14:54:39.540,2,1.06,-0.32,0.42,-10.491200000000001,40.4958,37.9856,175,75
2026-05-09 14:54:39.561,2,1.08,-0.29,0.42,-7.321200000000001,7.445800000000001,37.8056,175,75
2026-05-09 14:54:39.575,2,1.05,-0.27,0.39,-3.8412,-29.3142,35.245599999999996,175,75
2026-05-09 14:54:39.590,2,0.97,-0.22,0.23,8.4088,-51.27419999999999,33.105599999999995,175,75
2026-05-09 14:54:39.605,2,0.91,-0.19,0.17,17.378800000000002,-45.2942,34.0256,175,75
2026-05-09 14:54:39.620,2,0.87,-0.17,0.13,30.4888,-25.784200000000002,35.4856,175,75
2026-05-09 14:54:39.636,2,0.91,-0.19,0.15,51.458800000000004,14.945799999999998,41.705600000000004,175,75
2026-05-09 14:54:39.650,2,0.97,-0.23,0.19,61.588800000000006,28.0558,43.2256,175,75
2026-05-09 14:54:39.665,2,1.14,-0.32,0.19,82.3788,26.715799999999998,37.495599999999996,175,75
2026-05-09 14:54:39.675,2,1.05,-0.29,0.2,96.1588,40.1358,42.3756,175,75
2026-05-09 14:54:39.721,2,0.97,-0.47,0.25,70.1188,43.6058,34.6356,175,75
2026-05-09 14:54:39.722,2,0.39,-0.34,0.16,74.2088,53.7858,49.0856,175,75
2026-05-09 14:54:39.734,2,0.12,-0.3,0.21,97.2588,99.03580000000001,56.4056,175,75
2026-05-09 14:54:39.750,2,2.09,-1.17,0.55,83.3488,60.00580000000001,-12.9844,175,75
2026-05-09 14:54:39.759,2,1.41,-1.15,0.63,54.3888,53.6058,60.0556,175,75
2026-05-09 14:54:39.773,2,0.72,-0.89,0.38,72.7988,151.89579999999998,83.8356,175,75
2026-05-09 14:54:39.782,2,0.83,-0.85,0.08,109.5088,185.92579999999998,48.1656,175,75
2026-05-09 14:54:39.813,2,1.1,-1.04,0.61,71.27879999999999,179.64579999999998,61.3356,175,75
2026-05-09 14:54:39.865,2,1.27,-1.24,0.67,88.7188,145.0058,56.0956,175,75
2026-05-09 14:54:39.879,2,1.22,-1.41,0.67,81.4588,85.4358,55.5456,175,75
2026-05-09 14:54:39.889,2,1.25,-1.43,0.54,67.9888,57.025800000000004,47.6156,175,75
2026-05-09 14:54:39.906,2,1.17,-1.37,0.39,60.90880000000001,48.8558,42.1356,175,75
2026-05-09 14:54:39.974,2,1.07,-1.28,0.2,63.778800000000004,137.9358,44.7556,175,75
2026-05-09 14:54:39.984,2,1.17,-1.27,0.24,62.7988,178.30579999999998,54.5756,175,75
2026-05-09 14:54:40.036,2,1.27,-1.21,0.29,47.9288,230.4358,74.9956,175,75
2026-05-09 14:54:40.058,2,1.29,-1.14,0.31,47.4988,234.58579999999998,82.9856,175,75
2026-05-09 14:54:40.071,2,1.38,-1.09,0.32,51.3988,241.6558,92.7456,175,75
2026-05-09 14:54:40.082,2,1.52,-1.11,0.34,53.958800000000004,236.04579999999999,101.82560000000001,175,75
2026-05-09 14:54:40.095,2,1.62,-1.22,0.39,46.768800000000006,223.05579999999998,105.79560000000001,175,75
2026-05-09 14:54:40.098,2,1.61,-1.28,0.4,31.1588,194.33579999999998,108.90559999999999,175,75
2026-05-09 14:54:40.121,2,1.53,-1.24,0.39,37.0688,139.76579999999998,110.91560000000001,175,75
2026-05-09 14:54:40.173,2,1.65,-1.29,0.41,26.2788,68.6058,124.5156,175,75
2026-05-09 14:54:40.173,2,1.64,-1.32,0.38,33.0488,41.775800000000004,125.2456,175,75
2026-05-09 14:54:40.184,2,1.6,-1.34,0.36,37.0088,25.9258,124.69560000000001,175,75
2026-05-09 14:54:40.196,2,1.6,-1.34,0.33,39.9988,14.825800000000001,124.87559999999999,175,75
2026-05-09 14:54:40.219,2,1.58,-1.36,0.31,41.8288,7.7558,123.04560000000001,175,75
2026-05-09 14:54:40.219,2,1.56,-1.37,0.31,41.8888,4.465800000000001,119.75559999999999,175,75
2026-05-09 14:54:40.230,2,1.53,-1.36,0.32,41.2188,2.205800000000001,117.13560000000001,175,75
2026-05-09 14:54:40.235,2,1.47,-1.28,0.38,40.7888,-1.3941999999999997,113.59559999999999,175,75
2026-05-09 14:54:40.261,2,1.33,-1.14,0.44,37.4988,-13.8342,110.91560000000001,175,75
2026-05-09 14:54:40.261,2,1.33,-1.1,0.47,37.2588,-23.0342,108.22559999999999,175,75
2026-05-09 14:54:40.273,2,1.35,-1.13,0.5,36.588800000000006,-32.8542,105.3656,175,75
2026-05-09 14:54:40.282,2,1.32,-1.16,0.52,31.9488,-46.694199999999995,101.40559999999999,175,75
2026-05-09 14:54:40.285,2,1.28,-1.16,0.5,28.2288,-58.8942,95.3056,175,75
2026-05-09 14:54:40.296,2,1.26,-1.12,0.5,26.8288,-70.6042,89.5156,175,75
2026-05-09 14:54:40.364,2,1.24,-1.05,0.44,26.7688,-68.1642,81.5256,175,75
2026-05-09 14:54:40.383,2,1.25,-1.03,0.43,23.2288,-56.5742,77.9856,175,75
2026-05-09 14:54:40.383,2,1.23,-1.0,0.4,18.4088,-46.694199999999995,74.2656,175,75
2026-05-09 14:54:40.426,2,1.18,-0.94,0.39,15.7288,-28.034200000000002,72.1956,175,75
2026-05-09 14:54:40.447,2,1.18,-0.89,0.43,12.8688,7.3258,69.6956,175,75
2026-05-09 14:54:40.447,2,1.23,-0.92,0.48,8.0488,15.985800000000001,67.07560000000001,175,75
2026-05-09 14:54:40.464,2,1.3,-0.96,0.59,-2.7411999999999996,8.5458,55.8556,175,75
2026-05-09 14:54:40.474,2,1.29,-0.94,0.6,-6.9512,-2.8541999999999996,52.1956,175,75
2026-05-09 14:54:40.517,2,1.27,-0.91,0.57,-11.161200000000001,-13.5242,49.6356,175,75
2026-05-09 14:54:40.546,2,1.3,-0.93,0.52,-17.5612,-17.734199999999998,42.8056,175,75
2026-05-09 14:54:40.546,2,1.3,-0.96,0.52,-19.3312,-11.944199999999999,40.4256,175,75
2026-05-09 14:54:40.568,2,1.38,-1.03,0.53,-19.3912,-10.4142,27.1356,175,75
2026-05-09 14:54:40.580,2,1.39,-1.03,0.51,-24.0212,-11.694199999999999,22.6156,175,75
2026-05-09 14:54:40.592,2,1.47,-1.12,0.51,-30.0012,-7.914199999999999,15.3056,175,75
2026-05-09 14:54:40.592,2,1.46,-1.24,0.56,-31.6512,-20.6642,2.6156000000000006,175,75
2026-05-09 14:54:40.592,2,1.46,-1.27,0.58,-33.721199999999996,-28.8942,-1.9543999999999997,175,75
2026-05-09 14:54:40.601,2,1.45,-1.3,0.59,-38.661199999999994,-46.514199999999995,-8.054400000000001,175,75
2026-05-09 14:54:40.614,2,1.47,-1.34,0.58,-43.3512,-65.7242,-16.584400000000002,175,75
2026-05-09 14:54:40.614,2,1.46,-1.37,0.54,-45.981199999999994,-77.1242,-22.4444,175,75
2026-05-09 14:54:40.625,2,1.42,-1.37,0.48,-45.981199999999994,-79.3142,-27.684400000000004,175,75
2026-05-09 14:54:40.637,2,1.43,-1.41,0.44,-44.2712,-71.3342,-31.464399999999998,175,75
2026-05-09 14:54:40.649,2,1.45,-1.48,0.43,-43.6012,-54.7442,-35.7344,175,75
2026-05-09 14:54:40.649,2,1.42,-1.55,0.47,-42.3212,-34.6242,-43.7244,175,75
2026-05-09 14:54:40.671,2,1.42,-1.55,0.51,-38.541199999999996,-24.624200000000002,-53.66439999999999,175,75
2026-05-09 14:54:40.720,2,1.51,-1.71,0.68,-36.221199999999996,-37.1842,-74.20439999999999,175,75
2026-05-09 14:54:40.723,2,1.48,-1.84,0.71,-45.371199999999995,-53.9542,-85.67439999999999,175,75
2026-05-09 14:54:40.734,2,1.39,-1.85,0.64,-49.511199999999995,-76.9442,-100.18440000000001,175,75
2026-05-09 14:54:40.743,2,1.32,-1.74,0.54,-44.8812,-87.0042,-112.0744,175,75
2026-05-09 14:54:40.760,2,1.25,-1.57,0.44,-35.8512,-78.8942,-124.33440000000002,175,75
2026-05-09 14:54:40.803,2,1.28,-1.19,0.58,27.9288,41.835800000000006,-143.6644,175,75
2026-05-09 14:54:40.804,2,1.35,-1.23,0.69,37.8688,26.3558,-151.64440000000002,175,75
2026-05-09 14:54:40.850,2,1.4,-1.28,0.74,40.848800000000004,-3.5241999999999996,-159.6344,175,75
2026-05-09 14:54:40.894,2,1.41,-1.33,0.77,42.7988,-32.0042,-166.3444,175,75
2026-05-09 14:54:40.894,2,1.37,-1.4,0.76,46.8888,-62.974199999999996,-173.11440000000002,175,75
2026-05-09 14:54:40.894,2,1.32,-1.45,0.73,50.238800000000005,-85.7242,-178.2344,175,75
2026-05-09 14:54:40.905,2,1.31,-1.49,0.72,48.8988,-102.6742,-184.14440000000002,175,75
2026-05-09 14:54:40.915,2,1.33,-1.52,0.73,45.5488,-107.7342,-185.8544,175,75
2026-05-09 14:54:40.928,2,1.36,-1.53,0.72,42.0688,-114.0142,-186.4044,175,75
2026-05-09 14:54:41.003,2,1.39,-1.58,0.72,28.5988,-137.6742,-186.5244,175,75
2026-05-09 14:54:41.003,2,1.39,-1.61,0.69,21.218799999999998,-149.5642,-183.9644,175,75
2026-05-09 14:54:41.022,2,1.3,-1.65,0.68,-5.981200000000001,-149.07420000000002,-176.0944,175,75
2026-05-09 14:54:41.032,2,1.28,-1.62,0.7,-10.6112,-143.95420000000001,-171.70440000000002,175,75
2026-05-09 14:54:41.050,2,1.27,-1.58,0.72,-16.3412,-139.7442,-165.2444,175,75
2026-05-09 14:54:41.081,2,1.19,-1.38,0.73,-35.551199999999994,-149.7442,-139.5744,175,75
2026-05-09 14:54:41.095,2,1.15,-1.23,0.67,-36.831199999999995,-136.2742,-129.5744,175,75
2026-05-09 14:54:41.106,2,1.11,-1.18,0.67,-37.5012,-121.3942,-124.5144,175,75
2026-05-09 14:54:41.117,2,1.09,-1.02,0.68,-34.7012,-90.6642,-112.3144,175,75
2026-05-09 14:54:41.171,2,1.1,-0.95,0.69,-31.951200000000004,-84.3142,-107.5644,175,75
2026-05-09 14:54:41.181,2,1.12,-0.89,0.71,-29.4512,-80.9042,-103.7844,175,75
2026-05-09 14:54:41.198,2,1.13,-0.83,0.72,-27.2012,-77.7342,-98.5344,175,75
2026-05-09 14:54:41.259,2,1.11,-0.78,0.74,-25.3112,-73.2842,-94.08439999999999,175,75
2026-05-09 14:54:41.275,2,1.05,-0.68,0.75,-21.281200000000002,-53.9542,-81.70439999999999,175,75
2026-05-09 14:54:41.287,2,1.05,-0.64,0.74,-20.4312,-50.6042,-77.4444,175,75
2026-05-09 14:54:41.310,2,1.1,-0.49,0.73,-9.6312,-60.5342,-53.8444,175,75
2026-05-09 14:54:41.399,2,1.23,-0.52,0.56,27.1288,-18.8342,-15.184400000000004,175,75
2026-05-09 14:54:41.399,2,1.23,-0.53,0.54,31.5188,-22.554199999999998,-12.5644,175,75
2026-05-09 14:54:41.410,2,1.21,-0.52,0.54,35.488800000000005,-23.2242,-8.964400000000001,175,75
2026-05-09 14:54:41.501,2,1.22,-0.82,0.34,80.05879999999999,3.8558000000000012,31.7656,175,75
2026-05-09 14:54:41.510,2,1.21,-0.87,0.35,82.2588,15.2558,38.4156,175,75
2026-05-09 14:54:41.510,2,1.16,-0.94,0.36,80.66879999999999,27.505799999999997,44.205600000000004,175,75
2026-05-09 14:54:41.528,2,1.14,-1.03,0.31,78.5388,36.835800000000006,48.4756,175,75
2026-05-09 14:54:41.579,2,1.24,-1.37,0.67,61.098800000000004,71.7758,92.19560000000001,175,75
2026-05-09 14:54:41.590,2,1.15,-1.34,0.58,55.238800000000005,57.81580000000001,94.2056,175,75
2026-05-09 14:54:41.599,2,1.07,-1.27,0.5,54.448800000000006,57.50580000000001,92.9856,175,75
2026-05-09 14:54:41.614,2,1.08,-1.21,0.44,54.9988,67.2658,93.7756,175,75
2026-05-09 14:54:41.619,2,1.15,-1.17,0.43,55.6088,83.2458,97.4356,175,75
2026-05-09 14:54:41.637,2,1.22,-1.17,0.42,54.9388,98.9758,99.9356,175,75
2026-05-09 14:54:41.643,2,1.27,-1.2,0.5,47.0688,119.5858,99.2656,175,75
2026-05-09 14:54:41.655,2,1.16,-1.17,0.53,40.1788,122.5758,98.04560000000001,175,75
2026-05-09 14:54:41.676,2,1.11,-1.19,0.57,28.5988,119.64580000000001,102.6856,175,75
2026-05-09 14:54:41.688,2,1.1,-1.25,0.59,21.0388,120.31580000000001,106.03559999999999,175,75
2026-05-09 14:54:41.688,2,1.13,-1.29,0.61,14.6288,116.6558,111.15559999999999,175,75
2026-05-09 14:54:41.701,2,1.19,-1.29,0.62,15.2988,100.1358,115.4856,175,75
2026-05-09 14:54:41.701,2,1.24,-1.29,0.66,18.5388,84.7058,117.6156,175,75
2026-05-09 14:54:41.722,2,1.32,-1.32,0.69,20.8488,58.665800000000004,121.40559999999999,175,75
2026-05-09 14:54:41.722,2,1.36,-1.35,0.69,19.2688,33.7858,122.8656,175,75
2026-05-09 14:54:41.733,2,1.34,-1.4,0.67,18.3488,8.7258,123.22559999999999,175,75
2026-05-09 14:54:41.733,2,1.3,-1.44,0.63,19.6288,-9.3842,123.7156,175,75
2026-05-09 14:54:41.744,2,1.26,-1.49,0.55,26.0988,-26.9442,122.13560000000001,175,75
2026-05-09 14:54:41.754,2,1.27,-1.51,0.51,33.7188,-33.1042,120.60560000000001,175,75
2026-05-09 14:54:41.767,2,1.29,-1.53,0.48,42.4988,-36.8142,117.7456,175,75
2026-05-09 14:54:41.775,2,1.3,-1.55,0.49,49.3888,-38.404199999999996,112.5556,175,75
2026-05-09 14:54:41.782,2,1.31,-1.54,0.49,54.088800000000006,-39.194199999999995,107.25559999999999,175,75
2026-05-09 14:54:41.801,2,1.3,-1.52,0.5,61.278800000000004,-44.804199999999994,99.9956,175,75
2026-05-09 14:54:41.808,2,1.25,-1.49,0.51,66.58879999999999,-50.414199999999994,94.0256,175,75
2026-05-09 14:54:41.820,2,1.23,-1.45,0.5,70.1788,-54.444199999999995,86.40559999999999,175,75
2026-05-09 14:54:41.830,2,1.22,-1.41,0.49,71.33879999999999,-55.054199999999994,81.2156,175,75
2026-05-09 14:54:41.830,2,1.22,-1.38,0.47,71.33879999999999,-52.7942,77.37559999999999,175,75
2026-05-09 14:54:41.854,2,1.22,-1.35,0.43,70.4288,-45.724199999999996,72.1356,175,75
2026-05-09 14:54:41.871,2,1.22,-1.3,0.38,69.1488,-35.2342,67.2556,175,75
2026-05-09 14:54:41.894,2,1.23,-1.12,0.38,68.77879999999999,18.5458,61.4656,175,75
2026-05-09 14:54:41.908,2,1.25,-1.06,0.45,68.22879999999999,33.97580000000001,61.4056,175,75
2026-05-09 14:54:41.913,2,1.29,-1.05,0.55,64.9988,44.2158,60.8556,175,75
2026-05-09 14:54:41.913,2,1.29,-1.07,0.62,60.2988,43.6058,60.4256,175,75
2026-05-09 14:54:41.925,2,1.3,-1.08,0.65,53.7188,26.5958,57.8056,175,75
2026-05-09 14:54:41.946,2,1.28,-1.01,0.64,39.5688,-26.5142,48.4756,175,75
2026-05-09 14:54:41.957,2,1.24,-0.97,0.6,33.8388,-34.444199999999995,46.3356,175,75
2026-05-09 14:54:41.979,2,1.19,-0.9,0.49,22.9288,-14.7442,44.0856,175,75
2026-05-09 14:54:41.994,2,1.22,-0.9,0.53,20.9088,2.875800000000001,42.3156,175,75
2026-05-09 14:54:42.005,2,1.24,-0.92,0.59,19.5688,20.8658,43.105599999999995,175,75
2026-05-09 14:54:42.005,2,1.29,-0.94,0.64,18.5988,25.8058,40.9756,175,75
2026-05-09 14:54:42.034,2,1.33,-0.96,0.75,13.838799999999999,-0.054199999999999804,34.205600000000004,175,75
2026-05-09 14:54:42.045,2,1.35,-0.96,0.78,10.4888,-23.7042,29.8156,175,75
2026-05-09 14:54:42.056,2,1.35,-0.98,0.79,7.1888000000000005,-45.3542,25.8556,175,75
2026-05-09 14:54:42.067,2,1.31,-1.0,0.8,4.6288,-57.1842,21.0356,175,75
2026-05-09 14:54:42.080,2,1.31,-1.0,0.76,2.9288,-64.9242,16.4656,175,75
2026-05-09 14:54:42.097,2,1.31,-0.99,0.72,2.0088,-73.0342,13.2256,175,75
2026-05-09 14:54:42.097,2,1.31,-0.96,0.71,1.7688,-74.74419999999999,10.185599999999999,175,75
2026-05-09 14:54:42.118,2,1.33,-0.98,0.7,-0.0011999999999998678,-65.6042,6.525599999999999,175,75
2026-05-09 14:54:42.118,2,1.35,-1.01,0.69,-2.6212000000000004,-59.5642,3.5356000000000005,175,75
2026-05-09 14:54:42.145,2,1.38,-1.06,0.71,-4.7012,-51.3942,-7.314399999999999,175,75
2026-05-09 14:54:42.157,2,1.36,-1.08,0.73,-4.821199999999999,-49.624199999999995,-11.584399999999999,175,75
2026-05-09 14:54:42.204,2,1.35,-1.08,0.77,-6.5212,-48.164199999999994,-15.424399999999999,175,75
2026-05-09 14:54:42.231,2,1.42,-1.1,0.8,-12.741200000000001,-67.7942,-25.2444,175,75
2026-05-09 14:54:42.231,2,1.39,-1.13,0.8,-12.9312,-62.0042,-29.2744,175,75
2026-05-09 14:54:42.232,2,1.44,-1.2,0.82,-11.9512,-54.3842,-35.184400000000004,175,75
2026-05-09 14:54:42.250,2,1.52,-1.29,0.91,-13.2912,-53.834199999999996,-44.8144,175,75
2026-05-09 14:54:42.262,2,1.59,-1.34,1.0,-17.6812,-69.9942,-51.2844,175,75
2026-05-09 14:54:42.265,2,1.39,-1.3,1.02,-25.7912,-109.99419999999999,-52.38440000000001,175,75
2026-05-09 14:54:42.361,2,1.8,-1.49,0.91,-52.9312,-192.1842,-74.8844,175,75
2026-05-09 14:54:42.361,2,1.97,-1.7,0.75,-60.6112,-194.5642,-87.1344,175,75
2026-05-09 14:54:42.371,2,1.5,-1.63,0.56,-47.7412,-102.24419999999999,-68.96440000000001,175,75
2026-05-09 14:54:42.407,2,1.49,-1.95,1.16,-51.221199999999996,-116.6942,-113.7844,175,75
2026-05-09 14:54:42.425,2,1.39,-1.91,1.04,-44.151199999999996,-157.1842,-124.5144,175,75
2026-05-09 14:54:42.425,2,1.28,-1.88,0.98,-31.0412,-182.2442,-131.83440000000002,175,75
2026-05-09 14:54:42.461,2,1.21,-1.74,0.84,-25.5512,-150.9042,-141.64440000000002,175,75
2026-05-09 14:54:42.471,2,1.22,-1.66,0.8,-26.4012,-130.8442,-142.86440000000002,175,75
2026-05-09 14:54:42.471,2,1.22,-1.64,0.8,-18.601200000000002,-106.7542,-143.5944,175,75
2026-05-09 14:54:42.482,2,1.23,-1.65,0.84,-8.2912,-90.35419999999999,-141.64440000000002,175,75
2026-05-09 14:54:42.494,2,1.23,-1.67,0.92,3.1088,-81.9442,-139.6344,175,75
2026-05-09 14:54:42.509,2,1.24,-1.68,0.98,7.3187999999999995,-87.3042,-139.8844,175,75
2026-05-09 14:54:42.509,2,1.24,-1.68,1.02,8.6588,-96.5142,-139.20440000000002,175,75
2026-05-09 14:54:42.509,2,1.21,-1.66,1.06,7.258800000000001,-103.8342,-137.5644,175,75
2026-05-09 14:54:42.529,2,1.16,-1.6,1.07,2.3188,-108.9542,-135.36440000000002,175,75
2026-05-09 14:54:42.542,2,1.04,-1.45,1.04,-13.7212,-103.10419999999999,-122.86440000000002,175,75
2026-05-09 14:54:42.554,2,1.03,-1.43,1.03,-21.0412,-96.1442,-115.30440000000002,175,75
2026-05-09 14:54:42.569,2,1.06,-1.45,1.07,-27.6212,-78.71419999999999,-107.3844,175,75
2026-05-09 14:54:42.578,2,1.09,-1.36,1.18,-32.1312,-58.52419999999999,-91.34440000000001,175,75
2026-05-09 14:54:42.595,2,1.09,-1.33,1.25,-33.661199999999994,-61.8142,-83.6644,175,75
2026-05-09 14:54:42.608,2,1.1,-1.33,1.33,-39.331199999999995,-74.1942,-76.58439999999999,175,75
2026-05-09 14:54:42.614,2,1.12,-1.37,1.4,-48.051199999999994,-95.4742,-70.8544,175,75
2026-05-09 14:54:42.666,2,1.11,-1.41,1.41,-64.3912,-144.8642,-65.8544,175,75
2026-05-09 14:54:42.677,2,1.05,-1.31,1.26,-70.9812,-188.22420000000002,-59.02440000000001,175,75
2026-05-09 14:54:42.677,2,1.03,-1.28,1.16,-71.9512,-188.6442,-55.91439999999999,175,75
2026-05-09 14:54:42.707,2,0.97,-1.24,1.05,-67.8112,-156.0242,-52.38440000000001,175,75
2026-05-09 14:54:42.707,2,0.98,-1.23,1.01,-62.6812,-136.0242,-50.7344,175,75
2026-05-09 14:54:42.717,2,0.99,-1.19,0.98,-55.4312,-117.24419999999999,-48.41439999999999,175,75
2026-05-09 14:54:42.727,2,1.0,-1.17,0.98,-49.2112,-106.5142,-46.224399999999996,175,75
2026-05-09 14:54:42.729,2,1.03,-1.12,0.98,-44.511199999999995,-98.6442,-42.3844,175,75
2026-05-09 14:54:42.744,2,1.04,-1.07,0.96,-41.7112,-92.1242,-37.5644,175,75
2026-05-09 14:54:42.759,2,0.98,-0.97,0.9,-34.3912,-80.4742,-30.1244,175,75
2026-05-09 14:54:42.771,2,0.97,-0.93,0.88,-31.161199999999997,-70.9642,-27.3144,175,75
2026-05-09 14:54:42.785,2,0.99,-0.87,0.85,-27.441200000000002,-47.914199999999994,-24.2044,175,75
2026-05-09 14:54:42.796,2,1.0,-0.83,0.84,-25.4912,-40.2942,-22.1944,175,75
2026-05-09 14:54:42.881,2,0.97,-0.71,0.84,-19.6312,-23.1042,-14.8144,175,75
2026-05-09 14:54:42.894,2,1.0,-0.68,0.84,-21.6512,-22.4942,-11.1644,175,75
2026-05-09 14:54:42.894,2,0.98,-0.65,0.81,-25.4312,-22.7942,-7.6844,175,75
2026-05-09 14:54:42.904,2,0.96,-0.65,0.78,-24.7012,-14.0742,-4.514400000000002,175,75
2026-05-09 14:54:42.916,2,0.95,-0.64,0.75,-20.851200000000002,-3.2841999999999993,-0.1244000000000014,175,75
2026-05-09 14:54:42.939,2,0.9,-0.6,0.76,-12.4412,31.5358,12.3156,175,75
2026-05-09 14:54:42.939,2,0.93,-0.6,0.8,-6.0412,47.5758,17.7456,175,75
2026-05-09 14:54:42.956,2,0.97,-0.63,0.85,-0.3712,50.8658,22.6156,175,75
2026-05-09 14:54:42.970,2,1.01,-0.68,0.88,2.5587999999999997,42.445800000000006,24.3856,175,75
2026-05-09 14:54:43.031,2,1.06,-0.73,0.89,2.8688000000000002,28.6058,24.2056,175,75
2026-05-09 14:54:43.054,2,1.12,-0.72,0.76,10.2388,17.6958,34.0856,175,75
2026-05-09 14:54:43.076,2,1.11,-0.76,0.73,13.2888,46.165800000000004,43.4156,175,75
2026-05-09 14:54:43.099,2,1.16,-0.98,0.77,13.598799999999999,87.50580000000001,50.1156,175,75
2026-05-09 14:54:43.099,2,1.15,-1.07,0.78,13.348799999999999,92.2658,49.7556,175,75
2026-05-09 14:54:43.108,2,1.15,-1.08,0.8,11.1588,105.31580000000001,50.1156,175,75
2026-05-09 14:54:43.120,2,1.16,-1.08,0.82,6.588799999999999,116.7158,51.3356,175,75
2026-05-09 14:54:43.132,2,1.18,-1.08,0.85,-1.1612,126.1058,51.8856,175,75
2026-05-09 14:54:43.143,2,1.2,-1.12,0.89,-13.7212,136.9658,52.7456,175,75
2026-05-09 14:54:43.143,2,1.22,-1.17,0.91,-22.8712,140.55579999999998,53.1656,175,75
2026-05-09 14:54:43.154,2,1.26,-1.26,0.93,-33.3512,139.58579999999998,54.3256,175,75
2026-05-09 14:54:43.178,2,1.35,-1.43,0.89,-49.8812,118.9758,55.2456,175,75
2026-05-09 14:54:43.191,2,1.4,-1.45,0.76,-65.0012,128.11579999999998,58.4756,175,75
2026-05-09 14:54:43.202,2,1.4,-1.43,0.69,-70.91120000000001,151.1658,61.8856,175,75
2026-05-09 14:54:43.212,2,1.35,-1.4,0.61,-76.52120000000001,181.1058,69.4456,175,75
2026-05-09 14:54:43.236,2,1.29,-1.38,0.59,-80.3112,209.39579999999998,77.6156,175,75
2026-05-09 14:54:43.282,2,1.22,-1.36,0.6,-84.33120000000001,257.8158,94.81559999999999,175,75
2026-05-09 14:54:43.305,2,1.07,-1.46,0.77,-87.0712,364.9458,149.0856,175,75
2026-05-09 14:54:43.305,2,1.24,-1.53,0.87,-85.7312,360.86580000000004,158.2256,175,75
2026-05-09 14:54:43.355,2,1.58,-1.59,0.94,-80.3112,297.6358,173.2256,175,75
2026-05-09 14:54:43.396,2,1.66,-1.47,0.84,-57.3812,251.89579999999998,187.13559999999998,175,75
2026-05-09 14:54:43.407,2,1.69,-1.44,0.82,-51.9512,233.6658,191.4656,175,75
2026-05-09 14:54:43.407,2,1.68,-1.37,0.77,-49.2712,203.11579999999998,192.8656,175,75
2026-05-09 14:54:43.418,2,1.7,-1.28,0.76,-44.3912,162.4458,191.5856,175,75
2026-05-09 14:54:43.488,2,1.76,-1.18,0.81,-13.1112,41.655800000000006,182.9856,175,75
2026-05-09 14:54:43.501,2,1.53,-1.31,0.8,22.3788,-82.6742,163.4756,175,75
2026-05-09 14:54:43.512,2,1.51,-1.39,0.8,28.5988,-101.3342,158.8356,175,75
2026-05-09 14:54:43.609,2,1.38,-1.42,0.55,101.0988,-32.4942,109.38560000000001,175,75
2026-05-09 14:54:43.611,2,1.39,-1.4,0.6,110.05879999999999,-17.1842,100.60560000000001,175,75
2026-05-09 14:54:43.640,2,1.38,-1.21,0.7,120.4888,35.555800000000005,52.4956,175,75
2026-05-09 14:54:43.640,2,1.38,-1.16,0.73,120.2988,52.3258,43.965599999999995,175,75
2026-05-09 14:54:43.640,2,1.37,-1.15,0.77,119.0188,69.8858,36.3356,175,75
2026-05-09 14:54:43.651,2,1.38,-1.13,0.79,116.0988,77.3258,30.2456,175,75
2026-05-09 14:54:43.663,2,1.37,-1.06,0.82,104.6288,72.6958,13.9056,175,75
2026-05-09 14:54:43.670,2,1.37,-1.05,0.83,101.6488,72.3258,6.6456,175,75
2026-05-09 14:54:43.685,2,1.35,-1.05,0.82,99.38879999999999,75.6858,2.435599999999999,175,75
2026-05-09 14:54:43.696,2,1.31,-1.09,0.84,96.33879999999999,84.8858,-7.444400000000002,175,75
2026-05-09 14:54:43.717,2,1.25,-1.11,0.83,94.2088,69.7658,-17.684400000000004,175,75
2026-05-09 14:54:43.719,2,1.22,-1.1,0.81,90.2388,60.61580000000001,-22.1944,175,75
2026-05-09 14:54:43.747,2,1.09,-1.12,0.7,73.77879999999999,61.415800000000004,-30.9144,175,75
2026-05-09 14:54:43.750,2,1.04,-1.14,0.67,70.2388,73.78580000000001,-31.034399999999998,175,75
2026-05-09 14:54:43.757,2,1.01,-1.16,0.67,65.1188,88.36580000000001,-30.7344,175,75
2026-05-09 14:54:43.768,2,1.01,-1.19,0.67,58.4788,91.4758,-29.9444,175,75
2026-05-09 14:54:43.801,2,1.04,-1.27,0.71,37.4988,68.8558,-28.5944,175,75
2026-05-09 14:54:43.803,2,1.07,-1.28,0.64,24.9388,38.72580000000001,-29.144399999999997,175,75
2026-05-09 14:54:43.819,2,1.07,-1.23,0.51,5.1788,0.07580000000000098,-31.464399999999998,175,75
2026-05-09 14:54:43.834,2,1.04,-1.17,0.34,-19.5112,-30.6642,-34.0844,175,75
2026-05-09 14:54:43.850,2,0.99,-1.13,0.18,-48.9612,-32.9142,-31.0944,175,75
2026-05-09 14:54:43.850,2,1.02,-1.16,0.07,-66.83120000000001,-7.424199999999999,-23.6644,175,75
2026-05-09 14:54:43.864,2,1.28,-1.28,-0.1,-99.94120000000001,-6.084199999999999,-18.4144,175,75
2026-05-09 14:54:43.874,2,1.4,-1.27,-0.14,-127.6212,-35.3542,-24.394399999999997,175,75
2026-05-09 14:54:43.911,2,1.55,-1.24,-0.34,-214.3912,-106.2742,-37.3844,175,75
2026-05-09 14:54:43.911,2,1.64,-1.31,-0.47,-249.3312,-124.74419999999999,-44.2044,175,75
2026-05-09 14:54:43.989,2,1.69,-1.39,-0.61,-289.6312,-133.5242,-53.354400000000005,175,75
2026-05-09 14:54:43.989,2,1.74,-1.47,-0.66,-327.3812,-109.4442,-57.13440000000001,175,75
2026-05-09 14:54:43.989,2,1.82,-1.63,-0.62,-351.1012,-63.164199999999994,-58.964400000000005,175,75
2026-05-09 14:54:44.017,2,2.01,-2.04,-0.31,-359.7012,-3.7741999999999996,-68.17439999999999,175,75
2026-05-09 14:54:44.028,2,2.09,-2.22,-0.09,-358.0512,-5.664199999999999,-83.11439999999999,175,75
2026-05-09 14:54:44.051,2,2.15,-2.31,0.16,-355.3712,-32.0042,-124.9444,175,75
2026-05-09 14:54:44.127,2,2.19,-2.58,0.06,-332.3212,67.2058,-136.4044,175,75
2026-05-09 14:54:44.145,2,2.21,-2.8,0.09,-319.1512,137.08579999999998,-145.61440000000002,175,75
2026-05-09 14:54:44.156,2,2.22,-2.97,0.2,-300.8512,202.26579999999998,-163.5344,175,75
2026-05-09 14:54:44.156,2,2.18,-2.99,0.32,-279.8812,241.5358,-181.64440000000002,175,75
2026-05-09 14:54:44.178,2,1.97,-2.04,0.89,-176.28119999999998,284.5858,-232.2544,175,75
2026-05-09 14:54:44.178,2,2.02,-1.84,1.25,-115.8512,283.7858,-247.68439999999998,175,75
2026-05-09 14:54:44.188,2,1.9,-2.04,1.33,-71.5912,252.7558,-263.5944,175,75
2026-05-09 14:54:44.199,2,1.75,-2.05,1.28,-48.721199999999996,248.91579999999996,-268.1744,175,75
2026-05-09 14:54:44.224,2,1.71,-1.94,1.29,-16.6512,255.4958,-270.6744,175,75
2026-05-09 14:54:44.239,2,1.75,-1.74,1.41,39.878800000000005,265.49580000000003,-269.1444,175,75
2026-05-09 14:54:44.249,2,1.7,-1.82,1.58,100.66879999999999,267.5758,-263.7844,175,75
2026-05-09 14:54:44.290,2,1.69,-2.02,1.69,145.11880000000002,225.55579999999998,-251.58440000000002,175,75
2026-05-09 14:54:44.335,2,1.62,-2.06,1.66,178.71880000000002,171.4758,-239.0244,175,75
2026-05-09 14:54:44.349,2,1.57,-2.07,1.64,200.8488,134.9458,-228.2944,175,75
2026-05-09 14:54:44.390,2,1.55,-2.07,1.46,227.9888,113.1858,-207.0144,175,75
2026-05-09 14:54:44.399,2,1.58,-2.09,1.35,269.2088,128.42579999999998,-185.1244,175,75
2026-05-09 14:54:44.409,2,1.59,-2.07,1.38,304.9988,115.5558,-161.64440000000002,175,75
2026-05-09 14:54:44.414,2,1.61,-2.08,1.37,318.8988,95.92580000000001,-147.3144,175,75
2026-05-09 14:54:44.427,2,1.59,-2.08,1.31,333.4088,72.5758,-136.0344,175,75
2026-05-09 14:54:44.437,2,1.62,-2.11,1.28,342.0088,54.2158,-128.7844,175,75
2026-05-09 14:54:44.468,2,1.6,-2.12,1.23,347.9288,37.6358,-123.4744,175,75
2026-05-09 14:54:44.507,2,1.76,-2.11,1.14,359.1488,0.865800000000001,-113.90440000000001,175,75
2026-05-09 14:54:44.542,2,1.81,-2.18,1.07,369.0188,-38.224199999999996,-116.95440000000002,175,75
2026-05-09 14:54:44.553,2,1.77,-2.1,0.76,377.9288,-46.02419999999999,-119.6944,175,75
2026-05-09 14:54:44.576,2,1.83,-2.1,0.62,382.1888,-29.6842,-123.84440000000001,175,75
2026-05-09 14:54:44.593,2,1.88,-2.02,0.52,388.7188,-21.394199999999998,-134.7544,175,75
2026-05-09 14:54:44.608,2,1.91,-1.79,0.4,383.6588,-23.3442,-136.89440000000002,175,75
2026-05-09 14:54:44.628,2,1.91,-1.89,0.29,371.7088,-48.584199999999996,-154.14440000000002,175,75
2026-05-09 14:54:44.646,2,1.88,-1.87,0.22,365.72880000000004,-56.3942,-158.17440000000002,175,75
2026-05-09 14:54:44.646,2,1.79,-1.78,0.15,359.9388,-60.474199999999996,-161.3444,175,75
2026-05-09 14:54:44.666,2,1.75,-1.62,0.07,352.0688,-37.2442,-159.5744,175,75
2026-05-09 14:54:44.701,2,1.76,-1.61,0.03,330.9088,-46.02419999999999,-163.6644,175,75
2026-05-09 14:54:44.713,2,1.7,-1.53,-0.02,319.4488,-51.2142,-165.7344,175,75
2026-05-09 14:54:44.713,2,1.67,-1.47,-0.07,312.7988,-46.02419999999999,-165.9744,175,75
2026-05-09 14:54:44.726,2,1.67,-1.43,-0.11,309.5688,-31.0842,-162.5044,175,75
2026-05-09 14:54:44.748,2,1.7,-1.44,-0.11,310.72880000000004,-2.1841999999999997,-152.1944,175,75
2026-05-09 14:54:44.783,2,1.73,-1.47,-0.07,308.47880000000004,0.9257999999999997,-148.17440000000002,175,75
2026-05-09 14:54:44.817,2,1.77,-1.48,-0.0,306.3388,-0.7841999999999993,-146.1644,175,75
2026-05-09 14:54:44.856,2,1.55,-1.58,-0.05,295.3688,-72.9142,-156.1644,175,75
2026-05-09 14:54:44.856,2,1.57,-1.57,-0.1,296.3388,-57.7942,-153.2944,175,75
2026-05-09 14:54:44.867,2,1.59,-1.61,-0.1,296.8888,-38.1642,-149.45440000000002,175,75
2026-05-09 14:54:44.877,2,1.57,-1.67,-0.02,287.9288,-34.2542,-150.36440000000002,175,75
2026-05-09 14:54:44.888,2,1.44,-1.67,-0.06,280.9088,-46.1442,-152.7444,175,75
2026-05-09 14:54:44.892,2,1.36,-1.66,-0.12,271.2188,-57.3642,-153.7244,175,75
2026-05-09 14:54:44.909,2,1.26,-1.61,-0.23,251.1588,-46.1442,-145.30440000000002,175,75
2026-05-09 14:54:44.927,2,1.29,-1.54,-0.25,234.3888,1.9658000000000007,-119.27440000000001,175,75
2026-05-09 14:54:44.937,2,1.39,-1.55,-0.2,217.9888,-8.2842,-114.6344,175,75
2026-05-09 14:54:44.954,2,1.35,-1.48,-0.2,173.1688,-37.7342,-111.46440000000001,175,75
2026-05-09 14:54:44.978,2,1.25,-1.25,-0.28,142.92880000000002,-23.8342,-87.4444,175,75
2026-05-09 14:54:44.988,2,1.2,-1.14,-0.27,129.6288,-1.754199999999999,-69.7544,175,75
2026-05-09 14:54:44.988,2,1.22,-1.04,-0.24,116.0388,23.4858,-52.804399999999994,175,75
2026-05-09 14:54:45.000,2,1.3,-0.93,-0.15,95.3688,57.695800000000006,-27.6244,175,75
2026-05-09 14:54:45.013,2,1.45,-0.79,0.09,68.47879999999999,91.8358,5.9155999999999995,175,75
2026-05-09 14:54:45.078,2,1.77,-0.59,0.38,-11.4612,20.9258,35.1156,175,75
2026-05-09 14:54:45.088,2,1.77,-0.53,0.38,-37.9312,-7.124199999999999,41.215599999999995,175,75
2026-05-09 14:54:45.101,2,1.71,-0.43,0.28,-71.1012,-6.454199999999999,63.6556,175,75
2026-05-09 14:54:45.101,2,1.73,-0.42,0.27,-84.6312,4.945800000000001,72.5556,175,75
2026-05-09 14:54:45.123,2,1.75,-0.43,0.32,-116.16120000000001,54.8858,94.57560000000001,175,75
2026-05-09 14:54:45.140,2,1.76,-0.41,0.37,-126.83120000000001,79.39580000000001,102.8056,175,75
2026-05-09 14:54:45.151,2,1.78,-0.43,0.51,-148.8412,131.7158,117.25559999999999,175,75
2026-05-09 14:54:45.161,2,1.92,-0.49,0.77,-168.9012,158.8558,119.0856,175,75
2026-05-09 14:54:45.181,2,1.91,-0.49,0.91,-175.7912,157.4458,117.4956,175,75
2026-05-09 14:54:45.190,2,1.89,-0.47,1.04,-182.32119999999998,137.8758,113.90559999999999,175,75
2026-05-09 14:54:45.190,2,1.89,-0.5,1.15,-191.22119999999998,116.4758,111.03559999999999,175,75
2026-05-09 14:54:45.215,2,1.95,-0.53,1.18,-203.9612,90.61580000000001,109.9956,175,75
2026-05-09 14:54:45.228,2,1.99,-0.49,1.15,-208.72119999999998,76.5958,109.1456,175,75
2026-05-09 14:54:45.293,2,2.06,-0.37,1.02,-220.4912,116.7758,108.04560000000001,175,75
2026-05-09 14:54:45.293,2,2.06,-0.38,1.04,-223.0512,126.96580000000002,105.97559999999999,175,75
2026-05-09 14:54:45.323,2,1.99,-0.42,1.1,-235.1812,139.76579999999998,98.47559999999999,175,75
2026-05-09 14:54:45.334,2,2.01,-0.41,1.12,-239.1512,139.0958,95.1856,175,75
2026-05-09 14:54:45.352,2,2.06,-0.39,1.11,-249.2712,120.00580000000001,89.0856,175,75
2026-05-09 14:54:45.359,2,2.07,-0.41,1.06,-256.2812,114.4658,87.0156,175,75
2026-05-09 14:54:45.370,2,2.07,-0.42,1.01,-261.71119999999996,116.5958,84.9956,175,75
2026-05-09 14:54:45.379,2,2.06,-0.39,0.96,-266.0412,125.80579999999999,83.35560000000001,175,75
2026-05-09 14:54:45.392,2,2.03,-0.39,0.94,-269.5712,137.14579999999998,83.22559999999999,175,75
2026-05-09 14:54:45.403,2,1.99,-0.38,0.94,-272.2612,147.8158,83.29560000000001,175,75
2026-05-09 14:54:45.416,2,1.95,-0.39,0.96,-273.7812,155.55579999999998,83.35560000000001,175,75
2026-05-09 14:54:45.427,2,1.97,-0.42,1.03,-276.9512,159.2158,82.31559999999999,175,75
2026-05-09 14:54:45.433,2,1.96,-0.44,1.06,-281.4012,159.8258,81.15559999999999,175,75
2026-05-09 14:54:45.444,2,1.97,-0.45,1.07,-285.7912,153.9158,78.1656,175,75
2026-05-09 14:54:45.454,2,2.0,-0.44,1.08,-287.8712,143.1858,77.4956,175,75
2026-05-09 14:54:45.522,2,2.01,-0.5,1.04,-293.2912,120.1958,67.4356,175,75
2026-05-09 14:54:45.522,2,1.97,-0.46,1.02,-295.0012,113.42580000000001,66.0356,175,75
2026-05-09 14:54:45.537,2,1.96,-0.43,1.01,-295.8512,106.9658,62.7456,175,75
2026-05-09 14:54:45.547,2,1.96,-0.41,1.01,-297.7412,100.4958,61.9456,175,75
2026-05-09 14:54:45.581,2,1.92,-0.44,0.92,-302.1312,97.5758,59.2056,175,75
2026-05-09 14:54:45.592,2,1.93,-0.43,0.9,-299.6312,93.6658,59.815599999999996,175,75
2026-05-09 14:54:45.592,2,1.93,-0.4,0.87,-295.9812,84.8858,60.7956,175,75
2026-05-09 14:54:45.685,2,1.87,-0.29,0.81,-295.4912,54.3958,62.7456,175,75
2026-05-09 14:54:45.697,2,1.85,-0.28,0.78,-301.46119999999996,36.7158,63.4756,175,75
2026-05-09 14:54:45.697,2,1.88,-0.27,0.73,-308.7212,23.7958,63.8356,175,75
2026-05-09 14:54:45.711,2,1.94,-0.29,0.63,-314.6312,2.9358000000000013,61.2756,175,75
2026-05-09 14:54:45.711,2,1.96,-0.3,0.55,-317.0112,-13.7042,59.8756,175,75
2026-05-09 14:54:45.722,2,1.89,-0.25,0.41,-319.39119999999997,-29.4442,60.3656,175,75
2026-05-09 14:54:45.722,2,1.82,-0.19,0.34,-321.0412,-30.784200000000002,64.1456,175,75
2026-05-09 14:54:45.742,2,1.79,-0.13,0.25,-322.3812,-21.144199999999998,72.0156,175,75
2026-05-09 14:54:45.742,2,1.83,-0.12,0.22,-324.02119999999996,-3.9541999999999993,78.1656,175,75
2026-05-09 14:54:45.752,2,1.97,-0.15,0.23,-323.8412,17.3258,77.2556,175,75
2026-05-09 14:54:45.764,2,2.0,-0.08,0.29,-310.7912,0.07580000000000098,63.2956,175,75
2026-05-09 14:54:45.775,2,2.06,0.01,0.33,-301.89119999999997,-11.5742,55.7256,175,75
2026-05-09 14:54:45.778,2,2.07,0.15,0.35,-290.3712,-28.2242,46.4056,175,75
2026-05-09 14:54:45.814,2,2.16,0.39,0.38,-268.8412,-65.7242,27.6856,175,75
2026-05-09 14:54:45.824,2,2.16,0.52,0.43,-260.9112,-78.8942,20.1156,175,75
2026-05-09 14:54:45.825,2,2.13,0.61,0.42,-253.7812,-76.63419999999999,16.3356,175,75
2026-05-09 14:54:45.838,2,2.16,0.64,0.41,-237.2012,-68.1042,12.2556,175,75
2026-05-09 14:54:45.851,2,2.34,0.71,0.45,-196.0412,-33.9542,10.0556,175,75
2026-05-09 14:54:45.872,2,2.35,0.77,0.47,-182.7412,-13.2242,7.195599999999999,175,75
2026-05-09 14:54:45.882,2,2.48,0.82,0.54,-167.9312,9.035799999999998,2.685599999999999,175,75
2026-05-09 14:54:45.896,2,2.51,0.84,0.6,-158.5412,27.9958,-3.234400000000001,175,75
2026-05-09 14:54:45.906,2,2.51,0.79,0.85,-134.7612,84.03580000000001,-25.6744,175,75
2026-05-09 14:54:45.917,2,2.49,0.72,0.99,-121.0412,98.6658,-33.1144,175,75
2026-05-09 14:54:45.925,2,2.5,0.65,1.13,-110.7912,105.92580000000001,-42.3844,175,75
2026-05-09 14:54:45.940,2,2.58,0.53,1.3,-99.5112,104.03580000000001,-57.9844,175,75
2026-05-09 14:54:45.952,2,2.64,0.41,1.43,-89.1512,82.2658,-75.42439999999999,175,75
2026-05-09 14:54:45.965,2,2.62,0.37,1.51,-82.2612,63.4858,-87.0744,175,75
2026-05-09 14:54:45.981,2,2.57,0.33,1.53,-72.3212,47.025800000000004,-102.5044,175,75
2026-05-09 14:54:45.992,2,2.34,0.25,1.44,-54.511199999999995,48.7858,-118.96440000000001,175,75
2026-05-09 14:54:46.017,2,2.25,0.07,1.42,-37.0712,92.75580000000001,-129.45440000000002,175,75
2026-05-09 14:54:46.063,2,2.17,-0.24,1.68,15.2388,160.0058,-145.1844,175,75
2026-05-09 14:54:46.078,2,2.12,-0.25,1.62,29.0888,154.64579999999998,-143.05440000000002,175,75
2026-05-09 14:54:46.119,2,2.07,-0.26,1.54,39.8188,158.7858,-141.2244,175,75
2026-05-09 14:54:46.137,2,1.91,-0.23,1.48,54.018800000000006,183.11579999999998,-132.3144,175,75
2026-05-09 14:54:46.137,2,1.87,-0.21,1.47,69.1488,203.11579999999998,-122.86440000000002,175,75
