Time,ID,Ax,Ay,Az,Gx,Gy,Gz,Height,Weight
2026-05-09 16:31:47.793,2,0.46,-0.09,1.5,-5.2366,1.5144000000000002,4.061399999999999,175,75
2026-05-09 16:31:47.806,2,0.44,-0.1,1.5,-6.3366,4.0144,3.2714,175,75
2026-05-09 16:31:47.806,2,0.47,-0.09,1.51,-7.0066,4.744400000000001,2.5413999999999994,175,75
2026-05-09 16:31:47.839,2,0.47,-0.11,1.5,-9.2666,11.2144,-4.6586,175,75
2026-05-09 16:31:47.852,2,0.47,-0.1,1.51,-9.6266,13.034400000000002,-5.6286000000000005,175,75
2026-05-09 16:31:47.863,2,0.46,-0.08,1.51,-10.7266,14.6844,-6.5486,175,75
2026-05-09 16:31:47.885,2,0.47,-0.07,1.52,-11.7666,15.6044,-6.9186,175,75
2026-05-09 16:31:47.929,2,0.49,-0.08,1.55,-11.3366,15.0544,-6.2386,175,75
2026-05-09 16:31:47.943,2,0.49,-0.08,1.55,-11.026599999999998,14.7444,-7.098600000000001,175,75
2026-05-09 16:31:47.953,2,0.49,-0.09,1.56,-10.6066,13.3444,-7.8286,175,75
2026-05-09 16:31:47.965,2,0.5,-0.09,1.56,-10.3566,10.4744,-8.9286,175,75
2026-05-09 16:31:47.988,2,0.49,-0.08,1.58,-9.5666,3.1044000000000005,-10.6286,175,75
2026-05-09 16:31:48.010,2,0.49,-0.07,1.57,-9.5066,0.7244000000000002,-11.0586,175,75
2026-05-09 16:31:48.010,2,0.49,-0.07,1.55,-8.956600000000002,-0.3155999999999999,-11.9786,175,75
2026-05-09 16:31:48.036,2,0.49,-0.06,1.56,-8.8366,-0.4355999999999991,-12.8886,175,75
2026-05-09 16:31:48.036,2,0.49,-0.06,1.56,-8.776599999999998,0.2344000000000008,-13.1286,175,75
2026-05-09 16:31:48.072,2,0.47,-0.06,1.54,-8.346599999999999,5.234400000000001,-14.5386,175,75
2026-05-09 16:31:48.085,2,0.47,-0.05,1.55,-8.4666,7.5544,-14.5386,175,75
2026-05-09 16:31:48.097,2,0.47,-0.04,1.55,-8.5866,8.7744,-14.9586,175,75
2026-05-09 16:31:48.099,2,0.47,-0.05,1.56,-8.7166,10.0544,-15.0286,175,75
2026-05-09 16:31:48.113,2,0.46,-0.05,1.56,-9.0766,11.0844,-15.3886,175,75
2026-05-09 16:31:48.145,2,0.46,-0.05,1.56,-9.1966,11.8144,-15.6986,175,75
2026-05-09 16:31:48.165,2,0.46,-0.03,1.56,-9.3866,13.4644,-15.3886,175,75
2026-05-09 16:31:48.165,2,0.46,-0.03,1.56,-9.9366,14.8044,-15.0286,175,75
2026-05-09 16:31:48.176,2,0.45,-0.03,1.56,-9.9366,15.9044,-14.9586,175,75
2026-05-09 16:31:48.190,2,0.44,-0.03,1.57,-10.296600000000002,17.4944,-14.1686,175,75
2026-05-09 16:31:48.205,2,0.44,-0.02,1.57,-10.6066,17.4244,-13.9886,175,75
2026-05-09 16:31:48.235,2,0.43,-0.02,1.58,-10.4166,16.7544,-12.7086,175,75
2026-05-09 16:31:48.254,2,0.42,-0.02,1.59,-10.116600000000002,16.9444,-10.8186,175,75
2026-05-09 16:31:48.254,2,0.42,-0.02,1.6,-9.8066,14.5044,-9.5986,175,75
2026-05-09 16:31:48.265,2,0.4,-0.02,1.6,-9.6866,11.8144,-8.7386,175,75
2026-05-09 16:31:48.278,2,0.39,-0.03,1.6,-9.8066,9.5644,-7.528600000000001,175,75
2026-05-09 16:31:48.303,2,0.37,-0.03,1.57,-11.276599999999998,2.8544000000000005,-4.4786,175,75
2026-05-09 16:31:48.313,2,0.36,-0.04,1.57,-11.8266,3.5244000000000004,-4.288600000000001,175,75
2026-05-09 16:31:48.328,2,0.35,-0.04,1.56,-11.9466,6.024400000000001,-2.3986,175,75
2026-05-09 16:31:48.339,2,0.33,-0.03,1.54,-11.6366,8.224400000000001,-0.1486000000000018,175,75
2026-05-09 16:31:48.363,2,0.31,-0.02,1.54,-12.1266,11.2144,2.6614000000000004,175,75
2026-05-09 16:31:48.363,2,0.29,-0.03,1.53,-12.4366,16.3944,5.711400000000001,175,75
2026-05-09 16:31:48.374,2,0.28,-0.04,1.54,-11.886599999999998,20.8444,8.511399999999998,175,75
2026-05-09 16:31:48.385,2,0.28,-0.05,1.54,-10.9066,21.6344,10.4014,175,75
2026-05-09 16:31:48.406,2,0.29,-0.06,1.57,-10.4766,20.8444,14.061400000000004,175,75
2026-05-09 16:31:48.438,2,0.3,-0.07,1.58,-13.4066,7.9144,17.411399999999997,175,75
2026-05-09 16:31:48.463,2,0.28,-0.1,1.55,-17.0066,-0.3755999999999995,20.4014,175,75
2026-05-09 16:31:48.463,2,0.26,-0.1,1.54,-17.6766,-0.6855999999999991,21.6814,175,75
2026-05-09 16:31:48.496,2,0.21,-0.11,1.5,-22.3766,8.1644,26.2614,175,75
2026-05-09 16:31:48.537,2,0.16,-0.15,1.48,-30.4166,34.8044,33.0814,175,75
2026-05-09 16:31:48.537,2,0.17,-0.15,1.5,-32.0666,40.604400000000005,35.2214,175,75
2026-05-09 16:31:48.563,2,0.16,-0.16,1.54,-38.3466,42.9144,39.8514,175,75
2026-05-09 16:31:48.582,2,0.14,-0.21,1.53,-44.686600000000006,41.9444,44.7914,175,75
2026-05-09 16:31:48.593,2,0.13,-0.22,1.52,-46.6366,44.5644,46.6814,175,75
2026-05-09 16:31:48.610,2,0.12,-0.24,1.5,-48.7766,47.424400000000006,48.2714,175,75
2026-05-09 16:31:48.617,2,0.11,-0.27,1.49,-51.2766,51.0844,50.34140000000001,175,75
2026-05-09 16:31:48.636,2,0.08,-0.32,1.46,-56.576600000000006,63.4044,54.9114,175,75
2026-05-09 16:31:48.666,2,0.05,-0.35,1.42,-61.88660000000001,80.4144,59.8514,175,75
2026-05-09 16:31:48.678,2,0.06,-0.42,1.42,-66.8266,100.8444,65.8314,175,75
2026-05-09 16:31:48.689,2,0.06,-0.45,1.43,-69.6266,107.7344,67.7814,175,75
2026-05-09 16:31:48.689,2,0.07,-0.46,1.41,-74.50659999999999,113.2844,71.62140000000001,175,75
2026-05-09 16:31:48.714,2,0.07,-0.54,1.41,-85.9666,121.6944,78.3314,175,75
2026-05-09 16:31:48.762,2,0.19,-0.62,1.53,-117.0666,118.1644,87.7814,175,75
2026-05-09 16:31:48.774,2,0.23,-0.64,1.55,-126.2766,106.3944,90.2814,175,75
2026-05-09 16:31:48.779,2,0.26,-0.64,1.55,-137.1866,91.3944,92.3514,175,75
2026-05-09 16:31:48.792,2,0.31,-0.62,1.55,-147.5566,77.12440000000001,95.1614,175,75
2026-05-09 16:31:48.866,2,0.39,-0.71,1.51,-179.6266,51.9444,110.1014,175,75
2026-05-09 16:31:48.866,2,0.42,-0.73,1.5,-184.9966,44.3844,111.19140000000002,175,75
2026-05-09 16:31:48.866,2,0.43,-0.74,1.46,-191.6366,40.174400000000006,113.5114,175,75
2026-05-09 16:31:48.875,2,0.45,-0.71,1.42,-196.2766,39.8044,114.4914,175,75
2026-05-09 16:31:48.891,2,0.44,-0.68,1.39,-199.8066,46.6944,115.1014,175,75
2026-05-09 16:31:48.896,2,0.44,-0.69,1.37,-201.3966,57.1244,115.5214,175,75
2026-05-09 16:31:48.949,2,0.43,-0.73,1.37,-200.9066,71.2144,112.2914,175,75
2026-05-09 16:31:48.971,2,0.42,-0.77,1.38,-199.9366,82.9144,107.7814,175,75
2026-05-09 16:31:48.971,2,0.4,-0.79,1.4,-198.7166,91.5144,102.9614,175,75
2026-05-09 16:31:48.989,2,0.27,-0.72,1.57,-187.6766,164.99439999999998,72.0514,175,75
2026-05-09 16:31:49.006,2,0.25,-0.73,1.63,-181.3966,182.1244,63.45140000000001,175,75
2026-05-09 16:31:49.030,2,0.21,-0.71,1.77,-166.3366,199.3144,50.95140000000001,175,75
2026-05-09 16:31:49.083,2,0.21,-0.61,1.9,-147.00660000000002,197.1244,38.0214,175,75
2026-05-09 16:31:49.109,2,0.2,-0.41,2.02,-109.0766,171.21439999999998,17.2914,175,75
2026-05-09 16:31:49.109,2,0.2,-0.36,2.05,-100.3566,159.50439999999998,12.6614,175,75
2026-05-09 16:31:49.135,2,0.19,-0.27,2.04,-82.0666,132.49439999999998,4.551400000000001,175,75
2026-05-09 16:31:49.135,2,0.17,-0.24,2.02,-73.6566,122.4244,3.391400000000001,175,75
2026-05-09 16:31:49.146,2,0.17,-0.2,2.02,-64.8766,111.9444,2.601399999999998,175,75
2026-05-09 16:31:49.168,2,0.22,-0.16,2.04,-50.726600000000005,75.6044,-0.8785999999999987,175,75
2026-05-09 16:31:49.182,2,0.23,-0.13,1.98,-43.046600000000005,34.5644,-3.3186,175,75
2026-05-09 16:31:49.188,2,0.23,-0.13,1.9,-37.5566,19.5044,-3.1286000000000005,175,75
2026-05-09 16:31:49.216,2,0.23,-0.12,1.8,-28.2866,17.0644,-3.1286000000000005,175,75
2026-05-09 16:31:49.228,2,0.23,-0.12,1.78,-24.4466,21.6944,-2.458600000000001,175,75
2026-05-09 16:31:49.242,2,0.24,-0.13,1.77,-20.2366,25.8444,-1.848600000000001,175,75
2026-05-09 16:31:49.247,2,0.24,-0.12,1.77,-15.8466,29.1944,-0.8785999999999987,175,75
2026-05-09 16:31:49.283,2,0.28,-0.11,1.79,-9.9366,25.6044,1.9314,175,75
2026-05-09 16:31:49.294,2,0.31,-0.13,1.8,-6.456600000000001,11.3344,1.6214000000000013,175,75
2026-05-09 16:31:49.306,2,0.31,-0.12,1.79,-4.3266,5.6644000000000005,1.8714000000000013,175,75
2026-05-09 16:31:49.360,2,0.35,-0.12,1.79,4.0934,-15.6156,0.4614000000000011,175,75
2026-05-09 16:31:49.360,2,0.36,-0.11,1.78,6.4734,-23.855600000000003,-0.1486000000000018,175,75
2026-05-09 16:31:49.370,2,0.36,-0.12,1.75,9.0334,-27.8156,-0.7586000000000013,175,75
2026-05-09 16:31:49.393,2,0.37,-0.15,1.69,18.0534,-32.9956,-2.038599999999999,175,75
2026-05-09 16:31:49.404,2,0.38,-0.14,1.67,20.9234,-31.965599999999995,-2.6486,175,75
2026-05-09 16:31:49.414,2,0.39,-0.15,1.68,24.3334,-32.2656,-4.2286,175,75
2026-05-09 16:31:49.431,2,0.41,-0.17,1.68,26.8934,-37.2656,-6.118600000000001,175,75
2026-05-09 16:31:49.447,2,0.42,-0.18,1.65,30.6734,-45.9256,-9.0486,175,75
2026-05-09 16:31:49.457,2,0.43,-0.21,1.59,33.1734,-50.6156,-10.5086,175,75
2026-05-09 16:31:49.468,2,0.44,-0.22,1.54,35.7334,-50.2556,-12.0386,175,75
2026-05-09 16:31:49.476,2,0.46,-0.22,1.5,37.6334,-46.4156,-13.6186,175,75
2026-05-09 16:31:49.501,2,0.47,-0.19,1.44,38.4834,-35.8056,-15.1486,175,75
2026-05-09 16:31:49.532,2,0.5,-0.2,1.44,30.1234,13.8944,-17.648600000000002,175,75
2026-05-09 16:31:49.571,2,0.5,-0.32,1.63,27.2034,-52.0856,-23.4986,175,75
2026-05-09 16:31:49.587,2,0.49,-0.34,1.55,30.2534,-79.9456,-24.7186,175,75
2026-05-09 16:31:49.606,2,0.5,-0.29,1.37,39.2734,-94.7656,-30.9986,175,75
2026-05-09 16:31:49.654,2,0.45,-0.28,1.21,42.5634,-57.0256,-46.7286,175,75
2026-05-09 16:31:49.660,2,0.39,-0.2,1.21,43.0534,-26.965599999999995,-52.3986,175,75
2026-05-09 16:31:49.668,2,0.4,-0.18,1.25,43.9134,-13.5456,-53.0686,175,75
2026-05-09 16:31:49.682,2,0.4,-0.16,1.3,44.7634,-8.605599999999999,-53.128600000000006,175,75
2026-05-09 16:31:49.702,2,0.4,-0.16,1.35,46.4734,-4.6456,-52.4586,175,75
2026-05-09 16:31:49.733,2,0.4,-0.17,1.36,47.2634,-1.8956,-52.2786,175,75
2026-05-09 16:31:49.733,2,0.4,-0.18,1.38,49.3334,1.2744000000000009,-52.6486,175,75
2026-05-09 16:31:49.750,2,0.39,-0.2,1.4,50.0634,2.5544000000000007,-53.6786,175,75
2026-05-09 16:31:49.761,2,0.4,-0.2,1.43,50.8634,0.7244000000000002,-54.04859999999999,175,75
2026-05-09 16:31:49.772,2,0.41,-0.17,1.46,49.4534,-4.275599999999999,-54.1086,175,75
2026-05-09 16:31:49.772,2,0.41,-0.15,1.49,47.7534,-10.1956,-54.348600000000005,175,75
2026-05-09 16:31:49.783,2,0.42,-0.14,1.5,44.8834,-21.2256,-54.4186,175,75
2026-05-09 16:31:49.805,2,0.43,-0.12,1.5,42.0834,-32.0256,-55.2086,175,75
2026-05-09 16:31:49.805,2,0.43,-0.13,1.49,40.8034,-39.0956,-55.9386,175,75
2026-05-09 16:31:49.835,2,0.42,-0.12,1.45,41.1634,-41.2256,-59.2286,175,75
2026-05-09 16:31:49.879,2,0.38,-0.09,1.43,45.9234,-18.1156,-62.4586,175,75
2026-05-09 16:31:49.894,2,0.4,-0.08,1.47,46.1034,-16.8356,-62.7086,175,75
2026-05-09 16:31:49.972,2,0.37,-0.07,1.49,52.0234,-17.385599999999997,-59.7186,175,75
2026-05-09 16:31:50.007,2,0.38,-0.05,1.45,52.8734,-32.8156,-58.1986,175,75
2026-05-09 16:31:50.088,2,0.39,-0.03,1.41,56.4134,-15.0056,-54.2886,175,75
2026-05-09 16:31:50.099,2,0.37,-0.01,1.39,58.7234,-4.945599999999999,-51.9786,175,75
2026-05-09 16:31:50.155,2,0.38,0.01,1.43,59.1534,-15.1956,-47.3386,175,75
2026-05-09 16:31:50.155,2,0.38,0.03,1.4,58.9134,-17.385599999999997,-46.3686,175,75
2026-05-09 16:31:50.155,2,0.37,0.04,1.39,58.4834,-16.165599999999998,-44.598600000000005,175,75
2026-05-09 16:31:50.177,2,0.36,0.04,1.37,57.9934,-10.495599999999998,-41.7286,175,75
2026-05-09 16:31:50.177,2,0.37,0.03,1.38,57.6334,-5.7456,-39.8986,175,75
2026-05-09 16:31:50.178,2,0.37,0.04,1.39,57.0234,-3.9756,-38.5586,175,75
2026-05-09 16:31:50.260,2,0.34,0.08,1.37,54.9434,-1.7755999999999998,-26.4886,175,75
2026-05-09 16:31:50.274,2,0.33,0.04,1.34,52.3234,-4.3356,-23.2586,175,75
2026-05-09 16:31:50.284,2,0.28,0.05,1.29,52.2634,6.394400000000001,-20.2686,175,75
2026-05-09 16:31:50.284,2,0.29,0.08,1.29,53.0534,13.9544,-17.2186,175,75
2026-05-09 16:31:50.308,2,0.32,0.11,1.32,53.8434,19.4444,-12.6486,175,75
2026-05-09 16:31:50.308,2,0.34,0.09,1.35,51.1034,19.1944,-10.4486,175,75
2026-05-09 16:31:50.339,2,0.36,0.05,1.36,42.1434,5.534400000000001,-6.608600000000001,175,75
2026-05-09 16:31:50.339,2,0.35,0.05,1.33,40.2534,0.4144000000000005,-5.8186,175,75
2026-05-09 16:31:50.353,2,0.32,0.04,1.3,37.9934,-2.0256,-5.028600000000001,175,75
2026-05-09 16:31:50.395,2,0.3,0.05,1.26,36.3434,-0.7455999999999996,-4.7186,175,75
2026-05-09 16:31:50.405,2,0.24,0.06,1.2,34.8834,8.1044,-2.708600000000001,175,75
2026-05-09 16:31:50.414,2,0.25,0.06,1.22,34.3934,23.2844,3.5113999999999983,175,75
2026-05-09 16:31:50.425,2,0.25,0.05,1.21,30.0634,22.4244,5.101399999999998,175,75
2026-05-09 16:31:50.425,2,0.24,0.07,1.19,26.7734,23.1644,7.6614,175,75
2026-05-09 16:31:50.435,2,0.22,0.08,1.16,23.3634,23.9544,9.5514,175,75
2026-05-09 16:31:50.435,2,0.18,0.06,1.1,16.5934,30.724400000000003,13.691399999999998,175,75
2026-05-09 16:31:50.454,2,0.17,0.06,1.09,11.4134,42.9744,20.1014,175,75
2026-05-09 16:31:50.466,2,0.23,0.1,1.16,5.7334,49.5044,28.2114,175,75
2026-05-09 16:31:50.477,2,0.3,0.06,1.28,-1.0865999999999998,40.354400000000005,32.0514,175,75
2026-05-09 16:31:50.486,2,0.36,-0.02,1.36,-11.276599999999998,9.8644,32.0514,175,75
2026-05-09 16:31:50.496,2,0.36,-0.04,1.35,-17.3766,-15.0756,31.6814,175,75
2026-05-09 16:31:50.507,2,0.31,-0.01,1.25,-23.9566,-35.6156,32.6614,175,75
2026-05-09 16:31:50.518,2,0.26,0.0,1.18,-30.3566,-37.9956,35.281400000000005,175,75
2026-05-09 16:31:50.542,2,0.3,0.05,1.14,-36.9466,-12.0856,47.29140000000001,175,75
2026-05-09 16:31:50.562,2,0.5,-0.08,1.35,-44.7466,-18.1856,51.9314,175,75
2026-05-09 16:31:50.574,2,0.55,-0.12,1.38,-48.4666,-41.3556,47.84140000000001,175,75
2026-05-09 16:31:50.585,2,0.55,-0.09,1.34,-50.6066,-59.095600000000005,45.2214,175,75
2026-05-09 16:31:50.608,2,0.53,-0.06,1.26,-52.2466,-59.2156,43.0214,175,75
2026-05-09 16:31:50.608,2,0.52,-0.05,1.21,-52.7366,-49.7656,42.0514,175,75
2026-05-09 16:31:50.619,2,0.5,-0.06,1.18,-53.1066,-32.8756,41.1314,175,75
2026-05-09 16:31:50.630,2,0.52,-0.06,1.16,-53.8966,-13.3656,40.34139999999999,175,75
2026-05-09 16:31:50.646,2,0.54,-0.04,1.17,-52.976600000000005,1.9444000000000004,39.1214,175,75
2026-05-09 16:31:50.660,2,0.58,-0.04,1.22,-50.2366,15.9644,36.8014,175,75
2026-05-09 16:31:50.675,2,0.6,-0.01,1.29,-49.9966,20.3544,32.781400000000005,175,75
2026-05-09 16:31:50.699,2,0.61,-0.02,1.3,-51.2166,17.5544,30.4614,175,75
2026-05-09 16:31:50.699,2,0.6,-0.01,1.29,-51.576600000000006,14.9944,28.1514,175,75
2026-05-09 16:31:50.755,2,0.67,0.07,1.29,-57.1266,3.0344000000000007,21.0714,175,75
2026-05-09 16:31:50.764,2,0.64,0.08,1.25,-61.21660000000001,4.5044,18.8214,175,75
2026-05-09 16:31:50.764,2,0.62,0.06,1.22,-65.2966,16.334400000000002,16.381400000000003,175,75
2026-05-09 16:31:50.788,2,0.63,0.03,1.46,-75.72659999999999,42.3644,11.9914,175,75
2026-05-09 16:31:50.799,2,0.63,-0.01,1.57,-78.4666,35.6644,10.8314,175,75
2026-05-09 16:31:50.867,2,0.57,0.01,1.64,-74.8766,37.9144,14.4314,175,75
2026-05-09 16:31:50.880,2,0.57,-0.01,1.79,-66.69659999999999,45.8444,11.6814,175,75
2026-05-09 16:31:50.892,2,0.56,-0.01,1.84,-62.91660000000001,40.964400000000005,9.4314,175,75
2026-05-09 16:31:50.905,2,0.56,-0.01,1.88,-59.99660000000001,34.8644,8.6314,175,75
2026-05-09 16:31:50.917,2,0.56,-0.01,1.9,-55.1766,24.9244,7.1114,175,75
2026-05-09 16:31:50.917,2,0.57,0.01,1.91,-51.3366,17.4944,7.1114,175,75
2026-05-09 16:31:50.938,2,0.6,0.03,1.9,-43.8966,3.0344000000000007,5.5214,175,75
2026-05-09 16:31:50.950,2,0.59,0.04,1.85,-37.5566,-0.4355999999999991,2.1114,175,75
2026-05-09 16:31:50.962,2,0.58,0.03,1.83,-34.686600000000006,6.7544,0.4614000000000011,175,75
2026-05-09 16:31:50.989,2,0.59,0.04,1.84,-31.2166,16.3944,-1.4886000000000017,175,75
2026-05-09 16:31:51.042,2,0.62,0.07,1.97,-22.1266,15.2344,-4.778600000000001,175,75
2026-05-09 16:31:51.042,2,0.63,0.07,1.98,-19.1966,8.4044,-6.0586,175,75
2026-05-09 16:31:51.103,2,0.62,0.1,1.94,-0.3566000000000002,-12.5056,-20.4486,175,75
2026-05-09 16:31:51.114,2,0.61,0.12,1.94,8.5434,-0.0055999999999993,-26.7286,175,75
2026-05-09 16:31:51.145,2,0.64,0.13,1.94,26.7134,7.0044,-36.4286,175,75
2026-05-09 16:31:51.152,2,0.64,0.13,1.92,30.5534,11.2144,-39.1686,175,75
2026-05-09 16:31:51.165,2,0.66,0.13,1.92,35.4334,17.8544,-42.9486,175,75
2026-05-09 16:31:51.165,2,0.66,0.11,1.93,38.9134,22.364400000000003,-47.8286,175,75
2026-05-09 16:31:51.182,2,0.63,0.02,1.96,40.4934,23.6444,-52.8886,175,75
2026-05-09 16:31:51.186,2,0.57,-0.12,2.01,45.4934,17.0044,-58.8086,175,75
2026-05-09 16:31:51.200,2,0.54,-0.16,2.01,52.5034,2.4944000000000006,-58.988600000000005,175,75
2026-05-09 16:31:51.213,2,0.54,-0.14,1.99,60.3134,-16.2256,-56.1786,175,75
2026-05-09 16:31:51.264,2,0.7,0.0,1.7,81.77340000000001,-49.7656,-44.5386,175,75
2026-05-09 16:31:51.264,2,0.69,-0.07,1.63,81.71340000000001,-41.2856,-48.5586,175,75
2026-05-09 16:31:51.277,2,0.67,-0.13,1.59,82.69340000000001,-33.2456,-52.15860000000001,175,75
2026-05-09 16:31:51.289,2,0.65,-0.16,1.58,85.6734,-25.0056,-56.238600000000005,175,75
2026-05-09 16:31:51.289,2,0.63,-0.12,1.58,87.8134,-21.7756,-57.8886,175,75
2026-05-09 16:31:51.337,2,0.58,-0.06,1.58,89.6434,-47.5056,-64.0486,175,75
2026-05-09 16:31:51.346,2,0.54,-0.06,1.52,90.9834,-48.5456,-65.3886,175,75
2026-05-09 16:31:51.364,2,0.5,-0.05,1.46,93.6634,-36.0456,-66.4886,175,75
2026-05-09 16:31:51.369,2,0.5,-0.04,1.48,96.2834,-20.5556,-66.3086,175,75
2026-05-09 16:31:51.388,2,0.51,-0.04,1.54,97.9334,-14.9456,-66.8486,175,75
2026-05-09 16:31:51.399,2,0.5,-0.04,1.58,98.3634,-16.715600000000002,-66.1786,175,75
2026-05-09 16:31:51.416,2,0.45,-0.05,1.6,96.7734,-20.6156,-62.3386,175,75
2026-05-09 16:31:51.428,2,0.47,-0.06,1.64,96.2834,-27.145599999999995,-60.3886,175,75
2026-05-09 16:31:51.439,2,0.48,-0.06,1.67,97.0234,-37.7556,-60.6986,175,75
2026-05-09 16:31:51.447,2,0.5,-0.07,1.68,98.6634,-51.0456,-61.0586,175,75
2026-05-09 16:31:51.489,2,0.43,-0.03,1.55,104.3934,-65.8056,-62.0386,175,75
2026-05-09 16:31:51.489,2,0.42,-0.02,1.51,106.4734,-62.4456,-62.4586,175,75
2026-05-09 16:31:51.500,2,0.42,-0.03,1.47,109.0334,-56.1656,-63.1986,175,75
2026-05-09 16:31:51.500,2,0.41,-0.03,1.45,110.1234,-46.9656,-63.4986,175,75
2026-05-09 16:31:51.511,2,0.41,-0.04,1.45,111.5334,-37.6956,-64.1086,175,75
2026-05-09 16:31:51.587,2,0.44,-0.03,1.51,112.8734,-57.7556,-67.9486,175,75
2026-05-09 16:31:51.612,2,0.42,-0.01,1.45,114.0934,-56.9656,-68.8686,175,75
2026-05-09 16:31:51.651,2,0.42,0.02,1.44,115.0034,-46.4156,-68.7386,175,75
2026-05-09 16:31:51.668,2,0.4,0.02,1.46,114.7634,-44.3956,-68.6786,175,75
2026-05-09 16:31:51.685,2,0.4,0.03,1.46,114.3934,-44.5256,-67.2786,175,75
2026-05-09 16:31:51.696,2,0.41,0.03,1.46,113.7234,-49.6456,-64.6586,175,75
2026-05-09 16:31:51.707,2,0.41,0.02,1.44,115.5534,-54.5256,-64.3486,175,75
2026-05-09 16:31:51.713,2,0.41,0.02,1.41,115.1934,-56.6556,-64.9586,175,75
2026-05-09 16:31:51.748,2,0.38,0.05,1.35,114.3334,-54.9456,-64.6586,175,75
2026-05-09 16:31:51.748,2,0.37,0.07,1.34,113.3634,-51.1056,-63.988600000000005,175,75
2026-05-09 16:31:51.759,2,0.37,0.07,1.33,113.1734,-48.7256,-63.4386,175,75
2026-05-09 16:31:51.759,2,0.38,0.05,1.32,113.7234,-48.3656,-62.8286,175,75
2026-05-09 16:31:51.770,2,0.38,0.04,1.32,115.1934,-48.3056,-62.2186,175,75
2026-05-09 16:31:51.814,2,0.36,0.08,1.25,116.8934,-55.2556,-62.8886,175,75
2026-05-09 16:31:51.834,2,0.36,0.1,1.21,115.6134,-52.2056,-63.6186,175,75
2026-05-09 16:31:51.834,2,0.36,0.1,1.2,114.3334,-47.1456,-63.738600000000005,175,75
2026-05-09 16:31:51.852,2,0.36,0.1,1.19,112.2634,-39.7656,-63.988600000000005,175,75
2026-05-09 16:31:51.852,2,0.37,0.1,1.21,110.0634,-34.5856,-64.0486,175,75
2026-05-09 16:31:51.863,2,0.37,0.1,1.23,107.9934,-34.2756,-64.0486,175,75
2026-05-09 16:31:51.867,2,0.37,0.11,1.25,106.4734,-35.075599999999994,-63.5586,175,75
2026-05-09 16:31:51.877,2,0.36,0.12,1.26,104.8834,-34.5856,-62.15860000000001,175,75
2026-05-09 16:31:51.891,2,0.34,0.13,1.26,102.9334,-31.4756,-60.4486,175,75
2026-05-09 16:31:51.904,2,0.34,0.14,1.26,103.1134,-28.2456,-57.3386,175,75
2026-05-09 16:31:51.933,2,0.37,0.15,1.27,103.6034,-24.7656,-54.4186,175,75
2026-05-09 16:31:51.946,2,0.39,0.15,1.29,103.5434,-25.3156,-53.6186,175,75
2026-05-09 16:31:51.966,2,0.4,0.15,1.32,102.9334,-28.5456,-53.5586,175,75
2026-05-09 16:31:51.977,2,0.41,0.15,1.33,101.8934,-33.9156,-52.8886,175,75
2026-05-09 16:31:51.988,2,0.41,0.15,1.31,99.9434,-40.8056,-52.7086,175,75
2026-05-09 16:31:51.988,2,0.41,0.15,1.27,98.6634,-44.6456,-52.3386,175,75
2026-05-09 16:31:52.000,2,0.4,0.17,1.23,97.7534,-41.7756,-51.848600000000005,175,75
2026-05-09 16:31:52.033,2,0.41,0.16,1.23,98.2334,-27.5056,-51.9186,175,75
2026-05-09 16:31:52.058,2,0.42,0.15,1.26,98.3034,-24.9456,-51.9186,175,75
2026-05-09 16:31:52.058,2,0.42,0.15,1.28,98.2334,-25.6156,-52.0386,175,75
2026-05-09 16:31:52.069,2,0.42,0.17,1.26,98.1734,-25.7456,-50.7586,175,75
2026-05-09 16:31:52.079,2,0.42,0.19,1.24,98.3034,-25.925600000000003,-50.4486,175,75
2026-05-09 16:31:52.079,2,0.42,0.18,1.22,98.7834,-22.8756,-50.1486,175,75
2026-05-09 16:31:52.090,2,0.43,0.16,1.24,99.0334,-18.855600000000003,-51.238600000000005,175,75
2026-05-09 16:31:52.102,2,0.42,0.16,1.24,97.8734,-22.8756,-50.5686,175,75
2026-05-09 16:31:52.114,2,0.42,0.17,1.23,96.5334,-23.3656,-48.988600000000005,175,75
2026-05-09 16:31:52.114,2,0.43,0.17,1.25,95.1234,-24.3956,-47.8886,175,75
2026-05-09 16:31:52.125,2,0.44,0.15,1.26,93.1134,-29.5856,-47.2186,175,75
2026-05-09 16:31:52.137,2,0.44,0.15,1.23,93.1134,-36.8956,-46.9786,175,75
2026-05-09 16:31:52.159,2,0.43,0.15,1.22,92.5034,-39.2156,-47.2186,175,75
2026-05-09 16:31:52.170,2,0.42,0.15,1.21,90.6134,-42.1456,-47.1586,175,75
2026-05-09 16:31:52.191,2,0.39,0.15,1.21,88.9734,-40.9256,-46.7886,175,75
2026-05-09 16:31:52.191,2,0.38,0.14,1.2,87.69340000000001,-37.0256,-46.3686,175,75
2026-05-09 16:31:52.218,2,0.38,0.11,1.19,87.38340000000001,-35.8656,-45.8786,175,75
2026-05-09 16:31:52.242,2,0.4,0.09,1.18,89.3334,-37.3256,-46.7886,175,75
2026-05-09 16:31:52.254,2,0.41,0.18,1.16,93.1134,-35.1356,-49.9586,175,75
2026-05-09 16:31:52.264,2,0.34,0.16,1.17,88.7234,-40.5556,-52.6486,175,75
2026-05-09 16:31:52.282,2,0.33,0.17,1.14,86.2834,-41.8956,-51.1186,175,75
2026-05-09 16:31:52.282,2,0.34,0.14,1.12,84.88340000000001,-40.0756,-49.348600000000005,175,75
2026-05-09 16:31:52.294,2,0.38,0.13,1.11,85.80340000000001,-40.7456,-48.738600000000005,175,75
2026-05-09 16:31:52.307,2,0.4,0.12,1.12,86.0434,-40.2556,-50.878600000000006,175,75
2026-05-09 16:31:52.347,2,0.37,0.14,1.11,84.3334,-40.9856,-53.2586,175,75
2026-05-09 16:31:52.357,2,0.33,0.17,1.1,83.30340000000001,-39.9456,-53.3186,175,75
2026-05-09 16:31:52.369,2,0.27,0.17,1.06,79.4534,-27.0856,-50.4486,175,75
2026-05-09 16:31:52.380,2,0.28,0.16,1.07,79.27340000000001,-17.995599999999996,-48.4386,175,75
2026-05-09 16:31:52.391,2,0.33,0.21,1.16,78.8434,-11.1656,-45.4486,175,75
2026-05-09 16:31:52.405,2,0.35,0.2,1.21,78.1134,-17.815599999999996,-45.0886,175,75
2026-05-09 16:31:52.405,2,0.33,0.16,1.23,76.16340000000001,-28.9156,-44.598600000000005,175,75
2026-05-09 16:31:52.415,2,0.3,0.15,1.2,74.21340000000001,-38.2456,-44.1686,175,75
2026-05-09 16:31:52.428,2,0.27,0.15,1.15,72.3234,-37.5056,-43.1986,175,75
2026-05-09 16:31:52.442,2,0.25,0.17,1.13,71.9534,-25.6156,-40.9986,175,75
2026-05-09 16:31:52.442,2,0.24,0.17,1.15,74.3934,-11.475599999999998,-37.9486,175,75
2026-05-09 16:31:52.450,2,0.27,0.16,1.19,77.3234,-4.6456,-35.9386,175,75
2026-05-09 16:31:52.472,2,0.29,0.15,1.23,80.0034,3.5844000000000005,-34.718599999999995,175,75
2026-05-09 16:31:52.472,2,0.29,0.16,1.25,81.9534,7.974400000000001,-33.9886,175,75
2026-05-09 16:31:52.493,2,0.31,0.16,1.26,86.5934,8.1044,-32.1586,175,75
2026-05-09 16:31:52.499,2,0.33,0.17,1.28,90.8034,6.574400000000001,-31.8486,175,75
2026-05-09 16:31:52.511,2,0.35,0.19,1.31,91.2834,7.1244000000000005,-32.9486,175,75
2026-05-09 16:31:52.525,2,0.36,0.18,1.35,91.8334,0.1744000000000003,-33.0086,175,75
2026-05-09 16:31:52.525,2,0.37,0.13,1.37,90.8634,-14.0956,-33.2586,175,75
2026-05-09 16:31:52.550,2,0.31,0.06,1.3,86.9534,-33.5456,-33.9886,175,75
2026-05-09 16:31:52.561,2,0.3,0.04,1.23,89.21340000000001,-33.605599999999995,-33.0086,175,75
2026-05-09 16:31:52.585,2,0.28,0.03,1.19,93.2334,-20.925600000000003,-31.7286,175,75
2026-05-09 16:31:52.585,2,0.3,0.07,1.18,99.5234,-5.7456,-30.2686,175,75
2026-05-09 16:31:52.595,2,0.35,0.07,1.26,106.5934,1.9444000000000004,-28.7386,175,75
2026-05-09 16:31:52.635,2,0.36,0.06,1.29,107.0834,1.5144000000000002,-28.6186,175,75
2026-05-09 16:31:52.692,2,0.46,0.02,1.35,112.9334,-1.8956,-16.7286,175,75
2026-05-09 16:31:52.692,2,0.44,-0.01,1.35,112.6234,-11.655599999999998,-17.5286,175,75
2026-05-09 16:31:52.745,2,0.36,-0.04,1.27,108.8434,-9.0956,-15.6286,175,75
2026-05-09 16:31:52.782,2,0.42,-0.03,1.27,110.9834,-1.7755999999999998,-7.708600000000001,175,75
2026-05-09 16:31:52.793,2,0.51,-0.08,1.37,112.0834,-6.535599999999999,-5.208600000000001,175,75
2026-05-09 16:31:52.793,2,0.48,-0.11,1.39,109.7634,-17.815599999999996,-7.5886,175,75
2026-05-09 16:31:52.799,2,0.45,-0.08,1.29,112.0234,-29.465599999999995,-6.0586,175,75
2026-05-09 16:31:53.048,2,0.45,-0.11,1.25,109.6434,-9.2156,-5.5086,175,75
2026-05-09 16:31:53.048,2,0.46,-0.14,1.29,111.3434,11.3344,-2.8886000000000003,175,75
2026-05-09 16:31:53.048,2,0.48,-0.19,1.38,116.7134,32.6144,2.961400000000001,175,75
2026-05-09 16:31:53.048,2,0.48,-0.18,1.57,128.4234,75.6644,11.6814,175,75
2026-05-09 16:31:53.048,2,0.56,-0.24,1.6,133.5434,67.7344,15.0414,175,75
2026-05-09 16:31:53.048,2,0.59,-0.27,1.61,132.99339999999998,61.0244,16.9314,175,75
2026-05-09 16:31:53.076,2,0.61,-0.21,1.69,130.8034,25.0544,22.9614,175,75
2026-05-09 16:31:53.141,2,0.61,-0.24,1.64,127.4434,12.4944,19.5514,175,75
2026-05-09 16:31:53.141,2,0.58,-0.25,1.71,147.3234,121.6944,27.2314,175,75
2026-05-09 16:31:53.283,2,0.55,-0.23,2.11,166.8934,178.71439999999998,49.4314,175,75
2026-05-09 16:31:53.283,2,0.43,-0.31,2.42,189.8234,208.4644,71.6814,175,75
2026-05-09 16:31:53.426,2,0.09,-0.06,2.77,152.6934,145.47439999999995,127.1114,175,75
2026-05-09 16:31:53.426,2,-0.12,-0.02,2.86,148.4834,151.4544,146.6214,175,75
2026-05-09 16:31:53.485,2,-0.21,0.0,2.91,122.4434,-30.9256,112.2314,175,75
2026-05-09 16:31:53.485,2,-0.19,0.05,2.87,125.3734,-36.2256,108.1514,175,75
2026-05-09 16:31:53.748,2,-0.25,0.12,2.81,127.5034,-36.9656,103.0214,175,75
2026-05-09 16:31:53.748,2,-0.16,0.31,2.84,118.3034,-41.2256,95.7714,175,75
2026-05-09 16:31:53.748,2,-0.2,0.39,2.79,111.7734,-55.0756,83.3914,175,75
2026-05-09 16:31:53.748,2,-0.23,0.42,2.78,110.9234,-57.6956,80.1014,175,75
2026-05-09 16:31:53.748,2,-0.21,0.43,2.75,109.5234,-66.5356,76.5614,175,75
2026-05-09 16:31:53.749,2,-0.24,0.42,2.73,109.0334,-78.9756,71.4414,175,75
2026-05-09 16:31:53.749,2,-0.15,0.43,2.62,118.1734,-66.9656,56.62140000000001,175,75
2026-05-09 16:31:53.749,2,-0.06,0.56,2.63,110.3134,-68.8556,41.8014,175,75
2026-05-09 16:31:53.749,2,-0.08,0.61,2.62,105.7334,-71.8956,37.781400000000005,175,75
2026-05-09 16:31:53.825,2,0.1,0.95,2.8,41.7734,-137.6956,9.7314,175,75
2026-05-09 16:31:53.928,2,0.0,0.99,2.17,37.8134,-207.9956,-8.7386,175,75
2026-05-09 16:31:53.928,2,0.06,0.99,2.12,33.4834,-152.02560000000005,3.8813999999999993,175,75
2026-05-09 16:31:53.929,2,0.19,0.97,2.16,34.4534,-120.8656,6.991399999999999,175,75
2026-05-09 16:31:53.963,2,0.25,0.91,2.24,32.6934,-130.31560000000002,-1.1186000000000007,175,75
2026-05-09 16:31:54.162,2,0.26,0.86,2.18,25.1234,-149.27560000000005,-9.8386,175,75
2026-05-09 16:31:54.162,2,0.17,0.84,1.95,7.0234,-135.9856,-20.9386,175,75
2026-05-09 16:31:54.162,2,0.15,0.88,1.95,3.6634,-117.6956,-19.8986,175,75
2026-05-09 16:31:54.162,2,0.22,0.91,1.99,-1.3365999999999998,-100.8656,-18.6186,175,75
2026-05-09 16:31:54.162,2,0.26,0.89,2.0,-4.686599999999999,-100.6156,-22.7686,175,75
2026-05-09 16:31:54.162,2,0.29,0.95,1.92,-22.6766,-54.9456,-57.3986,175,75
2026-05-09 16:31:54.162,2,0.28,0.97,1.94,-20.6666,-48.7256,-64.7186,175,75
2026-05-09 16:31:54.162,2,0.23,1.02,1.95,-15.116599999999998,-47.7556,-73.1986,175,75
2026-05-09 16:31:54.162,2,0.22,1.06,1.96,-15.0566,-48.6056,-69.7186,175,75
2026-05-09 16:31:54.319,2,0.27,1.13,2.0,-15.3566,-50.0756,-63.128600000000006,175,75
2026-05-09 16:31:54.319,2,0.39,1.2,2.03,-12.4966,-59.5856,-58.2586,175,75
2026-05-09 16:31:54.319,2,0.38,1.24,1.95,-4.0166,-60.0056,-47.7086,175,75
2026-05-09 16:31:54.319,2,0.39,1.24,1.94,-4.936599999999999,-58.54559999999999,-42.5886,175,75
2026-05-09 16:31:54.319,2,0.4,1.19,1.91,-10.6666,-60.4356,-37.2786,175,75
2026-05-09 16:31:54.319,2,0.39,1.18,1.91,-10.4766,-57.9356,-35.9386,175,75
2026-05-09 16:31:54.319,2,0.43,1.18,1.94,-8.8366,-51.8356,-33.1286,175,75
2026-05-09 16:31:54.320,2,0.41,1.18,1.99,-7.7366,-50.0756,-32.8886,175,75
2026-05-09 16:31:54.320,2,0.42,1.18,2.01,-8.046600000000002,-51.8956,-32.5886,175,75
2026-05-09 16:31:54.320,2,0.41,1.19,1.99,-9.6866,-65.0056,-32.6486,175,75
2026-05-09 16:31:54.359,2,0.37,1.17,1.92,-10.4166,-55.8056,-32.5886,175,75
2026-05-09 16:31:54.400,2,0.34,1.16,1.94,-12.4366,-57.6956,-32.3986,175,75
2026-05-09 16:31:54.400,2,0.32,1.14,1.91,-17.8566,-63.1856,-33.4986,175,75
2026-05-09 16:31:54.400,2,0.29,1.18,1.86,-24.4466,-64.0356,-32.2186,175,75
2026-05-09 16:31:54.529,2,0.28,1.21,1.86,-27.5566,-47.6956,-19.4786,175,75
2026-05-09 16:31:54.529,2,0.29,1.19,1.83,-29.8066,-43.0556,-17.8286,175,75
2026-05-09 16:31:54.529,2,0.3,1.19,1.83,-31.6966,-36.1056,-16.1786,175,75
2026-05-09 16:31:54.530,2,0.35,1.22,1.86,-31.3966,-25.7456,-13.6786,175,75
2026-05-09 16:31:54.530,2,0.37,1.25,1.88,-30.8466,-24.9456,-14.9586,175,75
2026-05-09 16:31:54.530,2,0.37,1.26,1.89,-29.9366,-30.075599999999994,-17.2186,175,75
2026-05-09 16:31:54.530,2,0.32,1.25,1.86,-31.0266,-34.5256,-18.2586,175,75
2026-05-09 16:31:54.580,2,0.28,1.23,1.88,-38.1666,-30.9856,-17.5886,175,75
2026-05-09 16:31:54.709,2,0.22,1.22,1.79,-37.5566,5.4744,-15.5086,175,75
2026-05-09 16:31:54.740,2,0.23,1.2,1.86,-43.7766,28.4644,-14.7786,175,75
2026-05-09 16:31:54.740,2,0.23,1.18,1.88,-45.476600000000005,30.0544,-15.8186,175,75
2026-05-09 16:31:54.774,2,0.22,1.14,1.95,-47.3066,55.9044,-18.2586,175,75
2026-05-09 16:31:54.801,2,0.23,1.18,2.09,-40.296600000000005,62.6144,-20.3286,175,75
2026-05-09 16:31:54.812,2,0.23,1.21,2.14,-40.4166,54.6244,-23.0086,175,75
2026-05-09 16:31:54.839,2,0.23,1.26,2.16,-39.506600000000006,44.4444,-24.4186,175,75
2026-05-09 16:31:54.839,2,0.22,1.27,2.15,-38.8966,36.0244,-26.608600000000003,175,75
2026-05-09 16:31:54.854,2,0.2,1.26,2.15,-37.2466,31.3344,-27.1586,175,75
2026-05-09 16:31:54.899,2,0.21,1.34,2.19,-30.6066,31.4544,-18.3786,175,75
2026-05-09 16:31:54.920,2,0.24,1.36,2.28,-22.3066,0.8444000000000003,-18.5586,175,75
2026-05-09 16:31:54.979,2,0.22,1.35,2.18,-13.046599999999998,-14.7056,-12.2786,175,75
2026-05-09 16:31:54.979,2,0.22,1.34,2.18,-11.2166,-12.0256,-9.9586,175,75
2026-05-09 16:31:54.999,2,0.22,1.3,2.18,-9.2666,-13.0556,-8.1286,175,75
2026-05-09 16:31:55.077,2,0.16,1.22,2.14,-13.956599999999998,-5.0756,-9.1686,175,75
2026-05-09 16:31:55.101,2,0.15,1.22,2.13,-17.1266,-5.255599999999999,-10.9986,175,75
2026-05-09 16:31:55.113,2,0.14,1.21,2.12,-17.6166,-2.0855999999999995,-11.6086,175,75
2026-05-09 16:31:55.123,2,0.15,1.21,2.14,-17.066599999999998,1.2744000000000009,-12.4586,175,75
2026-05-09 16:31:55.135,2,0.14,1.22,2.15,-17.4366,-0.0055999999999993,-15.0886,175,75
2026-05-09 16:31:55.145,2,0.13,1.22,2.15,-17.796599999999998,-0.8655999999999997,-17.5886,175,75
2026-05-09 16:31:55.190,2,0.08,1.28,2.23,-8.046600000000002,10.1144,-18.1986,175,75
2026-05-09 16:31:55.202,2,0.09,1.3,2.25,-6.1566,4.6244000000000005,-17.2786,175,75
2026-05-09 16:31:55.226,2,0.13,1.33,2.24,-4.5066,-22.5056,-17.1586,175,75
2026-05-09 16:31:55.229,2,0.12,1.34,2.19,-4.446600000000001,-30.1956,-16.6086,175,75
2026-05-09 16:31:55.243,2,0.12,1.34,2.14,-4.446600000000001,-30.9856,-15.0886,175,75
2026-05-09 16:31:55.257,2,0.12,1.36,2.11,-4.626600000000001,-25.7456,-11.6086,175,75
2026-05-09 16:31:55.257,2,0.12,1.38,2.09,-4.0766,-17.8756,-7.6486,175,75
2026-05-09 16:31:55.279,2,0.12,1.4,2.1,-2.8566000000000003,-9.1556,-2.768600000000001,175,75
2026-05-09 16:31:55.293,2,0.14,1.41,2.1,-3.1066000000000003,-4.275599999999999,-0.1486000000000018,175,75
2026-05-09 16:31:55.307,2,0.14,1.41,2.1,-4.1366000000000005,0.9044000000000008,1.6814,175,75
2026-05-09 16:31:55.319,2,0.15,1.42,2.1,-4.0766,5.6044,4.121400000000001,175,75
2026-05-09 16:31:55.334,2,0.15,1.41,2.12,-3.3466000000000005,8.284400000000002,6.741399999999999,175,75
2026-05-09 16:31:55.349,2,0.17,1.39,2.14,-3.3466000000000005,6.8844,6.741399999999999,175,75
2026-05-09 16:31:55.349,2,0.17,1.38,2.15,-4.0166,2.7944000000000004,6.131399999999999,175,75
2026-05-09 16:31:55.363,2,0.18,1.39,2.14,-4.5066,-2.0256,5.891400000000001,175,75
2026-05-09 16:31:55.377,2,0.18,1.38,2.14,-5.356599999999999,-5.615599999999999,5.9514,175,75
2026-05-09 16:31:55.391,2,0.19,1.37,2.15,-4.9966,-6.8956,7.171399999999998,175,75
2026-05-09 16:31:55.403,2,0.19,1.37,2.17,-5.0566,-11.475599999999998,8.2714,175,75
2026-05-09 16:31:55.412,2,0.17,1.38,2.18,-4.3866000000000005,-17.4456,9.4314,175,75
2026-05-09 16:31:55.423,2,0.11,1.37,2.2,-2.4966,-25.3156,12.4714,175,75
2026-05-09 16:31:55.436,2,0.12,1.37,2.21,-3.1066000000000003,-32.4456,14.7914,175,75
2026-05-09 16:31:55.447,2,0.12,1.39,2.21,-4.9966,-43.1856,18.1514,175,75
2026-05-09 16:31:55.462,2,0.13,1.4,2.19,-6.7666,-47.4456,23.0214,175,75
2026-05-09 16:31:55.462,2,0.14,1.38,2.15,-6.8266,-45.8056,28.631400000000003,175,75
2026-05-09 16:31:55.473,2,0.16,1.36,2.14,-5.7266,-42.1456,32.1114,175,75
2026-05-09 16:31:55.498,2,0.21,1.33,2.13,-4.7466,-24.4656,41.4414,175,75
2026-05-09 16:31:55.512,2,0.27,1.26,2.14,-4.0166,-10.0756,46.9914,175,75
2026-05-09 16:31:55.524,2,0.27,1.24,2.15,-4.0166,-6.285599999999999,47.84140000000001,175,75
2026-05-09 16:31:55.534,2,0.28,1.2,2.15,-4.7466,-2.0256,48.6314,175,75
2026-05-09 16:31:55.556,2,0.3,1.15,2.19,-4.936599999999999,1.0844000000000005,46.6814,175,75
2026-05-09 16:31:55.572,2,0.29,1.14,2.21,-3.466600000000001,-0.0055999999999993,45.5214,175,75
2026-05-09 16:31:55.585,2,0.29,1.13,2.22,-2.4966,-0.6855999999999991,44.1814,175,75
2026-05-09 16:31:55.597,2,0.3,1.12,2.23,-1.8866000000000005,-2.5756,43.5114,175,75
2026-05-09 16:31:55.653,2,0.27,1.1,2.25,9.2134,-0.0755999999999996,41.8014,175,75
2026-05-09 16:31:55.663,2,0.28,1.11,2.25,11.5334,-4.275599999999999,40.34139999999999,175,75
2026-05-09 16:31:55.690,2,0.28,1.11,2.2,15.5534,-16.4756,36.3814,175,75
2026-05-09 16:31:55.690,2,0.29,1.11,2.17,17.0234,-17.5056,35.4614,175,75
2026-05-09 16:31:55.709,2,0.3,1.11,2.16,18.9734,-13.4856,35.7114,175,75
2026-05-09 16:31:55.722,2,0.28,1.11,2.15,22.0234,-6.4156,36.6214,175,75
2026-05-09 16:31:55.732,2,0.28,1.11,2.16,24.7034,-0.4955999999999996,37.6614,175,75
2026-05-09 16:31:55.744,2,0.28,1.11,2.17,26.6534,1.9444000000000004,38.3914,175,75
2026-05-09 16:31:55.769,2,0.31,1.09,2.2,30.4934,1.3944,40.7714,175,75
2026-05-09 16:31:55.792,2,0.32,1.06,2.18,34.8834,4.5044,43.3914,175,75
2026-05-09 16:31:55.800,2,0.34,1.04,2.18,37.8134,3.1644000000000005,44.9114,175,75
2026-05-09 16:31:55.813,2,0.33,1.03,2.18,36.9534,2.3644000000000003,46.4414,175,75
2026-05-09 16:31:55.825,2,0.41,1.01,2.15,33.5434,-1.4755999999999991,45.8314,175,75
2026-05-09 16:31:55.835,2,0.45,0.97,2.13,30.0034,-11.225599999999998,39.6114,175,75
2026-05-09 16:31:55.850,2,0.45,0.96,2.11,28.9734,-14.0956,35.7114,175,75
2026-05-09 16:31:55.862,2,0.42,0.96,2.09,30.9834,-8.605599999999999,33.3314,175,75
2026-05-09 16:31:55.873,2,0.41,0.97,2.08,32.7534,0.2944000000000004,32.4114,175,75
2026-05-09 16:31:55.884,2,0.4,0.99,2.11,32.1434,5.0544,31.9914,175,75
2026-05-09 16:31:55.889,2,0.39,1.01,2.11,30.7334,3.7744,30.5214,175,75
2026-05-09 16:31:55.901,2,0.42,0.98,2.11,28.5434,2.3044000000000007,24.9114,175,75
2026-05-09 16:31:55.911,2,0.36,1.02,2.12,29.2734,10.7244,27.4114,175,75
2026-05-09 16:31:55.922,2,0.36,1.02,2.18,32.8134,11.1444,26.3214,175,75
2026-05-09 16:31:55.932,2,0.38,1.0,2.2,29.2134,1.2744000000000009,23.7614,175,75
2026-05-09 16:31:55.953,2,0.4,1.0,2.21,25.3734,-12.6956,19.1814,175,75
2026-05-09 16:31:55.998,2,0.41,0.98,2.06,17.8134,-41.1656,6.5014,175,75
2026-05-09 16:31:56.015,2,0.37,1.02,1.99,13.8434,-29.5856,4.121400000000001,175,75
2026-05-09 16:31:56.025,2,0.37,1.05,2.02,13.973400000000002,-4.765599999999999,8.211400000000001,175,75
2026-05-09 16:31:56.035,2,0.4,1.03,2.07,13.3634,0.5344000000000007,8.211400000000001,175,75
2026-05-09 16:31:56.073,2,0.42,0.99,2.11,2.1434,-27.2656,-1.058600000000002,175,75
2026-05-09 16:31:56.073,2,0.4,1.01,2.07,0.4333999999999998,-28.7256,-4.6586,175,75
2026-05-09 16:31:56.106,2,0.4,1.03,2.06,0.9234,-17.025599999999997,-3.3786000000000005,175,75
2026-05-09 16:31:56.157,2,0.4,1.03,2.12,-0.0566000000000004,-10.9856,-2.768600000000001,175,75
2026-05-09 16:31:56.180,2,0.41,1.0,2.13,-2.3666,-23.1856,-4.538600000000001,175,75
2026-05-09 16:31:56.180,2,0.43,1.0,2.11,-3.6566,-27.0856,-5.698600000000001,175,75
2026-05-09 16:31:56.191,2,0.43,1.0,2.09,-3.6566,-30.075599999999994,-7.5886,175,75
2026-05-09 16:31:56.214,2,0.43,1.04,2.05,-2.7966,-23.9756,-8.5586,175,75
2026-05-09 16:31:56.230,2,0.43,1.04,2.06,-1.2166000000000006,-15.0056,-6.428599999999999,175,75
2026-05-09 16:31:56.242,2,0.44,1.05,2.06,-0.6066000000000003,-17.025599999999997,-7.2186,175,75
2026-05-09 16:31:56.262,2,0.43,1.06,2.06,-1.0266000000000002,-21.8356,-8.1286,175,75
2026-05-09 16:31:56.274,2,0.44,1.06,2.04,-2.3066000000000004,-26.2256,-9.0486,175,75
2026-05-09 16:31:56.286,2,0.44,1.07,2.03,-3.956600000000001,-30.6856,-10.0286,175,75
2026-05-09 16:31:56.298,2,0.45,1.1,2.01,-4.8066,-33.4256,-9.7786,175,75
2026-05-09 16:31:56.309,2,0.44,1.1,1.99,-5.2366,-33.9756,-9.1086,175,75
2026-05-09 16:31:56.319,2,0.43,1.09,1.96,-7.2466,-31.4756,-8.1286,175,75
2026-05-09 16:31:56.335,2,0.42,1.06,1.94,-9.5066,-19.3956,-5.5086,175,75
2026-05-09 16:31:56.347,2,0.43,1.06,1.97,-10.4166,-14.155599999999998,-3.9286,175,75
2026-05-09 16:31:56.358,2,0.42,1.06,1.99,-11.5766,-14.9456,-4.778600000000001,175,75
2026-05-09 16:31:56.413,2,0.39,1.1,1.98,-13.4666,-16.715600000000002,-3.8686000000000007,175,75
2026-05-09 16:31:56.413,2,0.38,1.09,1.98,-12.7366,-13.9156,-2.8286,175,75
2026-05-09 16:31:56.425,2,0.37,1.1,1.98,-13.1666,-11.8956,-2.2186000000000003,175,75
2026-05-09 16:31:56.452,2,0.38,1.13,1.99,-14.6266,-11.655599999999998,0.0413999999999994,175,75
2026-05-09 16:31:56.472,2,0.38,1.12,1.96,-15.9666,-11.0456,3.5113999999999983,175,75
2026-05-09 16:31:56.492,2,0.4,1.12,2.02,-14.9966,-3.2456,8.3914,175,75
2026-05-09 16:31:56.517,2,0.45,1.1,2.07,-15.9666,-21.4756,9.0014,175,75
2026-05-09 16:31:56.559,2,0.47,1.12,1.95,-16.5166,-34.035599999999995,7.901399999999999,175,75
2026-05-09 16:31:56.611,2,0.48,1.13,1.92,-14.0766,-29.215599999999995,9.0014,175,75
2026-05-09 16:31:56.621,2,0.47,1.14,1.92,-12.976599999999998,-25.0056,9.7914,175,75
2026-05-09 16:31:56.632,2,0.45,1.14,1.92,-13.046599999999998,-23.855600000000003,10.7114,175,75
2026-05-09 16:31:56.632,2,0.47,1.12,1.91,-13.4066,-27.2656,8.941399999999998,175,75
2026-05-09 16:31:56.648,2,0.5,1.13,1.84,-14.6266,-40.3756,4.371400000000001,175,75
2026-05-09 16:31:56.678,2,0.42,1.19,1.74,-12.6766,-28.6656,7.781400000000001,175,75
2026-05-09 16:31:56.685,2,0.42,1.2,1.71,-11.0866,-14.5256,11.3214,175,75
2026-05-09 16:31:56.708,2,0.41,1.19,1.7,-10.0566,-4.1556,14.1814,175,75
2026-05-09 16:31:56.722,2,0.46,1.14,1.71,-6.216600000000001,17.2444,19.6714,175,75
2026-05-09 16:31:56.733,2,0.54,1.06,1.69,-4.936599999999999,24.684400000000004,12.4714,175,75
2026-05-09 16:31:56.739,2,0.52,1.06,1.69,-1.9466,27.9144,4.971399999999999,175,75
2026-05-09 16:31:56.815,2,0.35,1.03,1.77,27.5634,71.2144,-47.9486,175,75
2026-05-09 16:31:56.827,2,0.33,1.03,1.73,27.9934,68.7744,-56.238600000000005,175,75
2026-05-09 16:31:56.829,2,0.25,1.04,1.72,28.3634,70.9644,-62.15860000000001,175,75
2026-05-09 16:31:56.842,2,0.22,1.02,1.66,28.1134,74.1344,-71.8486,175,75
2026-05-09 16:31:56.856,2,0.13,1.04,1.63,25.6134,74.8044,-79.6586,175,75
2026-05-09 16:31:56.869,2,0.09,1.08,1.61,23.9134,86.51440000000001,-87.09859999999999,175,75
2026-05-09 16:31:56.869,2,0.08,1.12,1.61,20.3734,104.1944,-90.1486,175,75
2026-05-09 16:31:56.882,2,0.05,1.16,1.6,16.8334,120.9044,-88.73859999999999,175,75
2026-05-09 16:31:56.895,2,-0.05,1.18,1.59,13.1134,145.6644,-86.5486,175,75
2026-05-09 16:31:56.907,2,-0.12,1.14,1.61,10.7334,170.2344,-85.5086,175,75
2026-05-09 16:31:56.918,2,-0.13,1.13,1.67,8.6034,196.1444,-82.0986,175,75
2026-05-09 16:31:56.930,2,-0.06,1.11,1.78,5.9234,209.0144,-80.9386,175,75
2026-05-09 16:31:56.942,2,-0.02,1.1,1.84,2.6934,209.2544,-82.2186,175,75
2026-05-09 16:31:56.953,2,0.02,1.05,1.92,-2.6766000000000005,199.5044,-92.5886,175,75
2026-05-09 16:31:56.966,2,0.03,1.04,1.98,-7.7366,185.1144,-102.0986,175,75
2026-05-09 16:31:56.978,2,-0.01,1.05,2.02,-13.776599999999998,165.72439999999995,-110.9386,175,75
2026-05-09 16:31:56.988,2,-0.1,1.08,2.08,-19.3266,148.8944,-115.1486,175,75
2026-05-09 16:31:57.000,2,-0.18,1.1,2.14,-27.4966,130.8444,-120.5686,175,75
2026-05-09 16:31:57.009,2,-0.13,1.09,2.19,-37.5566,109.0744,-126.7886,175,75
2026-05-09 16:31:57.020,2,-0.01,1.08,2.21,-52.976600000000005,66.5144,-136.5486,175,75
2026-05-09 16:31:57.020,2,0.02,1.09,2.17,-73.6566,4.444400000000001,-150.3286,175,75
2026-05-09 16:31:57.032,2,0.0,1.1,2.13,-97.2466,-44.3956,-159.2286,175,75
2026-05-09 16:31:57.070,2,-0.13,1.1,2.05,-158.7766,-122.4456,-159.7186,175,75
2026-05-09 16:31:57.077,2,-0.07,1.12,2.05,-193.2866,-168.4856,-150.6986,175,75
2026-05-09 16:31:57.095,2,-0.06,1.13,2.02,-227.4966,-223.9156,-144.4186,175,75
2026-05-09 16:31:57.105,2,-0.13,1.14,2.0,-269.1366,-288.4856,-133.67860000000002,175,75
2026-05-09 16:31:57.105,2,-0.11,1.09,2.04,-303.83660000000003,-349.5256,-112.5286,175,75
2026-05-09 16:31:57.152,2,-0.21,0.56,2.02,-378.1066,-369.5856,6.131399999999999,175,75
2026-05-09 16:31:57.152,2,-0.16,0.41,2.1,-362.9766,-312.1456,51.9914,175,75
2026-05-09 16:31:57.175,2,0.07,0.4,2.3,-349.3866,-267.4456,89.9114,175,75
2026-05-09 16:31:57.205,2,0.26,0.39,2.66,-334.3266,-227.3856,154.5514,175,75
2026-05-09 16:31:57.227,2,0.25,0.26,2.8,-308.95660000000004,-235.5556,169.8514,175,75
2026-05-09 16:31:57.232,2,0.28,0.2,2.74,-278.6566,-231.1056,204.7314,175,75
2026-05-09 16:31:57.253,2,0.32,0.08,2.6,-261.5766,-232.3256,231.0114,175,75
2026-05-09 16:31:57.276,2,0.45,-0.25,2.41,-221.2766,-166.59560000000002,249.3014,175,75
2026-05-09 16:31:57.276,2,0.49,-0.35,2.39,-195.7266,-131.28560000000002,251.8014,175,75
2026-05-09 16:31:57.297,2,0.47,-0.41,2.43,-169.2666,-93.3656,257.1714,175,75
2026-05-09 16:31:57.321,2,0.48,-0.46,2.42,-165.0566,-98.1856,259.6114,175,75
2026-05-09 16:31:57.321,2,0.46,-0.52,2.43,-154.19660000000002,-94.3356,258.8214,175,75
2026-05-09 16:31:57.361,2,0.4,-0.69,2.28,-119.8766,-80.37559999999999,244.8514,175,75
2026-05-09 16:31:57.395,2,0.37,-0.72,2.21,-113.2866,-73.7856,235.2814,175,75
2026-05-09 16:31:57.395,2,0.37,-0.79,2.21,-107.4966,-66.8356,227.9014,175,75
2026-05-09 16:31:57.403,2,0.3,-0.82,2.16,-104.1366,-68.1856,223.6314,175,75
2026-05-09 16:31:57.406,2,0.26,-0.8,2.04,-91.5766,-80.1956,208.6914,175,75
2026-05-09 16:31:57.417,2,0.35,-0.87,2.09,-83.5266,-96.0456,189.8514,175,75
2026-05-09 16:31:57.429,2,0.31,-0.85,2.07,-68.7166,-118.1156,177.4114,175,75
2026-05-09 16:31:57.440,2,0.25,-0.75,2.1,-55.4166,-137.0856,168.8814,175,75
2026-05-09 16:31:57.440,2,0.15,-0.66,2.06,-45.3566,-157.4456,166.1314,175,75
2026-05-09 16:31:57.451,2,0.14,-0.67,2.07,-33.4666,-187.6956,153.69140000000002,175,75
2026-05-09 16:31:57.462,2,0.24,-0.73,2.11,-14.6866,-225.6156,137.5414,175,75
2026-05-09 16:31:57.468,2,0.24,-0.75,2.03,3.3634,-252.14560000000003,125.4614,175,75
2026-05-09 16:31:57.490,2,0.19,-0.72,2.01,18.5434,-262.8156,102.1114,175,75
2026-05-09 16:31:57.504,2,0.07,-0.68,1.88,28.9734,-273.7856,95.7114,175,75
2026-05-09 16:31:57.578,2,0.15,-0.68,1.42,72.3234,-111.5956,40.2214,175,75
2026-05-09 16:31:57.578,2,0.26,-0.69,1.58,79.21340000000001,-87.5756,37.0514,175,75
2026-05-09 16:31:57.587,2,0.28,-0.74,1.46,71.0434,-90.9856,34.121399999999994,175,75
2026-05-09 16:31:57.596,2,0.24,-0.72,1.18,90.5534,8.714400000000001,10.101399999999998,175,75
2026-05-09 16:31:57.606,2,0.27,-0.72,1.17,96.5334,62.0644,-2.8286,175,75
2026-05-09 16:31:57.625,2,0.29,-0.72,1.25,104.5834,127.1844,-13.6786,175,75
2026-05-09 16:31:57.639,2,0.25,-0.71,1.41,118.1134,171.6944,-20.5086,175,75
2026-05-09 16:31:57.724,2,-0.32,-0.64,2.07,114.7034,190.7844,-5.9986,175,75
2026-05-09 16:31:57.737,2,-0.05,-0.51,1.8,172.6334,276.3344,-16.3086,175,75
2026-05-09 16:31:57.854,2,-0.25,-0.26,2.15,95.3134,262.30440000000004,-16.3686,175,75
2026-05-09 16:31:57.864,2,-0.63,0.03,1.92,63.4234,449.6844,5.711400000000001,175,75
2026-05-09 16:31:57.864,2,-0.65,0.06,2.38,114.3934,446.8844,24.2414,175,75
2026-05-09 16:31:57.876,2,-0.71,-0.08,2.55,93.3634,456.3344,28.0214,175,75
2026-05-09 16:31:57.892,2,-0.78,-0.01,2.44,65.7334,441.8844,21.8014,175,75
2026-05-09 16:31:57.902,2,-0.88,0.05,2.42,66.5334,431.4544,24.0014,175,75
2026-05-09 16:31:57.914,2,-1.05,0.13,2.55,61.8934,430.3544,22.6614,175,75
2026-05-09 16:31:57.925,2,-1.02,0.17,2.65,75.19340000000001,412.8544,23.3914,175,75
2026-05-09 16:31:57.935,2,-1.2,-0.12,2.64,79.94340000000001,375.6644,29.9714,175,75
2026-05-09 16:31:57.965,2,-0.88,-0.25,2.64,69.27340000000001,356.81440000000003,24.6714,175,75
2026-05-09 16:31:57.977,2,-0.92,0.03,2.73,77.2634,284.3844,1.8714000000000013,175,75
2026-05-09 16:31:57.977,2,-0.79,0.01,2.54,56.6534,182.8544,-8.9286,175,75
2026-05-09 16:31:57.988,2,-1.04,-0.12,2.26,37.8734,132.6744,-13.9286,175,75
2026-05-09 16:31:57.999,2,-1.26,0.05,2.08,39.7634,156.5144,-22.3986,175,75
2026-05-09 16:31:58.010,2,-1.26,0.15,2.21,44.0334,227.8544,-7.768600000000001,175,75
2026-05-09 16:31:58.010,2,-1.21,0.08,2.34,30.4334,245.1744,-1.058600000000002,175,75
2026-05-09 16:31:58.023,2,-1.22,-0.08,2.52,37.6934,174.4444,-4.778600000000001,175,75
2026-05-09 16:31:58.043,2,-1.22,-0.06,2.4,65.3134,80.6044,-10.0286,175,75
2026-05-09 16:31:58.054,2,-1.4,0.02,2.29,74.94340000000001,63.1644,-8.0686,175,75
2026-05-09 16:31:58.065,2,-1.4,0.04,2.26,71.6534,108.2244,1.6814,175,75
2026-05-09 16:31:58.076,2,-1.17,0.1,2.33,54.0934,97.5544,-1.1186000000000007,175,75
2026-05-09 16:31:58.087,2,-1.29,0.18,2.19,60.8034,24.0144,-6.5486,175,75
2026-05-09 16:31:58.109,2,-1.52,0.11,2.17,59.6434,42.1844,7.051400000000001,175,75
2026-05-09 16:31:58.109,2,-1.3,0.07,2.16,45.5534,17.3044,10.2814,175,75
2026-05-09 16:31:58.156,2,-1.44,-0.12,2.41,34.0334,-27.8156,49.9714,175,75
2026-05-09 16:31:58.176,2,-1.31,-0.15,2.51,40.5534,-58.0556,54.4314,175,75
2026-05-09 16:31:58.188,2,-1.42,-0.0,2.56,37.0834,-111.8956,60.2214,175,75
2026-05-09 16:31:58.195,2,-1.53,0.12,2.5,32.2634,-147.1456,68.2714,175,75
2026-05-09 16:31:58.215,2,-1.47,0.14,2.42,27.6234,-165.1956,73.6314,175,75
2026-05-09 16:31:58.215,2,-1.25,0.14,2.31,21.5934,-169.6456,80.5214,175,75
2026-05-09 16:31:58.239,2,-1.1,0.1,2.27,23.1734,-149.15560000000002,82.90140000000001,175,75
2026-05-09 16:31:58.249,2,-0.77,-0.03,2.29,36.4734,-104.5856,80.8314,175,75
2026-05-09 16:31:58.275,2,-0.91,0.12,2.64,6.413399999999999,-204.3356,50.40140000000001,175,75
2026-05-09 16:31:58.286,2,-0.9,0.13,2.7,-8.406600000000001,-260.9256,38.1514,175,75
2026-05-09 16:31:58.286,2,-0.68,0.07,2.63,-14.1966,-312.4456,28.5114,175,75
2026-05-09 16:31:58.299,2,-0.81,-0.03,2.59,-17.2466,-351.7756,15.2814,175,75
2026-05-09 16:31:58.323,2,-0.82,-0.03,2.52,-17.1266,-361.9656,5.041399999999999,175,75
2026-05-09 16:31:58.336,2,-0.7,0.09,2.52,-26.1566,-381.7756,-4.4186,175,75
2026-05-09 16:31:58.391,2,-0.65,0.15,2.8,-37.8566,-486.6556,-10.6286,175,75
2026-05-09 16:31:58.391,2,-0.43,0.07,2.81,-46.3966,-510.6156,-9.7786,175,75
2026-05-09 16:31:58.404,2,-0.39,-0.19,2.43,-33.9566,-391.7156,2.1114,175,75
2026-05-09 16:31:58.438,2,-0.37,0.04,2.2,-1.7666000000000004,-266.3556,13.761399999999998,175,75
2026-05-09 16:31:58.438,2,-0.32,0.11,2.28,-4.1366000000000005,-203.4856,23.3914,175,75
2026-05-09 16:31:58.450,2,-0.12,0.09,2.39,-8.526599999999998,-179.5856,28.1514,175,75
2026-05-09 16:31:58.457,2,-0.12,-0.0,2.52,-10.4166,-172.87560000000002,35.1614,175,75
2026-05-09 16:31:58.474,2,-0.05,-0.13,2.74,-7.9766,-190.1356,36.9314,175,75
2026-05-09 16:31:58.486,2,-0.0,-0.15,2.82,-9.1966,-211.4756,36.4414,175,75
2026-05-09 16:31:58.499,2,0.06,-0.14,2.88,-9.6266,-229.8856,33.511399999999995,175,75
2026-05-09 16:31:58.538,2,0.15,-0.09,2.39,-9.2666,-258.0556,31.2614,175,75
2026-05-09 16:31:58.550,2,0.18,-0.09,2.29,-8.046600000000002,-233.2456,26.8014,175,75
2026-05-09 16:31:58.565,2,0.17,-0.08,2.2,-11.9466,-201.5956,24.1814,175,75
2026-05-09 16:31:58.571,2,0.18,-0.06,2.2,-19.6266,-178.3056,17.841399999999997,175,75
2026-05-09 16:31:58.582,2,0.22,-0.09,2.25,-28.7766,-158.18560000000002,10.5814,175,75
2026-05-09 16:31:58.589,2,0.24,-0.1,2.28,-32.1266,-159.21560000000002,7.601399999999998,175,75
2026-05-09 16:31:58.601,2,0.21,-0.08,2.3,-39.686600000000006,-171.71560000000002,7.171399999999998,175,75
2026-05-09 16:31:58.612,2,0.19,-0.07,2.29,-47.976600000000005,-181.1056,7.6614,175,75
2026-05-09 16:31:58.625,2,0.17,-0.06,2.23,-53.7166,-179.21560000000002,11.3214,175,75
2026-05-09 16:31:58.636,2,0.11,-0.04,2.08,-62.6766,-148.24560000000002,15.7114,175,75
2026-05-09 16:31:58.665,2,0.11,-0.0,2.11,-71.94659999999999,-91.7756,20.8314,175,75
2026-05-09 16:31:58.698,2,0.23,-0.14,2.15,-82.55659999999999,-33.2456,23.0814,175,75
2026-05-09 16:31:58.698,2,0.25,-0.22,2.19,-79.9966,-17.815599999999996,17.4714,175,75
2026-05-09 16:31:58.720,2,0.27,-0.2,2.22,-77.8566,-7.8756,13.2114,175,75
2026-05-09 16:31:58.720,2,0.26,-0.17,2.26,-76.2766,-15.495599999999998,11.8714,175,75
2026-05-09 16:31:58.772,2,0.16,-0.07,2.2,-90.5466,-54.8856,16.381400000000003,175,75
2026-05-09 16:31:58.772,2,0.09,-0.04,2.11,-99.9966,-59.9456,20.951400000000003,175,75
2026-05-09 16:31:58.783,2,0.05,-0.1,2.0,-108.3466,-28.605599999999995,30.7714,175,75
2026-05-09 16:31:58.789,2,0.04,-0.13,2.02,-108.1066,-3.7256,34.001400000000004,175,75
2026-05-09 16:31:58.797,2,0.06,-0.14,2.06,-107.9766,9.6244,37.171400000000006,175,75
2026-05-09 16:31:58.808,2,0.08,-0.16,2.11,-111.3366,14.9944,41.6214,175,75
2026-05-09 16:31:58.821,2,0.09,-0.19,2.12,-114.6866,14.4444,44.5514,175,75
2026-05-09 16:31:58.833,2,0.09,-0.21,2.09,-118.8966,13.2244,47.6014,175,75
2026-05-09 16:31:58.881,2,0.09,-0.24,2.04,-123.1066,25.6044,49.4314,175,75
2026-05-09 16:31:58.881,2,0.08,-0.24,2.02,-125.4766,38.3444,53.2714,175,75
2026-05-09 16:31:58.898,2,0.04,-0.27,2.01,-127.4966,51.0244,52.29140000000001,175,75
2026-05-09 16:31:58.898,2,0.03,-0.32,2.05,-126.5166,66.6344,50.65140000000001,175,75
2026-05-09 16:31:58.908,2,-0.0,-0.35,2.08,-126.2766,75.9044,51.01140000000001,175,75
2026-05-09 16:31:58.925,2,0.01,-0.34,2.13,-128.8366,82.7944,51.62140000000001,175,75
2026-05-09 16:31:58.935,2,0.01,-0.39,2.13,-120.8466,90.8444,51.561400000000006,175,75
2026-05-09 16:31:58.946,2,0.02,-0.4,2.13,-111.9466,104.3144,49.3614,175,75
2026-05-09 16:31:58.957,2,0.05,-0.41,2.21,-98.2866,114.0744,43.2714,175,75
2026-05-09 16:31:58.967,2,0.07,-0.42,2.3,-83.7766,109.1944,38.5114,175,75
2026-05-09 16:31:59.030,2,0.13,-0.29,2.17,-48.656600000000005,53.1644,31.9914,175,75
2026-05-09 16:31:59.052,2,0.15,-0.33,2.14,-46.6366,50.784400000000005,30.2814,175,75
2026-05-09 16:31:59.074,2,0.13,-0.36,2.13,-45.6066,49.4444,28.8214,175,75
2026-05-09 16:31:59.092,2,0.12,-0.36,2.14,-44.686600000000006,43.644400000000005,29.3014,175,75
2026-05-09 16:31:59.115,2,0.16,-0.3,2.06,-45.9666,5.6644000000000005,34.5514,175,75
2026-05-09 16:31:59.128,2,0.2,-0.35,2.05,-50.8466,-5.435599999999999,34.731399999999994,175,75
2026-05-09 16:31:59.176,2,0.19,-0.46,2.05,-52.5566,-18.6656,29.6714,175,75
2026-05-09 16:31:59.177,2,0.16,-0.47,2.04,-49.506600000000006,-23.6656,26.6814,175,75
2026-05-09 16:31:59.188,2,0.15,-0.46,2.04,-46.4566,-27.0856,24.6114,175,75
2026-05-09 16:31:59.222,2,0.23,-0.52,1.94,-26.2166,-17.385599999999997,12.8414,175,75
2026-05-09 16:31:59.240,2,0.23,-0.54,1.89,-17.9166,-9.7656,7.721399999999999,175,75
2026-05-09 16:31:59.251,2,0.24,-0.5,1.84,-11.3966,6.7544,5.101399999999998,175,75
2026-05-09 16:31:59.262,2,0.3,-0.5,1.84,-2.6166,29.4444,0.9513999999999996,175,75
2026-05-09 16:31:59.310,2,0.2,-0.53,1.81,0.5533999999999999,47.4944,-5.448600000000001,175,75
2026-05-09 16:31:59.321,2,0.11,-0.52,1.83,6.1034,56.5744,-4.0486,175,75
2026-05-09 16:31:59.336,2,0.05,-0.51,1.94,15.8034,70.23440000000001,-6.9786,175,75
2026-05-09 16:31:59.357,2,0.02,-0.51,2.01,25.2534,68.4044,-7.768600000000001,175,75
2026-05-09 16:31:59.367,2,0.09,-0.54,2.11,33.7834,52.854400000000005,-11.1186,175,75
2026-05-09 16:31:59.383,2,0.18,-0.56,2.19,36.4134,22.0644,-16.3686,175,75
2026-05-09 16:31:59.409,2,0.12,-0.53,2.19,40.0034,-27.5056,-19.8986,175,75
2026-05-09 16:31:59.409,2,0.08,-0.56,2.14,44.1534,-46.5356,-21.4286,175,75
2026-05-09 16:31:59.409,2,0.05,-0.58,2.07,49.0334,-64.15559999999999,-23.7386,175,75
2026-05-09 16:31:59.420,2,0.01,-0.56,1.99,53.9734,-66.7756,-25.1486,175,75
2026-05-09 16:31:59.420,2,-0.05,-0.53,1.95,58.9134,-53.6056,-24.3486,175,75
2026-05-09 16:31:59.432,2,-0.01,-0.52,1.91,61.4734,-44.0356,-23.9886,175,75
2026-05-09 16:31:59.454,2,0.05,-0.47,1.92,59.8234,-18.6656,-16.6086,175,75
2026-05-09 16:31:59.467,2,0.05,-0.5,1.91,55.2534,-9.5256,-15.9986,175,75
2026-05-09 16:31:59.489,2,0.05,-0.5,1.92,52.4434,-2.3256,-16.6086,175,75
2026-05-09 16:31:59.525,2,0.04,-0.32,2.07,22.0234,-45.1356,-16.1186,175,75
2026-05-09 16:31:59.536,2,0.06,-0.34,2.07,19.5234,-53.6056,-11.5486,175,75
2026-05-09 16:31:59.543,2,0.03,-0.31,2.02,12.5634,-75.1356,-13.0086,175,75
2026-05-09 16:31:59.579,2,0.16,-0.37,2.06,3.9734,-79.15559999999999,-19.1086,175,75
2026-05-09 16:31:59.593,2,0.02,-0.19,1.96,1.7134,-59.8256,-8.5586,175,75
2026-05-09 16:31:59.605,2,0.11,-0.17,2.0,10.1334,-64.6456,-5.0886,175,75
2026-05-09 16:31:59.605,2,0.07,-0.18,2.09,10.4934,-72.8156,0.9513999999999996,175,75
2026-05-09 16:31:59.620,2,0.17,-0.33,2.1,-9.7466,-186.0456,-3.1286000000000005,175,75
2026-05-09 16:31:59.638,2,0.17,-0.26,1.92,-15.546599999999998,-205.6156,-6.9786,175,75
2026-05-09 16:31:59.649,2,0.11,-0.23,1.81,-13.4666,-192.8756,-8.3186,175,75
2026-05-09 16:31:59.664,2,0.1,-0.24,1.81,-6.456600000000001,-174.3956,-8.438600000000001,175,75
2026-05-09 16:31:59.716,2,0.14,-0.28,1.92,-1.2166000000000006,-186.5956,-5.698600000000001,175,75
2026-05-09 16:31:59.726,2,0.04,-0.27,1.92,6.2834,-193.4856,-5.3286,175,75
2026-05-09 16:31:59.757,2,0.02,-0.3,1.93,11.1634,-210.1356,-4.6586,175,75
2026-05-09 16:31:59.768,2,0.11,-0.31,1.87,5.1934,-241.6556,-6.0586,175,75
2026-05-09 16:31:59.817,2,0.11,-0.27,1.71,-1.1566,-253.3056,-6.9186,175,75
2026-05-09 16:31:59.838,2,0.0,-0.24,1.49,-2.0666,-234.9456,-5.8186,175,75
2026-05-09 16:31:59.838,2,-0.01,-0.2,1.38,6.4734,-202.9356,-3.6186000000000007,175,75
2026-05-09 16:31:59.860,2,0.12,-0.24,1.34,10.8034,-168.3656,1.5014000000000003,175,75
2026-05-09 16:31:59.870,2,0.09,-0.26,1.35,12.0834,-153.24560000000002,3.821400000000001,175,75
2026-05-09 16:31:59.870,2,0.08,-0.29,1.35,8.7834,-143.6656,6.5014,175,75
2026-05-09 16:31:59.938,2,0.07,-0.49,1.62,19.3334,-145.8056,19.9114,175,75
2026-05-09 16:31:59.950,2,-0.08,-0.53,1.12,3.1734,-137.3256,18.5114,175,75
2026-05-09 16:31:59.970,2,-0.07,-0.51,1.15,7.8134,-100.2556,17.9614,175,75
2026-05-09 16:31:59.977,2,-0.01,-0.54,1.22,12.4434,-79.6456,16.741400000000002,175,75
2026-05-09 16:32:00.002,2,0.09,-0.57,1.31,16.2834,-56.1656,12.2314,175,75
2026-05-09 16:32:00.013,2,0.18,-0.56,1.33,22.3234,-28.3056,-2.3986,175,75
2026-05-09 16:32:00.027,2,0.21,-0.55,1.41,28.6034,-21.105600000000003,-10.3886,175,75
2026-05-09 16:32:00.040,2,0.14,-0.54,1.42,31.9534,-21.5356,-13.4386,175,75
2026-05-09 16:32:00.040,2,0.11,-0.53,1.46,35.9834,-22.9956,-15.9386,175,75
2026-05-09 16:32:00.063,2,0.11,-0.49,1.56,38.3634,-41.0456,-18.0686,175,75
2026-05-09 16:32:00.119,2,0.06,-0.49,1.5,39.2734,-54.7056,-20.6286,175,75
2026-05-09 16:32:00.119,2,0.07,-0.49,1.52,42.3834,-45.0056,-24.1086,175,75
2026-05-09 16:32:00.147,2,0.11,-0.49,1.53,46.3434,-40.0056,-25.2686,175,75
2026-05-09 16:32:00.160,2,0.13,-0.41,1.45,45.3134,-30.7456,-22.0986,175,75
2026-05-09 16:32:00.160,2,0.11,-0.39,1.42,44.3934,-14.5256,-18.7386,175,75
2026-05-09 16:32:00.175,2,0.1,-0.38,1.4,45.9834,4.864400000000001,-16.3086,175,75
2026-05-09 16:32:00.198,2,0.15,-0.42,1.52,49.0334,26.0244,-15.2086,175,75
2026-05-09 16:32:00.242,2,0.14,-0.4,1.6,39.1534,-22.9356,-10.2686,175,75
2026-05-09 16:32:00.258,2,0.08,-0.37,1.56,36.7734,-3.3056,-7.3986,175,75
2026-05-09 16:32:00.258,2,0.06,-0.35,1.59,37.2034,4.564400000000001,-6.7286,175,75
2026-05-09 16:32:00.269,2,0.08,-0.37,1.65,35.0034,0.9044000000000008,-8.0086,175,75
2026-05-09 16:32:00.280,2,0.05,-0.27,1.65,26.3434,-14.3356,-6.608600000000001,175,75
2026-05-09 16:32:00.292,2,0.02,-0.27,1.61,25.1234,-3.115599999999999,-6.368600000000001,175,75
2026-05-09 16:32:00.305,2,-0.01,-0.26,1.62,22.2034,11.3344,-6.178599999999999,175,75
2026-05-09 16:32:00.333,2,-0.02,-0.23,1.64,20.3134,27.3044,-4.598600000000001,175,75
2026-05-09 16:32:00.345,2,-0.06,-0.22,1.66,20.8034,42.9744,-3.0085999999999995,175,75
2026-05-09 16:32:00.377,2,-0.01,-0.28,1.71,19.2134,40.1144,-4.4186,175,75
2026-05-09 16:32:00.377,2,-0.02,-0.28,1.74,14.0334,33.7744,-4.598600000000001,175,75
2026-05-09 16:32:00.400,2,-0.04,-0.31,1.69,4.4534,20.474400000000003,-10.2086,175,75
2026-05-09 16:32:00.411,2,-0.08,-0.3,1.67,2.8734,20.2344,-11.4286,175,75
2026-05-09 16:32:00.416,2,-0.08,-0.27,1.63,2.3834,23.9544,-11.6086,175,75
2026-05-09 16:32:00.428,2,-0.1,-0.27,1.62,1.8934,29.254400000000004,-12.2186,175,75
2026-05-09 16:32:00.438,2,-0.14,-0.25,1.6,-0.9066,34.9244,-10.7586,175,75
2026-05-09 16:32:00.452,2,-0.16,-0.28,1.6,-9.8766,54.7444,-13.6786,175,75
2026-05-09 16:32:00.471,2,-0.15,-0.39,1.7,-14.6866,55.2344,-16.6086,175,75
2026-05-09 16:32:00.482,2,-0.18,-0.45,1.7,-18.2266,62.6144,-24.8986,175,75
2026-05-09 16:32:00.514,2,-0.1,-0.47,1.7,-17.796599999999998,60.2344,-28.2586,175,75
2026-05-09 16:32:00.536,2,-0.08,-0.52,1.71,-16.3366,65.5344,-34.4786,175,75
2026-05-09 16:32:00.558,2,-0.1,-0.65,1.59,-31.3366,71.3344,-43.0686,175,75
2026-05-09 16:32:00.600,2,-0.02,-0.88,1.76,-36.9466,131.4544,-62.098600000000005,175,75
2026-05-09 16:32:00.622,2,0.07,-0.99,1.87,-37.3066,137.6144,-68.9886,175,75
2026-05-09 16:32:00.700,2,0.33,-1.17,2.17,-92.1266,191.0844,-108.0086,175,75
2026-05-09 16:32:00.797,2,0.28,-0.38,2.59,-149.50660000000002,105.5344,-90.5686,175,75
2026-05-09 16:32:00.808,2,0.23,-0.09,2.43,-176.2766,84.9944,-60.878600000000006,175,75
2026-05-09 16:32:00.821,2,0.2,-0.03,2.38,-187.7366,79.8044,-49.1686,175,75
2026-05-09 16:32:00.835,2,0.17,0.08,2.27,-212.6166,79.7444,-27.4586,175,75
2026-05-09 16:32:00.848,2,0.16,0.12,2.11,-230.1166,90.0544,-7.948600000000001,175,75
2026-05-09 16:32:00.882,2,0.15,-0.05,2.2,-240.2366,154.74439999999998,-3.8686000000000007,175,75
2026-05-09 16:32:00.896,2,0.17,-0.03,2.3,-237.1866,160.78439999999998,-5.3886,175,75
2026-05-09 16:32:00.906,2,0.19,-0.02,2.34,-236.7666,162.3044,-4.8986,175,75
2026-05-09 16:32:00.906,2,0.18,0.0,2.36,-235.6666,158.8944,-3.438600000000001,175,75
2026-05-09 16:32:00.923,2,0.13,0.06,2.38,-227.0066,164.56439999999998,-4.0486,175,75
2026-05-09 16:32:00.939,2,0.16,0.09,2.42,-219.6866,165.6644,-5.3286,175,75
2026-05-09 16:32:00.951,2,0.26,0.09,2.46,-212.8566,157.97439999999995,-8.438600000000001,175,75
2026-05-09 16:32:00.951,2,0.36,0.07,2.47,-206.7666,145.2344,-12.7686,175,75
2026-05-09 16:32:00.974,2,0.47,0.06,2.38,-200.7866,125.7844,-27.2786,175,75
2026-05-09 16:32:00.982,2,0.45,0.1,2.33,-196.4566,127.5544,-34.4186,175,75
2026-05-09 16:32:01.003,2,0.46,0.16,2.32,-187.1266,134.1344,-43.9286,175,75
2026-05-09 16:32:01.015,2,0.46,0.19,2.34,-178.4666,139.31439999999998,-51.7286,175,75
2026-05-09 16:32:01.054,2,0.4,0.29,2.38,-143.5866,91.2144,-65.2086,175,75
2026-05-09 16:32:01.071,2,0.41,0.38,2.24,-130.5466,65.2944,-68.3186,175,75
2026-05-09 16:32:01.081,2,0.47,0.42,2.23,-122.7366,64.0144,-70.0886,175,75
2026-05-09 16:32:01.104,2,0.71,0.46,2.2,-115.3566,50.2944,-73.8086,175,75
2026-05-09 16:32:01.114,2,0.78,0.49,2.08,-112.1266,37.3044,-80.8786,175,75
2026-05-09 16:32:01.141,2,0.49,0.69,2.18,-69.9366,108.0344,-103.6786,175,75
2026-05-09 16:32:01.163,2,0.51,0.73,2.31,-52.006600000000006,95.7244,-100.8186,175,75
2026-05-09 16:32:01.175,2,0.56,0.71,2.36,-38.5866,41.5144,-92.3386,175,75
2026-05-09 16:32:01.189,2,0.6,0.68,2.19,-33.406600000000005,-14.4656,-85.87859999999999,175,75
2026-05-09 16:32:01.200,2,0.66,0.65,2.0,-28.2866,-43.1156,-82.8886,175,75
2026-05-09 16:32:01.211,2,0.59,0.69,1.62,-8.1066,-34.465599999999995,-83.8686,175,75
2026-05-09 16:32:01.222,2,0.65,0.73,1.59,-3.2866,-20.1356,-83.37859999999999,175,75
2026-05-09 16:32:01.234,2,0.73,0.79,1.54,-0.7266000000000004,-13.5456,-80.0286,175,75
2026-05-09 16:32:01.247,2,0.73,0.83,1.45,-2.8566000000000003,-14.7056,-74.8386,175,75
2026-05-09 16:32:01.299,2,0.72,0.85,1.44,1.6534,41.8144,-68.3786,175,75
2026-05-09 16:32:01.329,2,0.83,0.84,1.84,19.5234,54.2544,-56.6086,175,75
2026-05-09 16:32:01.417,2,1.0,0.57,1.68,1.2834,-6.1656,27.0514,175,75
2026-05-09 16:32:01.427,2,0.89,0.52,1.57,-2.6166,6.2144,40.4614,175,75
2026-05-09 16:32:01.438,2,0.84,0.43,1.61,-4.686599999999999,26.5744,55.8914,175,75
2026-05-09 16:32:01.460,2,0.78,0.18,1.74,-16.636599999999998,25.724400000000003,85.34140000000001,175,75
2026-05-09 16:32:01.483,2,0.59,0.05,1.66,-35.0566,39.3844,100.7114,175,75
2026-05-09 16:32:01.511,2,0.52,-0.12,1.78,-54.1966,51.0844,114.1814,175,75
2026-05-09 16:32:01.511,2,0.53,-0.21,1.82,-65.2366,45.1144,122.3514,175,75
2026-05-09 16:32:01.522,2,0.5,-0.29,1.84,-77.00659999999999,39.0144,127.9614,175,75
2026-05-09 16:32:01.533,2,0.39,-0.31,1.78,-88.0466,41.394400000000005,135.22140000000002,175,75
2026-05-09 16:32:01.554,2,0.13,-0.28,1.69,-107.1266,91.8144,145.22140000000002,175,75
2026-05-09 16:32:01.593,2,-0.09,-0.5,1.74,-134.50660000000002,180.2944,178.0814,175,75
2026-05-09 16:32:01.603,2,-0.26,-0.61,1.61,-152.00660000000002,242.1844,204.0014,175,75
2026-05-09 16:32:01.624,2,-0.24,-0.75,1.66,-161.7666,285.6644,210.2214,175,75
2026-05-09 16:32:01.624,2,-0.12,-0.99,1.85,-175.5466,307.30440000000004,208.4514,175,75
2026-05-09 16:32:01.691,2,0.24,-1.41,2.12,-206.7666,219.6844,184.2414,175,75
2026-05-09 16:32:01.703,2,0.4,-1.56,2.24,-227.1266,138.46439999999998,171.9314,175,75
2026-05-09 16:32:01.703,2,0.52,-1.39,1.94,-253.40660000000003,-46.3556,159.1214,175,75
2026-05-09 16:32:01.714,2,0.22,-1.2,1.2,-274.6866,-96.7756,157.1114,175,75
2026-05-09 16:32:01.735,2,0.0,-1.47,0.79,-274.3866,58.1644,163.2714,175,75
2026-05-09 16:32:01.735,2,0.03,-1.6,0.93,-277.6166,132.18439999999998,155.22140000000002,175,75
2026-05-09 16:32:01.764,2,0.09,-1.71,1.28,-281.7666,168.1044,121.19140000000002,175,75
2026-05-09 16:32:01.764,2,0.13,-1.64,1.41,-292.4966,156.6344,100.1014,175,75
2026-05-09 16:32:01.811,2,0.03,-1.53,1.51,-302.8566,174.56439999999998,56.9914,175,75
2026-05-09 16:32:01.834,2,0.06,-1.38,1.6,-283.7166,189.9944,40.281400000000005,175,75
2026-05-09 16:32:01.845,2,0.08,-1.31,1.64,-271.27660000000003,198.4044,32.171400000000006,175,75
2026-05-09 16:32:01.855,2,0.08,-1.22,1.67,-257.3066,208.3444,23.631400000000003,175,75
2026-05-09 16:32:01.867,2,0.05,-1.04,1.74,-225.4166,230.9044,4.0014,175,75
2026-05-09 16:32:01.893,2,0.01,-0.93,1.75,-208.0466,247.0044,-3.6186000000000007,175,75
2026-05-09 16:32:01.898,2,-0.05,-0.81,1.75,-188.8366,269.50440000000003,-9.1686,175,75
2026-05-09 16:32:01.910,2,-0.11,-0.7,1.77,-167.2466,301.69440000000003,-15.6986,175,75
2026-05-09 16:32:01.921,2,-0.15,-0.61,1.81,-153.0466,326.8844,-21.0586,175,75
2026-05-09 16:32:01.932,2,-0.2,-0.31,1.95,-114.4466,389.3844,-32.5286,175,75
2026-05-09 16:32:01.947,2,-0.19,-0.19,2.06,-99.5066,407.0644,-37.5886,175,75
2026-05-09 16:32:01.965,2,-0.14,-0.07,2.21,-83.3466,416.7544,-46.1186,175,75
2026-05-09 16:32:01.967,2,-0.08,-0.02,2.33,-72.55659999999999,409.4444,-54.1086,175,75
2026-05-09 16:32:01.982,2,-0.04,0.02,2.46,-59.686600000000006,388.3444,-64.5386,175,75
2026-05-09 16:32:01.992,2,-0.05,0.08,2.54,-42.9166,350.9044,-74.5986,175,75
2026-05-09 16:32:02.007,2,-0.15,0.15,2.52,-27.5566,318.4044,-80.8786,175,75
2026-05-09 16:32:02.018,2,-0.24,0.2,2.52,-15.4166,297.6144,-84.95859999999999,175,75
2026-05-09 16:32:02.074,2,-0.56,0.35,2.67,26.2234,184.8644,-73.4986,175,75
2026-05-09 16:32:02.120,2,-0.59,0.42,2.7,88.5434,162.97439999999995,-47.6486,175,75
2026-05-09 16:32:02.135,2,-0.63,0.33,2.71,103.8434,147.18439999999998,-37.7686,175,75
2026-05-09 16:32:02.154,2,-0.66,0.22,2.72,107.3834,143.34439999999998,-29.3486,175,75
2026-05-09 16:32:02.154,2,-0.67,0.21,2.7,109.2734,151.6344,-20.3886,175,75
2026-05-09 16:32:02.154,2,-0.62,0.24,2.66,123.3034,166.81439999999998,-5.7586,175,75
2026-05-09 16:32:02.157,2,-0.59,0.25,2.61,146.2834,183.4644,6.071400000000001,175,75
2026-05-09 16:32:02.199,2,-0.77,0.16,2.56,206.1034,261.5744,42.0514,175,75
2026-05-09 16:32:02.245,2,-1.08,-0.17,2.94,221.8934,345.05440000000004,192.4714,175,75
2026-05-09 16:32:02.259,2,-1.1,-0.22,3.01,212.1434,329.9244,211.2614,175,75
2026-05-09 16:32:02.274,2,-1.13,-0.28,3.03,194.0334,303.7144,228.4514,175,75
2026-05-09 16:32:02.291,2,-1.14,-0.3,3.01,175.0034,272.24440000000004,237.7814,175,75
2026-05-09 16:32:02.302,2,-1.15,-0.31,2.97,147.7534,227.2444,247.2914,175,75
2026-05-09 16:32:02.394,2,-1.46,-0.79,2.6,-29.4466,107.7344,323.7614,175,75
2026-05-09 16:32:02.394,2,-1.47,-0.77,2.55,-48.1666,90.7844,324.9714,175,75
2026-05-09 16:32:02.412,2,-1.54,-0.83,2.52,-55.8466,67.9144,328.2114,175,75
2026-05-09 16:32:02.452,2,-1.61,-1.34,2.38,-73.7166,-24.2156,337.8414,175,75
2026-05-09 16:32:02.462,2,-1.57,-1.38,2.39,-81.94659999999999,-46.2856,348.2114,175,75
2026-05-09 16:32:02.462,2,-1.58,-1.41,2.43,-88.83659999999999,-61.595600000000005,365.1614,175,75
2026-05-09 16:32:02.509,2,-1.41,-1.51,2.59,-101.6966,-137.02560000000005,390.0414,175,75
2026-05-09 16:32:02.531,2,-1.33,-1.53,2.57,-96.8266,-158.7256,396.9314,175,75
2026-05-09 16:32:02.531,2,-1.31,-1.48,2.56,-93.5266,-167.4456,407.5414,175,75
2026-05-09 16:32:02.557,2,-1.26,-1.46,2.58,-90.4166,-170.1356,417.2914,175,75
2026-05-09 16:32:02.593,2,-1.01,-1.63,2.52,-69.3866,-260.1956,462.9614,175,75
2026-05-09 16:32:02.610,2,-0.94,-1.64,2.47,-57.9166,-253.6056,469.2414,175,75
2026-05-09 16:32:02.627,2,-0.76,-1.64,2.45,-39.6266,-226.77560000000005,474.6114,175,75
2026-05-09 16:32:02.643,2,-0.75,-1.63,2.43,-39.6266,-226.3556,470.1014,175,75
2026-05-09 16:32:02.653,2,-0.75,-1.61,2.4,-38.7166,-232.2056,463.1514,175,75
2026-05-09 16:32:02.701,2,-0.62,-1.46,2.23,-0.6665999999999999,-165.74560000000002,452.2914,175,75
2026-05-09 16:32:02.787,2,-0.36,-1.08,2.27,45.2534,-84.15559999999999,392.3514,175,75
2026-05-09 16:32:02.805,2,-0.35,-0.98,2.27,76.16340000000001,-19.7656,371.3214,175,75
2026-05-09 16:32:02.805,2,-0.38,-0.92,2.35,85.8634,7.734400000000001,362.5414,175,75
2026-05-09 16:32:02.816,2,-0.37,-0.87,2.46,89.1534,14.1344,347.4114,175,75
2026-05-09 16:32:03.020,2,-0.26,-0.07,2.44,31.4134,11.3344,45.1614,175,75
2026-05-09 16:32:03.083,2,-0.66,0.13,2.55,-8.4666,47.2444,-56.3686,175,75
2026-05-09 16:32:03.112,2,-0.69,0.13,2.81,-21.0866,27.004400000000004,-102.0986,175,75
2026-05-09 16:32:03.153,2,-0.97,0.41,2.79,-3.6566,60.7244,-156.7886,175,75
2026-05-09 16:32:03.192,2,-1.1,0.49,3.15,37.9334,85.9044,-201.2386,175,75
2026-05-09 16:32:03.259,2,-1.03,0.24,2.74,75.2534,19.8044,-308.2586,175,75
2026-05-09 16:32:03.302,2,-1.19,0.34,2.69,69.27340000000001,17.6744,-344.3486,175,75
2026-05-09 16:32:03.302,2,-1.26,0.39,2.64,65.1334,10.8444,-351.6086,175,75
2026-05-09 16:32:03.315,2,-1.32,0.44,2.58,60.0634,4.6244000000000005,-357.7686,175,75
2026-05-09 16:32:03.315,2,-1.34,0.51,2.52,52.9334,12.2444,-360.9986,175,75
2026-05-09 16:32:03.343,2,-1.33,0.53,2.56,51.2234,60.6644,-360.2686,175,75
2026-05-09 16:32:03.354,2,-1.31,0.51,2.67,57.5034,80.7844,-358.9886,175,75
2026-05-09 16:32:03.388,2,-1.39,0.63,2.82,65.9234,47.854400000000005,-365.9986,175,75
2026-05-09 16:32:03.397,2,-1.38,0.65,2.81,61.9534,37.4244,-366.4286,175,75
2026-05-09 16:32:03.411,2,-1.27,0.61,2.94,66.8934,45.534400000000005,-358.2586,175,75
2026-05-09 16:32:03.447,2,-1.07,0.62,3.28,76.16340000000001,-37.9956,-368.3186,175,75
2026-05-09 16:32:03.472,2,-1.07,0.65,3.22,68.1734,-82.3256,-376.8486,175,75
2026-05-09 16:32:03.493,2,-1.01,0.65,2.95,45.9834,-119.6456,-383.7386,175,75
2026-05-09 16:32:03.497,2,-0.86,0.65,2.88,26.5334,-60.98559999999999,-369.3486,175,75
2026-05-09 16:32:03.508,2,-0.72,0.65,3.02,23.3034,-32.6956,-357.8286,175,75
2026-05-09 16:32:03.519,2,-0.57,0.62,3.17,14.3934,-42.5056,-357.0986,175,75
2026-05-09 16:32:03.554,2,-0.41,0.64,3.07,-24.8766,-131.71560000000002,-367.2786,175,75
2026-05-09 16:32:03.554,2,-0.38,0.66,2.95,-43.5866,-148.3656,-367.1586,175,75
2026-05-09 16:32:03.587,2,-0.28,0.7,2.72,-83.22659999999999,-132.2656,-349.2886,175,75
2026-05-09 16:32:03.664,2,-0.12,0.78,2.63,-124.0766,-19.0956,-245.9386,175,75
2026-05-09 16:32:03.686,2,-0.08,0.69,2.69,-113.7766,-0.0055999999999993,-211.6686,175,75
2026-05-09 16:32:03.700,2,-0.09,0.69,2.69,-115.5466,-7.5756,-205.0886,175,75
2026-05-09 16:32:03.711,2,-0.11,0.66,2.68,-117.9766,-9.5856,-183.3786,175,75
2026-05-09 16:32:03.725,2,-0.08,0.63,2.71,-111.9466,-10.1956,-173.4386,175,75
2026-05-09 16:32:03.740,2,-0.04,0.61,2.73,-107.0666,-13.725599999999998,-168.55859999999998,175,75
2026-05-09 16:32:03.779,2,-0.02,0.59,2.7,-94.5066,-55.2556,-159.0486,175,75
2026-05-09 16:32:03.798,2,-0.05,0.6,2.66,-89.50659999999999,-55.9856,-157.3386,175,75
2026-05-09 16:32:03.809,2,-0.06,0.58,2.63,-83.22659999999999,-56.6556,-153.9886,175,75
2026-05-09 16:32:03.809,2,-0.06,0.56,2.62,-77.1866,-55.4956,-152.7686,175,75
2026-05-09 16:32:03.827,2,-0.07,0.52,2.61,-72.3766,-56.1656,-151.6086,175,75
2026-05-09 16:32:03.837,2,-0.07,0.49,2.59,-73.22659999999999,-62.8156,-149.2886,175,75
2026-05-09 16:32:03.849,2,-0.1,0.5,2.54,-74.2666,-61.04559999999999,-142.64860000000002,175,75
2026-05-09 16:32:03.904,2,0.02,0.46,2.81,-54.076600000000006,-46.9656,-133.92860000000002,175,75
2026-05-09 16:32:03.922,2,0.1,0.41,2.84,-60.1166,-104.4656,-136.8486,175,75
2026-05-09 16:32:03.934,2,0.09,0.42,2.77,-66.0266,-117.2056,-134.0486,175,75
2026-05-09 16:32:03.949,2,0.1,0.41,2.77,-64.3866,-109.0356,-130.0286,175,75
2026-05-09 16:32:03.963,2,0.16,0.37,2.85,-53.1666,-91.4756,-125.9986,175,75
2026-05-09 16:32:04.019,2,0.32,0.34,2.72,-71.94659999999999,-107.1456,-103.3186,175,75
2026-05-09 16:32:04.019,2,0.38,0.29,2.8,-67.97659999999999,-97.0856,-95.2086,175,75
2026-05-09 16:32:04.046,2,0.47,0.23,2.91,-62.6766,-103.4256,-94.0486,175,75
2026-05-09 16:32:04.070,2,0.54,0.18,2.97,-54.326600000000006,-153.6656,-98.2586,175,75
2026-05-09 16:32:04.070,2,0.55,0.18,2.96,-47.9166,-174.27560000000005,-102.1586,175,75
2026-05-09 16:32:04.097,2,0.58,0.18,2.85,-41.7666,-196.3556,-105.0286,175,75
2026-05-09 16:32:04.097,2,0.52,0.17,2.79,-33.046600000000005,-201.1056,-109.1086,175,75
2026-05-09 16:32:04.113,2,0.59,0.17,2.57,-4.5666,-199.3956,-110.5086,175,75
2026-05-09 16:32:04.138,2,0.77,0.25,2.4,-17.3066,-159.15560000000002,-106.2386,175,75
2026-05-09 16:32:04.143,2,0.79,0.37,2.27,-20.5466,-190.0056,-102.7686,175,75
2026-05-09 16:32:04.154,2,0.66,0.4,2.2,-13.4066,-165.49560000000002,-94.0486,175,75
2026-05-09 16:32:04.203,2,0.84,0.29,2.09,-24.0166,-54.6456,-82.15859999999999,175,75
2026-05-09 16:32:04.224,2,0.84,0.25,1.87,-42.796600000000005,-0.8055999999999992,-89.7186,175,75
2026-05-09 16:32:04.235,2,0.76,0.22,1.79,-40.7866,59.1944,-91.9186,175,75
2026-05-09 16:32:04.244,2,0.66,0.23,1.76,-27.6766,122.7344,-92.7086,175,75
2026-05-09 16:32:04.255,2,0.51,0.29,1.83,-6.7666,179.68439999999998,-89.34859999999999,175,75
2026-05-09 16:32:04.272,2,0.34,0.4,1.98,15.1934,230.0544,-78.0086,175,75
2026-05-09 16:32:04.292,2,0.3,0.55,2.3,38.8434,251.2144,-54.5386,175,75
2026-05-09 16:32:04.323,2,0.43,0.59,2.37,58.7834,84.3144,-42.4586,175,75
2026-05-09 16:32:04.339,2,0.22,0.68,2.11,71.8334,69.0744,-31.0586,175,75
2026-05-09 16:32:04.353,2,0.26,0.69,2.11,76.3434,98.8944,-27.4586,175,75
2026-05-09 16:32:04.369,2,0.24,0.72,2.19,86.4734,114.8044,-14.6586,175,75
2026-05-09 16:32:04.386,2,0.17,0.71,2.24,86.41340000000001,86.3944,-12.0986,175,75
2026-05-09 16:32:04.398,2,0.12,0.75,2.24,91.1034,72.5544,-4.1686,175,75
2026-05-09 16:32:04.414,2,0.2,0.7,2.38,91.3434,33.4644,0.9513999999999996,175,75
2026-05-09 16:32:04.431,2,0.24,0.66,2.33,90.4934,-6.0456,5.281400000000001,175,75
2026-05-09 16:32:04.445,2,0.22,0.64,2.3,89.5834,-34.3356,0.5813999999999986,175,75
2026-05-09 16:32:04.451,2,0.18,0.68,2.17,90.4934,-51.9656,3.151399999999999,175,75
2026-05-09 16:32:04.491,2,0.09,0.76,1.97,84.7034,-10.8656,7.541399999999999,175,75
2026-05-09 16:32:04.501,2,0.11,0.73,1.97,82.2034,18.1044,8.3914,175,75
2026-05-09 16:32:04.529,2,0.1,0.71,2.03,78.1734,47.1244,9.4914,175,75
2026-05-09 16:32:04.562,2,0.24,0.78,2.18,66.8934,53.5844,11.191399999999998,175,75
2026-05-09 16:32:04.573,2,0.27,0.78,2.2,55.8634,41.214400000000005,9.2414,175,75
2026-05-09 16:32:04.600,2,0.3,0.81,2.15,49.2134,25.1744,9.0014,175,75
2026-05-09 16:32:04.625,2,0.27,0.86,2.05,44.2734,19.6844,8.211400000000001,175,75
2026-05-09 16:32:04.653,2,0.24,1.04,2.07,31.8334,102.7944,12.5414,175,75
2026-05-09 16:32:04.663,2,0.43,1.02,2.48,6.163399999999999,97.7944,14.731399999999995,175,75
2026-05-09 16:32:04.687,2,0.64,0.97,2.79,-18.4066,-37.0256,6.261399999999998,175,75
2026-05-09 16:32:04.697,2,0.65,0.96,2.75,-23.9566,-105.4956,3.211400000000001,175,75
2026-05-09 16:32:04.709,2,0.58,0.94,2.6,-30.2966,-157.6956,3.391400000000001,175,75
2026-05-09 16:32:04.709,2,0.5,0.98,2.42,-34.686600000000006,-176.4156,1.0714000000000006,175,75
2026-05-09 16:32:04.726,2,0.51,1.08,2.4,-25.2366,-117.9956,2.051400000000001,175,75
2026-05-09 16:32:04.751,2,1.96,0.79,2.03,-115.7866,-426.8356,36.9314,175,75
2026-05-09 16:32:04.775,2,0.67,0.72,1.62,-67.3766,-334.2756,-65.2086,175,75
2026-05-09 16:32:04.787,2,-0.94,1.12,1.57,9.0934,38.7744,15.771399999999996,175,75
2026-05-09 16:32:04.800,2,1.03,1.01,2.1,48.7834,153.7744,-16.3086,175,75
2026-05-09 16:32:04.827,2,0.58,1.1,2.67,-17.0066,-53.3056,8.6314,175,75
2026-05-09 16:32:04.849,2,0.63,0.63,2.13,0.1933999999999995,-140.74560000000002,15.161399999999997,175,75
2026-05-09 16:32:04.863,2,0.52,0.59,2.06,2.8134,-93.3656,7.471399999999999,175,75
2026-05-09 16:32:04.863,2,0.58,0.62,2.08,3.7234,-32.3856,4.551400000000001,175,75
2026-05-09 16:32:04.873,2,0.66,0.64,2.15,10.0034,-40.0756,5.711400000000001,175,75
2026-05-09 16:32:04.900,2,0.57,0.71,1.9,42.4434,-37.2656,3.151399999999999,175,75
2026-05-09 16:32:04.932,2,0.62,0.76,1.83,53.7834,22.4244,-10.8786,175,75
2026-05-09 16:32:04.939,2,0.62,0.79,1.83,54.0934,36.5744,-11.8486,175,75
2026-05-09 16:32:04.952,2,0.63,0.8,1.85,55.9834,40.2344,-12.2186,175,75
2026-05-09 16:32:04.967,2,0.63,0.83,1.88,56.2834,44.4444,-11.1786,175,75
2026-05-09 16:32:04.990,2,0.6,0.81,1.89,50.9234,39.1344,-10.2686,175,75
2026-05-09 16:32:05.006,2,0.59,0.78,1.9,46.3434,33.1644,-9.7186,175,75
2026-05-09 16:32:05.016,2,0.55,0.75,1.91,39.5234,25.2344,-6.6686,175,75
2026-05-09 16:32:05.029,2,0.59,0.73,1.9,29.4534,24.4444,-1.9786,175,75
2026-05-09 16:32:05.043,2,0.6,0.74,1.92,26.3434,26.1444,-1.6686000000000014,175,75
2026-05-09 16:32:05.067,2,0.62,0.79,2.06,15.3734,3.2844000000000007,-0.448599999999999,175,75
2026-05-09 16:32:05.078,2,0.62,0.82,2.07,11.8334,-18.1156,0.6513999999999989,175,75
2026-05-09 16:32:05.088,2,0.6,0.84,2.06,9.6434,-28.9156,2.601399999999998,175,75
2026-05-09 16:32:05.125,2,0.7,0.85,2.12,10.0634,-81.2856,-1.6686000000000014,175,75
2026-05-09 16:32:05.141,2,0.73,0.87,2.07,4.2134,-107.3256,-3.0686,175,75
2026-05-09 16:32:05.141,2,0.71,0.86,1.94,-4.3266,-124.4656,-3.3786000000000005,175,75
2026-05-09 16:32:05.156,2,0.64,0.86,1.79,-8.526599999999998,-113.7856,-6.7286,175,75
2026-05-09 16:32:05.173,2,0.58,0.87,1.71,-9.5066,-79.7056,-8.7386,175,75
2026-05-09 16:32:05.173,2,0.55,0.89,1.67,-8.406600000000001,-40.6156,-11.9186,175,75
2026-05-09 16:32:05.197,2,0.54,0.93,1.73,-2.3666,9.6244,-15.0886,175,75
2026-05-09 16:32:05.200,2,0.57,0.94,1.86,5.1334,44.4444,-16.9786,175,75
2026-05-09 16:32:05.228,2,0.58,0.93,2.05,10.8634,47.9144,-16.9186,175,75
2026-05-09 16:32:05.238,2,0.56,0.92,2.07,10.8634,34.9944,-17.0386,175,75
2026-05-09 16:32:05.252,2,0.52,0.93,2.02,12.4434,29.8044,-16.7286,175,75
2026-05-09 16:32:05.264,2,0.48,0.94,1.98,14.2734,37.854400000000005,-18.6186,175,75
2026-05-09 16:32:05.274,2,0.46,0.95,2.0,17.383399999999998,51.0244,-19.1086,175,75
2026-05-09 16:32:05.309,2,0.44,0.94,2.12,20.9834,52.2444,-18.3786,175,75
2026-05-09 16:32:05.323,2,0.44,0.93,2.15,22.5634,40.2344,-16.6686,175,75
2026-05-09 16:32:05.343,2,0.42,0.92,2.14,22.3834,23.8944,-14.7786,175,75
2026-05-09 16:32:05.354,2,0.39,0.92,2.12,23.3034,10.4144,-13.8086,175,75
2026-05-09 16:32:05.354,2,0.36,0.91,2.07,25.0634,4.444400000000001,-12.2186,175,75
2026-05-09 16:32:05.365,2,0.33,0.91,2.0,26.4134,3.2244000000000006,-11.0586,175,75
2026-05-09 16:32:05.365,2,0.32,0.91,1.98,27.2634,8.034400000000002,-9.3486,175,75
2026-05-09 16:32:05.376,2,0.33,0.91,1.97,26.9534,12.7944,-6.5486,175,75
2026-05-09 16:32:05.376,2,0.32,0.91,1.98,25.6134,14.0144,-4.958600000000001,175,75
2026-05-09 16:32:05.386,2,0.33,0.91,1.99,25.3734,14.3844,-2.458600000000001,175,75
2026-05-09 16:32:05.422,2,0.31,0.88,1.97,25.8034,14.9944,3.821400000000001,175,75
2026-05-09 16:32:05.422,2,0.3,0.87,1.97,25.8034,14.6244,5.101399999999998,175,75
2026-05-09 16:32:05.446,2,0.31,0.86,1.99,26.5934,12.1844,6.741399999999999,175,75
2026-05-09 16:32:05.458,2,0.31,0.85,2.0,26.1034,8.3444,8.211400000000001,175,75
2026-05-09 16:32:05.458,2,0.32,0.83,1.99,24.7634,1.0844000000000005,9.9114,175,75
2026-05-09 16:32:05.471,2,0.31,0.84,1.95,23.9734,-3.5456000000000003,11.9914,175,75
2026-05-09 16:32:05.483,2,0.31,0.84,1.92,23.9134,-2.9956,13.3914,175,75
2026-05-09 16:32:05.493,2,0.3,0.83,1.92,25.4334,3.1644000000000005,15.2814,175,75
2026-05-09 16:32:05.504,2,0.33,0.82,1.95,25.3734,4.2544,16.6814,175,75
2026-05-09 16:32:05.515,2,0.35,0.8,1.98,24.9434,-3.7256,17.7814,175,75
2026-05-09 16:32:05.537,2,0.39,0.81,1.91,21.2834,-19.8856,21.0714,175,75
2026-05-09 16:32:05.547,2,0.4,0.84,1.86,21.2234,-16.8956,21.381400000000003,175,75
2026-05-09 16:32:05.564,2,0.42,0.87,1.84,21.7134,6.024400000000001,20.5214,175,75
2026-05-09 16:32:05.587,2,0.48,0.93,1.91,20.7334,17.3644,21.3214,175,75
2026-05-09 16:32:05.601,2,0.53,0.93,1.98,14.703399999999998,2.9144000000000005,23.9414,175,75
2026-05-09 16:32:05.631,2,0.55,1.0,1.94,11.1034,1.3344000000000005,26.0714,175,75
2026-05-09 16:32:05.645,2,0.55,1.01,1.95,9.6434,7.1244000000000005,26.1914,175,75
2026-05-09 16:32:05.669,2,0.62,0.98,2.05,5.9834,7.4244,28.2114,175,75
2026-05-09 16:32:05.680,2,0.63,0.94,2.06,5.1334,-4.705599999999999,28.881400000000003,175,75
2026-05-09 16:32:05.698,2,0.63,0.89,2.06,4.8234,-11.225599999999998,27.9014,175,75
2026-05-09 16:32:05.698,2,0.61,0.87,2.04,4.8834,-11.8356,25.2214,175,75
2026-05-09 16:32:05.720,2,0.6,0.84,2.04,7.3834,-9.8856,23.2714,175,75
2026-05-09 16:32:05.745,2,0.61,0.79,2.09,12.3234,-36.6556,21.0114,175,75
2026-05-09 16:32:05.757,2,0.6,0.78,2.06,11.5334,-51.0456,22.2914,175,75
2026-05-09 16:32:05.778,2,0.57,0.76,1.92,10.0034,-49.6456,22.3514,175,75
2026-05-09 16:32:05.789,2,0.58,0.78,1.9,14.2734,-39.3356,20.8914,175,75
2026-05-09 16:32:05.806,2,0.61,0.79,1.94,15.9834,-31.105599999999995,20.8914,175,75
2026-05-09 16:32:05.806,2,0.67,0.8,1.96,13.6634,-35.8056,22.5414,175,75
2026-05-09 16:32:05.816,2,0.73,0.84,1.93,11.1034,-48.7856,23.3314,175,75
2026-05-09 16:32:05.835,2,0.74,0.89,1.85,7.4434,-52.6956,23.0214,175,75
2026-05-09 16:32:05.846,2,0.75,0.93,1.76,2.7534,-38.5456,19.7314,175,75
2026-05-09 16:32:05.923,2,0.87,0.92,2.18,-8.8366,26.5144,-4.0486,175,75
2026-05-09 16:32:05.925,2,0.87,0.89,2.14,-9.9966,8.4044,-6.3086,175,75
2026-05-09 16:32:05.937,2,0.76,0.86,2.11,-12.9166,-17.5056,-10.3886,175,75
2026-05-09 16:32:05.955,2,0.67,0.89,2.02,-9.9966,-21.2256,-13.7386,175,75
2026-05-09 16:32:05.989,2,0.75,0.88,2.24,-1.5166000000000004,-4.1556,-33.6786,175,75
2026-05-09 16:32:06.000,2,0.72,0.89,2.14,1.8934,-2.0256,-39.1086,175,75
2026-05-09 16:32:06.012,2,0.59,0.87,1.96,15.6134,44.6844,-45.3886,175,75
2026-05-09 16:32:06.034,2,0.44,0.86,1.89,27.0834,105.7244,-55.7586,175,75
2026-05-09 16:32:06.034,2,0.41,0.86,2.03,34.3334,154.1344,-67.3986,175,75
2026-05-09 16:32:06.056,2,0.31,0.98,2.3,44.8834,170.90439999999998,-66.4286,175,75
2026-05-09 16:32:06.066,2,0.16,1.06,2.37,54.3934,136.3344,-55.6986,175,75
2026-05-09 16:32:06.077,2,0.16,1.05,2.38,54.0934,93.7744,-42.098600000000005,175,75
2026-05-09 16:32:06.079,2,0.15,0.99,2.33,47.9334,47.0044,-31.5486,175,75
2026-05-09 16:32:06.099,2,0.16,0.95,2.21,41.5334,23.9544,-19.8386,175,75
2026-05-09 16:32:06.133,2,0.17,0.93,1.99,32.2634,36.8844,-7.8286,175,75
2026-05-09 16:32:06.133,2,0.09,0.94,1.97,28.6634,44.3144,-6.7286,175,75
2026-05-09 16:32:06.145,2,0.2,0.9,2.02,26.7134,64.56439999999999,-2.3386,175,75
2026-05-09 16:32:06.156,2,0.1,0.97,2.1,23.3034,54.6244,10.9514,175,75
2026-05-09 16:32:06.228,2,0.12,0.88,2.13,17.8134,64.6844,33.6914,175,75
2026-05-09 16:32:06.244,2,0.16,0.88,2.22,17.2034,63.034400000000005,34.061400000000006,175,75
2026-05-09 16:32:06.276,2,0.27,0.93,2.29,7.5634,18.224400000000003,39.8514,175,75
2026-05-09 16:32:06.296,2,0.27,0.97,2.28,5.0634,6.454400000000001,43.0214,175,75
2026-05-09 16:32:06.296,2,0.28,0.96,2.29,-0.1766000000000005,-10.495599999999998,44.2414,175,75
2026-05-09 16:32:06.315,2,0.39,0.93,2.28,-1.4566,-28.6656,46.0714,175,75
2026-05-09 16:32:06.336,2,0.5,0.91,2.28,-2.7366,-43.6056,43.9414,175,75
2026-05-09 16:32:06.347,2,0.6,0.93,2.2,0.8634,-57.8756,37.6014,175,75
2026-05-09 16:32:06.357,2,0.49,0.99,2.18,5.5534,-41.3556,37.2314,175,75
2026-05-09 16:32:06.372,2,0.47,1.0,2.22,5.6734,-40.1956,37.84139999999999,175,75
2026-05-09 16:32:06.385,2,3.25,-0.15,4.33,-35.476600000000005,-193.6656,60.281400000000005,175,75
2026-05-09 16:32:06.397,2,1.81,0.98,1.38,-62.186600000000006,-364.8856,27.8414,175,75
2026-05-09 16:32:06.408,2,0.19,1.01,1.21,-31.6966,-268.4256,-14.4186,175,75
2026-05-09 16:32:06.452,2,0.66,1.03,2.48,-9.0166,102.0044,-2.8286,175,75
2026-05-09 16:32:06.468,2,0.85,0.96,2.35,11.0434,-108.4856,22.3514,175,75
2026-05-09 16:32:06.479,2,0.84,0.75,2.11,0.7334,-146.4156,17.411399999999997,175,75
2026-05-09 16:32:06.493,2,0.68,0.69,1.89,-8.226600000000001,-100.3756,5.7714,175,75
2026-05-09 16:32:06.505,2,0.57,0.8,1.78,-7.4966,-21.355600000000003,1.8714000000000013,175,75
2026-05-09 16:32:06.516,2,0.74,0.87,1.92,-7.856599999999999,40.8444,-2.278600000000001,175,75
2026-05-09 16:32:06.527,2,0.69,0.91,2.15,-11.276599999999998,43.9544,0.4614000000000011,175,75
2026-05-09 16:32:06.531,2,0.76,0.9,2.22,-13.6566,17.3644,7.541399999999999,175,75
2026-05-09 16:32:06.549,2,0.77,0.89,2.19,-11.6366,-31.0456,13.2114,175,75
2026-05-09 16:32:06.557,2,0.77,0.86,2.08,-6.0866,-29.035599999999995,13.0814,175,75
2026-05-09 16:32:06.573,2,0.77,0.78,2.03,-4.2666,-3.3056,4.6114,175,75
2026-05-09 16:32:06.599,2,0.75,0.77,2.13,3.2334,27.9144,-10.7586,175,75
2026-05-09 16:32:06.601,2,0.72,0.8,2.15,5.2534,24.864400000000003,-14.0486,175,75
2026-05-09 16:32:06.655,2,0.5,0.81,2.21,19.7634,44.5644,-15.2086,175,75
2026-05-09 16:32:06.686,2,0.49,0.83,2.26,21.6534,26.6344,-5.8786000000000005,175,75
2026-05-09 16:32:06.698,2,0.51,0.81,2.26,24.3934,14.0144,-0.9985999999999996,175,75
2026-05-09 16:32:06.725,2,0.57,0.71,2.23,29.9434,3.1044000000000005,3.151399999999999,175,75
2026-05-09 16:32:06.734,2,0.6,0.72,2.22,34.6434,-7.1456,3.6313999999999993,175,75
2026-05-09 16:32:06.754,2,0.62,0.75,2.12,37.4434,-22.6356,2.351399999999998,175,75
2026-05-09 16:32:06.790,2,0.68,0.73,1.98,37.1434,-18.7856,-7.6486,175,75
2026-05-09 16:32:06.790,2,0.68,0.73,1.94,37.8734,-8.855599999999999,-11.3686,175,75
2026-05-09 16:32:06.811,2,0.65,0.77,1.91,37.8134,10.6644,-17.5286,175,75
2026-05-09 16:32:06.822,2,0.65,0.78,1.93,36.8934,14.9244,-19.9586,175,75
2026-05-09 16:32:06.838,2,0.63,0.79,1.94,34.6434,12.9144,-20.7586,175,75
2026-05-09 16:32:06.848,2,0.59,0.77,1.92,26.2234,8.644400000000001,-23.1986,175,75
2026-05-09 16:32:06.863,2,0.58,0.78,1.94,24.1534,13.8344,-25.0286,175,75
2026-05-09 16:32:06.883,2,0.54,0.79,2.02,18.9134,5.8444,-25.8786,175,75
2026-05-09 16:32:06.892,2,0.51,0.8,2.01,15.6134,-8.115599999999999,-23.1986,175,75
2026-05-09 16:32:06.904,2,0.49,0.83,1.98,14.453399999999998,-15.8656,-20.9386,175,75
2026-05-09 16:32:06.922,2,0.47,0.86,1.93,13.723400000000002,-13.975599999999998,-18.0686,175,75
2026-05-09 16:32:06.949,2,0.45,0.92,1.91,13.7834,14.8044,-14.9586,175,75
2026-05-09 16:32:06.967,2,0.47,0.95,1.95,11.1034,19.6244,-13.1286,175,75
2026-05-09 16:32:07.017,2,0.45,0.92,2.06,2.7534,2.9144000000000005,-8.1286,175,75
2026-05-09 16:32:07.033,2,0.45,0.92,2.02,1.2233999999999998,-9.8856,-6.9786,175,75
2026-05-09 16:32:07.033,2,0.43,0.9,1.99,1.1633999999999998,-6.9656,-7.5886,175,75
2026-05-09 16:32:07.052,2,0.4,0.89,1.98,2.5634,0.9644000000000004,-9.1086,175,75
2026-05-09 16:32:07.071,2,0.34,0.91,2.03,6.413399999999999,10.6044,-10.1486,175,75
2026-05-09 16:32:07.092,2,0.33,0.91,2.03,6.1034,7.1844,-7.2186,175,75
2026-05-09 16:32:07.114,2,0.3,0.92,2.03,6.833399999999999,6.6344,-5.5086,175,75
2026-05-09 16:32:07.125,2,0.3,0.92,2.05,7.0234,8.034400000000002,-4.288600000000001,175,75
2026-05-09 16:32:07.138,2,0.3,0.93,2.05,7.6934,4.994400000000001,-2.2186000000000003,175,75
2026-05-09 16:32:07.176,2,0.3,0.93,2.07,5.4334,-8.5456,4.971399999999999,175,75
2026-05-09 16:32:07.176,2,0.3,0.94,2.06,4.2734,-9.9456,6.9314,175,75
2026-05-09 16:32:07.188,2,0.29,0.93,2.05,3.3634,-8.855599999999999,9.0614,175,75
2026-05-09 16:32:07.204,2,0.3,0.92,2.05,3.8434,-8.0556,11.7414,175,75
2026-05-09 16:32:07.215,2,0.31,0.91,2.06,4.8834,-8.605599999999999,13.881400000000005,175,75
2026-05-09 16:32:07.225,2,0.33,0.91,2.07,6.0434,-8.0556,16.0714,175,75
2026-05-09 16:32:07.237,2,0.34,0.91,2.07,6.833399999999999,-8.7256,17.411399999999997,175,75
2026-05-09 16:32:07.248,2,0.36,0.89,2.06,6.833399999999999,-7.9956,17.7214,175,75
2026-05-09 16:32:07.258,2,0.36,0.89,2.06,6.9534,-5.925599999999999,18.3314,175,75
2026-05-09 16:32:07.278,2,0.37,0.91,2.05,7.993399999999999,1.814400000000001,19.3014,175,75
2026-05-09 16:32:07.289,2,0.36,0.94,2.07,8.0534,8.7744,20.7114,175,75
2026-05-09 16:32:07.316,2,0.34,0.95,2.12,6.6534,9.6244,25.6514,175,75
2026-05-09 16:32:07.316,2,0.36,0.95,2.13,4.3934,2.7344000000000004,29.2414,175,75
2026-05-09 16:32:07.327,2,0.37,0.96,2.12,2.2634,-6.535599999999999,31.561400000000003,175,75
2026-05-09 16:32:07.338,2,0.37,0.95,2.12,-0.5465999999999998,-11.5956,33.6914,175,75
2026-05-09 16:32:07.370,2,0.4,0.96,2.08,-6.946600000000001,-12.2056,36.5014,175,75
2026-05-09 16:32:07.370,2,0.43,0.95,2.12,-9.7466,-8.4856,36.8714,175,75
2026-05-09 16:32:07.384,2,0.48,0.96,2.16,-10.9066,-5.5556,36.561400000000006,175,75
2026-05-09 16:32:07.390,2,0.54,0.96,2.21,-9.9366,-4.765599999999999,35.4614,175,75
2026-05-09 16:32:07.410,2,0.55,0.93,2.26,-8.4666,-17.8756,35.7114,175,75
2026-05-09 16:32:07.421,2,0.57,0.93,2.27,-3.1666,-18.9756,38.5114,175,75
2026-05-09 16:32:07.434,2,0.6,0.9,2.29,-1.2766000000000002,-34.8856,37.84139999999999,175,75
2026-05-09 16:32:07.446,2,0.59,0.89,2.28,-0.0566000000000004,-44.1556,39.061400000000006,175,75
2026-05-09 16:32:07.461,2,0.61,0.87,2.26,0.3133999999999997,-50.0056,39.4314,175,75
2026-05-09 16:32:07.461,2,0.65,0.86,2.24,1.7134,-55.8656,38.2714,175,75
2026-05-09 16:32:07.474,2,0.75,0.86,2.22,3.8434,-56.4156,32.9614,175,75
2026-05-09 16:32:07.497,2,0.75,0.85,2.23,8.4234,-45.0056,27.5414,175,75
2026-05-09 16:32:07.523,2,0.69,0.84,2.09,11.8334,-23.855600000000003,22.8414,175,75
2026-05-09 16:32:07.530,2,0.74,0.84,2.06,15.2534,-12.3256,21.3214,175,75
2026-05-09 16:32:07.549,2,0.75,0.88,2.02,16.9534,1.7544000000000004,19.061400000000003,175,75
2026-05-09 16:32:07.549,2,0.73,0.88,1.98,21.7134,22.9144,17.051399999999997,175,75
2026-05-09 16:32:07.575,2,0.64,0.86,1.87,30.7334,88.8944,15.951400000000003,175,75
2026-05-09 16:32:07.597,2,0.64,0.84,1.87,33.9134,139.4444,12.6614,175,75
2026-05-09 16:32:07.608,2,0.63,0.83,1.97,38.6634,196.6944,4.791399999999999,175,75
2026-05-09 16:32:07.625,2,0.66,0.8,2.23,41.8934,235.4744,-5.3886,175,75
2026-05-09 16:32:07.630,2,0.72,0.78,2.63,35.9834,214.0144,-13.3786,175,75
2026-05-09 16:32:07.659,2,0.73,0.8,2.71,32.0234,169.0744,-11.1186,175,75
2026-05-09 16:32:07.687,2,0.72,0.79,2.72,29.0334,116.1444,-8.9286,175,75
2026-05-09 16:32:07.702,2,0.51,0.87,2.31,26.4134,36.1444,-16.3086,175,75
2026-05-09 16:32:07.735,2,0.41,0.85,2.35,31.4134,63.284400000000005,-25.8786,175,75
2026-05-09 16:32:07.750,2,0.38,0.84,2.34,34.1534,65.7244,-26.6686,175,75
2026-05-09 16:32:07.785,2,0.25,0.87,2.31,44.9434,49.1944,-33.4986,175,75
2026-05-09 16:32:07.796,2,0.23,0.88,2.32,46.8934,37.1844,-33.0686,175,75
2026-05-09 16:32:07.806,2,0.21,0.87,2.33,46.3434,18.5844,-32.2786,175,75
2026-05-09 16:32:07.843,2,0.08,0.92,2.25,35.9834,-57.6356,-17.7086,175,75
2026-05-09 16:32:07.854,2,0.05,0.96,2.17,30.1934,-73.4256,-12.0386,175,75
2026-05-09 16:32:07.865,2,0.02,0.97,2.08,21.8334,-76.9656,-5.9986,175,75
2026-05-09 16:32:07.879,2,0.0,0.94,2.04,14.8234,-68.7856,-1.3686000000000007,175,75
2026-05-09 16:32:07.879,2,0.04,0.92,2.02,12.8734,-59.5856,2.051400000000001,175,75
2026-05-09 16:32:07.900,2,0.03,0.92,2.02,10.1934,-52.3856,5.3414,175,75
2026-05-09 16:32:07.915,2,0.09,0.94,2.08,8.3034,-26.6556,8.8214,175,75
2026-05-09 16:32:07.938,2,0.16,0.94,2.12,0.4933999999999998,-17.2656,10.2214,175,75
2026-05-09 16:32:07.950,2,0.17,0.96,2.14,-4.446600000000001,-10.3756,12.7214,175,75
2026-05-09 16:32:07.961,2,0.15,0.96,2.12,-6.946600000000001,-3.605599999999999,17.3514,175,75
2026-05-09 16:32:07.985,2,0.2,0.95,2.22,-5.7266,20.474400000000003,24.3714,175,75
2026-05-09 16:32:07.987,2,0.26,0.95,2.24,-7.376600000000001,22.794400000000003,29.6114,175,75
2026-05-09 16:32:08.001,2,0.28,0.95,2.29,-11.456600000000002,13.2244,32.0514,175,75
2026-05-09 16:32:08.019,2,0.43,0.94,2.4,-9.2666,21.0244,32.4114,175,75
2026-05-09 16:32:08.024,2,0.46,1.01,2.4,-4.5066,-9.9456,28.3914,175,75
2026-05-09 16:32:08.048,2,0.44,1.04,2.44,2.9934,-43.3656,23.2114,175,75
2026-05-09 16:32:08.083,2,0.23,0.84,3.68,-51.826600000000006,-111.4156,97.6614,175,75
2026-05-09 16:32:08.094,2,2.06,0.79,2.11,27.4434,-52.5056,5.1614,175,75
2026-05-09 16:32:08.105,2,0.28,1.17,1.62,4.8834,-227.4456,19.3014,175,75
2026-05-09 16:32:08.121,2,0.46,1.29,1.78,32.3834,93.2844,-1.1785999999999994,175,75
2026-05-09 16:32:08.147,2,0.74,0.75,2.47,3.5434,106.0844,-14.4186,175,75
2026-05-09 16:32:08.160,2,0.58,1.01,2.68,-11.276599999999998,-1.7155999999999991,-2.528600000000001,175,75
2026-05-09 16:32:08.182,2,0.61,1.16,2.55,-1.1566,-111.2256,19.3014,175,75
2026-05-09 16:32:08.183,2,0.48,1.05,2.21,-12.9166,-166.1056,31.1914,175,75
2026-05-09 16:32:08.192,2,0.46,0.97,1.98,-22.6166,-146.71560000000002,30.6514,175,75
2026-05-09 16:32:08.211,2,0.42,0.94,1.86,-20.5466,-92.6956,28.451400000000003,175,75
2026-05-09 16:32:08.219,2,0.41,0.84,1.83,-13.7166,-9.7656,24.6714,175,75
2026-05-09 16:32:08.248,2,0.54,0.65,2.2,-9.5666,47.7944,18.6914,175,75
2026-05-09 16:32:08.266,2,0.54,0.65,2.26,0.8033999999999999,14.1344,17.411399999999997,175,75
2026-05-09 16:32:08.306,2,0.53,0.71,2.1,17.0834,-7.025599999999999,14.301399999999996,175,75
2026-05-09 16:32:08.306,2,0.53,0.72,2.07,19.5834,0.6044,13.511399999999998,175,75
2026-05-09 16:32:08.326,2,0.52,0.77,2.04,20.7334,12.2444,13.881400000000005,175,75
2026-05-09 16:32:08.326,2,0.53,0.8,2.04,19.7634,18.224400000000003,15.4014,175,75
2026-05-09 16:32:08.354,2,0.58,0.82,2.12,13.1134,23.7744,17.7814,175,75
2026-05-09 16:32:08.381,2,0.63,0.82,2.17,8.0534,13.5244,20.6514,175,75
2026-05-09 16:32:08.433,2,0.6,0.78,2.15,1.2233999999999998,-35.9856,20.0414,175,75
2026-05-09 16:32:08.433,2,0.59,0.76,2.12,6.413399999999999,-26.965599999999995,17.051399999999997,175,75
2026-05-09 16:32:08.443,2,0.59,0.74,2.13,12.2634,-13.245599999999998,13.8214,175,75
2026-05-09 16:32:08.467,2,0.59,0.72,2.15,15.4334,-2.935599999999999,10.4014,175,75
2026-05-09 16:32:08.479,2,0.59,0.71,2.18,16.8934,3.4044000000000003,8.2714,175,75
2026-05-09 16:32:08.490,2,0.58,0.72,2.18,17.2034,5.1744,8.0214,175,75
2026-05-09 16:32:08.501,2,0.57,0.77,2.18,18.4234,11.5144,7.1114,175,75
2026-05-09 16:32:08.511,2,0.58,0.79,2.18,19.0334,14.5644,6.991399999999999,175,75
2026-05-09 16:32:08.522,2,0.62,0.8,2.23,20.2534,15.4144,7.1114,175,75
2026-05-09 16:32:08.533,2,0.65,0.78,2.28,20.1234,8.1044,6.441399999999998,175,75
2026-05-09 16:32:08.573,2,0.69,0.85,2.22,20.0634,-26.4156,7.721399999999999,175,75
2026-05-09 16:32:08.579,2,0.69,0.85,2.18,19.7034,-26.535599999999995,5.651399999999999,175,75
2026-05-09 16:32:08.591,2,0.7,0.84,2.13,20.0034,-20.3156,3.941399999999998,175,75
2026-05-09 16:32:08.605,2,0.71,0.82,2.14,20.3134,-9.5856,-0.2685999999999993,175,75
2026-05-09 16:32:08.631,2,0.73,0.82,2.18,22.0234,-2.695599999999999,-6.368600000000001,175,75
2026-05-09 16:32:08.646,2,0.71,0.81,2.17,22.5634,-6.0456,-7.948600000000001,175,75
2026-05-09 16:32:08.679,2,0.66,0.8,2.09,29.0934,10.4744,-15.0286,175,75
2026-05-09 16:32:08.679,2,0.64,0.82,2.09,32.5034,20.904400000000003,-18.4986,175,75
2026-05-09 16:32:08.689,2,0.61,0.82,2.1,34.2134,27.3044,-20.9986,175,75
2026-05-09 16:32:08.714,2,0.49,0.82,2.06,38.6034,42.0044,-24.7786,175,75
2026-05-09 16:32:08.728,2,0.43,0.81,2.01,43.4234,60.1144,-26.2386,175,75
2026-05-09 16:32:08.737,2,0.34,0.81,1.99,48.1134,82.2444,-26.8486,175,75
2026-05-09 16:32:08.748,2,0.3,0.8,2.0,52.0834,102.4944,-25.2686,175,75
2026-05-09 16:32:08.770,2,0.23,0.82,2.16,57.8134,123.5244,-16.9186,175,75
2026-05-09 16:32:08.782,2,0.24,0.83,2.24,57.9934,114.3844,-11.4286,175,75
2026-05-09 16:32:08.795,2,0.26,0.83,2.31,55.4334,83.7744,-4.4186,175,75
2026-05-09 16:32:08.805,2,0.27,0.83,2.33,53.3034,55.1144,-0.0286000000000008,175,75
2026-05-09 16:32:08.826,2,0.24,0.83,2.29,50.1334,15.6044,5.401399999999999,175,75
2026-05-09 16:32:08.857,2,0.21,0.82,2.21,46.7734,-7.265599999999999,8.8214,175,75
2026-05-09 16:32:08.857,2,0.16,0.81,2.15,43.6634,-19.3356,11.1314,175,75
2026-05-09 16:32:08.861,2,0.14,0.79,2.12,40.8634,-22.0856,12.4114,175,75
2026-05-09 16:32:08.872,2,0.14,0.74,2.04,35.1934,-28.3656,16.621399999999998,175,75
2026-05-09 16:32:08.883,2,0.12,0.75,2.01,34.4534,-26.2256,17.841399999999997,175,75
2026-05-09 16:32:08.895,2,0.11,0.76,1.98,34.7034,-14.2756,19.7314,175,75
2026-05-09 16:32:08.920,2,0.12,0.76,1.99,35.4334,14.0144,23.5114,175,75
2026-05-09 16:32:08.920,2,0.15,0.8,2.04,35.7334,21.2744,26.7414,175,75
2026-05-09 16:32:08.957,2,0.16,0.84,2.08,35.5534,22.3044,29.3714,175,75
2026-05-09 16:32:08.959,2,0.19,0.87,2.12,31.5334,15.4744,37.9014,175,75
2026-05-09 16:32:08.976,2,0.22,0.89,2.12,28.4234,13.3444,41.9914,175,75
2026-05-09 16:32:08.990,2,0.23,0.91,2.12,26.6534,17.8544,44.4314,175,75
2026-05-09 16:32:09.046,2,0.45,1.02,2.31,19.9434,-24.3356,68.0814,175,75
2026-05-09 16:32:09.046,2,0.48,0.96,2.31,18.7234,-38.4856,70.34140000000001,175,75
2026-05-09 16:32:09.071,2,0.58,0.72,2.26,26.7134,-52.2056,64.6114,175,75
2026-05-09 16:32:09.085,2,0.61,0.62,2.25,30.4934,-58.8556,60.2214,175,75
2026-05-09 16:32:09.133,2,0.57,0.66,1.93,46.5334,-20.5556,55.8314,175,75
2026-05-09 16:32:09.153,2,0.71,0.7,1.97,44.3934,8.9544,58.76140000000001,175,75
2026-05-09 16:32:09.168,2,0.71,0.65,2.03,37.3234,26.5144,59.061400000000006,175,75
2026-05-09 16:32:09.178,2,0.81,0.6,2.12,31.6534,44.2544,61.9314,175,75
2026-05-09 16:32:09.204,2,0.91,0.59,2.35,29.9434,33.1644,59.2414,175,75
2026-05-09 16:32:09.204,2,1.08,0.6,2.48,26.7134,15.2944,54.061400000000006,175,75
2026-05-09 16:32:09.218,2,1.14,0.61,2.51,24.1534,-23.3656,46.7414,175,75
2026-05-09 16:32:09.223,2,1.17,0.59,2.53,18.7834,-69.3956,38.2714,175,75
2026-05-09 16:32:09.238,2,1.13,0.57,2.44,10.8034,-99.2156,30.1614,175,75
2026-05-09 16:32:09.249,2,1.1,0.57,2.26,5.7334,-117.0856,22.9614,175,75
2026-05-09 16:32:09.260,2,1.08,0.59,2.17,5.0034,-111.9656,17.7214,175,75
2026-05-09 16:32:09.272,2,1.09,0.61,2.1,6.4734,-92.6356,12.0514,175,75
2026-05-09 16:32:09.282,2,1.1,0.6,2.07,8.6034,-60.8656,2.961400000000001,175,75
2026-05-09 16:32:09.282,2,1.09,0.55,2.06,10.2534,-32.2056,-3.438600000000001,175,75
2026-05-09 16:32:09.294,2,1.08,0.51,2.11,12.6934,-6.4156,-9.8986,175,75
2026-05-09 16:32:09.321,2,1.01,0.55,2.2,23.1134,36.2144,-22.3986,175,75
2026-05-09 16:32:09.321,2,1.0,0.57,2.23,25.9834,51.5744,-27.1586,175,75
2026-05-09 16:32:09.359,2,0.99,0.57,2.3,34.2134,86.2744,-41.4286,175,75
2026-05-09 16:32:09.359,2,0.76,0.67,2.35,43.7234,124.6244,-41.488600000000005,175,75
2026-05-09 16:32:09.371,2,0.66,0.63,2.32,47.5634,139.56439999999998,-49.4186,175,75
2026-05-09 16:32:09.384,2,0.55,0.66,2.47,50.0634,136.75439999999998,-46.6686,175,75
2026-05-09 16:32:09.396,2,0.43,0.68,2.54,61.2834,154.31439999999998,-43.1286,175,75
2026-05-09 16:32:09.455,2,0.11,0.7,2.52,87.8134,112.0644,-30.0286,175,75
2026-05-09 16:32:09.455,2,0.03,0.71,2.5,91.6534,111.6344,-25.3886,175,75
2026-05-09 16:32:09.465,2,-0.04,0.72,2.49,95.7334,110.1144,-19.3486,175,75
2026-05-09 16:32:09.467,2,-0.08,0.73,2.46,99.1534,109.5644,-12.5286,175,75
2026-05-09 16:32:09.520,2,-0.16,0.66,2.36,98.9134,106.6944,-0.938600000000001,175,75
2026-05-09 16:32:09.531,2,-0.29,0.79,2.27,111.4134,165.47439999999995,20.0414,175,75
2026-05-09 16:32:09.544,2,-0.28,0.81,2.38,118.1134,178.40439999999998,30.6514,175,75
2026-05-09 16:32:09.544,2,-0.21,0.77,2.53,118.1734,175.6644,48.5714,175,75
2026-05-09 16:32:09.568,2,-0.22,0.7,2.52,109.8234,118.2844,83.0814,175,75
2026-05-09 16:32:09.578,2,-0.27,0.64,2.42,102.0234,106.2144,96.9314,175,75
2026-05-09 16:32:09.608,2,-0.36,0.62,2.39,95.3734,115.2344,106.3214,175,75
2026-05-09 16:32:09.608,2,-0.38,0.62,2.43,93.2334,129.1344,111.44140000000002,175,75
2026-05-09 16:32:09.618,2,-0.34,0.6,2.5,91.7134,136.4544,116.5014,175,75
2026-05-09 16:32:09.618,2,-0.13,0.51,2.64,87.5034,130.2344,118.5114,175,75
2026-05-09 16:32:09.629,2,-0.01,0.41,2.73,80.3134,90.7244,123.2114,175,75
2026-05-09 16:32:09.656,2,0.13,0.42,2.7,83.9734,25.474400000000003,122.8414,175,75
2026-05-09 16:32:09.674,2,-0.01,0.47,2.78,90.3134,-0.8655999999999997,125.7714,175,75
2026-05-09 16:32:09.688,2,-0.0,0.48,2.83,89.7634,-36.7156,132.2314,175,75
2026-05-09 16:32:09.707,2,-0.28,0.52,2.65,87.7534,-92.5756,148.0814,175,75
2026-05-09 16:32:09.718,2,-1.28,0.63,2.81,68.1734,-171.3556,158.5114,175,75
2026-05-09 16:32:09.743,2,1.26,0.29,1.58,99.7634,-270.6856,128.5114,175,75
2026-05-09 16:32:09.754,2,-0.69,0.29,1.66,130.0634,-83.9756,76.5614,175,75
2026-05-09 16:32:09.754,2,0.67,0.48,3.13,122.5034,223.7144,83.51140000000001,175,75
2026-05-09 16:32:09.765,2,0.65,0.54,3.48,86.5334,40.1144,108.8814,175,75
2026-05-09 16:32:09.798,2,0.59,0.4,2.95,131.1634,-237.2656,136.19140000000002,175,75
2026-05-09 16:32:09.814,2,0.61,0.35,2.38,139.58339999999998,-277.7556,134.8514,175,75
2026-05-09 16:32:09.844,2,0.69,0.24,1.99,143.5434,-28.4256,105.7714,175,75
2026-05-09 16:32:09.856,2,0.98,0.13,2.46,149.21339999999998,79.01440000000001,93.0814,175,75
2026-05-09 16:32:09.867,2,1.05,0.18,2.69,138.6634,66.5144,94.3014,175,75
2026-05-09 16:32:09.867,2,1.11,0.14,2.78,127.9934,3.1644000000000005,95.6514,175,75
2026-05-09 16:32:09.879,2,1.16,0.05,2.75,130.1934,-55.4356,92.5414,175,75
2026-05-09 16:32:09.900,2,1.08,-0.04,2.39,150.43339999999998,-77.3856,65.2214,175,75
2026-05-09 16:32:09.921,2,1.01,-0.06,2.28,165.0034,-35.9856,47.1114,175,75
2026-05-09 16:32:09.954,2,1.07,-0.09,2.21,202.1434,6.0844000000000005,30.4014,175,75
2026-05-09 16:32:09.973,2,1.12,-0.08,2.05,220.6134,4.864400000000001,18.5114,175,75
2026-05-09 16:32:09.973,2,1.16,-0.08,2.01,221.1034,4.2544,11.9914,175,75
2026-05-09 16:32:09.996,2,1.19,-0.09,2.0,217.2034,-1.7755999999999998,3.691399999999998,175,75
2026-05-09 16:32:09.996,2,1.18,-0.1,2.0,213.9734,-15.3756,-5.028600000000001,175,75
2026-05-09 16:32:10.020,2,1.19,-0.07,2.01,212.5034,-38.7856,-12.4586,175,75
2026-05-09 16:32:10.030,2,1.17,-0.03,1.96,209.5834,-68.1856,-19.5386,175,75
2026-05-09 16:32:10.050,2,1.17,-0.02,1.88,208.0534,-89.2756,-25.5686,175,75
2026-05-09 16:32:10.073,2,1.17,-0.03,1.58,208.9134,-105.1956,-50.0886,175,75
2026-05-09 16:32:10.073,2,1.14,-0.01,1.42,209.1534,-77.9956,-68.9286,175,75
2026-05-09 16:32:10.084,2,1.11,0.01,1.32,208.8434,-47.5756,-83.8686,175,75
2026-05-09 16:32:10.090,2,1.07,0.07,1.29,209.0934,-23.7256,-98.1386,175,75
2026-05-09 16:32:10.104,2,1.03,0.13,1.28,207.5034,-15.9256,-107.6486,175,75
2026-05-09 16:32:10.130,2,0.96,0.16,1.24,201.8334,-14.3956,-116.0586,175,75
2026-05-09 16:32:10.155,2,0.87,0.21,1.15,192.2634,-7.8756,-122.1586,175,75
2026-05-09 16:32:10.167,2,0.8,0.29,1.06,182.5634,-0.0755999999999996,-123.4986,175,75
2026-05-09 16:32:10.167,2,0.73,0.39,0.95,167.5034,13.7744,-123.7386,175,75
2026-05-09 16:32:10.177,2,0.56,0.56,0.85,138.4834,50.2944,-117.3986,175,75
2026-05-09 16:32:10.210,2,0.49,0.72,0.96,94.7634,89.6844,-96.9186,175,75
2026-05-09 16:32:10.210,2,0.49,0.73,1.05,74.94340000000001,85.4144,-89.34859999999999,175,75
2026-05-09 16:32:10.235,2,0.46,0.72,1.12,61.0434,67.5544,-86.9786,175,75
2026-05-09 16:32:10.286,2,0.26,0.81,1.12,24.1534,56.4544,-73.4386,175,75
2026-05-09 16:32:10.286,2,0.22,0.84,1.15,17.383399999999998,68.3444,-67.0386,175,75
2026-05-09 16:32:10.286,2,0.2,0.85,1.19,12.9334,74.62440000000001,-62.4586,175,75
2026-05-09 16:32:10.293,2,0.2,0.87,1.26,10.1334,78.1644,-58.6186,175,75
2026-05-09 16:32:10.301,2,0.19,0.89,1.34,7.6334,76.9444,-54.8986,175,75
2026-05-09 16:32:10.314,2,0.18,0.9,1.41,4.4534,69.7444,-51.3086,175,75
2026-05-09 16:32:10.314,2,0.18,0.92,1.46,0.0633999999999996,56.7544,-47.5886,175,75
2026-05-09 16:32:10.332,2,0.17,0.95,1.49,-7.436599999999999,33.7144,-42.0386,175,75
2026-05-09 16:32:10.379,2,0.14,0.93,1.52,-22.7366,-6.6556,-32.098600000000005,175,75
2026-05-09 16:32:10.391,2,0.1,0.92,1.5,-29.326600000000003,-20.9856,-28.6786,175,75
2026-05-09 16:32:10.391,2,0.02,0.96,1.43,-35.6666,-21.6556,-18.6786,175,75
2026-05-09 16:32:10.432,2,0.01,0.95,1.49,-43.1666,-1.1056,-0.448599999999999,175,75
2026-05-09 16:32:10.439,2,0.02,0.93,1.52,-46.6366,-2.695599999999999,4.4314,175,75
2026-05-09 16:32:10.444,2,0.02,0.95,1.53,-49.936600000000006,-5.4956,8.761399999999998,175,75
2026-05-09 16:32:10.462,2,0.03,0.96,1.54,-53.406600000000005,-8.9156,14.6114,175,75
2026-05-09 16:32:10.474,2,0.03,0.98,1.54,-57.4966,-9.3356,22.0514,175,75
2026-05-09 16:32:10.494,2,0.11,0.96,1.6,-65.78659999999999,-14.2156,34.9114,175,75
2026-05-09 16:32:10.505,2,0.19,0.93,1.63,-77.6766,-35.2556,44.1214,175,75
2026-05-09 16:32:10.515,2,0.2,0.93,1.64,-84.19659999999999,-49.2756,49.671400000000006,175,75
2026-05-09 16:32:10.526,2,0.23,0.93,1.62,-89.3866,-59.7056,55.2214,175,75
2026-05-09 16:32:10.539,2,0.28,0.9,1.62,-95.5466,-65.37559999999999,61.4414,175,75
2026-05-09 16:32:10.550,2,0.32,0.87,1.62,-101.3366,-67.6356,66.0714,175,75
2026-05-09 16:32:10.561,2,0.37,0.83,1.62,-108.4066,-69.0956,70.65140000000001,175,75
2026-05-09 16:32:10.572,2,0.42,0.79,1.63,-115.6666,-72.4456,74.4314,175,75
2026-05-09 16:32:10.583,2,0.45,0.77,1.65,-119.2666,-73.3656,75.8314,175,75
2026-05-09 16:32:10.600,2,0.53,0.74,1.68,-123.8366,-74.5856,79.0014,175,75
2026-05-09 16:32:10.634,2,0.67,0.61,1.76,-134.8066,-64.76559999999999,77.6014,175,75
2026-05-09 16:32:10.646,2,0.66,0.57,1.76,-138.7166,-64.4656,77.7814,175,75
2026-05-09 16:32:10.664,2,0.41,0.59,1.8,-155.78660000000002,-52.9956,86.1914,175,75
2026-05-09 16:32:10.677,2,0.46,0.67,1.83,-157.5566,-36.8356,97.0514,175,75
2026-05-09 16:32:10.698,2,0.61,0.67,1.8,-152.2466,26.1444,108.5714,175,75
2026-05-09 16:32:10.709,2,0.7,0.62,1.9,-142.6166,65.3544,106.2614,175,75
2026-05-09 16:32:10.728,2,0.84,0.57,2.11,-134.44660000000002,77.9744,97.4714,175,75
2026-05-09 16:32:10.738,2,0.94,0.53,2.28,-130.47660000000002,70.7244,88.51140000000001,175,75
2026-05-09 16:32:10.749,2,1.08,0.52,2.5,-126.8866,19.2544,74.79140000000001,175,75
2026-05-09 16:32:10.757,2,1.15,0.57,2.57,-118.5266,-58.3656,66.8614,175,75
2026-05-09 16:32:10.785,2,1.06,0.61,2.12,-93.5266,-179.46560000000002,54.3614,175,75
2026-05-09 16:32:10.796,2,0.95,0.63,1.8,-86.1566,-167.6956,44.1214,175,75
2026-05-09 16:32:10.804,2,0.86,0.65,1.58,-80.2966,-118.7256,35.95140000000001,175,75
2026-05-09 16:32:10.820,2,0.83,0.63,1.48,-77.1266,-27.9956,31.2614,175,75
2026-05-09 16:32:10.832,2,0.93,0.57,1.57,-80.8466,34.0144,29.4914,175,75
2026-05-09 16:32:10.844,2,1.01,0.5,1.77,-88.83659999999999,63.104400000000005,24.6114,175,75
2026-05-09 16:32:10.850,2,1.02,0.49,1.97,-101.5766,58.894400000000005,17.6014,175,75
2026-05-09 16:32:10.863,2,0.96,0.5,2.07,-112.1266,35.1744,13.5714,175,75
2026-05-09 16:32:10.874,2,0.89,0.48,2.1,-118.0466,15.4144,11.7414,175,75
2026-05-09 16:32:10.889,2,0.79,0.49,2.06,-122.0066,-3.6656,11.9314,175,75
2026-05-09 16:32:10.900,2,0.74,0.51,2.02,-123.0466,-3.365599999999999,12.1114,175,75
2026-05-09 16:32:10.911,2,0.77,0.5,2.03,-123.8966,6.024400000000001,11.5614,175,75
2026-05-09 16:32:10.911,2,0.77,0.45,2.08,-126.4566,17.3644,9.2414,175,75
2026-05-09 16:32:10.920,2,0.76,0.4,2.14,-128.4066,26.2744,5.3414,175,75
2026-05-09 16:32:10.943,2,0.72,0.38,2.21,-128.8966,31.2744,0.9513999999999996,175,75
2026-05-09 16:32:10.943,2,0.69,0.39,2.24,-125.8466,28.404400000000003,-2.278600000000001,175,75
2026-05-09 16:32:10.971,2,0.7,0.4,2.41,-123.0466,21.2144,-7.3386,175,75
2026-05-09 16:32:10.971,2,0.69,0.38,2.48,-123.8966,8.3444,-10.5686,175,75
2026-05-09 16:32:10.980,2,0.67,0.38,2.55,-125.4166,-13.3056,-13.4986,175,75
2026-05-09 16:32:10.994,2,0.69,0.42,2.6,-125.7866,-45.9256,-13.2586,175,75
2026-05-09 16:32:11.004,2,0.73,0.45,2.62,-123.4066,-86.1656,-14.3486,175,75
2026-05-09 16:32:11.027,2,0.88,0.37,2.61,-119.5666,-127.2656,-23.8086,175,75
2026-05-09 16:32:11.042,2,0.67,0.53,2.44,-104.5666,-117.0256,-13.6786,175,75
2026-05-09 16:32:11.042,2,0.59,0.47,2.34,-98.0466,-124.5856,-17.4586,175,75
2026-05-09 16:32:11.053,2,0.55,0.46,2.33,-98.1066,-119.0356,-14.9586,175,75
2026-05-09 16:32:11.064,2,0.56,0.52,2.31,-95.7866,-108.2456,-14.5986,175,75
2026-05-09 16:32:11.076,2,0.59,0.55,2.23,-91.4566,-104.4656,-10.8186,175,75
2026-05-09 16:32:11.087,2,0.53,0.58,2.15,-86.5166,-96.1656,-7.2186,175,75
2026-05-09 16:32:11.098,2,0.48,0.58,2.08,-80.72659999999999,-77.0256,-6.5486,175,75
2026-05-09 16:32:11.109,2,0.46,0.56,2.07,-73.3466,-41.6556,-5.8786000000000005,175,75
2026-05-09 16:32:11.119,2,0.48,0.53,2.11,-68.83659999999999,-25.3756,-4.4786,175,75
2026-05-09 16:32:11.130,2,0.46,0.54,2.11,-64.9966,-19.5256,-3.0085999999999995,175,75
2026-05-09 16:32:11.145,2,0.39,0.56,2.05,-59.99660000000001,-17.8756,0.9513999999999996,175,75
2026-05-09 16:32:11.155,2,0.33,0.57,2.03,-57.1266,-9.5256,3.211400000000001,175,75
2026-05-09 16:32:11.166,2,0.35,0.59,2.03,-54.9966,1.574400000000001,6.191399999999998,175,75
2026-05-09 16:32:11.166,2,0.37,0.55,2.1,-54.7466,9.1344,9.0014,175,75
2026-05-09 16:32:11.184,2,0.42,0.48,2.15,-55.2366,2.0044000000000004,9.3014,175,75
2026-05-09 16:32:11.194,2,0.39,0.53,2.1,-49.2666,-6.4756,12.8414,175,75
2026-05-09 16:32:11.207,2,0.33,0.6,1.98,-40.546600000000005,-15.745599999999998,20.1014,175,75
2026-05-09 16:32:11.211,2,0.27,0.61,1.88,-35.9666,-13.1856,25.8914,175,75
2026-05-09 16:32:11.236,2,0.28,0.58,1.83,-35.0566,54.3844,35.7114,175,75
2026-05-09 16:32:11.246,2,0.32,0.55,1.88,-34.266600000000004,87.3644,40.7114,175,75
2026-05-09 16:32:11.258,2,0.3,0.45,2.04,-34.1366,96.2744,41.3214,175,75
2026-05-09 16:32:11.277,2,0.44,0.43,2.28,-39.326600000000006,59.0744,41.9914,175,75
2026-05-09 16:32:11.304,2,0.46,0.56,2.18,-49.866600000000005,9.3844,50.7714,175,75
2026-05-09 16:32:11.324,2,0.42,0.44,2.11,-60.0566,22.0644,50.7714,175,75
2026-05-09 16:32:11.341,2,0.41,0.41,2.19,-53.5266,31.754400000000004,49.73140000000001,175,75
2026-05-09 16:32:11.351,2,0.5,0.4,2.26,-47.0666,25.6044,52.7214,175,75
2026-05-09 16:32:11.362,2,0.64,0.49,2.26,-43.7166,0.6044,60.5214,175,75
2026-05-09 16:32:11.377,2,0.65,0.52,2.3,-45.4166,-4.945599999999999,60.34140000000001,175,75
2026-05-09 16:32:11.387,2,0.64,0.45,2.38,-46.576600000000006,-10.8656,54.9114,175,75
2026-05-09 16:32:11.388,2,0.64,0.37,2.52,-46.156600000000005,-40.5556,48.6314,175,75
2026-05-09 16:32:11.415,2,0.48,0.38,2.54,-49.0166,-103.3656,51.1914,175,75
2026-05-09 16:32:11.415,2,-1.19,0.78,2.03,-47.1266,-143.9156,84.9714,175,75
2026-05-09 16:32:11.421,2,1.09,0.13,2.92,-58.9566,-238.4256,33.151399999999995,175,75
2026-05-09 16:32:11.432,2,2.9,-0.04,2.43,-70.6066,-182.2656,103.1514,175,75
2026-05-09 16:32:11.451,2,1.08,0.3,1.06,-34.016600000000004,-187.2656,29.6714,175,75
2026-05-09 16:32:11.475,2,0.54,0.42,1.71,28.9734,426.3344,65.2214,175,75
2026-05-09 16:32:11.485,2,1.11,0.06,2.84,32.0234,421.0844,4.371400000000001,175,75
2026-05-09 16:32:11.519,2,0.88,0.43,3.79,8.6034,124.5644,16.6814,175,75
2026-05-09 16:32:11.531,2,0.7,0.24,3.19,35.9234,-239.5856,36.3814,175,75
2026-05-09 16:32:11.543,2,0.67,0.21,2.75,35.6134,-278.7856,32.6014,175,75
2026-05-09 16:32:11.543,2,0.66,0.24,2.41,40.4934,-266.3556,20.8914,175,75
2026-05-09 16:32:11.583,2,0.51,0.11,1.99,67.6334,-30.075599999999994,-0.3286000000000015,175,75
2026-05-09 16:32:11.608,2,0.66,0.18,2.68,95.1934,23.8344,0.4614000000000011,175,75
2026-05-09 16:32:11.631,2,0.56,0.05,2.63,97.8134,-46.5356,7.051400000000001,175,75
2026-05-09 16:32:11.635,2,0.53,-0.04,2.52,104.3934,-84.5256,11.7414,175,75
2026-05-09 16:32:11.648,2,0.59,-0.04,2.42,110.3734,-98.7856,13.2714,175,75
2026-05-09 16:32:11.659,2,0.64,-0.02,2.31,114.2734,-104.3356,12.601399999999998,175,75
2026-05-09 16:32:11.685,2,0.63,-0.03,2.24,117.8734,-104.2756,8.331399999999999,175,75
2026-05-09 16:32:11.695,2,0.61,-0.03,2.18,123.7834,-93.2456,3.211400000000001,175,75
2026-05-09 16:32:11.695,2,0.57,-0.06,2.18,131.4134,-77.26559999999999,-0.8186,175,75
2026-05-09 16:32:11.706,2,0.56,-0.12,2.18,136.1034,-68.9756,-1.6085999999999991,175,75
2026-05-09 16:32:11.719,2,0.56,-0.16,2.18,140.3134,-70.98559999999999,-3.438600000000001,175,75
2026-05-09 16:32:11.730,2,0.6,-0.13,2.19,148.6034,-71.65559999999999,-6.7286,175,75
2026-05-09 16:32:11.750,2,0.63,-0.12,2.19,156.1034,-77.4456,-8.1286,175,75
2026-05-09 16:32:11.759,2,0.63,-0.13,2.17,161.5934,-84.9456,-9.9586,175,75
2026-05-09 16:32:11.793,2,0.63,-0.15,2.14,165.55339999999998,-93.8556,-10.8186,175,75
2026-05-09 16:32:11.823,2,0.57,-0.23,1.9,199.0334,-81.4156,-27.3986,175,75
2026-05-09 16:32:11.834,2,0.58,-0.26,1.85,210.7334,-66.9656,-30.9386,175,75
2026-05-09 16:32:11.850,2,0.61,-0.28,1.83,220.4334,-58.54559999999999,-33.9286,175,75
2026-05-09 16:32:11.949,2,0.79,-0.35,1.83,243.3034,-110.6156,-53.4386,175,75
2026-05-09 16:32:11.990,2,0.62,-0.53,1.55,291.1634,-152.87560000000002,-93.8686,175,75
2026-05-09 16:32:12.002,2,0.57,-0.62,1.4,311.1034,-138.18560000000002,-113.3786,175,75
2026-05-09 16:32:12.026,2,0.55,-0.62,1.36,316.4734,-125.7456,-119.7186,175,75
2026-05-09 16:32:12.034,2,0.45,-0.58,1.33,324.1534,-96.5956,-126.0586,175,75
2026-05-09 16:32:12.070,2,0.44,-0.44,1.53,343.9734,-62.0856,-106.9186,175,75
2026-05-09 16:32:12.102,2,0.43,-0.39,1.59,345.8034,-72.0256,-103.9886,175,75
2026-05-09 16:32:12.102,2,0.43,-0.37,1.6,343.4834,-85.0056,-106.5486,175,75
2026-05-09 16:32:12.125,2,0.27,-0.21,1.47,331.2834,-112.3256,-108.0686,175,75
2026-05-09 16:32:12.137,2,0.21,-0.14,1.39,327.0234,-107.3856,-109.4186,175,75
2026-05-09 16:32:12.163,2,0.19,-0.1,1.34,328.1134,-67.0256,-105.8186,175,75
2026-05-09 16:32:12.180,2,0.27,-0.11,1.35,326.7134,-58.3056,-105.8186,175,75
2026-05-09 16:32:12.180,2,0.3,-0.07,1.34,321.2834,-63.6656,-105.3886,175,75
2026-05-09 16:32:12.191,2,0.23,0.03,1.24,305.6134,-79.4656,-107.0986,175,75
2026-05-09 16:32:12.212,2,0.13,0.14,1.01,280.9234,-67.8156,-99.7786,175,75
2026-05-09 16:32:12.223,2,0.12,0.15,0.94,268.7234,-72.9356,-97.3986,175,75
2026-05-09 16:32:12.234,2,0.09,0.16,0.88,252.9934,-71.7156,-96.4286,175,75
2026-05-09 16:32:12.234,2,0.09,0.18,0.81,236.5934,-54.3956,-88.8086,175,75
2026-05-09 16:32:12.251,2,0.08,0.19,0.77,225.0034,-36.1056,-79.0486,175,75
2026-05-09 16:32:12.315,2,0.25,0.25,0.93,159.0334,-10.3756,-34.6586,175,75
2026-05-09 16:32:12.327,2,0.27,0.24,0.93,145.7334,-12.7556,-29.4186,175,75
2026-05-09 16:32:12.337,2,0.26,0.25,0.87,129.33339999999998,-16.355600000000003,-24.5386,175,75
2026-05-09 16:32:12.349,2,0.24,0.26,0.77,95.7334,2.7344000000000004,-11.3086,175,75
2026-05-09 16:32:12.360,2,0.26,0.24,0.78,79.88340000000001,21.5144,-2.9486000000000008,175,75
2026-05-09 16:32:12.372,2,0.31,0.24,0.82,66.71340000000001,30.7844,3.6313999999999993,175,75
2026-05-09 16:32:12.386,2,0.36,0.23,0.89,48.1134,30.474400000000003,10.5214,175,75
2026-05-09 16:32:12.396,2,0.38,0.24,0.92,33.4234,23.4644,14.0014,175,75
2026-05-09 16:32:12.404,2,0.37,0.25,0.95,17.4434,14.2544,17.7814,175,75
2026-05-09 16:32:12.425,2,0.28,0.28,0.97,-22.1866,4.8044,30.7714,175,75
2026-05-09 16:32:12.448,2,0.28,0.26,0.99,-46.3366,15.9644,45.4614,175,75
2026-05-09 16:32:12.456,2,0.41,0.2,1.06,-71.6366,33.8944,64.8514,175,75
2026-05-09 16:32:12.480,2,0.35,0.2,1.15,-94.9366,22.364400000000003,69.4314,175,75
2026-05-09 16:32:12.491,2,0.31,0.21,1.18,-103.5266,23.8344,75.9514,175,75
2026-05-09 16:32:12.491,2,0.37,0.21,1.2,-110.2966,15.1144,78.2114,175,75
2026-05-09 16:32:12.512,2,0.47,0.15,1.03,-133.4066,-16.285600000000002,80.34140000000001,175,75
2026-05-09 16:32:12.525,2,0.39,0.21,0.97,-142.3066,-2.695599999999999,88.8214,175,75
2026-05-09 16:32:12.553,2,0.46,0.14,0.99,-154.3266,43.5844,102.4714,175,75
2026-05-09 16:32:12.563,2,0.42,0.09,0.98,-167.06660000000002,39.6244,105.4014,175,75
2026-05-09 16:32:12.586,2,0.7,0.01,0.82,-186.9466,-0.8055999999999992,103.0814,175,75
2026-05-09 16:32:12.590,2,0.67,0.04,0.75,-202.5566,-20.4356,102.2314,175,75
2026-05-09 16:32:12.629,2,0.64,0.06,0.7,-217.6766,-23.425600000000003,107.0514,175,75
2026-05-09 16:32:12.671,2,0.64,0.03,0.65,-231.8266,-23.9756,111.6214,175,75
2026-05-09 16:32:12.705,2,0.74,-0.06,0.57,-267.0666,-24.2756,116.7414,175,75
2026-05-09 16:32:12.716,2,0.76,-0.06,0.62,-275.7266,-21.105600000000003,116.0714,175,75
2026-05-09 16:32:12.738,2,0.78,-0.09,0.68,-298.95660000000004,24.0744,105.1614,175,75
2026-05-09 16:32:12.751,2,0.81,-0.09,0.72,-302.6166,39.924400000000006,100.9514,175,75
2026-05-09 16:32:12.763,2,0.82,-0.06,0.81,-307.3766,60.964400000000005,97.8414,175,75
2026-05-09 16:32:12.774,2,0.78,-0.09,0.93,-311.02660000000003,80.7244,91.5614,175,75
2026-05-09 16:32:12.774,2,0.8,-0.14,1.05,-312.4966,86.51440000000001,85.2814,175,75
2026-05-09 16:32:12.787,2,0.81,-0.22,1.19,-312.9766,82.8544,72.54140000000001,175,75
2026-05-09 16:32:12.787,2,0.78,-0.25,1.26,-311.7666,77.0644,60.1014,175,75
2026-05-09 16:32:12.808,2,0.58,-0.2,1.31,-295.6066,100.9644,31.0114,175,75
2026-05-09 16:32:12.859,2,0.32,0.12,1.94,-215.2366,176.3344,-7.948600000000001,175,75
2026-05-09 16:32:12.867,2,0.29,0.21,2.04,-205.3566,144.74439999999998,-10.1486,175,75
2026-05-09 16:32:12.879,2,0.25,0.36,2.09,-193.7766,94.6844,-9.5386,175,75
2026-05-09 16:32:12.937,2,0.1,0.56,1.8,-131.3366,16.334400000000002,17.5414,175,75
2026-05-09 16:32:12.965,2,0.13,0.52,1.89,-120.7866,-0.5555999999999992,19.7314,175,75
2026-05-09 16:32:12.965,2,0.14,0.52,1.92,-113.3466,-32.0856,21.4414,175,75
2026-05-09 16:32:12.987,2,0.09,0.57,1.86,-105.9066,-70.4356,23.0214,175,75
2026-05-09 16:32:13.000,2,0.01,0.57,1.71,-100.3566,-86.7156,22.7814,175,75
2026-05-09 16:32:13.012,2,-0.16,0.68,1.43,-90.2366,-51.4756,31.6814,175,75
2026-05-09 16:32:13.022,2,-0.16,0.73,1.41,-81.8266,-13.725599999999998,40.2214,175,75
2026-05-09 16:32:13.045,2,-0.01,0.64,1.71,-74.3266,18.404400000000003,56.3814,175,75
2026-05-09 16:32:13.068,2,-0.05,0.59,1.63,-69.5666,-11.5356,70.8914,175,75
2026-05-09 16:32:13.078,2,-0.01,0.57,1.63,-67.30659999999999,-2.5055999999999994,76.5614,175,75
2026-05-09 16:32:13.078,2,0.04,0.56,1.71,-64.3266,2.3644000000000003,82.90140000000001,175,75
2026-05-09 16:32:13.091,2,0.12,0.52,1.78,-62.49660000000001,-8.2456,85.4614,175,75
2026-05-09 16:32:13.143,2,0.15,0.56,1.6,-48.3466,-49.0956,85.8914,175,75
2026-05-09 16:32:13.143,2,0.23,0.62,1.59,-44.1366,-15.6856,95.8314,175,75
2026-05-09 16:32:13.185,2,0.32,0.5,1.67,-44.8066,6.2144,101.0114,175,75
2026-05-09 16:32:13.202,2,0.43,0.41,1.75,-42.436600000000006,-13.4256,95.4614,175,75
2026-05-09 16:32:13.220,2,0.41,0.45,1.68,-36.6366,-21.6556,94.7914,175,75
2026-05-09 16:32:13.220,2,0.43,0.47,1.61,-29.8066,-21.7756,97.7214,175,75
2026-05-09 16:32:13.230,2,0.43,0.49,1.55,-21.1566,-1.2855999999999996,101.8614,175,75
2026-05-09 16:32:13.242,2,0.68,0.37,1.75,-19.8066,29.4444,113.7614,175,75
2026-05-09 16:32:13.254,2,0.74,0.23,1.86,-24.3866,10.6044,109.7914,175,75
2026-05-09 16:32:13.265,2,0.71,0.17,1.87,-29.5666,-18.7256,103.4514,175,75
2026-05-09 16:32:13.277,2,0.54,0.15,1.75,-33.656600000000005,-41.0456,99.3614,175,75
2026-05-09 16:32:13.298,2,0.44,-0.0,1.48,-28.3466,-21.1656,108.5714,175,75
2026-05-09 16:32:13.308,2,0.42,-0.07,1.36,-20.3566,17.1244,110.6514,175,75
2026-05-09 16:32:13.319,2,0.4,-0.02,1.3,-10.9666,81.8144,113.2114,175,75
2026-05-09 16:32:13.331,2,0.39,-0.0,1.38,-6.946600000000001,135.4144,116.3814,175,75
2026-05-09 16:32:13.331,2,0.37,-0.07,1.5,-8.1066,177.8544,117.8414,175,75
2026-05-09 16:32:13.341,2,0.3,-0.18,1.63,-13.8966,206.8144,115.8914,175,75
2026-05-09 16:32:13.352,2,0.32,-0.34,1.75,-23.9566,216.7544,114.1214,175,75
2026-05-09 16:32:13.364,2,0.52,-0.42,1.79,-29.1366,185.7844,118.69140000000002,175,75
2026-05-09 16:32:13.376,2,0.66,-0.44,1.89,-29.9366,141.3344,116.19140000000002,175,75
2026-05-09 16:32:13.429,2,0.89,-0.3,2.1,-72.55659999999999,-18.7856,96.9314,175,75
2026-05-09 16:32:13.437,2,0.69,-0.34,1.95,-81.1566,-65.4956,103.1514,175,75
2026-05-09 16:32:13.469,2,0.56,-0.18,1.48,-66.2766,-71.5956,144.3714,175,75
2026-05-09 16:32:13.507,2,0.92,-0.22,1.52,-53.046600000000005,-17.385599999999997,164.6114,175,75
2026-05-09 16:32:13.530,2,0.97,-0.39,1.56,-52.4966,-36.4156,164.0614,175,75
2026-05-09 16:32:13.571,2,0.95,-0.48,1.49,-51.4566,-72.9956,161.8714,175,75
2026-05-09 16:32:13.571,2,0.85,-0.51,1.27,-65.1766,-93.6656,149.7914,175,75
2026-05-09 16:32:13.581,2,0.88,-0.43,1.17,-67.7966,-88.3656,144.3714,175,75
2026-05-09 16:32:13.591,2,0.92,-0.35,0.99,-73.89659999999999,-66.0456,136.44140000000002,175,75
2026-05-09 16:32:13.604,2,0.91,-0.41,0.91,-79.3866,-41.7156,127.47140000000002,175,75
2026-05-09 16:32:13.616,2,0.89,-0.53,0.88,-85.05659999999999,-12.6956,113.8814,175,75
2026-05-09 16:32:13.639,2,0.9,-0.52,0.97,-86.69659999999999,24.3144,91.1914,175,75
2026-05-09 16:32:13.651,2,0.89,-0.46,1.03,-89.2666,37.0044,81.7414,175,75
2026-05-09 16:32:13.661,2,0.88,-0.46,1.07,-93.7766,46.5744,73.2714,175,75
2026-05-09 16:32:13.661,2,0.84,-0.5,1.13,-99.8066,53.1644,63.0214,175,75
2026-05-09 16:32:13.661,2,0.81,-0.54,1.15,-103.4066,56.6344,54.4914,175,75
2026-05-09 16:32:13.673,2,0.76,-0.57,1.17,-106.3366,62.424400000000006,42.7214,175,75
2026-05-09 16:32:13.683,2,0.72,-0.55,1.2,-106.3366,72.1844,32.231399999999994,175,75
2026-05-09 16:32:13.683,2,0.68,-0.53,1.25,-105.7866,83.1644,23.0214,175,75
2026-05-09 16:32:13.729,2,0.55,-0.41,1.56,-97.4966,86.8844,-13.0086,175,75
2026-05-09 16:32:13.754,2,0.42,-0.31,1.64,-84.8766,69.8044,-33.6186,175,75
2026-05-09 16:32:13.754,2,0.38,-0.24,1.66,-79.50659999999999,71.0844,-39.5386,175,75
2026-05-09 16:32:13.774,2,0.31,-0.2,1.69,-73.0466,77.9144,-44.6586,175,75
2026-05-09 16:32:13.780,2,0.26,-0.16,1.73,-66.69659999999999,84.4444,-48.6186,175,75
2026-05-09 16:32:13.800,2,0.18,-0.13,1.76,-62.49660000000001,90.7844,-49.598600000000005,175,75
2026-05-09 16:32:13.811,2,0.06,-0.1,1.75,-60.35660000000001,101.8844,-47.2186,175,75
2026-05-09 16:32:13.833,2,-0.08,0.06,1.73,-54.7466,134.74439999999998,-27.8286,175,75
2026-05-09 16:32:13.833,2,-0.07,0.11,1.81,-50.7866,151.21439999999998,-15.9386,175,75
2026-05-09 16:32:13.854,2,-0.02,0.1,1.96,-50.4166,157.6144,-7.098600000000001,175,75
2026-05-09 16:32:13.865,2,0.02,0.07,2.07,-50.726600000000005,150.78439999999998,-1.7885999999999989,175,75
2026-05-09 16:32:13.877,2,0.08,0.07,2.15,-49.686600000000006,130.7844,4.851399999999998,175,75
2026-05-09 16:32:13.886,2,0.13,0.1,2.2,-45.906600000000005,96.8144,11.1314,175,75
2026-05-09 16:32:13.920,2,0.06,0.14,2.17,-40.2366,56.4544,14.551399999999996,175,75
2026-05-09 16:32:13.941,2,0.03,0.16,2.17,-36.3366,36.9444,16.131400000000003,175,75
2026-05-09 16:32:13.962,2,0.04,0.17,2.2,-31.2166,20.904400000000003,19.1814,175,75
2026-05-09 16:32:14.001,2,0.1,0.14,2.23,-18.2866,-25.7456,26.6214,175,75
2026-05-09 16:32:14.001,2,0.12,0.11,2.21,-13.8966,-39.1556,27.4714,175,75
2026-05-09 16:32:14.001,2,0.11,0.07,2.17,-8.8366,-43.8556,28.2114,175,75
2026-05-09 16:32:14.008,2,0.1,0.04,2.11,-2.0666,-38.3656,27.9614,175,75
2026-05-09 16:32:14.025,2,0.12,0.04,2.09,6.0434,-26.4156,26.561400000000003,175,75
2026-05-09 16:32:14.025,2,0.13,0.03,2.1,13.543399999999998,-16.105600000000003,25.7114,175,75
