Time,ID,Ax,Ay,Az,Gx,Gy,Gz,Height,Weight
2026-05-07 18:24:11.612,2,-0.02,0.22,0.83,-51.3778,-20.7504,23.201399999999996,175,75
2026-05-07 18:24:11.624,2,-0.03,0.2,0.8,-50.2178,-15.1404,21.611399999999996,175,75
2026-05-07 18:24:11.627,2,-0.05,0.19,0.8,-49.3678,-9.2304,20.091399999999997,175,75
2026-05-07 18:24:11.660,2,-0.1,0.09,0.81,-44.2378,10.5296,15.821399999999997,175,75
2026-05-07 18:24:11.672,2,-0.12,0.02,0.85,-40.8878,20.4696,13.871399999999998,175,75
2026-05-07 18:24:11.697,2,-0.14,-0.13,0.9,-33.2078,30.529600000000002,10.511399999999997,175,75
2026-05-07 18:24:11.697,2,-0.16,-0.17,0.9,-30.8878,26.989600000000003,8.621399999999998,175,75
2026-05-07 18:24:11.715,2,-0.15,-0.18,0.89,-28.567800000000002,22.6596,5.271399999999996,175,75
2026-05-07 18:24:11.728,2,-0.14,-0.17,0.89,-27.1078,22.599600000000002,4.231399999999997,175,75
2026-05-07 18:24:11.738,2,-0.12,-0.14,0.89,-23.8178,23.3296,3.9313999999999965,175,75
2026-05-07 18:24:11.743,2,-0.09,-0.12,0.9,-19.6078,22.3596,4.171399999999998,175,75
2026-05-07 18:24:11.753,2,-0.05,-0.08,0.93,-13.5678,16.4996,4.601399999999998,175,75
2026-05-07 18:24:11.771,2,-0.02,-0.05,0.93,-9.2978,6.3196,4.841399999999997,175,75
2026-05-07 18:24:11.777,2,-0.0,-0.01,0.93,-6.4978,-3.3103999999999996,5.511399999999998,175,75
2026-05-07 18:24:11.788,2,0.01,0.01,0.92,-4.4278,-10.200399999999998,6.061399999999999,175,75
2026-05-07 18:24:11.801,2,0.01,0.04,0.91,-1.187800000000001,-15.5704,6.061399999999999,175,75
2026-05-07 18:24:11.821,2,0.01,0.05,0.9,2.3422,-18.4404,5.881399999999996,175,75
2026-05-07 18:24:11.823,2,0.01,0.05,0.9,5.5122,-20.7504,5.151399999999999,175,75
2026-05-07 18:24:11.829,2,-0.01,0.06,0.9,8.682199999999998,-23.2504,4.0513999999999974,175,75
2026-05-07 18:24:11.840,2,-0.02,0.06,0.91,11.8522,-26.970399999999998,2.8313999999999986,175,75
2026-05-07 18:24:11.851,2,-0.03,0.04,0.92,14.7822,-29.590400000000002,1.7313999999999972,175,75
2026-05-07 18:24:11.870,2,-0.06,0.02,0.94,23.322200000000002,-36.0604,-2.588600000000003,175,75
2026-05-07 18:24:11.917,2,-0.1,-0.0,0.9,40.2122,-50.5704,-8.748600000000003,175,75
2026-05-07 18:24:11.931,2,-0.12,0.01,0.9,47.3422,-50.5104,-12.348600000000005,175,75
2026-05-07 18:24:11.942,2,-0.11,0.03,0.93,51.2422,-51.0004,-14.178600000000003,175,75
2026-05-07 18:24:11.957,2,-0.09,0.03,0.96,54.6622,-55.270399999999995,-14.668600000000005,175,75
2026-05-07 18:24:11.975,2,-0.1,0.05,0.97,56.4922,-65.2704,-14.178600000000003,175,75
2026-05-07 18:24:11.990,2,-0.09,0.04,0.97,58.4422,-66.6104,-14.488600000000005,175,75
2026-05-07 18:24:12.099,2,-0.11,-0.25,1.19,80.3322,-89.3504,-23.388600000000004,175,75
2026-05-07 18:24:12.144,2,-0.08,-0.5,1.19,106.2422,-38.5604,-51.308600000000006,175,75
2026-05-07 18:24:12.157,2,-0.05,-0.34,1.43,146.73219999999998,31.9296,-83.1386,175,75
2026-05-07 18:24:12.182,2,0.03,-0.28,1.61,159.48219999999998,47.9696,-93.01859999999999,175,75
2026-05-07 18:24:12.182,2,0.23,-0.26,1.8,167.3422,33.9996,-97.6586,175,75
2026-05-07 18:24:12.194,2,0.31,-0.26,1.93,169.05220000000003,-23.9904,-83.5086,175,75
2026-05-07 18:24:12.205,2,0.28,-0.23,1.95,171.98219999999998,-75.3304,-69.5486,175,75
2026-05-07 18:24:12.217,2,0.22,-0.23,1.91,175.6322,-106.6104,-62.0486,175,75
2026-05-07 18:24:12.252,2,0.12,-0.37,1.85,174.7222,-87.0904,-85.5786,175,75
2026-05-07 18:24:12.282,2,0.26,-0.31,1.97,190.3922,-93.5604,-98.80860000000001,175,75
2026-05-07 18:24:12.282,2,0.35,-0.25,1.92,188.50220000000002,-131.7904,-87.77860000000001,175,75
2026-05-07 18:24:12.330,2,0.12,-0.25,1.64,179.29219999999998,-134.3504,-97.2286,175,75
2026-05-07 18:24:12.342,2,0.17,-0.18,1.63,182.8922,-124.41040000000001,-113.4486,175,75
2026-05-07 18:24:12.342,2,0.25,-0.03,1.68,183.68220000000002,-127.7704,-116.49859999999998,175,75
2026-05-07 18:24:12.358,2,0.25,0.1,1.69,183.62220000000002,-144.1104,-108.4486,175,75
2026-05-07 18:24:12.358,2,0.24,0.2,1.68,184.05220000000003,-172.8904,-100.08860000000001,175,75
2026-05-07 18:24:12.386,2,0.24,0.25,1.68,182.6522,-213.8004,-90.21860000000001,175,75
2026-05-07 18:24:12.386,2,0.22,0.28,1.67,177.7122,-267.1604,-82.3486,175,75
2026-05-07 18:24:12.397,2,0.18,0.27,1.6,171.67219999999998,-322.0904,-73.99860000000001,175,75
2026-05-07 18:24:12.408,2,0.15,0.27,1.53,167.6522,-360.5704,-68.68860000000001,175,75
2026-05-07 18:24:12.429,2,0.15,0.24,1.37,159.9022,-402.2204,-61.3786,175,75
2026-05-07 18:24:12.445,2,-0.12,0.31,1.07,146.24220000000003,-398.9904,-73.8786,175,75
2026-05-07 18:24:12.456,2,0.0,0.35,0.94,143.0722,-376.6704,-77.4086,175,75
2026-05-07 18:24:12.474,2,0.04,0.39,0.73,135.3922,-323.0104,-76.9186,175,75
2026-05-07 18:24:12.505,2,0.04,0.53,0.48,118.6222,-179.0504,-94.23859999999999,175,75
2026-05-07 18:24:12.528,2,0.09,0.63,0.46,109.7822,-117.03039999999999,-95.76859999999999,175,75
2026-05-07 18:24:12.548,2,0.18,0.77,0.48,79.7822,-59.410399999999996,-83.93860000000001,175,75
2026-05-07 18:24:12.562,2,0.23,0.79,0.44,62.40219999999999,-58.990399999999994,-78.80860000000001,175,75
2026-05-07 18:24:12.573,2,0.27,0.82,0.37,37.2822,-60.9404,-71.8586,175,75
2026-05-07 18:24:12.586,2,0.27,0.83,0.3,13.0122,-50.6304,-68.4486,175,75
2026-05-07 18:24:12.603,2,0.26,0.84,0.25,-29.0578,24.1896,-67.95859999999999,175,75
2026-05-07 18:24:12.641,2,0.33,0.86,0.36,-57.4078,120.9496,-60.8286,175,75
2026-05-07 18:24:12.652,2,0.32,0.86,0.46,-59.4278,160.4696,-59.2986,175,75
2026-05-07 18:24:12.664,2,0.38,0.85,0.82,-49.1778,226.9896,-62.778600000000004,175,75
2026-05-07 18:24:12.676,2,0.42,0.88,0.98,-41.7378,235.7696,-63.448600000000006,175,75
2026-05-07 18:24:12.687,2,0.46,0.89,1.16,-31.9878,230.8896,-64.8486,175,75
2026-05-07 18:24:12.712,2,0.51,0.92,1.5,-12.4078,151.3196,-47.528600000000004,175,75
2026-05-07 18:24:12.723,2,0.51,0.98,1.55,-3.2078000000000007,83.3896,-27.778600000000004,175,75
2026-05-07 18:24:12.734,2,0.52,1.03,1.53,5.0222,19.3696,-8.388600000000004,175,75
2026-05-07 18:24:12.763,2,0.46,0.98,1.15,17.2822,-98.7404,29.721399999999996,175,75
2026-05-07 18:24:12.776,2,0.46,0.98,1.04,17.8322,-104.4704,32.7714,175,75
2026-05-07 18:24:12.778,2,0.44,0.99,0.94,18.5022,-97.7004,32.1014,175,75
2026-05-07 18:24:12.793,2,0.42,1.02,0.84,17.8922,-73.6204,29.1714,175,75
2026-05-07 18:24:12.825,2,0.43,1.04,0.75,11.912199999999999,-24.230400000000003,27.101399999999998,175,75
2026-05-07 18:24:12.863,2,0.31,0.98,0.74,-14.5478,24.6096,40.8214,175,75
2026-05-07 18:24:12.877,2,0.3,0.97,0.74,-21.497799999999998,29.2496,44.721399999999996,175,75
2026-05-07 18:24:12.878,2,0.26,0.96,0.75,-32.2278,36.2596,51.5514,175,75
2026-05-07 18:24:12.904,2,0.19,0.92,0.8,-48.3878,48.7596,64.0514,175,75
2026-05-07 18:24:12.947,2,0.19,0.77,0.86,-87.1078,17.0496,110.3314,175,75
2026-05-07 18:24:12.969,2,0.15,0.68,0.8,-101.6178,31.4396,131.2514,175,75
2026-05-07 18:24:12.979,2,0.13,0.62,0.78,-107.6578,46.4396,138.8714,175,75
2026-05-07 18:24:12.992,2,0.11,0.56,0.78,-114.3678,62.8396,145.5114,175,75
2026-05-07 18:24:13.003,2,0.09,0.5,0.8,-120.7078,77.7796,150.9414,175,75
2026-05-07 18:24:13.032,2,0.09,0.29,1.03,-153.26780000000002,96.1396,174.5414,175,75
2026-05-07 18:24:13.054,2,0.12,0.19,1.08,-169.1778,71.37960000000001,194.2314,175,75
2026-05-07 18:24:13.054,2,0.1,0.07,1.07,-181.6778,49.6096,214.66140000000001,175,75
2026-05-07 18:24:13.067,2,0.07,-0.04,1.02,-187.83780000000002,42.0496,227.9514,175,75
2026-05-07 18:24:13.100,2,0.02,-0.26,0.9,-200.94779999999997,61.0096,248.9914,175,75
2026-05-07 18:24:13.100,2,-0.04,-0.43,0.87,-206.9278,94.3696,253.50140000000002,175,75
2026-05-07 18:24:13.133,2,-0.13,-0.71,0.94,-216.18779999999998,159.1896,254.2314,175,75
2026-05-07 18:24:13.145,2,-0.15,-0.81,1.03,-221.5578,170.5896,251.6714,175,75
2026-05-07 18:24:13.150,2,-0.11,-0.91,1.11,-229.1178,166.5596,250.5114,175,75
2026-05-07 18:24:13.203,2,-0.1,-1.24,0.97,-236.06779999999998,138.3296,238.75140000000002,175,75
2026-05-07 18:24:13.227,2,-0.17,-1.2,0.94,-199.4878,195.8296,208.0114,175,75
2026-05-07 18:24:13.242,2,-0.19,-1.15,0.99,-177.3478,223.2096,191.19140000000002,175,75
2026-05-07 18:24:13.276,2,-0.25,-0.99,1.14,-139.2378,247.9096,155.8214,175,75
2026-05-07 18:24:13.276,2,-0.24,-0.94,1.15,-129.1178,243.2096,150.5114,175,75
2026-05-07 18:24:13.289,2,-0.21,-0.91,1.19,-115.8278,230.4096,140.7014,175,75
2026-05-07 18:24:13.294,2,-0.24,-0.87,1.26,-107.2878,219.0596,131.4314,175,75
2026-05-07 18:24:13.353,2,-0.05,-0.52,1.26,-94.7878,130.8296,116.3714,175,75
2026-05-07 18:24:13.353,2,-0.04,-0.45,1.21,-90.4578,116.6196,118.2014,175,75
2026-05-07 18:24:13.368,2,-0.04,-0.39,1.15,-85.1578,111.1396,115.2714,175,75
2026-05-07 18:24:13.371,2,-0.04,-0.36,1.11,-80.3378,117.1696,105.51140000000001,175,75
2026-05-07 18:24:13.404,2,0.01,-0.25,1.25,-75.5178,137.9096,71.5514,175,75
2026-05-07 18:24:13.419,2,0.12,-0.13,1.31,-75.7678,107.2296,66.4914,175,75
2026-05-07 18:24:13.431,2,0.14,-0.07,1.29,-75.7678,84.6696,67.6514,175,75
2026-05-07 18:24:13.454,2,0.08,0.04,1.18,-63.4478,67.1696,53.20139999999999,175,75
2026-05-07 18:24:13.465,2,0.11,0.08,1.17,-53.3278,70.7696,43.5014,175,75
2026-05-07 18:24:13.478,2,0.18,0.14,1.2,-40.827799999999996,69.5496,36.0014,175,75
2026-05-07 18:24:13.504,2,0.24,0.19,1.21,-12.6578,49.4296,25.271399999999996,175,75
2026-05-07 18:24:13.515,2,0.24,0.19,1.18,-1.0678,38.9996,22.471399999999996,175,75
2026-05-07 18:24:13.519,2,0.2,0.16,1.12,14.1722,29.0596,18.751399999999997,175,75
2026-05-07 18:24:13.543,2,0.15,0.07,1.05,40.2722,30.709600000000002,5.151399999999999,175,75
2026-05-07 18:24:13.562,2,0.16,0.03,1.04,51.5522,30.4096,-0.9486000000000026,175,75
2026-05-07 18:24:13.567,2,0.18,-0.01,1.04,64.8422,24.489600000000003,-8.2686,175,75
2026-05-07 18:24:13.578,2,0.21,-0.05,0.99,78.2022,14.1896,-14.788600000000002,175,75
2026-05-07 18:24:13.624,2,0.18,-0.18,0.96,111.0622,12.5396,-49.11860000000001,175,75
2026-05-07 18:24:13.647,2,0.2,-0.17,0.97,122.71220000000001,-2.160399999999999,-55.08860000000001,175,75
2026-05-07 18:24:13.672,2,0.18,-0.17,1.0,135.8222,-29.7804,-63.808600000000006,175,75
2026-05-07 18:24:13.683,2,0.19,-0.19,1.0,138.4422,-50.6304,-65.6386,175,75
2026-05-07 18:24:13.694,2,0.18,-0.19,1.02,138.3222,-74.7804,-65.51859999999999,175,75
2026-05-07 18:24:13.704,2,0.16,-0.22,1.0,138.3222,-96.0604,-67.3486,175,75
2026-05-07 18:24:13.706,2,0.13,-0.25,1.04,138.2022,-119.41040000000001,-71.18860000000001,175,75
2026-05-07 18:24:13.741,2,0.14,-0.36,1.19,127.52220000000001,-245.1404,-73.8786,175,75
2026-05-07 18:24:13.769,2,-0.02,-0.53,0.99,103.01219999999999,-391.1804,-77.1686,175,75
2026-05-07 18:24:13.794,2,-0.11,-0.52,0.86,95.51219999999999,-400.8804,-91.67859999999999,175,75
2026-05-07 18:24:13.808,2,-0.16,-0.48,0.77,93.1322,-394.9604,-105.33859999999999,175,75
2026-05-07 18:24:13.808,2,-0.19,-0.42,0.7,91.4922,-368.1304,-115.02859999999998,175,75
2026-05-07 18:24:13.819,2,-0.19,-0.37,0.63,91.0622,-328.6804,-123.4486,175,75
2026-05-07 18:24:13.833,2,-0.18,-0.34,0.61,91.7322,-287.6404,-129.8486,175,75
2026-05-07 18:24:13.848,2,-0.13,-0.31,0.61,88.6822,-234.7204,-134.4186,175,75
2026-05-07 18:24:13.866,2,0.02,-0.27,0.6,77.3422,-159.9604,-135.9486,175,75
2026-05-07 18:24:13.900,2,0.0,-0.32,0.59,63.682199999999995,-64.2904,-141.24859999999998,175,75
2026-05-07 18:24:13.900,2,0.0,-0.31,0.64,55.0222,-20.330399999999997,-144.05859999999998,175,75
2026-05-07 18:24:13.911,2,0.02,-0.24,0.68,46.7322,17.6596,-142.7186,175,75
2026-05-07 18:24:13.922,2,0.04,-0.2,0.7,41.3722,37.839600000000004,-138.1386,175,75
2026-05-07 18:24:13.931,2,0.03,-0.19,0.69,35.3922,54.3696,-133.1386,175,75
2026-05-07 18:24:13.968,2,-0.05,-0.13,0.66,19.7222,129.0596,-126.49859999999998,175,75
2026-05-07 18:24:13.980,2,-0.09,-0.11,0.71,19.6022,156.4396,-129.4186,175,75
2026-05-07 18:24:13.994,2,-0.09,-0.09,0.83,20.2122,169.7296,-131.8586,175,75
2026-05-07 18:24:14.013,2,-0.02,-0.06,1.04,18.5622,124.4896,-122.52859999999998,175,75
2026-05-07 18:24:14.045,2,-0.04,0.01,1.06,7.952200000000001,30.4096,-99.3586,175,75
2026-05-07 18:24:14.045,2,-0.07,0.03,0.99,3.6221999999999994,-10.5104,-86.3786,175,75
2026-05-07 18:24:14.074,2,-0.09,0.05,0.85,2.4022000000000006,-36.6104,-69.6686,175,75
2026-05-07 18:24:14.082,2,-0.09,0.05,0.8,5.212199999999999,-32.6404,-64.17859999999999,175,75
2026-05-07 18:24:14.142,2,-0.03,0.14,0.8,21.2422,9.249600000000001,-38.6886,175,75
2026-05-07 18:24:14.156,2,-0.05,0.17,0.8,23.502200000000002,12.5396,-32.2886,175,75
2026-05-07 18:24:14.156,2,-0.06,0.2,0.79,24.1122,13.6996,-26.988600000000005,175,75
2026-05-07 18:24:14.193,2,-0.08,0.25,0.79,20.1522,12.2996,-13.508600000000001,175,75
2026-05-07 18:24:14.208,2,-0.07,0.28,0.79,8.8122,-1.1803999999999988,6.5513999999999974,175,75
2026-05-07 18:24:14.229,2,-0.05,0.29,0.75,-3.4478,-7.090399999999999,22.161399999999997,175,75
2026-05-07 18:24:14.251,2,-0.02,0.29,0.74,-20.1578,0.7696000000000005,38.3814,175,75
2026-05-07 18:24:14.259,2,0.0,0.28,0.74,-25.2178,8.0896,44.111399999999996,175,75
2026-05-07 18:24:14.273,2,0.02,0.27,0.76,-30.2178,15.159600000000001,49.6614,175,75
2026-05-07 18:24:14.286,2,0.04,0.25,0.78,-38.567800000000005,25.3396,56.1914,175,75
2026-05-07 18:24:14.294,2,0.05,0.25,0.78,-43.6278,31.1396,61.0014,175,75
2026-05-07 18:24:14.309,2,0.05,0.23,0.8,-51.0078,39.1896,68.0114,175,75
2026-05-07 18:24:14.347,2,0.03,0.12,0.84,-80.3378,48.7596,94.48140000000001,175,75
2026-05-07 18:24:14.359,2,0.04,0.1,0.86,-87.2878,47.7796,100.51140000000001,175,75
2026-05-07 18:24:14.359,2,0.05,0.07,0.86,-93.2678,45.7096,106.98140000000001,175,75
2026-05-07 18:24:14.373,2,0.06,0.03,0.87,-100.0978,42.7796,114.66139999999999,175,75
2026-05-07 18:24:14.393,2,0.07,-0.02,0.87,-107.3478,38.9396,123.2014,175,75
2026-05-07 18:24:14.403,2,0.07,-0.05,0.87,-112.3478,37.599599999999995,128.5014,175,75
2026-05-07 18:24:14.419,2,0.07,-0.13,0.88,-121.6778,43.089600000000004,137.7714,175,75
2026-05-07 18:24:14.430,2,0.09,-0.17,0.9,-124.9778,44.0596,142.3414,175,75
2026-05-07 18:24:14.437,2,0.1,-0.21,0.91,-127.4778,42.6596,147.2214,175,75
2026-05-07 18:24:14.453,2,0.11,-0.25,0.9,-130.0378,41.869600000000005,151.6714,175,75
2026-05-07 18:24:14.463,2,0.11,-0.3,0.88,-132.1078,42.9096,155.2714,175,75
2026-05-07 18:24:14.491,2,0.09,-0.43,0.85,-133.3878,61.1396,154.91140000000001,175,75
2026-05-07 18:24:14.514,2,0.1,-0.44,0.81,-129.4278,74.4296,148.9914,175,75
2026-05-07 18:24:14.524,2,0.11,-0.43,0.82,-125.7678,87.7196,143.0114,175,75
2026-05-07 18:24:14.534,2,0.13,-0.4,0.82,-121.4978,101.4396,136.8014,175,75
2026-05-07 18:24:14.545,2,0.17,-0.4,0.86,-118.2078,108.6996,130.7614,175,75
2026-05-07 18:24:14.562,2,0.2,-0.44,0.89,-114.6078,101.8096,119.3014,175,75
2026-05-07 18:24:14.585,2,0.22,-0.45,0.89,-111.0678,93.5096,110.3914,175,75
2026-05-07 18:24:14.595,2,0.21,-0.44,0.88,-104.0578,91.7496,95.94139999999999,175,75
2026-05-07 18:24:14.608,2,0.21,-0.42,0.88,-97.5378,96.3796,86.9214,175,75
2026-05-07 18:24:14.619,2,0.22,-0.4,0.88,-91.3178,99.9196,79.5414,175,75
2026-05-07 18:24:14.632,2,0.22,-0.38,0.92,-81.2578,103.6996,67.47139999999999,175,75
2026-05-07 18:24:14.671,2,0.26,-0.15,0.96,-40.5178,90.7696,23.8114,175,75
2026-05-07 18:24:14.693,2,0.23,-0.09,0.93,-29.0578,86.4996,15.451399999999998,175,75
2026-05-07 18:24:14.714,2,0.17,-0.03,0.92,-13.6278,89.6096,3.3813999999999957,175,75
2026-05-07 18:24:14.731,2,0.14,-0.01,0.94,-3.9978000000000007,93.0896,-5.9486000000000026,175,75
2026-05-07 18:24:14.738,2,0.12,0.01,0.96,4.482199999999999,94.3096,-14.788600000000002,175,75
2026-05-07 18:24:14.752,2,0.11,0.03,0.97,10.022199999999998,92.8396,-20.698600000000006,175,75
2026-05-07 18:24:14.775,2,0.08,0.05,1.0,14.482199999999999,88.8796,-26.128600000000006,175,75
2026-05-07 18:24:14.775,2,0.06,0.07,1.02,17.5922,83.9396,-29.058600000000006,175,75
2026-05-07 18:24:14.786,2,0.04,0.08,1.04,20.0922,78.0896,-30.5786,175,75
2026-05-07 18:24:14.811,2,-0.02,0.06,1.04,23.0122,59.4296,-30.948600000000006,175,75
2026-05-07 18:24:14.840,2,-0.03,0.05,1.05,22.522199999999998,53.8796,-31.858600000000003,175,75
2026-05-07 18:24:14.840,2,-0.03,0.04,1.05,22.712200000000003,48.6396,-33.0186,175,75
2026-05-07 18:24:14.841,2,-0.02,0.03,1.06,24.5422,43.1496,-35.458600000000004,175,75
2026-05-07 18:24:14.852,2,-0.01,0.02,1.07,27.3422,38.6396,-36.7986,175,75
2026-05-07 18:24:14.863,2,-0.01,0.02,1.04,31.7922,30.279600000000002,-37.778600000000004,175,75
2026-05-07 18:24:14.869,2,-0.01,0.01,1.04,37.3422,20.2196,-38.2686,175,75
2026-05-07 18:24:14.903,2,-0.02,-0.01,1.01,51.2422,4.7296000000000005,-41.1886,175,75
2026-05-07 18:24:14.917,2,-0.03,-0.01,1.0,57.102199999999996,0.03960000000000008,-41.4386,175,75
2026-05-07 18:24:14.946,2,-0.04,-0.07,0.96,75.8222,-17.1604,-41.1286,175,75
2026-05-07 18:24:14.961,2,-0.05,-0.09,0.93,80.76219999999999,-21.0604,-41.1886,175,75
2026-05-07 18:24:14.982,2,-0.09,-0.14,0.89,92.5222,-23.440399999999997,-43.50860000000001,175,75
2026-05-07 18:24:14.988,2,-0.1,-0.16,0.87,100.2122,-20.690399999999997,-46.308600000000006,175,75
2026-05-07 18:24:15.039,2,-0.12,-0.13,0.9,113.9322,-20.8804,-50.5786,175,75
2026-05-07 18:24:15.057,2,-0.15,-0.11,0.92,116.7322,-30.8804,-46.678599999999996,175,75
2026-05-07 18:24:15.082,2,-0.15,-0.1,0.84,111.2422,-31.730400000000003,-40.638600000000004,175,75
2026-05-07 18:24:15.104,2,-0.12,-0.06,0.81,104.1122,-21.4204,-38.0186,175,75
2026-05-07 18:24:15.111,2,-0.1,-0.04,0.81,100.1522,-13.860399999999998,-35.638600000000004,175,75
2026-05-07 18:24:15.128,2,-0.08,-0.02,0.8,95.2722,-8.4404,-32.8986,175,75
2026-05-07 18:24:15.145,2,-0.07,-0.0,0.8,87.7122,-4.720399999999998,-29.7286,175,75
2026-05-07 18:24:15.155,2,-0.07,0.01,0.8,80.7022,0.4695999999999998,-27.468600000000002,175,75
2026-05-07 18:24:15.162,2,-0.06,0.02,0.8,71.8522,9.6096,-24.418600000000005,175,75
2026-05-07 18:24:15.176,2,-0.04,0.04,0.81,64.2922,16.6196,-20.028600000000004,175,75
2026-05-07 18:24:15.186,2,-0.01,0.03,0.82,57.592200000000005,20.0396,-16.128600000000006,175,75
2026-05-07 18:24:15.216,2,-0.01,0.02,0.81,42.5922,18.4496,-9.788600000000002,175,75
2026-05-07 18:24:15.241,2,-0.05,0.02,0.75,19.4822,22.599600000000002,-1.3786000000000023,175,75
2026-05-07 18:24:15.285,2,-0.05,-0.02,0.82,-4.4878,42.1696,9.481399999999997,175,75
2026-05-07 18:24:15.343,2,0.01,-0.03,0.84,-43.3878,26.6896,26.0614,175,75
2026-05-07 18:24:15.384,2,0.01,-0.07,0.86,-58.9378,33.5796,28.751399999999997,175,75
2026-05-07 18:24:15.435,2,-0.02,-0.07,0.91,-78.7578,43.6396,31.551399999999997,175,75
2026-05-07 18:24:15.452,2,-0.04,-0.06,0.92,-84.1178,45.6496,33.7514,175,75
2026-05-07 18:24:15.452,2,-0.05,-0.06,0.93,-87.5378,47.0496,34.971399999999996,175,75
2026-05-07 18:24:15.464,2,-0.05,-0.05,0.95,-93.0878,49.9196,37.8914,175,75
2026-05-07 18:24:15.477,2,-0.05,-0.05,0.95,-96.0678,51.4396,39.481399999999994,175,75
2026-05-07 18:24:15.487,2,-0.05,-0.05,0.97,-98.2078,52.4196,40.7014,175,75
2026-05-07 18:24:15.530,2,-0.05,-0.04,1.03,-108.9378,46.8696,43.7514,175,75
2026-05-07 18:24:15.538,2,-0.05,-0.03,1.05,-113.5078,41.0796,46.371399999999994,175,75
2026-05-07 18:24:15.559,2,-0.07,-0.04,1.07,-118.1478,34.729600000000005,50.8814,175,75
2026-05-07 18:24:15.607,2,-0.08,-0.07,1.08,-121.8678,31.1996,54.231399999999994,175,75
2026-05-07 18:24:15.618,2,-0.07,-0.11,1.18,-121.3778,16.8096,50.0314,175,75
2026-05-07 18:24:15.618,2,-0.03,-0.11,1.21,-121.9278,-2.0304,49.84139999999999,175,75
2026-05-07 18:24:15.668,2,-0.07,-0.11,1.16,-99.0578,-56.0004,48.3814,175,75
2026-05-07 18:24:15.682,2,-0.07,-0.11,1.14,-87.3478,-54.8404,42.59139999999999,175,75
2026-05-07 18:24:15.685,2,-0.08,-0.1,1.13,-75.3978,-52.5804,38.011399999999995,175,75
2026-05-07 18:24:15.702,2,-0.08,-0.1,1.13,-61.9878,-52.0304,33.621399999999994,175,75
2026-05-07 18:24:15.712,2,-0.09,-0.1,1.13,-49.2378,-53.800399999999996,29.051399999999997,175,75
2026-05-07 18:24:15.724,2,-0.09,-0.09,1.12,-37.4778,-56.490399999999994,24.911399999999997,175,75
2026-05-07 18:24:15.735,2,-0.1,-0.09,1.11,-26.3778,-58.4404,20.941399999999998,175,75
2026-05-07 18:24:15.742,2,-0.12,-0.09,1.09,-15.1578,-59.5904,16.9214,175,75
2026-05-07 18:24:15.754,2,-0.14,-0.07,1.07,-2.5978000000000003,-58.5004,12.951399999999998,175,75
2026-05-07 18:24:15.764,2,-0.16,-0.07,1.04,10.702200000000001,-55.880399999999995,9.661399999999997,175,75
2026-05-07 18:24:15.775,2,-0.16,-0.07,1.03,19.4822,-53.130399999999995,7.891399999999997,175,75
2026-05-07 18:24:15.786,2,-0.17,-0.08,1.01,29.2322,-49.5304,5.211399999999998,175,75
2026-05-07 18:24:15.816,2,-0.15,-0.1,1.02,45.2722,-39.4104,-0.8286000000000016,175,75
2026-05-07 18:24:15.816,2,-0.14,-0.11,1.02,52.4022,-37.4004,-3.9986000000000033,175,75
2026-05-07 18:24:15.877,2,-0.1,-0.15,1.05,87.2822,-37.2204,-21.498600000000003,175,75
2026-05-07 18:24:15.889,2,-0.12,-0.15,1.05,92.9522,-34.050399999999996,-24.9086,175,75
2026-05-07 18:24:15.904,2,-0.12,-0.16,1.05,98.8722,-31.2404,-28.3286,175,75
2026-05-07 18:24:15.914,2,-0.11,-0.16,1.06,102.4622,-30.5704,-30.3386,175,75
2026-05-07 18:24:15.924,2,-0.1,-0.17,1.07,106.8522,-33.3104,-33.0786,175,75
2026-05-07 18:24:15.983,2,-0.11,-0.22,1.05,116.3722,-54.290400000000005,-40.888600000000004,175,75
2026-05-07 18:24:16.045,2,-0.13,-0.24,1.01,111.4922,-58.5004,-47.7186,175,75
2026-05-07 18:24:16.045,2,-0.14,-0.25,1.02,109.4122,-57.8304,-48.6886,175,75
2026-05-07 18:24:16.090,2,-0.16,-0.22,0.97,96.6722,-43.0704,-51.068599999999996,175,75
2026-05-07 18:24:16.102,2,-0.16,-0.2,0.97,94.0522,-39.2304,-51.068599999999996,175,75
2026-05-07 18:24:16.117,2,-0.16,-0.19,0.97,91.1222,-35.2004,-50.638600000000004,175,75
2026-05-07 18:24:16.153,2,-0.16,-0.16,0.98,85.9422,-28.2504,-49.668600000000005,175,75
2026-05-07 18:24:16.153,2,-0.16,-0.14,0.97,83.0722,-24.410400000000003,-48.198600000000006,175,75
2026-05-07 18:24:16.164,2,-0.16,-0.11,0.97,80.2122,-19.6604,-46.918600000000005,175,75
2026-05-07 18:24:16.182,2,-0.17,-0.08,0.97,75.9422,-12.2804,-43.448600000000006,175,75
2026-05-07 18:24:16.192,2,-0.16,-0.07,0.96,74.4122,-10.080400000000001,-42.1086,175,75
2026-05-07 18:24:16.211,2,-0.17,-0.03,0.98,70.8222,-7.2804,-37.7186,175,75
2026-05-07 18:24:16.220,2,-0.16,-0.01,0.98,68.26219999999999,-6.790399999999998,-34.668600000000005,175,75
2026-05-07 18:24:16.258,2,-0.16,0.01,0.98,66.3122,-7.220399999999998,-32.348600000000005,175,75
2026-05-07 18:24:16.295,2,-0.16,0.05,0.99,55.3322,-11.4204,-19.848600000000005,175,75
2026-05-07 18:24:16.295,2,-0.15,0.07,0.98,50.8222,-11.9104,-15.1586,175,75
2026-05-07 18:24:16.309,2,-0.15,0.07,0.98,46.0622,-12.1604,-11.188600000000001,175,75
2026-05-07 18:24:16.348,2,-0.15,0.09,0.97,30.452199999999998,-8.8004,-2.4086000000000034,175,75
2026-05-07 18:24:16.358,2,-0.15,0.1,0.97,25.272199999999998,-7.220399999999998,-0.2786000000000044,175,75
2026-05-07 18:24:16.388,2,-0.15,0.14,0.97,2.1022,3.8796,10.211399999999998,175,75
2026-05-07 18:24:16.416,2,-0.16,0.16,0.97,-16.797800000000002,13.1496,18.201399999999996,175,75
2026-05-07 18:24:16.428,2,-0.15,0.15,0.99,-26.317800000000002,17.0496,22.101399999999998,175,75
2026-05-07 18:24:16.428,2,-0.15,0.15,0.99,-33.4478,19.7296,24.841399999999997,175,75
2026-05-07 18:24:16.494,2,-0.15,0.11,1.02,-77.6578,28.4496,41.371399999999994,175,75
2026-05-07 18:24:16.520,2,-0.15,0.06,1.03,-92.9578,28.9996,46.8014,175,75
2026-05-07 18:24:16.520,2,-0.15,0.03,1.04,-101.7978,29.3096,50.0314,175,75
2026-05-07 18:24:16.543,2,-0.14,-0.0,1.05,-110.2178,29.369600000000002,52.34139999999999,175,75
2026-05-07 18:24:16.605,2,-0.14,-0.14,1.03,-134.1778,36.4396,59.111399999999996,175,75
2026-05-07 18:24:16.629,2,-0.14,-0.2,1.04,-135.2778,42.4196,59.301399999999994,175,75
2026-05-07 18:24:16.642,2,-0.14,-0.22,1.05,-133.87779999999998,45.3396,58.3214,175,75
2026-05-07 18:24:16.652,2,-0.13,-0.23,1.05,-131.2578,48.2696,57.041399999999996,175,75
2026-05-07 18:24:16.677,2,-0.13,-0.25,1.05,-123.5678,52.1096,53.6914,175,75
2026-05-07 18:24:16.698,2,-0.13,-0.26,1.06,-117.8978,53.0896,51.0014,175,75
2026-05-07 18:24:16.698,2,-0.12,-0.27,1.06,-113.7578,52.5996,49.231399999999994,175,75
2026-05-07 18:24:16.718,2,-0.13,-0.27,1.08,-109.1778,53.0896,47.4114,175,75
2026-05-07 18:24:16.733,2,-0.13,-0.27,1.06,-96.7978,53.9396,41.9214,175,75
2026-05-07 18:24:16.733,2,-0.12,-0.26,1.07,-91.0678,54.4296,39.111399999999996,175,75
2026-05-07 18:24:16.787,2,-0.16,-0.19,1.08,-62.4778,61.8096,28.931399999999996,175,75
2026-05-07 18:24:16.803,2,-0.16,-0.14,1.1,-49.9778,61.3796,24.721399999999996,175,75
2026-05-07 18:24:16.817,2,-0.15,-0.11,1.11,-42.4778,56.9296,23.501399999999997,175,75
2026-05-07 18:24:16.829,2,-0.15,-0.1,1.1,-37.7778,55.2796,22.651399999999995,175,75
2026-05-07 18:24:16.854,2,-0.13,-0.07,1.12,-28.6278,56.4996,18.441399999999998,175,75
2026-05-07 18:24:16.869,2,-0.13,-0.04,1.13,-25.5878,56.199600000000004,16.861399999999996,175,75
2026-05-07 18:24:16.886,2,-0.12,-0.01,1.15,-18.6278,51.0096,13.931399999999996,175,75
2026-05-07 18:24:16.929,2,-0.11,0.02,1.17,-9.7278,34.8596,9.911399999999997,175,75
2026-05-07 18:24:16.929,2,-0.11,0.02,1.17,-7.1078,27.299599999999998,8.751399999999997,175,75
2026-05-07 18:24:16.952,2,-0.11,0.02,1.17,-4.7278,19.979599999999998,7.771399999999996,175,75
2026-05-07 18:24:16.953,2,-0.11,0.01,1.17,-2.5378000000000007,12.4196,6.4313999999999965,175,75
2026-05-07 18:24:16.964,2,-0.11,0.01,1.16,1.4922000000000004,3.0296000000000003,4.361399999999996,175,75
2026-05-07 18:24:17.015,2,-0.11,-0.04,1.11,23.9322,-21.790399999999998,-5.218600000000002,175,75
2026-05-07 18:24:17.056,2,-0.11,-0.07,1.08,40.7022,-30.5704,-11.988600000000005,175,75
2026-05-07 18:24:17.066,2,-0.11,-0.08,1.07,46.2422,-32.7704,-14.238600000000005,175,75
2026-05-07 18:24:17.083,2,-0.11,-0.09,1.06,51.7922,-33.4404,-16.858600000000003,175,75
2026-05-07 18:24:17.104,2,-0.11,-0.11,1.04,61.2422,-32.7004,-21.0086,175,75
2026-05-07 18:24:17.114,2,-0.11,-0.12,1.05,66.6122,-31.790399999999998,-23.5086,175,75
2026-05-07 18:24:17.134,2,-0.12,-0.13,1.04,74.0522,-32.2804,-27.528600000000004,175,75
2026-05-07 18:24:17.191,2,-0.13,-0.15,1.03,81.5522,-34.2904,-31.858600000000003,175,75
2026-05-07 18:24:17.217,2,-0.15,-0.15,1.02,87.1622,-32.5204,-38.0786,175,75
2026-05-07 18:24:17.239,2,-0.15,-0.15,1.02,86.9122,-32.8904,-38.808600000000006,175,75
2026-05-07 18:24:17.261,2,-0.15,-0.14,1.02,86.9122,-33.0104,-39.2986,175,75
2026-05-07 18:24:17.262,2,-0.15,-0.12,1.02,84.5422,-35.1404,-39.5486,175,75
2026-05-07 18:24:17.273,2,-0.16,-0.12,1.02,81.6122,-36.7304,-39.72860000000001,175,75
2026-05-07 18:24:17.305,2,-0.16,-0.1,1.01,79.4122,-36.3604,-40.08860000000001,175,75
2026-05-07 18:24:17.305,2,-0.17,-0.09,1.02,75.76219999999999,-35.7504,-39.3586,175,75
2026-05-07 18:24:17.352,2,-0.18,-0.09,1.01,67.4022,-34.9004,-35.698600000000006,175,75
2026-05-07 18:24:17.375,2,-0.18,-0.09,1.0,60.3922,-33.6204,-32.1086,175,75
2026-05-07 18:24:17.405,2,-0.18,-0.05,1.0,52.3422,-28.5604,-28.9386,175,75
2026-05-07 18:24:17.416,2,-0.17,-0.03,1.0,49.9622,-26.550399999999996,-27.718600000000002,175,75
2026-05-07 18:24:17.445,2,-0.18,0.02,0.98,43.0122,-19.2304,-22.528600000000004,175,75
2026-05-07 18:24:17.468,2,-0.19,0.04,0.99,37.3422,-13.4404,-19.238600000000005,175,75
2026-05-07 18:24:17.468,2,-0.18,0.04,0.98,33.8722,-10.9404,-17.168600000000005,175,75
2026-05-07 18:24:17.480,2,-0.18,0.04,0.98,30.702199999999998,-8.740400000000001,-14.848600000000005,175,75
2026-05-07 18:24:17.496,2,-0.18,0.06,0.99,28.132199999999997,-7.220399999999998,-13.688600000000001,175,75
2026-05-07 18:24:17.608,2,-0.18,0.07,1.0,-12.777800000000001,14.5496,7.951399999999996,175,75
2026-05-07 18:24:17.633,2,-0.18,0.07,1.01,-21.617800000000003,19.6096,12.471399999999997,175,75
2026-05-07 18:24:17.669,2,-0.16,0.06,1.02,-31.6778,21.5596,17.8314,175,75
2026-05-07 18:24:17.679,2,-0.16,0.06,1.04,-37.4778,22.049599999999998,21.251399999999997,175,75
2026-05-07 18:24:17.701,2,-0.16,0.05,1.04,-51.1878,20.9496,30.3314,175,75
2026-05-07 18:24:17.715,2,-0.16,0.05,1.05,-55.8878,20.0396,33.2014,175,75
2026-05-07 18:24:17.754,2,-0.14,0.01,1.06,-68.4478,15.2796,41.371399999999994,175,75
2026-05-07 18:24:17.773,2,-0.13,0.01,1.06,-72.2878,13.0896,43.621399999999994,175,75
2026-05-07 18:24:17.773,2,-0.12,-0.0,1.06,-75.4578,11.5596,45.6414,175,75
2026-05-07 18:24:17.785,2,-0.12,-0.02,1.06,-78.7578,10.5296,47.4114,175,75
2026-05-07 18:24:17.823,2,-0.1,-0.07,1.08,-87.0478,5.7096,51.5514,175,75
2026-05-07 18:24:17.840,2,-0.11,-0.13,1.07,-90.1578,4.3696,51.3114,175,75
2026-05-07 18:24:17.894,2,-0.1,-0.14,1.08,-87.8978,5.8296,47.4114,175,75
2026-05-07 18:24:17.897,2,-0.09,-0.14,1.08,-86.6178,6.1996,46.2514,175,75
2026-05-07 18:24:17.912,2,-0.08,-0.13,1.08,-83.6878,6.7496,44.6014,175,75
2026-05-07 18:24:17.924,2,-0.07,-0.12,1.07,-76.3178,8.819600000000001,40.7014,175,75
2026-05-07 18:24:17.934,2,-0.08,-0.11,1.07,-68.1478,12.4796,36.8014,175,75
2026-05-07 18:24:17.950,2,-0.08,-0.12,1.08,-62.1078,15.3396,34.0514,175,75
2026-05-07 18:24:17.988,2,-0.11,-0.13,1.08,-46.7378,18.6996,26.001399999999997,175,75
2026-05-07 18:24:17.999,2,-0.12,-0.12,1.1,-40.9478,18.9396,23.201399999999996,175,75
2026-05-07 18:24:18.030,2,-0.14,-0.11,1.09,-27.227800000000002,19.7296,17.771399999999996,175,75
2026-05-07 18:24:18.030,2,-0.14,-0.1,1.1,-21.677799999999998,20.099600000000002,15.331399999999997,175,75
2026-05-07 18:24:18.068,2,-0.13,-0.08,1.1,-11.0678,19.979599999999998,10.881399999999998,175,75
2026-05-07 18:24:18.087,2,-0.13,-0.06,1.1,-2.9578000000000007,20.4696,8.381399999999996,175,75
2026-05-07 18:24:18.107,2,-0.13,-0.05,1.1,1.4322,21.1396,6.8013999999999974,175,75
2026-05-07 18:24:18.126,2,-0.14,-0.04,1.1,11.8522,21.0796,1.8613999999999962,175,75
2026-05-07 18:24:18.183,2,-0.16,-0.01,1.1,25.022199999999998,6.6196,-4.608600000000003,175,75
2026-05-07 18:24:18.238,2,-0.19,-0.18,1.05,31.492199999999997,-14.110399999999998,-10.028600000000004,175,75
2026-05-07 18:24:18.238,2,-0.25,-0.18,0.97,31.242199999999997,-13.740400000000001,-13.138600000000004,175,75
2026-05-07 18:24:18.252,2,-0.33,-0.19,0.85,26.1822,-16.1804,-14.418600000000005,175,75
2026-05-07 18:24:18.286,2,-0.68,-0.16,0.37,-21.497799999999998,52.5396,-1.3786000000000023,175,75
2026-05-07 18:24:18.314,2,-0.38,-0.17,0.61,-10.277800000000001,287.5396,-4.788600000000002,175,75
2026-05-07 18:24:18.343,2,-0.39,-0.05,0.84,15.5122,285.5896,-4.488600000000002,175,75
2026-05-07 18:24:18.428,2,-0.32,0.09,1.15,-0.7678000000000011,33.5796,29.911399999999997,175,75
2026-05-07 18:24:18.439,2,-0.35,0.05,1.13,-1.9878,8.329600000000001,29.1714,175,75
2026-05-07 18:24:18.475,2,-0.36,0.01,1.07,0.6321999999999992,12.7796,26.6714,175,75
2026-05-07 18:24:18.506,2,-0.28,-0.09,1.09,0.7622,-5.080400000000001,23.0814,175,75
2026-05-07 18:24:18.518,2,-0.22,-0.13,1.03,-4.7278,-14.840399999999999,21.6714,175,75
2026-05-07 18:24:18.518,2,-0.27,-0.15,0.93,-4.6078,-8.8004,21.551399999999997,175,75
2026-05-07 18:24:18.553,2,-0.39,-0.21,0.83,18.2022,84.7296,14.911399999999997,175,75
2026-05-07 18:24:18.606,2,-0.29,-0.16,1.1,28.8722,104.7996,11.251399999999997,175,75
2026-05-07 18:24:18.625,2,-0.27,-0.12,1.11,24.5422,90.8896,10.451399999999998,175,75
2026-05-07 18:24:18.644,2,-0.16,-0.06,1.07,19.3522,62.7796,9.301399999999997,175,75
2026-05-07 18:24:18.644,2,-0.09,-0.04,1.05,15.3322,47.8396,6.8013999999999974,175,75
2026-05-07 18:24:18.702,2,-0.18,0.02,0.93,-15.517800000000001,-20.3904,-5.9486000000000026,175,75
2026-05-07 18:24:18.713,2,-0.25,0.0,0.97,-10.9478,-20.330399999999997,-6.918600000000005,175,75
2026-05-07 18:24:18.726,2,-0.24,-0.02,1.03,-9.3678,-24.720399999999998,-6.988600000000005,175,75
2026-05-07 18:24:18.726,2,-0.24,-0.02,1.07,-8.9378,-35.2004,-6.0686000000000035,175,75
2026-05-07 18:24:18.768,2,-0.34,-0.08,1.07,-9.7278,-79.5304,-2.588600000000003,175,75
2026-05-07 18:24:18.780,2,-0.4,-0.1,1.04,-10.9478,-86.2404,-3.5686000000000035,175,75
2026-05-07 18:24:18.800,2,-0.43,-0.1,0.99,-11.6178,-84.2904,-4.668600000000001,175,75
2026-05-07 18:24:18.800,2,-0.45,-0.1,0.96,-10.0978,-75.7504,-6.248600000000003,175,75
2026-05-07 18:24:18.800,2,-0.46,-0.08,0.94,-8.8178,-68.6204,-7.898600000000002,175,75
2026-05-07 18:24:18.817,2,-0.46,-0.06,0.92,-9.0578,-59.5304,-7.958600000000004,175,75
2026-05-07 18:24:18.835,2,-0.44,-0.04,0.9,-8.6278,-47.2204,-8.2686,175,75
2026-05-07 18:24:18.853,2,-0.41,-0.02,0.9,-6.7378,-32.8904,-8.078600000000002,175,75
2026-05-07 18:24:18.913,2,-0.42,-0.01,0.91,-3.3878000000000004,-4.1104,-3.018600000000003,175,75
2026-05-07 18:24:18.913,2,-0.42,-0.02,0.93,-3.0178000000000003,-1.9103999999999992,-1.2486000000000033,175,75
2026-05-07 18:24:18.925,2,-0.42,-0.03,0.95,-2.2278000000000002,-3.3103999999999996,-0.6386000000000038,175,75
2026-05-07 18:24:18.938,2,-0.37,-0.03,0.95,-3.6278000000000006,-18.0704,0.2713999999999963,175,75
2026-05-07 18:24:18.947,2,-0.37,-0.02,0.93,-5.9478,-23.440399999999997,0.941399999999998,175,75
2026-05-07 18:24:18.963,2,-0.37,-0.02,0.91,-6.867800000000001,-21.550399999999996,1.311399999999999,175,75
2026-05-07 18:24:18.975,2,-0.36,-0.03,0.89,-6.9278,-15.750399999999999,1.3713999999999977,175,75
2026-05-07 18:24:18.986,2,-0.34,-0.04,0.89,-6.9278,-9.5304,0.2713999999999963,175,75
2026-05-07 18:24:18.998,2,-0.32,-0.04,0.9,-7.0478000000000005,-4.1104,-0.6386000000000038,175,75
2026-05-07 18:24:19.001,2,-0.31,-0.04,0.92,-6.6778,-1.3604000000000003,-2.588600000000003,175,75
2026-05-07 18:24:19.017,2,-0.31,-0.05,0.91,-6.3178,2.1096000000000004,-3.0786000000000016,175,75
2026-05-07 18:24:19.032,2,-0.32,-0.05,0.9,-3.9978000000000007,11.499600000000001,-3.938600000000001,175,75
2026-05-07 18:24:19.066,2,-0.32,-0.06,0.94,-1.3778000000000006,20.709600000000002,-4.118600000000004,175,75
2026-05-07 18:24:19.082,2,-0.31,-0.06,0.95,-0.21780000000000044,22.779600000000002,-3.688600000000001,175,75
2026-05-07 18:24:19.094,2,-0.3,-0.07,0.97,2.1022,21.2596,-3.5086000000000013,175,75
2026-05-07 18:24:19.094,2,-0.29,-0.06,0.99,2.6522000000000006,18.3296,-3.5086000000000013,175,75
2026-05-07 18:24:19.125,2,-0.26,-0.05,0.99,2.7721999999999998,0.5896000000000008,-2.718600000000002,175,75
2026-05-07 18:24:19.135,2,-0.28,-0.05,0.97,1.6121999999999996,-2.2203999999999997,-2.1686000000000014,175,75
2026-05-07 18:24:19.177,2,-0.28,-0.06,1.01,3.5022,-12.2804,-2.718600000000002,175,75
2026-05-07 18:24:19.197,2,-0.28,-0.06,1.01,3.6822,-18.5004,-2.718600000000002,175,75
2026-05-07 18:24:19.207,2,-0.3,-0.06,0.99,4.292199999999999,-24.720399999999998,-2.2286000000000037,175,75
2026-05-07 18:24:19.218,2,-0.3,-0.06,0.97,4.6622,-27.090400000000002,-2.2886000000000024,175,75
2026-05-07 18:24:19.218,2,-0.3,-0.05,0.95,5.212199999999999,-27.8904,-2.588600000000003,175,75
2026-05-07 18:24:19.230,2,-0.31,-0.04,0.93,4.722199999999999,-27.160400000000003,-2.958600000000004,175,75
2026-05-07 18:24:19.258,2,-0.32,-0.03,0.93,3.812199999999999,-7.2804,-3.1986000000000026,175,75
2026-05-07 18:24:19.275,2,-0.31,-0.05,0.94,4.7822,-2.7704000000000004,-3.268600000000003,175,75
2026-05-07 18:24:19.285,2,-0.3,-0.04,0.97,5.0222,-2.8903999999999996,-3.9986000000000033,175,75
2026-05-07 18:24:19.299,2,-0.31,-0.03,0.97,4.902200000000001,-4.840399999999999,-3.6286000000000023,175,75
2026-05-07 18:24:19.323,2,-0.31,-0.04,0.94,4.6622,-6.5504,-2.588600000000003,175,75
2026-05-07 18:24:19.342,2,-0.31,-0.04,0.93,3.3222000000000005,-3.1304,-1.8586000000000027,175,75
2026-05-07 18:24:19.342,2,-0.32,-0.05,0.94,3.3222000000000005,0.6495999999999995,-1.9186000000000014,175,75
2026-05-07 18:24:19.360,2,-0.31,-0.05,0.96,3.4421999999999997,1.3196000000000012,-2.2886000000000024,175,75
2026-05-07 18:24:19.377,2,-0.3,-0.05,0.98,1.2422000000000004,-2.580399999999999,-2.5286000000000044,175,75
2026-05-07 18:24:19.434,2,-0.29,-0.04,0.96,-0.39780000000000015,-6.000399999999999,-1.438600000000001,175,75
2026-05-07 18:24:19.449,2,-0.28,-0.05,0.95,-0.03780000000000072,-8.0104,-1.2486000000000033,175,75
2026-05-07 18:24:19.456,2,-0.29,-0.04,0.93,-0.39780000000000015,-7.090399999999999,-1.0086000000000013,175,75
2026-05-07 18:24:19.484,2,-0.29,-0.05,0.94,0.6321999999999992,1.499600000000001,-0.21860000000000213,175,75
2026-05-07 18:24:19.519,2,-0.28,-0.04,0.96,1.6121999999999996,3.2696000000000005,0.0913999999999966,175,75
2026-05-07 18:24:19.529,2,-0.27,-0.05,0.97,0.2721999999999998,-7.220399999999998,-0.21860000000000213,175,75
2026-05-07 18:24:19.552,2,-0.29,-0.04,0.95,-0.15779999999999994,-2.7004,-0.0286000000000044,175,75
2026-05-07 18:24:19.576,2,-0.28,-0.05,0.99,0.7622,-0.33039999999999914,-0.21860000000000213,175,75
2026-05-07 18:24:19.606,2,-0.28,-0.04,1.01,1.5521999999999991,-5.570399999999999,0.2113999999999976,175,75
2026-05-07 18:24:19.606,2,-0.27,-0.05,1.0,2.1022,-8.990400000000001,0.2113999999999976,175,75
2026-05-07 18:24:19.639,2,-0.29,-0.05,1.0,1.6121999999999996,-8.6204,0.031399999999997874,175,75
2026-05-07 18:24:19.639,2,-0.29,-0.04,1.0,1.9122000000000003,-8.0704,-0.2786000000000044,175,75
2026-05-07 18:24:19.645,2,-0.28,-0.05,1.03,3.0122,-10.200399999999998,-0.5786000000000016,175,75
2026-05-07 18:24:19.679,2,-0.26,-0.04,1.04,2.7721999999999998,-29.7804,-0.5786000000000016,175,75
2026-05-07 18:24:19.698,2,-0.27,-0.04,1.05,1.6722000000000001,-35.1404,0.0913999999999966,175,75
2026-05-07 18:24:19.709,2,-0.29,-0.04,1.04,3.6822,-37.7004,1.0013999999999967,175,75
2026-05-07 18:24:19.725,2,-0.29,-0.03,1.08,5.632199999999999,-39.4704,2.161399999999997,175,75
2026-05-07 18:24:19.825,2,-0.27,-0.02,1.26,15.9422,-157.7704,14.911399999999997,175,75
2026-05-07 18:24:19.897,2,-0.33,-0.02,0.92,-1.0678,-185.2704,11.671399999999997,175,75
2026-05-07 18:24:19.897,2,-0.32,-0.02,0.9,-0.8878000000000004,-164.8404,9.421399999999997,175,75
2026-05-07 18:24:19.929,2,-0.24,0.03,0.86,-3.6278000000000006,-108.0104,6.311399999999999,175,75
2026-05-07 18:24:20.052,2,-0.18,-0.08,1.08,10.572199999999999,36.4996,-3.8786000000000023,175,75
2026-05-07 18:24:20.063,2,-0.2,-0.08,1.09,11.2422,33.5796,-5.278600000000004,175,75
2026-05-07 18:24:20.063,2,-0.22,-0.09,1.1,11.792200000000001,31.1396,-6.738600000000005,175,75
2026-05-07 18:24:20.082,2,-0.22,-0.1,1.11,11.612200000000001,25.709600000000002,-8.878600000000006,175,75
2026-05-07 18:24:20.125,2,-0.25,-0.1,1.08,13.7422,6.3796,-13.508600000000001,175,75
2026-05-07 18:24:20.135,2,-0.25,-0.09,1.06,14.112200000000001,4.7296000000000005,-13.568600000000004,175,75
2026-05-07 18:24:20.141,2,-0.26,-0.08,1.04,15.1522,4.549600000000001,-13.748600000000003,175,75
2026-05-07 18:24:20.152,2,-0.25,-0.07,1.02,16.7322,7.6596,-14.608600000000003,175,75
2026-05-07 18:24:20.168,2,-0.26,-0.07,1.01,18.0722,13.819600000000001,-15.458600000000004,175,75
2026-05-07 18:24:20.183,2,-0.25,-0.05,1.0,19.6022,20.709600000000002,-15.7686,175,75
2026-05-07 18:24:20.204,2,-0.25,-0.02,1.01,21.7922,29.4296,-15.888600000000004,175,75
2026-05-07 18:24:20.214,2,-0.24,-0.01,1.02,21.8522,31.869600000000002,-14.488600000000005,175,75
2026-05-07 18:24:20.243,2,-0.24,-0.01,1.04,19.8422,32.5396,-12.0486,175,75
2026-05-07 18:24:20.257,2,-0.24,-0.02,1.05,18.0722,31.869600000000002,-11.008600000000001,175,75
2026-05-07 18:24:20.261,2,-0.24,-0.02,1.06,15.572199999999999,30.4096,-10.1586,175,75
2026-05-07 18:24:20.274,2,-0.24,-0.02,1.06,12.4622,28.3296,-9.058600000000006,175,75
2026-05-07 18:24:20.287,2,-0.25,-0.02,1.07,8.9922,26.1996,-8.448600000000006,175,75
2026-05-07 18:24:20.294,2,-0.24,-0.02,1.08,5.2722,23.4496,-8.078600000000002,175,75
2026-05-07 18:24:20.306,2,-0.24,-0.02,1.08,1.1822,20.7696,-6.858600000000003,175,75
2026-05-07 18:24:20.324,2,-0.25,-0.03,1.08,-2.6578,18.029600000000002,-6.188600000000001,175,75
2026-05-07 18:24:20.324,2,-0.25,-0.02,1.09,-7.1078,14.729600000000001,-5.828600000000002,175,75
2026-05-07 18:24:20.342,2,-0.25,-0.02,1.09,-12.4078,11.319600000000001,-4.788600000000002,175,75
2026-05-07 18:24:20.355,2,-0.25,-0.02,1.09,-16.0078,8.999600000000001,-4.358600000000003,175,75
2026-05-07 18:24:20.359,2,-0.25,-0.02,1.09,-21.0678,5.2796,-3.5086000000000013,175,75
2026-05-07 18:24:20.385,2,-0.25,-0.02,1.09,-25.0378,1.8095999999999997,-3.0786000000000016,175,75
2026-05-07 18:24:20.385,2,-0.25,-0.02,1.09,-27.9578,-0.7503999999999991,-2.2286000000000037,175,75
2026-05-07 18:24:20.398,2,-0.25,-0.03,1.09,-30.2778,-3.9903999999999993,-1.7386000000000017,175,75
2026-05-07 18:24:20.400,2,-0.24,-0.04,1.08,-32.7778,-6.420400000000001,-0.4586000000000041,175,75
2026-05-07 18:24:20.425,2,-0.24,-0.06,1.08,-34.9778,-8.860399999999998,0.3913999999999973,175,75
2026-05-07 18:24:20.440,2,-0.26,-0.08,1.06,-36.9878,-9.0504,-0.6386000000000038,175,75
2026-05-07 18:24:20.477,2,-0.22,-0.03,1.05,-37.1678,-3.680399999999999,-0.9486000000000026,175,75
2026-05-07 18:24:20.480,2,-0.22,-0.03,1.06,-36.4978,-4.1104,-1.1286000000000023,175,75
2026-05-07 18:24:20.514,2,-0.21,-0.0,1.04,-31.8678,-1.2403999999999993,-5.088600000000003,175,75
2026-05-07 18:24:20.554,2,-0.2,-0.02,1.03,-26.1278,3.819600000000001,-6.308600000000002,175,75
2026-05-07 18:24:20.569,2,-0.19,-0.07,1.04,-24.6078,5.1596,-8.568600000000004,175,75
2026-05-07 18:24:20.594,2,-0.19,-0.12,1.03,-23.2678,6.6896,-11.008600000000001,175,75
2026-05-07 18:24:20.616,2,-0.18,-0.16,0.99,-23.3278,20.2196,-15.458600000000004,175,75
2026-05-07 18:24:20.630,2,-0.19,-0.17,0.98,-22.8978,27.6596,-16.738600000000005,175,75
2026-05-07 18:24:20.681,2,-0.11,-0.01,0.99,-14.9078,61.3196,-19.238600000000005,175,75
2026-05-07 18:24:20.681,2,-0.08,0.04,1.0,-13.6278,58.699600000000004,-16.678600000000003,175,75
2026-05-07 18:24:20.693,2,-0.05,0.08,1.0,-12.6578,55.2196,-14.7286,175,75
2026-05-07 18:24:20.706,2,-0.03,0.1,0.99,-11.1278,51.4396,-12.528600000000004,175,75
2026-05-07 18:24:20.717,2,-0.02,0.09,0.99,-8.9378,47.5996,-9.7286,175,75
2026-05-07 18:24:20.736,2,-0.05,0.08,1.01,-7.777800000000001,44.3096,-7.718600000000002,175,75
2026-05-07 18:24:20.741,2,-0.05,0.07,1.04,-7.1078,38.5796,-7.528600000000004,175,75
2026-05-07 18:24:20.772,2,-0.04,0.06,1.05,-6.9878,28.8796,-6.308600000000002,175,75
2026-05-07 18:24:20.783,2,-0.02,0.05,1.08,-7.7178,17.4196,-3.9986000000000033,175,75
2026-05-07 18:24:20.796,2,0.02,-0.0,1.06,-9.2978,-25.940399999999997,2.7113999999999976,175,75
2026-05-07 18:24:20.833,2,-0.03,-0.02,0.92,-4.9078,-41.0604,-0.3386000000000031,175,75
2026-05-07 18:24:20.853,2,-0.04,-0.02,0.91,-1.1278000000000006,-30.690399999999997,-2.4086000000000034,175,75
2026-05-07 18:24:20.872,2,-0.01,-0.03,0.94,1.9821999999999989,-16.970399999999998,-3.018600000000003,175,75
2026-05-07 18:24:20.882,2,0.01,-0.03,0.95,2.9521999999999995,-16.5504,-2.5286000000000044,175,75
2026-05-07 18:24:20.895,2,0.0,-0.03,0.94,4.7822,-16.8504,-2.1686000000000014,175,75
2026-05-07 18:24:20.907,2,0.0,-0.01,0.91,8.322199999999999,-16.4904,-3.3286000000000016,175,75
2026-05-07 18:24:20.917,2,0.01,-0.0,0.89,9.1722,-12.770399999999999,-4.548600000000004,175,75
2026-05-07 18:24:20.925,2,-0.0,-0.0,0.9,10.1522,-8.8004,-4.668600000000001,175,75
2026-05-07 18:24:20.942,2,-0.01,-0.01,0.9,11.4922,-3.250399999999999,-5.088600000000003,175,75
2026-05-07 18:24:20.954,2,-0.0,-0.01,0.91,12.342199999999998,0.4695999999999998,-5.638600000000004,175,75
2026-05-07 18:24:20.971,2,-0.01,-0.01,0.95,13.8722,1.079600000000001,-7.468600000000002,175,75
2026-05-07 18:24:20.994,2,-0.01,-0.0,0.95,15.1522,-1.7904,-6.988600000000005,175,75
2026-05-07 18:24:21.007,2,-0.02,-0.02,0.96,15.7622,-4.720399999999998,-6.858600000000003,175,75
2026-05-07 18:24:21.010,2,-0.03,-0.03,0.95,14.9622,-6.790399999999998,-6.858600000000003,175,75
2026-05-07 18:24:21.033,2,-0.03,-0.02,0.93,14.292200000000001,-5.450399999999998,-6.7986,175,75
2026-05-07 18:24:21.068,2,-0.02,-0.02,0.95,16.182199999999998,1.8095999999999997,-7.288600000000002,175,75
2026-05-07 18:24:21.074,2,-0.01,-0.01,0.95,16.7322,-0.020400000000000418,-6.678600000000003,175,75
2026-05-07 18:24:21.099,2,0.0,0.0,0.97,19.2322,-7.8904,-4.488600000000002,175,75
2026-05-07 18:24:21.099,2,0.01,0.0,0.96,20.0922,-11.790399999999998,-3.5686000000000035,175,75
2026-05-07 18:24:21.145,2,-0.01,-0.05,0.93,24.2922,-20.450400000000002,-3.138600000000004,175,75
2026-05-07 18:24:21.175,2,-0.01,-0.05,0.93,26.5522,-17.0904,-4.608600000000003,175,75
2026-05-07 18:24:21.204,2,-0.0,-0.06,0.96,29.172199999999997,-21.3604,-4.418600000000001,175,75
2026-05-07 18:24:21.214,2,-0.01,-0.05,0.95,29.782200000000003,-20.510399999999997,-4.668600000000001,175,75
2026-05-07 18:24:21.239,2,-0.0,-0.05,0.96,31.492199999999997,-21.0004,-3.9986000000000033,175,75
2026-05-07 18:24:21.260,2,0.01,-0.05,0.96,31.4322,-22.4604,-2.588600000000003,175,75
2026-05-07 18:24:21.260,2,0.01,-0.05,0.97,31.1222,-24.230400000000003,-1.4986000000000033,175,75
2026-05-07 18:24:21.282,2,0.02,-0.05,0.97,30.7622,-26.4204,-0.9486000000000026,175,75
2026-05-07 18:24:21.292,2,0.02,-0.03,0.97,29.7222,-27.340400000000002,-0.3386000000000031,175,75
2026-05-07 18:24:21.306,2,0.01,-0.02,0.96,29.0522,-26.790399999999998,-0.08860000000000312,175,75
2026-05-07 18:24:21.317,2,0.01,-0.01,0.96,27.712200000000003,-25.020400000000002,0.701399999999996,175,75
2026-05-07 18:24:21.328,2,-0.01,-0.01,0.97,25.822200000000002,-23.3804,0.821399999999997,175,75
2026-05-07 18:24:21.351,2,-0.02,-0.0,0.99,21.0022,-22.700400000000002,1.4913999999999987,175,75
2026-05-07 18:24:21.363,2,-0.02,-0.01,1.0,17.2822,-24.900399999999998,1.7313999999999972,175,75
2026-05-07 18:24:21.382,2,-0.02,-0.01,1.02,11.732199999999999,-29.230400000000003,1.8613999999999962,175,75
2026-05-07 18:24:21.404,2,-0.01,-0.02,1.03,3.0122,-35.1404,2.281399999999998,175,75
2026-05-07 18:24:21.415,2,-0.02,-0.02,1.03,0.9421999999999997,-38.0704,1.4913999999999987,175,75
2026-05-07 18:24:21.426,2,-0.03,-0.03,1.05,-2.4078,-39.3504,1.311399999999999,175,75
2026-05-07 18:24:21.449,2,-0.07,-0.03,1.05,-9.0578,-38.5004,0.5813999999999986,175,75
2026-05-07 18:24:21.449,2,-0.08,-0.04,1.05,-13.1478,-39.2904,-0.08860000000000312,175,75
2026-05-07 18:24:21.467,2,-0.1,-0.03,1.05,-18.1478,-38.0104,-0.9486000000000026,175,75
2026-05-07 18:24:21.480,2,-0.1,-0.03,1.04,-21.437800000000003,-36.3604,-2.588600000000003,175,75
2026-05-07 18:24:21.490,2,-0.11,-0.03,1.04,-24.367800000000003,-33.2504,-3.1986000000000026,175,75
2026-05-07 18:24:21.517,2,-0.1,-0.02,1.05,-29.4878,-22.700400000000002,-6.7986,175,75
2026-05-07 18:24:21.547,2,-0.11,0.0,1.05,-32.047799999999995,-16.2404,-8.508600000000001,175,75
2026-05-07 18:24:21.547,2,-0.11,0.03,1.04,-32.5978,-9.590399999999999,-8.688600000000001,175,75
2026-05-07 18:24:21.558,2,-0.12,0.05,1.04,-32.287800000000004,-1.6104000000000003,-7.5886,175,75
2026-05-07 18:24:21.584,2,-0.17,0.02,1.09,-33.9978,15.0996,-7.6586,175,75
2026-05-07 18:24:21.595,2,-0.13,-0.02,1.12,-46.1278,7.9696,-7.108600000000003,175,75
2026-05-07 18:24:21.612,2,-0.13,-0.03,1.13,-48.5078,6.8096000000000005,-4.728600000000004,175,75
2026-05-07 18:24:21.621,2,-0.14,-0.04,1.13,-49.6078,9.0596,-4.358600000000003,175,75
2026-05-07 18:24:21.632,2,-0.15,-0.06,1.14,-50.0378,15.7096,-5.158600000000003,175,75
2026-05-07 18:24:21.636,2,-0.15,-0.07,1.14,-49.4278,18.6996,-6.378600000000002,175,75
2026-05-07 18:24:21.652,2,-0.15,-0.06,1.15,-48.5678,18.209600000000002,-7.778600000000004,175,75
2026-05-07 18:24:21.689,2,-0.17,-0.01,1.14,-45.2178,12.7796,-5.828600000000002,175,75
2026-05-07 18:24:21.704,2,-0.16,0.01,1.14,-41.2578,9.979600000000001,-6.378600000000002,175,75
2026-05-07 18:24:21.732,2,-0.16,0.05,1.11,-37.5978,10.9496,-3.138600000000004,175,75
2026-05-07 18:24:21.732,2,-0.17,0.04,1.09,-34.6078,14.3696,-1.9186000000000014,175,75
2026-05-07 18:24:21.744,2,-0.18,0.03,1.09,-31.1278,17.7196,-0.9486000000000026,175,75
2026-05-07 18:24:21.758,2,-0.18,0.01,1.1,-28.817800000000002,20.2196,-1.0686000000000035,175,75
2026-05-07 18:24:21.785,2,-0.16,0.01,1.09,-27.1678,16.9896,-1.3786000000000023,175,75
2026-05-07 18:24:21.796,2,-0.16,0.01,1.07,-26.6178,19.7996,0.5113999999999983,175,75
2026-05-07 18:24:21.815,2,-0.19,-0.02,1.06,-20.9478,30.709600000000002,1.3713999999999977,175,75
2026-05-07 18:24:21.821,2,-0.19,-0.03,1.07,-17.9578,36.1396,-0.2786000000000044,175,75
2026-05-07 18:24:21.837,2,-0.18,-0.02,1.08,-17.1078,39.6696,-0.3386000000000031,175,75
2026-05-07 18:24:21.848,2,-0.17,-0.01,1.07,-16.0678,42.229600000000005,0.7613999999999983,175,75
2026-05-07 18:24:21.848,2,-0.17,0.0,1.07,-13.7578,42.5396,2.651399999999999,175,75
2026-05-07 18:24:21.867,2,-0.16,-0.0,1.07,-12.777800000000001,43.9396,5.091399999999997,175,75
2026-05-07 18:24:21.890,2,-0.14,-0.02,1.08,-11.4378,47.9096,8.561399999999999,175,75
2026-05-07 18:24:21.909,2,-0.09,-0.01,1.09,-9.9078,44.2496,12.161399999999997,175,75
2026-05-07 18:24:21.922,2,-0.07,0.01,1.07,-8.3278,46.0796,14.111399999999998,175,75
2026-05-07 18:24:21.945,2,-0.05,0.03,1.11,-4.9778,56.9896,16.9214,175,75
2026-05-07 18:24:21.956,2,-0.02,0.04,1.15,-4.3678,56.2596,18.8114,175,75
2026-05-07 18:24:21.967,2,0.07,0.04,1.24,-4.3678,38.9996,22.101399999999998,175,75
2026-05-07 18:24:21.983,2,0.13,0.06,1.27,-5.5178,19.2496,25.701399999999996,175,75
2026-05-07 18:24:22.008,2,0.19,0.08,1.28,-6.5578,-26.730400000000003,33.621399999999994,175,75
2026-05-07 18:24:22.019,2,0.2,0.09,1.26,-6.6778,-46.3604,35.3914,175,75
2026-05-07 18:24:22.030,2,0.23,0.07,1.24,-6.9278,-67.6404,36.0614,175,75
2026-05-07 18:24:22.042,2,0.23,0.06,1.22,-5.8878,-90.1404,34.6614,175,75
2026-05-07 18:24:22.073,2,0.21,-0.0,1.16,2.1022,-123.0104,27.411399999999997,175,75
2026-05-07 18:24:22.097,2,0.17,-0.04,1.12,5.5722000000000005,-122.03039999999999,23.321399999999997,175,75
2026-05-07 18:24:22.097,2,0.16,-0.06,1.11,7.892199999999999,-119.90039999999999,19.301399999999997,175,75
2026-05-07 18:24:22.112,2,0.15,-0.08,1.1,11.1222,-119.1704,14.051399999999997,175,75
2026-05-07 18:24:22.132,2,0.13,-0.09,1.08,12.772199999999998,-121.6704,10.271399999999998,175,75
2026-05-07 18:24:22.132,2,0.13,-0.1,1.06,14.292200000000001,-124.72040000000001,6.8013999999999974,175,75
2026-05-07 18:24:22.149,2,0.09,-0.11,1.04,17.3422,-128.6804,-0.39860000000000184,175,75
2026-05-07 18:24:22.184,2,0.07,-0.12,0.97,27.5922,-107.5204,-10.458600000000004,175,75
2026-05-07 18:24:22.191,2,0.08,-0.12,0.96,32.5922,-96.3604,-15.278600000000004,175,75
2026-05-07 18:24:22.203,2,0.09,-0.12,0.96,36.3722,-90.5704,-19.848600000000005,175,75
2026-05-07 18:24:22.224,2,0.11,-0.11,0.95,44.0522,-75.0804,-25.278600000000004,175,75
2026-05-07 18:24:22.235,2,0.09,-0.11,0.94,49.8422,-68.4404,-29.178600000000003,175,75
2026-05-07 18:24:22.252,2,0.08,-0.11,0.96,53.5622,-64.4704,-32.7186,175,75
2026-05-07 18:24:22.265,2,0.09,-0.11,0.98,55.702200000000005,-61.910399999999996,-34.058600000000006,175,75
2026-05-07 18:24:22.283,2,0.07,-0.16,1.0,62.102199999999996,-67.46039999999999,-35.698600000000006,175,75
2026-05-07 18:24:22.298,2,0.05,-0.21,1.01,65.2122,-81.7304,-40.2186,175,75
2026-05-07 18:24:22.327,2,0.04,-0.19,0.96,70.2122,-87.7004,-47.168600000000005,175,75
2026-05-07 18:24:22.343,2,0.01,-0.19,0.94,72.2822,-86.3604,-50.5786,175,75
2026-05-07 18:24:22.354,2,-0.01,-0.18,0.93,73.3222,-83.3804,-54.4886,175,75
2026-05-07 18:24:22.365,2,-0.02,-0.18,0.93,74.2922,-81.4204,-56.7986,175,75
2026-05-07 18:24:22.365,2,-0.03,-0.18,0.93,75.51219999999999,-80.2004,-57.89860000000001,175,75
2026-05-07 18:24:22.376,2,-0.06,-0.18,0.92,75.51219999999999,-79.1104,-58.448600000000006,175,75
2026-05-07 18:24:22.394,2,-0.05,-0.16,0.91,73.8722,-80.5704,-61.068599999999996,175,75
2026-05-07 18:24:22.419,2,-0.04,-0.14,0.87,71.6722,-77.7704,-60.278600000000004,175,75
2026-05-07 18:24:22.419,2,-0.06,-0.14,0.85,70.3322,-73.0704,-60.5186,175,75
2026-05-07 18:24:22.431,2,-0.08,-0.15,0.82,68.3222,-63.130399999999995,-61.918600000000005,175,75
2026-05-07 18:24:22.444,2,-0.1,-0.13,0.79,67.1022,-50.2004,-64.2986,175,75
2026-05-07 18:24:22.456,2,-0.13,-0.11,0.79,65.3922,-33.6204,-66.0086,175,75
2026-05-07 18:24:22.470,2,-0.12,-0.07,0.81,63.62220000000001,-22.830399999999997,-65.27860000000001,175,75
2026-05-07 18:24:22.483,2,-0.1,-0.04,0.84,60.8822,-16.8504,-62.3486,175,75
2026-05-07 18:24:22.506,2,-0.08,0.02,0.87,54.172200000000004,-10.810400000000001,-53.0186,175,75
2026-05-07 18:24:22.531,2,-0.06,0.03,0.88,42.5922,-14.110399999999998,-43.0186,175,75
2026-05-07 18:24:22.542,2,-0.08,0.05,0.87,32.8322,-8.250399999999999,-36.378600000000006,175,75
2026-05-07 18:24:22.564,2,-0.07,0.07,0.86,28.9322,-3.920399999999999,-33.9386,175,75
2026-05-07 18:24:22.575,2,-0.07,0.08,0.87,22.102199999999996,0.4695999999999998,-30.458600000000004,175,75
2026-05-07 18:24:22.589,2,-0.08,0.14,0.86,6.792200000000001,8.7596,-22.718600000000002,175,75
