Time,ID,Ax,Ay,Az,Gx,Gy,Gz,Height,Weight
2026-05-09 15:09:01.141,3,-3.87,1.6,2.62,-191.319,134.3666,-81.09179999999999,175,75
2026-05-09 15:09:01.153,3,-3.78,1.61,3.04,-127.969,128.8166,-35.0018,175,75
2026-05-09 15:09:01.164,3,-2.41,0.88,4.16,58.861,166.13660000000002,-168.5918,175,75
2026-05-09 15:09:01.164,3,-3.17,2.63,5.35,74.90100000000001,241.7466,-60.30180000000001,175,75
2026-05-09 15:09:01.175,3,-3.28,3.25,6.14,64.231,-1.973399999999998,134.8782,175,75
2026-05-09 15:09:01.192,3,-1.36,0.92,4.73,111.971,-209.65339999999998,161.03820000000002,175,75
2026-05-09 15:09:01.204,3,1.95,-0.45,0.74,84.041,-224.3534,20.0582,175,75
2026-05-09 15:09:01.215,3,-0.63,0.9,-0.53,-43.519,-172.09339999999997,213.3582,175,75
2026-05-09 15:09:01.226,3,-1.86,-0.08,-0.47,-19.069,-65.1434,160.9182,175,75
2026-05-09 15:09:01.240,3,-0.56,-0.79,1.13,101.30099999999999,206.62660000000002,-7.5618,175,75
2026-05-09 15:09:01.252,3,0.4,-0.28,2.99,102.64099999999999,119.36659999999999,44.6382,175,75
2026-05-09 15:09:01.273,3,-0.71,0.11,1.49,38.371,-70.3234,85.4882,175,75
2026-05-09 15:09:01.288,3,-0.74,0.19,1.2,33.311,-49.903400000000005,72.0082,175,75
2026-05-09 15:09:01.298,3,-0.58,0.22,1.27,28.861,-37.403400000000005,63.968199999999996,175,75
2026-05-09 15:09:01.320,3,-0.82,0.08,1.33,23.561,-69.2334,47.868199999999995,175,75
2026-05-09 15:09:01.366,3,-0.35,-0.68,1.32,34.900999999999996,-85.6934,32.9882,175,75
2026-05-09 15:09:01.377,3,-0.19,-0.77,1.32,44.651,-83.6834,33.5982,175,75
2026-05-09 15:09:01.407,3,0.24,-1.08,1.07,69.84100000000001,-77.1534,48.7782,175,75
2026-05-09 15:09:01.416,3,0.48,-1.26,0.98,80.321,-78.5634,65.9182,175,75
2026-05-09 15:09:01.438,3,0.71,-1.74,0.35,90.261,-123.56340000000002,111.82820000000001,175,75
2026-05-09 15:09:01.455,3,0.11,-1.19,0.64,124.90100000000001,-57.82340000000001,131.0382,175,75
2026-05-09 15:09:01.470,3,-0.07,-1.12,0.89,144.651,-40.383399999999995,147.31820000000002,175,75
2026-05-09 15:09:01.493,3,-0.17,-0.52,0.2,190.02100000000002,-13.563399999999998,85.4282,175,75
2026-05-09 15:09:01.506,3,-0.68,0.21,1.15,208.681,63.5766,91.5882,175,75
2026-05-09 15:09:01.510,3,-0.64,0.01,1.51,175.201,44.0666,114.1482,175,75
2026-05-09 15:09:01.546,3,-0.17,0.8,0.25,107.52099999999999,120.8366,17.498199999999997,175,75
2026-05-09 15:09:01.558,3,0.94,-0.44,0.16,31.301,20.896600000000003,4.9382,175,75
2026-05-09 15:09:01.575,3,0.21,0.07,-0.82,-52.849,33.6366,-56.83180000000001,175,75
2026-05-09 15:09:01.587,3,0.37,-0.03,-0.11,-70.88900000000001,114.1266,-103.9618,175,75
2026-05-09 15:09:01.613,3,0.11,0.03,0.6,-143.69899999999998,35.89660000000001,-133.2318,175,75
2026-05-09 15:09:01.635,3,-0.23,0.37,0.97,-195.88899999999998,28.8166,-205.3018,175,75
2026-05-09 15:09:01.657,3,-0.54,0.22,0.72,-260.09900000000005,47.8466,-240.49179999999998,175,75
2026-05-09 15:09:01.693,3,-1.09,-0.14,1.31,-300.219,153.69660000000002,-271.70180000000005,175,75
2026-05-09 15:09:01.704,3,-2.24,-0.01,2.39,-283.819,248.75660000000002,-249.0218,175,75
2026-05-09 15:09:01.715,3,-2.03,-0.27,3.16,-210.219,213.2066,-236.46179999999998,175,75
2026-05-09 15:09:01.772,3,-2.17,1.67,3.26,-141.809,-130.6934,-12.191799999999999,175,75
2026-05-09 15:09:01.772,3,-2.61,1.76,3.55,-68.209,-117.15339999999999,26.5882,175,75
2026-05-09 15:09:01.793,3,-3.66,2.48,3.62,-20.219,-132.7034,112.6182,175,75
2026-05-09 15:09:01.798,3,-3.91,2.32,3.97,46.481,-99.96340000000001,170.1882,175,75
2026-05-09 15:09:01.810,3,-1.16,0.0,3.31,201.30100000000002,-52.763400000000004,79.2082,175,75
2026-05-09 15:09:01.827,3,-0.28,-1.52,-0.69,-57.599,-220.6934,258.3582,175,75
2026-05-09 15:09:01.844,3,-2.31,-1.47,0.55,189.961,202.1766,89.8782,175,75
2026-05-09 15:09:01.854,3,-1.29,-0.68,1.8,310.811,293.02660000000003,-137.6218,175,75
2026-05-09 15:09:01.867,3,1.75,1.5,2.28,141.851,187.2966,40.0582,175,75
2026-05-09 15:09:01.871,3,0.31,0.89,2.4,77.031,13.756600000000002,150.9182,175,75
2026-05-09 15:09:01.917,3,-1.19,0.07,1.14,14.231,-108.2534,67.8082,175,75
2026-05-09 15:09:01.927,3,-0.79,-0.11,1.06,25.141,-51.183400000000006,32.6182,175,75
2026-05-09 15:09:01.958,3,-0.79,-0.85,1.1,28.071,-60.263400000000004,21.0982,175,75
2026-05-09 15:09:01.963,3,-0.56,-1.41,1.05,31.001,-34.5334,12.8082,175,75
2026-05-09 15:09:01.978,3,-0.37,-1.58,0.98,42.461,-34.653400000000005,5.7982,175,75
2026-05-09 15:09:01.998,3,0.2,-1.52,0.61,53.681,-45.2034,22.9282,175,75
2026-05-09 15:09:02.006,3,0.53,-1.49,0.51,60.691,-35.513400000000004,35.1182,175,75
2026-05-09 15:09:02.029,3,1.05,-1.52,0.4,51.611,-30.573399999999996,76.5282,175,75
2026-05-09 15:09:02.040,3,1.07,-1.14,0.49,49.901,-51.9734,77.6182,175,75
2026-05-09 15:09:02.052,3,0.32,-0.39,0.78,64.041,-21.063399999999998,106.82820000000001,175,75
2026-05-09 15:09:02.067,3,-0.49,0.28,1.1,108.92099999999999,-20.0834,98.2282,175,75
2026-05-09 15:09:02.078,3,-0.94,0.92,0.88,106.30099999999999,8.0866,69.9382,175,75
2026-05-09 15:09:02.100,3,1.26,1.58,0.21,13.741,58.6366,-36.3418,175,75
2026-05-09 15:09:02.125,3,1.58,2.63,0.12,-117.179,-11.673399999999997,-100.4918,175,75
2026-05-09 15:09:02.138,3,1.42,2.85,-0.69,-178.269,-82.7634,-111.4618,175,75
2026-05-09 15:09:02.144,3,0.42,1.49,-0.44,-234.129,16.256600000000002,-116.34179999999999,175,75
2026-05-09 15:09:02.164,3,0.58,0.64,0.68,-260.09900000000005,-17.643399999999996,-189.3918,175,75
2026-05-09 15:09:02.164,3,0.6,0.38,0.82,-282.53900000000004,-34.5334,-182.3118,175,75
2026-05-09 15:09:02.184,3,-0.59,-0.06,1.57,-283.389,-33.2534,-137.3118,175,75
2026-05-09 15:09:02.184,3,-1.78,-0.36,2.86,-238.879,-34.5334,-114.5118,175,75
2026-05-09 15:09:02.215,3,-1.57,0.3,3.8,-106.37899999999999,-76.3634,-157.3118,175,75
2026-05-09 15:09:02.227,3,-7.48,4.52,5.03,-4.9190000000000005,-55.6934,287.9282,175,75
2026-05-09 15:09:02.237,3,-2.33,0.36,4.07,254.591,243.2066,152.6182,175,75
2026-05-09 15:09:02.250,3,2.8,-3.16,2.3,325.20099999999996,55.586600000000004,-125.67179999999999,175,75
2026-05-09 15:09:02.260,3,3.83,-0.88,-0.77,-71.13900000000001,-431.79339999999996,185.9182,175,75
2026-05-09 15:09:02.299,3,0.2,-0.95,1.53,212.401,354.4866,-60.6718,175,75
2026-05-09 15:09:02.311,3,0.18,-0.42,4.48,122.58099999999999,57.9066,122.8082,175,75
2026-05-09 15:09:02.322,3,-0.32,0.22,2.87,101.42099999999999,-81.7334,117.43820000000001,175,75
2026-05-09 15:09:02.355,3,-1.33,0.76,1.25,58.501,-57.0334,121.2782,175,75
2026-05-09 15:09:02.367,3,-1.32,1.04,0.96,61.421,6.316600000000001,60.9182,175,75
2026-05-09 15:09:02.378,3,-0.17,1.03,0.92,45.751,-20.323399999999996,52.078199999999995,175,75
2026-05-09 15:09:02.389,3,-0.73,0.7,0.88,10.690999999999999,-72.0934,98.5982,175,75
2026-05-09 15:09:02.389,3,-0.88,-0.12,1.35,38.131,6.566600000000001,34.4482,175,75
2026-05-09 15:09:02.412,3,-0.54,0.04,1.4,34.721000000000004,-14.173399999999997,31.038199999999996,175,75
2026-05-09 15:09:02.426,3,-0.64,0.09,1.55,31.421,1.0166000000000004,29.938200000000002,175,75
2026-05-09 15:09:02.435,3,-0.34,0.09,1.66,18.680999999999997,-31.9734,23.2282,175,75
2026-05-09 15:09:02.447,3,-0.5,0.25,1.62,9.781,-49.96340000000001,31.7682,175,75
2026-05-09 15:09:02.469,3,-0.8,0.2,1.64,-13.029,-72.3434,7.1982,175,75
2026-05-09 15:09:02.491,3,-0.82,0.13,1.49,-26.689,-84.10340000000001,2.9281999999999995,175,75
2026-05-09 15:09:02.491,3,-0.78,-0.01,1.53,-31.198999999999998,-81.9134,-2.8618000000000006,175,75
2026-05-09 15:09:02.505,3,-0.89,-0.15,1.38,-31.869,-87.9534,-4.511800000000001,175,75
2026-05-09 15:09:02.528,3,-1.04,-0.87,1.27,-25.349,-77.21340000000001,-26.9518,175,75
2026-05-09 15:09:02.540,3,-0.91,-0.96,1.31,-26.689,-100.99340000000001,-23.6618,175,75
2026-05-09 15:09:02.551,3,-0.73,-0.99,1.22,-26.439,-120.0834,-21.641800000000003,175,75
2026-05-09 15:09:02.562,3,-0.55,-1.04,1.08,-30.829,-138.86339999999998,-16.5818,175,75
2026-05-09 15:09:02.587,3,0.15,-0.92,0.61,-38.999,-178.68339999999998,14.2682,175,75
2026-05-09 15:09:02.599,3,0.15,-0.72,0.32,-40.099,-168.0134,27.9882,175,75
2026-05-09 15:09:02.620,3,0.03,-0.5,0.33,-41.319,-160.2634,26.038199999999996,175,75
2026-05-09 15:09:02.620,3,-0.42,0.24,0.41,-34.549,-119.2334,39.5082,175,75
2026-05-09 15:09:02.668,3,-0.69,1.09,0.83,20.451,-40.383399999999995,57.258199999999995,175,75
2026-05-09 15:09:02.696,3,-0.29,0.94,0.99,3.431,-17.823399999999996,77.13820000000001,175,75
2026-05-09 15:09:02.707,3,1.18,0.4,0.76,-29.429000000000002,-65.5734,45.188199999999995,175,75
2026-05-09 15:09:02.719,3,0.86,0.83,0.36,-59.068999999999996,-37.7034,29.0282,175,75
2026-05-09 15:09:02.719,3,0.21,0.83,0.21,-73.269,19.5466,29.758200000000002,175,75
2026-05-09 15:09:02.740,3,0.56,0.65,0.23,-86.25899999999999,28.876600000000003,-22.501800000000003,175,75
2026-05-09 15:09:02.751,3,0.69,0.73,0.06,-111.689,58.6366,-17.681800000000003,175,75
2026-05-09 15:09:02.762,3,0.39,0.75,-0.14,-99.249,95.0966,-21.7718,175,75
2026-05-09 15:09:02.774,3,0.03,0.69,0.02,-86.869,163.69660000000002,-36.0918,175,75
2026-05-09 15:09:02.780,3,-0.06,0.73,0.56,-73.63900000000001,223.0266,-48.2318,175,75
2026-05-09 15:09:02.813,3,-0.35,1.23,2.34,-67.59899999999999,81.5666,-44.2718,175,75
2026-05-09 15:09:02.825,3,-2.99,2.74,4.06,-75.649,111.0166,0.9781999999999993,175,75
2026-05-09 15:09:02.825,3,-5.56,4.05,4.81,-15.709,120.4666,176.5882,175,75
2026-05-09 15:09:02.837,3,-9.65,6.79,7.63,211.67100000000002,176.0166,364.5082,175,75
2026-05-09 15:09:02.858,3,6.52,-6.12,5.82,254.291,-257.2734,-141.0318,175,75
2026-05-09 15:09:02.870,3,2.64,0.58,1.72,-169.489,-788.8034,358.90819999999997,175,75
2026-05-09 15:09:02.870,3,-3.64,1.35,1.37,-150.159,-370.6934,287.7482,175,75
2026-05-09 15:09:02.884,3,-0.13,-0.95,-1.03,80.631,59.3066,-81.4018,175,75
2026-05-09 15:09:02.907,3,0.36,-1.06,2.28,86.42099999999999,102.2366,47.618199999999995,175,75
2026-05-09 15:09:02.919,3,-1.05,-1.02,1.64,56.971,24.126600000000003,26.2782,175,75
2026-05-09 15:09:02.930,3,-0.84,-0.98,1.48,79.96100000000001,98.0866,12.1382,175,75
2026-05-09 15:09:02.934,3,-0.4,-1.13,2.12,65.39099999999999,55.706599999999995,28.0482,175,75
2026-05-09 15:09:02.954,3,-0.22,-1.22,2.04,46.671,-69.0434,45.5482,175,75
2026-05-09 15:09:02.965,3,-0.41,-1.16,1.37,44.351,-121.06340000000002,61.468199999999996,175,75
2026-05-09 15:09:02.972,3,-0.28,-1.26,0.84,66.851,-130.2034,68.4782,175,75
2026-05-09 15:09:02.986,3,-0.38,-1.44,0.38,103.80099999999999,-121.7934,85.9182,175,75
2026-05-09 15:09:02.986,3,-0.41,-1.54,0.07,141.241,-95.1434,86.82820000000001,175,75
2026-05-09 15:09:03.019,3,-0.03,-1.84,0.19,208.86100000000002,-38.013400000000004,105.9782,175,75
2026-05-09 15:09:03.037,3,1.38,-2.58,0.36,248.251,-38.013400000000004,119.8782,175,75
2026-05-09 15:09:03.048,3,1.1,-1.91,0.49,264.231,1.1966000000000019,115.0582,175,75
2026-05-09 15:09:03.060,3,-1.08,-0.56,1.23,287.34099999999995,138.7566,226.8282,175,75
2026-05-09 15:09:03.085,3,-1.68,-2.16,0.49,258.561,58.5166,152.9282,175,75
2026-05-09 15:09:03.107,3,1.15,-0.51,0.82,168.371,140.1566,-18.8418,175,75
2026-05-09 15:09:03.117,3,-0.56,1.23,2.23,171.001,253.63660000000002,139.3882,175,75
2026-05-09 15:09:03.129,3,-0.4,-0.28,2.56,130.261,124.9166,192.1982,175,75
2026-05-09 15:09:03.151,3,-0.27,-0.36,0.61,-29.679000000000002,-123.19340000000001,12.8082,175,75
2026-05-09 15:09:03.163,3,-0.23,0.14,0.21,-61.928999999999995,1.6266000000000016,-9.0818,175,75
2026-05-09 15:09:03.173,3,-0.09,0.26,0.77,-91.809,48.9366,-31.5218,175,75
2026-05-09 15:09:03.184,3,-0.26,0.45,1.18,-133.939,29.006600000000002,-61.521800000000006,175,75
2026-05-09 15:09:03.195,3,-0.45,0.56,1.15,-157.599,48.8166,-80.9718,175,75
2026-05-09 15:09:03.203,3,-0.4,0.48,1.29,-179.85899999999998,71.1366,-115.61179999999999,175,75
2026-05-09 15:09:03.217,3,-0.05,0.35,1.38,-224.129,62.726600000000005,-154.8118,175,75
2026-05-09 15:09:03.228,3,-0.02,0.48,1.34,-270.40900000000005,54.5466,-180.4218,175,75
2026-05-09 15:09:03.241,3,-0.21,0.45,1.46,-301.569,43.5166,-206.1618,175,75
2026-05-09 15:09:03.252,3,-0.2,0.45,1.6,-324.129,20.4666,-226.8318,175,75
2026-05-09 15:09:03.278,3,-0.42,0.58,1.84,-369.97900000000004,-12.8234,-231.77179999999998,175,75
2026-05-09 15:09:03.287,3,-0.52,0.7,1.99,-385.40900000000005,-26.9734,-233.9018,175,75
2026-05-09 15:09:03.298,3,-0.57,0.74,2.14,-402.29900000000004,-42.883399999999995,-228.5318,175,75
2026-05-09 15:09:03.309,3,-0.69,0.62,2.34,-427.41900000000004,-71.1234,-223.7818,175,75
2026-05-09 15:09:03.321,3,-0.88,0.51,2.5,-436.319,-103.3734,-220.3018,175,75
2026-05-09 15:09:03.330,3,-1.26,0.46,2.54,-426.499,-119.47340000000001,-210.4218,175,75
2026-05-09 15:09:03.345,3,-1.54,0.5,2.54,-401.499,-98.8634,-214.6918,175,75
2026-05-09 15:09:03.377,3,-1.56,0.94,3.95,-256.569,-69.4734,-159.6318,175,75
2026-05-09 15:09:03.405,3,-1.53,1.29,2.9,-173.879,-96.9734,-51.1618,175,75
2026-05-09 15:09:03.405,3,-1.9,1.59,2.75,-115.09899999999999,-48.5634,-37.0718,175,75
2026-05-09 15:09:03.419,3,-1.79,1.68,3.41,-25.529,5.036600000000002,-40.671800000000005,175,75
2026-05-09 15:09:03.428,3,-1.29,1.85,3.69,-5.709,-65.1434,15.9782,175,75
2026-05-09 15:09:03.460,3,-2.69,1.54,3.1,50.511,-141.7934,142.7482,175,75
2026-05-09 15:09:03.478,3,-0.37,-5.95,3.09,200.631,123.6366,212.6182,175,75
2026-05-09 15:09:03.491,3,-0.1,-1.29,2.36,264.111,-80.7534,-53.8418,175,75
2026-05-09 15:09:03.491,3,1.75,1.57,-0.36,211.851,-14.4134,-0.6718000000000011,175,75
2026-05-09 15:09:03.502,3,-1.33,1.87,1.03,202.461,66.2566,302.7482,175,75
2026-05-09 15:09:03.514,3,-1.75,0.53,1.85,167.031,162.1766,115.54820000000001,175,75
2026-05-09 15:09:03.537,3,-0.36,0.5,2.76,172.761,103.9366,41.648199999999996,175,75
2026-05-09 15:09:03.561,3,-1.07,-0.02,1.84,34.471000000000004,-176.24339999999998,146.7682,175,75
2026-05-09 15:09:03.584,3,-0.93,0.01,0.74,60.691,-99.5934,99.1482,175,75
2026-05-09 15:09:03.584,3,-1.09,-0.04,1.03,71.42099999999999,-51.9734,87.68820000000001,175,75
2026-05-09 15:09:03.605,3,-0.87,-0.13,1.32,82.221,-40.873400000000004,56.9482,175,75
2026-05-09 15:09:03.628,3,-0.66,-0.44,1.59,77.09100000000001,-54.2334,52.258199999999995,175,75
2026-05-09 15:09:03.639,3,-0.58,-0.57,1.39,83.251,-55.873400000000004,44.148199999999996,175,75
2026-05-09 15:09:03.639,3,-0.53,-0.75,1.23,94.471,-35.0834,44.4482,175,75
2026-05-09 15:09:03.650,3,-0.47,-1.1,1.3,104.231,-15.383399999999998,49.758199999999995,175,75
2026-05-09 15:09:03.665,3,-0.01,-1.31,1.15,112.52099999999999,-39.653400000000005,48.1082,175,75
2026-05-09 15:09:03.677,3,0.21,-1.39,0.92,110.571,-52.6434,71.40820000000001,175,75
2026-05-09 15:09:03.689,3,0.24,-1.56,0.79,111.061,-45.873400000000004,92.43820000000001,175,75
2026-05-09 15:09:03.700,3,0.53,-1.6,0.77,121.001,-42.9534,89.99820000000001,175,75
2026-05-09 15:09:03.709,3,0.86,-1.51,0.89,127.40100000000001,-46.18339999999999,104.6982,175,75
2026-05-09 15:09:03.728,3,0.01,-0.7,1.46,151.851,-33.743399999999994,135.5482,175,75
2026-05-09 15:09:03.739,3,0.05,-0.69,1.54,171.971,-31.423399999999997,139.0882,175,75
2026-05-09 15:09:03.749,3,0.33,-0.69,1.17,153.92100000000002,-65.4534,117.8082,175,75
2026-05-09 15:09:03.771,3,-0.86,0.13,1.29,129.841,-27.463399999999996,116.9482,175,75
2026-05-09 15:09:03.812,3,-0.05,-0.48,0.25,68.311,-70.4534,-11.161800000000001,175,75
2026-05-09 15:09:03.821,3,-0.85,0.55,0.38,89.65100000000001,151.4366,20.6682,175,75
2026-05-09 15:09:03.837,3,0.37,-0.49,1.09,64.291,101.5666,19.818199999999997,175,75
2026-05-09 15:09:03.847,3,-0.07,-0.13,0.47,5.691,-11.183399999999999,-43.351800000000004,175,75
2026-05-09 15:09:03.868,3,-0.54,0.43,0.79,-33.089,174.6766,-75.67179999999999,175,75
2026-05-09 15:09:03.881,3,-0.41,0.51,1.32,-70.709,110.5866,-101.64179999999999,175,75
2026-05-09 15:09:03.886,3,-0.41,0.75,1.37,-105.589,47.0466,-110.06179999999999,175,75
2026-05-09 15:09:03.897,3,-0.42,0.81,1.34,-129.85899999999998,14.306600000000001,-117.6218,175,75
2026-05-09 15:09:03.924,3,-0.21,0.77,1.49,-220.959,-102.4034,-167.1318,175,75
2026-05-09 15:09:03.944,3,-0.38,0.73,1.44,-252.299,-128.9234,-163.1718,175,75
2026-05-09 15:09:03.954,3,-0.58,0.64,1.47,-271.199,-140.5134,-167.8618,175,75
2026-05-09 15:09:03.967,3,-0.69,0.67,1.49,-296.689,-166.6034,-179.8818,175,75
2026-05-09 15:09:03.983,3,-0.83,0.74,1.43,-334.73900000000003,-146.36339999999998,-176.2818,175,75
2026-05-09 15:09:04.004,3,-0.91,0.45,1.29,-341.869,-74.4734,-167.99179999999998,175,75
2026-05-09 15:09:04.019,3,-0.92,0.2,1.57,-331.019,-10.5734,-169.8118,175,75
2026-05-09 15:09:04.029,3,-0.95,0.12,1.89,-319.369,21.076600000000003,-172.6218,175,75
2026-05-09 15:09:04.045,3,-1.04,0.06,2.34,-296.199,37.4166,-168.0518,175,75
2026-05-09 15:09:04.045,3,-1.17,0.02,2.67,-275.219,32.8466,-164.3318,175,75
2026-05-09 15:09:04.070,3,-1.34,0.6,2.87,-225.88899999999998,-45.8134,-122.4418,175,75
2026-05-09 15:09:04.091,3,-1.19,0.89,2.48,-193.32899999999998,-57.523399999999995,-96.34179999999999,175,75
2026-05-09 15:09:04.112,3,-0.89,1.01,2.18,-102.969,-51.4834,-36.461800000000004,175,75
2026-05-09 15:09:04.124,3,-0.77,1.14,2.25,-62.178999999999995,-27.0934,-16.1618,175,75
2026-05-09 15:09:04.134,3,-0.55,1.15,2.3,-25.409,-24.8434,11.2782,175,75
2026-05-09 15:09:04.145,3,-0.37,1.12,2.05,5.691,-27.5834,27.1982,175,75
2026-05-09 15:09:04.158,3,-0.3,1.07,1.77,36.361000000000004,5.836600000000001,36.5282,175,75
2026-05-09 15:09:04.173,3,-0.74,1.16,1.54,46.301,26.9266,59.4482,175,75
2026-05-09 15:09:04.174,3,-1.39,1.09,1.37,77.031,10.526600000000002,120.3682,175,75
2026-05-09 15:09:04.198,3,1.16,-3.38,0.14,66.67099999999999,-97.4034,-28.5918,175,75
2026-05-09 15:09:04.225,3,-2.83,1.75,2.98,353.741,226.7466,123.96820000000001,175,75
2026-05-09 15:09:04.249,3,2.04,0.42,2.92,233.251,165.4666,-1.9518000000000004,175,75
2026-05-09 15:09:04.265,3,-1.71,0.31,2.31,114.411,5.406600000000001,201.1582,175,75
2026-05-09 15:09:04.284,3,0.23,0.62,2.22,76.061,-32.403400000000005,134.8182,175,75
2026-05-09 15:09:04.309,3,-0.91,0.36,1.24,32.641,-113.62339999999999,160.4882,175,75
2026-05-09 15:09:04.309,3,-1.16,0.27,0.95,46.421,-57.273399999999995,130.66819999999998,175,75
2026-05-09 15:09:04.332,3,-0.73,0.05,1.18,64.531,1.686600000000002,81.21820000000001,175,75
2026-05-09 15:09:04.332,3,-0.55,0.13,1.45,61.301,-35.0834,93.2282,175,75
2026-05-09 15:09:04.354,3,-0.77,-0.26,1.39,59.111,-35.993399999999994,86.9482,175,75
2026-05-09 15:09:04.368,3,-0.47,-0.66,1.52,54.351,-55.933400000000006,100.85820000000001,175,75
2026-05-09 15:09:04.380,3,-0.63,-1.19,1.3,43.071,-89.1634,137.8082,175,75
2026-05-09 15:09:04.391,3,-0.94,-1.96,1.3,65.081,-68.0734,143.5982,175,75
2026-05-09 15:09:04.391,3,-0.39,-2.52,1.26,81.42099999999999,-62.6434,145.6682,175,75
2026-05-09 15:09:04.407,3,0.01,-2.37,1.3,90.201,-66.7334,166.1582,175,75
2026-05-09 15:09:04.423,3,0.56,-2.65,1.41,52.031,-134.4134,205.2482,175,75
2026-05-09 15:09:04.435,3,0.82,-2.49,1.11,24.111,-193.74339999999998,188.6582,175,75
2026-05-09 15:09:04.471,3,-1.75,1.25,2.11,34.781,-46.9734,197.9882,175,75
2026-05-09 15:09:04.480,3,-1.47,0.79,1.51,-3.149000000000001,-179.84339999999997,180.1182,175,75
2026-05-09 15:09:04.494,3,-0.11,-0.03,-0.23,-42.969,-213.37339999999998,84.2082,175,75
2026-05-09 15:09:04.507,3,1.36,-0.56,-1.18,-99.309,-109.4734,72.1382,175,75
2026-05-09 15:09:04.522,3,0.47,-0.43,0.03,-167.41899999999998,18.576600000000003,14.6382,175,75
2026-05-09 15:09:04.535,3,0.33,-0.24,0.32,-226.319,-32.153400000000005,-16.8318,175,75
2026-05-09 15:09:04.546,3,0.16,-0.17,0.48,-246.07899999999998,1.9266000000000023,-35.3018,175,75
2026-05-09 15:09:04.579,3,0.65,-0.08,1.37,-294.73900000000003,-38.5634,-105.61179999999999,175,75
2026-05-09 15:09:04.584,3,0.53,0.19,1.43,-313.089,-61.663399999999996,-110.3018,175,75
2026-05-09 15:09:04.598,3,0.4,0.14,1.39,-336.079,-80.6934,-126.58179999999999,175,75
2026-05-09 15:09:04.609,3,0.31,0.21,1.27,-344.129,-77.7634,-147.99179999999998,175,75
2026-05-09 15:09:04.630,3,0.36,0.26,1.31,-346.92900000000003,-60.023399999999995,-160.0618,175,75
2026-05-09 15:09:04.630,3,0.24,0.31,1.41,-354.129,-43.133399999999995,-161.6418,175,75
2026-05-09 15:09:04.643,3,0.01,0.26,1.66,-353.209,-34.4734,-166.46179999999998,175,75
2026-05-09 15:09:04.656,3,-0.1,0.3,1.73,-343.389,-37.403400000000005,-182.1318,175,75
2026-05-09 15:09:04.656,3,-0.27,0.44,1.78,-325.469,-21.853399999999997,-177.68179999999998,175,75
2026-05-09 15:09:04.671,3,-0.61,0.37,2.12,-295.34900000000005,0.896600000000003,-176.2218,175,75
2026-05-09 15:09:04.682,3,-0.93,0.34,2.52,-263.639,5.956600000000002,-177.8018,175,75
2026-05-09 15:09:04.694,3,-1.21,0.57,2.94,-226.07899999999998,4.426600000000002,-176.77179999999998,175,75
2026-05-09 15:09:04.718,3,-1.56,1.42,3.62,-169.679,-20.5134,-141.4018,175,75
2026-05-09 15:09:04.720,3,-1.42,1.88,3.3,-140.709,-74.8434,-62.6818,175,75
2026-05-09 15:09:04.732,3,-1.83,1.83,2.97,-88.269,-55.7534,-28.171800000000005,175,75
2026-05-09 15:09:04.747,3,-2.14,1.43,2.14,-42.599,-67.9534,41.2782,175,75
2026-05-09 15:09:04.765,3,1.65,-3.19,-0.56,56.061,-365.1434,42.258199999999995,175,75
2026-05-09 15:09:04.787,3,0.46,-8.93,-1.24,-28.639000000000003,-316.54339999999996,180.7982,175,75
2026-05-09 15:09:04.787,3,-6.35,2.6,0.5,224.17100000000002,765.7066,185.4282,175,75
2026-05-09 15:09:04.808,3,0.6,0.81,5.01,817.091,581.5666,-243.2918,175,75
2026-05-09 15:09:04.853,3,-1.49,0.29,1.64,255.931,299.6166,-92.50179999999999,175,75
2026-05-09 15:09:04.869,3,1.07,1.42,4.2,123.311,158.3966,47.258199999999995,175,75
2026-05-09 15:09:04.893,3,-1.37,-0.13,1.17,-17.479,-270.9334,155.4282,175,75
2026-05-09 15:09:04.903,3,-1.34,-0.35,-0.11,45.811,-76.7934,68.1082,175,75
2026-05-09 15:09:04.914,3,-0.5,0.06,0.7,80.321,64.3066,16.3382,175,75
2026-05-09 15:09:04.924,3,-0.16,0.39,1.5,70.081,41.3166,53.8382,175,75
2026-05-09 15:09:04.953,3,-0.62,0.25,1.43,36.851,8.936600000000002,33.7182,175,75
2026-05-09 15:09:04.962,3,-0.49,0.27,1.61,24.651,-3.8633999999999986,34.5782,175,75
2026-05-09 15:09:04.973,3,-0.67,0.24,1.56,6.611,-30.573399999999996,38.4182,175,75
2026-05-09 15:09:04.988,3,-0.75,0.17,1.44,-5.218999999999999,-37.82339999999999,28.6582,175,75
2026-05-09 15:09:04.998,3,-0.66,0.14,1.52,-17.299,-36.123400000000004,21.1582,175,75
2026-05-09 15:09:05.012,3,-0.59,-0.02,1.52,-33.639,-59.96340000000001,18.2982,175,75
2026-05-09 15:09:05.033,3,-0.81,-0.27,1.43,-42.109,-60.0834,11.3382,175,75
2026-05-09 15:09:05.047,3,-0.79,-0.63,1.33,-45.279,-85.6934,8.9682,175,75
2026-05-09 15:09:05.059,3,-0.74,-0.97,1.13,-43.579,-99.4134,2.6882,175,75
2026-05-09 15:09:05.073,3,-0.72,-1.12,0.78,-38.389,-115.5134,0.30819999999999936,175,75
2026-05-09 15:09:05.073,3,-0.6,-1.09,0.63,-32.299,-119.90339999999999,-4.081799999999999,175,75
2026-05-09 15:09:05.102,3,-0.3,-0.95,0.7,-30.159,-114.84339999999999,7.808199999999999,175,75
2026-05-09 15:09:05.127,3,0.25,-0.68,0.76,-36.139,-130.2034,9.5082,175,75
2026-05-09 15:09:05.138,3,0.15,-0.28,0.83,-31.139000000000003,-140.02339999999998,24.208199999999998,175,75
2026-05-09 15:09:05.150,3,-0.22,-0.05,0.69,-17.539,-130.3234,46.038199999999996,175,75
2026-05-09 15:09:05.171,3,0.02,0.15,0.15,4.591,-43.743399999999994,47.3182,175,75
2026-05-09 15:09:05.197,3,-0.04,0.51,0.39,14.231,-21.9734,51.4082,175,75
2026-05-09 15:09:05.197,3,-0.69,1.0,0.87,22.761,-2.093399999999999,79.6982,175,75
2026-05-09 15:09:05.208,3,-0.58,0.74,1.11,16.911,7.176600000000002,88.1682,175,75
2026-05-09 15:09:05.224,3,0.13,0.74,1.0,-6.989000000000001,-17.3434,54.0882,175,75
2026-05-09 15:09:05.239,3,0.87,0.73,0.55,-52.239,-37.763400000000004,29.208199999999998,175,75
2026-05-09 15:09:05.249,3,0.87,0.94,0.42,-93.209,-45.8134,-5.7918,175,75
2026-05-09 15:09:05.249,3,0.47,0.98,0.19,-136.379,-39.293400000000005,-4.271800000000001,175,75
2026-05-09 15:09:05.263,3,0.51,0.91,0.04,-165.529,-79.2934,-40.421800000000005,175,75
2026-05-09 15:09:05.273,3,0.46,0.89,0.07,-190.279,-58.9234,-37.0118,175,75
2026-05-09 15:09:05.284,3,0.45,0.7,0.31,-200.959,-50.513400000000004,-36.8918,175,75
2026-05-09 15:09:05.291,3,0.52,0.52,0.43,-208.759,-72.0334,-42.741800000000005,175,75
2026-05-09 15:09:05.317,3,-0.03,0.45,0.5,-208.759,-57.523399999999995,-19.391800000000003,175,75
2026-05-09 15:09:05.333,3,-0.46,0.6,1.29,-207.779,-53.683400000000006,-27.991800000000005,175,75
2026-05-09 15:09:05.343,3,-0.37,1.24,2.55,-212.299,-161.4834,-24.571800000000003,175,75
2026-05-09 15:09:05.354,3,-0.4,1.52,3.45,-201.319,-259.8434,-12.801800000000002,175,75
2026-05-09 15:09:05.365,3,-3.33,3.42,4.88,-157.849,-248.0134,123.35820000000001,175,75
2026-05-09 15:09:05.377,3,-7.54,5.1,5.91,-66.07900000000001,-290.6334,374.1482,175,75
2026-05-09 15:09:05.390,3,-5.92,2.36,7.61,197.761,-163.3134,363.35819999999995,175,75
2026-05-09 15:09:05.406,3,8.09,-4.35,1.75,36.611000000000004,-744.9634,-75.06179999999999,175,75
2026-05-09 15:09:05.406,3,0.16,0.8,-0.22,-136.629,-616.2434,399.9982,175,75
2026-05-09 15:09:05.440,3,-0.03,0.31,0.75,132.281,443.39660000000003,7.0782,175,75
2026-05-09 15:09:05.451,3,0.07,-0.22,1.87,164.471,372.0466,75.4282,175,75
2026-05-09 15:09:05.462,3,-1.88,-1.01,2.36,101.791,189.7966,45.368199999999995,175,75
2026-05-09 15:09:05.477,3,-1.13,-1.46,2.01,73.071,98.3366,26.218200000000003,175,75
2026-05-09 15:09:05.489,3,-1.38,-0.84,2.55,34.900999999999996,41.866600000000005,32.6882,175,75
2026-05-09 15:09:05.499,3,-0.02,-1.0,1.93,25.321,-98.0734,32.8682,175,75
2026-05-09 15:09:05.512,3,0.02,-0.81,1.13,20.261,-153.37339999999998,82.8682,175,75
2026-05-09 15:09:05.512,3,-0.57,-1.26,0.79,43.981,-132.40339999999998,105.1182,175,75
2026-05-09 15:09:05.527,3,-0.51,-1.44,0.38,83.80099999999999,-114.65339999999999,93.2282,175,75
2026-05-09 15:09:05.540,3,-0.39,-1.22,0.12,115.93100000000001,-72.5834,100.9182,175,75
2026-05-09 15:09:05.557,3,0.17,-1.42,1.03,146.61100000000002,-60.873400000000004,137.4382,175,75
2026-05-09 15:09:05.575,3,0.18,-1.64,0.86,131.971,-138.74339999999998,165.3682,175,75
2026-05-09 15:09:05.587,3,0.72,-1.85,1.09,134.171,-142.09339999999997,152.6182,175,75
2026-05-09 15:09:05.598,3,1.35,-1.84,1.32,138.071,-158.86339999999998,134.1482,175,75
2026-05-09 15:09:05.618,3,-0.99,-0.34,1.48,134.961,-137.64339999999999,234.75820000000002,175,75
2026-05-09 15:09:05.639,3,-1.53,-0.81,0.8,121.36099999999999,-149.3534,235.2482,175,75
2026-05-09 15:09:05.662,3,-0.09,-0.36,1.46,169.591,98.5766,97.1982,175,75
2026-05-09 15:09:05.674,3,0.62,-0.46,1.35,104.84100000000001,-38.43339999999999,96.5282,175,75
2026-05-09 15:09:05.685,3,-0.44,0.64,1.39,102.761,25.7066,71.76820000000001,175,75
2026-05-09 15:09:05.711,3,-0.1,-0.24,2.08,35.631,-8.863399999999999,98.4782,175,75
2026-05-09 15:09:05.722,3,-0.31,0.09,1.26,-47.969,-66.6634,58.5982,175,75
2026-05-09 15:09:05.728,3,-0.29,0.42,0.84,-81.07900000000001,-9.653399999999998,43.1082,175,75
2026-05-09 15:09:05.742,3,-0.06,0.47,1.28,-126.019,3.936600000000002,22.9882,175,75
2026-05-09 15:09:05.755,3,-0.06,0.75,1.4,-173.57899999999998,-40.023399999999995,7.9281999999999995,175,75
2026-05-09 15:09:05.779,3,-0.23,0.88,1.35,-206.13899999999998,-31.4834,1.4082,175,75
2026-05-09 15:09:05.779,3,-0.03,0.68,1.38,-238.939,-38.07339999999999,-31.031800000000004,175,75
2026-05-09 15:09:05.797,3,0.19,0.64,1.22,-280.469,-58.1934,-54.3918,175,75
2026-05-09 15:09:05.807,3,0.13,0.68,1.08,-320.03900000000004,-47.0334,-68.4118,175,75
2026-05-09 15:09:05.816,3,0.02,0.62,1.21,-347.719,-26.853399999999997,-86.28179999999999,175,75
2026-05-09 15:09:05.825,3,0.08,0.58,1.45,-368.269,-42.523399999999995,-111.03179999999999,175,75
2026-05-09 15:09:05.832,3,0.15,0.55,1.64,-382.84900000000005,-68.6234,-117.86179999999999,175,75
2026-05-09 15:09:05.839,3,0.02,0.61,1.68,-399.48900000000003,-79.4134,-117.0718,175,75
2026-05-09 15:09:05.863,3,-0.01,0.64,1.61,-401.259,-76.7334,-120.18179999999998,175,75
2026-05-09 15:09:05.863,3,0.11,0.57,1.73,-399.60900000000004,-55.57340000000001,-123.4718,175,75
2026-05-09 15:09:05.874,3,-0.07,0.54,1.94,-394.249,-31.603399999999997,-124.45179999999999,175,75
2026-05-09 15:09:05.883,3,-0.22,0.48,2.06,-370.959,-19.2334,-151.46179999999998,175,75
2026-05-09 15:09:05.894,3,-0.25,0.55,2.08,-347.35900000000004,-6.673399999999997,-167.6218,175,75
2026-05-09 15:09:05.907,3,-0.31,0.56,2.09,-325.709,17.416600000000003,-166.7018,175,75
2026-05-09 15:09:05.918,3,-0.49,0.56,2.21,-300.219,39.6766,-172.0118,175,75
2026-05-09 15:09:05.941,3,-0.96,0.7,2.65,-205.82899999999998,80.4666,-154.5118,175,75
2026-05-09 15:09:05.955,3,-0.88,0.68,2.58,-174.429,78.5166,-147.3118,175,75
2026-05-09 15:09:05.964,3,-0.62,0.7,2.5,-145.529,76.8066,-143.8418,175,75
2026-05-09 15:09:05.981,3,-0.44,0.84,2.64,-117.41900000000001,47.5366,-134.2018,175,75
2026-05-09 15:09:05.981,3,-1.51,1.51,2.82,-113.32900000000001,43.4566,-97.0718,175,75
2026-05-09 15:09:05.994,3,-4.58,2.56,2.64,-142.299,55.096599999999995,47.3182,175,75
2026-05-09 15:09:06.018,3,-4.2,0.3,5.85,372.70099999999996,469.0066,146.8282,175,75
2026-05-09 15:09:06.044,3,3.66,-0.15,1.63,-91.929,-473.3134,287.1982,175,75
2026-05-09 15:09:06.044,3,-2.44,0.92,0.81,-79.309,-384.5934,441.40819999999997,175,75
2026-05-09 15:09:06.066,3,-2.69,-0.31,-0.82,155.931,0.09660000000000224,75.9782,175,75
2026-05-09 15:09:06.066,3,-0.67,0.45,0.37,256.971,302.1766,-58.1718,175,75
2026-05-09 15:09:06.087,3,0.16,0.05,3.26,121.36099999999999,4.736600000000001,146.7682,175,75
2026-05-09 15:09:06.109,3,-1.05,0.02,2.1,68.681,-142.7634,138.1082,175,75
2026-05-09 15:09:06.135,3,-1.08,0.31,1.14,67.64099999999999,-61.0634,63.968199999999996,175,75
2026-05-09 15:09:06.145,3,-0.96,0.2,1.18,66.481,-36.6734,55.6682,175,75
2026-05-09 15:09:06.158,3,-0.82,-0.11,1.42,64.721,-33.743399999999994,45.5482,175,75
2026-05-09 15:09:06.167,3,-0.67,-0.33,1.42,65.201,-51.24340000000001,40.3082,175,75
2026-05-09 15:09:06.196,3,-0.24,-1.02,1.18,96.791,-20.2034,49.2682,175,75
2026-05-09 15:09:06.210,3,-0.03,-1.15,1.15,103.981,-31.853399999999997,74.4482,175,75
2026-05-09 15:09:06.222,3,0.07,-1.41,1.12,105.14099999999999,-43.8634,102.07820000000001,175,75
2026-05-09 15:09:06.247,3,0.45,-1.67,0.94,99.411,-100.6934,136.4682,175,75
2026-05-09 15:09:06.263,3,0.63,-1.5,1.01,102.281,-132.52339999999998,137.8082,175,75
2026-05-09 15:09:06.293,3,-0.51,-0.32,1.7,126.18100000000001,-82.8234,150.4882,175,75
2026-05-09 15:09:06.349,3,-0.63,0.12,1.23,112.281,-36.7334,74.1482,175,75
2026-05-09 15:09:06.350,3,0.24,-0.05,0.74,86.30099999999999,-78.6234,17.438200000000002,175,75
2026-05-09 15:09:06.360,3,-0.0,0.6,0.46,67.09100000000001,4.186600000000002,8.8382,175,75
2026-05-09 15:09:06.381,3,0.07,0.05,0.42,36.120999999999995,67.17660000000001,24.4482,175,75
2026-05-09 15:09:06.391,3,0.03,-0.14,0.48,12.091000000000001,22.9066,-39.5118,175,75
2026-05-09 15:09:06.403,3,-0.24,0.36,0.19,-12.908999999999999,52.3566,-72.7418,175,75
2026-05-09 15:09:06.403,3,-0.26,0.6,0.44,-32.479,128.4566,-78.9018,175,75
2026-05-09 15:09:06.417,3,-0.24,0.63,0.89,-58.148999999999994,122.2966,-103.53179999999999,175,75
2026-05-09 15:09:06.428,3,-0.39,0.81,1.1,-82.84899999999999,102.6566,-124.5718,175,75
2026-05-09 15:09:06.441,3,-0.35,0.74,1.31,-100.709,82.5966,-145.3018,175,75
2026-05-09 15:09:06.459,3,-0.35,0.66,1.32,-121.25899999999999,51.376599999999996,-164.9418,175,75
2026-05-09 15:09:06.470,3,-0.32,0.6,1.23,-139.249,25.2266,-176.9518,175,75
2026-05-09 15:09:06.508,3,-0.46,0.31,1.16,-223.69899999999998,-48.373400000000004,-209.3318,175,75
2026-05-09 15:09:06.519,3,-0.49,0.27,1.24,-235.82899999999998,-40.2034,-208.0518,175,75
2026-05-09 15:09:06.531,3,-0.53,0.2,1.32,-250.09900000000002,-49.2334,-206.3418,175,75
2026-05-09 15:09:06.568,3,-0.73,-0.06,1.51,-273.209,-16.543400000000002,-202.1318,175,75
2026-05-09 15:09:06.579,3,-0.79,-0.22,1.53,-275.889,-4.653399999999998,-198.9018,175,75
2026-05-09 15:09:06.591,3,-0.74,-0.27,1.57,-271.499,10.096600000000002,-202.1918,175,75
2026-05-09 15:09:06.606,3,-0.8,-0.25,2.0,-247.969,29.006600000000002,-172.4418,175,75
2026-05-09 15:09:06.637,3,-1.14,0.25,2.62,-213.089,-34.413399999999996,-136.0918,175,75
2026-05-09 15:09:06.651,3,-1.25,0.51,2.68,-190.529,-58.2534,-106.4618,175,75
2026-05-09 15:09:06.667,3,-1.16,0.78,2.39,-128.879,-62.3434,-41.0918,175,75
2026-05-09 15:09:06.678,3,-1.01,0.77,2.3,-81.13900000000001,-48.07340000000001,-18.961800000000004,175,75
2026-05-09 15:09:06.690,3,-0.84,0.87,2.31,-28.149,-13.563399999999998,5.2482,175,75
2026-05-09 15:09:06.699,3,-0.7,0.93,2.45,30.081,20.0366,29.388199999999998,175,75
2026-05-09 15:09:06.713,3,-0.51,0.91,2.39,71.971,37.8466,39.8182,175,75
2026-05-09 15:09:06.724,3,-0.31,0.57,1.88,97.40100000000001,41.8066,52.078199999999995,175,75
2026-05-09 15:09:06.724,3,-1.07,1.09,2.01,140.811,115.8366,52.078199999999995,175,75
2026-05-09 15:09:06.748,3,-0.21,0.3,0.7,116.001,-5.3233999999999995,92.8682,175,75
2026-05-09 15:09:06.760,3,0.53,-0.87,-2.18,-31.569000000000003,-237.27339999999998,145.5482,175,75
2026-05-09 15:09:06.760,3,-1.33,-1.45,-1.7,-33.029,-57.153400000000005,109.1482,175,75
2026-05-09 15:09:06.793,3,-1.21,0.01,5.22,396.541,247.41660000000002,93.10820000000001,175,75
2026-05-09 15:09:06.808,3,2.58,0.6,2.54,150.261,-190.2034,-4.021800000000001,175,75
2026-05-09 15:09:06.818,3,-0.26,1.26,0.98,51.241,-118.4934,276.21819999999997,175,75
2026-05-09 15:09:06.829,3,-1.18,0.17,0.95,75.87100000000001,-53.13340000000001,207.6182,175,75
2026-05-09 15:09:06.840,3,-1.07,0.14,1.18,141.36100000000002,29.486600000000003,52.618199999999995,175,75
2026-05-09 15:09:06.868,3,-0.96,0.38,1.67,64.351,-48.13340000000001,108.7782,175,75
2026-05-09 15:09:06.874,3,-0.83,0.12,1.42,64.781,7.176600000000002,71.3382,175,75
2026-05-09 15:09:06.904,3,-0.59,-0.05,1.57,50.081,-47.5834,65.6682,175,75
2026-05-09 15:09:06.904,3,-0.96,0.04,1.37,50.141,-45.7534,53.718199999999996,175,75
2026-05-09 15:09:06.920,3,-0.95,-0.06,1.29,49.471,-21.9734,35.4282,175,75
2026-05-09 15:09:06.953,3,-0.67,-0.21,1.57,33.071,-22.033399999999997,-2.3118,175,75
2026-05-09 15:09:06.966,3,-0.62,-1.01,1.33,33.071,-10.3234,-21.461800000000004,175,75
2026-05-09 15:09:06.979,3,-0.4,-1.59,1.05,31.301,-26.363399999999995,-14.391800000000002,175,75
2026-05-09 15:09:07.002,3,-0.19,-1.93,0.78,46.061,-24.8434,-8.1118,175,75
2026-05-09 15:09:07.012,3,0.07,-1.94,0.73,54.961,-10.7534,1.5282,175,75
2026-05-09 15:09:07.028,3,0.62,-2.07,0.27,55.321,-62.763400000000004,56.5882,175,75
2026-05-09 15:09:07.041,3,0.82,-2.03,-0.12,53.431,-99.71340000000001,65.54820000000001,175,75
2026-05-09 15:09:07.041,3,0.34,-1.22,-0.05,48.561,-67.5834,89.63820000000001,175,75
2026-05-09 15:09:07.062,3,0.01,-0.74,0.48,59.041,-44.8434,107.6182,175,75
2026-05-09 15:09:07.072,3,0.13,0.02,0.86,89.351,-60.32340000000001,81.2782,175,75
2026-05-09 15:09:07.085,3,-0.87,1.34,0.9,79.781,-54.71340000000001,82.9882,175,75
2026-05-09 15:09:07.099,3,-0.16,1.35,0.43,25.261,-26.3034,43.968199999999996,175,75
2026-05-09 15:09:07.110,3,1.61,1.37,-0.18,-48.459,-26.853399999999997,-12.0118,175,75
2026-05-09 15:09:07.121,3,0.71,1.77,0.2,-137.779,-42.153400000000005,-2.8018,175,75
2026-05-09 15:09:07.133,3,1.12,1.78,-0.84,-234.489,-71.9134,-75.73179999999999,175,75
2026-05-09 15:09:07.154,3,0.7,1.12,-0.35,-278.579,-2.5233999999999988,-70.2418,175,75
2026-05-09 15:09:07.164,3,0.29,0.7,0.4,-302.59900000000005,-3.563399999999998,-110.2418,175,75
2026-05-09 15:09:07.190,3,-0.4,0.18,1.05,-325.529,-27.5834,-102.7418,175,75
2026-05-09 15:09:07.201,3,-1.06,-0.17,1.97,-301.98900000000003,-0.9333999999999989,-102.92179999999999,175,75
2026-05-09 15:09:07.246,3,-0.74,1.75,2.45,-220.469,-215.4534,5.4282,175,75
2026-05-09 15:09:07.259,3,-6.92,3.92,4.53,-70.769,-76.5434,345.60819999999995,175,75
2026-05-09 15:09:07.289,3,-1.2,-1.93,4.95,392.221,226.6866,-30.181800000000003,175,75
2026-05-09 15:09:07.310,3,4.2,-0.27,0.45,6.611,-216.8534,172.6182,175,75
2026-05-09 15:09:07.321,3,-2.17,-2.04,-0.73,138.131,231.8066,84.99820000000001,175,75
2026-05-09 15:09:07.332,3,-0.73,-3.56,0.27,221.911,160.09660000000002,-120.12180000000001,175,75
2026-05-09 15:09:07.343,3,0.85,-0.52,3.34,267.82099999999997,381.6866,-77.25179999999999,175,75
2026-05-09 15:09:07.363,3,-0.18,0.6,3.26,71.911,-145.6934,149.3282,175,75
2026-05-09 15:09:07.374,3,-0.87,0.72,0.46,-6.808999999999999,-210.02339999999998,129.5782,175,75
2026-05-09 15:09:07.389,3,-1.81,0.82,0.44,62.091,46.0166,93.4782,175,75
2026-05-09 15:09:07.389,3,-0.5,0.26,1.7,70.811,107.4766,6.9482,175,75
2026-05-09 15:09:07.411,3,0.4,0.43,1.7,23.131,-73.9834,59.938199999999995,175,75
2026-05-09 15:09:07.422,3,-0.8,0.56,0.82,0.8109999999999999,-150.99339999999998,108.5382,175,75
2026-05-09 15:09:07.431,3,-1.63,0.44,0.46,2.3409999999999997,-16.7334,62.438199999999995,175,75
2026-05-09 15:09:07.431,3,-0.59,-0.07,1.15,30.811,83.3366,-0.061799999999999855,175,75
2026-05-09 15:09:07.449,3,0.2,-0.12,1.88,21.361,21.9266,13.0482,175,75
2026-05-09 15:09:07.460,3,-0.33,0.04,1.59,4.351,-60.0834,62.618199999999995,175,75
2026-05-09 15:09:07.472,3,-0.98,0.19,1.17,2.701,-55.57340000000001,51.038199999999996,175,75
2026-05-09 15:09:07.483,3,-0.71,0.29,1.05,12.401,-0.6333999999999982,15.2482,175,75
2026-05-09 15:09:07.509,3,-0.77,0.19,1.21,1.4210000000000003,-16.7334,18.7182,175,75
2026-05-09 15:09:07.529,3,-0.61,0.3,1.28,-3.3290000000000006,-1.4833999999999996,-0.24179999999999957,175,75
2026-05-09 15:09:07.543,3,-0.58,0.18,1.31,-11.379000000000001,-32.82339999999999,-1.091800000000001,175,75
2026-05-09 15:09:07.565,3,-0.61,0.06,1.2,-11.259,-46.9734,-5.181800000000001,175,75
2026-05-09 15:09:07.577,3,-0.82,0.19,1.31,-9.919,-63.683400000000006,-17.3818,175,75
2026-05-09 15:09:07.593,3,-0.64,0.17,1.48,-27.418999999999997,-90.2634,-31.2218,175,75
2026-05-09 15:09:07.616,3,-0.77,-0.39,1.41,-41.569,-83.4334,-37.921800000000005,175,75
2026-05-09 15:09:07.632,3,-0.63,-0.66,1.3,-42.719,-103.3734,-42.4418,175,75
2026-05-09 15:09:07.643,3,-0.74,-0.75,1.11,-38.029,-98.5634,-35.7918,175,75
2026-05-09 15:09:07.670,3,-0.23,-0.89,1.14,-37.779,-126.2434,-31.5818,175,75
2026-05-09 15:09:07.670,3,-0.24,-1.01,0.99,-43.699,-150.8134,-11.641800000000002,175,75
2026-05-09 15:09:07.684,3,-0.04,-0.94,0.77,-40.649,-148.9234,-21.2218,175,75
2026-05-09 15:09:07.709,3,0.35,-0.24,0.78,-34.739,-113.7434,-5.7318,175,75
2026-05-09 15:09:07.741,3,0.16,0.51,0.95,-9.429,-53.1934,-2.8018,175,75
2026-05-09 15:09:07.798,3,-0.63,1.1,1.16,48.981,101.1966,-0.42180000000000106,175,75
2026-05-09 15:09:07.848,3,0.62,0.96,0.7,-67.35900000000001,21.506600000000002,-55.4218,175,75
2026-05-09 15:09:07.859,3,0.75,0.73,0.39,-99.679,-36.543400000000005,-67.6218,175,75
2026-05-09 15:09:07.871,3,0.63,0.77,0.81,-122.969,-52.6434,-64.39179999999999,175,75
2026-05-09 15:09:07.880,3,-0.86,1.79,2.48,-125.529,-26.9734,-28.111800000000002,175,75
2026-05-09 15:09:07.987,3,-1.6,-0.77,-0.23,30.391,78.3966,46.468199999999996,175,75
2026-05-09 15:09:07.987,3,-1.49,-0.7,0.7,50.751,171.0766,11.7682,175,75
2026-05-09 15:09:08.007,3,0.04,-0.88,2.48,21.851,-6.673399999999997,17.6182,175,75
2026-05-09 15:09:08.043,3,-0.22,-0.61,1.09,22.581,-79.8434,66.8882,175,75
2026-05-09 15:09:08.065,3,-0.47,-0.49,0.81,49.041,-35.1434,72.1382,175,75
2026-05-09 15:09:08.077,3,-0.17,-0.68,1.12,69.041,-39.5934,85.7282,175,75
2026-05-09 15:09:08.088,3,-0.28,-0.65,1.0,77.09100000000001,-56.913399999999996,104.5082,175,75
2026-05-09 15:09:08.101,3,-0.09,-0.77,1.0,87.52099999999999,-60.023399999999995,110.9782,175,75
2026-05-09 15:09:08.135,3,0.43,-1.11,1.28,92.09100000000001,-143.86339999999998,148.6582,175,75
2026-05-09 15:09:08.155,3,0.58,-1.34,1.3,82.58099999999999,-193.43339999999998,153.1682,175,75
2026-05-09 15:09:08.199,3,-1.02,-0.09,1.39,169.17100000000002,-8.0734,125.6682,175,75
2026-05-09 15:09:08.203,3,-1.0,-0.05,1.48,184.961,5.956600000000002,89.0282,175,75
2026-05-09 15:09:08.252,3,-0.16,0.23,0.61,100.631,-5.5733999999999995,43.5982,175,75
2026-05-09 15:09:08.262,3,-0.14,0.71,0.76,89.90100000000001,55.226600000000005,24.388199999999998,175,75
2026-05-09 15:09:08.301,3,-0.48,0.42,1.0,-3.269,-34.293400000000005,15.1182,175,75
2026-05-09 15:09:08.311,3,-0.4,0.67,0.52,-25.959000000000003,10.956600000000002,-4.8118,175,75
2026-05-09 15:09:08.344,3,-0.14,0.79,1.13,-136.07899999999998,9.6766,-74.5118,175,75
2026-05-09 15:09:08.435,3,-0.4,0.4,1.38,-265.279,-31.423399999999997,-172.3118,175,75
2026-05-09 15:09:08.546,3,-2.42,1.34,3.01,-78.939,60.5266,-23.4718,175,75
2026-05-09 15:09:08.557,3,-3.8,2.2,4.0,40.811,112.4166,36.0982,175,75
2026-05-09 15:09:08.568,3,-5.95,3.08,5.37,120.451,135.3466,273.10819999999995,175,75
2026-05-09 15:09:08.639,3,0.43,0.56,2.16,105.261,153.5766,92.5582,175,75
2026-05-09 15:09:08.653,3,-0.92,0.08,2.18,50.571,-50.263400000000004,104.5082,175,75
2026-05-09 15:09:08.668,3,-0.66,0.02,1.64,49.041,-76.9734,85.9182,175,75
2026-05-09 15:09:08.675,3,-0.64,0.28,1.33,21.481,-98.6234,99.93820000000001,175,75
2026-05-09 15:09:08.693,3,-0.96,0.37,1.08,27.151,-85.1434,82.07820000000001,175,75
2026-05-09 15:09:08.730,3,-0.76,0.11,1.15,48.501,-0.32339999999999947,46.038199999999996,175,75
2026-05-09 15:09:08.740,3,-0.57,-0.43,1.36,49.411,-23.073399999999996,33.6582,175,75
2026-05-09 15:09:08.750,3,-0.51,-0.46,1.34,59.721,-12.703399999999998,36.038199999999996,175,75
2026-05-09 15:09:08.784,3,0.11,-0.88,1.4,74.59100000000001,-32.46339999999999,80.3082,175,75
2026-05-09 15:09:08.870,3,-0.74,0.39,1.73,102.221,-40.513400000000004,101.0982,175,75
2026-05-09 15:09:08.880,3,-0.87,0.7,1.62,101.001,-35.2034,103.5982,175,75
2026-05-09 15:09:08.885,3,-0.79,0.78,1.31,102.09100000000001,-40.2034,94.32820000000001,175,75
2026-05-09 15:09:08.930,3,-0.15,0.27,0.78,59.231,-27.7634,43.3582,175,75
2026-05-09 15:09:08.975,3,0.08,0.01,0.59,-24.799,20.7666,-37.8618,175,75
2026-05-09 15:09:08.975,3,-0.03,0.23,0.47,-47.969,34.7966,-56.641799999999996,175,75
2026-05-09 15:09:09.012,3,-0.06,0.4,0.96,-100.34899999999999,31.436600000000002,-89.2718,175,75
2026-05-09 15:09:09.016,3,-0.22,0.53,1.07,-134.249,7.906600000000001,-100.67179999999999,175,75
2026-05-09 15:09:09.029,3,-0.22,0.45,1.17,-152.599,-3.7433999999999976,-115.3018,175,75
2026-05-09 15:09:09.036,3,-0.18,0.36,1.24,-174.249,-21.063399999999998,-126.2218,175,75
2026-05-09 15:09:09.077,3,-0.26,0.14,1.15,-240.769,-69.6534,-142.1318,175,75
2026-05-09 15:09:09.125,3,-0.49,-0.16,1.23,-281.319,-41.0634,-134.2018,175,75
2026-05-09 15:09:09.139,3,-0.54,-0.18,1.39,-280.829,-30.8734,-129.8118,175,75
2026-05-09 15:09:09.365,3,-1.17,1.17,1.39,77.09100000000001,-117.09339999999999,218.4182,175,75
2026-05-09 15:09:09.388,3,0.67,0.09,2.7,40.571,-96.9734,119.6982,175,75
2026-05-09 15:09:09.458,3,-0.62,0.05,1.71,36.731,-40.32339999999999,50.188199999999995,175,75
2026-05-09 15:09:09.469,3,-0.97,0.04,1.35,29.471,-32.153400000000005,26.3382,175,75
2026-05-09 15:09:09.565,3,-0.66,-0.81,1.14,-24.859,-65.9334,-14.6318,175,75
2026-05-09 15:09:09.635,3,0.7,-0.41,0.6,-51.749,-161.6034,67.3182,175,75
2026-05-09 15:09:09.652,3,-0.68,0.84,1.03,-23.029,-137.64339999999999,104.8782,175,75
2026-05-09 15:09:09.740,3,0.9,1.42,0.72,-154.309,-70.7534,-21.3418,175,75
2026-05-09 15:09:09.760,3,0.64,0.57,0.33,-243.209,-134.4734,-47.8618,175,75
2026-05-09 15:09:09.774,3,-0.05,0.39,1.39,-248.32899999999998,-99.2934,-56.2818,175,75
2026-05-09 15:09:09.794,3,-0.25,0.49,3.24,-157.049,-118.37339999999999,-70.1818,175,75
2026-05-09 15:09:09.834,3,5.0,-2.2,1.86,186.61100000000002,-168.3134,-169.6318,175,75
2026-05-09 15:09:09.913,3,-1.66,-0.1,1.79,90.691,123.6366,26.4082,175,75
2026-05-09 15:09:10.042,3,-0.57,0.33,1.55,-21.139,-63.1934,26.828200000000002,175,75
2026-05-09 15:09:10.074,3,-0.76,0.06,1.17,-14.309000000000001,-44.8434,16.4082,175,75
2026-05-09 15:09:10.118,3,-0.69,0.18,1.34,-38.089,-58.1934,-10.7918,175,75
2026-05-09 15:09:10.129,3,-0.84,0.12,1.37,-43.149,-59.96340000000001,-18.171799999999998,175,75
2026-05-09 15:09:10.144,3,-0.88,0.14,1.44,-47.719,-68.9234,-27.561800000000005,175,75
2026-05-09 15:09:10.156,3,-0.82,0.13,1.45,-55.219,-86.60340000000001,-34.631800000000005,175,75
2026-05-09 15:09:10.167,3,-0.7,-0.14,1.25,-69.799,-119.7134,-35.9118,175,75
2026-05-09 15:09:10.210,3,-0.72,-0.65,1.12,-54.679,-91.7934,-46.7018,175,75
2026-05-09 15:09:10.247,3,-0.41,-0.61,1.15,-60.469,-131.12339999999998,-39.3918,175,75
2026-05-09 15:09:10.259,3,-0.2,-0.57,0.78,-63.639,-152.46339999999998,-25.421800000000005,175,75
2026-05-09 15:09:10.259,3,-0.16,-0.44,0.61,-63.579,-138.9834,-14.6318,175,75
2026-05-09 15:09:10.281,3,-0.08,0.17,0.53,-54.799,-120.1434,-4.331799999999999,175,75
2026-05-09 15:09:10.329,3,-0.7,1.02,0.77,-10.649000000000001,-32.5834,16.2182,175,75
2026-05-09 15:09:10.356,3,-0.66,1.19,1.07,2.951,2.116600000000002,30.428199999999997,175,75
2026-05-09 15:09:10.356,3,0.61,0.57,0.56,-55.709,-73.9834,29.4482,175,75
2026-05-09 15:09:10.364,3,0.49,0.87,0.13,-81.929,-30.6934,21.888199999999998,175,75
2026-05-09 15:09:10.374,3,0.1,1.02,0.25,-86.499,35.3466,30.3082,175,75
2026-05-09 15:09:10.483,3,-1.03,1.86,2.94,-78.32900000000001,40.2866,42.8082,175,75
2026-05-09 15:09:10.483,3,-2.25,2.9,4.37,3.741,33.6366,91.3382,175,75
2026-05-09 15:09:10.500,3,-5.2,2.78,6.65,89.781,-79.10340000000001,296.27819999999997,175,75
2026-05-09 15:09:10.523,3,1.86,0.93,0.85,-90.15899999999999,-494.23339999999996,196.7682,175,75
2026-05-09 15:09:10.541,3,1.15,-0.73,0.47,119.471,130.8966,-43.4118,175,75
2026-05-09 15:09:10.551,3,0.29,-0.11,0.55,61.421,204.3066,87.2582,175,75
2026-05-09 15:09:10.551,3,-1.17,-0.36,0.47,52.151,188.5766,85.79820000000001,175,75
2026-05-09 15:09:10.562,3,-2.06,-0.06,0.49,64.961,238.5766,35.4882,175,75
2026-05-09 15:09:10.570,3,-1.66,0.03,1.13,52.031,215.9566,24.818199999999997,175,75
2026-05-09 15:09:10.581,3,-0.88,-0.16,1.7,-4.9190000000000005,9.186600000000002,53.8382,175,75
2026-05-09 15:09:10.603,3,-0.56,-0.28,1.38,-16.989,-83.0734,20.7282,175,75
2026-05-09 15:09:10.613,3,-0.53,-0.84,1.48,-8.209,-50.023399999999995,11.1582,175,75
2026-05-09 15:09:10.640,3,-0.2,-0.32,1.48,1.1209999999999996,-48.8634,15.7982,175,75
2026-05-09 15:09:10.642,3,-0.38,-0.23,1.32,4.111,-44.5934,23.5382,175,75
2026-05-09 15:09:10.698,3,-0.37,-0.46,1.01,26.301,-60.023399999999995,45.9182,175,75
2026-05-09 15:09:10.698,3,-0.19,-0.35,1.06,37.521,-66.3034,52.3182,175,75
2026-05-09 15:09:10.727,3,-0.03,-0.26,1.04,43.681,-81.24340000000001,66.8282,175,75
2026-05-09 15:09:10.743,3,-0.01,-0.26,0.98,50.511,-88.8634,82.8082,175,75
2026-05-09 15:09:10.743,3,0.07,-0.33,0.94,63.131,-82.0334,97.68820000000001,175,75
2026-05-09 15:09:10.754,3,0.14,-0.43,0.99,72.46100000000001,-75.2034,116.7082,175,75
2026-05-09 15:09:10.777,3,0.27,-0.61,1.27,81.67099999999999,-89.4134,147.4982,175,75
2026-05-09 15:09:10.777,3,0.34,-0.63,1.36,78.86099999999999,-100.5134,164.6982,175,75
2026-05-09 15:09:10.801,3,0.2,-0.48,1.51,83.62100000000001,-121.12339999999999,168.0482,175,75
2026-05-09 15:09:10.801,3,-0.31,-0.07,1.51,81.61099999999999,-115.9934,181.2182,175,75
2026-05-09 15:09:10.812,3,-1.1,0.11,1.55,80.87100000000001,-100.0834,187.00820000000002,175,75
2026-05-09 15:09:10.838,3,-0.96,-0.02,1.99,86.24100000000001,-49.413399999999996,147.9882,175,75
2026-05-09 15:09:10.842,3,-0.84,0.0,2.17,80.39099999999999,-62.3434,151.03820000000002,175,75
2026-05-09 15:09:10.876,3,-0.64,-0.05,1.35,46.241,-121.5434,133.2982,175,75
2026-05-09 15:09:10.915,3,-0.5,0.69,0.82,9.651,-0.6933999999999969,82.74820000000001,175,75
2026-05-09 15:09:10.931,3,-0.57,0.66,1.08,-13.759,52.6566,107.2582,175,75
2026-05-09 15:09:10.954,3,-0.16,0.41,0.69,-69.97900000000001,-43.07339999999999,43.538199999999996,175,75
2026-05-09 15:09:10.954,3,-0.05,0.4,0.71,-102.53899999999999,16.9266,26.468200000000003,175,75
2026-05-09 15:09:10.967,3,0.03,0.52,0.97,-140.349,21.3166,-4.2018,175,75
2026-05-09 15:09:10.978,3,0.03,0.7,1.03,-158.69899999999998,13.876600000000002,-17.4418,175,75
2026-05-09 15:09:10.983,3,-0.01,0.69,1.08,-173.519,10.346600000000002,-31.4018,175,75
2026-05-09 15:09:10.995,3,-0.03,0.66,1.12,-196.569,1.8666000000000018,-57.44180000000001,175,75
2026-05-09 15:09:11.006,3,-0.11,0.71,1.26,-234.309,0.22660000000000124,-96.95179999999999,175,75
2026-05-09 15:09:11.027,3,-0.07,0.6,1.32,-255.58899999999997,-38.9834,-123.3518,175,75
2026-05-09 15:09:11.027,3,-0.03,0.53,1.31,-263.999,-52.763400000000004,-131.2818,175,75
2026-05-09 15:09:11.078,3,-0.42,0.44,1.54,-251.629,-9.473399999999998,-142.4418,175,75
2026-05-09 15:09:11.086,3,-0.49,0.42,1.52,-233.459,-1.183399999999999,-148.6618,175,75
2026-05-09 15:09:11.099,3,-0.46,0.58,1.49,-200.769,33.6366,-153.1118,175,75
2026-05-09 15:09:11.113,3,-0.34,0.72,1.65,-176.689,65.6466,-149.2018,175,75
2026-05-09 15:09:11.127,3,-0.16,0.78,1.83,-162.41899999999998,69.42660000000001,-142.8618,175,75
2026-05-09 15:09:11.137,3,-2.49,1.73,2.18,-156.319,103.4566,-65.5518,175,75
2026-05-09 15:09:11.154,3,-5.71,2.94,2.77,-152.10899999999998,171.9266,89.0882,175,75
2026-05-09 15:09:11.165,3,-4.57,1.7,4.86,142.58100000000002,274.1266,34.2682,175,75
2026-05-09 15:09:11.204,3,5.0,-3.07,6.37,211.911,-58.1934,-226.2218,175,75
2026-05-09 15:09:11.214,3,1.34,1.23,1.62,-65.82900000000001,-426.1234,257.0082,175,75
2026-05-09 15:09:11.214,3,-1.83,-0.66,0.34,-122.299,-313.3134,276.09819999999996,175,75
2026-05-09 15:09:11.225,3,-2.1,-1.28,-1.03,25.571,-89.6534,54.148199999999996,175,75
2026-05-09 15:09:11.225,3,-0.82,-0.01,0.38,171.971,261.8666,-31.461800000000004,175,75
2026-05-09 15:09:11.264,3,-0.32,0.33,2.69,50.631,-76.24340000000001,116.76820000000001,175,75
2026-05-09 15:09:11.286,3,-1.06,0.21,1.14,34.900999999999996,-47.3434,69.2082,175,75
2026-05-09 15:09:11.286,3,-0.88,0.31,1.25,32.821,-55.1434,54.0882,175,75
2026-05-09 15:09:11.339,3,-0.95,-0.38,1.19,40.391,-46.7334,32.8682,175,75
2026-05-09 15:09:11.339,3,-0.76,-0.69,1.3,48.131,-35.993399999999994,25.188200000000002,175,75
2026-05-09 15:09:11.350,3,-0.51,-0.71,1.38,59.231,-36.3634,21.0982,175,75
2026-05-09 15:09:11.360,3,-0.41,-0.69,1.39,66.301,-31.673399999999997,28.538199999999996,175,75
2026-05-09 15:09:11.371,3,-0.19,-0.72,1.4,75.261,-28.9834,29.4482,175,75
2026-05-09 15:09:11.371,3,0.19,-0.88,1.32,80.87100000000001,-32.0934,46.5282,175,75
2026-05-09 15:09:11.383,3,0.31,-1.2,1.2,80.511,-39.653400000000005,72.9882,175,75
2026-05-09 15:09:11.428,3,0.69,-1.28,1.08,93.80099999999999,-68.1934,94.38820000000001,175,75
2026-05-09 15:09:11.480,3,-0.92,0.46,1.06,110.571,-2.1533999999999978,67.1382,175,75
2026-05-09 15:09:11.495,3,-0.92,0.6,1.36,123.191,36.0166,80.9782,175,75
2026-05-09 15:09:11.520,3,-0.33,-0.14,0.73,85.39099999999999,-79.9034,42.7482,175,75
2026-05-09 15:09:11.532,3,-0.23,0.16,0.13,69.17099999999999,-21.603399999999997,-14.2718,175,75
2026-05-09 15:09:11.575,3,0.19,-0.18,0.69,14.531,55.03660000000001,-4.8118,175,75
2026-05-09 15:09:11.582,3,-0.5,0.41,0.22,-39.919,84.61659999999999,-55.6718,175,75
2026-05-09 15:09:11.598,3,-0.29,0.52,1.12,-91.439,43.3266,-93.9018,175,75
2026-05-09 15:09:11.623,3,-0.31,0.47,1.17,-129.489,-11.9134,-128.1718,175,75
2026-05-09 15:09:11.637,3,-0.21,0.44,1.25,-185.709,-55.7534,-160.1218,175,75
2026-05-09 15:09:11.674,3,-0.46,0.29,1.15,-226.259,-82.0334,-177.5618,175,75
2026-05-09 15:09:11.706,3,-0.67,0.1,1.14,-257.23900000000003,-36.85339999999999,-187.68179999999998,175,75
2026-05-09 15:09:11.710,3,-0.76,0.03,1.28,-261.259,-2.0333999999999968,-184.6318,175,75
2026-05-09 15:09:11.749,3,-0.83,-0.25,1.8,-250.46899999999997,32.2966,-183.3518,175,75
2026-05-09 15:09:11.749,3,-0.78,-0.29,1.91,-249.369,27.1766,-182.8618,175,75
2026-05-09 15:09:11.763,3,-0.79,-0.23,2.0,-246.259,12.906600000000001,-174.3918,175,75
2026-05-09 15:09:11.799,3,-0.73,0.47,1.96,-224.97899999999998,-83.6834,-128.96179999999998,175,75
2026-05-09 15:09:11.803,3,-0.83,0.61,1.67,-203.029,-58.74340000000001,-88.6618,175,75
2026-05-09 15:09:11.811,3,-0.75,0.51,1.79,-180.469,-42.46339999999999,-76.4018,175,75
2026-05-09 15:09:11.889,3,-0.24,0.68,1.63,-82.65899999999999,20.1566,-29.391800000000003,175,75
2026-05-09 15:09:11.890,3,-0.3,0.76,1.58,-41.139,67.4166,-26.8318,175,75
2026-05-09 15:09:11.916,3,-1.06,1.32,2.11,112.821,199.6766,62.438199999999995,175,75
2026-05-09 15:09:11.931,3,-1.98,1.28,1.7,120.08099999999999,146.19660000000002,153.6582,175,75
2026-05-09 15:09:11.943,3,0.35,-2.85,-0.31,70.631,-190.2034,81.6482,175,75
2026-05-09 15:09:11.950,3,-5.29,0.2,0.47,104.11099999999999,509.6766,372.9282,175,75
2026-05-09 15:09:11.961,3,-2.45,1.37,3.56,418.801,584.0666,338.47819999999996,175,75
2026-05-09 15:09:11.977,3,-0.59,-1.59,4.66,413.621,-58.9834,-244.1418,175,75
2026-05-09 15:09:11.994,3,0.27,3.03,2.09,133.921,1.076600000000001,230.3082,175,75
2026-05-09 15:09:12.013,3,-1.06,-0.32,1.94,79.90100000000001,-92.3434,112.0082,175,75
2026-05-09 15:09:12.013,3,-0.42,0.55,1.55,123.501,10.7666,60.9182,175,75
2026-05-09 15:09:12.034,3,-1.04,0.25,1.41,39.591,-96.4234,118.5982,175,75
2026-05-09 15:09:12.048,3,-0.54,-0.14,1.48,50.571,75.5266,59.8182,175,75
2026-05-09 15:09:12.054,3,-0.32,-0.27,2.09,37.641,17.416600000000003,70.3082,175,75
2026-05-09 15:09:12.095,3,-0.75,0.06,1.32,-3.5790000000000006,-38.803399999999996,27.258200000000002,175,75
2026-05-09 15:09:12.115,3,-0.73,-0.11,1.41,-13.579,-50.4534,3.7782,175,75
2026-05-09 15:09:12.139,3,-0.71,-0.54,1.06,-13.939,-78.6834,-7.3818,175,75
2026-05-09 15:09:12.152,3,-0.64,-0.94,0.87,-13.209,-71.85340000000001,-7.071800000000001,175,75
2026-05-09 15:09:12.209,3,0.58,-1.62,0.56,5.8709999999999996,-146.9734,56.5282,175,75
2026-05-09 15:09:12.209,3,0.55,-1.22,0.37,3.431,-152.8234,66.40820000000001,175,75
2026-05-09 15:09:12.217,3,0.42,-0.98,0.42,4.651,-140.08339999999998,63.9082,175,75
2026-05-09 15:09:12.243,3,-0.11,-0.33,0.66,15.391,-91.1834,61.468199999999996,175,75
2026-05-09 15:09:12.243,3,-0.27,-0.2,0.74,27.221,-68.74340000000001,76.40820000000001,175,75
2026-05-09 15:09:12.254,3,-0.05,-0.15,0.74,33.131,-56.913399999999996,62.008199999999995,175,75
2026-05-09 15:09:12.264,3,-0.17,0.44,0.75,46.481,-47.46340000000001,46.8882,175,75
2026-05-09 15:09:12.349,3,-0.79,1.4,1.02,42.521,30.9566,39.1482,175,75
2026-05-09 15:09:12.349,3,0.33,1.21,0.74,-0.7690000000000001,16.076600000000003,14.328199999999999,175,75
2026-05-09 15:09:12.369,3,0.79,1.77,-0.11,-140.959,16.076600000000003,-74.75179999999999,175,75
2026-05-09 15:09:12.380,3,0.33,1.3,0.27,-195.409,42.5966,-105.67179999999999,175,75
2026-05-09 15:09:12.391,3,0.3,0.84,0.72,-209.489,16.3766,-127.2518,175,75
2026-05-09 15:09:12.400,3,0.31,0.46,0.7,-223.089,-18.6234,-144.4518,175,75
2026-05-09 15:09:12.419,3,0.32,0.12,0.79,-221.869,5.036600000000002,-119.7518,175,75
2026-05-09 15:09:12.487,3,-0.3,1.28,2.86,-95.15899999999999,-66.24340000000001,-112.0118,175,75
2026-05-09 15:09:12.548,3,-3.64,0.52,-0.32,-27.719,138.2066,260.4282,175,75
2026-05-09 15:09:12.580,3,0.82,-1.62,4.03,180.451,203.2666,-3.4117999999999995,175,75
2026-05-09 15:09:12.580,3,1.37,0.62,2.75,51.001,-104.96340000000001,143.5982,175,75
2026-05-09 15:09:12.592,3,-0.7,0.69,1.49,4.721,-221.7934,226.3382,175,75
2026-05-09 15:09:12.610,3,-2.03,1.32,-0.47,65.87100000000001,22.846600000000002,55.4282,175,75
2026-05-09 15:09:12.635,3,-0.3,0.3,2.06,7.461,-29.2334,35.6682,175,75
2026-05-09 15:09:12.644,3,-0.91,0.22,1.4,-6.439,-67.5834,34.6982,175,75
2026-05-09 15:09:12.644,3,-0.84,-0.08,1.26,6.971,-17.213399999999996,13.598199999999999,175,75
2026-05-09 15:09:12.660,3,-0.14,-0.48,1.39,20.570999999999998,-9.473399999999998,2.1982,175,75
2026-05-09 15:09:12.660,3,-0.26,-0.12,1.36,20.201,-41.243399999999994,29.508200000000002,175,75
2026-05-09 15:09:12.684,3,-0.78,0.34,1.36,13.801,-2.5233999999999988,-10.551800000000002,175,75
2026-05-09 15:09:12.697,3,-0.57,0.32,1.76,-18.519,-80.5134,-10.0618,175,75
2026-05-09 15:09:12.704,3,-0.82,0.2,1.44,-33.639,-97.7634,-12.9918,175,75
2026-05-09 15:09:12.756,3,-0.79,-0.67,1.16,-35.469,-72.46340000000001,-35.851800000000004,175,75
2026-05-09 15:09:12.774,3,-0.66,-0.85,1.23,-31.749000000000002,-56.303399999999996,-46.5218,175,75
2026-05-09 15:09:12.909,3,0.4,-0.6,0.77,-55.589,-141.36339999999998,-15.551800000000002,175,75
2026-05-09 15:09:12.931,3,-0.37,0.8,0.56,48.011,79.0066,1.7081999999999997,175,75
2026-05-09 15:09:12.943,3,-0.34,0.98,1.03,68.86099999999999,115.3466,6.9482,175,75
2026-05-09 15:09:12.957,3,-0.3,0.95,1.48,87.281,109.0666,34.6382,175,75
2026-05-09 15:09:12.969,3,0.46,0.6,0.97,63.981,50.7666,10.3682,175,75
2026-05-09 15:09:12.990,3,0.7,1.04,0.47,-17.359,68.8766,-54.5118,175,75
2026-05-09 15:09:13.002,3,0.72,0.93,0.66,-46.139,73.5766,-69.81179999999999,175,75
2026-05-09 15:09:13.014,3,0.94,0.8,0.21,-105.529,-33.373400000000004,-94.45179999999999,175,75
2026-05-09 15:09:13.033,3,-1.03,1.94,2.53,-140.099,-27.033399999999997,-70.36179999999999,175,75
2026-05-09 15:09:13.050,3,-4.01,1.92,3.73,-108.32900000000001,109.61659999999999,38.2282,175,75
2026-05-09 15:09:13.060,3,-8.56,5.52,6.61,172.821,249.00660000000002,304.9382,175,75
2026-05-09 15:09:13.090,3,4.24,-2.75,-0.32,-30.469,-511.73339999999996,41.468199999999996,175,75
2026-05-09 15:09:13.108,3,-1.21,-0.13,-0.72,85.201,207.72660000000002,-33.781800000000004,175,75
2026-05-09 15:09:13.120,3,-0.02,0.01,1.83,56.301,167.2366,-0.8518000000000008,175,75
2026-05-09 15:09:13.134,3,0.31,-1.0,2.14,15.571,-17.463399999999996,79.0882,175,75
2026-05-09 15:09:13.148,3,-1.25,-1.5,1.68,24.231,-40.263400000000004,63.4182,175,75
2026-05-09 15:09:13.161,3,-0.38,-1.17,1.73,52.221,-3.313399999999998,-0.5518000000000001,175,75
2026-05-09 15:09:13.171,3,0.56,-0.61,1.46,32.150999999999996,-62.0334,39.5782,175,75
2026-05-09 15:09:13.183,3,-0.12,-1.0,1.13,43.621,-46.7334,66.0382,175,75
2026-05-09 15:09:13.187,3,-0.08,-1.11,1.02,73.62100000000001,-10.693399999999997,53.1682,175,75
2026-05-09 15:09:13.198,3,-0.02,-0.96,1.16,91.481,9.006600000000002,71.76820000000001,175,75
2026-05-09 15:09:13.210,3,-0.07,-1.0,1.11,104.96100000000001,-0.7533999999999992,88.5382,175,75
2026-05-09 15:09:13.244,3,0.08,-1.01,1.05,119.471,-38.9834,109.5082,175,75
2026-05-09 15:09:13.244,3,0.09,-0.99,1.04,123.131,-67.3434,119.7582,175,75
2026-05-09 15:09:13.266,3,0.37,-0.98,1.13,121.971,-86.9134,123.4782,175,75
2026-05-09 15:09:13.279,3,0.83,-1.01,1.31,109.59100000000001,-124.2934,123.29820000000001,175,75
2026-05-09 15:09:13.290,3,0.93,-0.92,1.53,105.39099999999999,-156.24339999999998,118.8382,175,75
2026-05-09 15:09:13.301,3,0.37,-0.46,1.41,116.36099999999999,-148.1934,117.6182,175,75
2026-05-09 15:09:13.312,3,-0.55,0.05,1.39,133.431,-78.2534,131.5882,175,75
2026-05-09 15:09:13.319,3,-1.25,0.03,1.42,174.531,-53.5634,137.7482,175,75
2026-05-09 15:09:13.328,3,-1.12,-0.4,1.26,206.731,-32.153400000000005,110.4282,175,75
2026-05-09 15:09:13.343,3,-0.97,-0.45,1.39,213.371,33.5166,65.1182,175,75
2026-05-09 15:09:13.353,3,-0.85,-0.36,1.33,195.201,60.4066,62.3782,175,75
2026-05-09 15:09:13.368,3,-0.49,-0.08,0.89,191.971,31.016600000000004,25.6682,175,75
2026-05-09 15:09:13.390,3,-0.45,0.78,0.45,160.811,138.2666,8.658199999999999,175,75
2026-05-09 15:09:13.414,3,-0.64,0.23,1.34,94.96100000000001,60.586600000000004,20.3082,175,75
2026-05-09 15:09:13.431,3,-0.84,0.52,0.78,75.631,74.2466,-6.6418,175,75
2026-05-09 15:09:13.447,3,-0.23,0.73,1.22,30.811,89.3066,-42.311800000000005,175,75
2026-05-09 15:09:13.458,3,-0.14,1.01,1.28,-3.029,22.236600000000003,-49.0818,175,75
2026-05-09 15:09:13.469,3,-0.31,1.13,1.14,-21.869,4.676600000000002,-47.0718,175,75
2026-05-09 15:09:13.492,3,-0.38,1.06,1.28,-56.569,-16.793400000000002,-87.6818,175,75
2026-05-09 15:09:13.528,3,-0.44,0.8,1.27,-128.089,-76.5434,-121.2818,175,75
2026-05-09 15:09:13.539,3,-0.39,0.77,1.26,-152.539,-94.7734,-137.4418,175,75
2026-05-09 15:09:13.554,3,-0.37,0.74,1.28,-173.759,-107.3434,-140.7918,175,75
2026-05-09 15:09:13.558,3,-0.39,0.7,1.27,-194.60899999999998,-121.85340000000001,-142.8618,175,75
2026-05-09 15:09:13.571,3,-0.46,0.67,1.28,-217.239,-129.65339999999998,-146.8918,175,75
2026-05-09 15:09:13.591,3,-0.38,0.63,1.36,-252.109,-122.7034,-153.2918,175,75
2026-05-09 15:09:13.602,3,-0.43,0.6,1.39,-260.959,-103.5634,-148.9018,175,75
2026-05-09 15:09:13.616,3,-0.49,0.4,1.41,-256.809,-47.273399999999995,-160.0018,175,75
2026-05-09 15:09:13.634,3,-0.45,0.33,1.4,-246.259,-10.083399999999997,-169.6318,175,75
2026-05-09 15:09:13.649,3,-0.44,0.3,1.43,-226.499,37.9066,-174.8818,175,75
2026-05-09 15:09:13.660,3,-0.49,0.34,1.55,-205.82899999999998,80.2866,-178.6618,175,75
2026-05-09 15:09:13.670,3,-0.54,0.48,1.78,-175.039,127.53659999999999,-176.0318,175,75
2026-05-09 15:09:13.670,3,-0.54,0.56,1.96,-154.069,139.4266,-171.6418,175,75
2026-05-09 15:09:13.696,3,-0.47,0.66,2.0,-135.709,131.19660000000002,-164.0818,175,75
2026-05-09 15:09:13.718,3,-2.68,1.99,2.6,-80.15899999999999,169.12660000000002,-72.6818,175,75
2026-05-09 15:09:13.729,3,-3.59,2.18,3.85,17.761,200.9566,32.4982,175,75
2026-05-09 15:09:13.744,3,-3.03,1.94,4.68,184.17100000000002,206.37660000000002,-9.751800000000001,175,75
2026-05-09 15:09:13.754,3,-3.94,1.92,5.28,158.311,78.3266,211.2182,175,75
2026-05-09 15:09:13.768,3,2.07,-2.29,1.97,150.631,-68.5634,-10.2418,175,75
2026-05-09 15:09:13.777,3,1.97,-0.82,0.0,36.001000000000005,-219.96339999999998,63.2982,175,75
2026-05-09 15:09:13.788,3,-1.91,0.32,-0.01,-28.029000000000003,7.536600000000002,194.5782,175,75
2026-05-09 15:09:13.799,3,-1.25,-1.41,0.91,88.131,95.7066,32.6182,175,75
2026-05-09 15:09:13.809,3,0.16,-0.89,1.51,106.24100000000001,60.5266,-4.8818,175,75
2026-05-09 15:09:13.821,3,0.55,-0.45,2.26,104.531,21.076600000000003,108.5982,175,75
2026-05-09 15:09:13.839,3,-0.7,-0.08,1.52,101.30099999999999,21.376600000000003,91.2782,175,75
2026-05-09 15:09:13.869,3,-0.91,-0.16,1.28,76.12100000000001,-19.293400000000002,95.3682,175,75
2026-05-09 15:09:13.880,3,-0.68,-0.07,1.64,81.61099999999999,3.2066000000000017,67.6882,175,75
2026-05-09 15:09:13.890,3,-0.37,-0.07,1.63,77.40100000000001,-18.683399999999995,67.9282,175,75
2026-05-09 15:09:13.902,3,-0.46,-0.34,1.53,70.87100000000001,-27.033399999999997,74.93820000000001,175,75
2026-05-09 15:09:13.919,3,-0.25,-0.71,1.31,74.781,-37.0334,68.4182,175,75
2026-05-09 15:09:13.933,3,-0.17,-0.88,1.15,82.031,-36.6734,77.0082,175,75
2026-05-09 15:09:13.937,3,0.07,-1.12,1.05,96.42099999999999,-25.5134,83.5982,175,75
2026-05-09 15:09:13.954,3,0.13,-1.11,1.3,98.92099999999999,-18.3734,94.5082,175,75
2026-05-09 15:09:13.956,3,0.36,-1.28,1.38,94.96100000000001,-52.5834,96.5882,175,75
2026-05-09 15:09:13.968,3,0.47,-1.29,1.33,91.30099999999999,-82.0334,97.0082,175,75
2026-05-09 15:09:13.979,3,0.46,-1.12,1.19,93.981,-108.3734,90.1182,175,75
2026-05-09 15:09:13.990,3,0.04,-0.57,1.04,101.001,-93.49340000000001,89.63820000000001,175,75
2026-05-09 15:09:13.997,3,-0.65,0.08,1.4,110.571,-9.773399999999999,86.3382,175,75
2026-05-09 15:09:14.019,3,-0.98,0.6,1.51,142.89100000000002,17.7866,64.5782,175,75
2026-05-09 15:09:14.030,3,-0.81,0.81,1.23,138.311,21.5666,58.7782,175,75
2026-05-09 15:09:14.040,3,-0.68,0.58,1.14,124.90100000000001,43.696600000000004,65.3082,175,75
2026-05-09 15:09:14.053,3,-0.42,0.36,1.1,116.851,28.0866,36.8882,175,75
2026-05-09 15:09:14.061,3,0.01,0.21,0.6,83.43100000000001,-9.103399999999997,4.6982,175,75
2026-05-09 15:09:14.072,3,0.1,0.36,0.21,55.511,8.636600000000001,-15.0618,175,75
2026-05-09 15:09:14.083,3,-0.24,0.42,0.13,31.911,72.2366,0.11819999999999986,175,75
2026-05-09 15:09:14.096,3,-0.02,-0.06,0.25,4.411,48.4566,-26.891800000000003,175,75
2026-05-09 15:09:14.106,3,-0.08,-0.0,0.11,-21.989,26.1366,-60.7918,175,75
2026-05-09 15:09:14.106,3,-0.17,0.2,0.06,-42.049,64.1866,-71.1618,175,75
2026-05-09 15:09:14.118,3,-0.12,0.16,0.47,-63.999,91.25659999999999,-82.0118,175,75
2026-05-09 15:09:14.138,3,-0.16,0.28,0.84,-92.299,54.616600000000005,-103.53179999999999,175,75
2026-05-09 15:09:14.149,3,-0.29,0.39,0.88,-109.60900000000001,33.4566,-111.95179999999999,175,75
2026-05-09 15:09:14.159,3,-0.35,0.4,0.92,-129.549,23.936600000000002,-125.9718,175,75
2026-05-09 15:09:14.170,3,-0.33,0.35,0.96,-148.269,11.986600000000003,-145.3618,175,75
2026-05-09 15:09:14.180,3,-0.25,0.25,0.99,-175.82899999999998,-2.4033999999999978,-157.5618,175,75
2026-05-09 15:09:14.212,3,-0.42,0.2,1.06,-231.749,-18.743399999999998,-179.6918,175,75
2026-05-09 15:09:14.235,3,-0.59,-0.05,1.09,-263.089,-11.9134,-173.1718,175,75
2026-05-09 15:09:14.246,3,-0.62,-0.16,1.16,-267.65900000000005,-0.5133999999999972,-175.1218,175,75
2026-05-09 15:09:14.268,3,-0.75,-0.2,1.46,-265.529,25.0366,-162.4418,175,75
2026-05-09 15:09:14.268,3,-0.79,-0.12,1.72,-257.84900000000005,23.2066,-159.3318,175,75
2026-05-09 15:09:14.283,3,-0.81,-0.03,1.92,-249.069,17.4766,-147.68179999999998,175,75
2026-05-09 15:09:14.297,3,-0.79,-0.07,2.17,-241.869,-14.7134,-130.6118,175,75
2026-05-09 15:09:14.306,3,-0.75,-0.02,2.18,-233.32899999999998,-50.513400000000004,-118.7218,175,75
2026-05-09 15:09:14.318,3,-0.66,0.21,2.0,-218.69899999999998,-76.3034,-101.89179999999999,175,75
2026-05-09 15:09:14.330,3,-0.63,0.55,1.92,-190.409,-82.21340000000001,-62.6818,175,75
2026-05-09 15:09:14.349,3,-0.57,0.65,1.95,-162.849,-92.3434,-40.3018,175,75
2026-05-09 15:09:14.359,3,-0.57,0.71,1.88,-131.749,-73.6234,-13.9018,175,75
2026-05-09 15:09:14.370,3,-0.39,0.64,1.89,-95.589,-56.7334,-7.501800000000001,175,75
2026-05-09 15:09:14.381,3,0.04,0.63,1.67,-68.32900000000001,-56.0634,11.2182,175,75
2026-05-09 15:09:14.381,3,0.26,0.6,1.7,-35.529,-3.563399999999998,10.7282,175,75
2026-05-09 15:09:14.394,3,0.08,0.68,2.13,5.451,42.9666,8.2982,175,75
2026-05-09 15:09:14.405,3,-0.11,0.82,2.26,61.911,70.8966,3.3582,175,75
2026-05-09 15:09:14.420,3,-3.36,1.53,1.61,75.691,52.596599999999995,180.2482,175,75
2026-05-09 15:09:14.431,3,-4.36,0.51,0.78,77.46100000000001,59.7966,351.40819999999997,175,75
2026-05-09 15:09:14.442,3,2.41,-9.87,2.36,432.221,194.91660000000002,-90.7918,175,75
2026-05-09 15:09:14.454,3,0.83,2.75,2.1,253.86100000000002,240.5266,43.1082,175,75
2026-05-09 15:09:14.469,3,0.14,2.57,2.79,226.181,107.5966,197.3782,175,75
2026-05-09 15:09:14.480,3,-1.24,0.88,1.94,123.80099999999999,-10.513399999999997,211.7682,175,75
2026-05-09 15:09:14.489,3,-1.45,0.99,1.73,112.58099999999999,55.28660000000001,99.57820000000001,175,75
2026-05-09 15:09:14.502,3,0.34,0.11,2.94,30.391,-116.97340000000001,137.5582,175,75
2026-05-09 15:09:14.513,3,-0.77,0.11,1.88,0.14100000000000001,-195.8134,142.1382,175,75
2026-05-09 15:09:14.527,3,-0.96,0.09,1.21,-0.0389999999999997,-141.0634,110.9782,175,75
2026-05-09 15:09:14.569,3,-0.67,-0.15,1.23,49.721,27.7866,55.0582,175,75
2026-05-09 15:09:14.607,3,-0.84,0.38,1.34,14.901,-39.96339999999999,31.468200000000003,175,75
2026-05-09 15:09:14.607,3,-0.76,0.41,1.3,3.801,-30.0834,24.3282,175,75
2026-05-09 15:09:14.617,3,-0.77,0.3,1.44,-7.478999999999999,-29.6534,20.7282,175,75
2026-05-09 15:09:14.628,3,-0.67,0.06,1.49,-13.329,-45.023399999999995,8.5382,175,75
2026-05-09 15:09:14.641,3,-0.76,-0.03,1.38,-21.749,-59.773399999999995,2.4382,175,75
2026-05-09 15:09:14.652,3,-0.89,-0.08,1.38,-23.639,-66.0634,-6.7018,175,75
2026-05-09 15:09:14.662,3,-0.76,-0.18,1.39,-30.529000000000003,-65.2634,-13.661800000000001,175,75
2026-05-09 15:09:14.673,3,-0.67,-0.34,1.41,-37.479,-82.8234,-14.141800000000002,175,75
2026-05-09 15:09:14.684,3,-0.72,-0.65,1.31,-45.829,-101.1234,-15.6718,175,75
2026-05-09 15:09:14.701,3,-0.72,-0.89,1.16,-49.609,-105.5134,-17.251800000000003,175,75
2026-05-09 15:09:14.702,3,-0.55,-1.15,1.12,-49.309,-113.62339999999999,-21.461800000000004,175,75
2026-05-09 15:09:14.712,3,-0.29,-1.12,0.99,-46.749,-132.21339999999998,-27.0118,175,75
2026-05-09 15:09:14.724,3,-0.0,-0.97,0.83,-44.249,-134.96339999999998,-24.141800000000003,175,75
2026-05-09 15:09:14.734,3,0.21,-0.77,0.76,-42.719,-133.49339999999998,-15.9718,175,75
2026-05-09 15:09:14.746,3,0.37,-0.61,0.64,-43.879,-129.90339999999998,-9.941799999999999,175,75
2026-05-09 15:09:14.757,3,0.3,-0.31,0.58,-44.799,-125.3234,-0.6718000000000011,175,75
2026-05-09 15:09:14.769,3,0.11,-0.05,0.62,-41.199,-109.5334,12.8682,175,75
2026-05-09 15:09:14.781,3,-0.28,0.47,0.92,-20.589,-105.0834,15.1182,175,75
2026-05-09 15:09:14.792,3,-0.54,0.6,0.73,-6.989000000000001,-106.1834,32.0082,175,75
2026-05-09 15:09:14.828,3,-0.42,0.78,0.62,49.231,46.626599999999996,26.0982,175,75
2026-05-09 15:09:14.835,3,0.45,0.34,0.42,19.651,15.8366,11.0982,175,75
2026-05-09 15:09:14.849,3,0.66,0.55,0.11,-6.379,42.116600000000005,-33.0518,175,75
2026-05-09 15:09:14.892,3,0.72,0.65,0.11,-89.799,70.0966,-109.75179999999999,175,75
2026-05-09 15:09:14.925,3,0.72,0.21,0.13,-88.57900000000001,184.3066,-141.8318,175,75
2026-05-09 15:09:14.938,3,0.37,0.31,1.07,-43.819,208.3966,-170.8518,175,75
2026-05-09 15:09:14.949,3,0.18,0.57,1.4,-23.209,222.90660000000003,-160.9718,175,75
2026-05-09 15:09:14.959,3,0.16,0.71,1.55,-11.498999999999999,219.6766,-163.96179999999998,175,75
2026-05-09 15:09:14.967,3,-0.07,1.03,1.85,5.811,224.7966,-167.1318,175,75
2026-05-09 15:09:14.978,3,-7.05,3.55,4.41,136.911,442.7866,64.0882,175,75
2026-05-09 15:09:15.019,3,-3.62,1.25,4.65,315.26099999999997,253.3366,185.0582,175,75
2026-05-09 15:09:15.019,3,2.29,-3.96,-0.84,100.511,-25.573399999999996,70.9782,175,75
2026-05-09 15:09:15.029,3,-4.77,1.16,-1.95,-73.029,-104.9034,193.6582,175,75
2026-05-09 15:09:15.052,3,0.8,-1.5,1.49,206.791,315.58660000000003,-95.5518,175,75
2026-05-09 15:09:15.065,3,2.14,-3.23,4.34,137.031,69.5466,69.0882,175,75
2026-05-09 15:09:15.075,3,-0.2,-0.31,2.49,70.39099999999999,-93.3734,118.90820000000001,175,75
2026-05-09 15:09:15.089,3,0.77,0.46,1.08,67.15100000000001,-109.4734,136.0982,175,75
2026-05-09 15:09:15.101,3,-1.03,1.4,0.85,38.191,-133.1334,165.4882,175,75
2026-05-09 15:09:15.112,3,-1.93,1.79,0.79,44.591,61.8066,115.54820000000001,175,75
2026-05-09 15:09:15.124,3,-0.9,1.45,1.44,59.111,163.69660000000002,51.218199999999996,175,75
2026-05-09 15:09:15.134,3,-0.02,0.57,1.55,-2.109,-19.9034,68.5982,175,75
2026-05-09 15:09:15.149,3,-0.93,0.29,0.79,-13.818999999999999,-63.623400000000004,73.90820000000001,175,75
2026-05-09 15:09:15.162,3,-0.82,-0.7,1.34,26.671,49.736599999999996,-1.7018000000000004,175,75
2026-05-09 15:09:15.192,3,-0.28,0.34,1.83,16.121000000000002,-13.9834,14.1482,175,75
2026-05-09 15:09:15.209,3,-0.43,0.21,1.34,-2.0489999999999995,-38.623400000000004,12.7482,175,75
2026-05-09 15:09:15.230,3,-0.72,0.18,1.48,-4.489000000000001,-5.023399999999999,-17.741799999999998,175,75
2026-05-09 15:09:15.241,3,-0.65,0.15,1.6,-13.699000000000002,-46.543400000000005,-25.7318,175,75
2026-05-09 15:09:15.252,3,-0.79,0.1,1.45,-22.719,-61.7334,-25.5518,175,75
2026-05-09 15:09:15.266,3,-0.71,-0.05,1.45,-20.889,-67.0334,-41.8918,175,75
2026-05-09 15:09:15.278,3,-0.64,-0.04,1.43,-23.699,-79.35340000000001,-45.241800000000005,175,75
2026-05-09 15:09:15.288,3,-0.75,-0.09,1.35,-25.829,-97.2734,-49.9418,175,75
2026-05-09 15:09:15.298,3,-0.85,-0.21,1.26,-29.429000000000002,-89.2334,-52.991800000000005,175,75
2026-05-09 15:09:15.311,3,-0.55,-0.57,1.28,-31.019,-78.6834,-58.72180000000001,175,75
2026-05-09 15:09:15.321,3,-0.22,-1.07,1.51,-38.939,-75.8734,-54.6918,175,75
2026-05-09 15:09:15.349,3,0.25,-1.07,1.77,-48.149,-89.10340000000001,-57.6218,175,75
2026-05-09 15:09:15.349,3,0.58,-0.87,1.66,-52.969,-113.62339999999999,-50.241800000000005,175,75
2026-05-09 15:09:15.359,3,0.78,-0.71,1.41,-52.969,-116.5434,-40.1818,175,75
2026-05-09 15:09:15.381,3,0.86,-0.58,1.17,-47.599,-89.4134,-40.0018,175,75
2026-05-09 15:09:15.381,3,0.84,-0.35,1.14,-37.539,-61.913399999999996,-45.671800000000005,175,75
2026-05-09 15:09:15.394,3,0.87,-0.06,1.16,-27.418999999999997,-39.413399999999996,-51.0918,175,75
2026-05-09 15:09:15.405,3,0.64,0.22,1.02,-13.209,-17.883399999999998,-52.0118,175,75
2026-05-09 15:09:15.431,3,0.17,0.46,0.76,-2.2989999999999995,18.026600000000002,-53.1118,175,75
2026-05-09 15:09:15.437,3,-0.78,0.9,0.62,47.951,128.2066,-69.3318,175,75
2026-05-09 15:09:15.456,3,-0.32,0.86,1.14,112.89099999999999,253.4566,-79.14179999999999,175,75
2026-05-09 15:09:15.468,3,0.09,0.88,1.34,140.571,255.28660000000002,-74.5118,175,75
2026-05-09 15:09:15.475,3,0.37,0.77,1.03,141.241,217.41660000000002,-87.1918,175,75
2026-05-09 15:09:15.485,3,0.11,1.06,0.76,135.321,224.3666,-92.6218,175,75
2026-05-09 15:09:15.506,3,0.09,1.1,1.24,131.061,240.03660000000002,-90.00179999999999,175,75
2026-05-09 15:09:15.518,3,0.58,0.85,1.24,103.251,155.8966,-91.1618,175,75
2026-05-09 15:09:15.530,3,0.52,0.96,0.91,84.11099999999999,98.2066,-81.64179999999999,175,75
2026-05-09 15:09:15.577,3,-0.5,1.51,2.44,20.201,24.126600000000003,-83.23179999999999,175,75
2026-05-09 15:09:15.595,3,-6.84,3.85,5.27,149.591,259.6166,145.8582,175,75
2026-05-09 15:09:15.606,3,2.97,-2.34,-0.11,246.241,-14.473399999999998,-58.1718,175,75
2026-05-09 15:09:15.619,3,-1.28,-1.7,-1.68,-95.709,-269.5334,225.7982,175,75
2026-05-09 15:09:15.653,3,-0.24,-1.09,0.58,174.411,255.6466,-125.18179999999998,175,75
2026-05-09 15:09:15.665,3,-0.4,0.17,2.45,17.521,118.8166,69.8782,175,75
2026-05-09 15:09:15.679,3,-0.57,-0.76,1.87,14.411,-79.4134,57.7482,175,75
2026-05-09 15:09:15.689,3,0.27,-1.04,1.91,46.541,37.2366,-0.061799999999999855,175,75
2026-05-09 15:09:15.701,3,0.33,-1.08,2.41,29.171,-21.363399999999995,22.9282,175,75
2026-05-09 15:09:15.722,3,0.39,-1.25,1.56,49.411,-16.423399999999997,28.0482,175,75
2026-05-09 15:09:15.735,3,0.66,-1.16,1.2,71.18100000000001,-31.243399999999998,42.4982,175,75
2026-05-09 15:09:15.742,3,0.27,-1.11,0.92,91.24100000000001,-11.363399999999999,58.4782,175,75
2026-05-09 15:09:15.754,3,0.01,-1.25,0.79,126.30099999999999,26.376600000000003,53.2282,175,75
2026-05-09 15:09:15.765,3,0.07,-1.2,0.97,158.86100000000002,49.486599999999996,47.1982,175,75
2026-05-09 15:09:15.808,3,1.26,-1.06,1.28,172.151,-48.9234,28.538199999999996,175,75
2026-05-09 15:09:15.839,3,0.7,-0.35,0.26,178.80100000000002,-34.2334,19.5782,175,75
2026-05-09 15:09:15.852,3,-0.63,-0.1,0.45,287.52099999999996,204.3666,-14.0818,175,75
2026-05-09 15:09:15.897,3,-0.18,-0.42,0.75,250.451,233.0866,-80.36179999999999,175,75
2026-05-09 15:09:15.897,3,-0.45,-0.07,0.29,241.791,235.8966,-89.6918,175,75
2026-05-09 15:09:15.913,3,-0.91,0.52,0.21,246.851,282.9066,-81.70179999999999,175,75
2026-05-09 15:09:15.922,3,-1.27,0.94,1.31,265.39099999999996,317.1766,-58.5318,175,75
2026-05-09 15:09:15.942,3,-1.23,0.33,2.1,262.151,255.09660000000002,7.8682,175,75
2026-05-09 15:09:15.955,3,-0.94,-0.91,1.56,168.311,13.696600000000002,-35.7918,175,75
2026-05-09 15:09:15.955,3,-1.18,-0.38,0.62,151.971,-50.0834,-61.521800000000006,175,75
2026-05-09 15:09:15.968,3,-1.39,-0.16,0.38,137.341,5.156600000000001,-74.5718,175,75
2026-05-09 15:09:15.986,3,-0.74,0.28,0.62,65.321,-117.15339999999999,-96.4618,175,75
2026-05-09 15:09:16.004,3,-1.06,0.43,0.17,28.681,-131.9134,-75.42179999999999,175,75
2026-05-09 15:09:16.023,3,-1.24,0.4,0.13,-8.519,-60.513400000000004,-113.9018,175,75
2026-05-09 15:09:16.023,3,-1.1,0.45,0.53,-44.069,-51.4834,-135.6718,175,75
2026-05-09 15:09:16.039,3,-0.96,0.59,0.95,-83.209,-71.0634,-145.49179999999998,175,75
2026-05-09 15:09:16.049,3,-0.83,0.57,1.11,-118.57900000000001,-109.5934,-149.3318,175,75
2026-05-09 15:09:16.064,3,-0.85,0.59,0.91,-148.63899999999998,-133.68339999999998,-151.3418,175,75
2026-05-09 15:09:16.074,3,-0.97,0.62,0.58,-171.379,-125.0234,-151.77179999999998,175,75
2026-05-09 15:09:16.085,3,-1.16,0.64,0.32,-191.259,-78.1934,-154.3318,175,75
2026-05-09 15:09:16.096,3,-1.16,0.59,0.31,-206.499,-17.213399999999996,-165.7318,175,75
2026-05-09 15:09:16.106,3,-1.12,0.53,0.57,-221.259,39.4266,-171.8318,175,75
2026-05-09 15:09:16.119,3,-1.11,0.47,0.93,-228.38899999999998,71.0766,-179.2018,175,75
2026-05-09 15:09:16.123,3,-1.14,0.48,1.15,-231.749,80.0966,-180.1218,175,75
2026-05-09 15:09:16.144,3,-1.19,0.53,1.37,-234.129,82.5966,-176.9518,175,75
2026-05-09 15:09:16.144,3,-1.26,0.53,1.58,-235.769,73.7566,-177.3118,175,75
2026-05-09 15:09:16.165,3,-1.27,0.56,1.78,-227.779,65.5866,-183.1718,175,75
2026-05-09 15:09:16.173,3,-1.24,0.72,1.89,-217.239,53.3266,-179.5118,175,75
2026-05-09 15:09:16.190,3,-1.21,0.82,2.08,-195.039,41.8066,-156.0318,175,75
2026-05-09 15:09:16.230,3,-0.95,1.03,1.99,-125.769,35.3466,-70.7918,175,75
2026-05-09 15:09:16.241,3,-0.78,1.15,1.74,-105.40899999999999,63.0266,-42.1918,175,75
2026-05-09 15:09:16.292,3,-4.77,3.15,3.76,44.901,265.5866,182.9882,175,75
2026-05-09 15:09:16.316,3,5.54,-3.99,4.32,213.431,151.62660000000002,-105.9118,175,75
2026-05-09 15:09:16.339,3,-1.88,-1.07,0.84,104.471,70.8266,114.2082,175,75
2026-05-09 15:09:16.351,3,-0.64,-0.56,0.81,189.591,156.7466,-27.131800000000005,175,75
2026-05-09 15:09:16.362,3,0.38,-0.08,1.86,142.341,196.8066,38.9082,175,75
2026-05-09 15:09:16.372,3,-0.04,0.02,2.81,117.52099999999999,73.7566,110.4282,175,75
2026-05-09 15:09:16.385,3,-0.62,0.18,2.4,97.951,-33.373400000000004,85.24820000000001,175,75
2026-05-09 15:09:16.396,3,-0.59,0.3,1.81,72.031,-32.153400000000005,86.40820000000001,175,75
2026-05-09 15:09:16.418,3,-0.93,0.04,1.19,50.141,-28.6234,76.40820000000001,175,75
2026-05-09 15:09:16.429,3,-0.8,-0.21,1.35,59.471,-0.5733999999999995,52.618199999999995,175,75
2026-05-09 15:09:16.433,3,-0.73,-0.36,1.35,58.681,-27.7034,52.4982,175,75
2026-05-09 15:09:16.452,3,-0.75,-0.52,1.24,64.041,-23.0134,47.3182,175,75
2026-05-09 15:09:16.452,3,-0.55,-0.69,1.24,69.531,-27.213399999999996,47.008199999999995,175,75
2026-05-09 15:09:16.471,3,-0.31,-0.89,1.25,75.811,-36.303399999999996,57.868199999999995,175,75
2026-05-09 15:09:16.496,3,0.38,-1.19,1.17,96.24100000000001,-53.5634,73.8382,175,75
2026-05-09 15:09:16.506,3,0.57,-1.34,1.07,96.911,-68.1934,92.6182,175,75
2026-05-09 15:09:16.520,3,0.6,-1.48,0.81,97.89099999999999,-86.3034,98.96820000000001,175,75
2026-05-09 15:09:16.529,3,0.54,-1.31,0.75,104.041,-81.0634,98.04820000000001,175,75
2026-05-09 15:09:16.550,3,-0.37,-0.3,1.52,132.091,-29.173399999999997,109.38820000000001,175,75
2026-05-09 15:09:16.564,3,-0.59,-0.19,1.67,151.541,-13.433399999999999,109.8782,175,75
2026-05-09 15:09:16.586,3,-0.71,0.73,1.17,141.001,-6.063399999999998,70.1882,175,75
2026-05-09 15:09:16.607,3,-0.43,0.53,1.25,117.58099999999999,16.076600000000003,77.9882,175,75
2026-05-09 15:09:16.631,3,0.35,0.26,0.23,42.341,-38.68339999999999,16.5882,175,75
2026-05-09 15:09:16.643,3,-0.18,0.39,-0.1,14.471,41.8066,24.818199999999997,175,75
2026-05-09 15:09:16.654,3,0.08,-0.11,-0.02,-14.979,50.956599999999995,1.7681999999999993,175,75
2026-05-09 15:09:16.658,3,0.03,-0.18,-0.05,-48.269,51.1366,-38.961800000000004,175,75
2026-05-09 15:09:16.678,3,-0.14,-0.09,0.12,-76.13900000000001,108.0866,-49.5118,175,75
2026-05-09 15:09:16.693,3,-0.15,-0.06,0.46,-95.34899999999999,127.53659999999999,-69.9418,175,75
2026-05-09 15:09:16.703,3,-0.11,0.12,0.8,-122.65899999999999,96.4366,-93.4118,175,75
2026-05-09 15:09:16.714,3,-0.13,0.2,0.9,-144.129,73.6966,-99.81179999999999,175,75
2026-05-09 15:09:16.724,3,-0.21,0.17,0.96,-174.369,56.866600000000005,-113.11179999999999,175,75
2026-05-09 15:09:16.724,3,-0.24,0.18,1.02,-196.439,45.64660000000001,-132.3118,175,75
2026-05-09 15:09:16.737,3,-0.15,0.07,1.17,-225.039,23.0866,-148.3518,175,75
2026-05-09 15:09:16.763,3,-0.3,-0.07,1.12,-274.54900000000004,-22.7034,-160.7318,175,75
2026-05-09 15:09:16.774,3,-0.37,-0.14,1.17,-289.309,-25.143399999999996,-167.4418,175,75
2026-05-09 15:09:16.803,3,-0.5,-0.24,1.27,-319.73900000000003,-47.9534,-167.6218,175,75
2026-05-09 15:09:16.814,3,-0.48,-0.29,1.27,-326.98900000000003,-52.403400000000005,-166.6418,175,75
2026-05-09 15:09:16.825,3,-0.62,-0.33,1.36,-330.15900000000005,-43.5634,-153.1118,175,75
2026-05-09 15:09:16.837,3,-0.62,-0.31,1.53,-324.249,-32.0334,-149.2018,175,75
2026-05-09 15:09:16.849,3,-0.53,-0.35,1.82,-318.209,-51.123400000000004,-143.4118,175,75
2026-05-09 15:09:16.860,3,-0.53,-0.25,1.9,-318.519,-81.3634,-133.4118,175,75
2026-05-09 15:09:16.872,3,-0.61,-0.27,1.93,-310.279,-93.6834,-116.64179999999999,175,75
2026-05-09 15:09:16.883,3,-0.69,-0.25,1.92,-304.069,-109.2934,-110.4918,175,75
2026-05-09 15:09:16.900,3,-0.69,-0.1,2.11,-286.869,-128.37339999999998,-108.11179999999999,175,75
2026-05-09 15:09:16.912,3,-0.63,0.12,2.32,-272.90900000000005,-148.9234,-92.4418,175,75
2026-05-09 15:09:16.934,3,-0.82,0.6,2.48,-208.999,-198.9834,-19.0218,175,75
2026-05-09 15:09:17.012,3,3.19,-2.59,-2.21,-34.859,-401.79339999999996,128.1082,175,75
2026-05-09 15:09:17.029,3,-0.32,-3.04,-4.65,-321.439,-461.1234,139.81820000000002,175,75
2026-05-09 15:09:17.029,3,-5.54,-0.76,-1.91,-22.719,674.6166000000001,7.4982,175,75
2026-05-09 15:09:17.061,3,-0.16,2.08,3.01,229.231,199.12660000000002,117.6182,175,75
2026-05-09 15:09:17.079,3,-1.37,1.01,3.52,216.61100000000002,63.2666,216.3382,175,75
2026-05-09 15:09:17.089,3,-1.26,-0.09,3.18,199.351,17.7866,120.85820000000001,175,75
2026-05-09 15:09:17.120,3,-0.51,0.48,1.96,38.251000000000005,-144.1034,76.5882,175,75
2026-05-09 15:09:17.131,3,-0.35,0.48,1.6,21.611,-159.1634,85.9782,175,75
2026-05-09 15:09:17.143,3,-0.42,0.32,1.33,2.761,-161.8534,90.85820000000001,175,75
2026-05-09 15:09:17.153,3,-0.53,-0.07,1.16,0.08099999999999952,-129.1634,81.46820000000001,175,75
2026-05-09 15:09:17.164,3,-0.48,-0.41,1.02,21.481,-48.8634,63.6582,175,75
2026-05-09 15:09:17.176,3,-0.47,-0.13,1.34,21.361,0.5866000000000007,57.4982,175,75
2026-05-09 15:09:17.200,3,-0.44,0.11,1.56,-8.029,-41.0634,60.9182,175,75
2026-05-09 15:09:17.212,3,-0.68,0.21,1.35,-26.259,-62.21340000000001,59.6382,175,75
2026-05-09 15:09:17.212,3,-0.85,0.39,1.32,-29.308999999999997,-65.0834,42.618199999999995,175,75
2026-05-09 15:09:17.235,3,-0.62,0.26,1.32,-40.279,-93.49340000000001,32.0082,175,75
2026-05-09 15:09:17.235,3,-0.74,0.18,1.17,-47.539,-119.90339999999999,30.188200000000002,175,75
2026-05-09 15:09:17.247,3,-0.98,0.07,1.1,-48.999,-126.7334,16.2782,175,75
2026-05-09 15:09:17.258,3,-0.83,-0.01,1.12,-50.159,-143.1334,-6.4018,175,75
2026-05-09 15:09:17.281,3,-0.9,-0.15,1.01,-71.19900000000001,-163.1934,-4.691800000000001,175,75
2026-05-09 15:09:17.292,3,-0.96,-0.4,0.95,-87.779,-175.99339999999998,-0.12180000000000035,175,75
2026-05-09 15:09:17.325,3,-0.54,-1.42,1.38,-113.63900000000001,-203.9234,1.5282,175,75
2026-05-09 15:09:17.337,3,-0.46,-1.93,1.5,-134.549,-294.04339999999996,6.1582,175,75
2026-05-09 15:09:17.337,3,-0.25,-1.53,1.14,-144.429,-364.8434,-1.0318000000000005,175,75
2026-05-09 15:09:17.347,3,-0.0,-0.93,0.5,-157.049,-435.5134,20.8582,175,75
2026-05-09 15:09:17.360,3,-0.08,-0.45,-0.05,-163.519,-444.35339999999997,52.008199999999995,175,75
2026-05-09 15:09:17.373,3,-0.17,-0.08,-0.33,-168.57899999999998,-408.3134,61.218199999999996,175,75
2026-05-09 15:09:17.381,3,-0.38,0.42,-0.26,-170.219,-357.9534,66.15820000000001,175,75
2026-05-09 15:09:17.392,3,-0.97,1.33,0.5,-151.869,-274.9034,68.65820000000001,175,75
2026-05-09 15:09:17.402,3,-1.33,1.58,0.92,-142.719,-265.5134,96.9482,175,75
2026-05-09 15:09:17.428,3,-0.43,0.76,0.62,-159.799,-334.23339999999996,110.9782,175,75
2026-05-09 15:09:17.449,3,0.19,0.8,0.6,-169.97899999999998,-201.5434,75.79820000000001,175,75
2026-05-09 15:09:17.480,3,-0.25,0.97,-0.22,-194.60899999999998,-193.0734,59.4482,175,75
2026-05-09 15:09:17.505,3,-0.04,1.01,0.49,-205.709,-146.30339999999998,39.2082,175,75
2026-05-09 15:09:17.520,3,-0.06,0.99,1.51,-202.719,-150.2634,56.5882,175,75
2026-05-09 15:09:17.520,3,-0.24,1.07,2.12,-190.279,-189.1634,50.8582,175,75
2026-05-09 15:09:17.529,3,-0.14,1.08,2.4,-184.369,-263.6834,53.4782,175,75
2026-05-09 15:09:17.540,3,0.25,1.15,2.47,-186.19899999999998,-430.9334,76.9482,175,75
2026-05-09 15:09:17.564,3,0.26,1.16,1.79,-186.319,-477.4034,94.6982,175,75
2026-05-09 15:09:17.571,3,-1.18,2.05,2.02,-154.309,-357.7634,93.35820000000001,175,75
2026-05-09 15:09:17.594,3,-1.16,1.2,2.36,-79.06899999999999,-320.5134,88.5982,175,75
2026-05-09 15:09:17.594,3,-3.39,1.63,3.61,14.721,-120.87339999999999,138.0482,175,75
2026-05-09 15:09:17.615,3,5.05,-3.96,0.06,136.001,-156.4234,-84.20179999999999,175,75
2026-05-09 15:09:17.630,3,-2.32,-0.79,-1.88,-12.849,388.14660000000003,135.3082,175,75
2026-05-09 15:09:17.642,3,-0.3,-1.1,-0.87,210.261,433.9366,-81.28179999999999,175,75
2026-05-09 15:09:17.671,3,0.05,0.43,1.82,125.451,399.8566,12.3182,175,75
2026-05-09 15:09:17.671,3,-0.5,-0.08,2.1,114.351,205.8366,49.758199999999995,175,75
2026-05-09 15:09:17.684,3,-1.48,-0.1,1.74,70.081,105.4066,31.2782,175,75
2026-05-09 15:09:17.694,3,-0.45,-0.3,1.9,56.971,62.2966,-10.6118,175,75
2026-05-09 15:09:17.710,3,-0.31,0.01,1.98,13.561,-55.8134,21.888199999999998,175,75
2026-05-09 15:09:17.710,3,-0.51,-0.32,1.42,4.170999999999999,-71.85340000000001,39.9382,175,75
2026-05-09 15:09:17.735,3,-0.13,-2.26,0.68,25.201,-85.8134,-7.251800000000001,175,75
2026-05-09 15:09:17.747,3,-0.04,-1.3,1.34,69.11099999999999,47.9066,1.4082,175,75
2026-05-09 15:09:17.758,3,0.35,-0.46,2.41,112.89099999999999,138.5166,9.4482,175,75
2026-05-09 15:09:17.769,3,0.71,0.3,2.89,60.321,48.6366,67.8682,175,75
2026-05-09 15:09:17.786,3,-1.69,1.21,0.8,-17.239,-31.243399999999998,67.2582,175,75
2026-05-09 15:09:17.812,3,-0.66,0.2,2.2,-66.19900000000001,-59.903400000000005,27.928199999999997,175,75
2026-05-09 15:09:17.832,3,-1.06,0.3,1.46,-88.459,-144.77339999999998,6.0382,175,75
2026-05-09 15:09:17.843,3,-1.13,0.45,1.03,-83.029,-111.97340000000001,-7.621799999999999,175,75
2026-05-09 15:09:17.853,3,-0.92,0.06,1.03,-68.519,-63.9834,-13.1118,175,75
2026-05-09 15:09:17.864,3,-1.03,-0.04,1.12,-56.259,-50.023399999999995,-22.741799999999998,175,75
2026-05-09 15:09:17.878,3,-1.21,0.01,1.41,-54.679,-51.183400000000006,-33.7218,175,75
2026-05-09 15:09:17.892,3,-1.08,-0.0,1.38,-56.139,-78.6834,-56.0318,175,75
2026-05-09 15:09:17.905,3,-0.99,-0.03,1.29,-63.879,-85.7534,-57.861799999999995,175,75
2026-05-09 15:09:17.912,3,-0.92,-0.31,1.43,-72.84899999999999,-83.4334,-57.6818,175,75
2026-05-09 15:09:17.927,3,-0.72,-0.54,1.47,-80.769,-104.4134,-60.7918,175,75
2026-05-09 15:09:17.939,3,-0.57,-0.77,1.36,-93.149,-148.1334,-57.0718,175,75
2026-05-09 15:09:17.951,3,-0.47,-0.88,1.26,-102.90899999999999,-158.1934,-39.631800000000005,175,75
2026-05-09 15:09:17.968,3,-0.11,-0.59,0.92,-120.15899999999999,-206.8534,-1.2818000000000005,175,75
2026-05-09 15:09:17.981,3,-0.06,-0.58,0.73,-123.69899999999998,-232.46339999999998,12.9282,175,75
2026-05-09 15:09:17.992,3,-0.1,-0.42,0.54,-128.69899999999998,-242.46339999999998,10.9782,175,75
2026-05-09 15:09:17.993,3,-0.17,-0.05,0.52,-127.90899999999999,-220.5734,12.1382,175,75
2026-05-09 15:09:18.005,3,-0.08,0.28,0.74,-125.589,-192.7034,18.7782,175,75
2026-05-09 15:09:18.024,3,-0.19,0.75,0.92,-121.31899999999999,-204.0434,38.8382,175,75
2026-05-09 15:09:18.030,3,-0.68,0.99,0.9,-100.469,-196.9734,50.2482,175,75
2026-05-09 15:09:18.041,3,-0.66,0.99,0.88,-76.929,-165.3234,44.9982,175,75
2026-05-09 15:09:18.053,3,-0.32,0.87,0.85,-47.239,-140.3234,45.3082,175,75
2026-05-09 15:09:18.062,3,-0.38,1.04,1.07,-15.408999999999999,-71.1834,65.3082,175,75
2026-05-09 15:09:18.084,3,-0.06,0.8,1.26,-17.539,-77.7034,74.38820000000001,175,75
2026-05-09 15:09:18.091,3,0.28,0.71,0.61,-53.329,-117.8234,67.2582,175,75
2026-05-09 15:09:18.097,3,0.42,0.72,0.02,-86.749,-84.5934,41.2782,175,75
2026-05-09 15:09:18.112,3,0.4,0.94,-0.03,-99.369,-40.7534,8.5982,175,75
2026-05-09 15:09:18.139,3,0.54,0.73,0.25,-143.38899999999998,-54.653400000000005,-13.1118,175,75
2026-05-09 15:09:18.151,3,0.24,0.78,0.56,-143.089,-4.103399999999997,1.0381999999999998,175,75
2026-05-09 15:09:18.163,3,0.22,0.79,1.47,-121.499,-32.9534,-18.111800000000002,175,75
2026-05-09 15:09:18.170,3,-0.63,1.63,2.38,-111.25899999999999,-68.8634,20.1182,175,75
2026-05-09 15:09:18.184,3,-0.81,1.7,3.13,-73.029,-152.0334,62.3782,175,75
2026-05-09 15:09:18.195,3,-1.89,1.07,2.39,-73.63900000000001,-142.7634,47.258199999999995,175,75
2026-05-09 15:09:18.205,3,-5.01,3.62,5.12,110.93100000000001,-34.1734,226.7082,175,75
2026-05-09 15:09:18.253,3,-1.27,-0.29,0.0,38.801,79.9766,40.2482,175,75
2026-05-09 15:09:18.264,3,-0.24,-0.01,0.97,15.081,136.9266,121.88820000000001,175,75
2026-05-09 15:09:18.282,3,-1.63,-0.45,0.42,56.181,179.1866,12.1382,175,75
2026-05-09 15:09:18.303,3,-0.65,-0.79,1.79,68.251,187.47660000000002,4.8782,175,75
2026-05-09 15:09:18.310,3,-0.49,-1.02,2.42,34.900999999999996,71.6866,19.388199999999998,175,75
2026-05-09 15:09:18.310,3,-0.38,-1.02,2.49,0.14100000000000001,-22.9534,26.9482,175,75
2026-05-09 15:09:18.342,3,-0.27,-1.01,0.94,-3.939,-139.71339999999998,69.8782,175,75
2026-05-09 15:09:18.367,3,-0.48,-1.13,0.59,55.021,-79.1634,66.3382,175,75
2026-05-09 15:09:18.393,3,-0.12,-1.1,1.3,86.541,-65.7534,83.90820000000001,175,75
2026-05-09 15:09:18.405,3,0.07,-1.16,1.27,93.011,-106.3634,96.21820000000001,175,75
2026-05-09 15:09:18.418,3,0.22,-1.24,1.18,99.471,-119.7134,103.71820000000001,175,75
2026-05-09 15:09:18.418,3,0.49,-1.27,1.19,109.17099999999999,-125.2034,106.6482,175,75
2026-05-09 15:09:18.429,3,1.05,-1.42,1.24,119.17099999999999,-149.90339999999998,108.96820000000001,175,75
2026-05-09 15:09:18.445,3,1.59,-1.33,1.18,134.591,-170.08339999999998,88.8382,175,75
2026-05-09 15:09:18.463,3,1.21,-0.83,0.98,131.541,-141.4234,109.2082,175,75
2026-05-09 15:09:18.483,3,-0.06,-1.45,0.64,197.951,-43.1934,97.2582,175,75
2026-05-09 15:09:18.491,3,0.03,-1.26,0.7,218.92100000000002,15.766600000000002,53.1682,175,75
2026-05-09 15:09:18.501,3,-0.23,-0.92,0.94,195.511,117.78659999999999,86.76820000000001,175,75
2026-05-09 15:09:18.524,3,-0.36,-0.79,1.03,159.781,60.03660000000001,71.40820000000001,175,75
2026-05-09 15:09:18.534,3,-0.39,-0.49,0.64,119.291,44.4266,27.9882,175,75
2026-05-09 15:09:18.544,3,-0.66,0.16,1.04,115.14099999999999,114.00659999999999,5.4282,175,75
2026-05-09 15:09:18.556,3,-1.34,0.77,1.86,135.08100000000002,229.4866,87.5582,175,75
2026-05-09 15:09:18.578,3,-0.73,-0.65,1.95,80.02099999999999,-55.1434,43.8382,175,75
2026-05-09 15:09:18.595,3,-0.78,-0.33,0.51,-11.748999999999999,-73.1934,10.0582,175,75
2026-05-09 15:09:18.598,3,-0.88,0.23,0.45,-3.9990000000000006,33.876599999999996,-23.4118,175,75
2026-05-09 15:09:18.608,3,-0.35,0.3,0.85,-31.689,46.376599999999996,-41.8918,175,75
2026-05-09 15:09:18.623,3,-0.16,0.51,1.07,-74.189,-20.383399999999998,-49.811800000000005,175,75
2026-05-09 15:09:18.635,3,-0.5,0.76,0.93,-106.019,-30.813399999999998,-44.881800000000005,175,75
2026-05-09 15:09:18.635,3,-0.7,0.73,1.05,-122.84899999999999,-11.853399999999997,-60.7918,175,75
2026-05-09 15:09:18.650,3,-0.5,0.61,1.49,-147.35899999999998,-44.2334,-108.0518,175,75
2026-05-09 15:09:18.662,3,-0.28,0.86,1.56,-194.91899999999998,-124.41340000000001,-141.3418,175,75
2026-05-09 15:09:18.683,3,-0.32,0.96,1.23,-260.34900000000005,-192.15339999999998,-140.4218,175,75
2026-05-09 15:09:18.711,3,-0.66,0.91,0.88,-299.189,-104.35340000000001,-161.5818,175,75
2026-05-09 15:09:18.723,3,-0.76,0.88,1.11,-300.09900000000005,-48.803399999999996,-162.0718,175,75
2026-05-09 15:09:18.736,3,-0.93,0.76,1.35,-297.23900000000003,1.2566000000000024,-166.46179999999998,175,75
2026-05-09 15:09:18.747,3,-1.15,0.81,1.63,-283.519,52.9666,-170.3018,175,75
2026-05-09 15:09:18.759,3,-1.18,0.88,1.83,-266.439,91.4366,-174.0818,175,75
2026-05-09 15:09:18.769,3,-1.25,1.03,1.97,-239.189,136.8666,-172.3818,175,75
2026-05-09 15:09:18.783,3,-1.27,1.12,2.31,-199.369,195.03660000000002,-173.96179999999998,175,75
2026-05-09 15:09:18.794,3,-1.24,1.15,2.7,-164.799,204.7366,-161.5818,175,75
2026-05-09 15:09:18.839,3,-0.2,1.1,1.97,-70.529,49.3066,-100.1218,175,75
2026-05-09 15:09:18.849,3,-2.09,2.14,2.19,-76.809,47.116600000000005,-50.9718,175,75
2026-05-09 15:09:18.877,3,-2.34,0.28,4.49,356.121,391.5066,-4.1418,175,75
2026-05-09 15:09:18.888,3,-4.43,1.43,6.48,330.51099999999997,381.9266,146.1582,175,75
2026-05-09 15:09:18.900,3,2.29,-1.69,5.4,177.281,-26.3034,16.8282,175,75
2026-05-09 15:09:18.900,3,2.86,0.12,2.23,106.481,-301.4234,49.758199999999995,175,75
2026-05-09 15:09:18.915,3,-2.27,1.14,0.71,-39.859,-108.2534,224.0282,175,75
2026-05-09 15:09:18.930,3,-1.37,0.27,-0.14,118.92099999999999,82.1766,5.1882,175,75
2026-05-09 15:09:18.942,3,-0.32,-0.15,0.55,101.791,137.5966,9.3882,175,75
2026-05-09 15:09:18.954,3,-0.34,-0.73,1.77,79.59100000000001,51.196600000000004,74.8782,175,75
2026-05-09 15:09:18.964,3,-0.9,-1.65,2.51,83.74100000000001,32.8466,75.4882,175,75
2026-05-09 15:09:18.974,3,-0.06,-0.64,2.51,98.251,-2.7033999999999985,39.7582,175,75
2026-05-09 15:09:18.993,3,-0.55,-0.33,1.16,61.971,-94.10340000000001,98.5982,175,75
2026-05-09 15:09:19.001,3,-0.95,-0.49,0.76,75.93100000000001,-22.9534,90.54820000000001,175,75
2026-05-09 15:09:19.011,3,-0.68,-0.88,1.22,88.37100000000001,33.5766,82.9882,175,75
2026-05-09 15:09:19.028,3,-0.46,-0.93,1.68,85.511,-2.4634,87.3782,175,75
2026-05-09 15:09:19.028,3,-0.34,-1.1,1.72,83.011,-37.82339999999999,97.9882,175,75
2026-05-09 15:09:19.072,3,0.71,-1.81,0.78,90.751,-101.7334,117.68820000000001,175,75
2026-05-09 15:09:19.087,3,0.75,-1.74,0.74,97.761,-112.7034,116.2782,175,75
2026-05-09 15:09:19.087,3,0.93,-1.39,1.05,113.62100000000001,-102.2734,95.4882,175,75
2026-05-09 15:09:19.100,3,0.57,-0.59,1.55,135.14100000000002,-60.7534,108.90820000000001,175,75
2026-05-09 15:09:19.124,3,0.17,-0.55,1.63,146.971,-47.21340000000001,108.7782,175,75
2026-05-09 15:09:19.134,3,0.19,-0.24,1.22,150.511,-81.4834,74.8782,175,75
2026-05-09 15:09:19.145,3,-0.34,0.21,0.81,148.981,-63.683400000000006,73.71820000000001,175,75
2026-05-09 15:09:19.145,3,-0.88,0.52,0.81,156.911,19.006600000000002,82.9882,175,75
2026-05-09 15:09:19.150,3,-1.05,0.41,1.06,174.651,83.4566,78.4782,175,75
2026-05-09 15:09:19.172,3,-0.28,-0.18,1.23,162.58100000000002,35.89660000000001,45.4282,175,75
2026-05-09 15:09:19.182,3,0.37,-0.4,0.44,106.541,-36.9734,-8.661800000000001,175,75
2026-05-09 15:09:19.204,3,0.02,-0.19,-0.06,47.401,118.5166,-5.181800000000001,175,75
2026-05-09 15:09:19.215,3,0.1,-0.54,-0.12,6.1209999999999996,26.3166,-59.141799999999996,175,75
2026-05-09 15:09:19.233,3,-0.46,-0.15,0.09,-44.429,144.1866,-84.9418,175,75
2026-05-09 15:09:19.247,3,-0.31,-0.05,0.71,-71.749,121.4366,-119.8818,175,75
2026-05-09 15:09:19.259,3,-0.25,0.21,1.09,-106.929,51.7466,-138.2918,175,75
2026-05-09 15:09:19.272,3,-0.32,0.3,1.18,-176.439,-46.793400000000005,-155.4218,175,75
2026-05-09 15:09:19.295,3,-0.28,0.27,1.16,-215.649,-76.85340000000001,-172.0718,175,75
2026-05-09 15:09:19.295,3,-0.24,0.19,1.17,-241.439,-96.7334,-169.8818,175,75
2026-05-09 15:09:19.320,3,-0.53,0.2,1.01,-283.639,-108.6234,-167.1318,175,75
2026-05-09 15:09:19.332,3,-0.57,0.25,0.88,-294.189,-80.1434,-167.3818,175,75
2026-05-09 15:09:19.342,3,-0.62,0.2,0.78,-306.019,-38.623400000000004,-154.27179999999998,175,75
2026-05-09 15:09:19.362,3,-0.75,-0.11,0.88,-322.84900000000005,43.2066,-159.0818,175,75
2026-05-09 15:09:19.385,3,-1.03,-0.26,1.47,-316.689,104.5466,-168.1118,175,75
2026-05-09 15:09:19.407,3,-0.96,-0.23,2.04,-303.269,79.4866,-177.68179999999998,175,75
2026-05-09 15:09:19.444,3,-1.36,0.28,3.09,-336.439,-214.2934,-85.67179999999999,175,75
2026-05-09 15:09:19.454,3,-1.58,0.49,3.28,-352.35900000000004,-329.6534,-46.031800000000004,175,75
2026-05-09 15:09:19.461,3,-1.72,0.67,3.42,-351.629,-396.91339999999997,-11.5818,175,75
2026-05-09 15:09:19.485,3,-1.62,0.88,3.44,-338.389,-484.16339999999997,29.508200000000002,175,75
2026-05-09 15:09:19.485,3,-1.44,0.96,2.99,-311.869,-536.0634,66.0982,175,75
2026-05-09 15:09:19.505,3,-1.12,0.76,2.54,-146.989,-446.54339999999996,70.1182,175,75
2026-05-09 15:09:19.517,3,-0.41,0.71,2.9,-71.869,-379.9634,68.1082,175,75
2026-05-09 15:09:19.521,3,0.06,0.79,3.18,-7.109,-336.1834,91.9482,175,75
2026-05-09 15:09:19.540,3,0.27,0.71,3.07,58.801,-279.8434,109.7582,175,75
2026-05-09 15:09:19.551,3,0.31,0.57,2.6,127.15100000000001,-156.9134,88.90820000000001,175,75
2026-05-09 15:09:19.561,3,0.98,-0.21,0.76,130.811,-131.0634,101.2782,175,75
2026-05-09 15:09:19.573,3,4.62,-3.0,-6.24,-262.04900000000004,-794.5334,217.7482,175,75
2026-05-09 15:09:19.596,3,-6.55,-2.34,-0.58,-24.129,1717.7866,-85.73179999999999,175,75
2026-05-09 15:09:19.612,3,1.02,0.1,4.81,1428.251,464.0066,-27.1918,175,75
2026-05-09 15:09:19.626,3,2.57,3.35,3.9,1.181,-93.6234,307.3782,175,75
2026-05-09 15:09:19.637,3,-2.64,1.67,2.99,41.001,-292.3434,264.9382,175,75
2026-05-09 15:09:19.674,3,0.76,0.81,2.82,-20.709,-233.0134,109.5082,175,75
2026-05-09 15:09:19.696,3,-1.54,-0.36,0.74,-76.989,-313.0734,140.6082,175,75
2026-05-09 15:09:19.716,3,-1.71,-0.24,0.04,-16.079,-155.2634,23.9082,175,75
2026-05-09 15:09:19.726,3,-0.73,-0.39,1.05,36.361000000000004,56.0766,-28.7218,175,75
2026-05-09 15:09:19.736,3,-0.26,-0.19,2.25,11.541,-30.933399999999995,2.0782,175,75
2026-05-09 15:09:19.739,3,-0.53,-0.18,2.16,-18.389,-120.38340000000001,28.358199999999997,175,75
2026-05-09 15:09:19.755,3,-1.03,-0.19,1.63,-32.969,-177.7034,36.2782,175,75
2026-05-09 15:09:19.760,3,-1.06,-0.33,1.11,-53.459,-181.6634,24.8782,175,75
2026-05-09 15:09:19.766,3,-0.95,-0.76,1.03,-78.75899999999999,-208.0134,58.4782,175,75
2026-05-09 15:09:19.781,3,-0.76,-1.45,1.21,-90.529,-248.6234,64.3282,175,75
2026-05-09 15:09:19.791,3,-0.29,-2.17,0.96,-111.749,-336.2434,94.5082,175,75
2026-05-09 15:09:19.800,3,-0.52,-1.69,0.7,-103.459,-366.97339999999997,121.9482,175,75
2026-05-09 15:09:19.813,3,-0.28,-1.31,0.53,-119.12899999999999,-424.5934,165.5482,175,75
2026-05-09 15:09:19.835,3,-0.44,-0.73,0.38,-143.459,-480.0834,203.22820000000002,175,75
2026-05-09 15:09:19.848,3,-1.28,0.32,0.64,-184.799,-429.47339999999997,238.2982,175,75
2026-05-09 15:09:19.867,3,-0.76,0.43,0.69,-192.47899999999998,-422.1534,250.0582,175,75
2026-05-09 15:09:19.895,3,-1.39,1.12,0.62,-168.879,-408.7434,236.4082,175,75
2026-05-09 15:09:19.895,3,-1.43,1.19,0.37,-178.38899999999998,-350.7534,267.3182,175,75
2026-05-09 15:09:19.923,3,-0.36,0.76,-0.27,-216.019,-325.8734,256.27819999999997,175,75
2026-05-09 15:09:19.938,3,-0.02,0.94,-0.72,-231.749,-271.1834,220.9182,175,75
2026-05-09 15:09:19.951,3,-0.4,1.72,-0.48,-210.099,-125.81340000000002,222.3782,175,75
2026-05-09 15:09:19.967,3,0.3,1.1,0.08,-267.779,-100.2034,205.4882,175,75
2026-05-09 15:09:20.031,3,0.23,0.57,0.63,-313.389,-138.2534,135.1182,175,75
2026-05-09 15:09:20.057,3,1.35,0.3,2.21,-245.279,-257.9534,114.93820000000001,175,75
2026-05-09 15:09:20.068,3,1.15,0.47,2.26,-232.41899999999998,-316.73339999999996,114.1482,175,75
2026-05-09 15:09:20.068,3,0.88,0.66,2.2,-199.85899999999998,-304.10339999999997,88.7782,175,75
2026-05-09 15:09:20.082,3,-0.28,1.72,2.49,-144.309,-212.40339999999998,78.71820000000001,175,75
2026-05-09 15:09:20.117,3,3.64,-4.68,0.1,126.061,-278.5634,-94.9418,175,75
2026-05-09 15:09:20.140,3,-2.62,-1.08,-1.17,-112.239,-13.133399999999998,230.97820000000002,175,75
2026-05-09 15:09:20.140,3,-3.01,-0.33,-0.37,117.52099999999999,246.13660000000002,80.4882,175,75
2026-05-09 15:09:20.168,3,-0.87,0.53,3.88,57.221,81.5666,85.3682,175,75
2026-05-09 15:09:20.194,3,-0.64,-0.38,3.17,-46.689,-154.90339999999998,85.9182,175,75
2026-05-09 15:09:20.194,3,-1.14,0.32,1.62,-85.40899999999999,-198.43339999999998,82.8682,175,75
2026-05-09 15:09:20.208,3,-1.64,0.11,1.19,-63.208999999999996,-107.0334,69.7582,175,75
2026-05-09 15:09:20.223,3,-0.54,-0.91,2.33,-36.019,-5.753399999999999,6.5282,175,75
2026-05-09 15:09:20.248,3,-0.67,0.37,1.5,-53.699,-31.063399999999998,21.8282,175,75
2026-05-09 15:09:20.259,3,-0.64,0.42,1.45,-53.999,8.636600000000001,12.7482,175,75
2026-05-09 15:09:20.291,3,-0.64,0.62,1.46,-35.349,60.8266,-10.3618,175,75
2026-05-09 15:09:20.298,3,-0.5,0.31,1.89,-33.459,71.4366,-17.8018,175,75
2026-05-09 15:09:20.310,3,-0.6,0.35,1.71,-46.319,35.4066,-9.2718,175,75
2026-05-09 15:09:20.325,3,-0.85,0.57,1.31,-54.429,26.686600000000002,-14.4518,175,75
2026-05-09 15:09:20.348,3,-0.74,0.55,1.25,-54.979,41.6866,-14.391800000000002,175,75
2026-05-09 15:09:20.348,3,-0.55,0.4,1.31,-62.239,16.5666,-5.611800000000001,175,75
2026-05-09 15:09:20.374,3,-0.92,0.52,1.12,-65.529,12.906600000000001,-1.7718000000000007,175,75
2026-05-09 15:09:20.424,3,-0.81,0.36,1.12,-52.109,23.936600000000002,-8.051800000000002,175,75
2026-05-09 15:09:20.435,3,-0.75,0.39,1.12,-47.109,27.5366,-17.3818,175,75
2026-05-09 15:09:20.450,3,-0.64,0.4,1.07,-46.749,-2.8233999999999995,-11.2218,175,75
2026-05-09 15:09:20.464,3,-0.7,0.4,1.03,-43.209,-0.6933999999999969,-11.341800000000001,175,75
2026-05-09 15:09:20.475,3,-0.67,0.39,1.06,-36.439,0.28659999999999997,-14.5118,175,75
2026-05-09 15:09:20.487,3,-0.71,0.45,1.01,-32.719,-11.183399999999999,-8.4718,175,75
2026-05-09 15:09:20.509,3,-0.52,0.31,1.23,-20.889,-5.753399999999999,-16.1618,175,75
2026-05-09 15:09:20.534,3,-0.6,0.34,1.07,-23.269,-25.143399999999996,-6.2218,175,75
2026-05-09 15:09:20.545,3,-0.67,0.37,1.12,-18.999,-13.013399999999997,-10.001800000000001,175,75
2026-05-09 15:09:20.557,3,-0.53,0.38,1.18,-16.079,-8.9834,-14.941799999999999,175,75
2026-05-09 15:09:20.579,3,-0.66,0.37,1.14,-15.219000000000001,-6.973399999999998,-7.921799999999999,175,75
2026-05-09 15:09:20.593,3,-0.64,0.31,1.4,-10.709,-2.8233999999999995,-9.8118,175,75
2026-05-09 15:09:20.608,3,-0.61,0.32,1.19,-13.879000000000001,-26.183399999999995,-6.831799999999999,175,75
2026-05-09 15:09:20.633,3,-0.67,0.48,1.16,-16.439,-9.293399999999998,-9.941799999999999,175,75
2026-05-09 15:09:20.666,3,-0.61,0.4,1.26,-31.198999999999998,-39.1734,7.1982,175,75
2026-05-09 15:09:20.677,3,-0.59,0.24,1.23,-36.199,-40.993399999999994,6.2181999999999995,175,75
2026-05-09 15:09:20.712,3,-0.62,0.41,1.11,-85.40899999999999,-135.5734,31.3382,175,75
2026-05-09 15:09:20.720,3,-0.68,0.5,0.65,-115.589,-151.7934,60.188199999999995,175,75
2026-05-09 15:09:20.740,3,-0.75,0.92,0.06,-162.909,-140.5134,97.1982,175,75
2026-05-09 15:09:20.769,3,-0.55,0.78,0.91,-166.869,-112.4634,104.32820000000001,175,75
2026-05-09 15:09:20.790,3,-0.53,0.47,1.77,-126.37899999999999,-90.63340000000001,91.21820000000001,175,75
2026-05-09 15:09:20.796,3,-0.35,-0.05,2.18,-89.60900000000001,-66.4234,62.3782,175,75
2026-05-09 15:09:20.804,3,-0.37,-0.17,2.35,-61.86900000000001,-57.7034,45.9782,175,75
2026-05-09 15:09:20.819,3,-0.32,-0.15,2.13,-37.479,-43.743399999999994,27.8082,175,75
2026-05-09 15:09:20.839,3,-0.6,0.52,1.21,-13.389,-18.863399999999995,18.3582,175,75
2026-05-09 15:09:20.863,3,-0.85,0.62,0.91,-36.439,-14.903399999999998,31.1582,175,75
2026-05-09 15:09:20.871,3,-0.64,0.5,1.31,-44.859,-13.9834,27.318199999999997,175,75
2026-05-09 15:09:20.885,3,-0.54,0.52,1.67,-52.969,-23.1934,30.428199999999997,175,75
2026-05-09 15:09:20.895,3,-0.58,0.49,1.88,-65.769,-51.9734,38.5982,175,75
2026-05-09 15:09:20.908,3,-0.69,0.45,1.79,-73.57900000000001,-71.4234,39.5082,175,75
2026-05-09 15:09:20.922,3,-0.71,0.39,1.52,-83.029,-90.0834,36.5282,175,75
2026-05-09 15:09:20.933,3,-0.84,0.45,1.27,-93.209,-105.1434,31.708199999999998,175,75
2026-05-09 15:09:20.947,3,-0.88,0.56,1.11,-95.469,-85.1434,23.4182,175,75
2026-05-09 15:09:20.968,3,-0.62,0.56,1.22,-98.81899999999999,-62.82340000000001,12.5582,175,75
2026-05-09 15:09:20.982,3,-0.9,0.59,1.3,-108.38900000000001,-75.9334,11.8882,175,75
2026-05-09 15:09:20.992,3,-0.82,0.62,1.21,-106.869,-67.0934,1.1582,175,75
2026-05-09 15:09:21.003,3,-0.68,0.65,1.17,-113.029,-77.7034,4.0282,175,75
2026-05-09 15:09:21.015,3,-0.78,0.69,1.11,-121.07900000000001,-84.2334,9.6982,175,75
2026-05-09 15:09:21.024,3,-0.89,0.67,1.0,-120.469,-72.8234,10.668199999999999,175,75
2026-05-09 15:09:21.050,3,-0.93,0.73,1.0,-122.239,-99.0434,9.1482,175,75
2026-05-09 15:09:21.063,3,-1.03,0.71,1.03,-129.249,-117.03340000000001,17.008200000000002,175,75
2026-05-09 15:09:21.085,3,-0.86,0.25,1.26,-158.089,-159.71339999999998,21.888199999999998,175,75
2026-05-09 15:09:21.102,3,-0.83,0.09,1.37,-157.849,-174.3534,24.5782,175,75
2026-05-09 15:09:21.112,3,-0.79,-0.08,1.47,-158.759,-182.0334,21.5282,175,75
2026-05-09 15:09:21.124,3,-0.88,-0.24,1.57,-158.269,-169.4734,22.498199999999997,175,75
2026-05-09 15:09:21.157,3,-0.59,-0.92,1.82,-150.409,-160.87339999999998,5.8582,175,75
2026-05-09 15:09:21.169,3,-0.55,-1.07,1.85,-153.57899999999998,-161.36339999999998,8.2982,175,75
2026-05-09 15:09:21.179,3,-0.22,-1.62,1.67,-169.249,-185.8134,25.7982,175,75
2026-05-09 15:09:21.193,3,0.25,-2.15,1.28,-194.549,-254.16339999999997,36.4082,175,75
2026-05-09 15:09:21.214,3,0.42,-0.06,0.28,-232.10899999999998,-229.2334,54.578199999999995,175,75
2026-05-09 15:09:21.226,3,-0.43,1.32,1.12,-216.019,-148.2534,46.038199999999996,175,75
2026-05-09 15:09:21.232,3,-1.29,2.12,1.73,-216.13899999999998,-131.0634,52.5582,175,75
2026-05-09 15:09:21.256,3,-0.26,1.41,0.37,-272.779,-307.0334,28.2282,175,75
2026-05-09 15:09:21.268,3,-0.41,1.28,-0.61,-318.329,-299.7134,45.188199999999995,175,75
2026-05-09 15:09:21.279,3,0.08,0.93,-0.8,-330.469,-176.7334,32.1982,175,75
2026-05-09 15:09:21.289,3,0.71,0.73,-0.67,-336.869,-167.27339999999998,-20.491799999999998,175,75
2026-05-09 15:09:21.299,3,-0.14,1.01,0.11,-369.42900000000003,-191.6634,9.7582,175,75
2026-05-09 15:09:21.312,3,-0.48,0.7,0.7,-403.579,-269.04339999999996,22.1982,175,75
2026-05-09 15:09:21.323,3,-0.46,0.52,1.14,-434.60900000000004,-362.3434,32.4982,175,75
2026-05-09 15:09:21.334,3,-0.23,0.39,1.74,-472.84900000000005,-503.9234,76.15820000000001,175,75
2026-05-09 15:09:21.342,3,-0.02,0.31,2.31,-504.73900000000003,-666.0634,96.6482,175,75
2026-05-09 15:09:21.347,3,0.04,0.81,2.58,-522.7189999999999,-817.8833999999999,113.29820000000001,175,75
2026-05-09 15:09:21.359,3,-0.32,1.48,2.53,-521.689,-882.7034,168.6582,175,75
2026-05-09 15:09:21.373,3,-0.17,1.39,2.12,-457.35900000000004,-801.7934,170.0582,175,75
2026-05-09 15:09:21.387,3,0.41,1.01,2.16,-382.969,-685.2633999999999,123.5382,175,75
2026-05-09 15:09:21.391,3,0.71,1.02,2.25,-324.309,-595.7533999999999,117.6182,175,75
2026-05-09 15:09:21.401,3,-2.46,2.38,2.56,-217.239,-443.7434,213.4182,175,75
2026-05-09 15:09:21.407,3,-1.6,0.66,0.68,-89.739,-232.27339999999998,190.2482,175,75
2026-05-09 15:09:21.421,3,3.81,-2.36,-1.35,178.981,170.09660000000002,-232.68179999999998,175,75
2026-05-09 15:09:21.443,3,-1.09,0.75,0.33,75.261,337.4166,46.1582,175,75
2026-05-09 15:09:21.454,3,-1.6,0.25,0.89,118.251,369.0066,-10.4218,175,75
2026-05-09 15:09:21.456,3,-1.49,-0.16,0.69,118.311,375.4066,19.388199999999998,175,75
2026-05-09 15:09:21.465,3,-2.39,-0.78,-0.26,22.641,212.65660000000003,152.7482,175,75
2026-05-09 15:09:21.478,3,-1.31,-2.59,0.05,-95.959,60.346599999999995,75.6682,175,75
2026-05-09 15:09:21.508,3,2.54,-0.71,4.37,157.89100000000002,132.5366,-106.1618,175,75
2026-05-09 15:09:21.530,3,-1.03,0.4,1.21,-62.359,-405.2034,294.6382,175,75
2026-05-09 15:09:21.563,3,-0.88,1.4,1.11,78.68100000000001,190.8966,4.5782,175,75
2026-05-09 15:09:21.613,3,-2.08,-0.64,0.66,-26.929000000000002,23.576600000000003,29.818199999999997,175,75
2026-05-09 15:09:21.632,3,-0.85,-0.33,1.4,30.751,43.14660000000001,-61.9518,175,75
2026-05-09 15:09:21.632,3,0.28,-0.19,1.41,18.921,2.7266000000000012,-40.241800000000005,175,75
2026-05-09 15:09:21.653,3,-0.29,0.39,1.61,-8.519,-51.123400000000004,38.1682,175,75
2026-05-09 15:09:21.664,3,-0.94,0.42,1.43,-12.969000000000001,-70.7534,19.758200000000002,175,75
2026-05-09 15:09:21.675,3,-0.73,0.97,1.1,-9.979,-32.883399999999995,-26.641800000000003,175,75
2026-05-09 15:09:21.697,3,-0.74,0.88,1.34,-45.829,-41.85339999999999,-8.781799999999999,175,75
2026-05-09 15:09:21.710,3,-0.63,0.31,1.3,-53.209,-34.903400000000005,-24.3318,175,75
2026-05-09 15:09:21.721,3,-0.68,-0.25,1.45,-63.389,-64.8434,-24.391800000000003,175,75
2026-05-09 15:09:21.743,3,-0.78,0.03,1.29,-40.279,-40.7534,-50.241800000000005,175,75
2026-05-09 15:09:21.765,3,-0.77,-0.11,1.62,-44.919,-63.013400000000004,-55.851800000000004,175,75
2026-05-09 15:09:21.766,3,-0.92,-0.17,1.63,-58.148999999999994,-76.9734,-58.05180000000001,175,75
2026-05-09 15:09:21.777,3,-0.93,-0.25,1.6,-75.82900000000001,-107.7634,-55.851800000000004,175,75
2026-05-09 15:09:21.792,3,-0.83,-0.55,1.67,-96.56899999999999,-121.66340000000001,-53.8418,175,75
2026-05-09 15:09:21.824,3,-0.19,-1.75,1.26,-153.209,-262.5834,-29.4518,175,75
2026-05-09 15:09:21.836,3,0.3,-1.38,0.93,-160.959,-288.8634,-10.911800000000001,175,75
2026-05-09 15:09:21.858,3,0.83,-0.6,0.58,-168.029,-303.6834,46.468199999999996,175,75
2026-05-09 15:09:21.858,3,0.8,-0.24,0.42,-170.959,-278.3134,49.4482,175,75
2026-05-09 15:09:21.874,3,0.43,0.25,0.54,-178.759,-238.5634,57.868199999999995,175,75
2026-05-09 15:09:21.885,3,-0.42,0.97,0.89,-164.85899999999998,-208.5634,51.1582,175,75
2026-05-09 15:09:21.902,3,-0.91,1.2,0.99,-142.47899999999998,-206.18339999999998,47.868199999999995,175,75
2026-05-09 15:09:21.910,3,-0.33,0.85,0.98,-124.679,-205.6934,50.6082,175,75
2026-05-09 15:09:21.920,3,0.37,0.45,0.38,-146.319,-250.2034,51.7082,175,75
2026-05-09 15:09:21.931,3,0.35,0.52,-0.21,-141.259,-213.0734,33.2282,175,75
2026-05-09 15:09:21.934,3,0.78,0.33,0.32,-137.849,-83.0134,17.9882,175,75
2026-05-09 15:09:21.972,3,0.14,0.7,0.39,-236.929,-177.27339999999998,-4.8118,175,75
2026-05-09 15:09:21.983,3,0.22,0.59,0.8,-247.47899999999998,-204.2334,-31.641800000000003,175,75
2026-05-09 15:09:21.994,3,0.58,0.69,1.26,-272.969,-264.04339999999996,-26.461800000000004,175,75
2026-05-09 15:09:22.006,3,0.59,0.73,1.59,-286.98900000000003,-330.9334,-0.9718,175,75
2026-05-09 15:09:22.029,3,0.6,0.55,1.87,-321.689,-525.0234,14.1482,175,75
2026-05-09 15:09:22.040,3,0.74,0.55,1.28,-340.40900000000005,-581.6034,31.0982,175,75
2026-05-09 15:09:22.054,3,0.63,0.66,1.63,-330.34900000000005,-533.4934,34.0282,175,75
2026-05-09 15:09:22.059,3,0.71,0.87,2.55,-303.939,-571.6034,29.508200000000002,175,75
2026-05-09 15:09:22.075,3,0.67,1.11,2.89,-290.15900000000005,-593.0734,56.5282,175,75
2026-05-09 15:09:22.086,3,-1.94,2.4,1.46,-245.88899999999998,-582.3434,180.0582,175,75
2026-05-09 15:09:22.096,3,-10.29,5.93,5.13,-127.53899999999999,-328.7434,533.7182,175,75
2026-05-09 15:09:22.118,3,4.46,-4.05,0.68,231.42100000000002,-322.7634,-231.4018,175,75
2026-05-09 15:09:22.130,3,0.44,1.27,-1.73,-42.719,-194.3534,267.9282,175,75
2026-05-09 15:09:22.144,3,-2.13,0.44,0.12,134.651,334.4266,98.71820000000001,175,75
2026-05-09 15:09:22.155,3,0.43,-0.95,2.03,184.781,428.45660000000004,-68.11179999999999,175,75
2026-05-09 15:09:22.167,3,0.18,-1.07,1.9,10.571,43.3266,121.7082,175,75
2026-05-09 15:09:22.182,3,-0.46,-3.49,1.18,7.521,-79.4734,158.53820000000002,175,75
2026-05-09 15:09:22.193,3,-1.74,-3.02,2.64,160.931,141.5666,71.6482,175,75
2026-05-09 15:09:22.225,3,1.0,1.72,2.31,17.581,-199.1034,208.47820000000002,175,75
2026-05-09 15:09:22.225,3,-2.18,1.29,1.15,-41.379,-221.30339999999998,178.22820000000002,175,75
2026-05-09 15:09:22.237,3,-1.9,1.43,0.37,1.5410000000000004,-62.7034,41.468199999999996,175,75
2026-05-09 15:09:22.248,3,-0.88,1.26,1.19,9.171,23.696600000000004,19.2682,175,75
2026-05-09 15:09:22.272,3,-1.11,0.44,0.76,-26.569000000000003,-111.7334,21.5282,175,75
2026-05-09 15:09:22.283,3,-0.71,-0.33,0.67,-3.939,-39.96339999999999,-0.061799999999999855,175,75
2026-05-09 15:09:22.295,3,-0.54,-0.9,1.22,13.620999999999999,-4.773399999999999,4.2082,175,75
2026-05-09 15:09:22.332,3,-0.64,0.28,1.46,9.291,-33.8634,-30.791800000000002,175,75
2026-05-09 15:09:22.363,3,-0.59,-0.76,1.71,-16.689,-48.49340000000001,-11.641800000000002,175,75
2026-05-09 15:09:22.369,3,-0.64,-1.13,1.49,-13.029,-54.4734,-15.001800000000001,175,75
2026-05-09 15:09:22.395,3,0.06,-1.62,1.3,-14.068999999999999,-55.0834,18.3582,175,75
2026-05-09 15:09:22.406,3,0.4,-1.79,1.38,-22.049,-90.9334,64.9982,175,75
2026-05-09 15:09:22.415,3,0.78,-1.86,1.35,-33.879,-139.59339999999997,85.1182,175,75
2026-05-09 15:09:22.451,3,0.07,-0.02,1.33,-92.47900000000001,-210.4534,153.9682,175,75
2026-05-09 15:09:22.479,3,-0.21,1.26,1.59,-61.379,-145.14339999999999,104.6982,175,75
2026-05-09 15:09:22.494,3,-0.78,1.88,1.93,-45.099,-116.7334,110.6682,175,75
2026-05-09 15:09:22.513,3,0.69,0.53,-0.26,-123.75899999999999,-214.2934,78.4182,175,75
2026-05-09 15:09:22.534,3,0.65,0.74,-0.62,-172.47899999999998,-6.973399999999998,27.928199999999997,175,75
2026-05-09 15:09:22.547,3,0.88,0.7,0.09,-209.679,-51.303399999999996,1.3381999999999996,175,75
2026-05-09 15:09:22.561,3,0.37,0.64,0.15,-246.379,-64.7734,27.318199999999997,175,75
2026-05-09 15:09:22.570,3,0.06,0.34,0.39,-255.82899999999998,-61.4834,13.598199999999999,175,75
2026-05-09 15:09:22.582,3,0.2,0.07,0.94,-276.439,-84.4734,-14.941799999999999,175,75
2026-05-09 15:09:22.597,3,0.26,0.27,1.33,-310.589,-149.77339999999998,-8.7218,175,75
2026-05-09 15:09:22.609,3,0.14,0.26,1.35,-333.459,-210.5134,4.8182,175,75
2026-05-09 15:09:22.620,3,-0.04,0.42,1.23,-333.699,-239.04339999999996,11.0382,175,75
2026-05-09 15:09:22.632,3,0.05,0.39,1.36,-323.149,-232.58339999999998,27.688200000000002,175,75
2026-05-09 15:09:22.646,3,0.29,0.3,1.28,-283.089,-217.34339999999997,27.258200000000002,175,75
2026-05-09 15:09:22.657,3,0.58,0.33,1.42,-256.98900000000003,-190.99339999999998,18.7182,175,75
2026-05-09 15:09:22.667,3,0.88,0.44,1.78,-227.539,-160.93339999999998,-4.5718,175,75
2026-05-09 15:09:22.680,3,-2.27,2.17,2.48,-185.099,-66.3634,79.93820000000001,175,75
2026-05-09 15:09:22.690,3,-6.02,2.96,3.68,-203.089,212.35660000000001,235.9182,175,75
2026-05-09 15:09:22.698,3,-2.08,-0.99,5.09,351.001,348.08660000000003,19.0882,175,75
2026-05-09 15:09:22.712,3,-0.24,-2.24,6.76,376.421,199.97660000000002,-28.4718,175,75
2026-05-09 15:09:22.725,3,4.38,-2.99,5.03,167.89100000000002,-85.4534,-41.031800000000004,175,75
2026-05-09 15:09:22.772,3,0.36,0.84,1.3,242.221,313.6966,-220.18179999999998,175,75
2026-05-09 15:09:22.782,3,1.49,1.83,2.67,105.321,61.506600000000006,107.9882,175,75
2026-05-09 15:09:22.792,3,-1.05,0.62,2.01,55.391,-214.84339999999997,161.8882,175,75
2026-05-09 15:09:22.805,3,-1.82,0.13,0.62,44.171,-51.123400000000004,23.0482,175,75
2026-05-09 15:09:22.819,3,-0.6,0.47,1.3,94.17099999999999,73.0266,-24.6918,175,75
2026-05-09 15:09:22.830,3,-0.15,0.71,2.12,53.741,-4.293399999999998,19.4482,175,75
2026-05-09 15:09:22.863,3,-0.44,0.03,1.53,40.811,-3.193399999999997,17.688200000000002,175,75
2026-05-09 15:09:22.874,3,-0.31,0.25,1.49,33.681,-21.3034,22.748199999999997,175,75
2026-05-09 15:09:22.887,3,-0.75,0.41,1.38,26.001,8.576600000000001,37.5582,175,75
2026-05-09 15:09:22.899,3,-0.5,0.37,1.63,27.761,48.696600000000004,20.4882,175,75
2026-05-09 15:09:22.910,3,-0.34,0.44,1.68,18.561,19.306600000000003,28.968200000000003,175,75
2026-05-09 15:09:22.910,3,-0.66,0.38,1.56,11.481,3.0866000000000007,34.8182,175,75
2026-05-09 15:09:22.931,3,-0.41,0.18,1.35,6.541,8.026600000000002,13.5382,175,75
2026-05-09 15:09:22.943,3,-0.17,0.59,1.11,-1.3790000000000004,-3.433399999999999,20.3682,175,75
2026-05-09 15:09:22.955,3,-0.73,0.45,1.35,4.721,27.7266,29.938200000000002,175,75
2026-05-09 15:09:22.967,3,-0.58,0.17,1.51,4.901,41.866600000000005,23.4182,175,75
2026-05-09 15:09:22.983,3,-0.48,0.19,1.56,3.251,35.64660000000001,22.0782,175,75
2026-05-09 15:09:22.993,3,-0.48,0.35,1.51,3.801,33.6366,26.5882,175,75
2026-05-09 15:09:23.004,3,-0.74,0.22,1.6,2.461,48.14660000000001,29.388199999999998,175,75
2026-05-09 15:09:23.015,3,-0.62,0.19,1.64,8.131,53.456599999999995,16.7682,175,75
2026-05-09 15:09:23.026,3,-0.47,0.44,1.61,2.2809999999999997,27.1766,14.8782,175,75
2026-05-09 15:09:23.038,3,-0.66,0.48,1.23,-9.549,-4.843399999999999,22.748199999999997,175,75
2026-05-09 15:09:23.085,3,-0.77,0.45,1.16,-9.919,4.736600000000001,8.908199999999999,175,75
2026-05-09 15:09:23.096,3,-0.77,0.41,1.2,-7.968999999999999,17.966600000000003,-1.4618000000000002,175,75
2026-05-09 15:09:23.106,3,-0.57,0.42,1.33,-8.879,11.436600000000002,-6.6418,175,75
2026-05-09 15:09:23.128,3,-0.72,0.45,1.28,-13.759,-7.9533999999999985,-1.341800000000001,175,75
2026-05-09 15:09:23.139,3,-0.68,0.42,1.22,-12.658999999999999,-5.3233999999999995,-6.2818000000000005,175,75
2026-05-09 15:09:23.164,3,-0.7,0.47,1.23,-21.629,-16.7334,-5.7318,175,75
2026-05-09 15:09:23.175,3,-0.67,0.48,1.23,-23.579,-13.683399999999999,-7.921799999999999,175,75
2026-05-09 15:09:23.181,3,-0.54,0.51,1.22,-27.299,-21.363399999999995,-6.9518,175,75
2026-05-09 15:09:23.193,3,-0.59,0.44,1.11,-30.409,-22.823399999999996,-1.0318000000000005,175,75
2026-05-09 15:09:23.207,3,-0.65,0.49,1.17,-24.859,-2.7033999999999985,-8.4718,175,75
2026-05-09 15:09:23.222,3,-0.6,0.25,1.32,-23.819,-4.2334,-6.1617999999999995,175,75
2026-05-09 15:09:23.234,3,-0.63,0.25,1.21,-24.609,-3.313399999999998,-7.681800000000001,175,75
2026-05-09 15:09:23.244,3,-0.68,0.28,1.27,-24.429,1.566600000000001,-7.621799999999999,175,75
2026-05-09 15:09:23.258,3,-0.58,0.26,1.42,-23.999,-6.543399999999998,-10.3618,175,75
2026-05-09 15:09:23.271,3,-0.62,0.29,1.36,-26.259,-20.813399999999998,-3.7218,175,75
2026-05-09 15:09:23.285,3,-0.69,0.26,1.26,-29.609,-25.0234,-2.8618000000000006,175,75
2026-05-09 15:09:23.295,3,-0.65,0.38,1.24,-37.049,-17.213399999999996,-1.9518000000000004,175,75
2026-05-09 15:09:23.300,3,-0.55,0.39,1.38,-47.479,-41.85339999999999,3.4181999999999997,175,75
2026-05-09 15:09:23.313,3,-0.5,0.43,1.37,-65.09899999999999,-75.9334,11.4682,175,75
2026-05-09 15:09:23.323,3,-0.71,0.45,1.27,-81.989,-86.85340000000001,29.328200000000002,175,75
2026-05-09 15:09:23.337,3,-0.61,0.36,1.24,-97.10900000000001,-95.8734,33.1082,175,75
2026-05-09 15:09:23.339,3,-0.43,0.52,1.18,-109.679,-107.7034,48.1682,175,75
2026-05-09 15:09:23.383,3,-0.52,0.62,0.97,-185.88899999999998,-107.7034,119.6982,175,75
2026-05-09 15:09:23.394,3,-0.27,0.63,1.39,-199.489,-141.0634,133.41819999999998,175,75
2026-05-09 15:09:23.404,3,-0.27,0.63,1.51,-204.189,-170.3234,144.50820000000002,175,75
2026-05-09 15:09:23.427,3,-0.18,0.28,2.07,-153.57899999999998,-80.0834,122.68820000000001,175,75
2026-05-09 15:09:23.443,3,-0.17,0.07,2.4,-120.40899999999999,-41.6734,96.21820000000001,175,75
2026-05-09 15:09:23.453,3,-0.31,0.01,2.43,-91.19900000000001,-25.4534,80.0582,175,75
2026-05-09 15:09:23.464,3,-0.6,0.01,2.06,-71.62899999999999,-28.9834,67.4382,175,75
2026-05-09 15:09:23.497,3,-1.1,0.53,0.86,-77.10900000000001,-14.353399999999997,42.868199999999995,175,75
2026-05-09 15:09:23.507,3,-0.73,0.61,1.38,-79.489,-17.1534,33.4782,175,75
2026-05-09 15:09:23.518,3,-0.64,0.58,1.67,-94.369,-61.60340000000001,38.4182,175,75
2026-05-09 15:09:23.530,3,-0.79,0.61,1.58,-101.689,-90.7534,39.5082,175,75
2026-05-09 15:09:23.563,3,-1.02,0.66,0.87,-114.489,-130.02339999999998,29.758200000000002,175,75
2026-05-09 15:09:23.578,3,-0.9,0.71,0.8,-109.85900000000001,-108.3734,25.0582,175,75
2026-05-09 15:09:23.588,3,-0.85,0.77,0.79,-109.60900000000001,-107.0934,24.998199999999997,175,75
2026-05-09 15:09:23.600,3,-0.84,0.85,0.67,-107.10900000000001,-83.6234,19.818199999999997,175,75
2026-05-09 15:09:23.613,3,-0.78,0.93,0.74,-94.429,-33.9834,11.0382,175,75
2026-05-09 15:09:23.625,3,-0.9,1.02,0.81,-84.97900000000001,-4.173399999999997,4.6982,175,75
2026-05-09 15:09:23.637,3,-0.9,0.97,0.73,-78.38900000000001,3.396600000000001,-2.9917999999999996,175,75
2026-05-09 15:09:23.656,3,-1.11,0.96,0.72,-72.969,14.976600000000001,-10.6718,175,75
2026-05-09 15:09:23.656,3,-0.96,0.64,0.9,-71.56899999999999,4.306600000000001,-18.6618,175,75
2026-05-09 15:09:23.680,3,-0.84,0.31,1.2,-71.989,-42.82339999999999,-25.421800000000005,175,75
2026-05-09 15:09:23.691,3,-0.86,0.15,1.25,-74.91900000000001,-73.2534,-18.781799999999997,175,75
2026-05-09 15:09:23.729,3,-0.74,-0.23,1.5,-51.139,-95.38340000000001,-35.7318,175,75
2026-05-09 15:09:23.754,3,-0.66,-0.51,1.56,-52.539,-80.0234,-35.3018,175,75
2026-05-09 15:09:23.765,3,-0.63,-0.67,1.65,-56.989,-74.0434,-27.1918,175,75
2026-05-09 15:09:23.776,3,-0.72,-0.91,1.87,-61.499,-69.4134,-8.661800000000001,175,75
2026-05-09 15:09:23.791,3,-0.73,-1.39,1.97,-71.37899999999999,-78.8634,10.488199999999999,175,75
2026-05-09 15:09:23.791,3,-0.24,-2.26,1.87,-91.989,-137.40339999999998,13.8382,175,75
2026-05-09 15:09:23.804,3,0.27,-2.18,1.29,-110.219,-209.2334,21.2182,175,75
2026-05-09 15:09:23.815,3,0.56,-1.4,0.79,-119.249,-211.5434,38.0482,175,75
2026-05-09 15:09:23.826,3,0.69,-0.26,0.32,-153.149,-183.9234,74.4482,175,75
2026-05-09 15:09:23.837,3,0.18,0.75,0.72,-164.129,-137.21339999999998,72.1982,175,75
2026-05-09 15:09:23.858,3,-0.76,1.82,1.65,-134.069,-121.3634,77.1982,175,75
2026-05-09 15:09:23.874,3,0.95,0.58,0.16,-217.47899999999998,-281.1234,33.1082,175,75
2026-05-09 15:09:23.892,3,0.25,1.2,-1.19,-297.47900000000004,-106.0634,20.248199999999997,175,75
2026-05-09 15:09:23.914,3,0.76,0.7,-0.34,-324.42900000000003,-75.6934,-55.851800000000004,175,75
2026-05-09 15:09:23.936,3,0.02,0.53,0.76,-422.90900000000005,-221.8534,1.0981999999999994,175,75
2026-05-09 15:09:23.936,3,0.02,0.3,1.12,-441.499,-289.16339999999997,-15.4218,175,75
2026-05-09 15:09:23.947,3,0.21,0.23,1.47,-472.90900000000005,-374.5934,-9.4518,175,75
2026-05-09 15:09:23.960,3,0.31,0.23,1.81,-511.569,-470.9934,16.8282,175,75
2026-05-09 15:09:23.968,3,0.12,0.47,2.26,-549.9789999999999,-619.3534,36.7082,175,75
2026-05-09 15:09:23.985,3,-0.02,1.0,2.47,-543.579,-708.5634,60.368199999999995,175,75
2026-05-09 15:09:23.995,3,-0.29,1.28,2.68,-520.5889999999999,-712.3434,92.13820000000001,175,75
