Time,ID,Ax,Ay,Az,Gx,Gy,Gz,Height,Weight
2026-05-09 16:13:16.676,3,0.37,-0.5,1.09,183.13240000000002,75.80879999999999,66.504,175,75
2026-05-09 16:13:16.688,3,0.14,-0.3,1.2,180.57240000000002,97.08879999999999,64.79400000000001,175,75
2026-05-09 16:13:16.701,3,0.07,-0.13,1.33,188.5624,111.72879999999999,61.994,175,75
2026-05-09 16:13:16.716,3,0.32,0.07,1.53,172.2824,107.1588,54.12400000000001,175,75
2026-05-09 16:13:16.727,3,0.34,0.35,1.37,158.38240000000002,89.22879999999999,45.224000000000004,175,75
2026-05-09 16:13:16.737,3,0.19,0.76,1.28,150.0224,110.74879999999999,38.45400000000001,175,75
2026-05-09 16:13:16.749,3,0.31,1.0,1.34,135.0824,119.71879999999999,45.95400000000001,175,75
2026-05-09 16:13:16.760,3,-0.01,1.35,1.55,133.5624,114.9588,68.21400000000001,175,75
2026-05-09 16:13:16.771,3,0.01,1.14,1.58,123.9324,86.35879999999999,96.384,175,75
2026-05-09 16:13:16.781,3,0.37,0.57,1.6,100.88239999999999,11.1188,84.004,175,75
2026-05-09 16:13:16.796,3,0.34,0.44,1.35,65.63239999999999,-51.8112,42.604,175,75
2026-05-09 16:13:16.816,3,0.23,0.79,0.97,26.3624,-74.4912,25.534000000000002,175,75
2026-05-09 16:13:16.827,3,0.08,0.78,0.85,13.0124,-39.4912,10.834,175,75
2026-05-09 16:13:16.838,3,-0.14,0.75,0.84,-1.5576000000000008,10.2688,-6.9659999999999975,175,75
2026-05-09 16:13:16.838,3,-0.33,0.7,0.95,-18.1476,42.7688,-27.766,175,75
2026-05-09 16:13:16.872,3,-0.12,0.88,1.32,-80.76759999999999,-0.34119999999999995,-116.056,175,75
2026-05-09 16:13:16.872,3,-0.01,1.09,1.34,-119.48759999999999,0.7487999999999999,-110.87599999999999,175,75
2026-05-09 16:13:16.889,3,0.06,1.29,1.38,-153.9976,-23.6412,-102.636,175,75
2026-05-09 16:13:16.901,3,0.11,1.33,1.45,-176.80759999999998,-69.3712,-106.356,175,75
2026-05-09 16:13:16.912,3,0.17,1.33,1.43,-205.7676,-110.5912,-110.01599999999999,175,75
2026-05-09 16:13:16.912,3,0.33,1.27,1.31,-240.8876,-139.9812,-105.506,175,75
2026-05-09 16:13:16.926,3,0.78,0.9,1.06,-271.43760000000003,-169.0012,-110.076,175,75
2026-05-09 16:13:16.937,3,0.03,0.58,0.87,-286.9276,-183.0312,-137.276,175,75
2026-05-09 16:13:16.948,3,-0.17,0.45,0.89,-300.7676,-117.6012,-181.966,175,75
2026-05-09 16:13:16.988,3,-4.33,-2.21,6.8,278.2524,-149.5512,-175.996,175,75
2026-05-09 16:13:17.011,3,6.84,0.81,2.45,-374.4276,-779.1912,-48.066,175,75
2026-05-09 16:13:17.022,3,-3.32,1.36,0.15,-617.7176,-638.2112000000001,110.34400000000001,175,75
2026-05-09 16:13:17.034,3,-2.0,1.75,-2.19,-461.7476,61.5488,-50.07599999999999,175,75
2026-05-09 16:13:17.046,3,0.08,-0.56,-0.52,144.9024,9.168800000000001,-30.205999999999996,175,75
2026-05-09 16:13:17.075,3,0.06,-0.26,2.47,41.1224,167.0288,-86.786,175,75
2026-05-09 16:13:17.085,3,0.67,-0.35,2.57,-47.7776,-40.3412,-110.136,175,75
2026-05-09 16:13:17.099,3,0.47,0.35,1.43,-112.83760000000001,-125.89120000000001,-46.416,175,75
2026-05-09 16:13:17.116,3,0.28,0.02,0.11,-56.3776,-21.9312,-40.806,175,75
2026-05-09 16:13:17.129,3,0.41,-0.09,0.07,-23.5676,63.0088,-32.576,175,75
2026-05-09 16:13:17.180,3,0.89,0.18,1.2,32.1024,-2.1112,12.114,175,75
2026-05-09 16:13:17.180,3,0.83,0.16,0.94,47.4024,-28.0912,24.924000000000003,175,75
2026-05-09 16:13:17.190,3,0.78,0.07,0.62,73.6824,-35.4112,35.34400000000001,175,75
2026-05-09 16:13:17.203,3,0.69,0.07,0.42,102.6524,-1.1412,41.444,175,75
2026-05-09 16:13:17.215,3,0.66,0.12,0.43,136.6724,55.8088,49.43400000000001,175,75
2026-05-09 16:13:17.226,3,0.55,0.12,0.75,190.2124,106.66879999999999,74.494,175,75
2026-05-09 16:13:17.240,3,0.41,0.09,0.79,194.4724,111.2388,85.34400000000001,175,75
2026-05-09 16:13:17.249,3,0.45,0.05,0.84,197.16240000000002,114.46879999999999,90.40400000000001,175,75
2026-05-09 16:13:17.263,3,0.35,-0.04,1.04,194.41240000000002,108.3788,106.754,175,75
2026-05-09 16:13:17.278,3,0.16,-0.3,1.24,184.1724,103.6188,127.604,175,75
2026-05-09 16:13:17.289,3,0.11,-0.54,1.46,182.3424,80.8788,127.90400000000001,175,75
2026-05-09 16:13:17.301,3,-0.06,-0.7,1.6,169.7824,30.808799999999998,110.044,175,75
2026-05-09 16:13:17.301,3,-0.2,-0.57,1.49,149.66240000000002,-4.5512,91.87400000000001,175,75
2026-05-09 16:13:17.312,3,-0.29,-0.35,1.29,143.0124,-2.9712,88.584,175,75
2026-05-09 16:13:17.329,3,-0.39,-0.32,1.13,145.4524,29.4088,104.254,175,75
2026-05-09 16:13:17.351,3,-0.73,-0.62,1.12,134.29240000000001,68.7388,85.284,175,75
2026-05-09 16:13:17.363,3,-0.68,-0.61,1.07,115.3324,80.38879999999999,28.644000000000002,175,75
2026-05-09 16:13:17.391,3,0.04,-0.05,1.02,40.5724,80.74879999999999,-28.676,175,75
2026-05-09 16:13:17.392,3,-0.08,0.09,1.09,16.0624,86.35879999999999,-36.176,175,75
2026-05-09 16:13:17.415,3,-0.18,-0.01,1.3,-34.8476,68.7388,-76.486,175,75
2026-05-09 16:13:17.422,3,-0.05,0.01,1.26,-79.2476,21.3588,-108.856,175,75
2026-05-09 16:13:17.438,3,-0.01,0.11,1.07,-114.05760000000001,16.9688,-116.966,175,75
2026-05-09 16:13:17.448,3,-0.0,0.08,0.97,-143.6976,12.828800000000001,-127.576,175,75
2026-05-09 16:13:17.463,3,-0.03,0.05,0.95,-168.14759999999998,10.3888,-145.506,175,75
2026-05-09 16:13:17.510,3,0.38,0.1,0.93,-235.33759999999998,-16.0812,-167.156,175,75
2026-05-09 16:13:17.510,3,0.38,0.06,0.86,-243.9376,-10.5312,-163.246,175,75
2026-05-09 16:13:17.534,3,0.44,-0.13,0.74,-257.1676,6.9688,-149.89600000000002,175,75
2026-05-09 16:13:17.567,3,0.8,-0.04,0.75,-243.6376,-1.2612,-139.836,175,75
2026-05-09 16:13:17.589,3,-2.56,1.74,1.7,-178.9976,213.9888,-58.736000000000004,175,75
2026-05-09 16:13:17.600,3,-5.63,3.53,2.47,-99.9176,535.7488,117.234,175,75
2026-05-09 16:13:17.629,3,-4.86,2.87,4.76,112.7124,-26.7512,314.37399999999997,175,75
2026-05-09 16:13:17.642,3,1.96,-1.68,3.24,257.7724,-247.2312,49.98400000000001,175,75
2026-05-09 16:13:17.652,3,1.28,-2.92,-0.73,-114.60759999999999,-806.8712,233.824,175,75
2026-05-09 16:13:17.666,3,-4.5,-0.2,-2.17,-244.42759999999998,279.52880000000005,375.404,175,75
2026-05-09 16:13:17.691,3,0.24,-1.51,0.6,398.99240000000003,22.2788,-182.886,175,75
2026-05-09 16:13:17.739,3,-0.21,-0.09,2.1,75.0224,33.5588,12.974,175,75
2026-05-09 16:13:17.739,3,-0.32,0.47,1.94,64.35239999999999,-22.6012,45.65400000000001,175,75
2026-05-09 16:13:17.752,3,-0.71,0.42,1.77,55.6324,-40.4712,57.42400000000001,175,75
2026-05-09 16:13:17.763,3,-0.76,0.08,1.54,27.4024,-38.2112,18.214000000000002,175,75
2026-05-09 16:13:17.774,3,-0.68,0.01,1.61,21.242399999999996,-20.0412,-5.075999999999997,175,75
2026-05-09 16:13:17.828,3,0.1,-0.84,1.02,-16.6776,-51.3812,-39.775999999999996,175,75
2026-05-09 16:13:17.838,3,0.29,-0.87,0.94,-16.3176,-36.4412,-35.686,175,75
2026-05-09 16:13:17.855,3,0.5,-0.85,0.92,-12.9576,-24.371199999999998,-30.505999999999997,175,75
2026-05-09 16:13:17.865,3,0.75,-0.84,0.93,-5.707599999999999,-33.391200000000005,-23.305999999999997,175,75
2026-05-09 16:13:17.899,3,0.95,-0.52,0.47,1.3023999999999987,-104.92120000000001,11.564000000000004,175,75
2026-05-09 16:13:17.921,3,0.51,-0.24,-0.11,30.632399999999997,-92.78120000000001,25.284000000000002,175,75
2026-05-09 16:13:17.921,3,0.47,-0.08,-0.13,68.32239999999999,-45.9512,27.294,175,75
2026-05-09 16:13:17.951,3,0.34,0.05,0.49,167.8324,107.02879999999999,50.224000000000004,175,75
2026-05-09 16:13:17.976,3,0.09,-0.04,1.14,224.9624,175.62879999999998,81.56400000000001,175,75
2026-05-09 16:13:18.017,3,0.56,0.17,1.55,164.66240000000002,-31.4412,114.06400000000001,175,75
2026-05-09 16:13:18.041,3,0.13,0.28,1.07,137.04240000000001,-48.1512,126.264,175,75
2026-05-09 16:13:18.053,3,-0.01,0.18,0.95,121.4324,-26.3212,133.76399999999998,175,75
2026-05-09 16:13:18.064,3,-0.08,-0.02,0.7,93.2524,-40.9512,95.894,175,75
2026-05-09 16:13:18.077,3,-0.09,0.16,0.5,46.6124,-12.5412,63.51400000000001,175,75
2026-05-09 16:13:18.146,3,0.47,0.84,1.07,-235.5276,-92.11120000000001,-112.026,175,75
2026-05-09 16:13:18.157,3,0.42,0.69,1.06,-281.4376,-164.9812,-146.726,175,75
2026-05-09 16:13:18.168,3,0.48,0.61,0.78,-327.5376,-153.5812,-167.216,175,75
2026-05-09 16:13:18.172,3,0.01,0.67,0.81,-343.75759999999997,-112.6012,-183.556,175,75
2026-05-09 16:13:18.186,3,-2.26,1.13,1.24,-307.1076,94.71879999999999,-170.506,175,75
2026-05-09 16:13:18.198,3,-2.58,1.15,2.0,-261.8076,240.8088,-116.23599999999999,175,75
2026-05-09 16:13:18.208,3,-6.9,2.4,4.28,-110.76759999999999,495.0788,108.454,175,75
2026-05-09 16:13:18.224,3,0.06,-3.37,8.21,376.24240000000003,354.16880000000003,145.474,175,75
2026-05-09 16:13:18.238,3,-3.76,-0.79,7.34,205.1524,-130.0412,-299.656,175,75
2026-05-09 16:13:18.238,3,4.89,2.29,5.17,-233.8176,-217.5412,-118.916,175,75
2026-05-09 16:13:18.245,3,0.17,2.6,2.68,-357.6576,-927.6012000000001,69.194,175,75
2026-05-09 16:13:18.259,3,-1.72,1.97,-1.3,-429.2476,-390.65119999999996,-80.326,175,75
2026-05-09 16:13:18.278,3,0.74,1.39,-2.63,-116.98759999999999,-111.69120000000001,-79.40599999999999,175,75
2026-05-09 16:13:18.285,3,-0.42,0.02,-1.17,43.8624,140.0788,-29.165999999999997,175,75
2026-05-09 16:13:18.296,3,-0.09,-0.95,0.18,53.682399999999994,294.46880000000004,-37.946,175,75
2026-05-09 16:13:18.306,3,-0.22,-1.18,1.39,95.57239999999999,261.60880000000003,-22.455999999999996,175,75
2026-05-09 16:13:18.322,3,-0.09,-1.08,2.07,65.51240000000001,168.12879999999998,-57.025999999999996,175,75
2026-05-09 16:13:18.334,3,0.93,-0.15,2.17,-42.227599999999995,-15.2812,-79.106,175,75
2026-05-09 16:13:18.359,3,0.27,0.11,0.19,-17.1676,-152.6612,38.644000000000005,175,75
2026-05-09 16:13:18.359,3,0.44,-0.05,-0.08,25.572400000000002,-85.3412,27.294,175,75
2026-05-09 16:13:18.371,3,0.72,-0.01,0.03,75.63239999999999,-26.2012,44.98400000000001,175,75
2026-05-09 16:13:18.383,3,0.57,-0.01,0.16,103.8024,-1.8712,57.42400000000001,175,75
2026-05-09 16:13:18.394,3,0.45,0.06,0.26,136.2424,36.0588,63.09400000000001,175,75
2026-05-09 16:13:18.407,3,0.5,0.08,0.5,171.4924,77.82879999999999,77.23400000000001,175,75
2026-05-09 16:13:18.421,3,0.55,-0.05,0.78,195.69240000000002,111.05879999999999,88.334,175,75
2026-05-09 16:13:18.436,3,0.42,-0.48,1.17,221.91240000000002,136.2388,108.884,175,75
2026-05-09 16:13:18.477,3,0.01,-0.23,1.58,192.4624,126.6688,98.584,175,75
2026-05-09 16:13:18.489,3,-0.08,-0.13,1.66,178.6824,110.0188,106.08400000000002,175,75
2026-05-09 16:13:18.525,3,-0.28,-0.17,1.63,155.1524,76.41879999999999,122.36400000000002,175,75
2026-05-09 16:13:18.537,3,-0.55,-0.35,1.51,138.8024,61.2388,125.954,175,75
2026-05-09 16:13:18.537,3,-0.67,-0.5,1.43,131.3024,54.3488,112.90400000000001,175,75
2026-05-09 16:13:18.582,3,-0.26,0.19,1.16,-25.0976,39.7788,-22.455999999999996,175,75
2026-05-09 16:13:18.597,3,-0.13,0.06,1.28,-63.3876,11.9688,-43.676,175,75
2026-05-09 16:13:18.608,3,-0.06,0.02,1.24,-106.98759999999999,-32.3012,-73.43599999999999,175,75
2026-05-09 16:13:18.614,3,-0.02,0.1,1.07,-137.8976,-33.1512,-85.386,175,75
2026-05-09 16:13:18.649,3,0.19,0.03,0.9,-208.5676,-36.5612,-127.09599999999999,175,75
2026-05-09 16:13:18.662,3,0.34,0.01,0.9,-233.0276,-39.3112,-140.266,175,75
2026-05-09 16:13:18.672,3,0.45,-0.03,0.9,-249.9176,-41.2012,-143.856,175,75
2026-05-09 16:13:18.683,3,0.5,-0.07,0.93,-262.2876,-39.3112,-147.516,175,75
2026-05-09 16:13:18.693,3,0.56,-0.05,0.95,-270.3376,-40.041199999999996,-153.556,175,75
2026-05-09 16:13:18.712,3,0.69,-0.0,0.94,-276.25759999999997,-36.2612,-152.216,175,75
2026-05-09 16:13:18.712,3,0.77,0.04,0.96,-281.9876,-30.6512,-148.006,175,75
2026-05-09 16:13:18.747,3,1.22,0.2,1.26,-269.1776,-99.31120000000001,-154.776,175,75
2026-05-09 16:13:18.758,3,0.43,0.5,1.44,-271.37760000000003,-54.5512,-159.226,175,75
2026-05-09 16:13:18.768,3,-3.36,2.04,1.79,-212.4776,208.3088,-59.226,175,75
2026-05-09 16:13:18.788,3,1.71,0.79,3.67,163.19240000000002,-10.5912,-157.336,175,75
2026-05-09 16:13:18.799,3,-2.99,1.85,3.79,84.29239999999999,103.7388,64.06400000000001,175,75
2026-05-09 16:13:18.814,3,-3.47,1.99,4.17,241.43240000000003,298.7988,285.654,175,75
2026-05-09 16:13:18.825,3,1.79,-1.79,2.97,290.6924,-251.0112,42.974000000000004,175,75
2026-05-09 16:13:18.834,3,-1.08,-2.28,-0.62,-174.7276,-504.9212,177.844,175,75
2026-05-09 16:13:18.846,3,-2.92,0.85,-0.65,-165.33759999999998,417.5188,239.67399999999998,175,75
2026-05-09 16:13:18.870,3,0.27,-1.33,1.95,172.2824,204.9588,52.604,175,75
2026-05-09 16:13:18.881,3,0.77,-0.14,2.26,59.90239999999999,104.6588,92.364,175,75
2026-05-09 16:13:18.912,3,-0.24,0.16,1.53,68.86240000000001,0.018799999999999928,35.653999999999996,175,75
2026-05-09 16:13:18.930,3,-0.69,-0.09,1.6,34.2324,-32.1712,22.904,175,75
2026-05-09 16:13:18.941,3,-0.57,-0.11,1.65,16.6124,-34.0012,-3.1859999999999964,175,75
2026-05-09 16:13:18.953,3,-0.32,-0.02,1.77,1.2424,-56.0812,-11.545999999999998,175,75
2026-05-09 16:13:18.976,3,-0.13,-0.4,1.38,-31.3776,-104.19120000000001,-5.935999999999996,175,75
2026-05-09 16:13:18.999,3,-0.01,-0.71,0.91,-24.3676,-74.4912,-22.825999999999997,175,75
2026-05-09 16:13:19.009,3,0.09,-0.78,0.84,-14.9776,-49.9212,-27.516,175,75
2026-05-09 16:13:19.013,3,0.28,-0.63,0.83,-8.0276,-29.0612,-36.726,175,75
2026-05-09 16:13:19.026,3,0.5,-0.57,0.9,-3.5076,-16.011200000000002,-32.096,175,75
2026-05-09 16:13:19.064,3,0.88,-0.36,0.79,1.5523999999999987,-62.0512,-16.785999999999998,175,75
2026-05-09 16:13:19.089,3,0.6,-0.1,0.1,27.5824,-69.55120000000001,18.824,175,75
2026-05-09 16:13:19.099,3,0.45,-0.02,-0.08,56.0024,-29.8012,18.454000000000004,175,75
2026-05-09 16:13:19.103,3,0.51,0.21,0.08,109.41239999999999,38.9188,21.144000000000002,175,75
2026-05-09 16:13:19.121,3,0.56,0.29,0.44,156.9724,90.2688,41.56400000000001,175,75
2026-05-09 16:13:19.121,3,0.4,0.29,0.71,185.69240000000002,123.91879999999999,61.144000000000005,175,75
2026-05-09 16:13:19.136,3,0.34,0.22,0.93,211.79240000000001,153.4388,74.73400000000001,175,75
2026-05-09 16:13:19.150,3,0.17,0.26,1.24,235.3324,177.8888,101.754,175,75
2026-05-09 16:13:19.150,3,0.18,0.21,1.49,244.2924,170.2688,116.694,175,75
2026-05-09 16:13:19.166,3,0.19,0.18,1.63,246.55240000000003,145.4488,127.784,175,75
2026-05-09 16:13:19.187,3,0.18,-0.01,1.73,207.16240000000002,34.1688,143.034,175,75
2026-05-09 16:13:19.197,3,0.14,-0.21,1.42,167.4624,-38.2112,133.944,175,75
2026-05-09 16:13:19.209,3,-0.08,-0.19,1.14,153.07240000000002,-39.4912,126.324,175,75
2026-05-09 16:13:19.237,3,-0.23,-0.48,0.76,134.1724,-16.3212,96.084,175,75
2026-05-09 16:13:19.248,3,-0.28,-0.46,0.54,98.01240000000001,-0.5912,37.903999999999996,175,75
2026-05-09 16:13:19.266,3,-0.14,0.27,0.52,12.892399999999999,82.08879999999999,-23.855999999999998,175,75
2026-05-09 16:13:19.294,3,0.24,0.62,0.83,-107.3476,-20.5912,-112.216,175,75
2026-05-09 16:13:19.317,3,0.6,0.6,1.03,-245.64759999999998,-172.7812,-151.546,175,75
2026-05-09 16:13:19.325,3,0.39,0.2,1.03,-312.9576,-233.7012,-190.876,175,75
2026-05-09 16:13:19.354,3,-1.94,0.79,1.56,-347.1676,76.9088,-131.296,175,75
2026-05-09 16:13:19.378,3,-0.9,-2.66,6.7,239.29240000000001,302.8888,262.364,175,75
2026-05-09 16:13:19.378,3,-3.1,-3.19,7.08,304.6624,-333.7612,-208.916,175,75
2026-05-09 16:13:19.401,3,6.3,3.12,3.83,-186.7476,-264.5512,-53.126,175,75
2026-05-09 16:13:19.411,3,1.0,2.87,2.48,-240.58759999999998,-792.3012,90.224,175,75
2026-05-09 16:13:19.420,3,-2.0,1.99,0.32,-357.1676,-432.4812,-51.416,175,75
2026-05-09 16:13:19.428,3,0.21,1.78,-1.47,-241.0676,-114.3712,-84.896,175,75
2026-05-09 16:13:19.446,3,0.12,1.07,-0.78,23.382399999999997,41.9088,-37.57599999999999,175,75
2026-05-09 16:13:19.457,3,0.04,0.06,0.15,41.1824,179.5288,-23.735999999999997,175,75
2026-05-09 16:13:19.474,3,0.1,-1.04,1.3,60.6924,167.0288,-21.355999999999998,175,75
2026-05-09 16:13:19.484,3,-0.18,-0.68,1.73,43.5024,113.0688,-52.705999999999996,175,75
2026-05-09 16:13:19.515,3,0.48,0.57,0.45,6.6724,-53.2112,30.164000000000005,175,75
2026-05-09 16:13:19.515,3,0.26,0.14,0.25,41.6724,-7.7812,33.45400000000001,175,75
2026-05-09 16:13:19.537,3,0.49,0.09,0.48,88.8024,14.6588,31.934,175,75
2026-05-09 16:13:19.543,3,0.67,0.2,0.74,113.7424,31.178800000000003,52.42400000000001,175,75
2026-05-09 16:13:19.590,3,0.55,-0.29,0.82,167.7124,-11.2612,118.09400000000001,175,75
2026-05-09 16:13:19.606,3,0.17,-0.67,0.69,180.82240000000002,25.9988,144.254,175,75
2026-05-09 16:13:19.606,3,-0.09,-1.16,0.7,191.91240000000002,72.02879999999999,160.224,175,75
2026-05-09 16:13:19.628,3,-0.49,-1.36,0.76,206.5524,121.60879999999999,147.23399999999998,175,75
2026-05-09 16:13:19.642,3,-0.83,-1.02,1.08,218.9924,178.2488,94.31400000000001,175,75
2026-05-09 16:13:19.642,3,-0.7,-0.72,1.47,224.7824,191.9688,61.93400000000001,175,75
2026-05-09 16:13:19.674,3,-0.53,-0.39,1.82,170.2724,103.49879999999999,78.584,175,75
2026-05-09 16:13:19.709,3,-0.32,0.04,1.05,23.6824,38.4988,-36.546,175,75
2026-05-09 16:13:19.730,3,-0.16,0.29,0.99,-18.6376,42.6388,-34.775999999999996,175,75
2026-05-09 16:13:19.730,3,-0.04,0.22,0.91,-47.4176,5.7488,-54.715999999999994,175,75
2026-05-09 16:13:19.751,3,-0.06,0.24,0.69,-91.55760000000001,2.3388,-92.576,175,75
2026-05-09 16:13:19.762,3,0.08,0.33,0.65,-122.5376,22.2188,-107.216,175,75
2026-05-09 16:13:19.772,3,0.22,0.29,0.79,-152.4776,8.3088,-117.76599999999999,175,75
2026-05-09 16:13:19.787,3,0.39,0.19,0.79,-207.7176,-26.5012,-150.206,175,75
2026-05-09 16:13:19.805,3,0.55,0.18,0.67,-235.5276,-34.8012,-153.79600000000002,175,75
2026-05-09 16:13:19.819,3,0.57,0.19,0.6,-251.3176,-28.5112,-153.126,175,75
2026-05-09 16:13:19.819,3,0.54,0.2,0.54,-263.3276,-11.6912,-152.886,175,75
2026-05-09 16:13:19.841,3,0.48,0.15,0.52,-270.6476,6.1188,-158.67600000000002,175,75
2026-05-09 16:13:19.841,3,0.59,0.08,0.7,-275.0376,31.848799999999997,-167.82600000000002,175,75
2026-05-09 16:13:19.858,3,0.65,-0.01,0.87,-280.0376,28.128800000000002,-168.616,175,75
2026-05-09 16:13:19.869,3,0.85,-0.13,0.96,-287.4176,1.4187999999999998,-171.54600000000002,175,75
2026-05-09 16:13:19.896,3,-1.62,1.08,2.14,-243.8776,147.2788,-122.15599999999999,175,75
2026-05-09 16:13:19.917,3,-3.83,2.73,3.33,-87.4776,487.02880000000005,140.10399999999998,175,75
2026-05-09 16:13:19.923,3,0.58,-0.79,5.18,196.7324,-171.8112,-207.156,175,75
2026-05-09 16:13:19.933,3,-5.07,2.67,4.69,105.3324,260.0188,184.004,175,75
2026-05-09 16:13:19.949,3,-1.47,1.21,5.37,343.1324,272.4588,192.784,175,75
2026-05-09 16:13:19.961,3,4.83,-2.72,3.09,78.01240000000001,-552.0512,36.013999999999996,175,75
2026-05-09 16:13:19.999,3,0.79,-0.18,-1.05,34.2924,186.4188,65.774,175,75
2026-05-09 16:13:19.999,3,-0.42,-1.27,0.25,320.8824,-203.8212,-49.596,175,75
2026-05-09 16:13:20.009,3,-0.36,-0.87,1.23,170.63240000000002,282.6988,-2.455999999999996,175,75
2026-05-09 16:13:20.030,3,0.82,-0.15,2.57,122.2224,160.9988,45.95400000000001,175,75
2026-05-09 16:13:20.030,3,-0.13,-0.18,2.81,112.4024,-22.7212,54.554,175,75
2026-05-09 16:13:20.048,3,-0.07,-0.25,1.76,31.492399999999996,-84.9812,46.01400000000001,175,75
2026-05-09 16:13:20.061,3,-0.64,-0.23,1.32,37.1624,-62.9712,48.82400000000001,175,75
2026-05-09 16:13:20.078,3,-0.45,-0.13,1.5,41.1224,5.5688,-24.165999999999997,175,75
2026-05-09 16:13:20.091,3,-0.24,0.05,1.73,14.782399999999999,-22.4812,-22.215999999999998,175,75
2026-05-09 16:13:20.108,3,-0.25,-0.1,1.54,-12.7776,-69.4912,-22.455999999999996,175,75
2026-05-09 16:13:20.126,3,-0.15,-0.55,0.96,-23.087600000000002,-57.4212,-34.166,175,75
2026-05-09 16:13:20.138,3,0.02,-0.65,0.92,-14.0576,-35.6512,-45.385999999999996,175,75
2026-05-09 16:13:20.149,3,0.27,-0.69,0.92,-10.2776,-24.2512,-52.396,175,75
2026-05-09 16:13:20.166,3,0.53,-0.64,0.96,-7.9576,-10.4012,-45.135999999999996,175,75
2026-05-09 16:13:20.182,3,0.79,-0.56,0.89,-8.447600000000001,-21.2012,-32.946,175,75
2026-05-09 16:13:20.208,3,0.8,-0.14,0.42,10.212399999999999,-19.8012,-11.355999999999998,175,75
2026-05-09 16:13:20.228,3,0.58,0.1,0.45,60.0824,4.4688,-0.20599999999999596,175,75
2026-05-09 16:13:20.254,3,0.39,0.3,0.55,166.85240000000002,96.2988,48.76400000000001,175,75
2026-05-09 16:13:20.279,3,0.14,0.15,1.25,241.43240000000003,202.9488,78.15400000000001,175,75
2026-05-09 16:13:20.292,3,-0.06,0.24,1.66,259.05240000000003,211.1188,99.43400000000001,175,75
2026-05-09 16:13:20.292,3,-0.12,0.2,1.85,261.6724,175.9388,113.764,175,75
2026-05-09 16:13:20.313,3,0.09,0.38,1.97,261.49240000000003,113.7388,119.12400000000001,175,75
2026-05-09 16:13:20.322,3,0.18,0.45,1.92,228.5624,59.3488,136.934,175,75
2026-05-09 16:13:20.337,3,0.38,0.52,1.85,207.2824,-18.1512,135.164,175,75
2026-05-09 16:13:20.347,3,0.27,0.71,1.73,203.7424,-71.2012,136.934,175,75
2026-05-09 16:13:20.359,3,-0.08,0.61,1.5,181.4924,-78.2112,171.01399999999998,175,75
2026-05-09 16:13:20.369,3,-0.12,0.08,1.3,154.7224,-115.1012,164.554,175,75
2026-05-09 16:13:20.380,3,-0.37,-0.17,0.93,129.0524,-126.2612,139.004,175,75
2026-05-09 16:13:20.386,3,-0.36,-0.37,0.64,105.82239999999999,-117.6012,108.704,175,75
2026-05-09 16:13:20.402,3,-0.28,-0.44,0.31,77.5224,-95.53120000000001,74.98400000000001,175,75
2026-05-09 16:13:20.415,3,-0.18,-0.04,-0.04,37.1624,-15.9512,35.104,175,75
2026-05-09 16:13:20.427,3,-0.27,0.38,0.0,2.0424000000000007,93.85879999999999,22.974,175,75
2026-05-09 16:13:20.427,3,-0.35,0.48,0.25,-36.9876,137.2188,-1.235999999999997,175,75
2026-05-09 16:13:20.445,3,0.05,0.32,0.99,-65.6476,61.6688,-111.54599999999999,175,75
2026-05-09 16:13:20.453,3,0.53,0.54,1.26,-151.2576,48.3088,-148.736,175,75
2026-05-09 16:13:20.471,3,0.65,0.75,1.25,-240.1576,-31.2612,-139.046,175,75
2026-05-09 16:13:20.471,3,0.63,0.54,1.05,-289.6676,-106.6212,-150.686,175,75
2026-05-09 16:13:20.496,3,-0.01,0.16,0.67,-359.5476,-174.6112,-182.57600000000002,175,75
2026-05-09 16:13:20.496,3,0.16,0.11,0.53,-419.6076,-146.62120000000002,-200.136,175,75
2026-05-09 16:13:20.519,3,-1.99,0.69,1.4,-388.69759999999997,108.7988,-147.946,175,75
2026-05-09 16:13:20.529,3,-3.43,0.8,2.64,-295.3376,335.6888,-14.165999999999997,175,75
2026-05-09 16:13:20.540,3,-6.84,1.4,6.09,18.742399999999996,589.9588,330.654,175,75
2026-05-09 16:13:20.547,3,-1.39,-5.42,8.24,278.8624,-644.0012,-237.39600000000002,175,75
2026-05-09 16:13:20.558,3,-0.83,0.5,4.14,-256.1976,-20.4012,-345.93600000000004,175,75
2026-05-09 16:13:20.568,3,3.71,3.0,2.93,-272.8376,-357.0512,106.87400000000001,175,75
2026-05-09 16:13:20.592,3,-0.93,1.76,-1.02,-292.8376,-243.3312,-8.375999999999998,175,75
2026-05-09 16:13:20.603,3,1.14,1.46,-1.48,-110.2776,55.1388,-54.226,175,75
2026-05-09 16:13:20.614,3,0.45,0.75,-0.12,49.7824,160.62879999999998,-57.946,175,75
2026-05-09 16:13:20.625,3,0.28,0.13,0.83,61.182399999999994,266.41880000000003,-47.766,175,75
2026-05-09 16:13:20.637,3,0.33,-0.23,1.41,69.35239999999999,238.06879999999998,-50.93599999999999,175,75
2026-05-09 16:13:20.649,3,0.16,-0.34,1.81,64.11240000000001,190.8088,-38.306,175,75
2026-05-09 16:13:20.660,3,0.14,-0.15,1.89,40.9424,136.78879999999998,-43.79599999999999,175,75
2026-05-09 16:13:20.666,3,0.33,0.37,1.42,21.4324,36.1188,-41.236,175,75
2026-05-09 16:13:20.676,3,0.26,0.62,0.96,27.162399999999998,22.0288,-7.825999999999997,175,75
2026-05-09 16:13:20.738,3,0.45,0.48,1.25,90.88239999999999,23.2488,96.694,175,75
2026-05-09 16:13:20.753,3,0.34,0.29,1.2,81.0024,-1.6212,112.84400000000001,175,75
2026-05-09 16:13:20.753,3,0.23,0.01,1.06,80.69239999999999,-14.251199999999999,120.71400000000001,175,75
2026-05-09 16:13:20.775,3,0.01,-0.39,1.06,93.2524,-2.4212,127.484,175,75
2026-05-09 16:13:20.785,3,-0.15,-0.68,1.16,88.38239999999999,5.808800000000001,119.86400000000002,175,75
2026-05-09 16:13:20.796,3,-0.29,-0.73,1.26,71.67240000000001,10.5688,100.164,175,75
2026-05-09 16:13:20.796,3,-0.39,-0.66,1.3,64.17240000000001,25.0788,89.12400000000001,175,75
2026-05-09 16:13:20.835,3,-0.68,-0.57,1.53,38.4424,28.378800000000002,67.424,175,75
2026-05-09 16:13:20.848,3,-0.7,-0.63,1.56,21.912399999999998,8.0688,52.90400000000001,175,75
2026-05-09 16:13:20.863,3,-0.71,-0.61,1.5,2.1023999999999994,-8.9412,28.094000000000005,175,75
2026-05-09 16:13:20.877,3,-0.4,-0.25,1.37,-47.7776,-39.8612,-18.305999999999997,175,75
2026-05-09 16:13:20.888,3,-0.25,-0.18,1.22,-78.2076,-67.2312,-31.176,175,75
2026-05-09 16:13:20.898,3,-0.15,-0.14,1.07,-103.14760000000001,-84.7312,-45.266,175,75
2026-05-09 16:13:20.909,3,-0.02,-0.04,0.91,-131.3176,-88.0912,-67.336,175,75
2026-05-09 16:13:20.935,3,0.17,0.08,0.93,-166.9876,-72.6012,-90.996,175,75
2026-05-09 16:13:20.956,3,0.26,0.17,0.97,-211.80759999999998,-70.83120000000001,-111.54599999999999,175,75
2026-05-09 16:13:20.968,3,0.48,0.29,1.01,-234.8476,-89.3712,-115.326,175,75
2026-05-09 16:13:20.983,3,0.62,0.35,0.96,-258.6976,-116.69120000000001,-100.386,175,75
2026-05-09 16:13:20.983,3,0.65,0.3,0.8,-272.2276,-130.59120000000001,-89.716,175,75
2026-05-09 16:13:20.997,3,0.88,0.21,0.54,-271.1976,-123.39120000000001,-73.616,175,75
2026-05-09 16:13:21.006,3,0.82,0.16,0.5,-253.5676,-117.4812,-61.056,175,75
2026-05-09 16:13:21.026,3,0.92,-0.08,0.7,-231.61759999999998,-84.25120000000001,-83.18599999999999,175,75
2026-05-09 16:13:21.060,3,-3.66,2.66,2.86,-78.1476,199.59879999999998,81.26400000000001,175,75
2026-05-09 16:13:21.072,3,2.44,0.47,5.04,162.7124,-36.6212,-13.795999999999998,175,75
2026-05-09 16:13:21.084,3,-0.48,1.88,4.16,-4.547600000000001,-292.6012,129.314,175,75
2026-05-09 16:13:21.098,3,3.95,-1.86,0.38,57.2824,-492.72119999999995,4.924000000000003,175,75
2026-05-09 16:13:21.119,3,-1.86,-0.01,-0.81,-81.86760000000001,448.1288,168.094,175,75
2026-05-09 16:13:21.138,3,0.61,-1.14,0.53,240.3324,-58.5112,-47.396,175,75
2026-05-09 16:13:21.161,3,1.45,-0.35,2.13,43.3224,229.1088,24.864,175,75
2026-05-09 16:13:21.173,3,0.47,-0.62,2.36,54.90239999999999,-73.27120000000001,76.32400000000001,175,75
2026-05-09 16:13:21.173,3,-0.05,-1.01,1.55,11.432400000000001,-81.56120000000001,70.95400000000001,175,75
2026-05-09 16:13:21.184,3,-0.02,-1.1,0.99,23.382399999999997,-72.4812,57.114000000000004,175,75
2026-05-09 16:13:21.195,3,-0.26,-0.87,0.88,46.9124,-6.441199999999999,33.153999999999996,175,75
2026-05-09 16:13:21.205,3,-0.01,-0.52,1.17,55.2724,26.3588,10.474,175,75
2026-05-09 16:13:21.221,3,-0.15,-0.21,1.54,45.5724,23.7388,15.044,175,75
2026-05-09 16:13:21.228,3,-0.32,-0.04,1.74,35.8224,10.8088,10.894000000000002,175,75
2026-05-09 16:13:21.242,3,-0.43,0.11,1.75,18.8624,-22.8412,-7.765999999999998,175,75
2026-05-09 16:13:21.264,3,-0.49,0.26,1.31,-23.3276,-39.9212,-31.785999999999998,175,75
2026-05-09 16:13:21.279,3,-0.39,0.1,1.21,-30.0976,-33.2112,-42.156,175,75
2026-05-09 16:13:21.289,3,-0.26,-0.1,1.2,-34.5476,-29.7312,-47.885999999999996,175,75
2026-05-09 16:13:21.289,3,-0.09,-0.25,1.2,-38.9376,-30.1012,-54.166,175,75
2026-05-09 16:13:21.308,3,0.11,-0.36,1.18,-40.9476,-28.0312,-59.465999999999994,175,75
2026-05-09 16:13:21.318,3,0.26,-0.41,1.18,-41.2576,-25.0412,-61.605999999999995,175,75
2026-05-09 16:13:21.329,3,0.39,-0.38,1.16,-43.2676,-20.3412,-63.43599999999999,175,75
2026-05-09 16:13:21.336,3,0.48,-0.27,1.11,-45.6476,-9.3112,-56.846000000000004,175,75
2026-05-09 16:13:21.345,3,0.48,-0.2,0.99,-46.4376,-1.9912,-47.705999999999996,175,75
2026-05-09 16:13:21.363,3,0.44,-0.06,0.82,-44.6676,7.3988,-44.836,175,75
2026-05-09 16:13:21.375,3,0.41,0.13,0.77,-36.9276,16.2988,-38.916,175,75
2026-05-09 16:13:21.379,3,0.36,0.36,0.79,-22.8976,21.7288,-31.355999999999998,175,75
2026-05-09 16:13:21.387,3,0.32,0.52,0.83,-11.2576,22.7688,-22.885999999999996,175,75
2026-05-09 16:13:21.400,3,0.34,0.62,0.88,3.2524000000000015,15.628800000000002,-6.605999999999998,175,75
2026-05-09 16:13:21.421,3,0.25,0.53,0.93,35.7524,-14.0612,35.714,175,75
2026-05-09 16:13:21.434,3,0.26,0.43,0.9,49.1124,-26.621199999999998,60.164,175,75
2026-05-09 16:13:21.451,3,0.04,0.59,1.12,81.4924,-23.3912,102.604,175,75
2026-05-09 16:13:21.462,3,0.03,0.55,1.4,93.9924,-24.8012,131.874,175,75
2026-05-09 16:13:21.492,3,-0.18,-0.36,1.56,100.1524,-137.9712,198.034,175,75
2026-05-09 16:13:21.506,3,-0.61,-0.6,1.24,102.3424,-87.72120000000001,165.164,175,75
2026-05-09 16:13:21.530,3,-0.39,-0.1,1.48,108.7424,-92.2312,120.534,175,75
2026-05-09 16:13:21.542,3,0.18,0.11,1.66,76.0624,-109.7312,157.114,175,75
2026-05-09 16:13:21.542,3,0.04,0.08,1.69,46.4324,-156.0112,177.114,175,75
2026-05-09 16:13:21.553,3,-0.12,-0.1,1.37,25.9424,-157.3012,143.944,175,75
2026-05-09 16:13:21.564,3,0.23,-0.09,1.13,14.5424,-159.3112,118.514,175,75
2026-05-09 16:13:21.586,3,0.44,0.22,0.65,-18.5076,-101.50120000000001,40.71400000000001,175,75
2026-05-09 16:13:21.598,3,0.31,0.45,0.59,-44.3076,-78.94120000000001,-9.895999999999997,175,75
2026-05-09 16:13:21.620,3,-0.19,1.2,0.86,-53.3876,11.7288,-36.296,175,75
2026-05-09 16:13:21.620,3,0.33,0.91,1.04,-84.2476,-76.14120000000001,-47.946,175,75
2026-05-09 16:13:21.668,3,2.54,-3.67,4.37,-13.2076,-543.3912,-142.826,175,75
2026-05-09 16:13:21.687,3,-0.7,1.46,0.67,-286.4976,51.7288,-82.276,175,75
2026-05-09 16:13:21.700,3,1.33,-0.13,0.47,-26.1976,-221.0112,-97.15599999999999,175,75
2026-05-09 16:13:21.715,3,-0.74,0.27,0.39,-129.7276,18.6788,-8.675999999999998,175,75
2026-05-09 16:13:21.728,3,0.2,0.24,0.92,-91.4376,103.55879999999999,-63.43599999999999,175,75
2026-05-09 16:13:21.751,3,0.36,0.17,1.35,-76.55760000000001,2.6988000000000003,-52.57599999999999,175,75
2026-05-09 16:13:21.751,3,0.12,0.29,1.3,-88.9976,11.4888,-29.465999999999998,175,75
2026-05-09 16:13:21.776,3,0.32,0.19,0.98,-74.4276,-74.7312,-18.005999999999997,175,75
2026-05-09 16:13:21.787,3,0.24,0.08,0.65,-62.5376,-61.3812,-9.595999999999998,175,75
2026-05-09 16:13:21.797,3,0.2,0.01,0.46,-45.2776,-35.4112,-8.245999999999999,175,75
2026-05-09 16:13:21.808,3,0.26,0.09,0.48,-16.0676,13.918800000000001,-6.905999999999999,175,75
2026-05-09 16:13:21.821,3,0.38,0.21,0.78,16.852400000000003,61.9688,9.193999999999999,175,75
2026-05-09 16:13:21.834,3,0.46,0.28,1.17,42.9524,71.72879999999999,23.094000000000005,175,75
2026-05-09 16:13:21.845,3,0.52,0.35,1.34,52.042399999999994,41.1788,33.214,175,75
2026-05-09 16:13:21.845,3,0.53,0.41,1.33,52.042399999999994,4.4088,43.70400000000001,175,75
2026-05-09 16:13:21.875,3,0.49,0.43,0.94,47.6524,-45.9512,74.37400000000001,175,75
2026-05-09 16:13:21.898,3,0.27,-0.28,0.82,71.4324,-26.7512,94.924,175,75
2026-05-09 16:13:21.910,3,0.23,-0.69,0.84,75.0224,-33.3312,94.614,175,75
2026-05-09 16:13:21.920,3,0.03,-0.84,0.84,66.67240000000001,-18.0912,88.034,175,75
2026-05-09 16:13:21.931,3,-0.16,-0.83,0.86,64.9624,34.3488,85.34400000000001,175,75
2026-05-09 16:13:21.945,3,-0.24,-0.91,1.09,64.66239999999999,71.05879999999999,80.104,175,75
2026-05-09 16:13:21.952,3,-0.25,-0.72,1.36,56.852399999999996,51.7888,52.42400000000001,175,75
2026-05-09 16:13:21.972,3,-0.34,-0.34,1.56,31.1824,60.6888,50.40400000000001,175,75
2026-05-09 16:13:21.987,3,-0.55,-0.29,1.6,19.662399999999998,55.1988,37.054,175,75
2026-05-09 16:13:21.999,3,-0.64,-0.16,1.56,5.1524,52.5788,9.674000000000003,175,75
2026-05-09 16:13:22.007,3,-0.63,-0.03,1.54,-8.5676,55.9988,-7.2159999999999975,175,75
2026-05-09 16:13:22.028,3,-0.29,0.02,1.51,-50.8876,12.2188,-36.726,175,75
2026-05-09 16:13:22.046,3,-0.0,-0.01,1.23,-85.2176,-26.0812,-61.786,175,75
2026-05-09 16:13:22.056,3,-0.05,0.29,0.9,-108.6976,-2.2312,-82.276,175,75
2026-05-09 16:13:22.094,3,0.54,0.08,0.98,-172.6576,-90.89120000000001,-129.716,175,75
2026-05-09 16:13:22.121,3,0.46,0.33,0.64,-176.55759999999998,-78.8212,-85.01599999999999,175,75
2026-05-09 16:13:22.133,3,0.35,0.26,0.53,-156.4376,-35.5912,-74.226,175,75
2026-05-09 16:13:22.145,3,-0.1,0.56,0.73,-112.83760000000001,65.07879999999999,-49.525999999999996,175,75
2026-05-09 16:13:22.145,3,-0.4,0.95,1.25,-61.4376,156.6688,-17.215999999999998,175,75
2026-05-09 16:13:22.192,3,0.2,1.7,2.67,50.3924,-49.4312,75.40400000000001,175,75
2026-05-09 16:13:22.209,3,0.36,0.05,-0.12,-78.38759999999999,-320.53119999999996,87.23400000000001,175,75
2026-05-09 16:13:22.233,3,-1.93,0.33,-0.79,-45.5876,21.4888,138.45399999999998,175,75
2026-05-09 16:13:22.243,3,0.19,-0.79,-0.1,96.85239999999999,45.9988,73.82400000000001,175,75
2026-05-09 16:13:22.243,3,-1.03,-1.69,0.39,91.4324,34.8988,84.73400000000001,175,75
2026-05-09 16:13:22.255,3,-0.73,-0.88,1.02,47.1624,186.1188,35.59400000000001,175,75
2026-05-09 16:13:22.265,3,0.25,-0.43,1.5,70.88239999999999,73.9888,-64.286,175,75
2026-05-09 16:13:22.265,3,1.01,-0.29,1.67,54.7224,44.8988,-27.275999999999996,175,75
2026-05-09 16:13:22.290,3,0.69,-0.37,1.45,27.6524,-15.0412,90.774,175,75
2026-05-09 16:13:22.305,3,-0.46,-1.03,1.01,57.952400000000004,53.9188,23.034000000000002,175,75
2026-05-09 16:13:22.318,3,-0.23,-0.85,1.31,66.3024,62.6988,-16.605999999999998,175,75
2026-05-09 16:13:22.332,3,-0.09,-0.33,1.68,51.852399999999996,55.2688,-17.945999999999998,175,75
2026-05-09 16:13:22.332,3,-0.16,-0.12,1.89,38.742399999999996,23.2488,-5.805999999999997,175,75
2026-05-09 16:13:22.347,3,-0.24,-0.18,1.87,5.572399999999998,-30.8912,-16.055999999999997,175,75
2026-05-09 16:13:22.358,3,-0.31,-0.12,1.57,-17.1076,-49.3112,-26.296,175,75
2026-05-09 16:13:22.375,3,-0.25,-0.14,1.31,-24.9176,-46.3212,-31.785999999999998,175,75
2026-05-09 16:13:22.393,3,-0.16,-0.23,1.2,-29.6676,-41.7512,-39.406,175,75
2026-05-09 16:13:22.402,3,-0.01,-0.32,1.15,-29.6676,-29.0012,-48.306,175,75
2026-05-09 16:13:22.412,3,0.18,-0.4,1.18,-32.6576,-24.9812,-51.666,175,75
2026-05-09 16:13:22.423,3,0.34,-0.45,1.2,-36.3176,-21.5612,-47.766,175,75
2026-05-09 16:13:22.423,3,0.42,-0.46,1.18,-36.8076,-20.2212,-43.79599999999999,175,75
2026-05-09 16:13:22.439,3,0.49,-0.35,1.0,-32.8976,-31.6912,-43.79599999999999,175,75
2026-05-09 16:13:22.450,3,0.66,-0.18,0.78,-35.4576,-22.7812,-41.29599999999999,175,75
2026-05-09 16:13:22.461,3,0.73,0.05,0.58,-26.5576,-14.671199999999999,-29.836,175,75
2026-05-09 16:13:22.501,3,0.27,0.09,0.33,60.572399999999995,-20.5912,49.37400000000001,175,75
2026-05-09 16:13:22.520,3,0.27,0.02,0.53,93.86240000000001,-7.5412,64.004,175,75
2026-05-09 16:13:22.531,3,0.28,-0.0,0.84,112.5224,7.4588,93.394,175,75
2026-05-09 16:13:22.542,3,-0.06,-0.03,1.21,142.2824,44.1688,129.554,175,75
2026-05-09 16:13:22.570,3,-0.43,-0.13,1.83,203.44240000000002,37.9488,165.164,175,75
2026-05-09 16:13:22.581,3,-0.48,-0.3,1.92,184.7824,33.4388,178.884,175,75
2026-05-09 16:13:22.594,3,-0.47,-0.34,1.93,155.2124,1.1188,161.084,175,75
2026-05-09 16:13:22.604,3,-0.08,0.31,1.71,122.95240000000001,-37.6612,103.15400000000001,175,75
2026-05-09 16:13:22.618,3,0.11,0.53,1.77,105.69239999999999,-75.9512,113.21400000000001,175,75
2026-05-09 16:13:22.640,3,0.31,0.39,1.44,65.88239999999999,-131.62120000000002,77.48400000000001,175,75
2026-05-09 16:13:22.640,3,0.47,0.59,0.97,32.8924,-137.3612,36.084,175,75
2026-05-09 16:13:22.652,3,0.57,0.88,0.6,10.0824,-120.9512,9.193999999999999,175,75
2026-05-09 16:13:22.666,3,0.68,1.23,0.21,-14.7276,-82.8412,-23.555999999999997,175,75
2026-05-09 16:13:22.680,3,0.67,1.39,-0.02,-23.9376,-43.2112,-50.016,175,75
2026-05-09 16:13:22.686,3,0.18,1.51,-0.31,-63.507600000000004,44.958800000000004,-93.246,175,75
2026-05-09 16:13:22.710,3,-0.68,1.5,0.58,-106.4376,255.19879999999998,-209.346,175,75
2026-05-09 16:13:22.731,3,-1.94,1.98,2.08,-48.8776,491.1188,-111.056,175,75
2026-05-09 16:13:22.731,3,-2.22,1.7,3.79,73.6224,459.16880000000003,-68.736,175,75
2026-05-09 16:13:22.742,3,-2.85,0.97,6.13,249.7824,232.09879999999998,-1.5459999999999958,175,75
2026-05-09 16:13:22.753,3,-1.96,-2.07,7.67,258.0724,-213.3912,-49.166,175,75
2026-05-09 16:13:22.765,3,0.57,-2.24,5.26,-132.7776,-651.0112,-212.76600000000002,175,75
2026-05-09 16:13:22.779,3,1.29,0.57,0.62,-507.1076,-695.8912,-62.76599999999999,175,75
2026-05-09 16:13:22.791,3,-2.76,2.1,-1.45,-489.1776,-271.3812,12.904,175,75
2026-05-09 16:13:22.813,3,0.94,-1.22,-0.93,46.1824,-23.0312,-26.115999999999996,175,75
2026-05-09 16:13:22.825,3,0.17,-0.92,-0.14,-47.6576,286.90880000000004,-53.986,175,75
2026-05-09 16:13:22.833,3,0.39,-0.28,0.88,16.852400000000003,272.21880000000004,-85.746,175,75
2026-05-09 16:13:22.845,3,0.74,-0.37,1.91,61.492399999999996,198.06879999999998,-62.706,175,75
2026-05-09 16:13:22.868,3,0.58,-0.08,1.73,-76.3776,-78.5112,-30.445999999999998,175,75
2026-05-09 16:13:22.879,3,0.54,0.15,1.03,-54.9176,-109.31120000000001,-10.565999999999997,175,75
2026-05-09 16:13:22.900,3,0.44,0.13,0.51,-21.4976,-114.3712,15.404,175,75
2026-05-09 16:13:22.912,3,0.21,0.01,0.23,8.622399999999999,-31.8112,23.704000000000004,175,75
2026-05-09 16:13:22.912,3,0.26,-0.02,0.35,33.0724,29.1688,20.284000000000002,175,75
2026-05-09 16:13:22.934,3,0.53,0.16,0.8,70.88239999999999,63.128800000000005,22.234000000000005,175,75
2026-05-09 16:13:22.946,3,0.59,0.3,1.02,90.69239999999999,47.7688,42.974000000000004,175,75
2026-05-09 16:13:22.946,3,0.48,0.3,0.99,102.89240000000001,37.2188,57.054,175,75
2026-05-09 16:13:22.958,3,0.38,0.23,0.88,112.6524,46.4188,67.174,175,75
2026-05-09 16:13:22.972,3,0.29,0.18,0.87,121.4924,68.1288,79.43400000000001,175,75
2026-05-09 16:13:22.983,3,0.13,0.01,0.95,125.2124,95.74879999999999,101.32400000000001,175,75
2026-05-09 16:13:23.018,3,-0.25,-0.54,1.33,103.01240000000001,59.0488,83.70400000000001,175,75
2026-05-09 16:13:23.049,3,-0.29,-0.3,1.43,92.4624,61.4888,72.114,175,75
2026-05-09 16:13:23.064,3,-0.54,-0.2,1.6,76.0024,50.0788,65.284,175,75
2026-05-09 16:13:23.072,3,-0.55,-0.26,1.61,56.6724,34.4088,47.42400000000001,175,75
2026-05-09 16:13:23.085,3,-0.41,-0.27,1.49,31.852400000000003,6.668800000000001,25.224,175,75
2026-05-09 16:13:23.096,3,-0.3,-0.15,1.28,2.1023999999999994,9.4688,5.954000000000004,175,75
2026-05-09 16:13:23.106,3,-0.24,-0.04,1.19,-18.8176,20.4488,-5.935999999999996,175,75
2026-05-09 16:13:23.116,3,-0.16,-0.03,1.17,-40.217600000000004,11.7888,-31.726,175,75
2026-05-09 16:13:23.127,3,-0.05,-0.02,1.08,-64.4276,1.7288,-62.456,175,75
2026-05-09 16:13:23.142,3,0.04,0.04,0.93,-95.5276,1.3588000000000002,-95.326,175,75
2026-05-09 16:13:23.153,3,0.05,0.1,0.86,-111.98759999999999,10.078800000000001,-108.916,175,75
2026-05-09 16:13:23.165,3,0.09,-0.03,0.92,-140.0376,9.4088,-131.116,175,75
2026-05-09 16:13:23.186,3,0.46,-0.21,1.05,-180.8876,5.1988,-150.936,175,75
2026-05-09 16:13:23.186,3,0.61,-0.22,1.05,-186.3176,-21.0112,-139.346,175,75
2026-05-09 16:13:23.210,3,0.64,-0.19,1.0,-186.2576,-33.391200000000005,-116.356,175,75
2026-05-09 16:13:23.213,3,0.64,-0.17,1.01,-181.92759999999998,-42.6612,-106.606,175,75
2026-05-09 16:13:23.241,3,0.93,0.08,0.77,-170.2776,-65.77120000000001,-95.26599999999999,175,75
2026-05-09 16:13:23.252,3,0.22,0.71,0.89,-135.5276,18.5588,-67.456,175,75
2026-05-09 16:13:23.263,3,-0.67,1.34,1.78,-21.0076,172.4588,-8.065999999999999,175,75
2026-05-09 16:13:23.274,3,-0.02,1.02,2.57,53.622400000000006,54.7188,-8.305999999999997,175,75
2026-05-09 16:13:23.285,3,-1.23,1.69,2.54,82.16239999999999,165.87879999999998,22.424000000000003,175,75
2026-05-09 16:13:23.295,3,-2.16,2.09,2.89,157.3424,254.0488,124.92399999999999,175,75
2026-05-09 16:13:23.295,3,2.09,-0.18,2.78,210.69240000000002,8.0088,40.95400000000001,175,75
2026-05-09 16:13:23.308,3,0.04,-0.27,1.41,-17.0476,-289.8012,90.40400000000001,175,75
2026-05-09 16:13:23.331,3,-0.2,-0.08,0.73,-17.1676,37.3988,115.65400000000001,175,75
2026-05-09 16:13:23.340,3,-0.52,-1.01,1.06,50.9424,-176.2612,33.09400000000001,175,75
2026-05-09 16:13:23.371,3,0.71,-0.57,1.3,25.6924,-28.7012,42.114000000000004,175,75
2026-05-09 16:13:23.404,3,-0.4,-0.57,0.96,50.3324,50.8788,33.70400000000001,175,75
2026-05-09 16:13:23.413,3,-0.2,-0.54,1.42,54.1124,70.2688,9.124000000000006,175,75
2026-05-09 16:13:23.424,3,-0.0,-0.37,1.81,40.3924,40.6888,6.934000000000001,175,75
2026-05-09 16:13:23.442,3,-0.06,-0.26,1.89,21.912399999999998,6.9688,15.774000000000004,175,75
2026-05-09 16:13:23.452,3,-0.2,-0.0,1.49,-8.3276,-58.3912,-2.2159999999999975,175,75
2026-05-09 16:13:23.475,3,-0.22,0.06,1.35,-15.8276,-57.3012,-7.3359999999999985,175,75
2026-05-09 16:13:23.495,3,-0.13,-0.19,1.37,-30.2176,-56.0812,-24.345999999999997,175,75
2026-05-09 16:13:23.511,3,0.06,-0.32,1.35,-34.727599999999995,-64.3712,-31.546,175,75
2026-05-09 16:13:23.523,3,0.16,-0.36,1.27,-37.9576,-62.3012,-34.046,175,75
2026-05-09 16:13:23.545,3,0.37,-0.42,1.13,-30.2176,-40.5312,-38.556,175,75
2026-05-09 16:13:23.572,3,0.51,-0.24,0.95,-27.5976,-22.1712,-40.93599999999999,175,75
2026-05-09 16:13:23.574,3,0.52,-0.09,0.71,-23.3276,-21.9312,-40.506,175,75
2026-05-09 16:13:23.585,3,0.54,0.11,0.52,-5.7676,0.26879999999999993,-39.775999999999996,175,75
2026-05-09 16:13:23.600,3,0.6,0.31,0.57,24.0524,40.0788,-30.135999999999996,175,75
2026-05-09 16:13:23.613,3,0.75,0.35,0.77,45.4524,57.2188,-19.895999999999997,175,75
2026-05-09 16:13:23.625,3,0.68,0.37,0.99,62.8924,47.8888,2.7240000000000038,175,75
2026-05-09 16:13:23.637,3,0.47,0.27,0.97,86.4324,30.9388,25.044,175,75
2026-05-09 16:13:23.675,3,0.01,0.07,1.38,183.8024,134.8988,79.194,175,75
2026-05-09 16:13:23.687,3,-0.07,0.2,1.87,206.2424,73.3788,103.034,175,75
2026-05-09 16:13:23.704,3,-0.39,0.19,1.91,196.6124,30.6888,134.67399999999998,175,75
2026-05-09 16:13:23.715,3,-0.57,0.03,1.74,173.9324,11.9688,144.73399999999998,175,75
2026-05-09 16:13:23.729,3,-0.76,0.06,1.63,159.60240000000002,6.4887999999999995,132.42399999999998,175,75
2026-05-09 16:13:23.740,3,-0.48,0.25,1.65,144.9624,-28.5112,106.204,175,75
2026-05-09 16:13:23.756,3,0.07,0.3,1.5,104.35239999999999,-95.83120000000001,84.194,175,75
2026-05-09 16:13:23.756,3,0.37,0.45,1.05,53.1324,-150.1012,67.424,175,75
2026-05-09 16:13:23.767,3,0.54,0.7,0.7,12.522400000000001,-199.6712,39.554,175,75
2026-05-09 16:13:23.780,3,0.63,0.8,0.28,-36.3776,-207.0512,-5.385999999999999,175,75
2026-05-09 16:13:23.792,3,0.43,1.07,-0.09,-85.0376,-205.5312,-36.355999999999995,175,75
2026-05-09 16:13:23.804,3,0.32,1.4,-0.23,-94.11760000000001,-115.6512,-89.776,175,75
2026-05-09 16:13:23.814,3,-1.13,1.88,0.43,-57.5976,164.1088,-72.946,175,75
2026-05-09 16:13:23.824,3,-1.6,1.35,1.01,-53.0876,189.1688,-78.916,175,75
2026-05-09 16:13:23.838,3,-2.02,1.32,1.93,-42.0476,199.7788,-184.526,175,75
2026-05-09 16:13:23.854,3,-0.83,-0.75,5.96,373.8624,392.8888,92.364,175,75
2026-05-09 16:13:23.879,3,0.69,-3.19,4.86,39.9024,-620.0412,-169.226,175,75
2026-05-09 16:13:23.893,3,-0.79,0.12,1.25,-544.1776,-436.4412,-13.915999999999997,175,75
2026-05-09 16:13:23.893,3,-1.13,1.75,0.66,-405.5276,21.1188,-15.385999999999997,175,75
2026-05-09 16:13:23.905,3,2.01,-0.56,0.23,-15.5876,-291.14119999999997,-89.59599999999999,175,75
2026-05-09 16:13:23.927,3,0.42,0.13,0.41,-136.6776,122.94879999999999,-45.506,175,75
2026-05-09 16:13:23.938,3,0.88,-0.07,1.24,-38.6376,14.2288,-57.396,175,75
2026-05-09 16:13:23.950,3,0.17,-0.05,1.32,-65.4576,17.6388,-37.766,175,75
2026-05-09 16:13:23.962,3,0.33,0.05,1.21,-69.05760000000001,16.8488,-35.506,175,75
2026-05-09 16:13:23.974,3,0.27,0.12,1.17,-57.4776,-13.7012,-32.576,175,75
2026-05-09 16:13:23.974,3,0.39,0.25,0.94,-52.8376,-32.9712,-20.685999999999996,175,75
2026-05-09 16:13:23.996,3,0.36,0.02,0.62,-11.2576,13.5588,2.9740000000000038,175,75
2026-05-09 16:13:24.011,3,0.45,-0.01,0.77,7.042400000000001,40.9988,1.8740000000000023,175,75
2026-05-09 16:13:24.031,3,0.72,0.17,1.27,46.8524,29.2288,29.434,175,75
2026-05-09 16:13:24.044,3,0.66,0.12,1.14,62.042399999999994,7.338800000000001,47.48400000000001,175,75
2026-05-09 16:13:24.064,3,0.6,0.06,0.76,88.5024,26.9088,66.32400000000001,175,75
2026-05-09 16:13:24.073,3,0.58,0.02,0.71,105.63239999999999,61.7888,78.944,175,75
2026-05-09 16:13:24.087,3,0.44,-0.05,0.86,117.95240000000001,88.30879999999999,88.76400000000001,175,75
2026-05-09 16:13:24.101,3,0.2,-0.26,1.06,126.3024,118.49879999999999,97.90400000000001,175,75
2026-05-09 16:13:24.106,3,0.11,-0.5,1.31,126.1824,128.37879999999998,94.554,175,75
2026-05-09 16:13:24.138,3,-0.24,-0.43,1.72,92.2824,97.33879999999999,62.29400000000001,175,75
2026-05-09 16:13:24.159,3,-0.4,-0.12,1.67,58.2524,51.4888,41.20400000000001,175,75
2026-05-09 16:13:24.170,3,-0.48,-0.14,1.59,42.4624,41.9088,35.59400000000001,175,75
2026-05-09 16:13:24.180,3,-0.53,-0.24,1.46,24.2924,29.4088,24.004,175,75
2026-05-09 16:13:24.191,3,-0.49,-0.28,1.27,5.022400000000001,19.3488,-1.605999999999998,175,75
2026-05-09 16:13:24.203,3,-0.27,-0.1,0.94,-22.7776,21.1788,-43.245999999999995,175,75
2026-05-09 16:13:24.216,3,-0.28,0.23,0.88,-36.8076,55.3888,-64.226,175,75
2026-05-09 16:13:24.229,3,-0.06,0.17,1.19,-45.4576,47.6388,-80.62599999999999,175,75
2026-05-09 16:13:24.239,3,0.11,-0.0,1.35,-83.6976,-20.2812,-113.856,175,75
2026-05-09 16:13:24.281,3,0.51,0.12,1.0,-187.7176,-114.4912,-151.176,175,75
2026-05-09 16:13:24.294,3,0.8,0.14,0.92,-205.9476,-130.1612,-157.276,175,75
2026-05-09 16:13:24.305,3,0.91,0.18,0.76,-222.1076,-144.49120000000002,-144.526,175,75
2026-05-09 16:13:24.319,3,0.76,0.11,0.55,-229.9176,-110.0412,-139.776,175,75
2026-05-09 16:13:24.322,3,0.86,0.04,0.63,-228.7576,-63.3312,-141.056,175,75
2026-05-09 16:13:24.339,3,0.19,0.41,1.28,-184.6676,28.9888,-124.65599999999999,175,75
2026-05-09 16:13:24.361,3,0.22,0.49,2.74,-23.3276,66.72879999999999,-43.676,175,75
2026-05-09 16:13:24.373,3,-0.84,1.29,2.2,-68.6976,1.4187999999999998,-34.105999999999995,175,75
2026-05-09 16:13:24.383,3,-2.85,2.43,2.0,94.41239999999999,328.5588,91.87400000000001,175,75
2026-05-09 16:13:24.402,3,0.24,-0.9,-0.01,6.2424,-369.4912,47.90400000000001,175,75
2026-05-09 16:13:24.418,3,-3.96,0.42,-0.65,-130.0976,117.3988,204.614,175,75
2026-05-09 16:13:24.418,3,-1.19,0.33,0.21,-30.5276,363.6188,149.494,175,75
2026-05-09 16:13:24.439,3,-0.03,-1.04,1.58,161.4924,-171.0112,-14.225999999999997,175,75
2026-05-09 16:13:24.451,3,-0.15,-0.9,1.74,51.122400000000006,11.9688,-54.896,175,75
2026-05-09 16:13:24.451,3,1.66,-0.15,1.79,-22.7776,29.5288,57.90400000000001,175,75
2026-05-09 16:13:24.464,3,1.1,-0.77,1.69,5.942399999999999,-83.0912,81.26400000000001,175,75
2026-05-09 16:13:24.476,3,0.19,-0.95,1.18,7.462399999999999,-43.7012,61.01400000000001,175,75
2026-05-09 16:13:24.500,3,-0.06,-0.66,0.5,31.3024,39.8988,21.874000000000006,175,75
2026-05-09 16:13:24.509,3,-0.24,-0.78,1.13,53.8024,114.2888,28.584,175,75
2026-05-09 16:13:24.515,3,-0.24,-0.79,1.75,58.1324,81.8488,5.2840000000000025,175,75
2026-05-09 16:13:24.524,3,-0.08,-0.62,2.1,42.5824,45.7488,-8.985999999999997,175,75
2026-05-09 16:13:24.535,3,0.25,-0.23,2.25,1.6723999999999997,-20.5912,-7.455999999999996,175,75
2026-05-09 16:13:24.544,3,0.08,0.14,1.9,-35.2776,-96.8712,13.824000000000002,175,75
2026-05-09 16:13:24.558,3,-0.23,0.1,1.39,-45.827600000000004,-104.00120000000001,12.234000000000005,175,75
2026-05-09 16:13:24.566,3,-0.3,-0.04,1.07,-46.7476,-89.67120000000001,-1.5459999999999958,175,75
2026-05-09 16:13:24.580,3,-0.38,-0.08,0.92,-46.9876,-65.3412,-13.675999999999998,175,75
2026-05-09 16:13:24.592,3,-0.33,-0.11,0.91,-42.107600000000005,-40.1612,-24.285999999999998,175,75
2026-05-09 16:13:24.671,3,0.5,-0.33,1.06,-41.8076,-37.0512,-33.186,175,75
2026-05-09 16:13:24.682,3,0.5,-0.11,0.87,-40.7676,-32.8412,-34.596,175,75
2026-05-09 16:13:24.699,3,0.56,0.0,0.74,-34.7876,-25.1612,-28.435999999999996,175,75
2026-05-09 16:13:24.707,3,0.62,0.26,0.53,1.7924000000000007,1.6088000000000002,-6.295999999999996,175,75
2026-05-09 16:13:24.726,3,0.64,0.3,0.55,34.2924,-4.9212,17.844000000000005,175,75
2026-05-09 16:13:24.751,3,0.22,0.05,0.7,95.57239999999999,14.9588,86.754,175,75
2026-05-09 16:13:24.767,3,-0.01,0.1,1.13,134.54240000000001,53.1288,110.284,175,75
2026-05-09 16:13:24.778,3,-0.12,0.08,1.53,183.38240000000002,55.5088,142.364,175,75
2026-05-09 16:13:24.809,3,-0.55,-0.05,1.99,219.66240000000002,80.6288,184.98399999999998,175,75
2026-05-09 16:13:24.835,3,-0.26,0.39,1.87,145.88240000000002,-69.9812,122.604,175,75
2026-05-09 16:13:24.858,3,0.1,0.44,1.04,95.45240000000001,-118.8812,102.54400000000001,175,75
2026-05-09 16:13:24.886,3,0.74,0.85,0.41,50.7524,-91.44120000000001,11.324000000000002,175,75
2026-05-09 16:13:24.914,3,0.59,0.94,0.36,26.912399999999998,-101.14120000000001,-54.346,175,75
2026-05-09 16:13:24.914,3,0.45,1.16,0.23,-15.7076,-76.9912,-109.896,175,75
2026-05-09 16:13:24.936,3,-0.66,1.66,0.27,-103.9976,148.2488,-152.096,175,75
2026-05-09 16:13:24.948,3,-1.96,1.89,1.41,-56.3776,338.0088,-112.09599999999999,175,75
2026-05-09 16:13:24.956,3,-1.83,1.73,2.71,4.232399999999998,338.4388,-119.466,175,75
2026-05-09 16:13:24.980,3,-1.32,-1.97,6.84,257.1624,-33.2712,35.774,175,75
2026-05-09 16:13:25.004,3,0.3,-0.7,0.5,-569.3676,-672.1712,-62.51599999999999,175,75
2026-05-09 16:13:25.016,3,-2.0,1.71,-1.14,-469.5476,41.5488,-47.766,175,75
2026-05-09 16:13:25.027,3,1.51,0.19,-0.89,-42.3476,-30.5912,-40.205999999999996,175,75
2026-05-09 16:13:25.037,3,1.17,-1.2,-0.11,42.8324,-102.66120000000001,-21.176,175,75
2026-05-09 16:13:25.049,3,0.12,-0.49,0.62,-106.92760000000001,180.0188,-44.226,175,75
2026-05-09 16:13:25.073,3,1.24,-0.41,1.84,-37.8976,19.8988,-55.566,175,75
2026-05-09 16:13:25.084,3,0.59,-0.2,1.25,-92.89760000000001,2.0987999999999998,-41.846,175,75
2026-05-09 16:13:25.094,3,0.64,-0.09,1.01,-53.8776,19.1088,-51.176,175,75
2026-05-09 16:13:25.106,3,0.84,-0.05,0.78,-27.227600000000002,-16.011200000000002,-40.93599999999999,175,75
2026-05-09 16:13:25.120,3,0.46,0.1,0.3,-21.3776,-9.5512,-24.465999999999998,175,75
2026-05-09 16:13:25.134,3,0.51,0.21,0.65,69.7824,164.7188,0.044000000000004036,175,75
2026-05-09 16:13:25.149,3,0.67,0.19,1.27,96.0624,119.52879999999999,21.754,175,75
2026-05-09 16:13:25.160,3,0.6,0.22,1.4,99.54239999999999,51.2388,38.70400000000001,175,75
2026-05-09 16:13:25.186,3,0.54,0.23,1.05,100.2124,-12.171199999999999,72.174,175,75
2026-05-09 16:13:25.198,3,0.45,0.16,0.89,100.51240000000001,-17.9712,84.194,175,75
2026-05-09 16:13:25.212,3,0.3,0.07,0.78,105.45240000000001,-10.9512,97.054,175,75
2026-05-09 16:13:25.224,3,0.25,-0.37,0.92,110.51240000000001,-53.7612,96.444,175,75
2026-05-09 16:13:25.236,3,0.19,-0.76,0.86,99.60239999999999,-26.4412,85.95400000000001,175,75
2026-05-09 16:13:25.246,3,-0.18,-0.88,0.83,94.41239999999999,22.0988,103.514,175,75
2026-05-09 16:13:25.270,3,-0.68,-0.88,1.4,117.04240000000001,75.19879999999999,46.62400000000001,175,75
2026-05-09 16:13:25.279,3,-0.35,-0.71,1.56,96.1824,70.8788,31.504,175,75
2026-05-09 16:13:25.279,3,-0.18,-0.43,1.64,83.8024,51.1788,37.42400000000001,175,75
2026-05-09 16:13:25.303,3,-0.47,-0.19,1.58,76.9724,63.988800000000005,47.29400000000001,175,75
2026-05-09 16:13:25.323,3,-0.66,-0.15,1.56,78.32239999999999,89.6588,38.584,175,75
2026-05-09 16:13:25.337,3,-0.63,0.22,1.66,67.7124,114.10879999999999,-21.605999999999998,175,75
2026-05-09 16:13:25.348,3,-0.39,0.31,1.56,41.0624,78.7388,-36.726,175,75
2026-05-09 16:13:25.359,3,-0.2,0.36,1.43,18.4424,50.7488,-53.556,175,75
2026-05-09 16:13:25.388,3,0.38,0.54,0.84,-42.7776,9.1088,-109.04599999999999,175,75
2026-05-09 16:13:25.399,3,0.45,0.73,0.79,-50.6476,32.0288,-125.326,175,75
2026-05-09 16:13:25.402,3,0.47,0.76,0.87,-62.5976,42.6388,-133.496,175,75
2026-05-09 16:13:25.430,3,0.96,0.52,0.93,-125.64760000000001,-3.7611999999999997,-180.01600000000002,175,75
2026-05-09 16:13:25.470,3,0.1,0.76,1.56,-162.1676,106.9088,-170.876,175,75
2026-05-09 16:13:25.483,3,-1.2,0.31,2.88,-56.8076,177.6988,-177.156,175,75
2026-05-09 16:13:25.498,3,-0.36,-0.73,3.56,106.61240000000001,247.6988,-55.626,175,75
2026-05-09 16:13:25.513,3,-0.74,-0.89,2.83,73.86240000000001,94.8988,-115.68599999999999,175,75
2026-05-09 16:13:25.524,3,-0.17,0.92,0.82,-13.9976,38.7388,-73.79599999999999,175,75
2026-05-09 16:13:25.530,3,-0.12,2.11,-0.37,-38.8176,44.6588,-11.845999999999998,175,75
2026-05-09 16:13:25.559,3,0.84,0.45,2.46,64.0524,85.6288,58.82400000000001,175,75
2026-05-09 16:13:25.573,3,0.85,-0.58,2.58,-43.9376,-215.1012,58.76400000000001,175,75
2026-05-09 16:13:25.586,3,-0.34,-0.44,1.81,-100.5276,-203.4512,82.664,175,75
2026-05-09 16:13:25.586,3,0.34,-1.14,1.08,-61.6176,-186.6912,51.504000000000005,175,75
2026-05-09 16:13:25.611,3,0.21,-0.25,0.01,-33.2076,-44.7312,25.164000000000005,175,75
2026-05-09 16:13:25.642,3,-0.08,-0.34,0.74,50.8824,153.6788,18.764,175,75
2026-05-09 16:13:25.658,3,-0.21,-0.54,1.73,27.6524,56.5488,-5.325999999999997,175,75
2026-05-09 16:13:25.670,3,-0.11,-0.43,1.76,6.552399999999999,-0.47120000000000006,-4.5959999999999965,175,75
2026-05-09 16:13:25.680,3,0.07,-0.42,1.63,-12.1076,-51.1412,-3.1859999999999964,175,75
2026-05-09 16:13:25.693,3,0.13,-0.46,1.3,-21.0676,-84.86120000000001,4.374000000000002,175,75
2026-05-09 16:13:25.704,3,0.05,-0.53,1.01,-16.8676,-77.5412,-0.015999999999998238,175,75
2026-05-09 16:13:25.714,3,0.08,-0.53,0.91,-5.5276,-45.1612,-13.435999999999998,175,75
2026-05-09 16:13:25.737,3,0.21,-0.41,0.96,1.362400000000001,-13.3912,-21.415999999999997,175,75
2026-05-09 16:13:25.760,3,0.22,-0.35,0.98,9.962399999999999,-8.2112,-25.386,175,75
2026-05-09 16:13:25.766,3,0.22,-0.3,0.95,14.7224,-12.9012,-20.805999999999997,175,75
2026-05-09 16:13:25.776,3,0.26,-0.31,0.9,18.4424,-19.0012,-18.005999999999997,175,75
2026-05-09 16:13:25.786,3,0.36,-0.31,0.8,25.3324,-31.7512,-18.616,175,75
2026-05-09 16:13:25.797,3,0.37,-0.22,0.66,32.7724,-35.9512,-12.275999999999998,175,75
2026-05-09 16:13:25.816,3,0.5,-0.31,0.59,56.122400000000006,-23.9412,2.544000000000004,175,75
2026-05-09 16:13:25.827,3,0.54,-0.36,0.51,65.82239999999999,-32.9012,6.384000000000004,175,75
2026-05-09 16:13:25.851,3,0.56,-0.25,0.18,97.04239999999999,-14.0612,19.494000000000003,175,75
2026-05-09 16:13:25.862,3,0.51,-0.31,0.19,130.2124,15.808800000000002,29.614,175,75
2026-05-09 16:13:25.872,3,0.46,-0.36,0.35,160.2124,56.6688,33.763999999999996,175,75
2026-05-09 16:13:25.883,3,0.44,-0.4,0.55,180.2724,98.18879999999999,41.444,175,75
2026-05-09 16:13:25.894,3,0.26,-0.31,0.79,194.54240000000001,133.7988,49.864000000000004,175,75
2026-05-09 16:13:25.904,3,0.15,-0.21,1.1,216.1824,157.7688,57.724000000000004,175,75
2026-05-09 16:13:25.916,3,0.04,-0.18,1.22,239.2324,148.06879999999998,72.48400000000001,175,75
2026-05-09 16:13:25.926,3,0.09,-0.14,1.35,256.6724,171.4188,66.93400000000001,175,75
2026-05-09 16:13:25.938,3,0.16,-0.02,1.58,263.3824,180.0188,65.40400000000001,175,75
2026-05-09 16:13:25.961,3,-0.05,0.11,1.55,223.19240000000002,128.6188,66.694,175,75
2026-05-09 16:13:25.972,3,-0.37,0.11,1.44,208.2524,150.1388,51.87400000000001,175,75
2026-05-09 16:13:25.985,3,-0.45,0.08,1.43,196.4924,141.1188,32.84400000000001,175,75
2026-05-09 16:13:26.001,3,-0.34,0.54,1.46,149.7824,121.8488,-12.515999999999998,175,75
2026-05-09 16:13:26.012,3,-0.28,0.9,1.58,109.9024,74.71879999999999,14.554000000000006,175,75
2026-05-09 16:13:26.029,3,-0.03,0.48,1.51,54.292399999999994,-47.9712,-25.266,175,75
2026-05-09 16:13:26.036,3,-0.08,0.57,1.14,1.0624000000000002,-79.92120000000001,-69.106,175,75
2026-05-09 16:13:26.058,3,-0.03,0.9,0.77,-34.1776,-71.8712,-93.246,175,75
2026-05-09 16:13:26.068,3,0.39,0.97,0.7,-74.6676,-64.9812,-137.216,175,75
2026-05-09 16:13:26.082,3,0.37,0.85,0.74,-125.39760000000001,-86.75120000000001,-176.606,175,75
2026-05-09 16:13:26.086,3,0.33,0.55,0.65,-190.2776,-184.6112,-228.066,175,75
2026-05-09 16:13:26.100,3,0.19,0.5,0.27,-251.7476,-167.6012,-257.766,175,75
2026-05-09 16:13:26.111,3,-1.79,1.5,0.64,-252.0476,150.9388,-236.606,175,75
2026-05-09 16:13:26.117,3,-4.25,2.21,2.05,-142.4176,543.4988,-126.666,175,75
2026-05-09 16:13:26.129,3,-4.3,2.65,5.61,232.7724,671.2388,43.15400000000001,175,75
2026-05-09 16:13:26.151,3,-4.02,0.39,9.15,631.4324,171.7288,63.394000000000005,175,75
2026-05-09 16:13:26.161,3,3.78,-0.48,2.91,-316.31759999999997,-750.2212000000001,-119.716,175,75
2026-05-09 16:13:26.179,3,-0.74,1.2,-0.13,-686.9876,-553.5812000000001,-9.465999999999998,175,75
2026-05-09 16:13:26.190,3,-0.49,2.64,-2.75,-460.6476,65.13879999999999,-204.286,175,75
2026-05-09 16:13:26.202,3,0.91,2.09,-1.24,142.2824,94.77879999999999,-88.856,175,75
2026-05-09 16:13:26.202,3,-0.62,0.71,0.11,138.19240000000002,278.2488,-8.375999999999998,175,75
2026-05-09 16:13:26.215,3,-0.25,-0.43,1.11,108.07239999999999,379.46880000000004,-28.555999999999997,175,75
2026-05-09 16:13:26.229,3,0.28,-1.38,1.89,136.4924,291.41880000000003,-30.266,175,75
2026-05-09 16:13:26.239,3,0.02,-1.57,2.45,114.29240000000001,198.6188,-54.715999999999994,175,75
2026-05-09 16:13:26.250,3,0.47,-0.45,2.5,-2.5976,46.5488,-137.336,175,75
2026-05-09 16:13:26.260,3,1.43,0.63,1.47,-41.7476,-102.11120000000001,-53.306,175,75
2026-05-09 16:13:26.270,3,0.61,0.57,0.34,4.412399999999998,-95.7112,18.154,175,75
2026-05-09 16:13:26.282,3,0.59,-0.08,-0.12,47.5824,2.0987999999999998,16.384000000000004,175,75
2026-05-09 16:13:26.312,3,1.33,-0.14,1.34,169.7224,140.0788,45.40400000000001,175,75
2026-05-09 16:13:26.330,3,1.21,-0.2,1.59,180.0824,89.8988,67.114,175,75
2026-05-09 16:13:26.355,3,0.18,-0.53,1.2,185.82240000000002,59.8988,106.08400000000002,175,75
2026-05-09 16:13:26.390,3,-0.57,-0.4,0.53,168.9324,178.12879999999998,8.764,175,75
2026-05-09 16:13:26.401,3,-0.15,-0.15,1.16,190.3324,207.7688,1.7540000000000013,175,75
2026-05-09 16:13:26.430,3,-0.16,-0.11,1.59,164.66240000000002,170.7488,23.584,175,75
2026-05-09 16:13:26.442,3,-0.82,-0.14,1.45,106.3024,90.0188,-8.675999999999998,175,75
2026-05-09 16:13:26.488,3,-0.21,0.47,0.73,-63.1476,-14.1212,-108.18599999999999,175,75
2026-05-09 16:13:26.503,3,0.01,0.51,0.83,-90.0976,-41.0112,-110.136,175,75
2026-05-09 16:13:26.503,3,0.16,0.45,0.9,-121.7476,-72.66120000000001,-121.726,175,75
2026-05-09 16:13:26.513,3,0.27,0.44,0.82,-171.4376,-99.1212,-137.766,175,75
2026-05-09 16:13:26.525,3,0.37,0.45,0.84,-216.4976,-108.27120000000001,-153.616,175,75
2026-05-09 16:13:26.543,3,0.56,0.36,0.9,-252.6576,-123.58120000000001,-170.806,175,75
2026-05-09 16:13:26.543,3,0.71,0.26,0.85,-288.75759999999997,-143.2712,-174.776,175,75
2026-05-09 16:13:26.569,3,0.61,0.17,0.61,-318.50759999999997,-125.16120000000001,-166.606,175,75
2026-05-09 16:13:26.581,3,0.49,0.05,0.36,-330.3976,-76.75120000000001,-162.336,175,75
2026-05-09 16:13:26.581,3,0.61,-0.25,0.31,-332.1676,-29.2512,-166.056,175,75
2026-05-09 16:13:26.592,3,0.82,-0.64,0.49,-323.6376,-27.6612,-175.686,175,75
2026-05-09 16:13:26.602,3,0.77,-0.92,0.53,-319.4276,-10.2212,-199.716,175,75
2026-05-09 16:13:26.615,3,-0.57,0.11,0.62,-280.5276,177.5788,-129.046,175,75
2026-05-09 16:13:26.629,3,-1.87,0.97,1.79,-138.5076,556.9087999999999,33.214,175,75
2026-05-09 16:13:26.633,3,0.75,-0.43,3.38,79.11240000000001,275.7488,-92.396,175,75
2026-05-09 16:13:26.648,3,-2.3,1.32,5.14,221.91240000000002,287.5188,-91.966,175,75
2026-05-09 16:13:26.659,3,-2.66,2.62,6.31,220.0824,252.3988,100.59400000000001,175,75
2026-05-09 16:13:26.670,3,-1.6,1.37,5.51,213.5024,3.1288,94.79400000000001,175,75
2026-05-09 16:13:26.682,3,2.41,-0.64,2.75,117.3424,-324.7312,60.59400000000001,175,75
2026-05-09 16:13:26.704,3,-1.99,-0.17,-0.24,-143.3876,-617.6012000000001,211.20399999999998,175,75
2026-05-09 16:13:26.704,3,-4.52,1.18,-1.02,-193.08759999999998,159.65879999999999,248.274,175,75
2026-05-09 16:13:26.714,3,0.39,0.11,-0.58,50.0224,106.5488,59.67400000000001,175,75
2026-05-09 16:13:26.726,3,-1.34,-0.55,0.66,217.04240000000001,-130.8912,-36.056,175,75
2026-05-09 16:13:26.737,3,0.02,-0.57,1.51,140.69240000000002,216.1788,-33.495999999999995,175,75
2026-05-09 16:13:26.749,3,0.72,-0.28,2.48,80.0224,85.8788,15.954000000000004,175,75
2026-05-09 16:13:26.774,3,-0.22,-0.41,2.44,38.992399999999996,-55.6512,37.784000000000006,175,75
2026-05-09 16:13:26.775,3,-0.11,-0.7,1.97,20.0824,-84.1212,21.564000000000004,175,75
2026-05-09 16:13:26.786,3,-0.22,-0.62,1.58,10.392399999999999,-84.1212,7.484000000000005,175,75
2026-05-09 16:13:26.808,3,-0.16,-0.67,1.18,25.882399999999997,-42.2312,-13.375999999999998,175,75
2026-05-09 16:13:26.829,3,0.11,-0.48,1.58,16.7924,-24.4312,-34.896,175,75
2026-05-09 16:13:26.840,3,0.16,-0.42,1.5,-5.0976,-63.5112,-24.345999999999997,175,75
2026-05-09 16:13:26.851,3,-0.0,-0.52,1.15,-11.8076,-65.41120000000001,-25.625999999999998,175,75
2026-05-09 16:13:26.861,3,0.01,-0.65,0.94,-3.5676000000000005,-50.9512,-30.935999999999996,175,75
2026-05-09 16:13:26.872,3,0.09,-0.64,0.81,1.912399999999998,-39.4312,-42.455999999999996,175,75
2026-05-09 16:13:26.884,3,0.28,-0.48,0.71,1.5523999999999987,-25.4012,-47.635999999999996,175,75
2026-05-09 16:13:26.901,3,0.46,-0.36,0.43,7.4024,-53.3312,-23.435999999999996,175,75
2026-05-09 16:13:26.912,3,0.37,-0.31,0.13,20.3324,-59.1912,-15.935999999999998,175,75
2026-05-09 16:13:26.923,3,0.47,-0.23,-0.05,45.2124,-41.4412,-6.175999999999998,175,75
2026-05-09 16:13:26.934,3,0.48,-0.06,0.06,77.3424,-6.9312,12.544,175,75
2026-05-09 16:13:26.958,3,0.38,-0.29,0.47,151.91240000000002,39.7188,41.01400000000001,175,75
2026-05-09 16:13:26.974,3,0.33,-0.38,0.55,186.2424,77.5188,49.37400000000001,175,75
2026-05-09 16:13:27.000,3,0.11,-0.25,0.69,219.8424,127.21879999999999,51.384,175,75
2026-05-09 16:13:27.012,3,0.12,0.02,0.87,258.8624,150.3288,62.90400000000001,175,75
2026-05-09 16:13:27.022,3,0.28,0.02,1.08,253.07240000000002,155.62879999999998,67.784,175,75
2026-05-09 16:13:27.022,3,0.49,0.14,1.17,238.07240000000002,116.35879999999999,57.90400000000001,175,75
2026-05-09 16:13:27.033,3,0.37,0.2,1.18,216.5524,85.68879999999999,64.554,175,75
2026-05-09 16:13:27.044,3,0.13,0.12,1.18,188.8024,97.69879999999999,72.604,175,75
2026-05-09 16:13:27.083,3,0.1,-0.02,0.83,104.4724,28.9888,17.054000000000006,175,75
2026-05-09 16:13:27.083,3,0.21,0.14,0.59,67.5824,40.3888,-9.345999999999998,175,75
2026-05-09 16:13:27.111,3,0.28,0.63,0.49,-6.8675999999999995,118.18879999999999,-48.736,175,75
2026-05-09 16:13:27.122,3,0.33,0.68,0.66,-38.4476,108.24879999999999,-77.15599999999999,175,75
2026-05-09 16:13:27.145,3,0.13,0.55,0.93,-125.0976,93.49879999999999,-134.776,175,75
2026-05-09 16:13:27.145,3,0.04,0.6,0.98,-162.6576,91.66879999999999,-159.166,175,75
2026-05-09 16:13:27.156,3,-0.04,0.58,1.16,-208.6376,60.3288,-193.556,175,75
2026-05-09 16:13:27.168,3,0.22,0.34,1.19,-264.9776,-6.9912,-232.57600000000002,175,75
2026-05-09 16:13:27.178,3,-1.27,0.63,1.5,-265.2176,37.8888,-235.626,175,75
2026-05-09 16:13:27.196,3,-4.82,1.87,4.08,-56.8076,431.60880000000003,-55.995999999999995,175,75
2026-05-09 16:13:27.209,3,-7.5,2.66,8.88,398.74240000000003,619.7188,292.664,175,75
2026-05-09 16:13:27.230,3,-2.28,-2.35,8.11,348.1924,-600.4112,-295.996,175,75
2026-05-09 16:13:27.242,3,4.42,1.09,3.37,-308.2676,-523.9412,-22.945999999999998,175,75
2026-05-09 16:13:27.250,3,-0.0,2.26,1.66,-499.6076,-717.4212,115.40400000000001,175,75
2026-05-09 16:13:27.253,3,-1.43,2.96,-1.39,-421.8076,-433.5112,-144.226,175,75
2026-05-09 16:13:27.270,3,1.12,2.56,-2.7,-93.4476,-164.9812,-75.076,175,75
2026-05-09 16:13:27.283,3,-0.31,0.96,-0.58,54.0524,182.6388,2.3640000000000008,175,75
2026-05-09 16:13:27.286,3,0.19,-0.15,0.94,67.16239999999999,245.3288,-38.916,175,75
2026-05-09 16:13:27.308,3,0.56,-0.88,1.83,87.4024,192.3988,-30.746,175,75
2026-05-09 16:13:27.319,3,0.04,-1.24,2.52,68.19239999999999,119.22879999999999,4.794000000000004,175,75
2026-05-09 16:13:27.327,3,-0.09,-0.46,2.14,-28.7576,-11.2012,-94.28599999999999,175,75
2026-05-09 16:13:27.338,3,1.12,0.54,1.6,-66.13759999999999,-154.9812,-90.87599999999999,175,75
2026-05-09 16:13:27.357,3,0.31,-0.2,-0.25,15.9424,-35.8912,10.284000000000002,175,75
2026-05-09 16:13:27.368,3,0.54,-0.31,0.01,76.73240000000001,39.2888,-16.116,175,75
2026-05-09 16:13:27.382,3,0.78,-0.12,0.53,103.32239999999999,79.83879999999999,2.6640000000000015,175,75
2026-05-09 16:13:27.398,3,0.74,-0.19,0.79,131.2424,66.1188,24.124000000000006,175,75
2026-05-09 16:13:27.420,3,0.79,-0.35,0.85,150.0224,42.5788,26.624000000000006,175,75
2026-05-09 16:13:27.442,3,0.78,-0.55,0.47,219.7224,104.9588,53.274,175,75
2026-05-09 16:13:27.458,3,0.29,-0.57,0.88,265.2124,182.4588,80.59400000000001,175,75
2026-05-09 16:13:27.471,3,-0.19,-0.83,1.21,276.24240000000003,213.12879999999998,126.324,175,75
2026-05-09 16:13:27.482,3,-0.61,-1.15,1.44,258.1924,212.4588,140.714,175,75
2026-05-09 16:13:27.492,3,-0.78,-1.08,1.5,227.04240000000001,171.6088,103.824,175,75
2026-05-09 16:13:27.504,3,-0.74,-0.7,1.43,183.5624,152.3388,45.95400000000001,175,75
2026-05-09 16:13:27.523,3,-0.41,-0.17,1.43,134.1724,93.7988,30.894000000000002,175,75
2026-05-09 16:13:27.535,3,-0.5,-0.27,1.35,98.9324,48.0088,18.274000000000004,175,75
2026-05-09 16:13:27.561,3,-0.7,-0.37,0.86,26.1824,33.0688,-18.246,175,75
2026-05-09 16:13:27.573,3,-0.56,-0.32,0.52,-23.2676,-6.8111999999999995,-89.28599999999999,175,75
2026-05-09 16:13:27.573,3,-0.49,0.05,0.24,-61.8676,15.3888,-139.106,175,75
2026-05-09 16:13:27.584,3,-0.18,0.45,0.21,-93.7576,62.638799999999996,-156.906,175,75
2026-05-09 16:13:27.599,3,0.19,0.6,0.52,-123.9376,63.498799999999996,-135.386,175,75
2026-05-09 16:13:27.618,3,0.22,0.31,0.79,-162.5976,-2.4812,-140.806,175,75
2026-05-09 16:13:27.635,3,0.18,0.15,0.77,-195.45759999999999,-34.9212,-163.066,175,75
2026-05-09 16:13:27.647,3,0.38,0.18,0.67,-236.9876,-61.6912,-182.886,175,75
2026-05-09 16:13:27.647,3,0.52,0.27,0.64,-267.2276,-76.9312,-182.70600000000002,175,75
2026-05-09 16:13:27.673,3,0.58,0.17,0.66,-329.6076,-78.7012,-187.276,175,75
2026-05-09 16:13:27.685,3,0.82,-0.07,0.76,-380.0976,-74.92120000000001,-184.526,175,75
2026-05-09 16:13:27.698,3,1.04,-0.44,0.74,-399.5476,-91.14120000000001,-192.39600000000002,175,75
2026-05-09 16:13:27.717,3,0.69,-0.59,0.75,-395.94759999999997,-49.8012,-206.606,175,75
2026-05-09 16:13:27.728,3,-1.33,0.56,2.48,-175.33759999999998,396.90880000000004,4.124000000000002,175,75
2026-05-09 16:13:27.740,3,0.76,-1.81,3.84,64.66239999999999,18.0688,-214.106,175,75
2026-05-09 16:13:27.751,3,-2.83,1.36,4.96,49.6624,316.78880000000004,-67.76599999999999,175,75
2026-05-09 16:13:27.770,3,-3.77,2.67,7.32,317.4024,205.9988,100.834,175,75
2026-05-09 16:13:27.792,3,4.47,-1.52,4.45,170.3324,-283.8812,17.904,175,75
2026-05-09 16:13:27.792,3,0.56,-1.14,0.77,-156.0076,-845.5312,209.254,175,75
2026-05-09 16:13:27.804,3,-6.17,0.97,-0.76,-271.9876,-165.1012,337.904,175,75
2026-05-09 16:13:27.833,3,-0.46,-0.67,0.53,274.6024,-210.2212,-78.556,175,75
2026-05-09 16:13:27.845,3,-0.47,-0.88,1.46,249.8424,166.3588,-85.206,175,75
2026-05-09 16:13:27.845,3,1.14,-0.49,2.66,74.66239999999999,212.2188,10.344000000000005,175,75
2026-05-09 16:13:27.868,3,-0.21,-0.36,2.25,10.1524,-142.4812,32.544,175,75
2026-05-09 16:13:27.880,3,-0.12,-0.54,1.52,-21.9876,-162.3612,27.424000000000003,175,75
2026-05-09 16:13:27.900,3,-0.22,-0.99,0.61,14.052399999999999,-67.6012,1.8740000000000023,175,75
2026-05-09 16:13:27.907,3,-0.21,-0.82,0.76,27.2224,-22.4812,-29.595999999999997,175,75
2026-05-09 16:13:27.938,3,0.33,-0.49,1.3,14.9024,-20.711199999999998,-24.345999999999997,175,75
2026-05-09 16:13:27.970,3,0.53,-0.53,0.72,4.842400000000001,-59.3712,-18.435999999999996,175,75
2026-05-09 16:13:27.985,3,0.55,-0.58,0.65,11.552399999999999,-48.7612,-9.655999999999997,175,75
2026-05-09 16:13:27.990,3,0.64,-0.54,0.57,14.052399999999999,-52.3612,-12.825999999999997,175,75
2026-05-09 16:13:28.000,3,0.65,-0.05,0.2,23.8624,-65.47120000000001,-8.735999999999997,175,75
2026-05-09 16:13:28.012,3,0.53,0.04,0.04,50.2724,-43.3312,9.674000000000003,175,75
2026-05-09 16:13:28.034,3,0.54,-0.12,0.25,125.1524,18.3088,18.334,175,75
2026-05-09 16:13:28.054,3,0.6,-0.13,0.38,151.79240000000001,44.2888,20.714000000000002,175,75
2026-05-09 16:13:28.064,3,0.51,-0.2,0.44,196.4324,116.72879999999999,31.014,175,75
2026-05-09 16:13:28.089,3,0.26,-0.04,0.98,263.4424,198.00879999999998,50.284000000000006,175,75
2026-05-09 16:13:28.101,3,0.18,0.13,1.16,280.4524,207.4588,60.104,175,75
2026-05-09 16:13:28.114,3,0.26,0.17,1.32,279.6624,198.7988,68.82400000000001,175,75
2026-05-09 16:13:28.154,3,0.44,0.39,1.38,212.5824,75.80879999999999,74.614,175,75
2026-05-09 16:13:28.168,3,-0.26,0.28,1.07,169.2324,63.248799999999996,109.55400000000002,175,75
2026-05-09 16:13:28.194,3,-0.36,-0.36,0.44,57.462399999999995,47.2188,3.8240000000000016,175,75
2026-05-09 16:13:28.208,3,-0.42,0.0,0.19,-11.0676,106.2988,-49.775999999999996,175,75
2026-05-09 16:13:28.218,3,-0.24,0.26,0.33,-48.0276,107.08879999999999,-85.136,175,75
2026-05-09 16:13:28.256,3,0.29,0.44,0.88,-131.0076,27.9488,-164.776,175,75
2026-05-09 16:13:28.256,3,0.3,0.67,0.95,-183.0276,-1.8112,-170.806,175,75
2026-05-09 16:13:28.267,3,0.22,0.73,1.06,-240.7676,-65.77120000000001,-200.26600000000002,175,75
2026-05-09 16:13:28.276,3,0.1,0.37,1.08,-315.2176,-169.49120000000002,-241.17600000000002,175,75
2026-05-09 16:13:28.289,3,-3.1,1.34,1.74,-277.0476,251.90879999999999,-226.056,175,75
2026-05-09 16:13:28.311,3,-5.48,2.45,8.12,371.24240000000003,448.5588,274.254,175,75
2026-05-09 16:13:28.322,3,-3.16,-2.06,10.18,611.9124,-637.7812,-133.066,175,75
2026-05-09 16:13:28.343,3,1.8,-1.98,5.92,-20.0376,-974.5512,-326.236,175,75
2026-05-09 16:13:28.356,3,-2.7,4.69,-1.83,-840.3976,-297.3612,-167.216,175,75
2026-05-09 16:13:28.369,3,0.79,4.04,-3.88,-252.4176,-26.871199999999998,-116.23599999999999,175,75
2026-05-09 16:13:28.386,3,-0.26,0.3,0.23,193.5024,500.3888,28.214000000000002,175,75
2026-05-09 16:13:28.397,3,-0.34,-0.45,1.63,163.32240000000002,487.33880000000005,-24.165999999999997,175,75
2026-05-09 16:13:28.412,3,0.13,-1.31,2.91,207.10240000000002,349.46880000000004,-31.665999999999997,175,75
2026-05-09 16:13:28.421,3,-0.38,-1.85,3.92,135.82240000000002,185.56879999999998,-41.236,175,75
2026-05-09 16:13:28.433,3,1.5,0.22,3.22,-100.0976,-142.7812,-149.656,175,75
2026-05-09 16:13:28.453,3,0.62,0.76,1.35,-135.4576,-295.47119999999995,6.444000000000003,175,75
2026-05-09 16:13:28.467,3,-0.17,0.24,0.13,-96.2576,-204.12120000000002,34.37400000000001,175,75
2026-05-09 16:13:28.506,3,1.25,0.01,1.56,145.88240000000002,119.4088,58.82400000000001,175,75
2026-05-09 16:13:28.530,3,0.99,-0.08,1.3,140.4524,-59.1912,113.09400000000001,175,75
2026-05-09 16:13:28.541,3,0.63,-0.3,0.9,154.9024,-44.1212,129.92399999999998,175,75
2026-05-09 16:13:28.553,3,0.2,-0.7,0.74,170.3924,-12.9712,154.494,175,75
2026-05-09 16:13:28.570,3,-0.17,-1.18,0.6,174.9024,35.0188,162.844,175,75
2026-05-09 16:13:28.582,3,-0.62,-1.07,0.62,162.6524,143.00879999999998,82.424,175,75
2026-05-09 16:13:28.594,3,-0.64,-0.67,0.86,160.2124,195.0788,61.994,175,75
2026-05-09 16:13:28.608,3,-0.43,-0.45,1.35,143.5624,176.6088,54.67400000000001,175,75
2026-05-09 16:13:28.626,3,-0.55,-0.3,1.82,96.36240000000001,73.6788,3.584000000000003,175,75
2026-05-09 16:13:28.640,3,-0.67,-0.06,1.7,63.742399999999996,46.6088,-0.565999999999999,175,75
2026-05-09 16:13:28.669,3,-0.53,-0.2,0.84,-58.8776,-84.7312,-69.04599999999999,175,75
2026-05-09 16:13:28.679,3,-0.45,0.1,0.36,-94.8476,-62.4212,-106.056,175,75
2026-05-09 16:13:28.729,3,0.06,0.1,0.48,-172.3476,-11.5612,-143.496,175,75
2026-05-09 16:13:28.729,3,0.21,0.1,0.57,-195.8276,-19.1912,-166.666,175,75
2026-05-09 16:13:28.741,3,0.42,0.18,0.64,-223.20759999999999,-28.0912,-176.726,175,75
2026-05-09 16:13:28.753,3,0.6,0.21,0.73,-248.6976,-46.2012,-171.606,175,75
2026-05-09 16:13:28.765,3,0.65,0.19,0.8,-268.7576,-57.9112,-171.606,175,75
2026-05-09 16:13:28.776,3,0.66,0.13,0.83,-295.2176,-65.41120000000001,-179.466,175,75
2026-05-09 16:13:28.786,3,0.86,-0.04,0.78,-324.1776,-67.72120000000001,-183.066,175,75
2026-05-09 16:13:28.800,3,0.92,-0.39,0.56,-354.4276,-96.2612,-175.506,175,75
2026-05-09 16:13:28.811,3,0.52,-0.46,0.18,-367.1076,-67.8412,-194.106,175,75
2026-05-09 16:13:28.823,3,0.67,-0.23,0.06,-364.7876,70.32879999999999,-187.336,175,75
2026-05-09 16:13:28.835,3,-2.24,0.87,2.47,-134.9776,540.2687999999999,-21.785999999999998,175,75
2026-05-09 16:13:28.857,3,-0.0,-0.2,5.34,185.4524,176.3588,-195.686,175,75
2026-05-09 16:13:28.873,3,-5.0,3.07,6.62,157.8924,228.6788,214.92399999999998,175,75
2026-05-09 16:13:28.900,3,5.1,-2.63,2.74,-4.1175999999999995,-737.3612,126.324,175,75
2026-05-09 16:13:28.907,3,-3.44,-1.47,-0.07,-327.6576,-855.2212000000001,367.724,175,75
2026-05-09 16:13:28.911,3,-4.55,0.88,-1.68,-310.94759999999997,509.65880000000004,249.06399999999996,175,75
2026-05-09 16:13:28.928,3,1.06,-0.62,-0.83,220.0224,-148.7012,-112.886,175,75
2026-05-09 16:13:28.935,3,-1.64,-0.46,0.26,383.1924,-8.2112,-187.76600000000002,175,75
2026-05-09 16:13:28.941,3,0.32,-0.5,1.36,208.8624,399.52880000000005,-107.576,175,75
2026-05-09 16:13:28.960,3,1.27,-0.06,2.67,53.2524,343.1288,49.67400000000001,175,75
2026-05-09 16:13:28.973,3,-0.66,-0.1,3.3,82.95240000000001,-55.7112,29.314000000000004,175,75
2026-05-09 16:13:28.984,3,-0.06,-0.85,2.13,9.232399999999998,-91.14120000000001,-5.995999999999999,175,75
2026-05-09 16:13:29.005,3,0.05,-0.79,1.0,2.2224000000000004,-76.14120000000001,-0.44599999999999795,175,75
2026-05-09 16:13:29.019,3,0.12,-0.78,1.07,9.4724,-31.9912,-18.435999999999996,175,75
2026-05-09 16:13:29.029,3,0.39,-0.68,1.26,5.8824000000000005,-32.9712,-26.546,175,75
2026-05-09 16:13:29.040,3,0.36,-0.55,1.15,-6.807600000000001,-58.2712,-18.915999999999997,175,75
2026-05-09 16:13:29.055,3,0.19,-0.41,0.63,-7.047600000000001,-54.1912,-23.555999999999997,175,75
2026-05-09 16:13:29.089,3,0.39,-0.27,0.44,5.212399999999999,-59.0012,-15.325999999999997,175,75
2026-05-09 16:13:29.100,3,0.54,-0.17,0.46,21.4324,-71.6212,-4.525999999999996,175,75
2026-05-09 16:13:29.113,3,0.59,-0.09,0.42,34.9024,-80.53120000000001,8.764,175,75
2026-05-09 16:13:29.136,3,0.42,0.08,0.14,76.85239999999999,-56.8712,21.504,175,75
2026-05-09 16:13:29.150,3,0.39,0.04,0.18,108.9324,-19.8612,31.874000000000006,175,75
2026-05-09 16:13:29.161,3,0.37,-0.11,0.36,141.79240000000001,25.0188,41.87400000000001,175,75
2026-05-09 16:13:29.174,3,0.49,-0.22,0.81,193.8624,70.0188,51.444,175,75
2026-05-09 16:13:29.185,3,0.47,-0.32,0.95,206.2424,82.08879999999999,63.09400000000001,175,75
2026-05-09 16:13:29.206,3,0.27,-0.29,0.95,218.07240000000002,89.3488,72.174,175,75
2026-05-09 16:13:29.206,3,0.07,-0.08,0.93,241.12240000000003,112.02879999999999,70.95400000000001,175,75
2026-05-09 16:13:29.219,3,0.13,0.16,1.13,263.80240000000003,148.7388,82.664,175,75
2026-05-09 16:13:29.235,3,0.29,0.2,1.37,261.30240000000003,125.80879999999999,82.974,175,75
2026-05-09 16:13:29.258,3,0.36,0.4,1.43,227.2824,67.02879999999999,80.104,175,75
2026-05-09 16:13:29.283,3,-0.27,0.26,1.22,196.3024,97.7688,100.284,175,75
2026-05-09 16:13:29.293,3,-0.21,-0.09,1.09,181.3024,70.74879999999999,82.48400000000001,175,75
2026-05-09 16:13:29.303,3,-0.07,-0.35,0.68,136.1824,34.5288,21.144000000000002,175,75
2026-05-09 16:13:29.314,3,0.11,-0.06,0.32,93.32239999999999,64.2888,-24.775999999999996,175,75
2026-05-09 16:13:29.324,3,0.25,0.43,0.08,48.2524,128.7988,-39.715999999999994,175,75
2026-05-09 16:13:29.336,3,0.27,0.7,0.14,-2.8376,154.40879999999999,-40.806,175,75
2026-05-09 16:13:29.348,3,0.2,0.56,0.64,-37.1676,124.46879999999999,-93.43599999999999,175,75
2026-05-09 16:13:29.360,3,0.11,0.44,0.91,-98.9376,101.1188,-143.736,175,75
2026-05-09 16:13:29.374,3,0.27,0.42,1.04,-153.5676,47.9488,-185.07600000000002,175,75
2026-05-09 16:13:29.408,3,-3.32,1.21,1.65,-236.7476,223.8588,-203.856,175,75
2026-05-09 16:13:29.419,3,-6.75,3.23,4.63,-38.327600000000004,708.0688,152.054,175,75
2026-05-09 16:13:29.429,3,-5.93,1.71,10.47,641.3624,263.4388,287.664,175,75
2026-05-09 16:13:29.436,3,-3.39,-2.15,10.22,588.5624,-669.9212,-182.156,175,75
2026-05-09 16:13:29.448,3,6.62,-1.62,5.47,-182.5976,-935.0412,-169.406,175,75
2026-05-09 16:13:29.459,3,0.07,1.48,1.21,-735.4576,-1021.5612,278.214,175,75
2026-05-09 16:13:29.470,3,-4.44,3.74,-1.71,-868.3876,-424.0012,-31.965999999999998,175,75
2026-05-09 16:13:29.522,3,-0.01,-1.46,1.82,272.1624,336.5488,-0.38599999999999923,175,75
2026-05-09 16:13:29.532,3,0.3,-2.38,3.28,187.8324,316.4888,-64.166,175,75
2026-05-09 16:13:29.543,3,0.74,-0.32,3.76,-52.4176,104.2888,-126.606,175,75
2026-05-09 16:13:29.559,3,0.87,0.75,1.57,-110.82759999999999,-192.5412,-41.666,175,75
2026-05-09 16:13:29.569,3,0.59,0.16,0.41,-32.0476,-230.40120000000002,5.834000000000003,175,75
2026-05-09 16:13:29.594,3,0.47,-0.4,-0.57,43.4424,30.808799999999998,-5.075999999999997,175,75
2026-05-09 16:13:29.627,3,0.93,0.1,0.71,133.44240000000002,103.3788,23.514,175,75
2026-05-09 16:13:29.637,3,0.84,-0.17,0.93,175.0224,89.4088,50.834,175,75
2026-05-09 16:13:29.637,3,0.89,-0.33,1.06,203.07240000000002,102.1588,60.65400000000001,175,75
2026-05-09 16:13:29.649,3,0.63,-0.59,1.21,222.7724,102.33879999999999,77.604,175,75
2026-05-09 16:13:29.684,3,-0.27,-1.07,1.05,215.88240000000002,148.9188,105.954,175,75
2026-05-09 16:13:29.684,3,-0.46,-0.82,1.01,210.0224,157.8888,77.84400000000001,175,75
2026-05-09 16:13:29.740,3,-0.57,-0.5,1.36,136.5524,108.0688,37.84400000000001,175,75
2026-05-09 16:13:29.745,3,-0.84,-0.33,1.52,115.7524,106.7888,-6.485999999999997,175,75
2026-05-09 16:13:29.758,3,-0.67,-0.23,1.65,94.35239999999999,83.3788,-20.135999999999996,175,75
2026-05-09 16:13:29.784,3,-0.42,-0.19,0.86,-24.1176,-63.8212,-93.246,175,75
2026-05-09 16:13:29.795,3,-0.3,0.02,0.41,-54.7876,-41.7512,-113.916,175,75
2026-05-09 16:13:29.806,3,-0.19,0.16,0.12,-70.0376,-6.8712,-124.526,175,75
2026-05-09 16:13:29.814,3,-0.12,0.18,0.1,-78.08760000000001,30.0788,-128.796,175,75
2026-05-09 16:13:29.828,3,0.02,-0.02,0.37,-102.7776,52.8288,-145.506,175,75
2026-05-09 16:13:29.840,3,0.18,-0.09,0.6,-125.2776,34.5288,-166.906,175,75
2026-05-09 16:13:29.850,3,0.41,-0.06,0.88,-161.92759999999998,-8.9412,-188.856,175,75
2026-05-09 16:13:29.854,3,0.56,0.06,1.0,-191.7476,-44.0612,-191.906,175,75
2026-05-09 16:13:29.870,3,0.64,0.17,1.03,-232.7776,-94.19120000000001,-186.23600000000002,175,75
2026-05-09 16:13:29.883,3,0.68,0.14,0.88,-271.49760000000003,-127.30120000000001,-182.156,175,75
2026-05-09 16:13:29.899,3,0.68,0.12,0.7,-295.8276,-128.2112,-177.51600000000002,175,75
2026-05-09 16:13:29.922,3,0.75,-0.11,0.5,-336.4976,-57.2312,-178.066,175,75
2026-05-09 16:13:29.922,3,1.0,-0.24,0.41,-342.4776,-35.6512,-179.776,175,75
2026-05-09 16:13:29.948,3,0.86,-0.21,1.01,-314.9776,94.58879999999999,-186.056,175,75
2026-05-09 16:13:29.960,3,-1.27,0.48,1.8,-262.2876,257.21880000000004,-128.066,175,75
2026-05-09 16:13:29.970,3,-3.27,1.16,2.39,-156.1976,569.5287999999999,67.54400000000001,175,75
2026-05-09 16:13:29.993,3,0.02,-1.32,4.6,188.8024,-77.30120000000001,-229.346,175,75
2026-05-09 16:13:30.004,3,-2.15,2.37,5.26,110.3324,358.6188,-17.766,175,75
2026-05-09 16:13:30.021,3,-2.97,2.71,4.96,207.10240000000002,102.02879999999999,107.05400000000002,175,75
2026-05-09 16:13:30.036,3,-0.72,-2.64,0.06,-87.2276,-791.9912,287.844,175,75
2026-05-09 16:13:30.077,3,1.07,-1.2,1.59,289.1124,-266.9312,-174.95600000000002,175,75
2026-05-09 16:13:30.099,3,-0.25,0.53,1.32,-6.557600000000001,17.4588,144.004,175,75
2026-05-09 16:13:30.099,3,-1.0,-0.1,1.36,84.0524,-28.8812,86.56400000000001,175,75
2026-05-09 16:13:30.116,3,-0.7,-0.7,1.57,88.9924,-6.2012,-5.445999999999998,175,75
2026-05-09 16:13:30.151,3,-0.38,-0.22,1.52,1.362400000000001,-47.2312,-3.855999999999998,175,75
2026-05-09 16:13:30.162,3,-0.21,-0.32,1.55,-9.3076,-44.2512,-23.555999999999997,175,75
2026-05-09 16:13:30.173,3,0.11,-0.43,1.51,-22.5376,-73.39120000000001,-34.286,175,75
2026-05-09 16:13:30.185,3,0.14,-0.57,1.17,-32.6576,-85.5912,-29.465999999999998,175,75
2026-05-09 16:13:30.198,3,0.15,-0.71,0.84,-27.287599999999998,-63.2112,-38.676,175,75
2026-05-09 16:13:30.198,3,0.2,-0.67,0.65,-15.4576,-28.8812,-49.465999999999994,175,75
2026-05-09 16:13:30.229,3,0.42,-0.41,0.76,9.412399999999998,21.0588,-53.18599999999999,175,75
2026-05-09 16:13:30.229,3,0.49,-0.34,0.84,11.362400000000001,21.1788,-47.156,175,75
2026-05-09 16:13:30.256,3,0.51,-0.3,0.7,23.6824,12.7688,-36.296,175,75
2026-05-09 16:13:30.266,3,0.61,-0.16,0.58,30.822400000000002,7.4588,-33.006,175,75
2026-05-09 16:13:30.279,3,0.58,-0.01,0.36,42.8924,2.5788,-17.156,175,75
2026-05-09 16:13:30.290,3,0.54,0.08,0.2,64.60239999999999,29.1088,-8.675999999999998,175,75
2026-05-09 16:13:30.303,3,0.61,0.2,0.27,109.41239999999999,67.5188,-0.07599999999999696,175,75
2026-05-09 16:13:30.314,3,0.62,0.14,0.5,159.1724,90.38879999999999,12.974,175,75
2026-05-09 16:13:30.325,3,0.55,0.01,0.73,196.4324,126.84879999999998,28.824,175,75
2026-05-09 16:13:30.336,3,0.46,-0.03,0.97,223.9924,159.8388,42.604,175,75
2026-05-09 16:13:30.383,3,-0.06,0.08,1.37,230.94240000000002,92.21879999999999,134.494,175,75
2026-05-09 16:13:30.397,3,-0.26,-0.01,1.31,216.1224,97.27879999999999,146.564,175,75
2026-05-09 16:13:30.409,3,-0.52,-0.04,1.28,208.6824,87.08879999999999,150.224,175,75
2026-05-09 16:13:30.448,3,-0.12,0.21,0.24,97.16239999999999,85.32879999999999,30.474,175,75
2026-05-09 16:13:30.458,3,-0.08,0.48,0.23,73.5024,122.3988,25.284000000000002,175,75
2026-05-09 16:13:30.469,3,-0.25,0.67,0.23,34.6024,150.6888,1.5040000000000013,175,75
2026-05-09 16:13:30.490,3,-0.02,0.76,0.34,-7.1076,130.0188,-65.076,175,75
2026-05-09 16:13:30.501,3,0.31,0.82,0.57,-66.13759999999999,80.38879999999999,-111.606,175,75
2026-05-09 16:13:30.514,3,0.36,0.78,0.67,-147.5376,-28.5812,-141.786,175,75
2026-05-09 16:13:30.526,3,0.48,0.8,0.64,-219.11759999999998,-67.30120000000001,-177.216,175,75
2026-05-09 16:13:30.563,3,-5.36,2.98,8.59,306.0024,656.5487999999999,334.06399999999996,175,75
2026-05-09 16:13:30.575,3,-2.96,-2.33,11.45,788.8624,-673.9412,-49.775999999999996,175,75
2026-05-09 16:13:30.601,3,3.84,-1.5,4.83,-167.3476,-998.6412,-42.096,175,75
2026-05-09 16:13:30.601,3,0.16,0.87,1.83,-712.1676,-1034.0012,213.094,175,75
2026-05-09 16:13:30.619,3,-0.44,3.74,-3.62,-668.8776,-165.34120000000001,-231.606,175,75
2026-05-09 16:13:30.631,3,1.44,2.67,-3.84,-115.39760000000001,-39.8012,-129.106,175,75
2026-05-09 16:13:30.644,3,0.57,0.65,-1.12,220.63240000000002,418.0088,69.614,175,75
2026-05-09 16:13:30.651,3,-0.02,-0.42,0.37,165.5124,568.7987999999999,-12.705999999999998,175,75
2026-05-09 16:13:30.665,3,-0.19,-0.54,1.58,208.5024,532.1587999999999,-46.726,175,75
2026-05-09 16:13:30.675,3,0.29,-1.1,2.98,243.0124,426.35880000000003,-75.746,175,75
2026-05-09 16:13:30.687,3,0.76,-0.72,4.33,98.32239999999999,188.7988,-95.62599999999999,175,75
2026-05-09 16:13:30.721,3,0.15,0.18,0.02,-34.1776,-219.8012,14.924000000000003,175,75
2026-05-09 16:13:30.732,3,0.55,-0.06,-0.44,80.39240000000001,39.5288,10.954000000000004,175,75
2026-05-09 16:13:30.765,3,0.74,-0.4,0.82,157.4024,142.8288,32.724000000000004,175,75
2026-05-09 16:13:30.767,3,0.97,-0.35,1.07,171.3624,60.0788,53.76400000000001,175,75
2026-05-09 16:13:30.780,3,0.63,-0.38,0.88,153.9324,-22.1712,68.584,175,75
2026-05-09 16:13:30.795,3,0.09,-0.6,0.4,153.9924,37.8888,104.43400000000001,175,75
2026-05-09 16:13:30.795,3,-0.1,-1.0,0.47,179.9024,107.88879999999999,120.224,175,75
2026-05-09 16:13:30.809,3,-0.38,-1.29,0.91,215.94240000000002,162.3988,121.93400000000001,175,75
2026-05-09 16:13:30.821,3,-0.64,-1.15,1.3,212.2824,180.2688,91.62400000000001,175,75
2026-05-09 16:13:30.832,3,-0.61,-0.91,1.43,195.2724,187.0288,68.09400000000001,175,75
2026-05-09 16:13:30.847,3,-0.54,-0.68,1.52,182.10240000000002,190.9388,67.29400000000001,175,75
2026-05-09 16:13:30.857,3,-0.63,-0.34,1.73,141.1224,136.3588,65.71400000000001,175,75
2026-05-09 16:13:30.872,3,-0.6,-0.27,1.69,100.3324,83.1288,41.32400000000001,175,75
2026-05-09 16:13:30.899,3,-0.7,0.09,1.35,23.9324,41.0588,13.334,175,75
2026-05-09 16:13:30.913,3,-0.23,-0.14,1.03,-29.977600000000002,-29.3112,-25.445999999999998,175,75
2026-05-09 16:13:30.928,3,-0.01,0.42,0.57,-96.3776,-0.8912,-103.496,175,75
2026-05-09 16:13:30.939,3,0.34,0.58,0.74,-116.4976,14.2288,-106.29599999999999,175,75
2026-05-09 16:13:30.991,3,0.78,0.45,0.92,-230.8276,-107.17120000000001,-138.676,175,75
2026-05-09 16:13:31.005,3,0.55,0.43,0.42,-264.5476,-56.2612,-132.216,175,75
2026-05-09 16:13:31.029,3,0.78,0.25,0.51,-261.3176,-8.3312,-147.096,175,75
2026-05-09 16:13:31.063,3,0.94,0.12,0.95,-242.2876,75.93879999999999,-169.95600000000002,175,75
2026-05-09 16:13:31.097,3,-1.83,1.28,4.26,146.7324,356.78880000000004,197.364,175,75
2026-05-09 16:13:31.109,3,-3.42,-0.14,5.02,390.1524,-23.4512,-69.106,175,75
2026-05-09 16:13:31.119,3,-4.97,2.17,6.05,330.8824,396.78880000000004,167.724,175,75
2026-05-09 16:13:31.145,3,6.98,-0.74,3.84,76.4924,-410.1012,-16.906,175,75
2026-05-09 16:13:31.145,3,-0.45,0.65,0.8,-197.1076,-929.0612,296.384,175,75
2026-05-09 16:13:31.190,3,-0.19,-1.27,1.43,290.7524,77.94879999999999,26.324,175,75
2026-05-09 16:13:31.190,3,0.19,-1.39,2.36,149.7824,253.5588,111.08400000000002,175,75
2026-05-09 16:13:31.201,3,0.38,-0.92,3.18,118.5024,132.8288,92.724,175,75
2026-05-09 16:13:31.212,3,-0.26,-0.6,2.08,14.3524,-74.1212,35.534000000000006,175,75
2026-05-09 16:13:31.226,3,-0.07,-0.17,1.66,0.0823999999999998,-158.2712,87.114,175,75
2026-05-09 16:13:31.239,3,-0.7,-0.2,0.95,1.3023999999999987,-108.39120000000001,92.174,175,75
2026-05-09 16:13:31.252,3,-0.51,-0.12,0.92,46.8524,-18.1512,33.09400000000001,175,75
2026-05-09 16:13:31.266,3,-0.36,0.12,1.47,63.1324,30.808799999999998,-1.7859999999999978,175,75
2026-05-09 16:13:31.278,3,-0.15,0.44,1.84,40.3324,24.0488,3.704000000000004,175,75
2026-05-09 16:13:31.294,3,-0.41,0.64,1.81,8.932400000000001,-22.3612,13.764,175,75
2026-05-09 16:13:31.294,3,-0.71,0.68,1.59,-11.9876,-47.4812,4.374000000000002,175,75
2026-05-09 16:13:31.309,3,-0.65,0.51,1.43,-24.1176,-59.6712,-11.725999999999997,175,75
2026-05-09 16:13:31.320,3,-0.57,0.33,1.41,-34.0576,-59.9212,-14.955999999999998,175,75
2026-05-09 16:13:31.327,3,-0.41,0.04,1.45,-40.217600000000004,-69.86120000000001,-24.525999999999996,175,75
2026-05-09 16:13:31.339,3,-0.22,-0.3,1.38,-45.7076,-82.36120000000001,-30.505999999999997,175,75
2026-05-09 16:13:31.347,3,-0.1,-0.54,1.28,-46.3776,-84.86120000000001,-37.635999999999996,175,75
2026-05-09 16:13:31.403,3,0.47,-0.97,0.84,-27.047600000000003,-65.5312,-48.855999999999995,175,75
2026-05-09 16:13:31.417,3,0.71,-1.02,0.75,-6.137600000000001,-29.1912,-47.705999999999996,175,75
2026-05-09 16:13:31.428,3,0.73,-0.74,0.57,-3.9375999999999998,-28.0312,-55.135999999999996,175,75
2026-05-09 16:13:31.439,3,0.56,0.15,-0.07,14.962399999999999,13.248800000000001,-45.266,175,75
2026-05-09 16:13:31.450,3,0.5,0.21,-0.02,60.0224,69.77879999999999,-14.465999999999998,175,75
2026-05-09 16:13:31.450,3,0.45,0.09,0.37,93.6824,111.96879999999999,12.664000000000005,175,75
2026-05-09 16:13:31.469,3,0.4,0.01,1.43,155.4524,142.6388,67.784,175,75
2026-05-09 16:13:31.515,3,0.04,-0.17,1.48,181.3024,87.69879999999999,119.794,175,75
2026-05-09 16:13:31.525,3,-0.01,-0.06,1.56,190.0224,104.52879999999999,136.934,175,75
2026-05-09 16:13:31.532,3,-0.04,-0.05,1.79,175.57240000000002,80.2688,153.70399999999998,175,75
2026-05-09 16:13:31.543,3,-0.12,-0.12,1.79,153.38240000000002,45.9388,153.394,175,75
2026-05-09 16:13:31.543,3,-0.2,-0.05,1.69,132.10240000000002,13.248800000000001,137.17399999999998,175,75
2026-05-09 16:13:31.548,3,-0.64,0.26,1.5,122.04240000000001,33.9888,132.54399999999998,175,75
2026-05-09 16:13:31.564,3,-0.13,0.12,1.35,102.2224,-13.5112,114.67399999999999,175,75
2026-05-09 16:13:31.575,3,-0.05,0.11,1.08,69.9024,-61.6912,76.62400000000001,175,75
2026-05-09 16:13:31.608,3,0.2,0.78,0.45,-9.787600000000001,-49.3112,33.334,175,75
2026-05-09 16:13:31.608,3,0.38,1.07,0.34,-37.3476,-46.0112,12.844000000000005,175,75
2026-05-09 16:13:31.629,3,0.42,1.25,0.28,-95.82759999999999,-21.6912,-19.406,175,75
2026-05-09 16:13:31.639,3,0.43,1.08,0.25,-136.9876,-1.5612,-59.04599999999999,175,75
2026-05-09 16:13:31.663,3,0.56,0.56,0.52,-237.5976,-64.0612,-196.056,175,75
2026-05-09 16:13:31.663,3,0.7,0.62,0.74,-272.2876,-69.1212,-208.616,175,75
2026-05-09 16:13:31.684,3,0.26,0.48,0.9,-303.3276,-94.19120000000001,-210.876,175,75
2026-05-09 16:13:31.734,3,-0.93,-3.26,6.07,300.3924,-1292.0512,-453.736,175,75
2026-05-09 16:13:31.754,3,-3.66,4.12,-1.92,-1080.8276,-15.1012,-118.67599999999999,175,75
2026-05-09 16:13:31.765,3,2.33,3.15,-2.59,-357.8376,231.1788,-196.786,175,75
2026-05-09 16:13:31.799,3,-1.07,-0.86,-0.09,209.1124,358.1888,60.774,175,75
2026-05-09 16:13:31.819,3,-0.33,-1.26,4.43,129.54240000000001,88.0688,-156.416,175,75
2026-05-09 16:13:31.831,3,2.72,-0.06,3.39,-116.3776,-203.7612,-187.336,175,75
2026-05-09 16:13:31.843,3,0.64,0.8,1.2,-179.11759999999998,-406.4412,90.224,175,75
2026-05-09 16:13:31.854,3,-0.18,-0.06,-0.46,-162.6576,-280.83119999999997,29.794,175,75
2026-05-09 16:13:31.864,3,0.66,0.0,-1.52,92.2824,38.0688,27.844000000000005,175,75
2026-05-09 16:13:31.886,3,0.71,-0.18,-0.25,170.94240000000002,211.2388,53.584,175,75
2026-05-09 16:13:31.892,3,0.78,-0.19,0.94,205.94240000000002,191.90879999999999,58.82400000000001,175,75
2026-05-09 16:13:31.904,3,0.67,-0.18,1.41,198.6824,119.71879999999999,74.864,175,75
2026-05-09 16:13:31.919,3,0.39,-0.16,1.23,182.3424,83.6788,94.924,175,75
2026-05-09 16:13:31.923,3,0.19,-0.18,0.95,186.3024,95.80879999999999,112.17399999999999,175,75
2026-05-09 16:13:31.937,3,-0.06,-0.31,0.95,199.35240000000002,130.9988,137.974,175,75
2026-05-09 16:13:31.946,3,-0.19,-0.75,1.15,192.4024,140.8088,155.534,175,75
2026-05-09 16:13:31.978,3,-0.73,-0.49,1.16,150.5124,125.68879999999999,46.56400000000001,175,75
2026-05-09 16:13:32.003,3,-0.7,-0.18,1.25,146.3624,141.84879999999998,34.554,175,75
2026-05-09 16:13:32.003,3,-0.71,0.07,1.41,134.60240000000002,144.65879999999999,41.32400000000001,175,75
2026-05-09 16:13:32.016,3,-0.88,0.23,1.62,112.8324,120.0188,32.364000000000004,175,75
2026-05-09 16:13:32.030,3,-0.89,0.21,1.69,96.1224,89.46879999999999,10.044,175,75
2026-05-09 16:13:32.030,3,-0.69,0.28,1.61,57.2824,47.8288,-14.045999999999998,175,75
2026-05-09 16:13:32.045,3,-0.16,0.19,1.31,0.9423999999999992,-17.3612,-46.726,175,75
2026-05-09 16:13:32.069,3,0.12,0.59,0.38,-89.8476,36.9088,-118.18599999999999,175,75
2026-05-09 16:13:32.101,3,0.42,0.37,1.26,-143.3876,-13.3912,-157.76600000000002,175,75
2026-05-09 16:13:32.124,3,0.76,0.6,1.09,-236.80759999999998,-72.42120000000001,-176.116,175,75
2026-05-09 16:13:32.136,3,0.95,0.63,0.97,-257.1676,-94.7312,-149.166,175,75
2026-05-09 16:13:32.136,3,0.67,0.36,0.77,-263.99760000000003,-121.81120000000001,-129.836,175,75
2026-05-09 16:13:32.172,3,0.8,-0.53,1.01,-259.4276,10.9388,-156.906,175,75
2026-05-09 16:13:32.234,3,2.29,0.25,5.05,231.85240000000002,-48.0912,79.43400000000001,175,75
2026-05-09 16:13:32.234,3,4.18,-0.61,2.79,-20.2176,-578.4512000000001,42.054,175,75
2026-05-09 16:13:32.245,3,-3.5,0.91,-0.44,-220.39759999999998,-438.9412,212.664,175,75
2026-05-09 16:13:32.256,3,-1.71,0.82,-1.35,-120.1576,191.3588,124.43400000000001,175,75
2026-05-09 16:13:32.267,3,0.08,-0.84,-0.3,168.6224,-176.0812,19.674000000000003,175,75
2026-05-09 16:13:32.281,3,-1.1,-1.01,0.36,143.5024,85.5688,59.92400000000001,175,75
2026-05-09 16:13:32.334,3,0.06,-0.1,1.78,18.6824,-73.7612,46.144000000000005,175,75
2026-05-09 16:13:32.344,3,-0.75,-0.18,1.04,12.9524,-54.3112,46.93400000000001,175,75
2026-05-09 16:13:32.355,3,-0.32,-0.22,1.57,31.1224,17.3388,-12.945999999999998,175,75
2026-05-09 16:13:32.379,3,-0.32,-0.09,1.74,1.912399999999998,-29.121199999999998,-10.205999999999998,175,75
2026-05-09 16:13:32.397,3,-0.37,-0.14,1.54,-18.6976,-56.3212,-23.615999999999996,175,75
2026-05-09 16:13:32.407,3,-0.22,-0.29,1.32,-26.677599999999998,-66.3212,-32.705999999999996,175,75
2026-05-09 16:13:32.418,3,-0.26,-0.35,1.19,-29.2476,-54.8612,-31.785999999999998,175,75
2026-05-09 16:13:32.418,3,-0.18,-0.41,1.16,-24.4876,-41.9312,-41.29599999999999,175,75
2026-05-09 16:13:32.442,3,-0.05,-0.4,1.18,-25.2176,-39.1212,-51.486,175,75
2026-05-09 16:13:32.455,3,0.17,-0.41,1.11,-31.7476,-35.5312,-48.43599999999999,175,75
2026-05-09 16:13:32.465,3,0.29,-0.53,1.08,-29.547600000000003,-30.2812,-47.82599999999999,175,75
2026-05-09 16:13:32.468,3,0.5,-0.55,1.07,-26.8076,-25.5312,-53.43599999999999,175,75
2026-05-09 16:13:32.501,3,0.78,-0.19,0.56,-24.3676,-55.6512,-26.485999999999997,175,75
2026-05-09 16:13:32.530,3,0.65,-0.07,0.33,-5.3376,-34.5512,-12.215999999999998,175,75
2026-05-09 16:13:32.548,3,0.64,-0.06,0.24,22.5824,-22.3012,2.1140000000000008,175,75
2026-05-09 16:13:32.566,3,0.41,0.06,0.22,58.562400000000004,16.4888,14.864,175,75
2026-05-09 16:13:32.580,3,0.39,0.18,0.38,97.5824,62.3988,26.384000000000004,175,75
2026-05-09 16:13:32.593,3,0.26,-0.02,1.01,182.4624,126.6088,70.104,175,75
2026-05-09 16:13:32.605,3,0.04,-0.08,1.38,229.60240000000002,155.0188,95.834,175,75
2026-05-09 16:13:32.605,3,-0.08,0.01,1.59,244.5424,156.0588,111.264,175,75
2026-05-09 16:13:32.629,3,0.15,0.19,1.86,234.41240000000002,106.7888,129.194,175,75
2026-05-09 16:13:32.655,3,-0.26,0.25,1.67,164.0524,3.7388000000000003,154.374,175,75
2026-05-09 16:13:32.668,3,-0.23,-0.05,0.91,116.3024,-52.2312,70.59400000000001,175,75
2026-05-09 16:13:32.690,3,-0.06,0.17,0.57,88.9924,-28.3312,31.014,175,75
2026-05-09 16:13:32.695,3,-0.02,0.61,0.47,64.9024,4.2888,8.644000000000002,175,75
2026-05-09 16:13:32.708,3,0.18,0.99,0.52,25.0824,30.568800000000003,-19.105999999999998,175,75
2026-05-09 16:13:32.730,3,0.43,1.17,0.33,-54.0576,31.788800000000002,-69.346,175,75
2026-05-09 16:13:32.741,3,0.46,0.99,0.49,-80.39760000000001,-4.1212,-112.51599999999999,175,75
2026-05-09 16:13:32.751,3,0.71,0.72,0.7,-115.9476,-54.2512,-177.39600000000002,175,75
2026-05-09 16:13:32.763,3,0.69,0.85,0.74,-188.8776,-79.4312,-226.846,175,75
2026-05-09 16:13:32.774,3,0.09,1.06,0.61,-234.17759999999998,-60.1012,-232.51600000000002,175,75
2026-05-09 16:13:32.784,3,-0.12,0.94,0.54,-269.9776,-40.041199999999996,-250.32600000000002,175,75
2026-05-09 16:13:32.794,3,-2.85,1.67,1.81,-206.1376,291.2388,-261.666,175,75
2026-05-09 16:13:32.805,3,-6.27,2.74,3.21,-103.8176,717.9488,-33.796,175,75
2026-05-09 16:13:32.805,3,-3.91,1.32,9.15,482.5224,500.1988,283.764,175,75
2026-05-09 16:13:32.826,3,-2.13,-3.4,8.35,566.1824,-930.9512000000001,-238.006,175,75
2026-05-09 16:13:32.854,3,-1.0,1.17,1.0,-823.0876,-714.6712,190.894,175,75
2026-05-09 16:13:32.887,3,0.39,0.4,-1.0,177.9524,171.90879999999999,126.204,175,75
2026-05-09 16:13:32.887,3,-0.17,-1.47,0.26,188.6824,322.6988,4.674000000000003,175,75
2026-05-09 16:13:32.899,3,-0.28,-1.84,1.66,173.5024,390.8088,-50.205999999999996,175,75
2026-05-09 16:13:32.910,3,0.69,-1.36,3.13,124.54240000000001,329.16880000000003,-132.456,175,75
2026-05-09 16:13:32.921,3,1.79,-0.51,3.4,-36.6776,72.69879999999999,-91.666,175,75
2026-05-09 16:13:32.948,3,0.77,-0.11,0.08,18.742399999999996,-76.0112,15.284000000000002,175,75
2026-05-09 16:13:32.958,3,0.58,-0.35,-0.23,50.6324,10.1988,15.474,175,75
2026-05-09 16:13:32.970,3,0.5,-0.43,-0.17,109.11240000000001,123.85879999999999,11.504000000000001,175,75
2026-05-09 16:13:32.997,3,0.63,-0.09,0.81,185.2124,166.78879999999998,32.604,175,75
2026-05-09 16:13:33.009,3,0.42,-0.0,0.92,194.9024,161.4888,61.32400000000001,175,75
2026-05-09 16:13:33.035,3,-0.01,-0.58,1.33,214.7824,164.9588,90.04400000000001,175,75
2026-05-09 16:13:33.049,3,-0.43,-0.9,1.28,168.9924,110.44879999999999,61.32400000000001,175,75
2026-05-09 16:13:33.059,3,-0.56,-0.69,1.06,152.5224,110.32879999999999,35.34400000000001,175,75
2026-05-09 16:13:33.072,3,-0.54,-0.47,1.02,147.2824,110.6288,14.374000000000006,175,75
2026-05-09 16:13:33.087,3,-0.49,-0.16,1.1,132.2824,115.0188,-3.735999999999997,175,75
2026-05-09 16:13:33.100,3,-0.5,-0.03,1.19,107.6524,122.4588,-5.625999999999998,175,75
2026-05-09 16:13:33.112,3,-0.74,-0.06,1.12,75.51240000000001,113.49879999999999,-35.806,175,75
2026-05-09 16:13:33.171,3,-0.01,0.59,0.84,-73.38759999999999,53.6188,-168.616,175,75
2026-05-09 16:13:33.185,3,0.07,0.6,0.9,-101.3776,32.9488,-173.186,175,75
2026-05-09 16:13:33.220,3,0.45,0.53,0.95,-196.55759999999998,-33.2712,-196.23600000000002,175,75
2026-05-09 16:13:33.230,3,0.51,0.48,0.9,-225.33759999999998,-75.1012,-196.356,175,75
2026-05-09 16:13:33.242,3,0.36,0.38,0.66,-259.4876,-77.78120000000001,-193.436,175,75
2026-05-09 16:13:33.254,3,0.36,0.18,0.47,-281.7476,-22.4212,-179.776,175,75
2026-05-09 16:13:33.264,3,0.38,-0.27,0.56,-288.2076,7.158799999999999,-171.786,175,75
2026-05-09 16:13:33.274,3,0.07,-0.5,0.58,-272.6576,72.4588,-149.286,175,75
2026-05-09 16:13:33.286,3,-0.71,0.11,1.16,-208.3276,127.8288,-112.946,175,75
2026-05-09 16:13:33.296,3,-1.59,0.46,2.45,-84.7876,260.8788,-85.62599999999999,175,75
2026-05-09 16:13:33.296,3,-1.08,0.43,3.48,27.342399999999998,332.15880000000004,-84.526,175,75
2026-05-09 16:13:33.309,3,-1.46,1.57,4.63,104.0524,230.4488,-38.796,175,75
2026-05-09 16:13:33.330,3,-2.58,2.63,5.35,193.32240000000002,193.6788,130.344,175,75
2026-05-09 16:13:33.330,3,2.82,-0.38,4.54,203.6224,-160.8312,3.764000000000003,175,75
2026-05-09 16:13:33.342,3,2.64,-0.98,1.59,-107.04759999999999,-629.6112,82.974,175,75
2026-05-09 16:13:33.366,3,-0.25,-0.06,-1.07,-87.5976,188.12879999999998,79.004,175,75
2026-05-09 16:13:33.380,3,-0.33,-1.14,-0.07,175.69240000000002,-213.7612,-41.605999999999995,175,75
2026-05-09 16:13:33.390,3,-0.87,-1.04,0.33,140.94240000000002,96.7888,-52.766,175,75
2026-05-09 16:13:33.421,3,0.19,-1.0,1.78,31.0024,2.8888,21.934,175,75
2026-05-09 16:13:33.450,3,0.14,-0.66,1.04,19.5424,-8.3312,1.3240000000000016,175,75
2026-05-09 16:13:33.474,3,-0.03,-0.6,1.26,20.392400000000002,19.8988,-11.175999999999998,175,75
2026-05-09 16:13:33.486,3,-0.03,-0.41,1.25,12.712399999999999,12.8888,-21.785999999999998,175,75
2026-05-09 16:13:33.497,3,-0.02,-0.27,1.19,5.942399999999999,9.5988,-25.386,175,75
2026-05-09 16:13:33.497,3,0.04,-0.24,1.09,4.292400000000001,12.4588,-29.656,175,75
2026-05-09 16:13:33.525,3,0.18,-0.25,0.83,8.3824,43.6788,-40.205999999999996,175,75
2026-05-09 16:13:33.545,3,0.26,-0.27,0.84,12.282399999999999,62.2188,-41.666,175,75
2026-05-09 16:13:33.545,3,0.34,-0.26,0.83,19.172400000000003,64.16879999999999,-40.686,175,75
2026-05-09 16:13:33.563,3,0.44,-0.2,0.76,25.882399999999997,59.5888,-35.565999999999995,175,75
2026-05-09 16:13:33.584,3,0.47,-0.16,0.61,36.8524,51.1188,-27.275999999999996,175,75
2026-05-09 16:13:33.584,3,0.51,-0.17,0.48,54.6624,70.19879999999999,-19.595999999999997,175,75
2026-05-09 16:13:33.596,3,0.57,-0.21,0.46,72.7724,83.7988,-14.285999999999998,175,75
2026-05-09 16:13:33.608,3,0.59,-0.19,0.53,98.6824,106.2988,-13.065999999999997,175,75
2026-05-09 16:13:33.619,3,0.68,-0.16,0.59,122.10240000000002,124.83879999999999,-11.845999999999998,175,75
2026-05-09 16:13:33.622,3,0.65,-0.14,0.66,158.0124,160.1388,-4.655999999999999,175,75
2026-05-09 16:13:33.634,3,0.54,-0.2,0.8,192.7124,203.6788,4.674000000000003,175,75
2026-05-09 16:13:33.649,3,0.33,-0.21,0.92,225.94240000000002,230.3888,13.884000000000004,175,75
2026-05-09 16:13:33.661,3,0.12,-0.13,1.06,258.3224,257.8288,14.734000000000005,175,75
2026-05-09 16:13:33.672,3,-0.23,0.37,1.75,312.8924,320.1988,37.294,175,75
2026-05-09 16:13:33.689,3,-0.24,0.35,2.0,318.3224,268.6788,47.974000000000004,175,75
2026-05-09 16:13:33.702,3,-0.38,0.27,1.95,276.55240000000003,225.1388,71.144,175,75
2026-05-09 16:13:33.746,3,-0.38,0.7,1.16,164.29240000000001,45.0188,71.87400000000001,175,75
2026-05-09 16:13:33.756,3,-0.39,0.65,0.91,133.13240000000002,16.7288,64.31400000000001,175,75
2026-05-09 16:13:33.800,3,0.17,0.76,0.09,-2.3476,-119.55120000000001,-21.546,175,75
2026-05-09 16:13:33.814,3,-0.02,1.05,-0.01,-85.58760000000001,-99.80120000000001,-115.62599999999999,175,75
2026-05-09 16:13:33.827,3,0.29,1.2,0.19,-129.2476,-96.44120000000001,-157.57600000000002,175,75
2026-05-09 16:13:33.841,3,-0.19,1.52,0.71,-169.30759999999998,-26.2012,-166.786,175,75
2026-05-09 16:13:33.853,3,-3.15,2.35,1.76,-121.67760000000001,309.59880000000004,-67.026,175,75
2026-05-09 16:13:33.853,3,-2.66,2.32,2.86,-42.227599999999995,370.3288,-3.735999999999997,175,75
2026-05-09 16:13:33.882,3,-1.03,-1.89,6.48,132.5824,-301.2012,-50.806,175,75
2026-05-09 16:13:33.893,3,2.29,-0.88,3.19,-394.1176,-638.6412,-99.716,175,75
2026-05-09 16:13:33.916,3,-2.09,1.04,0.06,-516.6176,-565.4712000000001,39.004000000000005,175,75
2026-05-09 16:13:33.939,3,0.52,-1.11,-0.83,-27.8976,129.5288,-45.806,175,75
2026-05-09 16:13:33.958,3,0.55,-0.53,0.47,-9.2476,367.15880000000004,-95.87599999999999,175,75
2026-05-09 16:13:33.968,3,0.83,-0.73,1.35,59.6624,249.65879999999999,-75.87599999999999,175,75
2026-05-09 16:13:34.000,3,0.37,-0.21,1.7,-62.1076,9.6588,-78.916,175,75
2026-05-09 16:13:34.004,3,0.42,0.04,1.2,-58.4476,-81.6212,-50.385999999999996,175,75
2026-05-09 16:13:34.011,3,0.28,0.14,0.56,-51.8076,-82.8412,-28.735999999999997,175,75
2026-05-09 16:13:34.025,3,0.23,0.17,0.07,-27.287599999999998,-7.0512,-24.895999999999997,175,75
2026-05-09 16:13:34.041,3,0.24,0.19,0.08,19.352400000000003,82.1588,-13.375999999999998,175,75
2026-05-09 16:13:34.051,3,0.41,0.06,0.54,70.0824,134.5288,1.144000000000002,175,75
2026-05-09 16:13:34.051,3,0.58,-0.06,0.83,92.5824,140.87879999999998,10.834,175,75
2026-05-09 16:13:34.072,3,0.62,0.0,1.11,114.35240000000002,134.34879999999998,25.714000000000002,175,75
2026-05-09 16:13:34.102,3,0.56,0.14,1.18,131.9724,110.2688,62.90400000000001,175,75
2026-05-09 16:13:34.102,3,0.54,0.06,1.15,131.6124,102.02879999999999,76.144,175,75
2026-05-09 16:13:34.113,3,0.49,-0.08,1.12,135.63240000000002,82.3988,83.394,175,75
2026-05-09 16:13:34.124,3,0.26,-0.15,1.08,146.4924,83.91879999999999,88.51400000000001,175,75
2026-05-09 16:13:34.141,3,0.14,-0.31,1.08,150.0224,106.41879999999999,91.56400000000001,175,75
2026-05-09 16:13:34.152,3,-0.07,-0.42,1.12,155.7524,115.13879999999999,87.664,175,75
2026-05-09 16:13:34.162,3,-0.31,-0.43,1.11,158.32240000000002,123.3788,74.194,175,75
2026-05-09 16:13:34.187,3,-0.52,-0.33,1.06,163.38240000000002,147.5788,58.394000000000005,175,75
2026-05-09 16:13:34.202,3,-0.65,-0.08,1.21,150.0224,168.9888,16.014,175,75
2026-05-09 16:13:34.203,3,-0.6,0.23,1.17,126.9724,152.2188,-3.0059999999999967,175,75
2026-05-09 16:13:34.213,3,-0.58,0.37,1.09,112.89240000000001,144.7188,-2.575999999999997,175,75
2026-05-09 16:13:34.227,3,-0.67,0.46,1.02,102.10239999999999,143.00879999999998,-2.5159999999999982,175,75
2026-05-09 16:13:34.240,3,-0.87,0.57,1.01,89.9624,153.9188,-15.805999999999997,175,75
2026-05-09 16:13:34.252,3,-0.91,0.61,1.06,77.2224,153.8588,-31.726,175,75
2026-05-09 16:13:34.273,3,-0.65,0.7,1.14,26.5524,98.0088,-71.726,175,75
2026-05-09 16:13:34.284,3,-0.57,0.75,1.24,5.452400000000001,82.33879999999999,-80.136,175,75
2026-05-09 16:13:34.302,3,-0.39,0.76,1.54,-29.177599999999998,13.248800000000001,-90.87599999999999,175,75
2026-05-09 16:13:34.313,3,-0.19,0.72,1.64,-53.8776,-26.621199999999998,-100.136,175,75
2026-05-09 16:13:34.327,3,0.03,0.73,1.63,-73.0276,-74.25120000000001,-98.556,175,75
2026-05-09 16:13:34.350,3,0.38,0.7,1.44,-97.3476,-69.67120000000001,-97.70599999999999,175,75
2026-05-09 16:13:34.365,3,0.59,0.61,1.32,-102.7176,-68.5112,-92.576,175,75
2026-05-09 16:13:34.376,3,0.65,0.47,1.17,-114.9776,-73.64120000000001,-95.746,175,75
2026-05-09 16:13:34.388,3,0.81,0.44,1.06,-132.7176,-54.8012,-103.73599999999999,175,75
2026-05-09 16:13:34.388,3,0.14,0.94,1.43,-113.8176,18.9188,-94.526,175,75
2026-05-09 16:13:34.413,3,-0.35,1.32,1.94,-69.36760000000001,124.10879999999999,-52.705999999999996,175,75
2026-05-09 16:13:34.430,3,2.57,-1.25,2.74,54.602399999999996,-279.4912,3.1540000000000035,175,75
2026-05-09 16:13:34.444,3,1.11,-0.93,0.37,-209.8476,-446.14119999999997,-8.795999999999998,175,75
2026-05-09 16:13:34.457,3,-1.71,0.66,-0.86,-153.8176,200.0188,122.784,175,75
2026-05-09 16:13:34.468,3,1.02,-0.55,0.54,49.1124,82.94879999999999,23.514,175,75
2026-05-09 16:13:34.479,3,0.47,-1.31,1.24,49.542399999999994,-59.8612,31.814000000000004,175,75
2026-05-09 16:13:34.479,3,0.01,-0.58,1.0,-55.7076,21.1188,56.01400000000001,175,75
2026-05-09 16:13:34.540,3,-0.38,-0.55,1.29,2.522400000000001,85.32879999999999,49.43400000000001,175,75
2026-05-09 16:13:34.573,3,-0.62,-1.02,1.33,-36.9876,29.8388,28.944,175,75
2026-05-09 16:13:34.590,3,-0.09,-1.05,1.44,-42.4176,-0.10119999999999996,-16.176,175,75
2026-05-09 16:13:34.611,3,0.13,-0.88,1.53,-47.107600000000005,-22.3012,-15.015999999999998,175,75
2026-05-09 16:13:34.611,3,0.26,-0.86,1.54,-56.3776,-35.5312,-13.615999999999998,175,75
2026-05-09 16:13:34.632,3,0.44,-0.86,1.49,-68.6976,-60.041199999999996,-11.905999999999997,175,75
2026-05-09 16:13:34.632,3,0.57,-0.85,1.39,-74.60759999999999,-82.66120000000001,-12.635999999999997,175,75
2026-05-09 16:13:34.647,3,0.77,-0.82,1.24,-77.10759999999999,-101.56120000000001,-20.505999999999997,175,75
2026-05-09 16:13:34.658,3,1.12,-0.77,1.12,-67.6576,-109.00120000000001,-34.715999999999994,175,75
2026-05-09 16:13:34.676,3,1.53,-0.66,1.1,-44.727599999999995,-114.19120000000001,-42.766,175,75
2026-05-09 16:13:34.683,3,1.61,-0.4,0.88,-9.3076,-87.72120000000001,-66.236,175,75
2026-05-09 16:13:34.694,3,1.2,0.09,0.55,12.892399999999999,-53.3912,-59.40599999999999,175,75
2026-05-09 16:13:34.724,3,0.62,-0.36,0.73,174.66240000000002,248.12879999999998,-7.765999999999998,175,75
2026-05-09 16:13:34.736,3,0.27,-0.23,0.91,177.7724,269.46880000000004,14.924000000000003,175,75
2026-05-09 16:13:34.753,3,-0.12,-0.06,1.2,201.3624,303.7988,39.92400000000001,175,75
2026-05-09 16:13:34.763,3,-0.17,-0.03,1.91,249.2924,279.46880000000004,77.29400000000001,175,75
2026-05-09 16:13:34.804,3,0.92,-0.12,2.97,165.57240000000002,-207.90120000000002,74.864,175,75
2026-05-09 16:13:34.804,3,0.73,-0.03,2.11,122.4024,-288.15119999999996,62.29400000000001,175,75
2026-05-09 16:13:34.837,3,0.93,0.07,1.02,170.2724,-168.0312,-12.215999999999998,175,75
2026-05-09 16:13:34.847,3,0.9,0.04,1.1,165.88240000000002,-169.0612,-33.306,175,75
2026-05-09 16:13:34.860,3,0.5,0.12,0.92,146.6124,-128.6412,-63.556,175,75
2026-05-09 16:13:34.870,3,0.35,0.22,0.79,132.3424,-77.42120000000001,-91.54599999999999,175,75
2026-05-09 16:13:34.894,3,0.05,0.15,1.11,81.1224,-43.5112,-144.956,175,75
2026-05-09 16:13:34.940,3,-0.35,0.94,0.43,-114.6676,-215.59120000000001,-222.886,175,75
2026-05-09 16:13:34.951,3,-0.28,0.8,0.57,-150.2776,-199.7312,-205.806,175,75
2026-05-09 16:13:34.958,3,-0.5,0.45,0.74,-170.70759999999999,-243.5112,-220.20600000000002,175,75
2026-05-09 16:13:34.970,3,-1.18,0.47,0.44,-197.1076,-184.0612,-208.856,175,75
2026-05-09 16:13:34.991,3,-2.03,0.53,0.01,-251.1976,-9.4312,-206.116,175,75
2026-05-09 16:13:35.002,3,-9.3,3.32,3.64,-58.0276,981.8488,54.43400000000001,175,75
2026-05-09 16:13:35.012,3,-5.1,0.98,7.95,575.7524,1151.1788,604.864,175,75
2026-05-09 16:13:35.012,3,1.62,-4.27,5.82,850.2724000000001,-590.5312,-305.806,175,75
2026-05-09 16:13:35.033,3,3.57,-3.67,-0.03,6.2424,-943.2712,-278.856,175,75
2026-05-09 16:13:35.044,3,-5.64,2.84,1.01,-705.6476,467.8888,227.48399999999998,175,75
2026-05-09 16:13:35.054,3,2.25,0.8,1.26,-437.2276,288.7388,-16.546,175,75
2026-05-09 16:13:35.065,3,2.35,-3.98,0.18,-35.0376,-563.6412,98.944,175,75
2026-05-09 16:13:35.065,3,-0.76,-3.62,0.55,98.5624,-270.65119999999996,330.594,175,75
2026-05-09 16:13:35.074,3,-1.12,-2.43,0.79,-119.54759999999999,78.7988,93.82400000000001,175,75
2026-05-09 16:13:35.098,3,0.87,-1.4,0.74,-108.5076,-31.2612,-162.45600000000002,175,75
2026-05-09 16:13:35.115,3,0.97,-0.11,0.08,-50.0376,79.0488,94.43400000000001,175,75
2026-05-09 16:13:35.115,3,0.38,-0.59,0.13,-1.0076,142.8888,29.794,175,75
2026-05-09 16:13:35.172,3,1.07,-0.29,1.35,150.63240000000002,241.78879999999998,-32.766,175,75
2026-05-09 16:13:35.172,3,1.17,-0.3,1.26,173.9924,254.5988,-26.845999999999997,175,75
2026-05-09 16:13:35.198,3,1.08,-0.27,1.08,223.9324,304.9588,-49.896,175,75
2026-05-09 16:13:35.210,3,0.96,0.02,1.13,249.11239999999998,351.5488,-57.275999999999996,175,75
2026-05-09 16:13:35.224,3,0.94,0.24,1.49,272.1624,398.4388,-53.495999999999995,175,75
2026-05-09 16:13:35.249,3,1.12,0.6,2.52,204.54240000000001,105.68879999999999,-27.825999999999997,175,75
2026-05-09 16:13:35.270,3,0.87,0.64,2.48,218.0124,63.18879999999999,-13.245999999999997,175,75
2026-05-09 16:13:35.281,3,1.65,0.03,2.72,200.88240000000002,-83.94120000000001,-11.175999999999998,175,75
2026-05-09 16:13:35.290,3,1.26,-0.18,2.3,164.9624,-183.9412,-21.785999999999998,175,75
2026-05-09 16:13:35.313,3,0.65,-0.2,1.33,130.1524,-200.34120000000001,-91.78599999999999,175,75
2026-05-09 16:13:35.324,3,0.47,-0.28,1.12,107.6524,-179.8612,-122.576,175,75
2026-05-09 16:13:35.340,3,0.27,-0.26,0.96,90.39240000000001,-156.62120000000002,-138.676,175,75
2026-05-09 16:13:35.352,3,0.03,-0.23,0.7,61.5524,-106.75120000000001,-161.666,175,75
2026-05-09 16:13:35.376,3,-0.43,0.08,0.6,27.102400000000003,8.0688,-220.806,175,75
2026-05-09 16:13:35.387,3,-0.64,0.23,0.49,5.942399999999999,49.0488,-233.73600000000002,175,75
2026-05-09 16:13:35.400,3,-0.77,0.44,0.48,-3.6975999999999996,76.41879999999999,-258.736,175,75
2026-05-09 16:13:35.400,3,-0.8,0.58,0.66,5.5123999999999995,94.52879999999999,-276.966,175,75
2026-05-09 16:13:35.428,3,-0.78,0.52,1.07,4.4724,161.4188,-237.70600000000002,175,75
2026-05-09 16:13:35.504,3,-2.96,1.7,0.91,-20.0976,328.0088,56.084,175,75
2026-05-09 16:13:35.529,3,-0.64,1.11,2.79,91.3024,53.3088,36.384,175,75
2026-05-09 16:13:35.541,3,2.25,-1.69,2.17,-149.42759999999998,-501.8712,138.274,175,75
2026-05-09 16:13:35.561,3,-2.34,-1.04,-0.86,-203.7576,123.91879999999999,239.86399999999998,175,75
2026-05-09 16:13:35.576,3,0.34,-1.74,0.03,155.0224,10.0188,36.263999999999996,175,75
2026-05-09 16:13:35.576,3,-1.07,-0.69,0.72,136.5524,275.6288,-60.385999999999996,175,75
2026-05-09 16:13:35.589,3,0.01,0.37,1.79,65.51240000000001,462.21880000000004,-27.395999999999997,175,75
2026-05-09 16:13:35.622,3,-1.48,0.16,2.34,-20.4576,111.8488,43.45400000000001,175,75
2026-05-09 16:13:35.634,3,-1.06,0.03,2.19,-71.2576,57.0288,3.214000000000002,175,75
2026-05-09 16:13:35.672,3,0.01,-0.59,2.39,-102.7176,35.8788,-22.395999999999997,175,75
2026-05-09 16:13:35.683,3,-0.05,-0.66,2.22,-114.6676,41.4188,-29.656,175,75
2026-05-09 16:13:35.694,3,0.09,-0.8,1.97,-118.08760000000001,51.9088,-38.126,175,75
2026-05-09 16:13:35.704,3,0.31,-0.97,1.84,-121.4976,79.2888,-47.156,175,75
2026-05-09 16:13:35.715,3,0.63,-1.06,1.91,-111.61760000000001,94.52879999999999,-59.346000000000004,175,75
2026-05-09 16:13:35.728,3,1.17,-1.26,2.08,-98.9376,92.88879999999999,-75.506,175,75
2026-05-09 16:13:35.738,3,1.86,-1.32,2.02,-97.3476,80.68879999999999,-101.356,175,75
2026-05-09 16:13:35.751,3,2.3,-1.04,1.55,-91.3776,76.41879999999999,-131.846,175,75
2026-05-09 16:13:35.772,3,1.01,0.07,0.43,-62.2276,190.7488,-160.686,175,75
2026-05-09 16:13:35.784,3,-0.26,0.94,0.71,37.4024,445.9988,-196.906,175,75
2026-05-09 16:13:35.794,3,1.19,0.6,1.76,157.4024,505.9388,-183.306,175,75
2026-05-09 16:13:35.807,3,0.23,0.7,2.52,196.0024,486.1788,-101.84599999999999,175,75
2026-05-09 16:13:35.829,3,0.94,0.67,4.44,335.2124,258.4988,18.584,175,75
2026-05-09 16:13:35.840,3,2.59,-0.65,4.63,256.3624,-140.34120000000001,31.504,175,75
2026-05-09 16:13:35.850,3,0.85,-0.39,3.15,158.32240000000002,-254.7312,61.20400000000001,175,75
2026-05-09 16:13:35.873,3,0.29,0.36,1.78,204.7824,-137.3012,17.664000000000005,175,75
2026-05-09 16:13:35.876,3,1.02,-0.05,1.96,231.5524,-192.6612,30.714000000000002,175,75
2026-05-09 16:13:35.890,3,0.95,-0.31,1.78,209.41240000000002,-242.2312,41.20400000000001,175,75
2026-05-09 16:13:35.901,3,0.69,-0.31,1.4,206.0024,-238.9412,11.084,175,75
2026-05-09 16:13:35.912,3,0.96,-0.16,1.24,214.4724,-228.4512,-26.296,175,75
2026-05-09 16:13:35.923,3,1.18,-0.01,1.24,211.6124,-226.5612,-33.676,175,75
2026-05-09 16:13:35.923,3,1.13,0.01,1.2,197.10240000000002,-233.5812,-37.946,175,75
2026-05-09 16:13:35.947,3,0.82,0.06,0.91,150.7524,-224.2512,-78.43599999999999,175,75
2026-05-09 16:13:35.958,3,0.67,0.07,0.77,128.8624,-204.8012,-82.946,175,75
2026-05-09 16:13:36.000,3,-0.14,-0.45,1.08,34.7824,-112.6012,-100.20599999999999,175,75
2026-05-09 16:13:36.010,3,-0.48,-0.7,1.29,-7.537599999999999,-128.8212,-117.15599999999999,175,75
2026-05-09 16:13:36.031,3,-1.07,-0.52,1.02,-112.2276,-225.9512,-191.54600000000002,175,75
2026-05-09 16:13:36.045,3,-0.97,-0.1,0.71,-140.8876,-154.0612,-205.936,175,75
2026-05-09 16:13:36.054,3,-1.07,0.07,0.5,-151.1976,-91.50120000000001,-161.726,175,75
2026-05-09 16:13:36.088,3,-2.1,0.11,-0.18,-127.04759999999999,188.6788,-136.176,175,75
2026-05-09 16:13:36.097,3,-2.43,0.29,-0.56,-158.5676,261.84880000000004,-126.84599999999999,175,75
2026-05-09 16:13:36.120,3,-4.32,1.17,0.17,-121.4376,586.1188,-66.726,175,75
2026-05-09 16:13:36.120,3,-5.46,2.58,2.67,53.8024,835.2687999999999,128.51399999999998,175,75
2026-05-09 16:13:36.131,3,-2.05,-0.63,7.42,710.2124,269.10880000000003,119.37400000000001,175,75
2026-05-09 16:13:36.148,3,6.63,-2.77,5.13,-163.8176,-504.5512,55.65400000000001,175,75
2026-05-09 16:13:36.164,3,-3.03,0.36,2.29,-819.6676,-724.3112,471.384,175,75
2026-05-09 16:13:36.197,3,-0.58,-3.97,-2.09,-81.2576,-518.4512000000001,88.394,175,75
2026-05-09 16:13:36.197,3,-0.11,-2.16,-1.71,-35.6476,21.4188,-87.336,175,75
2026-05-09 16:13:36.209,3,2.62,-1.09,-0.17,-33.6976,232.8288,-54.226,175,75
2026-05-09 16:13:36.225,3,2.34,-0.45,1.02,-31.1376,205.1988,160.10399999999998,175,75
2026-05-09 16:13:36.225,3,1.35,-1.21,1.11,47.7724,108.7988,114.31400000000001,175,75
2026-05-09 16:13:36.235,3,1.02,-1.67,1.27,10.4524,157.9488,41.81400000000001,175,75
2026-05-09 16:13:36.246,3,1.74,-1.0,1.09,-23.8176,76.72879999999999,28.824,175,75
2026-05-09 16:13:36.279,3,0.95,-0.21,0.28,108.2524,238.8588,-11.235999999999997,175,75
2026-05-09 16:13:36.301,3,0.58,-0.32,0.52,162.4624,343.91880000000003,-26.785999999999998,175,75
2026-05-09 16:13:36.326,3,0.1,0.31,1.1,235.88240000000002,506.72880000000004,-35.07599999999999,175,75
2026-05-09 16:13:36.346,3,0.84,0.35,2.71,319.1724,433.7988,-9.045999999999998,175,75
2026-05-09 16:13:36.362,3,1.15,0.6,3.28,254.4724,275.9388,25.044,175,75
2026-05-09 16:13:36.373,3,1.03,0.8,3.65,219.2324,119.10879999999999,46.87400000000001,175,75
2026-05-09 16:13:36.392,3,1.16,0.75,3.83,198.8624,-52.4812,42.17400000000001,175,75
2026-05-09 16:13:36.392,3,1.77,0.05,3.06,131.4324,-313.09119999999996,31.564000000000004,175,75
2026-05-09 16:13:36.406,3,1.29,-0.11,1.71,65.3324,-408.21119999999996,14.554000000000006,175,75
2026-05-09 16:13:36.406,3,1.07,-0.09,0.84,34.5424,-359.0012,-16.485999999999997,175,75
2026-05-09 16:13:36.442,3,1.43,-0.27,0.9,61.5524,-226.2012,-84.04599999999999,175,75
2026-05-09 16:13:36.452,3,1.09,-0.31,0.95,48.622400000000006,-183.8812,-114.106,175,75
2026-05-09 16:13:36.463,3,0.74,-0.47,0.7,39.9024,-126.50120000000001,-159.776,175,75
2026-05-09 16:13:36.473,3,0.53,-0.55,0.53,28.6224,-60.2812,-184.466,175,75
2026-05-09 16:13:36.488,3,0.08,-0.49,0.51,18.6824,55.7488,-214.04600000000002,175,75
2026-05-09 16:13:36.511,3,-0.35,0.03,0.87,25.632399999999997,177.4588,-273.986,175,75
2026-05-09 16:13:36.511,3,-0.71,0.4,0.91,21.3024,217.15879999999999,-275.016,175,75
2026-05-09 16:13:36.533,3,-1.15,0.68,1.15,10.212399999999999,222.8888,-315.62600000000003,175,75
2026-05-09 16:13:36.545,3,-1.09,0.6,1.45,32.7724,211.0588,-325.87600000000003,175,75
2026-05-09 16:13:36.555,3,-0.78,0.3,1.61,39.7224,170.56879999999998,-308.796,175,75
2026-05-09 16:13:36.569,3,-0.94,0.15,1.45,23.562399999999997,150.56879999999998,-275.13599999999997,175,75
2026-05-09 16:13:36.583,3,-1.24,0.06,0.79,4.1724,175.6888,-224.526,175,75
2026-05-09 16:13:36.617,3,-3.1,1.01,-0.18,9.9024,357.7688,-111.78599999999999,175,75
2026-05-09 16:13:36.632,3,-1.36,0.98,0.47,88.38239999999999,182.2788,-134.046,175,75
2026-05-09 16:13:36.666,3,-1.46,-2.3,0.62,-158.6376,-360.53119999999996,245.894,175,75
2026-05-09 16:13:36.704,3,1.62,-0.19,2.21,43.1924,248.2488,24.494000000000003,175,75
2026-05-09 16:13:36.736,3,-0.94,0.02,1.57,5.6324000000000005,125.5088,60.224000000000004,175,75
2026-05-09 16:13:36.750,3,-1.99,0.16,1.5,-15.0976,136.0588,32.974000000000004,175,75
2026-05-09 16:13:36.760,3,-1.71,-0.15,1.8,-42.8376,124.8988,-1.5459999999999958,175,75
2026-05-09 16:13:36.777,3,-0.92,-0.42,2.45,-66.3776,108.6788,-54.775999999999996,175,75
2026-05-09 16:13:36.792,3,0.42,-0.58,2.87,-89.54759999999999,72.7688,-69.836,175,75
2026-05-09 16:13:36.819,3,0.54,-1.5,1.41,-151.2576,12.6388,-27.945999999999998,175,75
2026-05-09 16:13:36.852,3,1.5,-0.96,1.37,-112.89760000000001,35.0188,-53.495999999999995,175,75
2026-05-09 16:13:36.852,3,1.85,-0.93,1.35,-111.4976,30.6288,-43.676,175,75
2026-05-09 16:13:36.865,3,1.78,-0.74,1.31,-99.48759999999999,29.9588,-48.18599999999999,175,75
2026-05-09 16:13:36.876,3,1.55,-0.45,1.11,-82.89760000000001,49.2288,-69.286,175,75
2026-05-09 16:13:36.888,3,0.79,0.19,1.06,-59.7876,148.06879999999998,-88.496,175,75
2026-05-09 16:13:36.938,3,0.8,0.45,1.74,155.7524,330.8788,-55.93599999999999,175,75
2026-05-09 16:13:36.950,3,0.35,0.61,2.23,222.5824,328.7388,-9.655999999999997,175,75
2026-05-09 16:13:36.961,3,0.16,0.69,3.23,286.49240000000003,266.4888,29.434,175,75
2026-05-09 16:13:36.973,3,0.67,0.25,3.97,300.0224,94.8988,51.994,175,75
2026-05-09 16:13:36.994,3,0.79,-0.05,2.25,133.13240000000002,-270.71119999999996,38.644000000000005,175,75
2026-05-09 16:13:37.009,3,0.72,0.05,1.33,155.1524,-276.14119999999997,15.534000000000002,175,75
2026-05-09 16:13:37.030,3,0.93,0.09,0.96,197.2224,-155.71120000000002,-26.845999999999997,175,75
2026-05-09 16:13:37.042,3,1.1,0.11,1.12,199.4724,-145.59120000000001,-39.226,175,75
2026-05-09 16:13:37.053,3,0.98,0.07,1.21,201.79240000000001,-152.1712,-59.40599999999999,175,75
2026-05-09 16:13:37.071,3,0.9,0.1,1.34,185.88240000000002,-149.12120000000002,-94.95599999999999,175,75
2026-05-09 16:13:37.104,3,0.49,0.02,1.1,139.4724,-157.7212,-120.746,175,75
2026-05-09 16:13:37.104,3,0.24,-0.01,0.91,117.8324,-127.30120000000001,-130.206,175,75
2026-05-09 16:13:37.116,3,-0.0,-0.13,0.85,97.7724,-83.94120000000001,-141.056,175,75
2026-05-09 16:13:37.131,3,-0.28,-0.2,1.23,69.9024,-62.1112,-167.82600000000002,175,75
2026-05-09 16:13:37.142,3,-0.5,-0.17,1.23,41.3024,-73.03120000000001,-177.39600000000002,175,75
2026-05-09 16:13:37.154,3,-0.75,-0.1,1.18,6.302399999999999,-107.4812,-182.51600000000002,175,75
2026-05-09 16:13:37.163,3,-0.9,0.07,1.01,-42.227599999999995,-145.40120000000002,-205.386,175,75
2026-05-09 16:13:37.174,3,-0.95,0.4,0.89,-86.3776,-141.6912,-216.846,175,75
2026-05-09 16:13:37.184,3,-0.94,0.46,0.84,-124.11760000000001,-114.1212,-189.95600000000002,175,75
2026-05-09 16:13:37.194,3,-0.87,0.07,0.56,-151.86759999999998,-113.58120000000001,-164.406,175,75
2026-05-09 16:13:37.210,3,-1.67,-0.07,0.26,-163.14759999999998,-30.6512,-140.386,175,75
2026-05-09 16:13:37.228,3,-2.06,0.03,-0.16,-185.9476,55.8788,-130.326,175,75
2026-05-09 16:13:37.239,3,-3.37,0.71,-0.11,-190.2776,303.7988,-147.826,175,75
2026-05-09 16:13:37.250,3,-6.77,2.87,2.9,11.9724,861.0588,76.81400000000001,175,75
2026-05-09 16:13:37.261,3,-0.8,-1.15,6.99,771.7924,410.3888,90.71400000000001,175,75
2026-05-09 16:13:37.272,3,5.55,-4.55,3.6,-53.757600000000004,-623.2712,-80.136,175,75
2026-05-09 16:13:37.282,3,-4.42,0.48,1.64,-792.4775999999999,-61.0812,363.884,175,75
2026-05-09 16:13:37.294,3,1.21,-1.49,0.29,-410.7676,-324.6712,166.444,175,75
2026-05-09 16:13:37.306,3,-0.77,-2.55,-0.93,-62.8376,62.578799999999994,42.17400000000001,175,75
2026-05-09 16:13:37.332,3,1.69,-1.67,1.01,-22.657600000000002,157.6388,50.59400000000001,175,75
2026-05-09 16:13:37.341,3,1.13,-1.65,0.98,-29.177599999999998,113.49879999999999,46.504000000000005,175,75
2026-05-09 16:13:37.373,3,1.45,-0.85,0.5,-0.2176000000000009,173.12879999999998,-4.955999999999996,175,75
2026-05-09 16:13:37.382,3,1.34,-0.67,0.53,14.112400000000001,188.3088,0.8340000000000032,175,75
2026-05-09 16:13:37.412,3,1.11,-0.1,1.44,152.2224,302.8888,-61.486000000000004,175,75
2026-05-09 16:13:37.423,3,0.95,-0.16,1.13,172.8324,299.8988,-69.04599999999999,175,75
2026-05-09 16:13:37.433,3,0.57,-0.06,0.72,200.82240000000002,384.9588,-92.15599999999999,175,75
2026-05-09 16:13:37.456,3,0.32,0.2,0.89,248.07240000000002,461.2988,-88.856,175,75
2026-05-09 16:13:37.468,3,0.05,0.42,1.1,257.7724,488.91880000000003,-80.68599999999999,175,75
2026-05-09 16:13:37.468,3,0.38,0.54,1.55,279.2324,488.85880000000003,-103.43599999999999,175,75
2026-05-09 16:13:37.480,3,0.92,0.62,2.23,279.7824,434.40880000000004,-101.416,175,75
2026-05-09 16:13:37.515,3,2.38,0.96,6.07,365.6324,155.1388,-24.715999999999998,175,75
2026-05-09 16:13:37.543,3,0.1,-0.39,2.19,27.0424,-700.5312,-26.055999999999997,175,75
2026-05-09 16:13:37.557,3,0.16,-0.14,0.49,-75.82759999999999,-626.5612,-71.846,175,75
2026-05-09 16:13:37.570,3,0.33,0.25,-1.01,101.79239999999999,-186.6912,-138.796,175,75
2026-05-09 16:13:37.592,3,0.75,-0.32,1.35,130.3324,-16.441200000000002,-178.79600000000002,175,75
2026-05-09 16:13:37.604,3,0.11,-0.47,1.45,107.2224,-5.8312,-204.04600000000002,175,75
2026-05-09 16:13:37.614,3,-0.24,-0.34,1.37,95.2724,46.2988,-223.856,175,75
2026-05-09 16:13:37.636,3,-0.41,0.05,1.41,80.57239999999999,70.2688,-238.006,175,75
2026-05-09 16:13:37.647,3,-0.5,0.34,1.29,53.2524,86.7888,-237.57600000000002,175,75
2026-05-09 16:13:37.662,3,-0.76,0.64,0.87,19.842399999999998,155.3888,-227.886,175,75
2026-05-09 16:13:37.685,3,-0.86,0.82,0.98,50.452400000000004,221.6688,-232.946,175,75
2026-05-09 16:13:37.707,3,-0.93,0.04,2.09,51.3624,88.7388,-159.04600000000002,175,75
2026-05-09 16:13:37.717,3,-1.17,-0.08,1.57,9.412399999999998,13.248800000000001,-144.286,175,75
2026-05-09 16:13:37.730,3,-1.35,-0.01,0.58,-31.4376,19.7788,-141.846,175,75
