Time,ID,Ax,Ay,Az,Gx,Gy,Gz,Height,Weight
2026-05-07 18:38:01.634,3,-0.41,-1.13,0.52,-3.6492000000000004,-13.5896,-3.434199999999999,175,75
2026-05-07 18:38:01.643,3,-0.42,-1.12,0.49,-4.019200000000001,-13.8996,-2.884199999999999,175,75
2026-05-07 18:38:01.687,3,-0.37,-1.03,0.65,-2.4892000000000003,-34.449600000000004,-2.0241999999999987,175,75
2026-05-07 18:38:01.810,3,-0.69,-0.87,0.13,28.540799999999997,2.750400000000001,13.945800000000002,175,75
2026-05-07 18:38:01.831,3,-0.47,-1.04,0.1,35.010799999999996,18.2404,18.6458,175,75
2026-05-07 18:38:01.876,3,-0.16,-1.24,0.46,28.790799999999997,-13.5896,7.175800000000002,175,75
2026-05-07 18:38:01.876,3,-0.49,-1.41,-0.13,28.180799999999998,9.580400000000001,13.825800000000001,175,75
2026-05-07 18:38:01.879,3,-0.25,-2.07,0.46,76.4708,67.8104,-15.9942,175,75
2026-05-07 18:38:01.923,3,-0.7,-1.06,-0.19,127.7508,49.0304,-15.0742,175,75
2026-05-07 18:38:01.977,3,-0.61,-1.85,0.25,197.0208,13.4204,-4.6541999999999994,175,75
2026-05-07 18:38:01.985,3,-0.51,-2.74,0.83,213.8508,-43.64960000000001,10.105800000000002,175,75
2026-05-07 18:38:02.022,3,-1.87,-2.59,-1.11,290.1308,79.52040000000001,-27.9442,175,75
2026-05-07 18:38:02.034,3,-1.77,-1.91,-0.5,299.8208,164.82039999999998,-19.2842,175,75
2026-05-07 18:38:02.076,3,-1.07,-1.15,1.5,151.7808,46.35039999999999,44.7358,175,75
2026-05-07 18:38:02.115,3,-0.79,-1.06,1.46,136.3508,1.4103999999999992,49.1958,175,75
2026-05-07 18:38:02.115,3,-1.25,-1.33,-0.81,-7.4892,-19.0196,53.7658,175,75
2026-05-07 18:38:02.166,3,-1.14,-0.42,-0.57,-11.269200000000001,345.0104,41.1458,175,75
2026-05-07 18:38:02.177,3,-0.88,-1.05,0.6,-130.5392,240.01039999999998,8.765800000000002,175,75
2026-05-07 18:38:02.201,3,-0.8,-1.26,0.69,-192.2492,180.6804,-10.1342,175,75
2026-05-07 18:38:02.211,3,-0.75,-1.27,0.7,-220.5392,144.88039999999998,-27.824199999999998,175,75
2026-05-07 18:38:02.236,3,-0.61,-1.21,0.63,-258.4092,127.8104,-45.3842,175,75
2026-05-07 18:38:02.255,3,-0.69,-1.01,0.56,-262.1892,155.4304,-58.3742,175,75
2026-05-07 18:38:02.283,3,-0.83,-0.73,0.68,-253.4092,188.3004,-60.0142,175,75
2026-05-07 18:38:02.283,3,-1.06,-0.48,0.81,-246.51919999999998,216.04039999999998,-57.6342,175,75
2026-05-07 18:38:02.298,3,-1.51,-0.05,1.42,-211.51919999999998,237.9904,-46.4142,175,75
2026-05-07 18:38:02.364,3,-2.11,0.89,3.54,-69.0192,122.6904,22.785800000000002,175,75
2026-05-07 18:38:02.388,3,-1.05,0.88,3.04,-68.0992,-210.5996,105.5958,175,75
2026-05-07 18:38:02.388,3,-0.64,0.66,2.64,-34.7492,-230.7896,96.2058,175,75
2026-05-07 18:38:02.388,3,-3.14,1.27,2.26,-31.209200000000003,-216.33960000000002,176.93580000000003,175,75
2026-05-07 18:38:02.481,3,-0.67,1.03,0.5,92.8708,12.3204,112.3058,175,75
2026-05-07 18:38:02.491,3,-1.42,0.76,0.55,124.70080000000002,-16.4596,90.1658,175,75
2026-05-07 18:38:02.491,3,-1.19,0.3,0.79,124.0308,-39.629599999999996,43.9458,175,75
2026-05-07 18:38:02.517,3,-0.84,0.04,1.02,95.74080000000001,-49.569599999999994,66.9958,175,75
2026-05-07 18:38:02.528,3,-1.26,-0.46,0.9,76.9008,-64.50959999999999,57.915800000000004,175,75
2026-05-07 18:38:02.528,3,-1.48,-0.84,0.72,68.48079999999999,-76.75959999999999,39.4358,175,75
2026-05-07 18:38:02.546,3,-1.71,-0.96,0.64,57.3208,-80.9096,32.5458,175,75
2026-05-07 18:38:02.565,3,-1.57,-1.22,0.66,45.0708,-82.36959999999999,3.3958000000000013,175,75
2026-05-07 18:38:02.611,3,-1.41,-1.49,0.78,46.1008,-75.5396,-4.4041999999999994,175,75
2026-05-07 18:38:02.622,3,-1.32,-1.88,0.97,47.5708,-83.7696,-14.6542,175,75
2026-05-07 18:38:02.638,3,-1.4,-2.01,0.96,31.410800000000002,-100.9696,-36.9042,175,75
2026-05-07 18:38:02.651,3,-1.04,-2.44,0.31,1.6508000000000003,-128.64960000000002,-39.3442,175,75
2026-05-07 18:38:02.660,3,-1.06,-3.07,-0.52,-15.7192,-131.7596,-47.3942,175,75
2026-05-07 18:38:02.671,3,-0.92,-2.92,-0.89,-19.749200000000002,-132.67960000000002,-77.0842,175,75
2026-05-07 18:38:02.671,3,-0.79,-2.02,-1.4,35.9208,-9.0796,-87.3942,175,75
2026-05-07 18:38:02.693,3,-0.9,-1.0,-0.48,167.6908,191.16039999999998,-18.614199999999997,175,75
2026-05-07 18:38:02.703,3,-0.93,-1.44,0.08,220.6208,206.8304,58.7658,175,75
2026-05-07 18:38:02.736,3,-0.73,-2.95,-0.01,245.74079999999998,19.7604,98.0358,175,75
2026-05-07 18:38:02.766,3,0.31,-2.22,-1.18,177.9308,13.1204,67.11580000000001,175,75
2026-05-07 18:38:02.782,3,-0.08,-2.56,0.08,206.4708,78.30040000000001,215.8358,175,75
2026-05-07 18:38:02.795,3,-0.87,-2.25,-0.26,96.7808,9.4004,115.8958,175,75
2026-05-07 18:38:02.810,3,-0.76,-2.13,-0.13,104.3408,21.3504,120.2258,175,75
2026-05-07 18:38:02.820,3,-0.79,-2.11,0.19,94.64080000000001,15.8004,121.02579999999999,175,75
2026-05-07 18:38:02.840,3,-0.71,-1.66,0.51,3.9708000000000006,-32.739599999999996,46.0158,175,75
2026-05-07 18:38:02.848,3,-0.52,-1.27,0.49,-38.7692,-50.239599999999996,20.6558,175,75
2026-05-07 18:38:02.885,3,-0.45,-0.41,0.49,-179.2592,-46.14960000000001,-48.2442,175,75
2026-05-07 18:38:02.902,3,-0.46,-0.51,0.66,-230.5392,-36.39960000000001,-78.7942,175,75
2026-05-07 18:38:02.902,3,-0.42,-0.72,0.86,-286.6392,-35.849599999999995,-115.6842,175,75
2026-05-07 18:38:02.915,3,-0.39,-0.79,0.84,-326.2092,-47.739599999999996,-142.2142,175,75
2026-05-07 18:38:02.930,3,-0.5,-0.79,0.6,-363.8992,-43.1596,-163.00420000000003,175,75
2026-05-07 18:38:02.949,3,-0.61,-0.84,0.38,-388.8992,-16.0896,-177.76420000000002,175,75
2026-05-07 18:38:02.962,3,-0.82,-0.91,0.21,-401.0292,29.6404,-185.99419999999998,175,75
2026-05-07 18:38:02.974,3,-0.98,-1.02,0.0,-411.6992,79.0904,-196.7842,175,75
2026-05-07 18:38:02.993,3,-0.69,-1.25,0.58,-396.2692,126.2904,-204.4042,175,75
2026-05-07 18:38:03.004,3,-0.67,-1.41,0.52,-425.1792,57.510400000000004,-214.5242,175,75
2026-05-07 18:38:03.016,3,-1.03,-1.36,0.22,-420.7192,118.7904,-216.8442,175,75
2026-05-07 18:38:03.027,3,-0.76,-1.47,0.8,-415.1792,121.16040000000001,-231.7842,175,75
2026-05-07 18:38:03.037,3,-0.77,-1.61,1.03,-433.0992,64.7004,-234.5842,175,75
2026-05-07 18:38:03.037,3,-1.13,-1.66,1.07,-436.3992,71.3504,-233.12419999999997,175,75
2026-05-07 18:38:03.065,3,-2.04,-1.94,1.69,-374.0792,142.51039999999998,-231.7242,175,75
2026-05-07 18:38:03.065,3,-2.59,-2.08,2.4,-314.0192,166.47039999999998,-218.30419999999998,175,75
2026-05-07 18:38:03.090,3,-3.87,-1.73,4.75,-104.5692,166.47039999999998,-170.56419999999997,175,75
2026-05-07 18:38:03.145,3,-3.7,1.88,3.42,51.470800000000004,-75.3596,82.4258,175,75
2026-05-07 18:38:03.164,3,2.33,-4.22,0.77,189.1508,-442.7996,144.98579999999998,175,75
2026-05-07 18:38:03.181,3,-1.95,-1.57,0.46,333.12080000000003,340.3704,274.73580000000004,175,75
2026-05-07 18:38:03.212,3,0.42,0.02,2.61,239.82080000000002,144.2704,209.25580000000002,175,75
2026-05-07 18:38:03.222,3,-1.45,-1.21,2.97,156.29080000000002,-96.0296,206.0258,175,75
2026-05-07 18:38:03.244,3,-1.9,-2.04,1.18,-20.4192,-158.2296,138.3358,175,75
2026-05-07 18:38:03.266,3,-1.48,-1.86,0.61,16.7108,-138.95960000000002,51.8758,175,75
2026-05-07 18:38:03.286,3,-1.67,-1.76,0.42,25.620799999999996,-43.03959999999999,4.555800000000001,175,75
2026-05-07 18:38:03.300,3,-1.46,-2.08,0.88,21.230800000000002,-31.2096,-27.9442,175,75
2026-05-07 18:38:03.384,3,-0.98,-2.2,-3.82,-174.5092,-340.7296,-213.24419999999998,175,75
2026-05-07 18:38:03.384,3,0.23,0.94,-4.17,6.840799999999998,-134.80960000000002,-149.8342,175,75
2026-05-07 18:38:03.395,3,-1.49,-0.12,-0.16,319.2108,238.7304,244.12580000000003,175,75
2026-05-07 18:38:03.421,3,0.36,-1.49,-1.43,51.1008,-100.3596,19.7358,175,75
2026-05-07 18:38:03.437,3,0.27,-0.46,-2.18,-24.569200000000002,-70.1796,42.4858,175,75
2026-05-07 18:38:03.449,3,0.11,-0.16,-2.51,-92.48920000000001,8.4204,-3.304199999999999,175,75
2026-05-07 18:38:03.451,3,0.32,0.31,-2.4,-113.5892,78.5404,-30.2642,175,75
2026-05-07 18:38:03.466,3,0.41,0.17,-1.86,-136.7592,114.7604,-40.5042,175,75
2026-05-07 18:38:03.488,3,0.13,-0.41,-1.02,-182.67919999999998,134.0904,-67.7642,175,75
2026-05-07 18:38:03.515,3,-0.16,-0.89,-0.36,-222.79919999999998,90.9204,-102.9442,175,75
2026-05-07 18:38:03.515,3,-0.26,-1.13,-0.23,-244.3192,45.550399999999996,-115.13419999999999,175,75
2026-05-07 18:38:03.579,3,-0.22,-1.38,0.4,-270.2992,-64.5696,-88.0642,175,75
2026-05-07 18:38:03.616,3,-0.71,-0.62,0.87,-211.26919999999998,9.090399999999999,-58.8542,175,75
2026-05-07 18:38:03.626,3,-0.43,-0.65,1.85,-86.20920000000001,54.0304,-53.8542,175,75
2026-05-07 18:38:03.638,3,-0.44,-0.64,2.34,-45.7192,22.5704,-65.4442,175,75
2026-05-07 18:38:03.649,3,-0.79,-0.33,2.8,-23.0992,-2.249599999999999,-45.4442,175,75
2026-05-07 18:38:03.675,3,-2.34,-2.75,10.12,818.6007999999999,-6.9496,110.3458,175,75
2026-05-07 18:38:03.685,3,10.24,-11.62,3.84,171.7108,-1298.0396,104.7358,175,75
2026-05-07 18:38:03.697,3,-0.54,-8.48,-1.59,-79.5692,476.35040000000004,285.4758,175,75
2026-05-07 18:38:03.718,3,-2.14,-1.41,-1.2,537.7507999999999,-377.5596,-257.8842,175,75
2026-05-07 18:38:03.737,3,1.14,0.6,-1.63,308.9108,209.7004,-305.01419999999996,175,75
2026-05-07 18:38:03.754,3,-3.09,3.39,0.24,97.8108,491.9604,209.00580000000002,175,75
2026-05-07 18:38:03.790,3,-1.31,1.91,1.63,247.1408,210.3104,9.125800000000002,175,75
2026-05-07 18:38:03.815,3,-0.42,-0.33,2.52,248.8508,56.650400000000005,126.1458,175,75
2026-05-07 18:38:03.815,3,-1.69,-0.89,2.39,151.04080000000002,-91.8796,177.23579999999998,175,75
2026-05-07 18:38:03.827,3,-2.15,-1.21,1.72,44.2108,-155.23960000000002,135.9558,175,75
2026-05-07 18:38:03.839,3,-2.06,-1.04,0.71,-10.9692,-214.6296,11.325800000000001,175,75
2026-05-07 18:38:03.848,3,-1.6,-0.87,-0.4,24.0908,-121.63959999999999,-25.504199999999997,175,75
2026-05-07 18:38:03.880,3,-1.41,-1.32,-0.1,89.0308,23.2404,-5.934199999999999,175,75
2026-05-07 18:38:03.890,3,-1.33,-1.67,0.68,109.2108,51.900400000000005,-34.1042,175,75
2026-05-07 18:38:03.901,3,-1.21,-1.75,1.25,94.76079999999999,42.510400000000004,-67.57419999999999,175,75
2026-05-07 18:38:03.912,3,-1.03,-1.56,1.47,53.3008,3.3004,-79.8942,175,75
2026-05-07 18:38:03.912,3,-1.1,-1.4,1.34,22.6308,-23.4096,-71.6642,175,75
2026-05-07 18:38:03.935,3,-1.1,-1.64,1.01,-22.1892,-52.3096,-64.4042,175,75
2026-05-07 18:38:03.947,3,-1.07,-2.09,0.74,-65.47919999999999,-80.4196,-53.3042,175,75
2026-05-07 18:38:03.947,3,-0.88,-2.38,0.53,-84.5692,-107.36959999999999,-49.224199999999996,175,75
2026-05-07 18:38:03.953,3,-0.73,-2.74,0.04,-110.7892,-142.1896,-37.4542,175,75
2026-05-07 18:38:03.995,3,-1.24,-0.56,-1.05,-16.3992,15.8604,-32.8842,175,75
2026-05-07 18:38:04.006,3,-1.35,-1.37,0.89,162.3808,-0.23959999999999937,108.0958,175,75
2026-05-07 18:38:04.028,3,-1.46,-1.85,0.05,53.2408,-116.8796,74.61580000000001,175,75
2026-05-07 18:38:04.041,3,0.19,-0.65,-1.62,47.0208,-112.1896,-8.184199999999999,175,75
2026-05-07 18:38:04.056,3,0.14,-1.4,-1.54,-19.139200000000002,-17.0096,73.4558,175,75
2026-05-07 18:38:04.069,3,-0.15,-0.66,-1.92,-83.2192,32.020399999999995,-3.0641999999999987,175,75
2026-05-07 18:38:04.094,3,-0.01,-0.42,-0.95,-131.6392,109.8204,-10.3842,175,75
2026-05-07 18:38:04.109,3,-0.05,-0.66,-0.64,-155.6592,91.9604,-35.3842,175,75
2026-05-07 18:38:04.144,3,0.02,-0.75,-0.36,-174.5092,63.660399999999996,-50.9342,175,75
2026-05-07 18:38:04.156,3,-0.07,-0.86,-0.26,-174.5692,61.410399999999996,-56.5442,175,75
2026-05-07 18:38:04.156,3,-0.12,-0.9,-0.14,-172.6192,61.2304,-60.9342,175,75
2026-05-07 18:38:04.168,3,-0.3,-0.78,0.23,-154.5092,90.0104,-66.1742,175,75
2026-05-07 18:38:04.190,3,-0.06,-0.56,1.04,-138.0392,60.490399999999994,-60.7442,175,75
2026-05-07 18:38:04.198,3,-0.11,-0.4,1.13,-141.3992,-9.6296,-59.4642,175,75
2026-05-07 18:38:04.213,3,-0.38,-0.25,1.13,-132.4892,-68.22959999999999,-60.6242,175,75
2026-05-07 18:38:04.284,3,-5.98,1.31,9.59,797.1407999999999,332.3204,116.4458,175,75
2026-05-07 18:38:04.297,3,2.97,-7.96,6.6,771.2908,-839.6895999999999,-213.9742,175,75
2026-05-07 18:38:04.297,3,-4.21,-1.09,2.31,-297.18919999999997,-463.64959999999996,599.3757999999999,175,75
2026-05-07 18:38:04.310,3,-0.37,-2.41,-1.14,-37.6792,-472.1296,-92.2142,175,75
2026-05-07 18:38:04.310,3,0.5,-3.13,-1.57,200.07080000000002,64.5804,59.61580000000001,175,75
2026-05-07 18:38:04.356,3,-0.59,-4.84,0.79,254.1508,213.0504,209.06580000000002,175,75
2026-05-07 18:38:04.356,3,-2.23,-3.03,1.54,215.01080000000002,163.85039999999998,101.6258,175,75
2026-05-07 18:38:04.356,3,-1.56,-1.63,1.58,160.2508,101.7104,-48.3742,175,75
2026-05-07 18:38:04.378,3,-0.23,-0.92,0.87,124.1508,-128.4096,21.265800000000002,175,75
2026-05-07 18:38:04.388,3,-0.81,-1.68,0.01,107.57079999999999,-205.11960000000002,209.12580000000003,175,75
2026-05-07 18:38:04.388,3,-1.46,-3.18,-0.49,83.73079999999999,-199.1996,273.7658,175,75
2026-05-07 18:38:04.404,3,-1.71,-3.68,-0.81,125.80080000000001,-263.95959999999997,84.0658,175,75
2026-05-07 18:38:04.420,3,0.13,-3.2,-0.91,104.1508,-303.76959999999997,-5.014199999999999,175,75
2026-05-07 18:38:04.440,3,0.84,-2.4,-1.2,76.4108,-357.1896,118.58579999999999,175,75
2026-05-07 18:38:04.458,3,-1.45,-2.17,0.21,306.6508,22.8104,129.55579999999998,175,75
2026-05-07 18:38:04.462,3,-1.64,-2.77,0.32,300.56080000000003,73.3604,165.6558,175,75
2026-05-07 18:38:04.485,3,-1.68,-3.21,-0.07,245.92079999999999,48.120400000000004,136.62580000000003,175,75
2026-05-07 18:38:04.495,3,-1.77,-2.3,-0.5,220.8008,83.05040000000001,-5.264199999999999,175,75
2026-05-07 18:38:04.517,3,-1.46,0.4,0.9,315.37080000000003,390.1904,23.455800000000004,175,75
2026-05-07 18:38:04.517,3,-0.02,-0.63,1.32,256.5308,222.1404,118.4558,175,75
2026-05-07 18:38:04.535,3,-0.72,-1.72,1.0,135.98080000000002,8.6604,91.1458,175,75
2026-05-07 18:38:04.541,3,-1.26,-1.51,0.09,39.0308,7.1404,29.925800000000002,175,75
2026-05-07 18:38:04.573,3,-0.48,-0.47,0.12,-12.7992,36.5904,-11.4142,175,75
2026-05-07 18:38:04.573,3,-0.68,-0.46,0.39,-56.9392,23.6604,-27.4542,175,75
2026-05-07 18:38:04.592,3,-0.63,-0.47,0.6,-106.39920000000001,-6.9496,-69.77420000000001,175,75
2026-05-07 18:38:04.614,3,-0.54,-0.37,0.55,-161.51919999999998,-46.339600000000004,-83.7342,175,75
2026-05-07 18:38:04.688,3,-0.64,-0.47,-0.23,-338.3492,70.0704,-135.5642,175,75
2026-05-07 18:38:04.699,3,-0.69,-0.6,-0.01,-362.9792,75.8604,-133.55419999999998,175,75
2026-05-07 18:38:04.699,3,-0.76,-0.65,0.11,-388.3492,64.4004,-129.8342,175,75
2026-05-07 18:38:04.717,3,-0.93,-0.66,0.3,-436.3992,10.1904,-129.4042,175,75
2026-05-07 18:38:04.732,3,-0.96,-0.58,0.27,-450.3592,-1.2096,-118.7342,175,75
2026-05-07 18:38:04.741,3,-1.16,-0.57,0.85,-444.43919999999997,57.2004,-104.3442,175,75
2026-05-07 18:38:04.784,3,-1.78,-0.75,2.64,-340.4792,-25.4196,-107.1542,175,75
2026-05-07 18:38:04.831,3,-5.06,0.74,3.76,-185.17919999999998,-211.9496,154.25580000000002,175,75
2026-05-07 18:38:04.848,3,-2.92,-0.08,4.31,111.6508,140.0704,130.8958,175,75
2026-05-07 18:38:04.921,3,-2.05,-2.45,-0.82,13.360799999999998,-12.919599999999999,148.7658,175,75
2026-05-07 18:38:04.966,3,-1.77,-0.47,1.7,1.0407999999999973,-14.3796,91.8758,175,75
2026-05-07 18:38:05.063,3,-1.59,-2.5,0.05,11.1008,-128.7696,39.2558,175,75
2026-05-07 18:38:05.063,3,-1.47,-2.79,-0.1,-1.6392000000000024,-160.5996,30.415800000000004,175,75
2026-05-07 18:38:05.101,3,-0.16,-1.47,-0.8,91.04079999999999,-39.0796,43.095800000000004,175,75
2026-05-07 18:38:05.123,3,-0.62,-1.23,-0.1,149.3408,-19.6296,131.2658,175,75
2026-05-07 18:38:05.123,3,-0.96,-1.69,-0.01,162.8108,-42.489599999999996,169.25580000000002,175,75
2026-05-07 18:38:05.132,3,-1.28,-2.1,-0.04,177.26080000000002,-42.8596,193.88580000000002,175,75
2026-05-07 18:38:05.144,3,-1.14,-2.42,-0.13,186.1708,-38.349599999999995,193.2758,175,75
2026-05-07 18:38:05.155,3,-0.9,-2.46,-0.1,188.6708,-43.959599999999995,169.92579999999998,175,75
2026-05-07 18:38:05.178,3,-0.23,-2.35,-0.06,174.76080000000002,-79.0196,144.31580000000002,175,75
2026-05-07 18:38:05.237,3,-0.34,-1.07,0.56,172.26080000000002,-49.569599999999994,238.0958,175,75
2026-05-07 18:38:05.237,3,-0.33,-1.81,0.58,85.4308,-180.8496,229.67579999999998,175,75
2026-05-07 18:38:05.237,3,-0.76,-1.7,0.07,21.900799999999997,-191.5796,221.87580000000003,175,75
2026-05-07 18:38:05.247,3,-0.69,-1.53,-0.33,5.070799999999998,-187.9796,197.8458,175,75
2026-05-07 18:38:05.259,3,-0.73,-1.5,-0.47,-15.599200000000002,-167.7996,171.32580000000002,175,75
2026-05-07 18:38:05.343,3,-0.59,-1.47,0.08,-136.6992,-62.129599999999996,62.175799999999995,175,75
2026-05-07 18:38:05.356,3,-0.35,-1.03,0.24,-179.5692,-26.9496,52.7858,175,75
2026-05-07 18:38:05.367,3,-0.27,-0.76,0.47,-221.5792,15.250399999999999,57.5458,175,75
2026-05-07 18:38:05.378,3,-0.18,-0.88,0.7,-267.4292,17.3804,27.1158,175,75
2026-05-07 18:38:05.378,3,-0.06,-1.0,0.67,-321.1492,15.490400000000001,2.485800000000001,175,75
2026-05-07 18:38:05.487,3,-0.6,-1.92,1.31,-440.4792,-34.0196,-184.8942,175,75
2026-05-07 18:38:05.511,3,-1.3,-1.92,2.35,-376.0892,-102.1896,-159.0442,175,75
2026-05-07 18:38:05.524,3,-1.15,-1.64,2.62,-261.0292,-128.1696,-138.24419999999998,175,75
2026-05-07 18:38:05.535,3,-1.06,-1.42,2.26,-203.70919999999998,-133.4696,-139.0442,175,75
2026-05-07 18:38:05.546,3,-1.03,0.47,1.61,14.460799999999999,98.05040000000001,-41.054199999999994,175,75
2026-05-07 18:38:05.576,3,-4.83,0.46,1.86,82.3808,-116.8196,222.23579999999998,175,75
2026-05-07 18:38:05.586,3,-0.14,-3.1,2.56,245.86079999999998,-131.20960000000002,217.54579999999999,175,75
2026-05-07 18:38:05.597,3,2.64,-16.22,4.89,681.3507999999999,-42.129599999999996,389.1958,175,75
2026-05-07 18:38:05.601,3,-1.58,-4.3,3.77,300.8608,-399.9896,81.4458,175,75
2026-05-07 18:38:05.627,3,-0.77,3.66,-1.0,61.590799999999994,-138.7696,234.19580000000002,175,75
2026-05-07 18:38:05.628,3,-0.56,1.78,-0.72,116.17080000000001,90.8604,156.75580000000002,175,75
2026-05-07 18:38:05.638,3,-1.47,0.22,0.88,194.82080000000002,74.3404,123.52579999999999,175,75
2026-05-07 18:38:05.649,3,-1.37,-1.53,1.21,131.6508,-10.9696,162.9758,175,75
2026-05-07 18:38:05.688,3,-1.42,-1.32,1.07,20.860799999999998,-85.11959999999999,-44.7142,175,75
2026-05-07 18:38:05.703,3,-1.1,-1.15,0.81,-22.069200000000002,-125.72959999999999,13.1558,175,75
2026-05-07 18:38:05.703,3,-1.7,-1.07,0.41,-40.419200000000004,-119.8696,45.165800000000004,175,75
2026-05-07 18:38:05.731,3,-1.49,-1.34,0.18,11.7808,-83.2896,-46.9642,175,75
2026-05-07 18:38:05.743,3,-1.51,-1.08,0.23,1.9008000000000003,-39.199600000000004,-64.10419999999999,175,75
2026-05-07 18:38:05.755,3,-1.52,-1.36,0.53,-21.3292,-31.6996,-59.1042,175,75
2026-05-07 18:38:05.776,3,-1.35,-1.93,0.61,-39.809200000000004,-41.339600000000004,-55.4442,175,75
2026-05-07 18:38:05.787,3,-1.21,-2.75,0.63,-68.5292,-110.5396,-33.554199999999994,175,75
2026-05-07 18:38:05.800,3,-1.03,-3.51,0.38,-111.0892,-194.6296,-23.0642,175,75
2026-05-07 18:38:05.822,3,-0.58,-2.97,-0.76,-178.3492,-312.1896,-64.77420000000001,175,75
2026-05-07 18:38:05.835,3,-0.33,-1.95,-1.6,-183.0392,-360.96959999999996,-87.9442,175,75
2026-05-07 18:38:05.841,3,-0.71,-0.73,-2.13,-164.4392,-259.6896,-93.3742,175,75
2026-05-07 18:38:05.856,3,-1.6,0.6,-1.29,-32.919200000000004,13.6004,7.7258,175,75
2026-05-07 18:38:05.867,3,-1.56,-0.13,0.06,106.7108,95.1904,117.9758,175,75
2026-05-07 18:38:05.888,3,-1.24,-1.91,0.36,60.620799999999996,-170.3596,93.8858,175,75
2026-05-07 18:38:05.899,3,-0.39,-1.6,-0.37,2.3207999999999984,-202.36960000000002,10.3458,175,75
2026-05-07 18:38:05.910,3,-0.17,-0.29,-0.97,-2.4292000000000016,-140.6696,35.165800000000004,175,75
2026-05-07 18:38:05.922,3,-0.53,-0.59,-1.67,-83.4692,-48.4096,97.2358,175,75
2026-05-07 18:38:05.936,3,-0.27,-0.62,-1.67,-109.25919999999999,50.8604,19.8658,175,75
2026-05-07 18:38:05.953,3,0.03,-0.21,-1.31,-133.7092,80.0704,-9.104199999999999,175,75
2026-05-07 18:38:05.953,3,-0.22,-0.07,-1.04,-153.0992,83.24040000000001,-5.504199999999999,175,75
2026-05-07 18:38:05.965,3,-0.4,-0.27,-0.66,-167.2492,81.2304,-20.0142,175,75
2026-05-07 18:38:05.988,3,-0.28,-0.52,-0.08,-172.54919999999998,48.60039999999999,-41.724199999999996,175,75
2026-05-07 18:38:05.999,3,-0.27,-0.9,0.69,-191.26919999999998,-95.9696,-53.4942,175,75
2026-05-07 18:38:06.009,3,-0.18,-0.98,0.93,-206.51919999999998,-161.33960000000002,-63.3042,175,75
2026-05-07 18:38:06.019,3,-0.06,-0.99,1.08,-228.2192,-242.36960000000002,-60.6842,175,75
2026-05-07 18:38:06.047,3,-0.57,-0.55,0.7,-253.6492,-305.2396,-34.834199999999996,175,75
2026-05-07 18:38:06.058,3,-0.58,-0.4,0.5,-255.4192,-286.33959999999996,-24.5842,175,75
2026-05-07 18:38:06.068,3,-0.59,-0.32,0.36,-255.4792,-257.4296,-1.9041999999999994,175,75
2026-05-07 18:38:06.091,3,-0.59,-0.41,-0.07,-230.17919999999998,-153.0996,-0.5641999999999996,175,75
2026-05-07 18:38:06.101,3,-0.14,-0.55,-0.01,-183.4692,-42.979600000000005,-2.514199999999999,175,75
2026-05-07 18:38:06.112,3,-0.0,-0.61,0.59,-105.17920000000001,49.9404,-6.354199999999999,175,75
2026-05-07 18:38:06.122,3,-2.97,0.47,1.37,-13.709200000000001,210.13039999999998,82.9758,175,75
2026-05-07 18:38:06.145,3,2.87,-3.79,10.24,882.5107999999999,1002.8104000000001,-42.6942,175,75
2026-05-07 18:38:06.157,3,11.95,-5.68,9.03,364.5808,-87.7396,360.1658,175,75
2026-05-07 18:38:06.173,3,-3.24,0.81,3.14,-514.3192,-1363.1696,639.7357999999999,175,75
2026-05-07 18:38:06.173,3,-7.68,-0.03,-0.55,-637.6192000000001,-162.55960000000002,280.9558,175,75
2026-05-07 18:38:06.186,3,0.07,-3.59,-4.31,-544.3792000000001,-374.3796,-225.56419999999997,175,75
2026-05-07 18:38:06.197,3,-1.8,-1.74,-6.09,111.29080000000002,-29.3796,-200.01420000000002,175,75
2026-05-07 18:38:06.210,3,-1.32,-2.02,-3.55,408.5408,464.03040000000004,142.6058,175,75
2026-05-07 18:38:06.221,3,-1.17,-2.79,-1.08,490.2508,685.1304,366.3858,175,75
2026-05-07 18:38:06.232,3,-2.09,-1.81,2.6,620.5608,479.4004,184.43580000000003,175,75
2026-05-07 18:38:06.243,3,-2.19,-2.45,4.57,337.3208,149.1504,-100.1942,175,75
2026-05-07 18:38:06.266,3,-1.96,-0.78,1.09,-129.3192,-454.01959999999997,206.1458,175,75
2026-05-07 18:38:06.276,3,-2.69,-0.69,-0.5,-116.32920000000001,-264.3796,88.8858,175,75
2026-05-07 18:38:06.297,3,-2.01,-0.09,-0.78,36.4108,-135.6696,-90.8042,175,75
2026-05-07 18:38:06.308,3,-1.23,0.83,0.01,94.52080000000001,-4.0196000000000005,-135.6242,175,75
2026-05-07 18:38:06.332,3,-1.76,-0.46,0.65,42.0208,24.5804,-6.604199999999999,175,75
2026-05-07 18:38:06.349,3,-1.64,-0.93,0.8,24.7008,10.1304,-33.7342,175,75
2026-05-07 18:38:06.361,3,-1.28,-1.26,0.98,7.570799999999998,-13.5896,-51.1142,175,75
2026-05-07 18:38:06.376,3,-1.06,-1.77,1.09,-16.1492,-57.2496,-45.6242,175,75
2026-05-07 18:38:06.387,3,-1.21,-2.35,1.1,-51.3992,-73.3496,-35.5042,175,75
2026-05-07 18:38:06.397,3,-1.35,-2.64,0.99,-75.2992,-121.75959999999999,-43.5542,175,75
2026-05-07 18:38:06.398,3,-1.26,-2.58,0.59,-105.23920000000001,-186.9496,-76.6642,175,75
2026-05-07 18:38:06.409,3,-0.97,-2.39,0.03,-124.01920000000001,-234.3796,-85.5642,175,75
2026-05-07 18:38:06.438,3,-0.61,-2.42,-1.32,-102.00919999999999,-180.5396,-38.7342,175,75
2026-05-07 18:38:06.460,3,-0.91,-1.88,-1.65,-107.2492,-113.83959999999999,-87.1542,175,75
2026-05-07 18:38:06.482,3,-1.44,-0.2,-0.55,44.2108,114.0304,-29.4042,175,75
2026-05-07 18:38:06.492,3,-1.49,-1.03,0.78,163.6708,187.0804,79.9858,175,75
2026-05-07 18:38:06.508,3,-1.54,-1.5,1.42,172.45080000000002,15.740400000000001,127.6058,175,75
2026-05-07 18:38:06.517,3,-1.62,-1.84,0.92,65.86080000000001,-107.1296,67.1758,175,75
2026-05-07 18:38:06.527,3,-0.44,-1.53,-0.15,9.340799999999998,-148.52960000000002,-3.184199999999999,175,75
2026-05-07 18:38:06.538,3,0.6,0.26,-1.29,-15.599200000000002,-139.6896,28.9458,175,75
2026-05-07 18:38:06.555,3,-0.27,0.24,-1.82,-14.0792,-59.989599999999996,108.4558,175,75
2026-05-07 18:38:06.555,3,-0.3,-1.14,-2.29,-116.75919999999999,19.700400000000002,39.9858,175,75
2026-05-07 18:38:06.565,3,-0.17,-0.42,-2.35,-134.1992,161.7704,-34.8942,175,75
2026-05-07 18:38:06.577,3,0.54,-0.27,-1.5,-116.32920000000001,237.38039999999998,-34.834199999999996,175,75
2026-05-07 18:38:06.611,3,-0.1,-1.03,-0.57,-149.92919999999998,203.66039999999998,-92.7642,175,75
2026-05-07 18:38:06.624,3,-0.25,-0.98,0.02,-130.5992,167.44039999999998,-81.1742,175,75
2026-05-07 18:38:06.634,3,-0.19,-0.97,0.29,-131.9392,129.0304,-72.7642,175,75
2026-05-07 18:38:06.646,3,0.0,-0.92,0.56,-136.1492,82.02040000000001,-65.07419999999999,175,75
2026-05-07 18:38:06.673,3,0.4,-0.49,1.47,-122.73920000000001,-17.3096,-51.4142,175,75
2026-05-07 18:38:06.683,3,0.5,-0.23,1.87,-108.70920000000001,-56.33959999999999,-40.5642,175,75
2026-05-07 18:38:06.683,3,0.28,-0.3,1.95,-99.50919999999999,-104.19959999999999,-33.184200000000004,175,75
2026-05-07 18:38:06.716,3,-6.47,1.39,2.27,-111.0292,-100.0596,168.82580000000002,175,75
2026-05-07 18:38:06.739,3,-1.36,-0.04,7.54,686.0408,935.0704000000001,181.93580000000003,175,75
2026-05-07 18:38:06.750,3,0.26,-7.2,5.88,796.8408,-1296.9496,-354.5842,175,75
2026-05-07 18:38:06.750,3,-0.39,-1.78,1.7,38.3608,-339.4496,416.3258,175,75
2026-05-07 18:38:06.761,3,0.27,0.22,1.59,-252.73919999999998,-189.74960000000002,29.375799999999998,175,75
2026-05-07 18:38:06.770,3,1.58,-1.01,-0.29,-90.8492,-532.0696,30.6558,175,75
2026-05-07 18:38:06.784,3,-2.46,-2.73,-0.88,88.1208,14.7004,159.61579999999998,175,75
2026-05-07 18:38:06.796,3,-1.47,-4.07,-0.03,137.6908,216.04039999999998,120.0458,175,75
2026-05-07 18:38:06.822,3,-2.09,-1.16,2.3,146.3508,55.430400000000006,-46.2342,175,75
2026-05-07 18:38:06.832,3,-1.36,-0.33,2.18,-7.9792000000000005,-27.369600000000002,-52.334199999999996,175,75
2026-05-07 18:38:06.832,3,-0.79,-0.69,1.56,-21.3992,-187.24960000000002,63.8858,175,75
2026-05-07 18:38:06.850,3,-1.83,-2.24,0.67,-19.0792,-270.7296,134.49579999999997,175,75
2026-05-07 18:38:06.868,3,-1.87,-3.03,0.15,-13.4692,-228.52960000000002,47.0558,175,75
2026-05-07 18:38:06.879,3,-1.45,-3.21,-0.08,18.480800000000002,-236.08960000000002,-25.6242,175,75
2026-05-07 18:38:06.879,3,-0.98,-2.89,-0.33,24.4608,-248.5896,-43.1242,175,75
2026-05-07 18:38:06.891,3,-0.48,-2.5,-0.98,11.840799999999998,-267.3696,-30.324199999999998,175,75
2026-05-07 18:38:06.908,3,-0.4,-2.27,-1.77,3.5407999999999973,-209.6896,-1.4741999999999997,175,75
2026-05-07 18:38:06.931,3,-0.41,-1.85,-1.99,88.30080000000001,-101.39959999999999,13.4558,175,75
2026-05-07 18:38:06.946,3,-0.53,-1.04,-0.47,227.0208,98.4804,22.915800000000004,175,75
2026-05-07 18:38:06.956,3,0.01,-1.15,0.09,277.1408,93.66040000000001,59.805800000000005,175,75
2026-05-07 18:38:06.966,3,-0.65,-1.64,0.24,278.18080000000003,64.0904,108.8258,175,75
2026-05-07 18:38:06.976,3,-1.36,-2.28,0.26,296.5308,120.49040000000001,180.7158,175,75
2026-05-07 18:38:06.994,3,-1.57,-3.12,0.17,345.8008,99.1504,159.67579999999998,175,75
2026-05-07 18:38:28.280,3,-0.42,-0.77,0.26,-60.419200000000004,-17.1296,-40.7442,175,75
2026-05-07 18:38:28.309,3,-0.39,-0.83,0.39,-95.29920000000001,-24.869600000000002,-54.834199999999996,175,75
2026-05-07 18:38:28.344,3,-0.44,-0.83,0.41,-120.47919999999999,-33.4096,-60.6242,175,75
2026-05-07 18:38:28.344,3,-0.45,-0.85,0.4,-130.2392,-33.28959999999999,-63.8542,175,75
2026-05-07 18:38:28.352,3,-0.44,-0.88,0.38,-142.4292,-34.199600000000004,-67.4542,175,75
2026-05-07 18:38:28.385,3,-0.42,-0.95,0.28,-170.7192,-21.3396,-76.1142,175,75
2026-05-07 18:38:28.405,3,-0.44,-0.98,0.24,-179.6892,-10.9696,-78.9142,175,75
2026-05-07 18:38:28.413,3,-0.45,-1.03,0.22,-185.7892,2.9304000000000006,-83.6142,175,75
2026-05-07 18:38:28.413,3,-0.47,-1.08,0.22,-191.26919999999998,23.1204,-88.6142,175,75
2026-05-07 18:38:28.446,3,-0.51,-1.28,0.34,-202.79919999999998,63.050399999999996,-107.1542,175,75
2026-05-07 18:38:28.469,3,-0.67,-1.47,0.34,-210.6592,86.10040000000001,-128.24419999999998,175,75
2026-05-07 18:38:28.481,3,-0.75,-1.52,0.31,-210.7192,102.99040000000001,-137.45420000000001,175,75
2026-05-07 18:38:28.505,3,-0.98,-1.7,0.24,-205.9092,138.0504,-148.49419999999998,175,75
2026-05-07 18:38:28.515,3,-1.17,-1.79,0.19,-200.29919999999998,164.76039999999998,-150.74419999999998,175,75
2026-05-07 18:38:28.529,3,-1.32,-1.78,0.3,-185.4792,199.0304,-149.2842,175,75
2026-05-07 18:38:28.541,3,-0.97,-2.05,0.9,-144.4392,197.2004,-148.43419999999998,175,75
2026-05-07 18:38:28.594,3,-1.36,-0.88,2.48,-81.20920000000001,-15.7896,-43.5542,175,75
2026-05-07 18:38:28.617,3,-0.98,-0.41,1.4,-61.1492,-269.4496,33.6458,175,75
2026-05-07 18:38:28.624,3,-1.26,-0.86,0.13,-25.2992,-285.96959999999996,107.9758,175,75
2026-05-07 18:38:28.667,3,0.17,-2.11,0.04,186.9008,130.7404,48.095800000000004,175,75
2026-05-07 18:38:28.685,3,0.12,-0.88,0.5,82.32079999999999,154.5204,-7.574199999999999,175,75
2026-05-07 18:38:28.699,3,-0.24,-0.39,0.36,72.7508,141.1004,71.50580000000001,175,75
2026-05-07 18:38:28.716,3,-0.41,-0.98,0.61,59.8208,103.60040000000001,68.6458,175,75
2026-05-07 18:38:28.730,3,-0.53,-1.2,0.64,45.9208,58.60039999999999,70.3458,175,75
2026-05-07 18:38:28.742,3,-0.65,-1.28,0.45,31.410800000000002,11.0404,64.3158,175,75
2026-05-07 18:38:28.742,3,-0.83,-1.23,0.19,24.0308,-12.799600000000002,53.7058,175,75
2026-05-07 18:38:28.764,3,-0.8,-1.17,-0.05,24.150799999999997,3.3004,39.7358,175,75
2026-05-07 18:38:28.810,3,-0.44,-1.26,0.28,4.460799999999999,14.5204,26.2658,175,75
2026-05-07 18:38:28.815,3,-0.44,-1.3,0.22,-0.4192,18.3604,30.8358,175,75
2026-05-07 18:38:28.852,3,-0.48,-1.23,0.05,9.820799999999998,46.770399999999995,26.205800000000004,175,75
2026-05-07 18:38:28.852,3,-0.54,-1.22,0.12,12.930799999999998,52.7504,25.8358,175,75
2026-05-07 18:38:28.863,3,-0.6,-1.25,0.19,10.1908,45.370400000000004,23.3358,175,75
2026-05-07 18:38:28.906,3,-0.58,-1.15,0.12,2.0207999999999977,-13.409600000000001,23.455800000000004,175,75
2026-05-07 18:38:28.906,3,-0.57,-1.17,0.01,4.7608,-25.179599999999997,25.8958,175,75
2026-05-07 18:38:28.928,3,-0.67,-1.23,-0.15,18.790799999999997,-10.7896,26.815800000000003,175,75
2026-05-07 18:38:28.942,3,-0.59,-1.25,-0.07,27.750799999999998,0.07039999999999935,21.6258,175,75
2026-05-07 18:38:28.971,3,-0.62,-1.21,0.06,35.7408,17.9304,21.015800000000002,175,75
2026-05-07 18:38:28.993,3,-0.6,-1.19,0.19,35.6808,12.4404,18.515800000000002,175,75
2026-05-07 18:38:29.009,3,-0.6,-1.19,0.21,34.7008,6.1604,19.4358,175,75
2026-05-07 18:38:29.027,3,-0.59,-1.18,0.27,32.5708,-4.4496,19.5558,175,75
2026-05-07 18:38:29.027,3,-0.58,-1.19,0.26,28.540799999999997,-12.619599999999998,20.6558,175,75
2026-05-07 18:38:29.039,3,-0.59,-1.18,0.25,27.510799999999996,-13.7696,20.535800000000002,175,75
2026-05-07 18:38:29.048,3,-0.58,-1.19,0.24,26.470799999999997,-16.6396,20.7758,175,75
2026-05-07 18:38:29.060,3,-0.58,-1.19,0.19,24.8808,-18.3496,22.3658,175,75
2026-05-07 18:38:29.073,3,-0.63,-1.19,0.15,25.1308,-13.959599999999998,23.3958,175,75
2026-05-07 18:38:29.083,3,-0.62,-1.21,0.14,26.1008,-7.979600000000001,22.055799999999998,175,75
2026-05-07 18:38:29.083,3,-0.63,-1.21,0.15,26.230800000000002,-3.7696000000000005,21.445800000000002,175,75
2026-05-07 18:38:29.094,3,-0.63,-1.21,0.15,25.250799999999998,3.0504,21.695800000000002,175,75
2026-05-07 18:38:29.116,3,-0.69,-1.21,0.21,25.980800000000002,15.6804,19.1258,175,75
2026-05-07 18:38:29.126,3,-0.67,-1.21,0.32,25.010799999999996,16.7704,14.2558,175,75
2026-05-07 18:38:29.131,3,-0.66,-1.19,0.37,20.4908,11.7704,13.035800000000002,175,75
2026-05-07 18:38:29.154,3,-0.66,-1.19,0.38,15.9208,6.1604,12.175800000000002,175,75
2026-05-07 18:38:29.165,3,-0.67,-1.19,0.35,10.5608,-2.0096000000000007,10.895800000000001,175,75
2026-05-07 18:38:29.188,3,-0.67,-1.2,0.23,7.0808,-7.679600000000001,6.995800000000003,175,75
2026-05-07 18:38:29.208,3,-0.68,-1.2,0.2,7.630800000000001,-6.339600000000001,6.625800000000002,175,75
2026-05-07 18:38:29.208,3,-0.68,-1.2,0.2,9.1508,-3.589600000000001,5.475800000000001,175,75
2026-05-07 18:38:29.223,3,-0.65,-1.19,0.22,11.290799999999997,-4.0196000000000005,4.675800000000001,175,75
2026-05-07 18:38:29.235,3,-0.65,-1.18,0.22,12.6908,-6.089600000000001,5.475800000000001,175,75
2026-05-07 18:38:29.246,3,-0.63,-1.17,0.2,13.8508,-7.5596,6.265800000000002,175,75
2026-05-07 18:38:29.258,3,-0.63,-1.18,0.2,16.5308,-8.2896,7.425800000000002,175,75
2026-05-07 18:38:29.302,3,-0.65,-1.19,0.24,24.9508,-9.319600000000001,10.9558,175,75
2026-05-07 18:38:29.328,3,-0.67,-1.17,0.22,28.6708,-9.0796,11.5058,175,75
2026-05-07 18:38:29.368,3,-0.66,-1.2,0.22,38.120799999999996,-9.569600000000001,12.3658,175,75
2026-05-07 18:38:29.426,3,-0.72,-1.2,0.25,64.2108,-2.6796000000000006,8.945800000000002,175,75
2026-05-07 18:38:29.450,3,-0.65,-1.23,0.38,70.1908,-15.5396,13.1558,175,75
2026-05-07 18:38:29.464,3,-0.65,-1.24,0.41,71.4108,-19.869600000000002,14.4358,175,75
2026-05-07 18:38:29.499,3,-0.64,-1.26,0.43,71.7108,-27.679599999999997,15.3458,175,75
2026-05-07 18:38:29.517,3,-0.61,-1.38,0.42,79.0908,-27.369600000000002,13.0958,175,75
2026-05-07 18:38:29.545,3,-0.62,-1.56,0.34,89.8808,-25.539599999999997,8.4558,175,75
2026-05-07 18:38:29.565,3,-0.61,-1.59,0.29,95.86080000000001,-19.869600000000002,8.2758,175,75
2026-05-07 18:38:29.594,3,-0.43,-1.58,0.41,119.1508,6.1004000000000005,11.445800000000002,175,75
2026-05-07 18:38:29.605,3,-0.41,-1.58,0.45,121.5908,-1.5196000000000005,13.825800000000001,175,75
2026-05-07 18:38:29.609,3,-0.39,-1.63,0.34,117.99080000000001,-20.0596,17.8458,175,75
2026-05-07 18:38:29.638,3,-0.53,-1.5,0.01,137.0808,5.6204,21.875799999999998,175,75
2026-05-07 18:38:29.649,3,-0.56,-1.51,0.03,143.48080000000002,15.6804,22.7258,175,75
2026-05-07 18:38:29.661,3,-0.75,-1.45,0.11,142.6308,36.900400000000005,23.8258,175,75
2026-05-07 18:38:29.670,3,-0.85,-1.38,0.18,144.1508,52.4404,19.4358,175,75
2026-05-07 18:38:29.693,3,-1.2,-1.0,0.44,154.4008,129.8204,23.9458,175,75
2026-05-07 18:38:29.708,3,-1.12,-0.92,0.85,171.7808,149.4604,33.4558,175,75
2026-05-07 18:38:29.720,3,-1.28,-1.04,1.06,160.6808,124.8204,36.2058,175,75
2026-05-07 18:38:29.729,3,-1.05,-1.16,1.1,145.3108,97.8704,36.2658,175,75
2026-05-07 18:38:29.748,3,-1.01,-1.14,0.99,115.01080000000002,48.120400000000004,28.5858,175,75
2026-05-07 18:38:29.748,3,-0.95,-1.05,0.86,98.9108,16.4104,6.9358,175,75
2026-05-07 18:38:29.756,3,-0.72,-0.85,0.71,81.4108,1.7104,-10.1342,175,75
2026-05-07 18:38:29.768,3,-0.51,-0.68,0.59,65.6208,-11.5796,-9.8942,175,75
2026-05-07 18:38:29.798,3,-0.77,-0.35,0.29,46.78079999999999,-2.3095999999999997,-18.9742,175,75
2026-05-07 18:38:29.809,3,-0.58,-0.59,0.28,41.7808,4.340400000000001,-18.6742,175,75
2026-05-07 18:38:29.809,3,-0.61,-0.78,0.22,21.5308,-5.849599999999999,-33.1242,175,75
2026-05-07 18:38:29.834,3,-0.64,-0.66,-0.01,-6.029200000000001,31.7104,-59.4642,175,75
2026-05-07 18:38:29.861,3,-0.61,-0.71,0.29,-31.2692,37.510400000000004,-75.0142,175,75
2026-05-07 18:38:29.871,3,-0.61,-0.71,0.38,-46.699200000000005,22.5104,-85.13419999999999,175,75
2026-05-07 18:38:29.882,3,-0.61,-0.72,0.42,-58.9592,12.2604,-88.1242,175,75
2026-05-07 18:38:29.895,3,-0.63,-0.76,0.46,-77.2492,-6.579599999999999,-92.1542,175,75
2026-05-07 18:38:29.906,3,-0.66,-0.78,0.47,-91.26920000000001,-23.899600000000003,-95.38419999999999,175,75
2026-05-07 18:38:29.906,3,-0.69,-0.8,0.47,-105.7892,-38.1596,-98.1242,175,75
2026-05-07 18:38:29.916,3,-0.69,-0.79,0.44,-123.2192,-50.53959999999999,-98.9842,175,75
2026-05-07 18:38:29.928,3,-0.7,-0.79,0.42,-136.4592,-57.67959999999999,-96.6042,175,75
2026-05-07 18:38:29.939,3,-0.72,-0.8,0.39,-150.23919999999998,-62.069599999999994,-93.3042,175,75
2026-05-07 18:38:29.951,3,-0.72,-0.84,0.38,-159.8092,-63.099599999999995,-91.2942,175,75
2026-05-07 18:38:29.962,3,-0.71,-0.87,0.38,-168.8992,-63.22959999999999,-88.7342,175,75
2026-05-07 18:38:29.974,3,-0.7,-0.9,0.37,-177.6192,-60.9096,-83.7342,175,75
2026-05-07 18:38:29.974,3,-0.73,-0.92,0.31,-185.4192,-51.39959999999999,-78.6142,175,75
2026-05-07 18:38:30.010,3,-0.74,-1.15,0.22,-196.3292,-1.5196000000000005,-70.13419999999999,175,75
2026-05-07 18:38:30.032,3,-0.71,-1.41,0.21,-200.1192,70.1304,-74.7142,175,75
2026-05-07 18:38:30.054,3,-0.7,-1.54,0.24,-200.9692,117.2604,-79.9542,175,75
2026-05-07 18:38:30.064,3,-0.74,-1.58,0.27,-198.8292,140.5504,-84.7142,175,75
2026-05-07 18:38:30.089,3,-0.79,-1.7,0.41,-190.04919999999998,179.2704,-95.9342,175,75
2026-05-07 18:38:30.089,3,-0.84,-1.73,0.45,-189.5092,182.26039999999998,-99.4042,175,75
2026-05-07 18:38:30.114,3,-0.89,-1.77,0.42,-192.6192,179.0304,-102.9442,175,75
2026-05-07 18:38:30.114,3,-1.0,-1.76,0.31,-196.20919999999998,181.41039999999998,-103.5542,175,75
2026-05-07 18:38:30.125,3,-1.01,-1.77,0.27,-193.8992,189.7004,-105.3242,175,75
2026-05-07 18:38:30.141,3,-0.95,-1.77,0.37,-182.8592,196.7704,-106.7242,175,75
2026-05-07 18:38:30.152,3,-0.92,-1.74,0.54,-175.17919999999998,182.32039999999998,-103.6742,175,75
2026-05-07 18:38:30.174,3,-0.83,-1.61,0.95,-170.3592,117.5704,-90.6242,175,75
2026-05-07 18:38:30.185,3,-0.69,-1.59,1.25,-166.3292,65.0704,-92.63419999999999,175,75
2026-05-07 18:38:30.207,3,-0.86,-1.05,1.18,-174.3792,-119.01959999999998,-72.27420000000001,175,75
2026-05-07 18:38:30.219,3,-1.02,-0.72,0.81,-164.92919999999998,-142.61960000000002,-34.1042,175,75
2026-05-07 18:38:30.229,3,-1.09,-0.63,0.59,-135.2992,-145.4196,-0.8041999999999998,175,75
2026-05-07 18:38:30.240,3,-1.05,-0.82,0.38,-81.8792,-135.5996,24.805799999999998,175,75
2026-05-07 18:38:30.247,3,-1.13,-0.89,0.25,-50.7892,-120.8496,37.5458,175,75
2026-05-07 18:38:30.259,3,-0.92,-1.01,0.04,-27.7392,-97.36959999999999,41.0858,175,75
2026-05-07 18:38:30.278,3,-0.9,-1.08,-0.04,-1.6992000000000012,-65.72959999999999,44.3158,175,75
2026-05-07 18:38:30.278,3,-0.82,-1.15,0.01,23.180799999999998,-25.8496,50.415800000000004,175,75
2026-05-07 18:38:30.289,3,-0.77,-1.16,0.15,37.1408,4.150399999999999,48.1558,175,75
2026-05-07 18:38:30.302,3,-0.81,-1.09,0.26,42.3208,28.3604,48.7658,175,75
2026-05-07 18:38:30.322,3,-0.65,-0.96,0.78,54.8208,38.300399999999996,55.165800000000004,175,75
2026-05-07 18:38:30.333,3,-0.56,-0.93,1.05,51.9008,3.910399999999999,58.645799999999994,175,75
2026-05-07 18:38:30.344,3,-0.51,-0.98,1.01,43.5408,-32.739599999999996,66.0158,175,75
2026-05-07 18:38:30.357,3,-0.54,-1.08,0.79,40.010799999999996,-49.7496,67.4258,175,75
2026-05-07 18:38:30.367,3,-0.58,-1.16,0.55,41.7108,-42.67959999999999,62.97580000000001,175,75
2026-05-07 18:38:30.387,3,-0.0,-1.71,-0.12,3.6007999999999996,-76.75959999999999,35.9558,175,75
2026-05-07 18:38:30.399,3,-0.51,-1.42,-0.81,-23.0992,-13.6496,27.845800000000004,175,75
2026-05-07 18:38:30.411,3,-0.7,-1.04,-1.09,-19.6892,59.270399999999995,24.8658,175,75
2026-05-07 18:38:30.427,3,0.06,-1.52,-0.9,1.6508000000000003,121.35040000000001,11.7558,175,75
2026-05-07 18:38:30.438,3,0.48,-2.12,-0.39,22.690799999999996,113.66040000000001,-14.104199999999999,175,75
2026-05-07 18:38:30.438,3,-0.66,-1.62,-0.03,39.0308,168.66039999999998,18.4558,175,75
2026-05-07 18:38:30.457,3,-1.14,-1.26,0.84,76.9608,250.7404,40.165800000000004,175,75
2026-05-07 18:38:30.470,3,-0.63,-1.86,1.98,121.5308,186.16039999999998,50.8358,175,75
2026-05-07 18:38:30.481,3,0.24,-2.66,2.08,92.57079999999999,-19.0196,35.345800000000004,175,75
2026-05-07 18:38:30.511,3,-0.22,-0.65,-0.37,11.410799999999998,-133.2296,50.345800000000004,175,75
2026-05-07 18:38:30.522,3,-0.75,-0.9,-0.64,21.470799999999997,-61.5196,71.2658,175,75
2026-05-07 18:38:30.529,3,-0.9,-1.02,-0.76,28.300800000000002,-36.879599999999996,56.50580000000001,175,75
2026-05-07 18:38:30.552,3,-1.09,-1.02,-0.59,54.090799999999994,15.3104,37.0558,175,75
2026-05-07 18:38:30.591,3,-0.51,-1.34,0.48,18.2408,-36.6396,23.705800000000004,175,75
2026-05-07 18:38:30.602,3,-0.47,-1.34,0.36,6.780799999999999,-56.209599999999995,24.675800000000002,175,75
2026-05-07 18:38:30.637,3,-0.69,-1.28,-0.24,28.970799999999997,4.5204,25.535800000000002,175,75
2026-05-07 18:38:30.646,3,-0.73,-1.22,-0.22,35.620799999999996,26.290399999999998,18.945800000000002,175,75
2026-05-07 18:38:30.662,3,-0.72,-1.15,-0.07,41.9008,42.3804,15.1658,175,75
2026-05-07 18:38:30.672,3,-0.67,-1.15,0.11,41.4708,38.4204,14.555800000000001,175,75
2026-05-07 18:38:30.684,3,-0.64,-1.16,0.19,37.690799999999996,24.5804,15.895800000000001,175,75
2026-05-07 18:38:30.706,3,-0.62,-1.19,0.2,22.9908,-21.2696,20.9558,175,75
2026-05-07 18:38:30.718,3,-0.66,-1.2,0.1,22.260799999999996,-24.689600000000002,21.445800000000002,175,75
2026-05-07 18:38:30.745,3,-0.64,-1.21,0.06,25.680799999999998,-18.649600000000003,19.7358,175,75
2026-05-07 18:38:30.769,3,-0.64,-1.15,0.08,31.470799999999997,-10.0596,20.3458,175,75
2026-05-07 18:38:30.831,3,-0.65,-1.18,0.03,35.8008,-31.639599999999998,29.925800000000002,175,75
2026-05-07 18:38:30.851,3,-0.69,-1.17,0.07,45.5608,-11.5196,26.625799999999998,175,75
2026-05-07 18:38:30.881,3,-0.71,-1.17,0.19,48.360800000000005,0.43040000000000056,25.955800000000004,175,75
2026-05-07 18:38:30.881,3,-0.7,-1.17,0.23,47.6308,-2.5595999999999997,25.8958,175,75
2026-05-07 18:38:30.900,3,-0.72,-1.15,0.25,46.7108,-0.29959999999999987,26.3258,175,75
2026-05-07 18:38:30.912,3,-0.71,-1.16,0.28,46.840799999999994,-2.3095999999999997,26.3258,175,75
2026-05-07 18:38:30.923,3,-0.7,-1.16,0.26,45.4908,-6.339600000000001,26.4458,175,75
2026-05-07 18:38:30.928,3,-0.7,-1.14,0.23,45.4308,-6.0295999999999985,28.275800000000004,175,75
2026-05-07 18:38:30.959,3,-0.71,-1.16,0.21,49.1508,-7.369599999999998,31.6958,175,75
2026-05-07 18:38:30.969,3,-0.72,-1.17,0.2,52.200799999999994,-4.0196000000000005,32.2358,175,75
2026-05-07 18:38:30.980,3,-0.73,-1.17,0.21,55.370799999999996,-3.159600000000001,33.095800000000004,175,75
2026-05-07 18:38:30.991,3,-0.74,-1.17,0.27,58.970800000000004,-0.5996000000000006,34.0658,175,75
2026-05-07 18:38:31.002,3,-0.72,-1.17,0.31,60.56079999999999,-4.689599999999999,35.165800000000004,175,75
2026-05-07 18:38:31.019,3,-0.74,-1.16,0.31,61.590799999999994,-5.7896,37.0558,175,75
2026-05-07 18:38:31.039,3,-0.72,-1.16,0.3,63.360800000000005,-15.7896,40.2858,175,75
2026-05-07 18:38:31.051,3,-0.77,-1.16,0.24,65.49080000000001,-14.9296,41.5658,175,75
2026-05-07 18:38:31.081,3,-0.83,-1.03,0.34,74.52080000000001,5.8004,39.0658,175,75
2026-05-07 18:38:31.096,3,-0.76,-1.06,0.63,69.3408,8.180399999999999,37.5458,175,75
2026-05-07 18:38:31.119,3,-0.82,-1.11,0.58,58.1808,-6.089600000000001,37.4258,175,75
2026-05-07 18:38:31.140,3,-0.85,-1.1,0.52,56.2908,-9.259599999999999,36.1458,175,75
2026-05-07 18:38:31.151,3,-0.87,-1.08,0.45,56.230799999999995,-9.259599999999999,34.6758,175,75
2026-05-07 18:38:31.151,3,-0.87,-1.08,0.42,57.0208,-8.529599999999999,34.4358,175,75
2026-05-07 18:38:31.166,3,-0.86,-1.11,0.44,59.340799999999994,-6.1495999999999995,34.0658,175,75
2026-05-07 18:38:31.172,3,-0.82,-1.14,0.47,61.4108,-6.5196000000000005,34.8658,175,75
2026-05-07 18:38:31.186,3,-0.82,-1.16,0.49,62.750800000000005,-8.349599999999999,37.4258,175,75
2026-05-07 18:38:31.199,3,-0.8,-1.22,0.51,65.49080000000001,-11.8796,40.775800000000004,175,75
2026-05-07 18:38:31.212,3,-0.82,-1.44,0.56,69.4008,-29.509600000000002,54.065799999999996,175,75
2026-05-07 18:38:31.236,3,-0.78,-1.64,0.57,70.6808,-45.3596,64.9858,175,75
2026-05-07 18:38:31.247,3,-0.61,-1.93,0.53,74.70079999999999,-71.8796,76.50580000000001,175,75
2026-05-07 18:38:31.257,3,-0.62,-2.07,0.44,81.35079999999999,-89.8096,87.2358,175,75
2026-05-07 18:38:31.276,3,-0.43,-2.41,0.55,106.5908,-130.17960000000002,97.1758,175,75
2026-05-07 18:38:31.305,3,-0.61,-2.42,0.16,83.48079999999999,-164.3796,88.5158,175,75
2026-05-07 18:38:31.315,3,-0.88,-2.11,-0.17,77.14080000000001,-133.2296,77.7258,175,75
2026-05-07 18:38:31.323,3,-1.15,-1.73,-0.38,75.1308,-62.129599999999996,59.25580000000001,175,75
2026-05-07 18:38:31.346,3,-1.02,-0.47,0.57,140.4908,158.2404,20.7158,175,75
2026-05-07 18:38:31.365,3,-1.06,-0.35,1.27,164.5808,138.6604,45.775800000000004,175,75
2026-05-07 18:38:31.373,3,-1.47,-0.57,1.48,129.0308,88.9704,34.9858,175,75
2026-05-07 18:38:31.374,3,-1.3,-0.62,1.2,79.76079999999999,59.760400000000004,-10.504199999999999,175,75
2026-05-07 18:38:31.393,3,-0.9,-0.43,0.76,55.1908,34.760400000000004,-31.414199999999997,175,75
2026-05-07 18:38:31.407,3,-0.62,-0.19,0.31,37.6308,11.0404,-42.5142,175,75
2026-05-07 18:38:31.429,3,-0.71,-0.03,-0.03,3.8507999999999996,49.880399999999995,-45.1342,175,75
2026-05-07 18:38:31.465,3,-0.59,-0.43,0.09,-39.0192,8.9704,-93.8542,175,75
2026-05-07 18:38:31.479,3,-0.55,-0.41,0.16,-54.3192,11.2304,-95.6842,175,75
2026-05-07 18:38:31.490,3,-0.59,-0.48,0.28,-72.8592,-0.4795999999999996,-110.9342,175,75
2026-05-07 18:38:31.501,3,-0.59,-0.49,0.32,-91.45920000000001,-2.0096000000000007,-119.3442,175,75
2026-05-07 18:38:31.552,3,-0.65,-0.77,0.47,-167.79919999999998,-48.89960000000001,-141.9042,175,75
2026-05-07 18:38:31.568,3,-0.68,-0.78,0.38,-186.8792,-57.3096,-143.61419999999998,175,75
2026-05-07 18:38:31.574,3,-0.69,-0.8,0.27,-204.98919999999998,-50.479600000000005,-141.2342,175,75
2026-05-07 18:38:31.618,3,-0.79,-1.21,0.1,-244.4392,51.5304,-135.8742,175,75
2026-05-07 18:38:31.646,3,-1.03,-1.68,0.2,-228.76919999999998,184.2704,-146.05419999999998,175,75
2026-05-07 18:38:31.660,3,-1.19,-1.88,0.62,-206.8192,231.6504,-146.4742,175,75
2026-05-07 18:38:31.670,3,-1.14,-2.03,0.97,-195.3592,214.7004,-155.74419999999998,175,75
2026-05-07 18:38:31.697,3,-1.02,-2.47,1.64,-178.95919999999998,166.10039999999998,-162.0842,175,75
2026-05-07 18:38:31.697,3,-1.65,-1.81,1.47,-178.95919999999998,129.0304,-124.9542,175,75
2026-05-07 18:38:31.712,3,-2.04,-1.32,1.13,-156.7592,119.4004,-113.6742,175,75
2026-05-07 18:38:31.735,3,-1.75,-1.05,1.42,-84.6292,119.8204,-84.0442,175,75
2026-05-07 18:38:31.735,3,-1.59,-1.01,1.87,-51.2092,77.3204,-73.3742,175,75
2026-05-07 18:38:31.753,3,-1.54,-0.85,1.92,-62.489200000000004,16.7104,-46.3542,175,75
2026-05-07 18:38:31.784,3,-0.2,-1.26,0.96,6.840799999999998,-72.97959999999999,15.2258,175,75
2026-05-07 18:38:31.813,3,-0.84,-1.09,-1.26,-111.14920000000001,-98.7696,4.1958,175,75
2026-05-07 18:38:31.813,3,-0.52,-0.46,-0.74,37.8108,80.9204,7.175800000000002,175,75
2026-05-07 18:38:31.820,3,0.28,-1.15,0.19,71.04079999999999,37.6304,22.1158,175,75
2026-05-07 18:38:31.834,3,-0.05,-1.44,0.32,18.300800000000002,-37.009600000000006,36.3258,175,75
2026-05-07 18:38:31.845,3,-0.59,-1.27,-0.22,-11.6392,-29.139599999999998,31.3258,175,75
2026-05-07 18:38:31.845,3,-0.66,-1.13,-0.4,20.4908,42.3204,29.6158,175,75
2026-05-07 18:38:31.860,3,-0.44,-1.32,-0.05,29.760799999999996,44.9404,26.6958,175,75
2026-05-07 18:38:31.872,3,-0.57,-1.25,0.03,27.2008,38.4804,26.815800000000003,175,75
2026-05-07 18:38:31.904,3,-0.46,-1.32,0.4,37.3808,-19.8096,34.4358,175,75
2026-05-07 18:38:31.914,3,-0.43,-1.36,0.38,25.430799999999998,-62.739599999999996,39.8658,175,75
2026-05-07 18:38:31.925,3,-0.45,-1.25,0.17,20.680799999999998,-85.7896,42.1758,175,75
2026-05-07 18:38:31.936,3,-0.47,-1.12,-0.0,27.8108,-76.8796,47.9758,175,75
2026-05-07 18:38:31.951,3,-0.37,-1.22,-0.03,41.4108,-63.83959999999999,54.555800000000005,175,75
2026-05-07 18:38:31.965,3,-0.55,-1.25,-0.0,60.250800000000005,-25.6596,56.445800000000006,175,75
2026-05-07 18:38:31.965,3,-0.63,-1.18,0.18,79.70079999999999,11.7104,57.2358,175,75
2026-05-07 18:38:32.045,3,-0.89,-1.09,0.54,70.92079999999999,-8.6496,65.8958,175,75
2026-05-07 18:38:32.045,3,-0.79,-1.14,0.13,59.5808,11.9604,46.7558,175,75
2026-05-07 18:38:32.059,3,-0.34,-1.12,0.04,77.51079999999999,78.4804,12.605800000000002,175,75
2026-05-07 18:38:32.086,3,-0.09,-1.05,-0.83,-17.069200000000002,44.8804,-19.2242,175,75
2026-05-07 18:38:32.086,3,-0.54,-1.0,-1.36,-56.0892,16.5304,2.4258000000000006,175,75
2026-05-07 18:38:32.115,3,-1.06,-1.42,-0.27,3.0608000000000004,175.8604,15.895800000000001,175,75
2026-05-07 18:38:32.128,3,-0.26,-2.22,1.24,91.10079999999999,100.2504,44.9858,175,75
2026-05-07 18:38:32.160,3,-0.68,-1.86,1.67,-40.479200000000006,-85.47959999999999,-39.1042,175,75
2026-05-07 18:38:32.171,3,-0.09,-0.17,-0.23,-92.1892,-125.0596,23.6458,175,75
2026-05-07 18:38:32.181,3,-0.71,-0.74,-0.46,-38.7692,-54.0796,63.395799999999994,175,75
2026-05-07 18:38:32.202,3,-0.66,-1.42,-0.03,-18.2192,-0.17960000000000065,18.585800000000003,175,75
2026-05-07 18:38:32.218,3,-0.77,-1.34,-0.03,-1.0892000000000017,48.4804,7.425800000000002,175,75
2026-05-07 18:38:32.229,3,-0.74,-1.29,0.1,4.820799999999998,50.1904,-1.4141999999999992,175,75
2026-05-07 18:38:32.246,3,-0.67,-1.24,0.24,4.7608,45.680400000000006,-0.9941999999999993,175,75
2026-05-07 18:38:32.259,3,-0.67,-1.18,0.42,-2.0692000000000004,32.9304,1.8158000000000012,175,75
2026-05-07 18:38:32.265,3,-0.56,-1.07,0.5,-19.6292,-11.1496,2.6058000000000003,175,75
2026-05-07 18:38:32.288,3,-0.66,-1.16,0.01,-26.3292,-37.9196,16.2058,175,75
2026-05-07 18:38:32.319,3,-0.67,-1.29,-0.08,-6.8192,10.9204,6.875800000000002,175,75
2026-05-07 18:38:32.330,3,-0.63,-1.21,-0.02,-0.5991999999999997,31.4704,2.785800000000002,175,75
2026-05-07 18:38:32.355,3,-0.63,-1.17,0.26,-0.3592000000000013,34.520399999999995,3.6458000000000013,175,75
2026-05-07 18:38:32.361,3,-0.62,-1.2,0.3,-5.789200000000001,18.7304,4.065800000000001,175,75
2026-05-07 18:38:32.370,3,-0.65,-1.19,0.24,-10.909200000000002,4.760400000000001,5.3458000000000006,175,75
2026-05-07 18:38:32.393,3,-0.67,-1.19,0.17,-11.939200000000001,-3.7095999999999982,5.5958000000000006,175,75
2026-05-07 18:38:32.393,3,-0.68,-1.19,0.12,-11.699200000000001,-6.8796,5.045800000000002,175,75
2026-05-07 18:38:32.411,3,-0.69,-1.2,0.11,-8.709200000000001,-3.099599999999999,2.8458000000000006,175,75
2026-05-07 18:38:32.423,3,-0.64,-1.22,0.14,-7.9792000000000005,-5.659600000000001,0.9558000000000018,175,75
2026-05-07 18:38:32.432,3,-0.62,-1.2,0.11,-7.7392,-8.099599999999999,1.6258000000000017,175,75
2026-05-07 18:38:32.449,3,-0.62,-1.19,0.04,-6.8192,-4.259599999999999,3.7658000000000005,175,75
2026-05-07 18:38:32.460,3,-0.67,-1.18,0.02,-4.139200000000001,5.3704,5.7158000000000015,175,75
2026-05-07 18:38:32.460,3,-0.66,-1.21,0.09,-0.2992000000000026,11.2304,3.4558000000000018,175,75
2026-05-07 18:38:32.473,3,-0.62,-1.22,0.15,1.0407999999999973,7.9904,2.0558000000000014,175,75
2026-05-07 18:38:32.485,3,-0.6,-1.21,0.17,1.2907999999999973,4.9404,4.065800000000001,175,75
2026-05-07 18:38:32.499,3,-0.64,-1.21,0.18,0.4908000000000001,1.7704000000000004,5.9558,175,75
2026-05-07 18:38:32.511,3,-0.69,-1.22,0.16,-0.17920000000000158,-5.479600000000001,4.495800000000001,175,75
2026-05-07 18:38:32.523,3,-0.7,-1.2,0.12,0.1308000000000007,-7.009599999999999,2.4258000000000006,175,75
2026-05-07 18:38:32.533,3,-0.7,-1.18,0.1,0.37079999999999913,-4.749600000000001,1.7558000000000007,175,75
2026-05-07 18:38:32.544,3,-0.71,-1.19,0.11,0.8007999999999988,-2.249599999999999,0.16580000000000084,175,75
2026-05-07 18:38:32.562,3,-0.68,-1.2,0.12,0.9807999999999986,-1.1495999999999995,-2.884199999999999,175,75
2026-05-07 18:38:32.572,3,-0.65,-1.18,0.13,1.1007999999999996,1.9003999999999994,-3.554199999999999,175,75
2026-05-07 18:38:32.572,3,-0.67,-1.18,0.14,-0.539200000000001,4.4604,-2.4541999999999993,175,75
2026-05-07 18:38:32.585,3,-0.63,-1.19,0.16,-1.6392000000000024,12.7504,-0.9341999999999988,175,75
2026-05-07 18:38:32.602,3,-0.63,-1.21,0.2,-3.4092000000000002,6.7704,-1.7841999999999985,175,75
2026-05-07 18:38:32.605,3,-0.64,-1.21,0.19,-4.139200000000001,4.820399999999999,-3.184199999999999,175,75
2026-05-07 18:38:32.618,3,-0.63,-1.2,0.17,-5.6592,3.4204000000000008,-3.2441999999999993,175,75
2026-05-07 18:38:32.633,3,-0.65,-1.2,0.14,-6.1492,1.9604,-3.6141999999999994,175,75
2026-05-07 18:38:32.644,3,-0.67,-1.19,0.11,-6.3992,4.6404,-4.284199999999999,175,75
2026-05-07 18:38:32.655,3,-0.66,-1.19,0.13,-5.6592,4.8804,-4.464199999999999,175,75
2026-05-07 18:38:32.667,3,-0.65,-1.2,0.14,-5.4792000000000005,2.750400000000001,-5.444199999999999,175,75
2026-05-07 18:38:32.670,3,-0.65,-1.2,0.14,-5.6592,1.2303999999999995,-5.874199999999999,175,75
2026-05-07 18:38:32.693,3,-0.64,-1.19,0.11,-5.2392,-0.5396000000000001,-5.744199999999999,175,75
2026-05-07 18:38:32.703,3,-0.64,-1.19,0.1,-4.0792,-0.17960000000000065,-5.934199999999999,175,75
2026-05-07 18:38:32.722,3,-0.63,-1.19,0.11,-3.0992000000000015,1.9604,-5.624199999999999,175,75
2026-05-07 18:38:32.736,3,-0.62,-1.19,0.11,-2.249200000000002,1.4103999999999992,-5.074199999999999,175,75
2026-05-07 18:38:32.736,3,-0.63,-1.19,0.12,-1.9391999999999996,2.2604000000000006,-5.074199999999999,175,75
2026-05-07 18:38:32.758,3,-0.63,-1.18,0.12,-1.5192000000000014,3.1204,-4.044199999999999,175,75
2026-05-07 18:38:32.770,3,-0.62,-1.19,0.12,-1.2692000000000014,3.8504000000000005,-3.6141999999999994,175,75
2026-05-07 18:38:32.770,3,-0.62,-1.19,0.14,-1.0291999999999994,3.6004000000000005,-2.1541999999999994,175,75
2026-05-07 18:38:32.801,3,-0.61,-1.19,0.11,-1.0291999999999994,9.090399999999999,-0.13419999999999987,175,75
2026-05-07 18:38:32.807,3,-0.62,-1.21,0.14,-0.1191999999999993,4.8804,-0.6241999999999983,175,75
2026-05-07 18:38:32.830,3,-0.62,-1.19,0.13,0.19079999999999941,5.3704,0.04580000000000162,175,75
2026-05-07 18:38:32.844,3,-0.66,-1.18,0.08,-0.539200000000001,10.6804,1.0858000000000008,175,75
2026-05-07 18:38:32.855,3,-0.61,-1.19,0.13,0.6807999999999979,13.1204,1.2058000000000018,175,75
2026-05-07 18:38:32.877,3,-0.64,-1.2,0.15,0.07079999999999842,8.7904,0.7158000000000015,175,75
2026-05-07 18:38:32.888,3,-0.66,-1.2,0.11,-0.4192,11.4104,0.655800000000001,175,75
2026-05-07 18:38:32.900,3,-0.6,-1.2,0.11,-0.8491999999999997,16.1604,1.325800000000001,175,75
2026-05-07 18:38:32.921,3,-0.63,-1.21,0.15,0.43079999999999785,7.7504,1.6258000000000017,175,75
2026-05-07 18:38:32.933,3,-0.65,-1.2,0.12,0.010799999999999699,8.0504,0.7758000000000003,175,75
2026-05-07 18:38:32.945,3,-0.62,-1.19,0.13,0.4908000000000001,10.250399999999999,1.0258000000000003,175,75
2026-05-07 18:38:32.958,3,-0.61,-1.19,0.14,0.37079999999999913,8.240400000000001,2.1758000000000006,175,75
2026-05-07 18:38:32.967,3,-0.63,-1.2,0.13,0.5608000000000004,5.9204,2.485800000000001,175,75
2026-05-07 18:38:32.981,3,-0.64,-1.21,0.12,1.5307999999999993,5.070399999999999,1.9358000000000004,175,75
2026-05-07 18:38:33.003,3,-0.65,-1.18,0.11,2.3808000000000007,4.9404,1.4458000000000002,175,75
2026-05-07 18:38:33.019,3,-0.64,-1.19,0.11,3.7307999999999986,6.5904,1.9358000000000004,175,75
2026-05-07 18:38:33.039,3,-0.64,-1.21,0.13,3.6708,4.4604,1.995800000000001,175,75
2026-05-07 18:38:33.062,3,-0.64,-1.19,0.13,3.9107999999999983,2.1403999999999996,1.5658000000000012,175,75
2026-05-07 18:38:33.073,3,-0.65,-1.19,0.13,4.1508,2.8704,1.7558000000000007,175,75
2026-05-07 18:38:33.089,3,-0.65,-1.2,0.15,4.340799999999998,3.7904,0.8958000000000013,175,75
2026-05-07 18:38:33.099,3,-0.64,-1.19,0.16,4.460799999999999,3.5404,0.8358000000000008,175,75
2026-05-07 18:38:33.111,3,-0.62,-1.2,0.16,4.210799999999999,1.9003999999999994,0.9558000000000018,175,75
2026-05-07 18:38:33.133,3,-0.65,-1.19,0.14,3.7307999999999986,1.7104,1.3858000000000015,175,75
2026-05-07 18:38:33.145,3,-0.65,-1.19,0.15,3.9708000000000006,1.0404,0.7758000000000003,175,75
2026-05-07 18:38:33.155,3,-0.64,-1.19,0.15,3.4807999999999986,1.4103999999999992,0.47580000000000133,175,75
2026-05-07 18:38:33.176,3,-0.65,-1.2,0.16,3.9708000000000006,2.0204000000000004,0.7158000000000015,175,75
2026-05-07 18:38:33.178,3,-0.64,-1.2,0.16,3.120799999999999,0.9803999999999995,-0.01419999999999888,175,75
2026-05-07 18:38:33.210,3,-0.64,-1.19,0.14,3.180799999999998,3.4803999999999995,1.2058000000000018,175,75
2026-05-07 18:38:33.222,3,-0.64,-1.19,0.16,2.8108000000000004,3.5404,0.5358000000000018,175,75
2026-05-07 18:38:33.236,3,-0.63,-1.2,0.15,2.5107999999999997,3.2403999999999993,0.47580000000000133,175,75
2026-05-07 18:38:33.251,3,-0.64,-1.19,0.14,2.5107999999999997,2.6904000000000003,1.2058000000000018,175,75
2026-05-07 18:38:33.264,3,-0.65,-1.19,0.14,3.5407999999999973,5.8604,1.8158000000000012,175,75
2026-05-07 18:38:33.275,3,-0.64,-1.21,0.17,3.2408,4.820399999999999,1.9358000000000004,175,75
2026-05-07 18:38:33.300,3,-0.64,-1.19,0.15,2.750799999999998,3.2403999999999993,1.6258000000000017,175,75
2026-05-07 18:38:33.304,3,-0.65,-1.19,0.14,3.4807999999999986,4.400399999999999,2.1758000000000006,175,75
2026-05-07 18:38:33.330,3,-0.65,-1.2,0.15,3.6708,4.340400000000001,1.3858000000000015,175,75
2026-05-07 18:38:33.347,3,-0.65,-1.19,0.14,4.090799999999998,3.4803999999999995,2.0558000000000014,175,75
2026-05-07 18:38:33.405,3,-0.65,-1.2,0.17,5.070799999999998,7.2004,1.995800000000001,175,75
2026-05-07 18:38:33.422,3,-0.65,-1.2,0.18,4.7608,7.3204,1.1458000000000013,175,75
2026-05-07 18:38:33.434,3,-0.65,-1.2,0.18,4.210799999999999,6.3504000000000005,0.655800000000001,175,75
2026-05-07 18:38:33.434,3,-0.64,-1.19,0.18,3.4807999999999986,7.0204,0.16580000000000084,175,75
2026-05-07 18:38:33.456,3,-0.64,-1.19,0.2,2.930799999999998,5.6204,0.655800000000001,175,75
2026-05-07 18:38:33.456,3,-0.64,-1.19,0.2,2.1407999999999987,4.0304,0.5958000000000006,175,75
2026-05-07 18:38:33.467,3,-0.65,-1.19,0.18,1.3507999999999996,3.3604000000000003,0.7158000000000015,175,75
2026-05-07 18:38:33.490,3,-0.64,-1.19,0.17,0.8607999999999976,3.4204000000000008,0.22580000000000133,175,75
2026-05-07 18:38:33.503,3,-0.65,-1.19,0.18,0.43079999999999785,4.090400000000001,0.16580000000000084,175,75
2026-05-07 18:38:33.519,3,-0.64,-1.19,0.18,0.07079999999999842,4.5204,-0.4441999999999986,175,75
2026-05-07 18:38:33.519,3,-0.65,-1.2,0.18,-0.4792000000000023,4.090400000000001,-0.3841999999999999,175,75
2026-05-07 18:38:33.530,3,-0.65,-1.2,0.18,-0.5991999999999997,4.5204,-0.8741999999999983,175,75
2026-05-07 18:38:33.541,3,-0.65,-1.19,0.19,-1.2092000000000027,3.910399999999999,-1.2941999999999982,175,75
2026-05-07 18:38:33.559,3,-0.65,-1.19,0.18,-1.8192000000000021,3.4204000000000008,-0.9941999999999993,175,75
2026-05-07 18:38:33.569,3,-0.65,-1.2,0.18,-2.0092,2.6304,-1.6041999999999987,175,75
2026-05-07 18:38:33.580,3,-0.65,-1.19,0.17,-2.3092000000000006,2.4404000000000003,-1.7241999999999997,175,75
2026-05-07 18:38:33.593,3,-0.64,-1.18,0.17,-2.6792000000000016,2.2604000000000006,-1.174199999999999,175,75
2026-05-07 18:38:33.604,3,-0.64,-1.2,0.19,-3.289200000000001,0.9204000000000008,-1.3541999999999987,175,75
2026-05-07 18:38:33.628,3,-0.66,-1.19,0.16,-3.8292,1.1004000000000005,-1.4741999999999997,175,75
2026-05-07 18:38:33.641,3,-0.65,-1.19,0.16,-3.5892000000000017,1.5304000000000002,-1.7841999999999985,175,75
2026-05-07 18:38:33.650,3,-0.65,-1.19,0.15,-3.5892000000000017,1.9604,-1.6041999999999987,175,75
2026-05-07 18:38:33.669,3,-0.65,-1.2,0.18,-3.0992000000000015,3.6004000000000005,-2.634199999999999,175,75
2026-05-07 18:38:33.679,3,-0.65,-1.19,0.18,-3.7692000000000014,3.0504,-3.004199999999999,175,75
2026-05-07 18:38:33.705,3,-0.65,-1.2,0.17,-4.809200000000001,1.7704000000000004,-3.554199999999999,175,75
2026-05-07 18:38:33.718,3,-0.65,-1.19,0.16,-4.869200000000001,2.3804,-3.794199999999999,175,75
2026-05-07 18:38:33.731,3,-0.65,-1.19,0.16,-4.9892,2.3203999999999994,-3.6141999999999994,175,75
2026-05-07 18:38:33.745,3,-0.64,-1.19,0.17,-4.689200000000001,3.7904,-4.344199999999999,175,75
2026-05-07 18:38:33.759,3,-0.63,-1.19,0.16,-5.119200000000001,4.150399999999999,-3.974199999999999,175,75
2026-05-07 18:38:33.773,3,-0.63,-1.2,0.16,-5.419200000000002,4.2104,-3.8541999999999987,175,75
2026-05-07 18:38:33.787,3,-0.62,-1.2,0.16,-5.419200000000002,3.3604000000000003,-3.794199999999999,175,75
2026-05-07 18:38:33.813,3,-0.63,-1.19,0.17,-5.969200000000001,3.910399999999999,-2.764199999999999,175,75
2026-05-07 18:38:33.813,3,-0.62,-1.2,0.18,-5.9092,2.2604000000000006,-2.5741999999999994,175,75
2026-05-07 18:38:33.825,3,-0.63,-1.19,0.15,-6.699200000000001,1.7104,-2.6941999999999986,175,75
2026-05-07 18:38:33.841,3,-0.63,-1.2,0.15,-5.9092,2.750400000000001,-2.4541999999999993,175,75
2026-05-07 18:38:33.854,3,-0.63,-1.2,0.14,-5.4792000000000005,2.9304000000000006,-3.184199999999999,175,75
2026-05-07 18:38:33.869,3,-0.62,-1.19,0.13,-5.299200000000001,3.7904,-2.634199999999999,175,75
2026-05-07 18:38:33.879,3,-0.63,-1.2,0.14,-4.629200000000001,4.820399999999999,-2.084199999999999,175,75
2026-05-07 18:38:33.891,3,-0.64,-1.2,0.16,-4.629200000000001,4.340400000000001,-2.634199999999999,175,75
2026-05-07 18:38:33.916,3,-0.63,-1.19,0.15,-4.929200000000002,3.0504,-3.2441999999999993,175,75
2026-05-07 18:38:33.925,3,-0.63,-1.2,0.15,-5.359200000000001,3.2403999999999993,-3.0641999999999987,175,75
2026-05-07 18:38:33.941,3,-0.63,-1.2,0.16,-5.299200000000001,2.2604000000000006,-2.9441999999999986,175,75
2026-05-07 18:38:33.952,3,-0.62,-1.19,0.15,-5.6592,1.2904,-2.884199999999999,175,75
2026-05-07 18:38:33.963,3,-0.62,-1.19,0.14,-5.789200000000001,1.5304000000000002,-2.514199999999999,175,75
2026-05-07 18:38:33.978,3,-0.63,-1.2,0.15,-5.539200000000001,1.2904,-2.214199999999999,175,75
2026-05-07 18:38:33.988,3,-0.63,-1.2,0.13,-5.719200000000001,1.7104,-2.764199999999999,175,75
2026-05-07 18:38:34.029,3,-0.62,-1.2,0.14,-4.869200000000001,3.4803999999999995,-2.2741999999999987,175,75
2026-05-07 18:38:34.029,3,-0.62,-1.19,0.15,-5.049200000000001,2.750400000000001,-2.4541999999999993,175,75
2026-05-07 18:38:34.038,3,-0.62,-1.19,0.15,-5.2392,1.5904000000000007,-1.6641999999999992,175,75
2026-05-07 18:38:34.086,3,-0.62,-1.2,0.11,-4.3192,1.5904000000000007,-0.9341999999999988,175,75
2026-05-07 18:38:34.121,3,-0.62,-1.2,0.13,-3.289200000000001,2.9903999999999993,-1.6041999999999987,175,75
2026-05-07 18:38:34.134,3,-0.62,-1.2,0.14,-3.2192000000000007,2.8103999999999996,-1.4741999999999997,175,75
2026-05-07 18:38:34.140,3,-0.61,-1.2,0.13,-3.4092000000000002,2.5703999999999994,-0.9341999999999988,175,75
2026-05-07 18:38:34.191,3,-0.62,-1.2,0.12,-2.799200000000001,1.1004000000000005,-0.1941999999999986,175,75
2026-05-07 18:38:34.202,3,-0.62,-1.2,0.11,-2.4892000000000003,1.4103999999999992,0.28580000000000183,175,75
2026-05-07 18:38:34.213,3,-0.62,-1.2,0.11,-1.6992000000000012,2.1403999999999996,-0.07419999999999938,175,75
2026-05-07 18:38:34.213,3,-0.63,-1.19,0.11,-1.0291999999999994,4.0304,0.22580000000000133,175,75
2026-05-07 18:38:34.224,3,-0.62,-1.2,0.13,-0.1191999999999993,3.9703999999999997,0.34580000000000055,175,75
2026-05-07 18:38:34.243,3,-0.61,-1.2,0.13,-0.1191999999999993,2.6904000000000003,0.5358000000000018,175,75
2026-05-07 18:38:34.255,3,-0.63,-1.21,0.14,0.3108000000000004,1.2303999999999995,0.47580000000000133,175,75
2026-05-07 18:38:34.267,3,-0.63,-1.2,0.12,0.8607999999999976,0.9803999999999995,0.22580000000000133,175,75
2026-05-07 18:38:34.281,3,-0.62,-1.19,0.12,1.4107999999999983,1.9604,0.7158000000000015,175,75
2026-05-07 18:38:34.291,3,-0.62,-1.2,0.13,1.590799999999998,1.5904000000000007,0.34580000000000055,175,75
2026-05-07 18:38:34.329,3,-0.61,-1.2,0.14,1.840799999999998,2.3804,0.16580000000000084,175,75
2026-05-07 18:38:34.355,3,-0.63,-1.2,0.14,1.2907999999999973,5.9204,-0.5041999999999991,175,75
2026-05-07 18:38:34.355,3,-0.63,-1.2,0.15,1.2307999999999986,6.5904,-0.8041999999999998,175,75
2026-05-07 18:38:34.375,3,-0.62,-1.2,0.18,-0.539200000000001,5.4904,-2.334199999999999,175,75
2026-05-07 18:38:34.387,3,-0.62,-1.2,0.18,-1.6392000000000024,4.0304,-2.1541999999999994,175,75
2026-05-07 18:38:34.415,3,-0.62,-1.2,0.16,-4.439200000000001,0.8604000000000003,-2.6941999999999986,175,75
2026-05-07 18:38:34.439,3,-0.62,-1.2,0.12,-4.439200000000001,1.0404,-3.0641999999999987,175,75
2026-05-07 18:38:34.451,3,-0.62,-1.2,0.11,-4.199200000000001,2.6904000000000003,-3.004199999999999,175,75
2026-05-07 18:38:34.463,3,-0.62,-1.2,0.14,-3.4092000000000002,5.250400000000001,-3.6141999999999994,175,75
2026-05-07 18:38:34.467,3,-0.61,-1.2,0.15,-3.5892000000000017,4.150399999999999,-3.8541999999999987,175,75
2026-05-07 18:38:34.492,3,-0.61,-1.2,0.13,-3.5892000000000017,3.1204,-3.7341999999999986,175,75
2026-05-07 18:38:34.508,3,-0.61,-1.2,0.13,-3.4092000000000002,1.8404000000000007,-3.6141999999999994,175,75
2026-05-07 18:38:34.517,3,-0.6,-1.19,0.14,-2.7392000000000003,1.3504000000000005,-3.004199999999999,175,75
2026-05-07 18:38:34.562,3,-0.61,-1.2,0.1,-0.2992000000000026,1.2904,-1.2941999999999982,175,75
2026-05-07 18:38:34.573,3,-0.61,-1.2,0.11,0.5608000000000004,2.080400000000001,-1.4141999999999992,175,75
2026-05-07 18:38:34.585,3,-0.6,-1.2,0.12,1.840799999999998,2.8704,-0.5641999999999996,175,75
2026-05-07 18:38:34.611,3,-0.61,-1.19,0.12,2.6308000000000007,2.5703999999999994,-0.6241999999999983,175,75
2026-05-07 18:38:34.621,3,-0.61,-1.2,0.12,3.4208,2.9903999999999993,-0.5041999999999991,175,75
2026-05-07 18:38:34.641,3,-0.6,-1.2,0.14,3.4208,3.2403999999999993,-0.01419999999999888,175,75
2026-05-07 18:38:34.669,3,-0.6,-1.2,0.14,2.870799999999999,3.1804000000000006,0.22580000000000133,175,75
2026-05-07 18:38:34.683,3,-0.61,-1.2,0.13,2.750799999999998,4.400399999999999,0.47580000000000133,175,75
2026-05-07 18:38:34.683,3,-0.62,-1.21,0.14,3.6007999999999996,5.6204,0.22580000000000133,175,75
2026-05-07 18:38:34.713,3,-0.61,-1.2,0.15,2.3808000000000007,3.9703999999999997,-0.5641999999999996,175,75
2026-05-07 18:38:34.737,3,-0.61,-1.2,0.16,1.710799999999999,2.6904000000000003,-0.2641999999999989,175,75
2026-05-07 18:38:34.737,3,-0.61,-1.21,0.16,0.9807999999999986,2.2604000000000006,-0.6241999999999983,175,75
2026-05-07 18:38:34.749,3,-0.6,-1.2,0.16,0.5608000000000004,1.5904000000000007,-0.7441999999999993,175,75
2026-05-07 18:38:34.761,3,-0.6,-1.2,0.14,0.25079999999999814,1.0404,-0.3241999999999994,175,75
2026-05-07 18:38:34.773,3,-0.61,-1.2,0.13,0.7408000000000001,2.080400000000001,-0.07419999999999938,175,75
2026-05-07 18:38:34.784,3,-0.61,-1.2,0.13,0.9207999999999998,3.3604000000000003,-0.3841999999999999,175,75
2026-05-07 18:38:34.795,3,-0.61,-1.2,0.14,1.0407999999999973,3.9703999999999997,-0.2641999999999989,175,75
2026-05-07 18:38:34.811,3,-0.6,-1.2,0.14,1.1707999999999998,3.4803999999999995,-0.01419999999999888,175,75
2026-05-07 18:38:34.840,3,-0.6,-1.21,0.14,1.2907999999999973,2.750400000000001,0.04580000000000162,175,75
2026-05-07 18:38:34.854,3,-0.6,-1.19,0.15,1.1007999999999996,2.9903999999999993,1.0858000000000008,175,75
2026-05-07 18:38:34.870,3,-0.6,-1.2,0.14,1.590799999999998,1.0404,1.2058000000000018,175,75
2026-05-07 18:38:34.882,3,-0.6,-1.21,0.13,2.1407999999999987,1.9003999999999994,1.4458000000000002,175,75
2026-05-07 18:38:34.894,3,-0.61,-1.2,0.13,3.0608000000000004,4.760400000000001,1.8158000000000012,175,75
2026-05-07 18:38:34.912,3,-0.59,-1.21,0.13,3.6708,2.8704,1.3858000000000015,175,75
2026-05-07 18:38:34.936,3,-0.6,-1.2,0.15,5.130800000000001,5.3104,2.3658,175,75
2026-05-07 18:38:34.936,3,-0.61,-1.2,0.15,4.520799999999998,3.9703999999999997,2.235800000000001,175,75
2026-05-07 18:38:34.956,3,-0.61,-1.2,0.15,5.250799999999998,6.3504000000000005,2.5458000000000016,175,75
2026-05-07 18:38:34.968,3,-0.61,-1.21,0.16,5.4908,5.7404,2.7258000000000013,175,75
2026-05-07 18:38:34.983,3,-0.61,-1.2,0.17,4.820799999999998,5.3704,2.3058000000000014,175,75
2026-05-07 18:38:34.994,3,-0.62,-1.2,0.17,4.280799999999999,4.4604,2.665800000000001,175,75
2026-05-07 18:38:35.004,3,-0.61,-1.2,0.18,3.5407999999999973,3.3004,2.3058000000000014,175,75
2026-05-07 18:38:35.030,3,-0.61,-1.2,0.18,2.870799999999999,3.3604000000000003,2.3658,175,75
2026-05-07 18:38:35.057,3,-0.62,-1.2,0.18,1.5307999999999993,3.1204,1.6958000000000002,175,75
2026-05-07 18:38:35.088,3,-0.62,-1.2,0.2,0.19079999999999941,2.080400000000001,1.995800000000001,175,75
2026-05-07 18:38:35.099,3,-0.62,-1.21,0.18,-0.7192000000000007,1.1004000000000005,1.5658000000000012,175,75
2026-05-07 18:38:35.111,3,-0.63,-1.2,0.17,-1.1492000000000004,1.2904,0.8958000000000013,175,75
2026-05-07 18:38:35.123,3,-0.63,-1.2,0.16,-1.2092000000000027,1.7704000000000004,0.22580000000000133,175,75
2026-05-07 18:38:35.123,3,-0.62,-1.2,0.15,-1.0291999999999994,1.9604,0.16580000000000084,175,75
2026-05-07 18:38:35.191,3,-0.61,-1.2,0.16,-3.289200000000001,-0.23959999999999937,1.1458000000000013,175,75
2026-05-07 18:38:35.208,3,-0.6,-1.2,0.16,-3.5892000000000017,-1.6996000000000002,0.9558000000000018,175,75
2026-05-07 18:38:35.232,3,-0.63,-1.2,0.12,-2.4292000000000016,0.9803999999999995,1.4458000000000002,175,75
2026-05-07 18:38:35.245,3,-0.61,-1.19,0.16,-0.8491999999999997,2.4404000000000003,1.1458000000000013,175,75
2026-05-07 18:38:35.282,3,-0.61,-1.2,0.17,-1.3292000000000002,-0.7295999999999996,1.5058000000000007,175,75
2026-05-07 18:38:35.282,3,-0.61,-1.2,0.15,-1.0892000000000017,-0.7295999999999996,1.995800000000001,175,75
2026-05-07 18:38:35.296,3,-0.62,-1.21,0.13,-0.4792000000000023,0.010400000000000631,1.9358000000000004,175,75
2026-05-07 18:38:35.306,3,-0.63,-1.2,0.13,0.43079999999999785,1.1004000000000005,2.1158,175,75
2026-05-07 18:38:35.311,3,-0.62,-1.21,0.13,1.840799999999998,1.7104,1.7558000000000007,175,75
2026-05-07 18:38:35.326,3,-0.62,-1.2,0.13,3.0608000000000004,4.340400000000001,2.3658,175,75
2026-05-07 18:38:35.343,3,-0.61,-1.19,0.17,3.8507999999999996,3.2403999999999993,1.9358000000000004,175,75
2026-05-07 18:38:35.360,3,-0.6,-1.19,0.18,3.6708,2.6904000000000003,2.4258000000000006,175,75
2026-05-07 18:38:35.370,3,-0.61,-1.2,0.18,3.4208,1.3504000000000005,2.8458000000000006,175,75
2026-05-07 18:38:35.375,3,-0.61,-1.2,0.16,3.3607999999999976,-0.29959999999999987,3.9458,175,75
2026-05-07 18:38:35.389,3,-0.62,-1.2,0.15,3.7907999999999973,0.13039999999999985,4.4358,175,75
2026-05-07 18:38:35.419,3,-0.62,-1.2,0.16,4.7608,0.5503999999999998,4.005800000000001,175,75
2026-05-07 18:38:35.431,3,-0.63,-1.19,0.15,5.370799999999999,2.8103999999999996,4.375800000000002,175,75
2026-05-07 18:38:35.433,3,-0.62,-1.19,0.17,5.680799999999998,3.3004,3.825800000000001,175,75
2026-05-07 18:38:35.447,3,-0.63,-1.19,0.17,5.370799999999999,2.9304000000000006,4.1958,175,75
2026-05-07 18:38:35.458,3,-0.63,-1.19,0.18,5.250799999999998,3.910399999999999,4.255800000000001,175,75
2026-05-07 18:38:35.470,3,-0.63,-1.19,0.19,5.430799999999998,3.7303999999999995,3.4558000000000018,175,75
2026-05-07 18:38:35.478,3,-0.63,-1.19,0.2,5.0108,3.6004000000000005,3.6458000000000013,175,75
2026-05-07 18:38:35.506,3,-0.63,-1.19,0.2,3.9107999999999983,1.4103999999999992,3.155800000000001,175,75
2026-05-07 18:38:35.506,3,-0.63,-1.19,0.18,3.3607999999999976,1.6503999999999994,3.3358000000000008,175,75
2026-05-07 18:38:35.552,3,-0.63,-1.19,0.19,2.3207999999999984,2.6304,2.9758000000000013,175,75
2026-05-07 18:38:35.552,3,-0.63,-1.2,0.21,2.1407999999999987,3.2403999999999993,2.5458000000000016,175,75
2026-05-07 18:38:35.577,3,-0.63,-1.2,0.2,1.1007999999999996,1.1004000000000005,2.915800000000001,175,75
2026-05-07 18:38:35.594,3,-0.64,-1.2,0.2,0.8607999999999976,0.9803999999999995,3.5258000000000003,175,75
2026-05-07 18:38:35.596,3,-0.63,-1.18,0.21,0.6207999999999991,0.13039999999999985,3.0958000000000006,175,75
2026-05-07 18:38:35.608,3,-0.62,-1.18,0.2,0.010799999999999699,-1.0896000000000008,4.005800000000001,175,75
2026-05-07 18:38:35.648,3,-0.65,-1.19,0.17,1.590799999999998,3.0504,2.3058000000000014,175,75
2026-05-07 18:38:35.660,3,-0.64,-1.19,0.19,2.0808,5.070399999999999,1.9358000000000004,175,75
2026-05-07 18:38:35.670,3,-0.64,-1.2,0.21,1.9008000000000003,4.400399999999999,1.8758000000000017,175,75
2026-05-07 18:38:35.685,3,-0.64,-1.21,0.2,0.8007999999999988,2.3804,1.5658000000000012,175,75
2026-05-07 18:38:35.703,3,-0.63,-1.19,0.21,-0.17920000000000158,0.6804000000000006,0.9558000000000018,175,75
2026-05-07 18:38:35.721,3,-0.64,-1.19,0.22,-1.3292000000000002,1.2904,1.8758000000000017,175,75
2026-05-07 18:38:35.733,3,-0.63,-1.19,0.24,-2.3092000000000006,-0.17960000000000065,1.5058000000000007,175,75
2026-05-07 18:38:35.747,3,-0.65,-1.2,0.21,-4.439200000000001,-2.3095999999999997,1.995800000000001,175,75
2026-05-07 18:38:35.781,3,-0.65,-1.19,0.18,-4.439200000000001,-0.4795999999999996,0.7758000000000003,175,75
2026-05-07 18:38:35.806,3,-0.66,-1.19,0.18,-3.8292,1.1004000000000005,-0.1941999999999986,175,75
2026-05-07 18:38:35.806,3,-0.64,-1.19,0.21,-4.199200000000001,1.1004000000000005,-0.6241999999999983,175,75
2026-05-07 18:38:35.816,3,-0.65,-1.2,0.19,-5.119200000000001,-0.35960000000000036,-2.0241999999999987,175,75
2026-05-07 18:38:35.832,3,-0.64,-1.2,0.18,-4.929200000000002,0.19040000000000035,-1.7241999999999997,175,75
2026-05-07 18:38:35.857,3,-0.63,-1.2,0.17,-3.2192000000000007,3.660399999999999,-2.214199999999999,175,75
2026-05-07 18:38:35.874,3,-0.64,-1.19,0.18,-2.9792000000000005,4.090400000000001,-1.9041999999999994,175,75
2026-05-07 18:38:35.916,3,-0.63,-1.19,0.21,-3.6492000000000004,2.8704,-1.6041999999999987,175,75
2026-05-07 18:38:35.916,3,-0.63,-1.18,0.2,-4.259200000000002,2.4404000000000003,-1.3541999999999987,175,75
2026-05-07 18:38:35.926,3,-0.63,-1.19,0.2,-4.509200000000002,1.5904000000000007,-1.4141999999999992,175,75
2026-05-07 18:38:35.929,3,-0.63,-1.2,0.19,-4.749200000000002,-0.23959999999999937,-1.2941999999999982,175,75
2026-05-07 18:38:35.995,3,-0.63,-1.2,0.17,-2.549200000000001,3.8504000000000005,-2.0241999999999987,175,75
2026-05-07 18:38:36.010,3,-0.63,-1.19,0.16,-2.0692000000000004,2.8103999999999996,-0.5641999999999996,175,75
2026-05-07 18:38:36.028,3,-0.63,-1.2,0.19,0.19079999999999941,4.820399999999999,-0.4441999999999986,175,75
2026-05-07 18:38:36.053,3,-0.63,-1.19,0.17,0.8607999999999976,2.0204000000000004,1.4458000000000002,175,75
2026-05-07 18:38:36.099,3,-0.65,-1.2,0.16,2.6907999999999994,2.1403999999999996,2.665800000000001,175,75
2026-05-07 18:38:36.110,3,-0.65,-1.2,0.17,3.4208,2.6304,2.0558000000000014,175,75
2026-05-07 18:38:36.121,3,-0.65,-1.19,0.2,3.6007999999999996,2.4404000000000003,1.5658000000000012,175,75
2026-05-07 18:38:36.139,3,-0.65,-1.19,0.18,2.6308000000000007,0.6804000000000006,0.8958000000000013,175,75
2026-05-07 18:38:36.162,3,-0.65,-1.19,0.18,3.3607999999999976,2.0204000000000004,1.0258000000000003,175,75
2026-05-07 18:38:36.182,3,-0.62,-1.19,0.2,2.870799999999999,0.9204000000000008,1.4458000000000002,175,75
2026-05-07 18:38:36.193,3,-0.62,-1.19,0.2,2.6907999999999994,0.7403999999999993,1.7558000000000007,175,75
2026-05-07 18:38:36.205,3,-0.63,-1.2,0.2,2.6308000000000007,1.5904000000000007,2.3658,175,75
2026-05-07 18:38:36.218,3,-0.63,-1.19,0.2,2.9908,2.8103999999999996,2.1758000000000006,175,75
2026-05-07 18:38:36.230,3,-0.63,-1.19,0.21,2.870799999999999,2.3804,2.3058000000000014,175,75
2026-05-07 18:38:36.243,3,-0.63,-1.19,0.21,2.3808000000000007,2.4404000000000003,2.5458000000000016,175,75
2026-05-07 18:38:36.255,3,-0.65,-1.19,0.21,2.2007999999999974,2.9304000000000006,2.7258000000000013,175,75
2026-05-07 18:38:36.265,3,-0.65,-1.19,0.22,1.6508000000000003,2.080400000000001,1.9358000000000004,175,75
2026-05-07 18:38:36.289,3,-0.65,-1.21,0.2,0.25079999999999814,0.010400000000000631,1.7558000000000007,175,75
2026-05-07 18:38:36.308,3,-0.66,-1.18,0.19,1.4708000000000006,4.400399999999999,1.2658000000000005,175,75
2026-05-07 18:38:36.337,3,-0.64,-1.18,0.24,1.1007999999999996,4.150399999999999,0.16580000000000084,175,75
2026-05-07 18:38:36.337,3,-0.63,-1.18,0.22,0.1308000000000007,1.6503999999999994,0.41580000000000084,175,75
2026-05-07 18:38:36.365,3,-0.64,-1.2,0.21,-0.659200000000002,2.8103999999999996,-0.01419999999999888,175,75
2026-05-07 18:38:36.391,3,-0.64,-1.19,0.21,-0.539200000000001,3.8504000000000005,-0.01419999999999888,175,75
2026-05-07 18:38:36.405,3,-0.65,-1.19,0.2,-0.789200000000001,4.090400000000001,-0.2641999999999989,175,75
2026-05-07 18:38:36.406,3,-0.65,-1.19,0.21,-0.909200000000002,4.340400000000001,-0.4441999999999986,175,75
2026-05-07 18:38:36.433,3,-0.64,-1.19,0.21,-1.6392000000000024,2.9304000000000006,-0.8741999999999983,175,75
2026-05-07 18:38:36.455,3,-0.63,-1.2,0.22,-1.9391999999999996,3.0504,-0.8741999999999983,175,75
2026-05-07 18:38:36.466,3,-0.64,-1.19,0.21,-1.8192000000000021,2.5703999999999994,-0.2641999999999989,175,75
2026-05-07 18:38:36.477,3,-0.63,-1.19,0.19,-1.8792000000000009,2.750400000000001,-0.2641999999999989,175,75
2026-05-07 18:38:36.486,3,-0.64,-1.2,0.2,-1.7591999999999999,2.6904000000000003,-0.1941999999999986,175,75
2026-05-07 18:38:36.532,3,-0.64,-1.19,0.2,-0.5991999999999997,2.3203999999999994,-0.01419999999999888,175,75
2026-05-07 18:38:36.548,3,-0.64,-1.19,0.2,-0.4792000000000023,2.0204000000000004,-0.1941999999999986,175,75
2026-05-07 18:38:36.559,3,-0.64,-1.18,0.19,-0.2992000000000026,2.3203999999999994,0.10580000000000034,175,75
2026-05-07 18:38:36.571,3,-0.64,-1.18,0.2,0.19079999999999941,3.1804000000000006,0.16580000000000084,175,75
2026-05-07 18:38:36.589,3,-0.64,-1.19,0.21,0.4908000000000001,3.1204,0.34580000000000055,175,75
2026-05-07 18:38:36.601,3,-0.64,-1.19,0.2,0.25079999999999814,3.3004,0.28580000000000183,175,75
2026-05-07 18:38:36.612,3,-0.64,-1.19,0.2,0.4908000000000001,3.7904,0.22580000000000133,175,75
2026-05-07 18:38:36.635,3,-0.64,-1.2,0.2,0.9207999999999998,4.2704,0.41580000000000084,175,75
2026-05-07 18:38:36.645,3,-0.64,-1.2,0.21,1.0407999999999973,4.150399999999999,0.34580000000000055,175,75
2026-05-07 18:38:36.694,3,-0.65,-1.19,0.21,-0.4792000000000023,3.0504,0.34580000000000055,175,75
2026-05-07 18:38:36.694,3,-0.65,-1.2,0.22,-0.4192,3.7904,-0.3841999999999999,175,75
2026-05-07 18:38:36.708,3,-0.64,-1.2,0.22,-0.8491999999999997,3.7904,-0.3841999999999999,175,75
2026-05-07 18:38:36.728,3,-0.65,-1.19,0.22,-1.2692000000000014,4.0304,-0.6841999999999988,175,75
2026-05-07 18:38:36.742,3,-0.64,-1.19,0.23,-1.6992000000000012,3.4803999999999995,-0.8741999999999983,175,75
2026-05-07 18:38:36.754,3,-0.64,-1.19,0.22,-2.619200000000001,2.0204000000000004,-1.0541999999999998,175,75
2026-05-07 18:38:36.766,3,-0.64,-1.18,0.21,-2.619200000000001,2.0204000000000004,-0.6241999999999983,175,75
2026-05-07 18:38:36.766,3,-0.64,-1.2,0.21,-3.289200000000001,1.3504000000000005,-0.6241999999999983,175,75
2026-05-07 18:38:36.802,3,-0.63,-1.19,0.21,-2.799200000000001,2.750400000000001,-1.2341999999999995,175,75
2026-05-07 18:38:36.814,3,-0.64,-1.19,0.21,-3.289200000000001,1.7704000000000004,-0.9341999999999988,175,75
2026-05-07 18:38:36.846,3,-0.64,-1.19,0.2,-3.5292000000000012,1.4703999999999997,-0.9341999999999988,175,75
2026-05-07 18:38:36.855,3,-0.65,-1.19,0.2,-2.919200000000002,1.6503999999999994,-1.1141999999999985,175,75
2026-05-07 18:38:36.870,3,-0.64,-1.19,0.2,-2.919200000000002,1.8404000000000007,-1.174199999999999,175,75
2026-05-07 18:38:36.878,3,-0.64,-1.19,0.2,-2.7392000000000003,1.4103999999999992,-0.8741999999999983,175,75
2026-05-07 18:38:36.910,3,-0.63,-1.2,0.19,-2.369200000000001,1.5904000000000007,-0.5641999999999996,175,75
2026-05-07 18:38:36.911,3,-0.63,-1.2,0.19,-1.8192000000000021,2.2604000000000006,-0.4441999999999986,175,75
2026-05-07 18:38:36.926,3,-0.63,-1.19,0.21,-1.6392000000000024,2.2004,-0.5641999999999996,175,75
2026-05-07 18:38:36.943,3,-0.61,-1.19,0.2,-2.0092,0.8604000000000003,0.04580000000000162,175,75
2026-05-07 18:38:36.958,3,-0.63,-1.19,0.2,-2.0692000000000004,0.8003999999999998,0.8358000000000008,175,75
2026-05-07 18:38:36.972,3,-0.63,-1.2,0.18,-1.0892000000000017,2.2604000000000006,1.1458000000000013,175,75
2026-05-07 18:38:36.985,3,-0.63,-1.19,0.22,0.1308000000000007,2.750400000000001,0.7758000000000003,175,75
2026-05-07 18:38:37.003,3,-0.63,-1.19,0.2,-0.659200000000002,1.5904000000000007,1.5658000000000012,175,75
2026-05-07 18:38:37.021,3,-0.63,-1.19,0.19,-0.2992000000000026,2.9903999999999993,1.6258000000000017,175,75
2026-05-07 18:38:37.021,3,-0.64,-1.19,0.2,0.07079999999999842,3.6004000000000005,1.4458000000000002,175,75
2026-05-07 18:38:37.046,3,-0.63,-1.2,0.22,-0.539200000000001,2.8103999999999996,1.5658000000000012,175,75
2026-05-07 18:38:37.046,3,-0.65,-1.2,0.21,-0.4792000000000023,2.750400000000001,1.8158000000000012,175,75
2026-05-07 18:38:37.081,3,-0.64,-1.18,0.22,-1.1492000000000004,1.7104,1.1458000000000013,175,75
2026-05-07 18:38:37.092,3,-0.63,-1.19,0.22,-1.6992000000000012,1.0404,1.0858000000000008,175,75
2026-05-07 18:38:37.104,3,-0.63,-1.19,0.21,-2.3092000000000006,0.6204000000000001,1.2058000000000018,175,75
2026-05-07 18:38:37.118,3,-0.65,-1.2,0.19,-2.3092000000000006,0.9803999999999995,1.2058000000000018,175,75
2026-05-07 18:38:37.129,3,-0.64,-1.19,0.19,-2.0092,1.8404000000000007,1.0858000000000008,175,75
2026-05-07 18:38:37.159,3,-0.64,-1.19,0.21,-1.2092000000000027,3.4803999999999995,0.9558000000000018,175,75
2026-05-07 18:38:37.181,3,-0.64,-1.19,0.21,-1.8792000000000009,2.5104000000000006,1.0858000000000008,175,75
2026-05-07 18:38:37.185,3,-0.65,-1.19,0.2,-1.8192000000000021,2.6904000000000003,0.47580000000000133,175,75
2026-05-07 18:38:37.199,3,-0.64,-1.19,0.21,-2.0092,2.8704,0.655800000000001,175,75
2026-05-07 18:38:37.213,3,-0.64,-1.19,0.22,-2.0692000000000004,2.5104000000000006,0.16580000000000084,175,75
2026-05-07 18:38:37.223,3,-0.64,-1.19,0.2,-2.129200000000001,1.9003999999999994,0.47580000000000133,175,75
2026-05-07 18:38:37.249,3,-0.64,-1.2,0.19,-2.0092,2.5703999999999994,0.8958000000000013,175,75
2026-05-07 18:38:37.285,3,-0.65,-1.19,0.21,-1.6992000000000012,4.400399999999999,-0.01419999999999888,175,75
2026-05-07 18:38:37.285,3,-0.65,-1.19,0.2,-1.8792000000000009,4.580400000000001,-0.2641999999999989,175,75
2026-05-07 18:38:37.305,3,-0.64,-1.19,0.22,-2.549200000000001,3.660399999999999,-0.6241999999999983,175,75
2026-05-07 18:38:37.330,3,-0.64,-1.19,0.21,-3.039200000000001,2.0204000000000004,-0.1941999999999986,175,75
2026-05-07 18:38:37.330,3,-0.63,-1.19,0.2,-3.289200000000001,1.4103999999999992,0.28580000000000183,175,75
2026-05-07 18:38:37.351,3,-0.63,-1.2,0.19,-2.4292000000000016,2.080400000000001,0.8958000000000013,175,75
2026-05-07 18:38:37.369,3,-0.64,-1.2,0.2,-1.7591999999999999,3.660399999999999,0.9558000000000018,175,75
2026-05-07 18:38:37.380,3,-0.64,-1.19,0.21,-1.5192000000000014,3.3604000000000003,0.655800000000001,175,75
2026-05-07 18:38:37.386,3,-0.63,-1.18,0.21,-1.8792000000000009,2.8704,1.0858000000000008,175,75
2026-05-07 18:38:37.398,3,-0.64,-1.18,0.22,-2.369200000000001,1.7104,1.5658000000000012,175,75
2026-05-07 18:38:37.407,3,-0.63,-1.19,0.2,-2.549200000000001,0.9803999999999995,1.8758000000000017,175,75
2026-05-07 18:38:37.435,3,-0.65,-1.19,0.19,-2.369200000000001,1.4103999999999992,1.9358000000000004,175,75
2026-05-07 18:38:37.445,3,-0.65,-1.19,0.18,-1.6992000000000012,2.5104000000000006,1.8758000000000017,175,75
2026-05-07 18:38:37.450,3,-0.65,-1.19,0.19,-1.2692000000000014,4.150399999999999,1.1458000000000013,175,75
2026-05-07 18:38:37.459,3,-0.65,-1.19,0.2,-1.1492000000000004,4.6404,0.9558000000000018,175,75
2026-05-07 18:38:37.483,3,-0.65,-1.19,0.2,-1.1492000000000004,4.5204,1.2658000000000005,175,75
2026-05-07 18:38:37.500,3,-0.65,-1.19,0.21,-2.0092,3.3004,0.655800000000001,175,75
2026-05-07 18:38:37.509,3,-0.64,-1.19,0.21,-2.3092000000000006,3.1804000000000006,0.16580000000000084,175,75
2026-05-07 18:38:37.523,3,-0.64,-1.19,0.2,-2.549200000000001,3.0504,0.22580000000000133,175,75
2026-05-07 18:38:37.540,3,-0.65,-1.19,0.19,-2.249200000000002,3.3004,0.28580000000000183,175,75
2026-05-07 18:38:37.552,3,-0.65,-1.19,0.19,-2.0692000000000004,3.910399999999999,0.41580000000000084,175,75
2026-05-07 18:38:37.563,3,-0.64,-1.2,0.2,-2.249200000000002,4.400399999999999,0.04580000000000162,175,75
2026-05-07 18:38:37.563,3,-0.64,-1.2,0.21,-1.9391999999999996,3.6004000000000005,-0.3841999999999999,175,75
2026-05-07 18:38:37.578,3,-0.64,-1.19,0.2,-2.4292000000000016,3.2403999999999993,-0.3241999999999994,175,75
2026-05-07 18:38:37.589,3,-0.64,-1.19,0.2,-2.3092000000000006,3.4204000000000008,-0.1941999999999986,175,75
2026-05-07 18:38:37.617,3,-0.64,-1.19,0.2,-2.369200000000001,3.3604000000000003,-0.1941999999999986,175,75
2026-05-07 18:38:37.631,3,-0.64,-1.19,0.2,-2.3092000000000006,3.8504000000000005,-0.3241999999999994,175,75
2026-05-07 18:38:37.642,3,-0.64,-1.19,0.2,-2.3092000000000006,3.910399999999999,0.04580000000000162,175,75
2026-05-07 18:38:37.656,3,-0.65,-1.19,0.19,-2.0692000000000004,4.820399999999999,-0.5641999999999996,175,75
2026-05-07 18:38:37.668,3,-0.65,-1.19,0.2,-2.369200000000001,4.580400000000001,-0.5641999999999996,175,75
2026-05-07 18:38:37.681,3,-0.65,-1.2,0.21,-2.369200000000001,4.7004,-0.6241999999999983,175,75
2026-05-07 18:38:37.702,3,-0.64,-1.19,0.2,-3.1592000000000002,3.4803999999999995,-0.5041999999999991,175,75
2026-05-07 18:38:37.716,3,-0.65,-1.19,0.2,-3.2192000000000007,3.5404,-0.9941999999999993,175,75
2026-05-07 18:38:37.733,3,-0.64,-1.19,0.18,-3.039200000000001,3.2403999999999993,-0.8741999999999983,175,75
2026-05-07 18:38:37.745,3,-0.64,-1.19,0.18,-3.1592000000000002,3.4204000000000008,-0.5041999999999991,175,75
2026-05-07 18:38:37.770,3,-0.64,-1.19,0.2,-2.4892000000000003,3.7904,-0.5641999999999996,175,75
2026-05-07 18:38:37.800,3,-0.64,-1.19,0.2,-2.6792000000000016,2.8103999999999996,-0.6841999999999988,175,75
2026-05-07 18:38:37.826,3,-0.64,-1.19,0.19,-2.4892000000000003,3.660399999999999,-0.6241999999999983,175,75
2026-05-07 18:38:37.826,3,-0.65,-1.19,0.19,-2.3092000000000006,3.660399999999999,-0.5041999999999991,175,75
2026-05-07 18:38:37.845,3,-0.64,-1.19,0.19,-2.4292000000000016,3.6004000000000005,-0.9941999999999993,175,75
2026-05-07 18:38:37.849,3,-0.65,-1.19,0.19,-2.4292000000000016,3.4204000000000008,-0.9341999999999988,175,75
2026-05-07 18:38:37.869,3,-0.65,-1.19,0.18,-2.1892000000000014,3.4803999999999995,-0.7441999999999993,175,75
2026-05-07 18:38:37.881,3,-0.64,-1.19,0.18,-1.9391999999999996,4.150399999999999,-1.1141999999999985,175,75
2026-05-07 18:38:37.892,3,-0.64,-1.19,0.2,-1.9391999999999996,3.4803999999999995,-0.7441999999999993,175,75
2026-05-07 18:38:37.904,3,-0.64,-1.19,0.2,-2.3092000000000006,2.6304,-0.6241999999999983,175,75
2026-05-07 18:38:37.904,3,-0.64,-1.19,0.2,-2.6792000000000016,2.3203999999999994,-0.5641999999999996,175,75
2026-05-07 18:38:37.916,3,-0.63,-1.19,0.19,-2.619200000000001,2.2604000000000006,-0.07419999999999938,175,75
2026-05-07 18:38:37.930,3,-0.64,-1.19,0.19,-2.549200000000001,2.6304,-0.07419999999999938,175,75
2026-05-07 18:38:37.947,3,-0.64,-1.19,0.18,-2.4292000000000016,2.5104000000000006,-0.6841999999999988,175,75
2026-05-07 18:38:37.958,3,-0.64,-1.19,0.18,-2.549200000000001,2.5104000000000006,-0.4441999999999986,175,75
2026-05-07 18:38:37.983,3,-0.64,-1.19,0.19,-1.5792000000000002,2.5703999999999994,-0.6841999999999988,175,75
2026-05-07 18:38:37.997,3,-0.64,-1.19,0.19,-2.0692000000000004,2.4404000000000003,-0.6841999999999988,175,75
2026-05-07 18:38:38.023,3,-0.64,-1.2,0.18,-1.6992000000000012,2.1403999999999996,-0.3241999999999994,175,75
2026-05-07 18:38:38.023,3,-0.64,-1.19,0.18,-1.2692000000000014,3.1204,-0.3841999999999999,175,75
2026-05-07 18:38:38.036,3,-0.63,-1.19,0.18,-0.539200000000001,3.660399999999999,-0.1941999999999986,175,75
2026-05-07 18:38:38.049,3,-0.64,-1.19,0.19,-0.17920000000000158,4.090400000000001,-0.6241999999999983,175,75
2026-05-07 18:38:38.071,3,-0.63,-1.19,0.19,-0.5991999999999997,3.8504000000000005,-0.07419999999999938,175,75
2026-05-07 18:38:38.076,3,-0.63,-1.19,0.2,-0.8491999999999997,2.9304000000000006,0.16580000000000084,175,75
2026-05-07 18:38:38.094,3,-0.63,-1.19,0.19,-0.909200000000002,2.6304,0.34580000000000055,175,75
2026-05-07 18:38:38.108,3,-0.64,-1.2,0.19,-0.539200000000001,3.2403999999999993,0.47580000000000133,175,75
2026-05-07 18:38:38.108,3,-0.64,-1.2,0.19,-0.539200000000001,3.0504,0.28580000000000183,175,75
2026-05-07 18:38:38.119,3,-0.64,-1.19,0.18,-0.659200000000002,2.5703999999999994,0.34580000000000055,175,75
2026-05-07 18:38:38.129,3,-0.63,-1.19,0.19,-0.659200000000002,3.1804000000000006,0.22580000000000133,175,75
2026-05-07 18:38:38.140,3,-0.64,-1.19,0.19,-0.5991999999999997,2.9304000000000006,0.22580000000000133,175,75
2026-05-07 18:38:38.149,3,-0.64,-1.19,0.19,-0.4792000000000023,3.1804000000000006,0.22580000000000133,175,75
2026-05-07 18:38:38.157,3,-0.64,-1.19,0.19,-0.4792000000000023,3.0504,0.16580000000000084,175,75
2026-05-07 18:38:38.191,3,-0.63,-1.19,0.19,-0.4192,2.4404000000000003,1.1458000000000013,175,75
2026-05-07 18:38:38.197,3,-0.63,-1.19,0.2,-0.4792000000000023,2.8103999999999996,1.0858000000000008,175,75
2026-05-07 18:38:38.210,3,-0.63,-1.19,0.19,-0.5991999999999997,2.2004,1.2058000000000018,175,75
2026-05-07 18:38:38.221,3,-0.64,-1.19,0.18,-0.5991999999999997,2.080400000000001,1.5658000000000012,175,75
2026-05-07 18:38:38.232,3,-0.63,-1.19,0.18,-0.1191999999999993,2.5703999999999994,1.7558000000000007,175,75
2026-05-07 18:38:38.232,3,-0.64,-1.2,0.19,-0.17920000000000158,3.0504,1.5058000000000007,175,75
2026-05-07 18:38:38.247,3,-0.64,-1.19,0.19,-0.1191999999999993,3.3004,1.0858000000000008,175,75
2026-05-07 18:38:38.260,3,-0.65,-1.19,0.19,-0.1191999999999993,2.9903999999999993,1.3858000000000015,175,75
2026-05-07 18:38:38.267,3,-0.64,-1.19,0.2,-0.3592000000000013,2.6904000000000003,1.5058000000000007,175,75
2026-05-07 18:38:38.293,3,-0.64,-1.19,0.2,-1.0291999999999994,2.5104000000000006,1.0858000000000008,175,75
2026-05-07 18:38:38.316,3,-0.64,-1.19,0.19,-0.909200000000002,3.0504,1.0858000000000008,175,75
2026-05-07 18:38:38.327,3,-0.64,-1.19,0.19,-0.8491999999999997,3.0504,1.0858000000000008,175,75
2026-05-07 18:38:38.335,3,-0.64,-1.19,0.19,-0.7192000000000007,3.8504000000000005,1.2658000000000005,175,75
2026-05-07 18:38:38.350,3,-0.64,-1.19,0.2,-0.4792000000000023,4.2104,0.9558000000000018,175,75
2026-05-07 18:38:38.358,3,-0.64,-1.19,0.21,-1.6992000000000012,2.080400000000001,0.9558000000000018,175,75
2026-05-07 18:38:38.384,3,-0.66,-1.19,0.18,-1.1492000000000004,3.7303999999999995,0.9558000000000018,175,75
2026-05-07 18:38:38.384,3,-0.65,-1.2,0.19,-0.789200000000001,4.340400000000001,0.16580000000000084,175,75
2026-05-07 18:38:38.413,3,-0.64,-1.19,0.2,-1.2692000000000014,3.1804000000000006,0.22580000000000133,175,75
2026-05-07 18:38:38.422,3,-0.64,-1.19,0.2,-1.4592000000000027,2.6304,0.16580000000000084,175,75
2026-05-07 18:38:38.434,3,-0.64,-1.19,0.18,-1.7591999999999999,2.6904000000000003,0.47580000000000133,175,75
2026-05-07 18:38:38.459,3,-0.63,-1.19,0.19,-1.3992000000000004,2.8704,0.34580000000000055,175,75
2026-05-07 18:38:38.465,3,-0.65,-1.2,0.19,-1.2692000000000014,3.1204,0.41580000000000084,175,75
2026-05-07 18:38:38.509,3,-0.64,-1.2,0.2,-1.2692000000000014,3.3004,0.41580000000000084,175,75
2026-05-07 18:38:38.515,3,-0.64,-1.2,0.2,-1.7591999999999999,2.9304000000000006,0.28580000000000183,175,75
2026-05-07 18:38:38.528,3,-0.65,-1.19,0.19,-2.0692000000000004,2.3804,-0.13419999999999987,175,75
2026-05-07 18:38:38.582,3,-0.64,-1.19,0.18,-1.8792000000000009,2.4404000000000003,0.41580000000000084,175,75
2026-05-07 18:38:38.592,3,-0.64,-1.2,0.19,-1.7591999999999999,3.0504,0.16580000000000084,175,75
2026-05-07 18:38:38.633,3,-0.65,-1.19,0.19,-0.8491999999999997,3.6004000000000005,0.10580000000000034,175,75
2026-05-07 18:38:38.644,3,-0.65,-1.19,0.19,-0.9692000000000007,3.660399999999999,-0.3841999999999999,175,75
2026-05-07 18:38:38.656,3,-0.65,-1.19,0.2,-1.1492000000000004,3.3604000000000003,-0.4441999999999986,175,75
2026-05-07 18:38:38.672,3,-0.64,-1.19,0.19,-1.3992000000000004,2.9903999999999993,-0.7441999999999993,175,75
2026-05-07 18:38:38.683,3,-0.64,-1.19,0.2,-1.1492000000000004,2.750400000000001,-0.6241999999999983,175,75
2026-05-07 18:38:38.693,3,-0.64,-1.19,0.19,-1.1492000000000004,2.6304,-0.4441999999999986,175,75
2026-05-07 18:38:38.710,3,-0.63,-1.19,0.19,-0.8491999999999997,3.1804000000000006,-0.01419999999999888,175,75
2026-05-07 18:38:38.731,3,-0.64,-1.2,0.19,-0.4792000000000023,3.7303999999999995,-0.07419999999999938,175,75
2026-05-07 18:38:38.742,3,-0.64,-1.19,0.18,-0.049200000000002575,4.4604,0.10580000000000034,175,75
2026-05-07 18:38:38.755,3,-0.64,-1.19,0.2,0.010799999999999699,4.6404,-0.1941999999999986,175,75
2026-05-07 18:38:38.755,3,-0.65,-1.19,0.2,-0.3592000000000013,4.760400000000001,0.16580000000000084,175,75
2026-05-07 18:38:38.769,3,-0.64,-1.19,0.21,-1.0291999999999994,3.7303999999999995,-0.01419999999999888,175,75
2026-05-07 18:38:38.791,3,-0.64,-1.19,0.2,-1.5792000000000002,2.8103999999999996,0.04580000000000162,175,75
2026-05-07 18:38:38.801,3,-0.65,-1.2,0.19,-1.5192000000000014,2.8704,0.10580000000000034,175,75
2026-05-07 18:38:38.833,3,-0.65,-1.19,0.19,-1.2092000000000027,3.6004000000000005,-0.4441999999999986,175,75
2026-05-07 18:38:38.839,3,-0.64,-1.19,0.2,-1.5192000000000014,2.9304000000000006,-0.3841999999999999,175,75
2026-05-07 18:38:38.849,3,-0.64,-1.19,0.21,-2.0092,3.2403999999999993,-0.13419999999999987,175,75
2026-05-07 18:38:38.859,3,-0.63,-1.2,0.2,-2.1892000000000014,2.0204000000000004,-0.1941999999999986,175,75
2026-05-07 18:38:38.871,3,-0.64,-1.19,0.18,-2.4292000000000016,2.4404000000000003,0.34580000000000055,175,75
2026-05-07 18:38:38.886,3,-0.64,-1.2,0.18,-1.5192000000000014,4.0304,-0.4441999999999986,175,75
2026-05-07 18:38:38.899,3,-0.64,-1.19,0.18,-1.0892000000000017,3.8504000000000005,-0.2641999999999989,175,75
2026-05-07 18:38:38.908,3,-0.64,-1.19,0.19,-1.0291999999999994,3.9703999999999997,-0.1941999999999986,175,75
2026-05-07 18:38:38.932,3,-0.63,-1.19,0.2,-1.7591999999999999,2.4404000000000003,-0.1941999999999986,175,75
2026-05-07 18:38:38.956,3,-0.64,-1.2,0.18,-1.8192000000000021,3.4204000000000008,0.16580000000000084,175,75
2026-05-07 18:38:38.980,3,-0.64,-1.2,0.19,-1.3992000000000004,3.660399999999999,-0.6841999999999988,175,75
2026-05-07 18:38:38.991,3,-0.64,-1.19,0.19,-1.8792000000000009,3.1204,-0.3241999999999994,175,75
2026-05-07 18:38:39.003,3,-0.64,-1.2,0.19,-2.129200000000001,3.1204,-0.3841999999999999,175,75
2026-05-07 18:38:39.015,3,-0.64,-1.19,0.19,-2.249200000000002,3.8504000000000005,-0.5041999999999991,175,75
2026-05-07 18:38:39.025,3,-0.64,-1.2,0.2,-2.0692000000000004,2.9903999999999993,-0.5041999999999991,175,75
2026-05-07 18:38:39.039,3,-0.64,-1.19,0.19,-2.4892000000000003,2.1403999999999996,-0.2641999999999989,175,75
2026-05-07 18:38:39.050,3,-0.64,-1.19,0.18,-1.9391999999999996,2.9903999999999993,-0.1941999999999986,175,75
2026-05-07 18:38:39.061,3,-0.64,-1.19,0.19,-1.9391999999999996,3.6004000000000005,-0.4441999999999986,175,75
2026-05-07 18:38:39.073,3,-0.64,-1.19,0.19,-2.3092000000000006,3.1204,-0.5641999999999996,175,75
2026-05-07 18:38:39.085,3,-0.64,-1.19,0.18,-2.4292000000000016,3.3004,-0.13419999999999987,175,75
2026-05-07 18:38:39.088,3,-0.65,-1.2,0.19,-2.249200000000002,4.0304,-0.5041999999999991,175,75
2026-05-07 18:38:39.102,3,-0.64,-1.19,0.2,-2.549200000000001,3.1204,-0.8741999999999983,175,75
2026-05-07 18:38:39.116,3,-0.64,-1.19,0.2,-2.9792000000000005,2.2604000000000006,-0.6241999999999983,175,75
2026-05-07 18:38:39.126,3,-0.63,-1.19,0.19,-3.2192000000000007,2.0204000000000004,-0.6241999999999983,175,75
2026-05-07 18:38:39.155,3,-0.64,-1.19,0.19,-3.7692000000000014,1.1004000000000005,0.04580000000000162,175,75
2026-05-07 18:38:39.166,3,-0.64,-1.2,0.18,-3.6492000000000004,2.2004,-0.07419999999999938,175,75
2026-05-07 18:38:39.166,3,-0.65,-1.2,0.18,-3.4092000000000002,3.1804000000000006,-0.5641999999999996,175,75
2026-05-07 18:38:39.177,3,-0.65,-1.19,0.18,-2.8592000000000013,3.660399999999999,-1.1141999999999985,175,75
2026-05-07 18:38:39.200,3,-0.64,-1.19,0.18,-2.9792000000000005,2.750400000000001,-0.9941999999999993,175,75
2026-05-07 18:38:39.213,3,-0.64,-1.19,0.19,-2.9792000000000005,2.9304000000000006,-0.8741999999999983,175,75
2026-05-07 18:38:39.224,3,-0.63,-1.19,0.19,-3.4092000000000002,1.5304000000000002,-0.9941999999999993,175,75
2026-05-07 18:38:39.255,3,-0.63,-1.19,0.17,-3.289200000000001,2.5104000000000006,-0.7441999999999993,175,75
2026-05-07 18:38:39.266,3,-0.63,-1.19,0.18,-2.9792000000000005,3.3604000000000003,-0.2641999999999989,175,75
2026-05-07 18:38:39.279,3,-0.63,-1.19,0.18,-2.4892000000000003,4.2704,-0.3841999999999999,175,75
2026-05-07 18:38:39.279,3,-0.63,-1.19,0.18,-2.8592000000000013,3.3604000000000003,-0.2641999999999989,175,75
2026-05-07 18:38:39.301,3,-0.64,-1.19,0.18,-2.6792000000000016,4.2104,-0.4441999999999986,175,75
2026-05-07 18:38:39.319,3,-0.64,-1.19,0.17,-3.039200000000001,3.0504,-0.3241999999999994,175,75
2026-05-07 18:38:39.326,3,-0.64,-1.19,0.17,-2.799200000000001,3.4204000000000008,0.16580000000000084,175,75
2026-05-07 18:38:39.340,3,-0.63,-1.2,0.17,-2.4292000000000016,3.4803999999999995,-0.07419999999999938,175,75
2026-05-07 18:38:39.352,3,-0.64,-1.19,0.18,-2.1892000000000014,3.2403999999999993,-0.07419999999999938,175,75
2026-05-07 18:38:39.358,3,-0.64,-1.19,0.17,-2.129200000000001,3.8504000000000005,0.10580000000000034,175,75
2026-05-07 18:38:39.384,3,-0.65,-1.2,0.19,-2.6792000000000016,4.150399999999999,-0.2641999999999989,175,75
2026-05-07 18:38:39.384,3,-0.64,-1.2,0.2,-3.039200000000001,3.6004000000000005,-0.8041999999999998,175,75
2026-05-07 18:38:39.394,3,-0.64,-1.19,0.2,-3.289200000000001,2.8704,-0.8041999999999998,175,75
2026-05-07 18:38:39.407,3,-0.64,-1.2,0.2,-4.139200000000001,2.3203999999999994,-0.6841999999999988,175,75
2026-05-07 18:38:39.422,3,-0.64,-1.19,0.2,-4.629200000000001,2.5104000000000006,-1.2341999999999995,175,75
2026-05-07 18:38:39.433,3,-0.64,-1.18,0.2,-5.299200000000001,1.8404000000000007,-1.4741999999999997,175,75
2026-05-07 18:38:39.443,3,-0.64,-1.18,0.19,-6.089200000000002,1.2904,-1.7241999999999997,175,75
2026-05-07 18:38:39.489,3,-0.64,-1.19,0.19,-9.019200000000001,1.4703999999999997,-2.514199999999999,175,75
2026-05-07 18:38:39.502,3,-0.65,-1.18,0.18,-9.929200000000002,2.4404000000000003,-2.764199999999999,175,75
2026-05-07 18:38:39.513,3,-0.65,-1.19,0.18,-10.359200000000001,3.660399999999999,-3.6141999999999994,175,75
2026-05-07 18:38:39.519,3,-0.65,-1.2,0.2,-11.699200000000001,3.0504,-4.714199999999999,175,75
2026-05-07 18:38:39.533,3,-0.65,-1.21,0.19,-12.859200000000001,2.3203999999999994,-5.874199999999999,175,75
2026-05-07 18:38:39.557,3,-0.63,-1.21,0.19,-15.789200000000001,-0.23959999999999937,-6.844199999999999,175,75
2026-05-07 18:38:39.590,3,-0.61,-1.17,0.2,-15.4792,4.090400000000001,-8.2442,175,75
2026-05-07 18:38:39.602,3,-0.59,-1.19,0.19,-17.7392,-1.6395999999999997,-8.0642,175,75
2026-05-07 18:38:39.627,3,-0.62,-1.21,0.13,-17.249200000000002,3.4803999999999995,-8.374199999999998,175,75
2026-05-07 18:38:39.640,3,-0.64,-1.18,0.14,-17.3692,6.5904,-8.9142,175,75
2026-05-07 18:38:39.654,3,-0.65,-1.19,0.15,-17.9192,6.8404,-10.5642,175,75
2026-05-07 18:38:39.666,3,-0.64,-1.23,0.15,-19.8692,6.6504,-11.4142,175,75
2026-05-07 18:38:39.673,3,-0.64,-1.25,0.15,-20.2992,7.9904,-12.3942,175,75
2026-05-07 18:38:39.688,3,-0.61,-1.23,0.18,-22.069200000000002,3.7303999999999995,-13.9742,175,75
2026-05-07 18:38:39.699,3,-0.59,-1.2,0.16,-23.7692,-0.35960000000000036,-13.9142,175,75
2026-05-07 18:38:39.710,3,-0.58,-1.18,0.14,-24.8692,-2.3095999999999997,-12.274199999999999,175,75
2026-05-07 18:38:39.724,3,-0.57,-1.19,0.12,-25.1192,-4.1996,-11.114199999999999,175,75
2026-05-07 18:38:39.737,3,-0.58,-1.2,0.08,-25.1192,-3.7095999999999982,-9.6542,175,75
2026-05-07 18:38:39.773,3,-0.56,-1.18,0.03,-17.1292,5.9204,-6.474199999999999,175,75
2026-05-07 18:38:39.784,3,-0.55,-1.18,0.03,-14.749200000000002,6.1004000000000005,-4.584199999999999,175,75
2026-05-07 18:38:39.785,3,-0.54,-1.19,0.02,-12.679200000000002,5.070399999999999,-2.0241999999999987,175,75
2026-05-07 18:38:39.807,3,-0.57,-1.2,0.01,-10.0492,4.760400000000001,-0.6241999999999983,175,75
2026-05-07 18:38:39.819,3,-0.56,-1.18,-0.03,-6.639200000000001,5.8004,-0.07419999999999938,175,75
2026-05-07 18:38:39.833,3,-0.58,-1.17,-0.02,-2.4892000000000003,11.4704,2.6058000000000003,175,75
2026-05-07 18:38:39.848,3,-0.59,-1.22,0.04,1.590799999999998,17.5704,3.825800000000001,175,75
2026-05-07 18:38:39.863,3,-0.59,-1.21,0.09,3.2408,17.2604,3.2158000000000015,175,75
2026-05-07 18:38:39.905,3,-0.6,-1.21,0.1,1.2907999999999973,15.4304,5.895800000000001,175,75
2026-05-07 18:38:39.910,3,-0.58,-1.22,0.1,0.19079999999999941,12.6304,4.6158,175,75
2026-05-07 18:38:39.926,3,-0.59,-1.2,0.06,-0.2392000000000003,12.5704,4.735800000000001,175,75
2026-05-07 18:38:39.939,3,-0.6,-1.19,0.04,1.1007999999999996,17.200400000000002,4.675800000000001,175,75
2026-05-07 18:38:39.962,3,-0.58,-1.22,0.07,2.4507999999999974,19.520400000000002,4.6158,175,75
2026-05-07 18:38:39.962,3,-0.59,-1.22,0.06,3.300799999999999,19.520400000000002,4.805800000000001,175,75
2026-05-07 18:38:39.973,3,-0.59,-1.2,0.04,4.7608,18.7304,5.655800000000001,175,75
2026-05-07 18:38:39.985,3,-0.57,-1.16,0.01,6.1708,18.7304,6.505800000000001,175,75
2026-05-07 18:38:39.996,3,-0.58,-1.16,-0.01,8.300799999999999,20.2504,8.7058,175,75
2026-05-07 18:38:40.007,3,-0.6,-1.19,0.02,10.250799999999998,23.9104,10.105800000000002,175,75
2026-05-07 18:38:40.016,3,-0.6,-1.22,0.07,12.930799999999998,22.9304,9.495800000000003,175,75
2026-05-07 18:38:40.027,3,-0.59,-1.24,0.1,14.090800000000002,19.9404,8.645800000000001,175,75
2026-05-07 18:38:40.053,3,-0.58,-1.17,0.09,15.980800000000002,12.9904,9.375800000000002,175,75
2026-05-07 18:38:40.063,3,-0.54,-1.19,0.14,17.690799999999996,6.8404,12.785800000000002,175,75
2026-05-07 18:38:40.076,3,-0.57,-1.19,-0.07,16.470799999999997,-10.419599999999999,20.7758,175,75
2026-05-07 18:38:40.087,3,-0.68,-1.16,-0.09,25.800800000000002,6.7104,22.845800000000004,175,75
2026-05-07 18:38:40.100,3,-0.63,-1.2,0.01,31.410800000000002,9.0304,18.3958,175,75
2026-05-07 18:38:40.112,3,-0.6,-1.2,0.01,30.860799999999998,9.4004,18.1558,175,75
2026-05-07 18:38:40.131,3,-0.62,-1.2,0.12,35.9808,21.840400000000002,18.7058,175,75
2026-05-07 18:38:40.148,3,-0.7,-1.18,0.06,36.3508,19.3404,16.445800000000002,175,75
2026-05-07 18:38:40.157,3,-0.68,-1.2,0.08,39.8208,24.9404,13.395800000000001,175,75
2026-05-07 18:38:40.170,3,-0.71,-1.18,0.11,41.1008,31.2904,11.145800000000001,175,75
2026-05-07 18:38:40.205,3,-0.66,-1.16,0.18,37.9308,43.8504,8.1558,175,75
2026-05-07 18:38:40.258,3,-0.63,-1.21,0.27,29.7008,10.5504,11.445800000000002,175,75
2026-05-07 18:38:40.279,3,-0.67,-1.15,0.14,26.410800000000002,15.3704,16.8758,175,75
2026-05-07 18:38:40.328,3,-0.7,-1.17,0.29,18.0608,15.3104,12.605800000000002,175,75
2026-05-07 18:38:40.339,3,-0.71,-1.18,0.32,16.650799999999997,13.0504,9.735800000000001,175,75
2026-05-07 18:38:40.351,3,-0.71,-1.17,0.31,13.8508,9.580400000000001,9.0058,175,75
2026-05-07 18:38:40.382,3,-0.7,-1.18,0.25,10.1308,14.580400000000001,4.925800000000001,175,75
2026-05-07 18:38:40.418,3,-0.68,-1.18,0.29,8.360799999999998,11.5304,4.1958,175,75
2026-05-07 18:38:40.430,3,-0.69,-1.17,0.26,6.840799999999998,7.8704,4.6158,175,75
2026-05-07 18:38:40.435,3,-0.72,-1.16,0.22,5.680799999999998,12.2004,5.165800000000001,175,75
2026-05-07 18:38:40.448,3,-0.69,-1.16,0.27,6.1008,14.0904,5.655800000000001,175,75
2026-05-07 18:38:40.473,3,-0.66,-1.17,0.26,1.590799999999998,1.1603999999999992,6.875800000000002,175,75
2026-05-07 18:38:40.486,3,-0.7,-1.16,0.26,1.2307999999999986,0.43040000000000056,8.4558,175,75
2026-05-07 18:38:40.486,3,-0.69,-1.18,0.29,0.6207999999999991,-2.3095999999999997,7.915800000000001,175,75
2026-05-07 18:38:40.523,3,-0.68,-1.17,0.28,-3.4092000000000002,-9.3796,7.915800000000001,175,75
2026-05-07 18:38:40.527,3,-0.69,-1.17,0.26,-4.0792,-10.419599999999999,9.0658,175,75
2026-05-07 18:38:40.559,3,-0.71,-1.16,0.28,-4.3192,-8.529599999999999,7.425800000000002,175,75
2026-05-07 18:38:40.580,3,-0.72,-1.16,0.22,-5.9092,-8.099599999999999,8.4558,175,75
2026-05-07 18:38:40.610,3,-0.73,-1.17,0.25,-4.629200000000001,-7.489599999999999,6.2058,175,75
2026-05-07 18:38:40.627,3,-0.72,-1.16,0.22,-4.139200000000001,-4.1396000000000015,6.265800000000002,175,75
2026-05-07 18:38:40.641,3,-0.72,-1.18,0.24,-3.1592000000000002,-3.4696,5.655800000000001,175,75
2026-05-07 18:38:40.652,3,-0.72,-1.16,0.23,-2.619200000000001,-1.7596000000000007,5.415800000000001,175,75
2026-05-07 18:38:40.679,3,-0.73,-1.17,0.21,-1.0291999999999994,1.5304000000000002,6.445800000000002,175,75
2026-05-07 18:38:40.715,3,-0.71,-1.17,0.28,-4.869200000000001,-5.729600000000001,7.305800000000001,175,75
2026-05-07 18:38:40.739,3,-0.73,-1.17,0.3,-6.089200000000002,-5.0596,7.175800000000002,175,75
2026-05-07 18:38:40.750,3,-0.71,-1.16,0.31,-7.859200000000001,-9.689599999999999,7.1158,175,75
2026-05-07 18:38:40.766,3,-0.69,-1.16,0.3,-10.659200000000002,-13.409600000000001,7.665800000000001,175,75
2026-05-07 18:38:40.779,3,-0.69,-1.16,0.28,-12.5492,-15.7896,9.6158,175,75
2026-05-07 18:38:40.813,3,-0.78,-1.16,0.27,-13.769200000000001,-12.919599999999999,7.425800000000002,175,75
2026-05-07 18:38:40.854,3,-0.68,-1.19,0.33,-17.8592,-23.2296,8.0958,175,75
2026-05-07 18:38:40.857,3,-0.74,-1.18,0.27,-19.8692,-27.859599999999997,10.0458,175,75
2026-05-07 18:38:40.873,3,-0.78,-1.17,0.16,-20.1192,-26.2096,9.495800000000003,175,75
2026-05-07 18:38:40.884,3,-0.83,-1.17,0.13,-16.2692,-17.9796,6.995800000000003,175,75
2026-05-07 18:38:40.894,3,-0.74,-1.15,0.27,-12.069200000000002,-13.2896,2.485800000000001,175,75
2026-05-07 18:38:40.907,3,-0.71,-1.13,0.29,-14.019200000000001,-18.5296,4.735800000000001,175,75
2026-05-07 18:38:40.919,3,-0.66,-1.16,0.29,-16.3992,-29.319599999999998,7.9758,175,75
2026-05-07 18:38:40.937,3,-0.68,-1.18,0.25,-17.979200000000002,-35.6596,12.175800000000002,175,75
2026-05-07 18:38:40.950,3,-0.68,-1.19,0.18,-15.539200000000001,-41.209599999999995,16.265800000000002,175,75
2026-05-07 18:38:40.961,3,-0.71,-1.18,0.11,-13.529200000000001,-37.9196,20.3458,175,75
2026-05-07 18:38:40.986,3,-0.68,-1.26,0.15,-5.6592,-39.0796,22.785800000000002,175,75
2026-05-07 18:38:40.997,3,-0.69,-1.28,0.1,-3.3492000000000015,-41.949600000000004,26.2658,175,75
2026-05-07 18:38:41.020,3,-0.73,-1.32,0.03,12.020799999999998,-34.199600000000004,25.535800000000002,175,75
2026-05-07 18:38:41.036,3,-0.75,-1.19,0.25,23.970799999999997,-14.3796,18.0958,175,75
2026-05-07 18:38:41.050,3,-0.73,-1.16,0.24,18.360799999999998,-28.7096,23.2158,175,75
2026-05-07 18:38:41.068,3,-0.9,-1.1,0.34,24.400799999999997,-2.4895999999999994,18.6458,175,75
2026-05-07 18:38:41.075,3,-0.56,-1.17,0.63,18.2408,-23.899600000000003,17.3658,175,75
2026-05-07 18:38:41.095,3,-0.89,-1.02,0.25,3.0608000000000004,-21.4596,15.715800000000002,175,75
2026-05-07 18:38:41.105,3,-0.61,-1.09,0.33,-0.8491999999999997,-24.929599999999997,12.1158,175,75
2026-05-07 18:38:41.116,3,-0.86,-1.04,0.27,-2.6792000000000016,-22.7396,16.995800000000003,175,75
2026-05-07 18:38:41.156,3,-0.84,-1.05,0.38,-5.8492000000000015,-19.4496,12.605800000000002,175,75
2026-05-07 18:38:41.169,3,-0.86,-1.07,0.38,-8.039200000000001,-22.189600000000002,10.6558,175,75
2026-05-07 18:38:41.187,3,-0.84,-1.05,0.32,-10.7192,-21.639599999999998,6.3858,175,75
2026-05-07 18:38:41.194,3,-0.88,-0.98,0.28,-10.479200000000002,-16.1496,3.7658000000000005,175,75
2026-05-07 18:38:41.211,3,-0.88,-0.96,0.25,-9.5692,-12.7396,2.5458000000000016,175,75
2026-05-07 18:38:41.216,3,-0.86,-1.01,0.21,-9.9892,-11.8796,0.34580000000000055,175,75
2026-05-07 18:38:41.238,3,-0.91,-1.08,0.15,-1.3992000000000004,13.6604,-6.114199999999999,175,75
2026-05-07 18:38:41.253,3,-0.83,-1.1,0.24,0.7408000000000001,13.4804,-9.284199999999998,175,75
2026-05-07 18:38:41.273,3,-0.82,-1.1,0.25,3.7907999999999973,15.3704,-10.624199999999998,175,75
2026-05-07 18:38:41.286,3,-0.79,-1.11,0.3,4.460799999999999,14.1504,-11.964199999999998,175,75
2026-05-07 18:38:41.300,3,-0.78,-1.12,0.28,4.460799999999999,11.4104,-12.454199999999998,175,75
2026-05-07 18:38:41.311,3,-0.77,-1.13,0.27,5.0108,11.6504,-12.024199999999999,175,75
2026-05-07 18:38:41.321,3,-0.77,-1.12,0.3,5.620799999999999,13.8504,-11.2342,175,75
2026-05-07 18:38:41.332,3,-0.71,-1.13,0.35,5.190799999999999,6.7104,-9.0442,175,75
2026-05-07 18:38:41.345,3,-0.76,-1.13,0.25,2.3207999999999984,3.660399999999999,-6.474199999999999,175,75
2026-05-07 18:38:41.367,3,-0.73,-1.19,0.26,3.9107999999999983,11.1004,-3.0641999999999987,175,75
2026-05-07 18:38:41.382,3,-0.73,-1.25,0.29,4.520799999999998,12.3804,-1.844199999999999,175,75
2026-05-07 18:38:41.393,3,-0.68,-1.28,0.34,5.190799999999999,8.4804,-2.084199999999999,175,75
2026-05-07 18:38:41.405,3,-0.72,-1.22,0.33,4.880800000000001,9.7604,0.04580000000000162,175,75
2026-05-07 18:38:41.420,3,-0.75,-1.16,0.3,3.4807999999999986,4.6404,2.915800000000001,175,75
2026-05-07 18:38:41.430,3,-0.75,-1.14,0.29,3.120799999999999,3.4803999999999995,2.8458000000000006,175,75
2026-05-07 18:38:41.436,3,-0.75,-1.12,0.31,3.6708,3.6004000000000005,3.3958000000000013,175,75
2026-05-07 18:38:41.447,3,-0.74,-1.09,0.3,2.5107999999999997,-0.11960000000000015,4.375800000000002,175,75
2026-05-07 18:38:41.484,3,-0.81,-1.15,0.25,4.950799999999997,5.7404,6.445800000000002,175,75
2026-05-07 18:38:41.502,3,-0.8,-1.15,0.26,6.040799999999997,7.8704,5.415800000000001,175,75
2026-05-07 18:38:41.514,3,-0.79,-1.14,0.28,6.290799999999997,7.4404,4.375800000000002,175,75
2026-05-07 18:38:41.527,3,-0.8,-1.15,0.29,6.9008,9.8204,3.9458,175,75
2026-05-07 18:38:41.560,3,-0.81,-1.1,0.33,4.210799999999999,5.7404,0.41580000000000084,175,75
2026-05-07 18:38:41.582,3,-0.81,-1.11,0.33,3.4807999999999986,5.9204,-0.3841999999999999,175,75
2026-05-07 18:38:41.582,3,-0.81,-1.12,0.33,2.5707999999999984,4.9404,-1.7241999999999997,175,75
2026-05-07 18:38:41.598,3,-0.81,-1.09,0.31,1.960799999999999,6.1604,-3.004199999999999,175,75
2026-05-07 18:38:41.612,3,-0.82,-1.09,0.3,1.2307999999999986,7.0204,-3.374199999999999,175,75
2026-05-07 18:38:41.634,3,-0.81,-1.13,0.29,0.8607999999999976,7.9904,-5.324199999999999,175,75
2026-05-07 18:38:41.650,3,-0.8,-1.13,0.29,1.2907999999999973,9.340399999999999,-6.544199999999999,175,75
2026-05-07 18:38:41.672,3,-0.8,-1.14,0.3,3.2408,11.8404,-7.824199999999999,175,75
2026-05-07 18:38:41.683,3,-0.79,-1.15,0.3,2.9908,11.2904,-8.124199999999998,175,75
2026-05-07 18:38:41.693,3,-0.78,-1.13,0.3,3.8507999999999996,12.080400000000001,-8.7342,175,75
2026-05-07 18:38:41.709,3,-0.77,-1.1,0.29,3.8507999999999996,10.9804,-7.824199999999999,175,75
2026-05-07 18:38:41.714,3,-0.77,-1.12,0.28,3.5407999999999973,10.8604,-6.2341999999999995,175,75
2026-05-07 18:38:41.731,3,-0.74,-1.14,0.3,3.7907999999999973,11.1604,-5.504199999999999,175,75
2026-05-07 18:38:41.742,3,-0.74,-1.15,0.32,3.9708000000000006,11.1604,-4.524199999999999,175,75
2026-05-07 18:38:41.742,3,-0.73,-1.15,0.34,3.8507999999999996,11.2904,-4.284199999999999,175,75
2026-05-07 18:38:41.755,3,-0.73,-1.13,0.34,3.3607999999999976,10.4304,-2.764199999999999,175,75
2026-05-07 18:38:41.780,3,-0.73,-1.14,0.33,1.6508000000000003,8.9704,-0.07419999999999938,175,75
2026-05-07 18:38:41.792,3,-0.75,-1.12,0.31,1.4708000000000006,9.4604,0.655800000000001,175,75
2026-05-07 18:38:41.816,3,-0.77,-1.09,0.31,1.9008000000000003,12.0204,2.1158,175,75
2026-05-07 18:38:41.830,3,-0.79,-1.11,0.31,0.8607999999999976,9.9404,2.5458000000000016,175,75
2026-05-07 18:38:41.833,3,-0.78,-1.14,0.31,0.07079999999999842,9.090399999999999,2.665800000000001,175,75
2026-05-07 18:38:41.850,3,-0.79,-1.15,0.31,0.25079999999999814,6.5904,2.6058000000000003,175,75
2026-05-07 18:38:41.856,3,-0.78,-1.15,0.28,1.2907999999999973,7.1404,2.5458000000000016,175,75
2026-05-07 18:38:41.879,3,-0.79,-1.13,0.29,3.9107999999999983,7.6904,0.7158000000000015,175,75
2026-05-07 18:38:41.895,3,-0.81,-1.11,0.27,5.4908,11.3504,0.22580000000000133,175,75
2026-05-07 18:38:41.907,3,-0.78,-1.09,0.29,6.840799999999998,12.4404,-0.5041999999999991,175,75
2026-05-07 18:38:41.919,3,-0.8,-1.08,0.28,6.840799999999998,12.7504,0.8358000000000008,175,75
2026-05-07 18:38:41.930,3,-0.79,-1.12,0.31,7.750799999999998,13.9704,0.10580000000000034,175,75
2026-05-07 18:38:41.950,3,-0.78,-1.14,0.31,6.840799999999998,12.9904,-0.3241999999999994,175,75
2026-05-07 18:38:41.960,3,-0.77,-1.13,0.34,7.5108,14.580400000000001,-1.7841999999999985,175,75
2026-05-07 18:38:41.974,3,-0.78,-1.1,0.35,7.630800000000001,16.1004,-2.884199999999999,175,75
2026-05-07 18:38:41.985,3,-0.77,-1.07,0.37,7.870799999999999,17.0804,-4.344199999999999,175,75
2026-05-07 18:38:41.997,3,-0.73,-1.05,0.36,6.1708,12.9904,-3.184199999999999,175,75
2026-05-07 18:38:42.007,3,-0.75,-1.07,0.28,2.8108000000000004,10.6804,0.28580000000000183,175,75
2026-05-07 18:38:42.019,3,-0.8,-1.17,0.24,5.0108,16.290399999999998,-0.01419999999999888,175,75
2026-05-07 18:38:42.029,3,-0.8,-1.23,0.32,7.2608,17.5704,-2.0241999999999987,175,75
2026-05-07 18:38:42.043,3,-0.77,-1.15,0.36,7.750799999999998,15.5504,-3.7341999999999986,175,75
2026-05-07 18:38:42.054,3,-0.78,-1.1,0.35,7.320799999999998,15.0104,-3.9141999999999992,175,75
2026-05-07 18:38:42.069,3,-0.78,-1.08,0.33,6.1708,15.1304,-2.884199999999999,175,75
2026-05-07 18:38:42.092,3,-0.74,-1.17,0.29,3.120799999999999,5.5504,-0.07419999999999938,175,75
2026-05-07 18:38:42.105,3,-0.81,-1.23,0.22,3.4807999999999986,9.9404,2.1158,175,75
2026-05-07 18:38:42.115,3,-0.77,-1.26,0.29,5.7408,11.9604,1.4458000000000002,175,75
2026-05-07 18:38:42.125,3,-0.78,-1.21,0.33,5.860799999999998,10.0104,1.4458000000000002,175,75
2026-05-07 18:38:42.145,3,-0.76,-1.13,0.34,5.620799999999999,8.4804,1.7558000000000007,175,75
2026-05-07 18:38:42.169,3,-0.79,-1.1,0.34,4.280799999999999,8.1204,1.6958000000000002,175,75
2026-05-07 18:38:42.182,3,-0.8,-1.11,0.33,3.4807999999999986,7.2604,1.0858000000000008,175,75
2026-05-07 18:38:42.194,3,-0.79,-1.11,0.34,3.2408,7.1404,0.8358000000000008,175,75
2026-05-07 18:38:42.204,3,-0.78,-1.12,0.33,2.750799999999998,6.7104,0.41580000000000084,175,75
2026-05-07 18:38:42.217,3,-0.78,-1.13,0.32,2.6308000000000007,6.8404,0.655800000000001,175,75
2026-05-07 18:38:42.226,3,-0.78,-1.13,0.31,2.9908,7.6904,0.41580000000000084,175,75
2026-05-07 18:38:42.243,3,-0.79,-1.13,0.3,3.4807999999999986,8.3604,0.655800000000001,175,75
2026-05-07 18:38:42.249,3,-0.79,-1.13,0.3,4.700799999999997,8.6004,0.22580000000000133,175,75
2026-05-07 18:38:42.260,3,-0.79,-1.12,0.29,5.250799999999998,9.4004,1.0258000000000003,175,75
2026-05-07 18:38:42.260,3,-0.79,-1.13,0.3,6.230799999999999,10.3704,1.0258000000000003,175,75
2026-05-07 18:38:42.301,3,-0.77,-1.13,0.36,5.5608,7.3804,2.485800000000001,175,75
2026-05-07 18:38:42.316,3,-0.78,-1.11,0.33,3.7907999999999973,4.7004,4.1958,175,75
2026-05-07 18:38:42.327,3,-0.79,-1.12,0.32,4.460799999999999,7.5704,4.495800000000001,175,75
2026-05-07 18:38:42.335,3,-0.79,-1.13,0.35,4.340799999999998,7.2604,3.825800000000001,175,75
2026-05-07 18:38:42.346,3,-0.79,-1.12,0.36,3.8507999999999996,6.8404,3.7658000000000005,175,75
2026-05-07 18:38:42.370,3,-0.8,-1.1,0.35,2.750799999999998,5.8004,3.7658000000000005,175,75
2026-05-07 18:38:42.382,3,-0.8,-1.11,0.33,1.960799999999999,5.4304,3.9458,175,75
2026-05-07 18:38:42.394,3,-0.8,-1.12,0.33,1.710799999999999,5.3704,3.7658000000000005,175,75
2026-05-07 18:38:42.401,3,-0.81,-1.13,0.33,1.840799999999998,5.6804,3.3358000000000008,175,75
2026-05-07 18:38:42.408,3,-0.8,-1.11,0.34,2.0808,5.6804,3.2158000000000015,175,75
2026-05-07 18:38:42.422,3,-0.8,-1.11,0.35,1.4107999999999983,4.400399999999999,4.065800000000001,175,75
2026-05-07 18:38:42.451,3,-0.79,-1.13,0.33,1.2307999999999986,3.660399999999999,4.065800000000001,175,75
2026-05-07 18:38:42.462,3,-0.81,-1.11,0.33,2.0808,5.3704,4.005800000000001,175,75
2026-05-07 18:38:42.472,3,-0.82,-1.12,0.33,1.9008000000000003,5.7404,4.255800000000001,175,75
2026-05-07 18:38:42.503,3,-0.81,-1.11,0.37,1.0407999999999973,4.0304,3.155800000000001,175,75
2026-05-07 18:38:42.526,3,-0.81,-1.1,0.34,-0.4792000000000023,2.4404000000000003,3.5258000000000003,175,75
2026-05-07 18:38:42.561,3,-0.81,-1.11,0.33,0.9807999999999986,3.9703999999999997,3.035800000000002,175,75
2026-05-07 18:38:42.580,3,-0.81,-1.11,0.33,1.9008000000000003,4.5204,2.3058000000000014,175,75
2026-05-07 18:38:42.603,3,-0.81,-1.13,0.33,2.2007999999999974,4.5204,1.7558000000000007,175,75
2026-05-07 18:38:42.603,3,-0.8,-1.13,0.34,2.750799999999998,4.6404,1.5658000000000012,175,75
2026-05-07 18:38:42.625,3,-0.81,-1.1,0.33,2.6308000000000007,2.9304000000000006,1.5058000000000007,175,75
2026-05-07 18:38:42.636,3,-0.82,-1.11,0.33,3.4807999999999986,4.4604,0.7158000000000015,175,75
2026-05-07 18:38:42.647,3,-0.81,-1.11,0.33,3.6708,4.4604,0.04580000000000162,175,75
2026-05-07 18:38:42.662,3,-0.82,-1.1,0.34,3.7907999999999973,5.3104,-0.2641999999999989,175,75
2026-05-07 18:38:42.672,3,-0.81,-1.11,0.36,3.120799999999999,5.1304,-0.5641999999999996,175,75
2026-05-07 18:38:42.711,3,-0.81,-1.12,0.36,1.7807999999999993,2.9903999999999993,-0.1941999999999986,175,75
2026-05-07 18:38:42.721,3,-0.79,-1.11,0.37,1.7807999999999993,4.820399999999999,-0.07419999999999938,175,75
2026-05-07 18:38:42.736,3,-0.8,-1.1,0.36,0.8607999999999976,3.3604000000000003,1.2058000000000018,175,75
2026-05-07 18:38:42.751,3,-0.79,-1.11,0.36,0.19079999999999941,2.5703999999999994,2.5458000000000016,175,75
2026-05-07 18:38:42.776,3,-0.79,-1.1,0.35,-0.539200000000001,1.7704000000000004,3.7658000000000005,175,75
2026-05-07 18:38:42.804,3,-0.81,-1.11,0.33,-0.539200000000001,1.6503999999999994,5.165800000000001,175,75
2026-05-07 18:38:42.804,3,-0.81,-1.11,0.33,-0.4192,1.9003999999999994,5.1058,175,75
2026-05-07 18:38:42.840,3,-0.83,-1.09,0.36,-0.909200000000002,2.5703999999999994,3.6458000000000013,175,75
2026-05-07 18:38:42.855,3,-0.83,-1.1,0.36,-1.2692000000000014,1.9604,3.3358000000000008,175,75
2026-05-07 18:38:42.855,3,-0.82,-1.1,0.36,-1.8192000000000021,1.5304000000000002,2.8458000000000006,175,75
2026-05-07 18:38:42.876,3,-0.82,-1.1,0.35,-1.3992000000000004,2.0204000000000004,2.3058000000000014,175,75
2026-05-07 18:38:42.890,3,-0.83,-1.11,0.35,-1.0291999999999994,2.3203999999999994,1.8758000000000017,175,75
2026-05-07 18:38:42.906,3,-0.83,-1.11,0.35,-0.9692000000000007,1.9003999999999994,1.0858000000000008,175,75
2026-05-07 18:38:42.916,3,-0.82,-1.1,0.34,-0.909200000000002,2.080400000000001,0.8958000000000013,175,75
2026-05-07 18:38:42.944,3,-0.81,-1.1,0.35,-0.7192000000000007,0.4903999999999993,0.8958000000000013,175,75
2026-05-07 18:38:42.954,3,-0.81,-1.09,0.33,-0.4792000000000023,1.0404,1.7558000000000007,175,75
2026-05-07 18:38:42.961,3,-0.82,-1.12,0.33,0.3108000000000004,3.1204,1.6958000000000002,175,75
2026-05-07 18:38:42.983,3,-0.82,-1.12,0.36,1.1707999999999998,3.3604000000000003,1.5658000000000012,175,75
2026-05-07 18:38:42.998,3,-0.81,-1.11,0.37,0.8007999999999988,1.9604,1.325800000000001,175,75
2026-05-07 18:38:43.021,3,-0.81,-1.1,0.35,-0.17920000000000158,0.19040000000000035,1.5658000000000012,175,75
2026-05-07 18:38:43.053,3,-0.82,-1.1,0.34,0.4908000000000001,0.9204000000000008,2.4258000000000006,175,75
2026-05-07 18:38:43.063,3,-0.82,-1.1,0.36,1.1707999999999998,2.0204000000000004,2.5458000000000016,175,75
2026-05-07 18:38:43.073,3,-0.81,-1.1,0.37,0.6807999999999979,1.0404,2.1158,175,75
2026-05-07 18:38:43.086,3,-0.82,-1.09,0.35,0.1308000000000007,0.37040000000000006,3.3358000000000008,175,75
2026-05-07 18:38:43.114,3,-0.82,-1.11,0.36,0.6207999999999991,1.5304000000000002,2.7258000000000013,175,75
2026-05-07 18:38:43.125,3,-0.83,-1.11,0.36,0.6807999999999979,1.6503999999999994,2.665800000000001,175,75
2026-05-07 18:38:43.163,3,-0.83,-1.09,0.36,0.25079999999999814,1.5904000000000007,1.2658000000000005,175,75
2026-05-07 18:38:43.188,3,-0.84,-1.09,0.35,0.9207999999999998,2.6904000000000003,0.7758000000000003,175,75
2026-05-07 18:38:43.200,3,-0.82,-1.09,0.36,0.9807999999999986,3.1204,-0.01419999999999888,175,75
2026-05-07 18:38:43.225,3,-0.83,-1.1,0.35,0.4908000000000001,2.1403999999999996,0.34580000000000055,175,75
2026-05-07 18:38:43.239,3,-0.82,-1.12,0.35,1.960799999999999,2.9304000000000006,-0.7441999999999993,175,75
2026-05-07 18:38:43.250,3,-0.82,-1.11,0.36,1.9008000000000003,3.1204,-0.6241999999999983,175,75
2026-05-07 18:38:43.261,3,-0.81,-1.12,0.37,1.6508000000000003,2.5703999999999994,-0.3841999999999999,175,75
2026-05-07 18:38:43.297,3,-0.82,-1.14,0.37,2.4507999999999974,1.9003999999999994,-0.6241999999999983,175,75
2026-05-07 18:38:43.325,3,-0.81,-1.09,0.4,1.2307999999999986,0.5503999999999998,-0.5041999999999991,175,75
2026-05-07 18:38:43.336,3,-0.81,-1.08,0.38,0.19079999999999941,0.25040000000000084,0.16580000000000084,175,75
2026-05-07 18:38:43.336,3,-0.82,-1.08,0.37,-0.17920000000000158,0.9803999999999995,0.41580000000000084,175,75
2026-05-07 18:38:43.347,3,-0.83,-1.08,0.36,-0.2392000000000003,1.1603999999999992,0.04580000000000162,175,75
2026-05-07 18:38:43.362,3,-0.82,-1.07,0.37,-0.3592000000000013,2.4404000000000003,-0.3241999999999994,175,75
2026-05-07 18:38:43.388,3,-0.81,-1.09,0.4,-1.7591999999999999,1.7104,-0.5641999999999996,175,75
2026-05-07 18:38:43.399,3,-0.81,-1.08,0.38,-2.549200000000001,0.31039999999999957,-0.1941999999999986,175,75
2026-05-07 18:38:43.429,3,-0.81,-1.13,0.36,0.010799999999999699,3.8504000000000005,-1.174199999999999,175,75
2026-05-07 18:38:43.441,3,-0.81,-1.1,0.38,0.25079999999999814,2.3804,-0.8741999999999983,175,75
2026-05-07 18:38:43.486,3,-0.82,-1.09,0.36,0.25079999999999814,2.8704,-1.174199999999999,175,75
2026-05-07 18:38:43.513,3,-0.81,-1.09,0.38,0.37079999999999913,2.8103999999999996,-1.174199999999999,175,75
2026-05-07 18:38:43.532,3,-0.81,-1.1,0.36,-0.1191999999999993,2.2004,-0.6841999999999988,175,75
