Time,ID,Ax,Ay,Az,Gx,Gy,Gz,Height,Weight
2026-04-24 15:39:21.700,3,0.0,0.0,0.0,0.0,0.19,0.12,175,75
2026-04-24 15:39:21.711,3,0.0,0.0,0.0,0.19,-0.12,0.31,175,75
2026-04-24 15:39:21.732,3,0.0,0.0,0.010000000000000009,0.06,0.25,-0.12000000000000001,175,75
2026-04-24 15:39:21.746,3,0.0,0.0,0.0,-0.12,0.13,-0.12000000000000001,175,75
2026-04-24 15:39:21.766,3,0.009999999999999998,0.0,0.0,0.25,-0.06000000000000005,0.06,175,75
2026-04-24 15:39:21.779,3,0.0,0.0,0.0,-0.06,0.19,0.06,175,75
2026-04-24 15:39:21.790,3,0.0,0.0,0.0,0.19,0.0,0.0,175,75
2026-04-24 15:39:21.812,3,0.0,0.0,0.0,-0.18000000000000002,0.0,0.0,175,75
2026-04-24 15:39:21.812,3,0.0,0.0,0.0,0.06,0.06999999999999995,0.0,175,75
2026-04-24 15:39:21.830,3,0.0,0.0,0.0,0.12,0.19,0.0,175,75
2026-04-24 15:39:21.835,3,0.0,0.0,0.0,0.25,0.13,0.12,175,75
2026-04-24 15:39:21.864,3,0.0,-0.009999999999999981,0.0,0.06,0.19,0.06,175,75
2026-04-24 15:39:21.869,3,0.0,0.0,0.0,0.25,0.13,-0.06000000000000001,175,75
2026-04-24 15:39:21.890,3,0.0,0.0,0.0,0.19,0.0,-0.06000000000000001,175,75
2026-04-24 15:39:21.890,3,0.009999999999999998,0.0,0.0,0.06,0.25,0.0,175,75
2026-04-24 15:39:21.911,3,0.0,0.0,0.0,0.0,0.0,-0.12000000000000001,175,75
2026-04-24 15:39:21.919,3,0.0,0.0,0.0,-0.18000000000000002,-0.12,0.06,175,75
2026-04-24 15:39:21.930,3,0.0,0.0,0.0,0.12,0.25,0.0,175,75
2026-04-24 15:39:21.951,3,0.0,0.0,0.0,0.06,0.31,0.0,175,75
2026-04-24 15:39:21.951,3,0.0,0.0,-0.010000000000000009,0.19,0.0,0.19,175,75
2026-04-24 15:39:21.984,3,0.0,0.0,-0.010000000000000009,0.12,0.19,0.12,175,75
2026-04-24 15:39:21.996,3,0.0,-0.009999999999999981,0.0,0.06,0.19,0.12,175,75
2026-04-24 15:39:21.996,3,0.009999999999999998,0.0,0.0,0.12,0.13,-0.06000000000000001,175,75
2026-04-24 15:39:22.022,3,0.0,0.0,0.0,0.06,0.19,-0.18,175,75
2026-04-24 15:39:22.033,3,0.009999999999999998,0.0,0.0,-0.12,0.06999999999999995,0.06,175,75
2026-04-24 15:39:22.047,3,0.009999999999999998,0.0,0.0,0.19,0.25,-0.18,175,75
2026-04-24 15:39:22.098,3,0.009999999999999998,0.0,0.0,-0.12,0.06999999999999995,0.19,175,75
2026-04-24 15:39:22.098,3,0.0,0.0,0.0,0.12,0.25,0.06,175,75
2026-04-24 15:39:22.103,3,0.0,-0.009999999999999981,0.0,0.06,0.06999999999999995,0.12,175,75
2026-04-24 15:39:22.123,3,0.0,0.0,0.0,0.06,0.43,-0.06000000000000001,175,75
2026-04-24 15:39:22.123,3,0.0,0.0,0.0,0.0,0.13,0.12,175,75
2026-04-24 15:39:22.138,3,0.0,0.0,0.0,0.19,0.0,0.0,175,75
2026-04-24 15:39:22.154,3,0.0,0.0,0.0,0.0,-0.24,0.19,175,75
2026-04-24 15:39:22.165,3,0.009999999999999998,0.0,0.010000000000000009,0.06,0.0,0.37,175,75
2026-04-24 15:39:22.183,3,0.0,0.0,-0.010000000000000009,-0.18000000000000002,0.13,0.19,175,75
2026-04-24 15:39:22.193,3,0.0,0.0,0.0,0.19,0.25,0.12,175,75
2026-04-24 15:39:22.206,3,0.0,-0.009999999999999981,-0.010000000000000009,0.31,0.19,-0.06000000000000001,175,75
2026-04-24 15:39:22.206,3,0.0,0.0,-0.010000000000000009,0.12,0.25,0.06,175,75
2026-04-24 15:39:22.225,3,0.0,0.0,0.0,0.25,0.31,0.19,175,75
2026-04-24 15:39:22.249,3,0.0,0.0,0.0,0.19,0.19,0.06,175,75
2026-04-24 15:39:22.249,3,0.0,0.010000000000000009,0.0,0.0,-0.06000000000000005,0.25,175,75
2026-04-24 15:39:22.259,3,0.0,0.0,0.0,0.06,0.13,0.31,175,75
2026-04-24 15:39:22.267,3,0.0,0.0,0.0,0.25,0.19,0.06,175,75
2026-04-24 15:39:22.296,3,0.0,-0.009999999999999981,0.0,0.19,0.0,-0.06000000000000001,175,75
2026-04-24 15:39:22.310,3,0.0,-0.009999999999999981,0.0,0.12,0.13,0.25,175,75
2026-04-24 15:39:22.322,3,0.009999999999999998,0.0,0.0,-0.12,0.13,-0.18,175,75
2026-04-24 15:39:22.322,3,0.0,0.0,0.0,0.19,0.25,0.25,175,75
2026-04-24 15:39:22.333,3,0.0,0.010000000000000009,0.0,0.06,0.19,0.0,175,75
2026-04-24 15:39:22.347,3,0.0,0.0,0.0,0.12,-0.06000000000000005,0.06,175,75
2026-04-24 15:39:22.363,3,0.0,0.0,0.0,0.31,0.25,0.06,175,75
2026-04-24 15:39:22.374,3,0.0,0.0,0.0,-0.06,0.0,-0.12000000000000001,175,75
2026-04-24 15:39:22.405,3,0.0,0.0,-0.010000000000000009,0.12,-0.06000000000000005,0.25,175,75
2026-04-24 15:39:22.421,3,0.0,0.0,0.0,0.19,0.06999999999999995,0.06,175,75
2026-04-24 15:39:22.429,3,0.0,0.0,0.0,0.0,0.0,0.0,175,75
2026-04-24 15:39:22.429,3,0.0,0.0,0.0,0.25,0.31,0.06,175,75
2026-04-24 15:39:22.445,3,0.0,0.0,0.0,0.12,0.19,-0.18,175,75
2026-04-24 15:39:22.456,3,0.0,0.0,0.0,0.06,0.06999999999999995,0.25,175,75
2026-04-24 15:39:22.466,3,0.0,0.0,0.0,0.19,0.19,0.19,175,75
2026-04-24 15:39:22.476,3,0.0,0.0,0.0,0.06,-0.12,0.0,175,75
2026-04-24 15:39:22.491,3,0.0,0.0,0.0,-0.06,0.0,0.19,175,75
2026-04-24 15:39:22.505,3,0.0,0.0,0.0,0.06,-0.06000000000000005,-0.12000000000000001,175,75
2026-04-24 15:39:22.527,3,0.0,0.0,0.0,0.25,0.0,0.0,175,75
2026-04-24 15:39:22.527,3,0.0,0.0,0.0,0.12,0.13,0.06,175,75
2026-04-24 15:39:22.538,3,0.0,0.0,0.0,0.12,-0.06000000000000005,0.0,175,75
2026-04-24 15:39:22.560,3,0.0,0.0,0.0,0.19,0.0,0.25,175,75
2026-04-24 15:39:22.575,3,0.0,0.0,0.0,-0.24000000000000002,0.19,-0.06000000000000001,175,75
2026-04-24 15:39:22.604,3,0.0,0.0,0.0,0.25,0.0,0.19,175,75
2026-04-24 15:39:22.604,3,0.0,0.0,0.0,0.19,0.06999999999999995,-0.06000000000000001,175,75
2026-04-24 15:39:22.615,3,0.009999999999999998,0.0,0.0,-0.06,0.06999999999999995,0.06,175,75
2026-04-24 15:39:22.615,3,0.0,0.0,-0.010000000000000009,0.06,-0.18000000000000005,0.06,175,75
2026-04-24 15:39:22.625,3,0.0,0.0,0.0,0.06,-0.06000000000000005,-0.18,175,75
2026-04-24 15:39:22.639,3,0.009999999999999998,0.0,0.0,-0.06,-0.18000000000000005,0.12,175,75
2026-04-24 15:39:22.651,3,0.0,0.0,0.0,0.12,0.25,0.12,175,75
2026-04-24 15:39:22.664,3,0.0,0.0,0.0,0.06,-0.06000000000000005,0.12,175,75
2026-04-24 15:39:22.677,3,0.0,0.0,0.0,0.12,-0.06000000000000005,-0.24,175,75
2026-04-24 15:39:22.691,3,0.0,0.0,0.0,0.37,-0.18000000000000005,0.12,175,75
2026-04-24 15:39:22.705,3,0.0,0.0,0.0,0.06,-0.06000000000000005,0.25,175,75
2026-04-24 15:39:22.705,3,0.0,0.0,0.0,0.19,0.06999999999999995,-0.12000000000000001,175,75
2026-04-24 15:39:22.715,3,0.0,0.0,0.0,0.12,0.0,0.0,175,75
2026-04-24 15:39:22.726,3,0.009999999999999998,0.0,0.0,0.31,0.43,-0.24,175,75
2026-04-24 15:39:22.737,3,0.0,0.0,0.0,0.12,-0.12,0.19,175,75
2026-04-24 15:39:22.747,3,0.0,0.0,-0.010000000000000009,0.37,0.06999999999999995,-0.12000000000000001,175,75
2026-04-24 15:39:22.778,3,0.009999999999999998,0.0,0.0,0.19,0.0,0.37,175,75
2026-04-24 15:39:22.778,3,0.009999999999999998,0.0,0.0,0.25,0.0,0.06,175,75
2026-04-24 15:39:22.778,3,0.0,0.0,0.0,0.25,-0.06000000000000005,0.19,175,75
2026-04-24 15:39:22.795,3,0.0,0.0,0.0,-0.06,-0.06000000000000005,-0.12000000000000001,175,75
2026-04-24 15:39:22.807,3,0.0,0.0,0.0,0.25,-0.30000000000000004,0.12,175,75
2026-04-24 15:39:22.807,3,0.0,0.0,0.0,0.0,0.13,0.19,175,75
2026-04-24 15:39:22.834,3,0.0,0.0,0.0,0.19,0.13,0.19,175,75
2026-04-24 15:39:22.834,3,0.0,0.0,0.010000000000000009,0.12,-0.12,0.06,175,75
2026-04-24 15:39:22.846,3,0.0,0.0,0.0,0.0,0.13,0.12,175,75
2026-04-24 15:39:22.857,3,0.0,0.0,-0.010000000000000009,0.0,0.0,0.0,175,75
2026-04-24 15:39:22.870,3,0.0,0.0,0.0,0.31,-0.12,0.12,175,75
2026-04-24 15:39:22.872,3,0.0,0.0,0.0,0.31,0.13,0.25,175,75
2026-04-24 15:39:22.883,3,0.009999999999999998,0.0,0.0,0.06,-0.24,-0.06000000000000001,175,75
2026-04-24 15:39:22.900,3,0.009999999999999998,0.0,0.0,0.06,-0.06000000000000005,0.12,175,75
2026-04-24 15:39:22.906,3,0.0,0.0,0.0,0.25,0.06999999999999995,0.12,175,75
2026-04-24 15:39:22.922,3,0.0,0.0,0.0,-0.12,0.06999999999999995,-0.12000000000000001,175,75
2026-04-24 15:39:22.932,3,0.0,0.0,0.0,-0.18000000000000002,0.0,0.31,175,75
2026-04-24 15:39:22.951,3,0.0,0.0,-0.010000000000000009,0.06,0.19,0.06,175,75
2026-04-24 15:39:22.962,3,0.0,0.0,0.0,0.06,0.19,0.06,175,75
2026-04-24 15:39:22.977,3,0.0,0.0,-0.010000000000000009,0.12,0.06999999999999995,0.19,175,75
2026-04-24 15:39:22.987,3,0.0,0.0,-0.010000000000000009,0.12,0.0,0.06,175,75
2026-04-24 15:39:23.010,3,0.0,0.0,0.0,0.12,0.0,0.0,175,75
2026-04-24 15:39:23.010,3,0.0,0.0,0.0,0.06,0.06999999999999995,0.12,175,75
2026-04-24 15:39:23.023,3,0.0,0.0,0.0,0.19,-0.12,0.25,175,75
2026-04-24 15:39:23.039,3,0.0,0.0,-0.010000000000000009,0.25,0.06999999999999995,-0.18,175,75
2026-04-24 15:39:23.054,3,0.0,0.0,0.0,0.0,0.19,0.12,175,75
2026-04-24 15:39:23.065,3,0.0,0.0,0.0,0.31,0.0,0.19,175,75
2026-04-24 15:39:23.065,3,0.0,0.0,0.0,0.12,0.19,0.06,175,75
2026-04-24 15:39:23.077,3,0.0,0.0,0.0,0.12,-0.06000000000000005,0.06,175,75
2026-04-24 15:39:23.094,3,0.009999999999999998,0.0,0.0,0.12,0.13,0.12,175,75
2026-04-24 15:39:23.116,3,0.0,0.0,0.0,0.25,-0.06000000000000005,0.25,175,75
2026-04-24 15:39:23.133,3,0.009999999999999998,0.0,0.0,0.12,0.13,-0.36,175,75
2026-04-24 15:39:23.155,3,0.0,0.0,0.0,0.12,0.31,0.37,175,75
2026-04-24 15:39:23.168,3,0.0,0.0,0.0,0.06,-0.06000000000000005,-0.12000000000000001,175,75
2026-04-24 15:39:23.187,3,0.0,0.0,0.0,0.12,-0.06000000000000005,0.0,175,75
2026-04-24 15:39:23.203,3,0.009999999999999998,0.0,0.0,0.12,0.25,0.06,175,75
2026-04-24 15:39:23.214,3,0.0,0.0,0.0,0.37,-0.06000000000000005,-0.24,175,75
2026-04-24 15:39:23.225,3,0.0,0.0,0.0,0.19,0.06999999999999995,0.31,175,75
2026-04-24 15:39:23.240,3,0.0,0.0,-0.010000000000000009,0.12,0.13,0.0,175,75
2026-04-24 15:39:23.247,3,0.0,0.0,0.0,0.12,-0.12,-0.06000000000000001,175,75
2026-04-24 15:39:23.264,3,0.0,0.0,0.0,0.25,-0.12,0.19,175,75
2026-04-24 15:39:23.264,3,0.0,0.0,0.0,0.06,0.06999999999999995,-0.06000000000000001,175,75
2026-04-24 15:39:23.276,3,0.0,0.0,0.0,0.25,-0.12,0.19,175,75
2026-04-24 15:39:23.289,3,0.009999999999999998,0.0,0.0,0.19,-0.18000000000000005,0.19,175,75
2026-04-24 15:39:23.315,3,0.0,0.0,0.0,0.06,0.06999999999999995,0.06,175,75
2026-04-24 15:39:23.315,3,0.0,0.0,0.0,0.12,0.06999999999999995,0.06,175,75
2026-04-24 15:39:23.329,3,0.0,-0.009999999999999981,0.0,-0.06,0.13,0.25,175,75
2026-04-24 15:39:23.357,3,0.009999999999999998,0.0,0.0,-0.06,0.06999999999999995,0.12,175,75
2026-04-24 15:39:23.370,3,0.009999999999999998,0.0,0.0,0.12,0.0,-0.06000000000000001,175,75
2026-04-24 15:39:23.383,3,0.0,0.0,0.0,0.12,0.13,-0.06000000000000001,175,75
2026-04-24 15:39:23.395,3,0.0,0.0,0.0,0.19,0.0,0.19,175,75
2026-04-24 15:39:23.410,3,0.0,0.0,0.0,0.06,0.0,0.19,175,75
2026-04-24 15:39:23.418,3,0.0,0.0,0.010000000000000009,0.19,0.0,0.19,175,75
2026-04-24 15:39:23.419,3,0.0,0.0,0.0,0.19,0.19,0.25,175,75
2026-04-24 15:39:23.431,3,0.0,0.0,0.0,0.06,0.25,0.19,175,75
2026-04-24 15:39:23.449,3,0.0,0.0,0.0,0.06,-0.06000000000000005,-0.18,175,75
2026-04-24 15:39:23.449,3,0.0,0.0,0.0,-0.12,0.0,-0.06000000000000001,175,75
2026-04-24 15:39:23.466,3,0.0,0.0,0.0,0.12,0.06999999999999995,0.06,175,75
2026-04-24 15:39:23.476,3,0.0,0.0,0.0,0.19,-0.12,-0.12000000000000001,175,75
2026-04-24 15:39:23.482,3,0.0,0.0,0.0,0.31,0.0,0.25,175,75
2026-04-24 15:39:23.495,3,0.0,0.0,0.0,0.31,0.0,0.25,175,75
2026-04-24 15:39:23.510,3,0.0,0.0,0.0,0.12,0.19,0.06,175,75
2026-04-24 15:39:23.516,3,0.0,0.0,0.0,0.19,0.0,0.0,175,75
2026-04-24 15:39:23.546,3,0.009999999999999998,0.0,-0.010000000000000009,0.19,0.31,-0.24,175,75
2026-04-24 15:39:23.546,3,0.0,0.0,0.0,0.0,-0.12,-0.18,175,75
2026-04-24 15:39:23.576,3,0.0,0.0,0.0,0.25,0.06999999999999995,0.31,175,75
2026-04-24 15:39:23.583,3,0.009999999999999998,0.0,0.0,0.19,-0.12,0.31,175,75
2026-04-24 15:39:23.596,3,0.009999999999999998,0.0,0.0,0.12,0.19,-0.06000000000000001,175,75
2026-04-24 15:39:23.618,3,0.0,0.0,0.0,0.19,0.13,-0.06000000000000001,175,75
2026-04-24 15:39:23.628,3,0.0,-0.009999999999999981,0.0,0.12,0.13,0.19,175,75
2026-04-24 15:39:23.654,3,0.0,-0.009999999999999981,0.0,0.06,0.31,0.0,175,75
2026-04-24 15:39:23.667,3,0.0,0.0,0.0,0.25,0.0,0.19,175,75
2026-04-24 15:39:23.686,3,0.0,0.0,0.0,0.25,0.13,0.06,175,75
2026-04-24 15:39:23.686,3,0.0,0.0,0.010000000000000009,0.06,-0.06000000000000005,-0.12000000000000001,175,75
2026-04-24 15:39:23.701,3,0.0,0.0,0.0,0.31,0.37,-0.18,175,75
2026-04-24 15:39:23.718,3,0.0,0.0,-0.010000000000000009,0.19,0.06999999999999995,-0.3,175,75
2026-04-24 15:39:23.732,3,0.0,-0.009999999999999981,0.0,0.25,0.37,-0.24,175,75
2026-04-24 15:39:23.744,3,0.009999999999999998,0.010000000000000009,0.0,0.0,0.0,0.0,175,75
2026-04-24 15:39:23.757,3,0.009999999999999998,0.010000000000000009,0.010000000000000009,0.06,0.25,0.0,175,75
2026-04-24 15:39:23.776,3,0.0,0.0,0.0,-0.12,0.06999999999999995,0.25,175,75
2026-04-24 15:39:23.807,3,0.0,-0.009999999999999981,-0.010000000000000009,0.31,0.13,0.12,175,75
2026-04-24 15:39:23.819,3,0.0,-0.009999999999999981,-0.010000000000000009,0.06,0.25,0.0,175,75
2026-04-24 15:39:23.831,3,0.0,0.0,0.0,0.19,0.06999999999999995,-0.12000000000000001,175,75
2026-04-24 15:39:23.847,3,0.009999999999999998,0.010000000000000009,0.0,0.25,0.19,0.0,175,75
2026-04-24 15:39:23.860,3,0.009999999999999998,0.010000000000000009,0.010000000000000009,-0.18000000000000002,0.37,0.12,175,75
2026-04-24 15:39:23.860,3,0.0,0.010000000000000009,0.0,0.06,0.13,0.37,175,75
2026-04-24 15:39:23.875,3,0.0,0.0,0.0,-0.06,0.0,0.37,175,75
2026-04-24 15:39:23.889,3,0.0,-0.009999999999999981,0.0,-0.06,0.19,0.25,175,75
2026-04-24 15:39:23.891,3,0.0,-0.009999999999999981,0.0,0.0,0.13,0.19,175,75
2026-04-24 15:39:23.905,3,0.0,-0.009999999999999981,-0.010000000000000009,0.06,0.06999999999999995,0.25,175,75
2026-04-24 15:39:23.921,3,0.0,-0.009999999999999981,0.0,0.19,0.06999999999999995,-0.3,175,75
2026-04-24 15:39:23.933,3,0.0,0.0,0.0,0.12,0.25,-0.18,175,75
2026-04-24 15:39:23.933,3,0.009999999999999998,0.010000000000000009,0.010000000000000009,0.43000000000000005,0.13,0.0,175,75
2026-04-24 15:39:23.946,3,0.0,0.010000000000000009,0.0,0.06,0.0,0.12,175,75
2026-04-24 15:39:23.958,3,0.009999999999999998,0.0,0.0,-0.18000000000000002,0.06999999999999995,0.12,175,75
2026-04-24 15:39:23.970,3,0.0,0.0,0.0,-0.06,0.13,0.25,175,75
2026-04-24 15:39:23.986,3,0.0,0.0,0.0,-0.12,0.31,0.31,175,75
2026-04-24 15:39:23.986,3,0.0,-0.009999999999999981,0.0,0.0,0.06999999999999995,0.12,175,75
2026-04-24 15:39:24.006,3,0.0,-0.009999999999999981,0.0,0.25,-0.30000000000000004,0.37,175,75
2026-04-24 15:39:24.015,3,0.0,0.0,0.010000000000000009,-0.06,-0.06000000000000005,-0.06000000000000001,175,75
2026-04-24 15:39:24.031,3,0.0,0.0,0.0,0.12,0.19,0.0,175,75
2026-04-24 15:39:24.041,3,0.0,0.0,0.0,0.12,0.19,0.0,175,75
2026-04-24 15:39:24.056,3,0.0,0.0,0.0,0.0,0.13,-0.12000000000000001,175,75
2026-04-24 15:39:24.056,3,0.009999999999999998,0.0,0.0,0.19,0.0,-0.12000000000000001,175,75
2026-04-24 15:39:24.071,3,0.0,0.0,0.0,0.06,0.13,-0.06000000000000001,175,75
2026-04-24 15:39:24.091,3,0.0,-0.009999999999999981,0.0,0.19,0.06999999999999995,-0.06000000000000001,175,75
2026-04-24 15:39:24.096,3,0.0,0.0,0.0,0.0,0.19,0.12,175,75
2026-04-24 15:39:24.115,3,0.0,0.0,0.010000000000000009,0.43000000000000005,-0.36,-0.18,175,75
2026-04-24 15:39:24.115,3,0.0,0.0,0.010000000000000009,0.31,0.13,0.37,175,75
2026-04-24 15:39:24.129,3,0.0,0.0,-0.010000000000000009,0.06,0.31,0.19,175,75
2026-04-24 15:39:24.140,3,0.0,0.0,0.0,0.31,0.25,0.06,175,75
2026-04-24 15:39:24.147,3,0.0,0.0,0.0,0.12,-0.24,-0.06000000000000001,175,75
2026-04-24 15:39:24.167,3,0.0,0.0,-0.010000000000000009,0.12,-0.06000000000000005,0.25,175,75
2026-04-24 15:39:24.167,3,0.0,0.0,0.0,0.31,0.0,-0.06000000000000001,175,75
2026-04-24 15:39:24.182,3,0.0,0.0,0.0,0.12,0.25,0.12,175,75
2026-04-24 15:39:24.189,3,0.0,0.0,0.0,0.06,0.19,0.12,175,75
2026-04-24 15:39:24.203,3,0.009999999999999998,0.0,0.0,-0.06,-0.06000000000000005,0.06,175,75
2026-04-24 15:39:24.212,3,0.0,0.0,0.0,0.06,0.06999999999999995,0.0,175,75
2026-04-24 15:39:24.231,3,0.0,-0.009999999999999981,-0.010000000000000009,0.06,0.13,0.06,175,75
2026-04-24 15:39:24.246,3,0.0,0.0,0.0,0.06,0.06999999999999995,0.06,175,75
2026-04-24 15:39:24.248,3,0.0,0.0,0.0,0.0,0.13,-0.3,175,75
2026-04-24 15:39:24.259,3,0.0,0.0,0.0,0.06,0.06999999999999995,0.19,175,75
2026-04-24 15:39:24.270,3,0.0,-0.009999999999999981,-0.010000000000000009,0.19,0.13,-0.06000000000000001,175,75
2026-04-24 15:39:24.291,3,0.0,0.0,-0.010000000000000009,0.19,0.13,-0.3,175,75
2026-04-24 15:39:24.309,3,0.0,0.0,0.010000000000000009,0.19,0.0,0.06,175,75
2026-04-24 15:39:24.316,3,0.0,0.010000000000000009,0.010000000000000009,0.06,0.13,-0.06000000000000001,175,75
2026-04-24 15:39:24.331,3,0.0,0.020000000000000018,0.0,0.12,0.25,0.25,175,75
2026-04-24 15:39:24.342,3,0.0,0.0,0.0,0.0,0.13,0.43,175,75
2026-04-24 15:39:24.352,3,0.0,-0.009999999999999981,-0.010000000000000009,0.19,0.19,0.19,175,75
2026-04-24 15:39:24.352,3,0.0,-0.009999999999999981,-0.020000000000000018,0.06,-0.18000000000000005,0.12,175,75
2026-04-24 15:39:24.367,3,0.0,0.0,-0.010000000000000009,0.06,0.43,-0.12000000000000001,175,75
2026-04-24 15:39:24.377,3,0.0,-0.009999999999999981,0.0,0.43000000000000005,-0.18000000000000005,-0.24,175,75
2026-04-24 15:39:24.390,3,0.0,-0.009999999999999981,0.010000000000000009,0.49,0.13,-0.12000000000000001,175,75
2026-04-24 15:39:24.407,3,0.0,0.0,0.010000000000000009,0.19,0.13,0.12,175,75
2026-04-24 15:39:24.416,3,0.009999999999999998,0.010000000000000009,0.0,0.06,0.06999999999999995,0.19,175,75
2026-04-24 15:39:24.416,3,0.0,0.010000000000000009,-0.010000000000000009,0.0,0.25,0.06,175,75
2026-04-24 15:39:24.431,3,0.009999999999999998,0.0,-0.010000000000000009,0.06,0.06999999999999995,0.25,175,75
2026-04-24 15:39:24.445,3,0.009999999999999998,0.0,-0.020000000000000018,0.0,0.25,0.25,175,75
2026-04-24 15:39:24.453,3,0.0,0.0,0.0,0.12,0.19,0.12,175,75
2026-04-24 15:39:24.464,3,0.0,0.0,0.0,-0.06,-0.06000000000000005,0.0,175,75
2026-04-24 15:39:24.473,3,0.0,-0.009999999999999981,0.010000000000000009,0.12,0.06999999999999995,-0.06000000000000001,175,75
2026-04-24 15:39:24.493,3,0.009999999999999998,0.0,0.010000000000000009,0.06,0.19,0.25,175,75
2026-04-24 15:39:24.510,3,0.0,0.0,-0.010000000000000009,0.25,0.37,-0.12000000000000001,175,75
2026-04-24 15:39:24.536,3,0.009999999999999998,0.0,0.0,0.06,0.13,0.19,175,75
2026-04-24 15:39:24.548,3,0.0,0.0,0.010000000000000009,0.37,0.43,0.19,175,75
2026-04-24 15:39:24.562,3,0.0,0.0,0.0,0.25,-0.12,0.37,175,75
2026-04-24 15:39:24.562,3,0.0,-0.009999999999999981,0.0,0.12,0.19,-0.06000000000000001,175,75
2026-04-24 15:39:24.577,3,0.0,0.0,0.0,0.06,-0.12,-0.12000000000000001,175,75
2026-04-24 15:39:24.589,3,0.009999999999999998,0.0,-0.010000000000000009,0.0,0.0,0.06,175,75
2026-04-24 15:39:24.596,3,0.009999999999999998,0.0,-0.010000000000000009,0.06,0.0,-0.06000000000000001,175,75
2026-04-24 15:39:24.611,3,0.0,0.0,0.0,0.12,0.19,0.06,175,75
2026-04-24 15:39:24.637,3,0.0,-0.009999999999999981,0.010000000000000009,0.0,0.25,0.06,175,75
2026-04-24 15:39:24.643,3,0.0,0.0,0.010000000000000009,0.31,0.0,0.12,175,75
2026-04-24 15:39:24.667,3,0.0,0.0,0.0,0.19,0.06999999999999995,0.0,175,75
2026-04-24 15:39:24.667,3,0.0,0.0,-0.010000000000000009,0.12,0.13,-0.12000000000000001,175,75
2026-04-24 15:39:24.682,3,0.009999999999999998,0.0,-0.010000000000000009,0.0,0.13,0.06,175,75
2026-04-24 15:39:24.688,3,0.0,0.0,0.0,0.25,0.19,0.0,175,75
2026-04-24 15:39:24.708,3,0.0,0.0,0.0,0.25,0.25,0.06,175,75
2026-04-24 15:39:24.724,3,0.0,0.0,0.010000000000000009,0.25,0.0,0.12,175,75
2026-04-24 15:39:24.724,3,0.0,0.0,0.0,0.12,-0.24,0.0,175,75
2026-04-24 15:39:24.745,3,0.0,0.0,-0.010000000000000009,0.25,0.19,0.0,175,75
2026-04-24 15:39:24.761,3,0.0,0.0,0.0,0.19,0.06999999999999995,-0.3,175,75
2026-04-24 15:39:24.771,3,0.009999999999999998,0.0,-0.010000000000000009,0.06,0.25,0.12,175,75
2026-04-24 15:39:24.777,3,0.0,0.0,-0.010000000000000009,-0.06,0.0,0.31,175,75
2026-04-24 15:39:24.783,3,0.0,0.0,0.010000000000000009,0.0,0.13,-0.06000000000000001,175,75
2026-04-24 15:39:24.805,3,-0.01,-0.009999999999999981,0.010000000000000009,0.06,-0.06000000000000005,0.06,175,75
2026-04-24 15:39:24.811,3,0.0,0.0,0.0,0.0,-0.18000000000000005,0.37,175,75
2026-04-24 15:39:24.825,3,0.02,0.0,-0.010000000000000009,0.0,0.25,-0.12000000000000001,175,75
2026-04-24 15:39:24.843,3,0.0,0.0,-0.010000000000000009,0.25,-0.06000000000000005,-0.18,175,75
2026-04-24 15:39:24.857,3,0.0,0.0,0.0,0.12,0.0,0.25,175,75
2026-04-24 15:39:24.857,3,0.009999999999999998,0.0,0.0,0.19,0.13,-0.18,175,75
2026-04-24 15:39:24.863,3,-0.01,0.0,0.0,0.12,0.43,-0.06000000000000001,175,75
2026-04-24 15:39:24.876,3,0.009999999999999998,0.0,0.010000000000000009,0.06,-0.12,0.19,175,75
2026-04-24 15:39:24.885,3,0.0,0.0,0.0,-0.06,0.0,-0.12000000000000001,175,75
2026-04-24 15:39:24.900,3,0.0,0.0,-0.010000000000000009,0.37,0.06999999999999995,-0.12000000000000001,175,75
2026-04-24 15:39:24.919,3,0.009999999999999998,0.0,0.0,0.06,0.31,0.25,175,75
2026-04-24 15:39:24.919,3,0.0,0.0,0.0,0.31,0.13,0.0,175,75
2026-04-24 15:39:24.929,3,0.009999999999999998,0.0,0.0,-0.12,0.25,-0.24,175,75
2026-04-24 15:39:24.938,3,0.0,0.0,0.0,0.0,-0.12,0.12,175,75
2026-04-24 15:39:24.951,3,0.0,0.0,0.0,0.25,0.06999999999999995,0.12,175,75
2026-04-24 15:39:24.963,3,0.009999999999999998,0.0,0.010000000000000009,0.0,-0.06000000000000005,0.31,175,75
2026-04-24 15:39:24.978,3,0.009999999999999998,0.0,-0.010000000000000009,0.0,0.31,0.0,175,75
2026-04-24 15:39:24.985,3,0.0,0.0,0.0,-0.12,0.19,0.25,175,75
2026-04-24 15:39:25.010,3,0.0,0.0,0.0,0.06,0.19,-0.06000000000000001,175,75
2026-04-24 15:39:25.024,3,0.0,0.0,0.0,0.0,-0.06000000000000005,0.06,175,75
2026-04-24 15:39:25.031,3,0.0,0.0,0.0,0.31,0.13,0.19,175,75
2026-04-24 15:39:25.053,3,0.0,0.0,0.010000000000000009,0.0,0.19,0.25,175,75
2026-04-24 15:39:25.063,3,0.0,0.0,0.0,0.19,0.31,0.06,175,75
2026-04-24 15:39:25.069,3,0.0,0.0,0.0,-0.12,-0.06000000000000005,0.06,175,75
2026-04-24 15:39:25.125,3,0.0,0.0,0.0,0.0,0.13,0.19,175,75
2026-04-24 15:39:25.136,3,0.0,0.0,0.0,-0.06,0.06999999999999995,0.0,175,75
2026-04-24 15:39:25.150,3,0.0,0.0,0.0,0.31,0.13,0.06,175,75
2026-04-24 15:39:25.165,3,0.0,0.0,0.0,-0.06,-0.12,0.25,175,75
2026-04-24 15:39:25.173,3,0.0,0.0,0.0,0.06,0.19,0.12,175,75
2026-04-24 15:39:25.185,3,0.0,0.0,-0.010000000000000009,-0.18000000000000002,-0.12,0.37,175,75
2026-04-24 15:39:25.198,3,0.0,0.0,0.0,0.0,0.19,0.19,175,75
2026-04-24 15:39:25.213,3,0.0,0.0,-0.010000000000000009,0.19,0.25,-0.18,175,75
2026-04-24 15:39:25.232,3,0.009999999999999998,0.0,0.0,-0.12,0.19,0.12,175,75
2026-04-24 15:39:25.242,3,0.0,-0.009999999999999981,0.0,-0.12,0.13,0.06,175,75
2026-04-24 15:39:25.242,3,0.0,0.0,0.010000000000000009,0.19,-0.06000000000000005,-0.06000000000000001,175,75
2026-04-24 15:39:25.266,3,0.0,0.0,0.0,0.25,0.0,-0.06000000000000001,175,75
2026-04-24 15:39:25.266,3,0.0,0.0,0.0,0.0,-0.06000000000000005,0.25,175,75
2026-04-24 15:39:25.293,3,0.0,0.0,0.0,0.12,-0.06000000000000005,0.19,175,75
2026-04-24 15:39:25.304,3,0.0,0.0,0.0,-0.06,0.31,0.12,175,75
2026-04-24 15:39:25.316,3,0.0,-0.009999999999999981,-0.010000000000000009,0.06,0.19,0.06,175,75
2026-04-24 15:39:25.342,3,0.0,0.0,0.0,-0.12,-0.12,-0.3,175,75
2026-04-24 15:39:25.369,3,0.0,0.0,-0.010000000000000009,-0.06,0.31,-0.24,175,75
2026-04-24 15:39:25.374,3,0.0,0.0,0.0,0.25,0.13,0.06,175,75
2026-04-24 15:39:25.374,3,0.0,0.0,0.0,0.37,0.06999999999999995,0.12,175,75
2026-04-24 15:39:25.387,3,0.0,0.0,0.0,0.12,0.25,-0.24,175,75
2026-04-24 15:39:25.398,3,0.0,-0.009999999999999981,0.010000000000000009,0.19,0.25,-0.24,175,75
2026-04-24 15:39:25.447,3,0.009999999999999998,0.010000000000000009,-0.010000000000000009,-0.12,0.19,0.0,175,75
2026-04-24 15:39:25.447,3,0.009999999999999998,0.0,-0.020000000000000018,0.12,0.0,-0.12000000000000001,175,75
2026-04-24 15:39:25.468,3,0.0,0.0,0.0,0.12,0.25,0.37,175,75
2026-04-24 15:39:25.481,3,0.0,0.0,0.010000000000000009,0.06,0.25,0.0,175,75
2026-04-24 15:39:25.498,3,0.0,0.0,0.0,0.12,0.06999999999999995,0.0,175,75
2026-04-24 15:39:25.498,3,0.009999999999999998,0.0,-0.020000000000000018,0.12,-0.06000000000000005,-0.06000000000000001,175,75
2026-04-24 15:39:25.519,3,0.009999999999999998,0.0,0.0,0.12,0.0,0.19,175,75
2026-04-24 15:39:25.571,3,0.0,0.0,0.010000000000000009,-0.12,0.49,0.19,175,75
2026-04-24 15:39:25.571,3,-0.01,0.0,-0.030000000000000027,0.31,0.49,0.0,175,75
2026-04-24 15:39:25.594,3,0.02,0.0,-0.020000000000000018,0.06,0.37,0.19,175,75
2026-04-24 15:39:25.597,3,0.009999999999999998,0.0,0.0,0.31,0.37,0.25,175,75
2026-04-24 15:39:25.606,3,0.0,0.0,-0.010000000000000009,0.06,0.43,0.31,175,75
2026-04-24 15:39:25.618,3,0.0,0.0,0.0,0.25,0.13,-0.06000000000000001,175,75
2026-04-24 15:39:25.628,3,-0.01,-0.009999999999999981,0.020000000000000018,0.19,-0.24,0.0,175,75
2026-04-24 15:39:25.644,3,0.009999999999999998,0.0,0.020000000000000018,0.31,-0.36,0.06,175,75
2026-04-24 15:39:25.659,3,0.009999999999999998,0.0,0.010000000000000009,0.31,-0.24,-0.12000000000000001,175,75
2026-04-24 15:39:25.676,3,0.0,0.0,-0.020000000000000018,0.06,-0.12,0.0,175,75
2026-04-24 15:39:25.676,3,0.009999999999999998,0.0,-0.010000000000000009,0.25,-0.36,0.12,175,75
2026-04-24 15:39:25.690,3,0.009999999999999998,0.0,0.0,0.06,-0.18000000000000005,0.31,175,75
2026-04-24 15:39:25.702,3,0.0,-0.009999999999999981,0.010000000000000009,0.31,0.19,-0.06000000000000001,175,75
2026-04-24 15:39:25.714,3,0.0,-0.009999999999999981,0.010000000000000009,0.06,0.06999999999999995,0.19,175,75
2026-04-24 15:39:25.726,3,0.0,0.0,0.0,0.12,-0.06000000000000005,0.12,175,75
2026-04-24 15:39:25.742,3,0.0,0.0,0.0,0.12,0.06999999999999995,0.19,175,75
2026-04-24 15:39:25.756,3,0.0,0.0,-0.020000000000000018,0.06,-0.06000000000000005,0.06,175,75
2026-04-24 15:39:25.773,3,0.0,0.0,-0.010000000000000009,-0.18000000000000002,0.25,0.0,175,75
2026-04-24 15:39:25.784,3,0.0,0.0,0.0,0.06,0.06999999999999995,0.0,175,75
2026-04-24 15:39:25.796,3,0.0,0.0,0.010000000000000009,0.31,0.19,0.06,175,75
2026-04-24 15:39:25.807,3,0.0,0.0,0.0,0.19,0.13,-0.12000000000000001,175,75
2026-04-24 15:39:25.817,3,0.0,0.0,0.0,0.19,0.25,-0.3,175,75
2026-04-24 15:39:25.830,3,0.009999999999999998,0.0,0.0,0.12,0.13,-0.42000000000000004,175,75
2026-04-24 15:39:25.835,3,0.009999999999999998,0.0,-0.010000000000000009,0.0,0.06999999999999995,0.0,175,75
2026-04-24 15:39:25.865,3,0.0,0.0,-0.010000000000000009,0.25,0.06999999999999995,0.0,175,75
2026-04-24 15:39:25.877,3,0.0,0.0,0.0,0.12,0.06999999999999995,-0.12000000000000001,175,75
2026-04-24 15:39:25.877,3,0.0,-0.009999999999999981,0.0,0.12,0.19,0.06,175,75
2026-04-24 15:39:25.891,3,0.0,0.0,0.0,0.06,0.31,0.06,175,75
2026-04-24 15:39:25.902,3,0.0,0.0,-0.010000000000000009,0.06,0.25,0.0,175,75
2026-04-24 15:39:25.916,3,0.009999999999999998,0.0,-0.010000000000000009,0.12,-0.06000000000000005,0.0,175,75
2026-04-24 15:39:25.930,3,0.0,0.0,-0.010000000000000009,0.19,0.13,0.06,175,75
2026-04-24 15:39:25.943,3,0.0,0.0,-0.010000000000000009,-0.06,0.0,0.12,175,75
2026-04-24 15:39:25.943,3,0.0,0.0,0.0,0.0,-0.12,-0.18,175,75
2026-04-24 15:39:25.954,3,0.0,0.0,-0.020000000000000018,0.06,0.8,-0.06000000000000001,175,75
2026-04-24 15:39:25.975,3,0.0,0.010000000000000009,-0.020000000000000018,0.25,0.37,-0.42000000000000004,175,75
2026-04-24 15:39:25.986,3,0.0,-0.009999999999999981,0.040000000000000036,-0.18000000000000002,0.37,0.31,175,75
2026-04-24 15:39:25.986,3,0.009999999999999998,0.0,0.010000000000000009,0.19,-0.42000000000000004,-0.18,175,75
2026-04-24 15:39:26.009,3,0.009999999999999998,0.0,-0.010000000000000009,0.25,-0.18000000000000005,0.25,175,75
2026-04-24 15:39:26.023,3,0.009999999999999998,0.0,0.0,0.12,0.0,0.12,175,75
2026-04-24 15:39:26.039,3,0.0,0.0,0.0,0.19,0.25,-0.12000000000000001,175,75
2026-04-24 15:39:26.050,3,0.0,-0.009999999999999981,0.0,0.19,0.06999999999999995,-0.06000000000000001,175,75
2026-04-24 15:39:26.054,3,0.0,0.0,0.0,0.06,0.06999999999999995,0.06,175,75
2026-04-24 15:39:26.070,3,0.0,0.0,0.0,0.06,0.31,-0.06000000000000001,175,75
2026-04-24 15:39:26.084,3,0.009999999999999998,0.0,-0.010000000000000009,0.25,-0.12,0.19,175,75
2026-04-24 15:39:26.092,3,0.0,0.0,0.0,0.06,-0.12,-0.18,175,75
2026-04-24 15:39:26.105,3,0.0,0.0,0.0,-0.06,-0.06000000000000005,0.12,175,75
2026-04-24 15:39:26.120,3,0.0,0.0,0.0,0.43000000000000005,-0.06000000000000005,-0.12000000000000001,175,75
2026-04-24 15:39:26.124,3,0.0,0.0,0.010000000000000009,0.12,-0.06000000000000005,0.25,175,75
2026-04-24 15:39:26.136,3,0.0,0.0,-0.010000000000000009,0.25,0.25,0.12,175,75
2026-04-24 15:39:26.154,3,0.0,0.0,-0.010000000000000009,0.12,0.37,-0.12000000000000001,175,75
2026-04-24 15:39:26.176,3,0.009999999999999998,0.0,-0.010000000000000009,0.19,0.0,0.0,175,75
2026-04-24 15:39:26.186,3,0.0,0.0,0.0,0.12,-0.12,-0.12000000000000001,175,75
2026-04-24 15:39:26.186,3,0.0,-0.009999999999999981,0.0,0.25,-0.18000000000000005,0.19,175,75
2026-04-24 15:39:26.206,3,0.0,0.0,0.010000000000000009,0.25,0.06999999999999995,-0.06000000000000001,175,75
2026-04-24 15:39:26.212,3,0.009999999999999998,0.0,0.010000000000000009,0.0,-0.36,0.12,175,75
2026-04-24 15:39:26.230,3,0.009999999999999998,0.0,0.0,-0.12,0.0,0.06,175,75
2026-04-24 15:39:26.244,3,0.009999999999999998,-0.009999999999999981,-0.010000000000000009,0.25,0.13,0.43,175,75
2026-04-24 15:39:26.255,3,0.009999999999999998,-0.009999999999999981,0.0,0.25,0.31,-0.12000000000000001,175,75
2026-04-24 15:39:26.275,3,0.0,-0.009999999999999981,0.0,0.0,-0.06000000000000005,-0.12000000000000001,175,75
2026-04-24 15:39:26.289,3,-0.01,0.0,0.0,0.31,-0.06000000000000005,0.0,175,75
2026-04-24 15:39:26.293,3,0.0,0.0,0.010000000000000009,0.25,-0.12,0.0,175,75
2026-04-24 15:39:26.308,3,0.0,0.010000000000000009,0.0,0.06,0.19,-0.12000000000000001,175,75
2026-04-24 15:39:26.314,3,0.009999999999999998,0.010000000000000009,0.0,0.0,-0.12,0.25,175,75
2026-04-24 15:39:26.336,3,0.0,0.0,0.0,0.19,0.06999999999999995,0.25,175,75
2026-04-24 15:39:26.356,3,0.0,-0.009999999999999981,0.0,0.19,0.19,0.25,175,75
2026-04-24 15:39:26.356,3,0.0,-0.009999999999999981,0.0,0.06,-0.18000000000000005,-0.12000000000000001,175,75
2026-04-24 15:39:26.365,3,0.0,-0.009999999999999981,0.0,0.19,-0.24,0.19,175,75
2026-04-24 15:39:26.378,3,0.0,-0.009999999999999981,-0.010000000000000009,0.12,0.25,-0.06000000000000001,175,75
2026-04-24 15:39:26.391,3,0.0,-0.009999999999999981,0.0,0.06,0.25,0.12,175,75
2026-04-24 15:39:26.398,3,0.009999999999999998,0.0,-0.010000000000000009,0.19,0.37,0.0,175,75
2026-04-24 15:39:26.410,3,0.0,0.010000000000000009,-0.020000000000000018,0.06,0.49,0.37,175,75
2026-04-24 15:39:26.421,3,0.0,0.010000000000000009,-0.010000000000000009,-0.06,0.06999999999999995,0.49,175,75
2026-04-24 15:39:26.431,3,0.0,0.0,-0.020000000000000018,0.06,0.43,0.06,175,75
2026-04-24 15:39:26.438,3,0.0,0.0,-0.010000000000000009,0.19,0.25,0.31,175,75
2026-04-24 15:39:26.458,3,0.0,0.0,0.0,0.0,0.25,-0.06000000000000001,175,75
2026-04-24 15:39:26.470,3,0.0,0.0,0.010000000000000009,0.0,0.13,-0.06000000000000001,175,75
2026-04-24 15:39:26.483,3,0.0,0.0,-0.010000000000000009,0.55,0.25,-0.12000000000000001,175,75
2026-04-24 15:39:26.496,3,0.0,0.0,0.0,0.25,0.06999999999999995,-0.12000000000000001,175,75
2026-04-24 15:39:26.506,3,0.0,0.0,0.0,0.19,-0.12,0.0,175,75
2026-04-24 15:39:26.506,3,0.0,0.0,0.010000000000000009,0.12,-0.06000000000000005,-0.12000000000000001,175,75
2026-04-24 15:39:26.523,3,0.009999999999999998,0.0,0.010000000000000009,0.06,0.06999999999999995,0.25,175,75
2026-04-24 15:39:26.525,3,0.0,0.0,0.0,0.0,0.0,-0.06000000000000001,175,75
2026-04-24 15:39:26.539,3,0.0,0.0,0.0,0.06,-0.18000000000000005,0.37,175,75
2026-04-24 15:39:26.553,3,0.0,0.0,-0.010000000000000009,0.12,0.37,0.19,175,75
2026-04-24 15:39:26.564,3,0.0,0.0,-0.010000000000000009,0.06,0.19,0.19,175,75
2026-04-24 15:39:26.569,3,0.0,0.0,-0.010000000000000009,0.19,0.0,0.12,175,75
2026-04-24 15:39:26.594,3,0.0,0.0,-0.010000000000000009,0.31,0.37,0.06,175,75
2026-04-24 15:39:26.594,3,0.009999999999999998,0.0,0.010000000000000009,0.12,-0.06000000000000005,0.06,175,75
2026-04-24 15:39:26.610,3,0.009999999999999998,0.0,0.010000000000000009,0.12,0.0,-0.12000000000000001,175,75
2026-04-24 15:39:26.624,3,0.009999999999999998,0.0,0.0,0.0,0.31,0.0,175,75
2026-04-24 15:39:26.634,3,0.0,0.0,0.0,0.49,0.0,-0.18,175,75
2026-04-24 15:39:26.647,3,0.0,0.0,-0.010000000000000009,0.25,0.06999999999999995,-0.24,175,75
2026-04-24 15:39:26.647,3,0.0,0.0,0.0,0.0,0.06999999999999995,-0.18,175,75
2026-04-24 15:39:26.665,3,0.009999999999999998,0.0,-0.010000000000000009,0.12,0.25,-0.12000000000000001,175,75
2026-04-24 15:39:26.671,3,0.0,0.0,-0.010000000000000009,0.06,0.19,0.06,175,75
2026-04-24 15:39:26.686,3,0.0,0.0,0.0,0.25,0.31,0.12,175,75
2026-04-24 15:39:26.696,3,0.0,0.0,0.0,0.06,0.37,-0.12000000000000001,175,75
2026-04-24 15:39:26.708,3,0.0,0.0,0.0,0.06,0.25,0.0,175,75
2026-04-24 15:39:26.727,3,0.0,0.0,0.0,0.19,0.0,0.0,175,75
2026-04-24 15:39:26.727,3,0.0,0.0,0.0,0.25,-0.24,0.06,175,75
2026-04-24 15:39:26.734,3,0.0,0.010000000000000009,0.0,0.12,-0.06000000000000005,-0.12000000000000001,175,75
2026-04-24 15:39:26.750,3,0.0,0.0,-0.010000000000000009,0.31,0.55,-0.06000000000000001,175,75
2026-04-24 15:39:26.763,3,0.0,0.0,0.010000000000000009,0.12,-0.12,0.0,175,75
2026-04-24 15:39:26.773,3,0.009999999999999998,0.0,0.0,0.06,0.31,0.0,175,75
2026-04-24 15:39:26.775,3,0.0,0.0,0.0,-0.12,0.0,0.12,175,75
2026-04-24 15:39:26.801,3,0.0,-0.009999999999999981,-0.010000000000000009,-0.18000000000000002,-0.06000000000000005,0.31,175,75
2026-04-24 15:39:26.813,3,0.0,0.0,0.0,0.12,-0.06000000000000005,0.06,175,75
2026-04-24 15:39:26.823,3,0.0,0.0,0.0,0.49,0.13,0.06,175,75
2026-04-24 15:39:26.833,3,0.0,0.0,0.0,0.06,0.0,0.06,175,75
2026-04-24 15:39:26.855,3,0.009999999999999998,0.0,0.010000000000000009,0.25,0.19,0.12,175,75
2026-04-24 15:39:26.856,3,0.0,0.0,0.0,0.0,0.0,0.0,175,75
2026-04-24 15:39:26.866,3,0.0,0.0,0.0,0.31,0.37,0.06,175,75
2026-04-24 15:39:26.892,3,0.0,0.0,-0.010000000000000009,0.19,-0.06000000000000005,0.19,175,75
2026-04-24 15:39:26.916,3,0.0,0.0,0.0,0.25,-0.06000000000000005,-0.06000000000000001,175,75
2026-04-24 15:39:26.916,3,0.0,0.0,-0.010000000000000009,0.12,0.19,-0.06000000000000001,175,75
2026-04-24 15:39:26.926,3,0.0,0.0,0.0,0.06,0.43,0.06,175,75
2026-04-24 15:39:26.945,3,0.009999999999999998,0.0,0.0,0.12,0.19,-0.12000000000000001,175,75
2026-04-24 15:39:26.970,3,0.009999999999999998,0.0,-0.010000000000000009,0.0,0.0,-0.24,175,75
2026-04-24 15:39:26.980,3,0.009999999999999998,0.0,0.0,0.06,0.19,0.0,175,75
2026-04-24 15:39:27.009,3,0.0,-0.009999999999999981,0.0,0.12,-0.06000000000000005,-0.42000000000000004,175,75
2026-04-24 15:39:27.027,3,0.0,0.0,0.0,0.19,-0.12,-0.3,175,75
2026-04-24 15:39:27.041,3,0.0,0.0,0.0,0.06,-0.18000000000000005,0.12,175,75
2026-04-24 15:39:27.054,3,0.0,0.0,0.0,0.12,0.13,0.12,175,75
2026-04-24 15:39:27.054,3,0.0,0.0,0.0,0.19,0.0,0.25,175,75
2026-04-24 15:39:27.074,3,0.0,0.0,0.0,0.06,0.0,0.0,175,75
2026-04-24 15:39:27.080,3,0.009999999999999998,0.0,-0.010000000000000009,0.19,-0.06000000000000005,0.0,175,75
2026-04-24 15:39:27.096,3,0.0,0.0,0.0,0.0,0.13,0.06,175,75
2026-04-24 15:39:27.107,3,0.009999999999999998,0.0,0.0,0.06,0.19,-0.24,175,75
2026-04-24 15:39:27.113,3,0.0,0.0,0.010000000000000009,0.06,0.13,0.25,175,75
2026-04-24 15:39:27.127,3,0.009999999999999998,0.0,0.0,0.31,0.19,-0.12000000000000001,175,75
2026-04-24 15:39:27.139,3,0.009999999999999998,0.0,-0.010000000000000009,0.06,0.37,-0.24,175,75
2026-04-24 15:39:27.150,3,0.0,0.0,0.0,0.0,-0.18000000000000005,-0.12000000000000001,175,75
2026-04-24 15:39:27.161,3,0.0,0.0,0.0,0.19,0.06999999999999995,0.25,175,75
2026-04-24 15:39:27.176,3,0.0,0.0,0.0,0.12,0.13,0.0,175,75
2026-04-24 15:39:27.187,3,0.0,0.0,0.0,0.12,0.06999999999999995,0.06,175,75
2026-04-24 15:39:27.210,3,0.0,0.0,0.0,0.12,-0.06000000000000005,-0.06000000000000001,175,75
2026-04-24 15:39:27.217,3,0.009999999999999998,0.0,-0.010000000000000009,0.25,0.06999999999999995,-0.06000000000000001,175,75
2026-04-24 15:39:27.238,3,0.0,0.0,0.0,0.25,-0.18000000000000005,0.25,175,75
2026-04-24 15:39:27.250,3,0.0,0.0,0.0,0.12,0.0,-0.06000000000000001,175,75
2026-04-24 15:39:27.264,3,0.0,0.0,0.0,0.0,0.0,0.31,175,75
2026-04-24 15:39:27.277,3,0.0,0.0,0.0,0.19,0.0,0.06,175,75
2026-04-24 15:39:27.301,3,0.0,0.0,0.0,0.37,-0.06000000000000005,0.0,175,75
2026-04-24 15:39:27.301,3,0.009999999999999998,0.0,0.0,0.19,0.0,-0.06000000000000001,175,75
2026-04-24 15:39:27.316,3,0.009999999999999998,0.0,0.0,0.12,0.0,0.0,175,75
2026-04-24 15:39:27.316,3,0.0,0.0,0.0,0.25,0.06999999999999995,-0.12000000000000001,175,75
2026-04-24 15:39:27.323,3,0.0,0.0,0.0,0.06,0.13,0.12,175,75
2026-04-24 15:39:27.334,3,0.0,0.0,0.0,0.19,-0.06000000000000005,0.19,175,75
2026-04-24 15:39:27.346,3,0.0,0.0,-0.010000000000000009,0.06,0.13,0.06,175,75
2026-04-24 15:39:27.356,3,0.0,0.0,0.0,0.12,0.25,-0.06000000000000001,175,75
2026-04-24 15:39:27.369,3,0.009999999999999998,0.0,0.0,0.19,-0.24,0.06,175,75
2026-04-24 15:39:27.378,3,0.0,0.0,0.0,-0.06,0.31,0.12,175,75
2026-04-24 15:39:27.391,3,0.0,0.0,0.0,0.06,0.0,0.19,175,75
2026-04-24 15:39:27.405,3,0.0,0.0,0.0,-0.06,0.13,0.0,175,75
2026-04-24 15:39:27.417,3,0.0,0.0,0.0,-0.12,-0.24,0.0,175,75
2026-04-24 15:39:27.431,3,0.0,0.0,0.0,0.12,-0.18000000000000005,0.06,175,75
2026-04-24 15:39:27.431,3,0.0,0.0,0.0,-0.12,-0.06000000000000005,0.19,175,75
2026-04-24 15:39:27.450,3,0.009999999999999998,0.0,-0.010000000000000009,-0.06,0.25,0.25,175,75
2026-04-24 15:39:27.465,3,0.0,0.0,-0.010000000000000009,0.0,-0.06000000000000005,-0.06000000000000001,175,75
2026-04-24 15:39:27.479,3,0.009999999999999998,0.0,0.0,0.25,0.06999999999999995,-0.06000000000000001,175,75
2026-04-24 15:39:27.479,3,0.0,0.010000000000000009,-0.010000000000000009,0.0,0.19,-0.12000000000000001,175,75
2026-04-24 15:39:27.489,3,0.0,-0.009999999999999981,0.0,0.12,0.31,-0.12000000000000001,175,75
2026-04-24 15:39:27.517,3,0.0,0.0,0.010000000000000009,0.06,-0.24,0.0,175,75
2026-04-24 15:39:27.523,3,0.0,0.0,0.0,0.25,0.25,-0.06000000000000001,175,75
2026-04-24 15:39:27.538,3,0.0,0.0,0.0,-0.06,0.0,0.19,175,75
2026-04-24 15:39:27.551,3,0.009999999999999998,0.0,0.0,0.0,0.13,0.12,175,75
2026-04-24 15:39:27.582,3,0.0,0.0,0.0,-0.06,0.25,0.0,175,75
2026-04-24 15:39:27.584,3,0.0,0.0,0.010000000000000009,0.12,0.13,0.19,175,75
2026-04-24 15:39:27.598,3,0.0,0.0,0.0,0.0,0.37,0.0,175,75
2026-04-24 15:39:27.609,3,0.0,0.0,0.0,0.19,0.13,0.0,175,75
2026-04-24 15:39:27.630,3,0.0,0.0,-0.010000000000000009,0.0,0.13,-0.06000000000000001,175,75
2026-04-24 15:39:27.633,3,0.0,0.0,0.0,0.19,0.0,-0.06000000000000001,175,75
2026-04-24 15:39:27.643,3,0.0,0.0,-0.010000000000000009,0.06,0.06999999999999995,-0.18,175,75
2026-04-24 15:39:27.651,3,0.0,0.0,0.0,-0.06,0.0,0.25,175,75
2026-04-24 15:39:27.664,3,0.009999999999999998,0.0,0.010000000000000009,0.06,0.13,0.19,175,75
2026-04-24 15:39:27.678,3,0.0,0.0,0.0,0.19,0.13,0.19,175,75
2026-04-24 15:39:27.690,3,0.0,0.0,0.0,0.06,-0.24,0.31,175,75
2026-04-24 15:39:27.710,3,0.0,0.0,-0.010000000000000009,0.25,0.0,0.12,175,75
2026-04-24 15:39:27.722,3,0.009999999999999998,0.0,0.0,-0.06,0.0,-0.06000000000000001,175,75
2026-04-24 15:39:27.734,3,0.0,0.0,0.0,0.06,-0.06000000000000005,-0.24,175,75
2026-04-24 15:39:27.750,3,0.0,0.0,0.0,0.19,0.25,0.25,175,75
2026-04-24 15:39:27.756,3,0.0,0.0,0.0,0.19,0.25,0.12,175,75
2026-04-24 15:39:27.769,3,0.0,0.0,0.0,0.49,0.19,-0.06000000000000001,175,75
2026-04-24 15:39:27.790,3,0.0,0.0,0.0,-0.06,0.25,-0.12000000000000001,175,75
2026-04-24 15:39:27.797,3,0.0,0.0,-0.010000000000000009,0.25,0.0,0.19,175,75
2026-04-24 15:39:27.811,3,0.0,0.0,0.0,0.19,0.06999999999999995,-0.24,175,75
2026-04-24 15:39:27.824,3,0.0,0.0,0.0,0.25,0.0,0.19,175,75
2026-04-24 15:39:27.825,3,0.009999999999999998,0.0,0.0,0.06,0.13,0.19,175,75
2026-04-24 15:39:27.851,3,0.0,0.0,0.0,0.12,0.19,-0.12000000000000001,175,75
2026-04-24 15:39:27.851,3,0.0,0.0,0.0,-0.12,0.13,-0.06000000000000001,175,75
2026-04-24 15:39:27.867,3,0.009999999999999998,0.0,0.0,0.06,0.0,0.31,175,75
2026-04-24 15:39:27.867,3,0.0,0.0,-0.010000000000000009,0.31,0.06999999999999995,0.0,175,75
2026-04-24 15:39:27.880,3,0.0,0.0,0.0,0.12,0.25,-0.06000000000000001,175,75
2026-04-24 15:39:27.890,3,0.0,0.0,0.0,-0.06,0.37,-0.06000000000000001,175,75
2026-04-24 15:39:27.907,3,0.009999999999999998,0.0,0.0,0.0,-0.24,0.0,175,75
2026-04-24 15:39:27.918,3,0.0,0.0,0.0,0.06,0.19,0.06,175,75
2026-04-24 15:39:27.929,3,0.0,0.0,0.0,0.0,0.19,0.06,175,75
2026-04-24 15:39:27.929,3,0.0,0.0,0.0,0.0,-0.06000000000000005,0.0,175,75
2026-04-24 15:39:27.954,3,0.0,0.0,0.0,-0.06,-0.06000000000000005,-0.12000000000000001,175,75
2026-04-24 15:39:27.954,3,0.0,0.0,0.0,-0.06,0.19,-0.06000000000000001,175,75
2026-04-24 15:39:27.962,3,0.0,0.0,0.0,0.12,0.06999999999999995,0.0,175,75
2026-04-24 15:39:27.977,3,0.0,0.0,0.0,0.12,0.0,0.0,175,75
2026-04-24 15:39:27.988,3,0.0,0.0,0.0,0.12,0.43,0.06,175,75
2026-04-24 15:39:28.016,3,0.0,0.0,0.0,0.12,0.13,0.06,175,75
2026-04-24 15:39:28.016,3,0.0,0.0,-0.010000000000000009,0.12,0.19,0.0,175,75
2026-04-24 15:39:28.025,3,0.0,0.0,0.0,0.31,0.37,0.25,175,75
2026-04-24 15:39:28.046,3,0.0,0.0,0.0,0.06,0.19,0.12,175,75
2026-04-24 15:39:28.057,3,0.009999999999999998,0.0,0.010000000000000009,0.25,0.25,0.0,175,75
2026-04-24 15:39:28.070,3,0.0,0.0,0.0,0.55,0.19,0.06,175,75
2026-04-24 15:39:28.087,3,0.0,-0.009999999999999981,0.0,0.12,-0.18000000000000005,0.19,175,75
2026-04-24 15:39:28.090,3,0.0,0.0,0.0,-0.06,0.25,-0.12000000000000001,175,75
2026-04-24 15:39:28.130,3,0.0,0.0,0.0,0.37,0.25,-0.06000000000000001,175,75
2026-04-24 15:39:28.130,3,0.0,0.0,0.0,0.06,0.06999999999999995,0.06,175,75
2026-04-24 15:39:28.159,3,0.0,-0.009999999999999981,-0.010000000000000009,0.06,0.31,0.12,175,75
2026-04-24 15:39:28.165,3,0.0,0.0,0.0,0.25,-0.18000000000000005,0.0,175,75
2026-04-24 15:39:28.178,3,0.009999999999999998,0.0,0.0,0.19,0.19,0.12,175,75
2026-04-24 15:39:28.197,3,0.0,0.0,0.0,0.37,0.06999999999999995,0.0,175,75
2026-04-24 15:39:28.221,3,0.0,0.0,0.0,0.12,-0.12,0.0,175,75
2026-04-24 15:39:28.221,3,0.0,0.0,0.0,0.19,0.13,0.0,175,75
2026-04-24 15:39:28.233,3,0.0,0.0,0.0,0.19,0.0,0.06,175,75
2026-04-24 15:39:28.247,3,0.0,0.0,0.0,0.06,0.0,0.0,175,75
2026-04-24 15:39:28.269,3,0.0,0.0,0.0,0.12,0.06999999999999995,0.19,175,75
2026-04-24 15:39:28.280,3,0.0,0.0,0.010000000000000009,0.19,0.06999999999999995,-0.18,175,75
2026-04-24 15:39:28.299,3,0.0,0.0,0.0,0.06,0.06999999999999995,0.06,175,75
2026-04-24 15:39:28.299,3,0.0,0.0,0.0,-0.06,0.06999999999999995,-0.18,175,75
2026-04-24 15:39:28.309,3,0.0,0.0,0.0,0.19,0.13,0.0,175,75
2026-04-24 15:39:28.324,3,0.0,0.0,-0.010000000000000009,0.31,0.31,0.06,175,75
2026-04-24 15:39:28.342,3,0.0,0.0,0.0,0.0,0.31,0.0,175,75
2026-04-24 15:39:28.360,3,0.0,0.0,0.0,0.0,-0.06000000000000005,-0.18,175,75
2026-04-24 15:39:28.368,3,0.0,0.0,0.0,0.06,-0.06000000000000005,-0.24,175,75
2026-04-24 15:39:28.377,3,0.0,0.0,0.0,-0.12,0.13,0.12,175,75
2026-04-24 15:39:28.400,3,0.009999999999999998,0.0,0.0,-0.06,-0.18000000000000005,0.25,175,75
2026-04-24 15:39:28.400,3,0.0,0.0,-0.010000000000000009,0.0,0.13,0.12,175,75
2026-04-24 15:39:28.417,3,0.0,0.0,0.0,0.06,0.19,-0.06000000000000001,175,75
2026-04-24 15:39:28.417,3,0.0,0.0,0.0,-0.06,0.0,0.12,175,75
2026-04-24 15:39:28.430,3,0.0,0.0,0.0,0.0,0.19,0.12,175,75
2026-04-24 15:39:28.441,3,0.0,0.0,0.0,0.0,0.0,0.19,175,75
2026-04-24 15:39:28.453,3,0.0,0.0,0.0,0.12,0.37,-0.06000000000000001,175,75
2026-04-24 15:39:28.472,3,0.009999999999999998,0.0,0.0,-0.06,0.13,-0.18,175,75
2026-04-24 15:39:28.487,3,0.0,0.0,0.0,0.19,0.25,0.0,175,75
2026-04-24 15:39:28.487,3,0.0,0.0,0.0,0.19,0.19,-0.18,175,75
2026-04-24 15:39:28.505,3,0.0,0.0,0.0,0.31,0.0,0.06,175,75
2026-04-24 15:39:28.515,3,0.0,0.0,0.0,0.12,0.19,0.06,175,75
2026-04-24 15:39:28.529,3,0.0,0.0,0.0,0.25,0.31,0.0,175,75
2026-04-24 15:39:28.548,3,0.0,0.0,0.0,0.25,-0.30000000000000004,-0.06000000000000001,175,75
2026-04-24 15:39:28.548,3,0.0,0.0,0.0,0.25,-0.12,0.0,175,75
2026-04-24 15:39:28.557,3,0.0,0.0,0.0,0.12,-0.06000000000000005,0.31,175,75
2026-04-24 15:39:28.570,3,0.0,0.0,0.0,-0.24000000000000002,0.06999999999999995,-0.12000000000000001,175,75
2026-04-24 15:39:28.575,3,0.0,0.0,0.0,-0.06,0.49,0.0,175,75
2026-04-24 15:39:28.594,3,0.0,0.0,0.0,0.06,0.25,0.0,175,75
2026-04-24 15:39:28.603,3,0.0,0.0,0.0,0.06,-0.36,0.12,175,75
2026-04-24 15:39:28.616,3,0.0,0.0,0.0,0.25,0.19,0.0,175,75
2026-04-24 15:39:28.633,3,0.0,0.0,0.0,0.19,0.37,0.12,175,75
2026-04-24 15:39:28.643,3,0.0,0.0,0.0,-0.18000000000000002,0.0,-0.06000000000000001,175,75
2026-04-24 15:39:28.643,3,0.009999999999999998,0.0,0.0,0.0,-0.06000000000000005,0.0,175,75
2026-04-24 15:39:28.658,3,0.0,0.0,0.0,0.25,-0.30000000000000004,0.12,175,75
2026-04-24 15:39:28.667,3,0.0,0.0,0.0,0.31,0.25,-0.18,175,75
2026-04-24 15:39:28.687,3,0.0,0.0,0.0,0.06,0.0,0.0,175,75
2026-04-24 15:39:28.694,3,0.0,0.0,0.0,0.37,0.49,-0.18,175,75
2026-04-24 15:39:28.710,3,0.0,0.0,-0.010000000000000009,0.31,0.06999999999999995,-0.24,175,75
2026-04-24 15:39:28.727,3,0.0,0.0,0.0,0.0,-0.30000000000000004,0.12,175,75
2026-04-24 15:39:28.727,3,0.0,0.0,0.0,0.25,0.06999999999999995,0.0,175,75
2026-04-24 15:39:28.737,3,0.009999999999999998,0.0,0.0,0.19,0.13,0.12,175,75
2026-04-24 15:39:28.749,3,0.009999999999999998,0.0,-0.010000000000000009,0.12,0.61,-0.18,175,75
2026-04-24 15:39:28.761,3,0.009999999999999998,0.0,0.020000000000000018,0.25,0.31,-0.49,175,75
2026-04-24 15:39:28.774,3,0.02,0.0,0.0,0.06,-0.30000000000000004,-0.18,175,75
2026-04-24 15:39:28.788,3,0.0,0.0,0.0,-0.06,0.0,0.06,175,75
2026-04-24 15:39:28.788,3,0.009999999999999998,0.0,0.020000000000000018,-0.18000000000000002,-0.06000000000000005,0.06,175,75
2026-04-24 15:39:28.796,3,0.0,0.0,0.020000000000000018,0.06,-0.5399999999999999,-0.18,175,75
2026-04-24 15:39:28.808,3,0.009999999999999998,0.0,0.010000000000000009,0.06,-0.24,0.19,175,75
2026-04-24 15:39:28.835,3,0.0,-0.009999999999999981,0.0,0.06,0.13,0.06,175,75
2026-04-24 15:39:28.835,3,0.0,0.0,0.0,0.12,0.43,0.31,175,75
2026-04-24 15:39:28.855,3,0.009999999999999998,0.0,0.0,0.06,0.25,0.06,175,75
2026-04-24 15:39:28.870,3,0.0,0.0,0.0,0.0,0.25,0.12,175,75
2026-04-24 15:39:28.884,3,0.0,0.0,-0.010000000000000009,-0.18000000000000002,0.25,0.25,175,75
2026-04-24 15:39:28.906,3,0.009999999999999998,0.0,0.0,-0.06,-0.36,0.12,175,75
2026-04-24 15:39:28.924,3,0.0,0.0,0.0,0.0,0.6799999999999999,-0.06000000000000001,175,75
2026-04-24 15:39:28.939,3,-0.01,-0.009999999999999981,0.0,0.25,-0.4800000000000001,0.31,175,75
2026-04-24 15:39:28.956,3,0.02,0.0,0.0,0.19,0.61,-0.24,175,75
2026-04-24 15:39:28.982,3,0.0,0.0,0.0,0.31,-0.24,0.06,175,75
2026-04-24 15:39:28.990,3,0.009999999999999998,0.0,0.0,0.19,0.6799999999999999,0.0,175,75
2026-04-24 15:39:29.003,3,-0.01,0.0,0.0,0.31,-0.24,0.0,175,75
2026-04-24 15:39:29.026,3,0.0,0.0,0.0,-0.12,0.19,0.06,175,75
2026-04-24 15:39:29.043,3,0.0,0.0,-0.010000000000000009,-0.06,0.31,-0.12000000000000001,175,75
2026-04-24 15:39:29.055,3,0.0,0.0,0.0,0.12,0.19,0.06,175,75
2026-04-24 15:39:29.082,3,0.009999999999999998,0.0,0.0,-0.12,0.13,-0.18,175,75
2026-04-24 15:39:29.082,3,0.009999999999999998,0.010000000000000009,0.0,0.12,0.19,0.25,175,75
2026-04-24 15:39:29.093,3,0.0,0.0,-0.010000000000000009,0.37,0.06999999999999995,-0.3,175,75
2026-04-24 15:39:29.109,3,0.009999999999999998,-0.009999999999999981,0.0,0.37,0.37,-0.24,175,75
2026-04-24 15:39:29.125,3,-0.01,0.0,0.0,-0.12,0.43,0.49,175,75
2026-04-24 15:39:29.125,3,-0.01,0.0,0.0,0.19,0.06999999999999995,-0.18,175,75
2026-04-24 15:39:29.145,3,-0.02,0.0,0.0,0.31,-0.06000000000000005,0.19,175,75
2026-04-24 15:39:29.156,3,-0.01,0.0,0.0,0.19,-0.18000000000000005,0.31,175,75
2026-04-24 15:39:29.156,3,0.0,0.0,0.0,0.12,0.13,0.31,175,75
2026-04-24 15:39:29.169,3,0.0,0.0,0.0,0.0,0.06999999999999995,0.12,175,75
2026-04-24 15:39:29.183,3,0.0,0.0,0.0,-0.12,0.13,-0.36,175,75
2026-04-24 15:39:29.195,3,0.009999999999999998,0.0,0.0,0.0,0.25,0.0,175,75
2026-04-24 15:39:29.203,3,0.009999999999999998,0.0,-0.010000000000000009,0.19,0.13,-0.18,175,75
2026-04-24 15:39:29.221,3,0.0,0.0,0.0,0.19,0.37,0.12,175,75
2026-04-24 15:39:29.221,3,0.0,0.0,0.0,0.06,-0.18000000000000005,0.06,175,75
2026-04-24 15:39:29.237,3,0.0,0.0,0.0,0.19,0.13,-0.12000000000000001,175,75
2026-04-24 15:39:29.247,3,0.0,0.0,0.0,0.12,0.37,0.31,175,75
2026-04-24 15:39:29.257,3,0.009999999999999998,0.0,0.0,0.0,0.0,0.0,175,75
2026-04-24 15:39:29.270,3,0.0,0.0,0.0,0.06,0.13,0.0,175,75
2026-04-24 15:39:29.287,3,0.009999999999999998,-0.009999999999999981,0.0,-0.06,0.19,0.12,175,75
2026-04-24 15:39:29.299,3,0.0,-0.009999999999999981,0.0,0.25,0.19,0.0,175,75
2026-04-24 15:39:29.299,3,0.0,0.0,0.0,0.12,0.25,-0.12000000000000001,175,75
2026-04-24 15:39:29.318,3,0.009999999999999998,0.0,0.0,0.19,0.0,-0.18,175,75
2026-04-24 15:39:29.330,3,0.0,0.0,0.0,0.55,0.0,0.25,175,75
2026-04-24 15:39:29.365,3,0.0,0.0,0.0,0.19,0.06999999999999995,0.37,175,75
2026-04-24 15:39:29.389,3,0.0,0.0,0.0,0.06,0.19,0.12,175,75
2026-04-24 15:39:29.403,3,0.0,0.0,0.0,0.0,0.43,-0.06000000000000001,175,75
2026-04-24 15:39:29.415,3,0.009999999999999998,0.0,0.0,0.25,0.0,-0.12000000000000001,175,75
2026-04-24 15:39:29.427,3,0.0,0.0,0.0,0.12,0.13,0.25,175,75
2026-04-24 15:39:29.427,3,0.0,0.0,0.0,0.12,0.13,0.0,175,75
2026-04-24 15:39:29.455,3,0.009999999999999998,0.0,0.0,0.25,0.13,0.12,175,75
2026-04-24 15:39:29.467,3,0.0,0.0,0.0,0.25,-0.06000000000000005,0.19,175,75
2026-04-24 15:39:29.471,3,0.0,0.0,-0.010000000000000009,-0.06,0.13,0.12,175,75
2026-04-24 15:39:29.493,3,0.0,0.0,0.0,0.0,0.19,0.12,175,75
2026-04-24 15:39:29.507,3,0.0,0.0,0.0,0.25,0.19,-0.12000000000000001,175,75
2026-04-24 15:39:29.515,3,0.0,0.0,0.0,-0.06,0.0,0.19,175,75
2026-04-24 15:39:29.527,3,0.0,0.0,0.0,0.12,0.19,0.12,175,75
2026-04-24 15:39:29.538,3,0.0,-0.009999999999999981,0.0,-0.12,0.13,0.0,175,75
2026-04-24 15:39:29.561,3,0.0,0.0,0.0,-0.12,0.13,-0.12000000000000001,175,75
2026-04-24 15:39:29.571,3,0.0,0.0,0.0,0.0,0.19,0.37,175,75
2026-04-24 15:39:29.594,3,0.0,0.0,0.0,0.12,0.06999999999999995,-0.06000000000000001,175,75
2026-04-24 15:39:29.594,3,0.009999999999999998,0.0,0.0,0.12,0.13,0.12,175,75
2026-04-24 15:39:29.604,3,0.0,0.0,0.0,0.06,0.13,0.12,175,75
2026-04-24 15:39:29.613,3,0.0,0.0,0.0,0.0,0.06999999999999995,0.12,175,75
2026-04-24 15:39:29.627,3,0.009999999999999998,0.0,0.0,0.25,0.19,-0.3,175,75
2026-04-24 15:39:29.638,3,0.0,0.0,0.0,0.19,0.06999999999999995,-0.06000000000000001,175,75
2026-04-24 15:39:29.655,3,0.0,0.0,-0.010000000000000009,0.06,0.43,0.12,175,75
2026-04-24 15:39:29.667,3,0.0,0.0,0.0,0.12,0.13,0.12,175,75
2026-04-24 15:39:29.688,3,0.0,0.0,0.0,0.0,0.19,0.19,175,75
2026-04-24 15:39:29.697,3,0.0,0.0,0.0,0.0,0.25,0.06,175,75
2026-04-24 15:39:29.697,3,0.0,0.0,0.0,0.0,0.13,0.12,175,75
2026-04-24 15:39:29.710,3,0.0,0.0,-0.010000000000000009,0.19,0.13,-0.12000000000000001,175,75
2026-04-24 15:39:29.731,3,0.0,0.0,0.0,0.12,0.0,-0.24,175,75
2026-04-24 15:39:29.743,3,0.0,0.0,-0.010000000000000009,0.12,0.25,-0.18,175,75
2026-04-24 15:39:29.757,3,0.0,0.0,0.0,-0.06,-0.06000000000000005,0.0,175,75
2026-04-24 15:39:29.770,3,0.0,0.0,-0.010000000000000009,0.19,0.49,0.0,175,75
2026-04-24 15:39:29.784,3,0.0,0.0,0.0,0.06,-0.06000000000000005,0.12,175,75
2026-04-24 15:39:29.792,3,0.009999999999999998,0.0,0.0,0.37,0.0,-0.12000000000000001,175,75
2026-04-24 15:39:29.809,3,0.0,0.0,0.0,0.31,0.06999999999999995,-0.06000000000000001,175,75
2026-04-24 15:39:29.809,3,0.0,0.0,0.0,0.0,0.31,-0.18,175,75
2026-04-24 15:39:29.830,3,0.0,0.0,0.0,-0.06,-0.06000000000000005,0.0,175,75
2026-04-24 15:39:29.861,3,0.0,0.0,0.0,0.19,0.0,-0.12000000000000001,175,75
2026-04-24 15:39:29.872,3,0.0,0.0,0.0,0.0,0.19,-0.06000000000000001,175,75
2026-04-24 15:39:29.872,3,0.0,0.0,0.0,0.37,0.0,0.06,175,75
2026-04-24 15:39:29.883,3,0.0,0.0,0.0,-0.06,0.25,-0.06000000000000001,175,75
2026-04-24 15:39:29.901,3,0.0,0.0,0.0,0.19,0.0,0.12,175,75
2026-04-24 15:39:29.901,3,0.0,0.0,0.0,0.06,-0.12,0.12,175,75
2026-04-24 15:39:29.923,3,0.0,0.0,0.0,0.12,0.0,0.06,175,75
2026-04-24 15:39:29.937,3,0.0,0.0,0.0,0.06,0.19,-0.06000000000000001,175,75
2026-04-24 15:39:29.967,3,0.0,0.0,0.0,0.31,0.13,-0.12000000000000001,175,75
2026-04-24 15:39:29.977,3,0.0,0.0,0.0,0.37,0.13,0.0,175,75
2026-04-24 15:39:29.987,3,0.0,0.0,0.0,0.25,0.31,0.06,175,75
2026-04-24 15:39:30.005,3,0.0,-0.009999999999999981,0.0,0.25,0.25,-0.18,175,75
2026-04-24 15:39:30.005,3,0.0,0.0,0.0,0.06,0.19,0.0,175,75
2026-04-24 15:39:30.031,3,0.0,0.0,0.0,0.06,0.06999999999999995,0.19,175,75
2026-04-24 15:39:30.031,3,0.009999999999999998,0.0,0.0,0.31,0.13,0.06,175,75
2026-04-24 15:39:30.041,3,0.0,0.0,0.0,0.12,0.25,-0.12000000000000001,175,75
2026-04-24 15:39:30.054,3,0.0,0.0,0.0,0.12,0.06999999999999995,0.25,175,75
2026-04-24 15:39:30.078,3,0.0,0.0,0.0,0.06,0.31,0.31,175,75
2026-04-24 15:39:30.078,3,0.0,0.0,0.0,-0.06,0.43,-0.12000000000000001,175,75
