Time,ID,Ax,Ay,Az,Gx,Gy,Gz,Height,Weight
2026-05-09 16:04:24.864,3,0.5,0.94,0.43,5.3354,-6.6213999999999995,31.0964,175,75
2026-05-09 16:04:24.878,3,0.29,0.95,0.14,-10.2746,33.4386,-2.743599999999997,175,75
2026-05-09 16:04:24.902,3,0.24,0.91,0.76,-56.6146,129.7886,-33.5336,175,75
2026-05-09 16:04:24.911,3,0.1,0.93,1.03,-69.8546,126.7386,-55.483599999999996,175,75
2026-05-09 16:04:24.964,3,-0.17,1.06,1.21,-92.8346,138.7486,-141.7036,175,75
2026-05-09 16:04:25.008,3,0.06,1.29,1.09,-141.00459999999998,69.1786,-173.96359999999999,175,75
2026-05-09 16:04:25.023,3,-0.69,1.05,1.35,-160.94459999999998,15.3286,-174.5736,175,75
2026-05-09 16:04:25.023,3,-1.02,1.06,1.62,-160.94459999999998,25.208599999999997,-174.5136,175,75
2026-05-09 16:04:25.044,3,-8.08,3.95,5.32,36.3054,263.5686,232.4964,175,75
2026-05-09 16:04:25.089,3,3.1,-0.37,-0.19,-365.0346,-672.9614,-199.2036,175,75
2026-05-09 16:04:25.100,3,0.09,1.22,-1.55,-379.0546,-387.65139999999997,60.91640000000001,175,75
2026-05-09 16:04:25.134,3,1.2,-1.66,2.5,140.1454,395.8786,-123.41359999999999,175,75
2026-05-09 16:04:25.144,3,2.37,-0.4,2.89,70.33539999999999,165.9386,-85.7936,175,75
2026-05-09 16:04:25.164,3,0.42,-0.47,0.64,64.6654,-10.0914,30.3064,175,75
2026-05-09 16:04:25.174,3,0.28,-0.46,0.34,101.97540000000001,45.0886,26.5864,175,75
2026-05-09 16:04:25.184,3,0.88,-0.75,0.72,123.80540000000002,97.0986,41.766400000000004,175,75
2026-05-09 16:04:25.200,3,0.99,-0.69,0.66,121.55540000000002,29.848599999999998,61.52640000000001,175,75
2026-05-09 16:04:25.210,3,0.68,-0.63,0.45,131.30540000000002,25.458599999999997,78.2364,175,75
2026-05-09 16:04:25.261,3,0.1,-0.52,1.1,128.1954,-5.7614,128.9664,175,75
2026-05-09 16:04:25.274,3,-0.37,-0.34,0.77,81.43539999999999,-24.001399999999997,121.03640000000001,175,75
2026-05-09 16:04:25.285,3,-0.36,-0.03,0.39,52.9554,5.028600000000001,85.60640000000001,175,75
2026-05-09 16:04:25.296,3,0.02,0.28,0.26,47.4654,15.3286,47.55640000000001,175,75
2026-05-09 16:04:25.320,3,-0.17,0.71,1.05,7.895400000000002,61.1886,87.2564,175,75
2026-05-09 16:04:25.334,3,0.34,0.22,0.63,-20.9446,-46.3714,49.99640000000001,175,75
2026-05-09 16:04:25.334,3,0.44,0.13,0.26,-69.0546,-75.8914,25.9164,175,75
2026-05-09 16:04:25.344,3,0.58,0.21,-0.01,-107.59459999999999,-75.0314,13.906400000000001,175,75
2026-05-09 16:04:25.356,3,0.53,0.28,-0.03,-144.3046,-43.8114,-14.263599999999997,175,75
2026-05-09 16:04:25.378,3,0.55,0.33,0.47,-195.94459999999998,-36.501400000000004,-66.5836,175,75
2026-05-09 16:04:25.392,3,0.49,0.23,0.62,-228.50459999999998,-48.8114,-95.30359999999999,175,75
2026-05-09 16:04:25.428,3,0.2,-0.22,1.21,-273.2046,-28.0214,-142.6236,175,75
2026-05-09 16:04:25.444,3,0.06,-0.45,1.46,-273.50460000000004,-64.9714,-178.7836,175,75
2026-05-09 16:04:25.476,3,0.21,-0.57,1.36,-229.1746,-60.281400000000005,-172.2536,175,75
2026-05-09 16:04:25.489,3,0.41,-0.44,1.56,-198.3246,-12.2914,-164.6336,175,75
2026-05-09 16:04:25.489,3,0.37,-0.07,1.89,-153.69459999999998,-44.4814,-161.2236,175,75
2026-05-09 16:04:25.504,3,0.28,0.67,1.88,-96.1346,-28.571399999999997,-157.3136,175,75
2026-05-09 16:04:25.517,3,-1.64,1.72,2.2,-57.5946,11.188600000000001,-46.1536,175,75
2026-05-09 16:04:25.554,3,-0.34,0.75,4.41,427.8354,390.6386,12.686400000000003,175,75
2026-05-09 16:04:25.564,3,5.1,-2.08,0.4,171.0054,-123.2614,127.7464,175,75
2026-05-09 16:04:25.576,3,-2.9,0.25,-0.03,-0.8245999999999993,-302.1114,338.2964,175,75
2026-05-09 16:04:25.579,3,-3.72,-1.18,-0.26,69.3554,157.2886,276.95640000000003,175,75
2026-05-09 16:04:25.593,3,-0.47,-2.19,0.66,140.5154,260.4586,-8.963599999999998,175,75
2026-05-09 16:04:25.601,3,0.04,-1.5,2.22,175.21540000000002,60.5186,-151.15359999999998,175,75
2026-05-09 16:04:25.628,3,0.34,-1.07,2.81,65.6354,-153.32139999999998,153.9664,175,75
2026-05-09 16:04:25.639,3,-0.25,-0.38,1.15,57.715399999999995,-128.32139999999998,106.0364,175,75
2026-05-09 16:04:25.671,3,-0.82,0.43,0.88,75.9454,29.2986,69.99640000000001,175,75
2026-05-09 16:04:25.719,3,-0.21,-1.33,1.2,-0.5846,-66.3114,-18.8436,175,75
2026-05-09 16:04:25.740,3,0.24,-1.28,0.76,13.075400000000002,-96.4314,-38.593599999999995,175,75
2026-05-09 16:04:25.779,3,1.04,-1.29,-0.11,29.605400000000003,-121.8014,15.7364,175,75
2026-05-09 16:04:25.809,3,0.98,-0.76,-0.45,93.4454,-81.0714,49.8164,175,75
2026-05-09 16:04:25.838,3,0.86,-1.04,0.33,146.7354,15.6386,104.8764,175,75
2026-05-09 16:04:25.892,3,0.57,0.07,0.95,190.6354,-29.541400000000003,114.0864,175,75
2026-05-09 16:04:25.892,3,-0.78,0.45,1.58,184.7254,60.0886,154.2664,175,75
2026-05-09 16:04:25.908,3,0.04,0.25,1.63,139.8454,37.038599999999995,161.8264,175,75
2026-05-09 16:04:25.919,3,0.4,-0.02,1.3,107.22540000000001,-68.0814,155.9764,175,75
2026-05-09 16:04:25.930,3,0.44,0.1,0.65,78.74539999999999,-120.9514,137.2564,175,75
2026-05-09 16:04:25.944,3,0.75,0.35,0.24,45.5154,-91.37140000000001,115.3664,175,75
2026-05-09 16:04:25.948,3,0.99,0.5,0.2,25.3354,-71.0114,116.15640000000002,175,75
2026-05-09 16:04:26.003,3,0.35,0.92,0.37,-49.3046,41.7386,42.49640000000001,175,75
2026-05-09 16:04:26.035,3,-0.07,0.87,0.92,-132.7746,33.568599999999996,-49.693599999999996,175,75
2026-05-09 16:04:26.081,3,0.03,0.91,0.76,-127.8346,79.4186,-139.5736,175,75
2026-05-09 16:04:26.100,3,0.24,1.61,0.98,-190.03459999999998,103.9286,-186.2236,175,75
2026-05-09 16:04:26.120,3,0.67,1.38,0.86,-208.6346,71.0686,-192.7436,175,75
2026-05-09 16:04:26.138,3,-0.83,0.78,1.07,-219.91459999999998,102.6486,-213.0436,175,75
2026-05-09 16:04:26.138,3,-1.13,0.99,1.91,-199.97459999999998,156.60860000000002,-222.1936,175,75
2026-05-09 16:04:26.186,3,-12.25,5.49,8.75,353.80539999999996,430.02860000000004,558.8463999999999,175,75
2026-05-09 16:04:26.186,3,0.08,-6.86,10.66,678.9354000000001,234.35860000000002,237.9264,175,75
2026-05-09 16:04:26.239,3,7.17,1.19,-1.88,-455.5246,-727.2914000000001,-219.6336,175,75
2026-05-09 16:04:26.266,3,-0.13,-1.33,1.52,182.9554,447.5886,-106.64359999999999,175,75
2026-05-09 16:04:26.280,3,1.82,-0.2,2.4,87.22540000000001,19.848599999999998,31.826400000000003,175,75
2026-05-09 16:04:26.301,3,0.67,-0.7,1.16,68.3254,-127.5314,83.10640000000001,175,75
2026-05-09 16:04:26.301,3,0.22,-0.82,0.54,83.0154,-85.2814,62.3164,175,75
2026-05-09 16:04:26.327,3,0.88,-0.5,0.61,116.6754,-14.481399999999999,70.30640000000001,175,75
2026-05-09 16:04:26.327,3,0.67,-0.43,0.6,120.8854,-42.0414,83.77640000000001,175,75
2026-05-09 16:04:26.345,3,0.37,-0.34,0.53,126.97540000000001,-24.851399999999998,82.6264,175,75
2026-05-09 16:04:26.345,3,0.24,-0.29,0.65,143.93540000000002,16.7986,85.1864,175,75
2026-05-09 16:04:26.358,3,0.06,-0.17,1.03,177.9554,37.5886,81.7064,175,75
2026-05-09 16:04:26.371,3,0.18,-0.16,1.17,179.7854,33.2586,90.05640000000001,175,75
2026-05-09 16:04:26.404,3,0.18,-0.07,0.93,144.90540000000001,-17.351399999999998,106.3464,175,75
2026-05-09 16:04:26.412,3,-0.03,0.64,0.48,75.08539999999999,-6.0114,84.3264,175,75
2026-05-09 16:04:26.446,3,-0.42,0.38,0.94,2.6454000000000004,0.45860000000000023,112.5564,175,75
2026-05-09 16:04:26.471,3,0.05,0.14,0.17,-63.2046,-45.5814,38.296400000000006,175,75
2026-05-09 16:04:26.485,3,0.08,0.08,0.19,-73.44460000000001,-16.251399999999997,19.0864,175,75
2026-05-09 16:04:26.496,3,0.08,0.28,0.3,-117.65459999999999,21.738599999999998,-44.2636,175,75
2026-05-09 16:04:26.509,3,0.08,0.38,0.44,-139.66459999999998,54.9086,-79.6336,175,75
2026-05-09 16:04:26.524,3,0.11,0.4,0.69,-158.0846,68.3186,-94.8736,175,75
2026-05-09 16:04:26.536,3,0.08,0.35,1.04,-182.59459999999999,48.3786,-109.14359999999999,175,75
2026-05-09 16:04:26.547,3,0.07,0.29,1.2,-196.19459999999998,14.2986,-116.4636,175,75
2026-05-09 16:04:26.547,3,0.06,0.17,1.32,-214.0546,-29.6714,-120.5436,175,75
2026-05-09 16:04:26.579,3,0.09,-0.08,1.2,-240.6446,-79.0014,-114.02359999999999,175,75
2026-05-09 16:04:26.590,3,0.14,-0.29,1.11,-242.53459999999998,-91.0114,-114.6336,175,75
2026-05-09 16:04:26.620,3,0.32,-0.35,0.84,-208.44459999999998,-18.6914,-112.5636,175,75
2026-05-09 16:04:26.630,3,0.32,-0.24,0.87,-155.7046,-15.2114,-115.0636,175,75
2026-05-09 16:04:26.641,3,0.23,-0.05,1.01,-133.3246,-3.8713999999999995,-101.3436,175,75
2026-05-09 16:04:26.641,3,0.32,0.12,1.05,-112.59459999999999,17.218600000000002,-98.2336,175,75
2026-05-09 16:04:26.653,3,0.38,0.49,1.12,-88.1446,52.218599999999995,-101.7636,175,75
2026-05-09 16:04:26.666,3,0.51,0.82,1.5,-56.004599999999996,87.40859999999999,-89.4536,175,75
2026-05-09 16:04:26.678,3,-2.12,1.83,2.61,-12.4146,141.85860000000002,14.996400000000005,175,75
2026-05-09 16:04:26.690,3,-8.35,4.05,5.33,228.80540000000002,492.46860000000004,306.8264,175,75
2026-05-09 16:04:26.740,3,-2.16,0.94,0.97,-22.714599999999997,-138.51139999999998,290.4864,175,75
2026-05-09 16:04:26.764,3,0.27,0.04,1.88,121.97540000000001,157.5286,-56.4036,175,75
2026-05-09 16:04:26.785,3,-0.34,-0.82,1.65,61.2454,-50.891400000000004,74.69640000000001,175,75
2026-05-09 16:04:26.795,3,-0.22,-1.27,1.56,56.3054,-38.0814,34.936400000000006,175,75
2026-05-09 16:04:26.795,3,0.13,-1.02,1.37,53.9354,-33.0814,34.7564,175,75
2026-05-09 16:04:26.809,3,-0.12,-0.71,1.31,53.2554,-32.8414,30.246400000000005,175,75
2026-05-09 16:04:26.829,3,-0.19,-0.51,1.07,54.4754,-16.1314,13.8464,175,75
2026-05-09 16:04:26.840,3,-0.38,-0.48,1.13,53.8654,8.0186,8.3564,175,75
2026-05-09 16:04:26.887,3,0.09,-1.1,0.99,18.3854,-57.5914,-22.6836,175,75
2026-05-09 16:04:26.908,3,0.43,-1.16,0.78,13.255400000000002,-87.59140000000001,-15.793599999999998,175,75
2026-05-09 16:04:26.919,3,0.68,-1.22,0.57,-0.8845999999999998,-100.2814,-8.653599999999997,175,75
2026-05-09 16:04:26.935,3,0.86,-1.04,0.4,1.0053999999999998,-106.98140000000001,-1.8935999999999993,175,75
2026-05-09 16:04:26.971,3,1.22,-0.63,0.15,15.575400000000002,-116.9214,17.076400000000003,175,75
2026-05-09 16:04:26.971,3,0.96,-0.31,0.09,33.565400000000004,-109.0014,37.1964,175,75
2026-05-09 16:04:27.011,3,0.43,-0.38,0.44,120.8854,-19.541400000000003,92.9264,175,75
2026-05-09 16:04:27.011,3,0.11,-0.4,0.4,124.6654,4.5986,104.02640000000001,175,75
2026-05-09 16:04:27.030,3,-0.28,-0.33,0.68,131.0054,59.718599999999995,114.3264,175,75
2026-05-09 16:04:27.064,3,-0.33,0.48,1.18,193.99540000000002,54.9086,154.3264,175,75
2026-05-09 16:04:27.069,3,-0.17,0.27,1.44,191.30540000000002,25.208599999999997,143.65640000000002,175,75
2026-05-09 16:04:27.083,3,0.33,-0.09,1.18,153.3854,-58.931400000000004,138.90640000000002,175,75
2026-05-09 16:04:27.104,3,0.31,0.11,0.5,101.7954,-64.0614,129.0864,175,75
2026-05-09 16:04:27.197,3,0.22,0.88,1.14,-93.75460000000001,43.9886,-18.4136,175,75
2026-05-09 16:04:27.208,3,0.28,1.08,1.09,-108.0846,-3.2013999999999996,-43.9636,175,75
2026-05-09 16:04:27.241,3,0.1,1.44,0.54,-160.4546,61.248599999999996,-137.4436,175,75
2026-05-09 16:04:27.258,3,0.14,1.55,0.49,-198.75459999999998,68.2586,-145.3036,175,75
2026-05-09 16:04:27.287,3,-0.28,0.7,0.64,-230.3946,106.0686,-182.5036,175,75
2026-05-09 16:04:27.371,3,0.41,2.91,-0.19,-381.19460000000004,-665.6414000000001,234.5164,175,75
2026-05-09 16:04:27.378,3,0.45,-1.93,-1.57,-467.8346,1.9186,115.18639999999999,175,75
2026-05-09 16:04:27.378,3,0.23,-1.36,-1.29,-83.56460000000001,118.7486,-3.113599999999998,175,75
2026-05-09 16:04:27.387,3,-0.83,-1.85,-0.22,175.5154,155.45860000000002,-121.83359999999999,175,75
2026-05-09 16:04:27.422,3,1.75,0.44,2.05,113.3254,345.8186,-133.2336,175,75
2026-05-09 16:04:27.435,3,0.66,0.03,1.3,72.40540000000001,-66.7414,20.6664,175,75
2026-05-09 16:04:27.442,3,0.21,-0.2,0.37,112.1654,23.8086,1.7064000000000021,175,75
2026-05-09 16:04:27.458,3,0.34,-0.33,0.32,139.6654,106.4886,12.3764,175,75
2026-05-09 16:04:27.472,3,0.46,-0.33,0.67,148.3254,120.3286,21.0964,175,75
2026-05-09 16:04:27.483,3,0.33,-0.15,0.9,141.9754,96.9786,26.7064,175,75
2026-05-09 16:04:27.509,3,0.22,0.04,1.19,152.58540000000002,55.998599999999996,80.7964,175,75
2026-05-09 16:04:27.517,3,0.24,0.0,1.28,152.52540000000002,31.068600000000004,93.6564,175,75
2026-05-09 16:04:27.604,3,-0.55,0.21,0.86,41.7954,67.5886,69.1464,175,75
2026-05-09 16:04:27.609,3,-0.17,0.06,0.96,19.3554,18.0186,62.436400000000006,175,75
2026-05-09 16:04:27.620,3,0.09,-0.08,0.83,-17.1646,-48.5114,48.296400000000006,175,75
2026-05-09 16:04:27.647,3,-0.01,-0.02,0.22,-91.25460000000001,-71.98140000000001,4.576400000000003,175,75
2026-05-09 16:04:27.649,3,0.04,0.06,0.27,-108.2046,-47.6514,-27.013599999999997,175,75
2026-05-09 16:04:27.692,3,0.31,0.02,0.73,-176.00459999999998,-77.23140000000001,-71.9536,175,75
2026-05-09 16:04:27.692,3,0.22,-0.11,0.69,-201.6746,-77.7214,-88.9636,175,75
2026-05-09 16:04:27.702,3,0.26,-0.18,0.73,-219.6046,-65.2214,-112.3736,175,75
2026-05-09 16:04:27.713,3,0.43,-0.14,0.8,-236.06459999999998,-56.9214,-132.6236,175,75
2026-05-09 16:04:27.724,3,0.52,-0.13,0.76,-244.3646,-46.251400000000004,-140.0036,175,75
2026-05-09 16:04:27.759,3,0.48,-0.21,0.86,-239.3046,10.938600000000001,-141.3436,175,75
2026-05-09 16:04:27.769,3,0.47,-0.23,0.82,-233.3846,31.738599999999998,-146.3436,175,75
2026-05-09 16:04:27.783,3,0.41,-0.33,1.07,-203.75459999999998,58.8086,-133.8436,175,75
2026-05-09 16:04:27.794,3,0.39,-0.31,1.43,-167.1046,116.0686,-128.4736,175,75
2026-05-09 16:04:27.805,3,0.21,-0.12,2.02,-117.53460000000001,113.01859999999999,-130.5436,175,75
2026-05-09 16:04:27.818,3,-0.44,1.0,2.35,-74.4246,38.928599999999996,-121.22359999999999,175,75
2026-05-09 16:04:27.829,3,-4.46,2.81,3.02,-66.5546,-11.6214,135.12640000000002,175,75
2026-05-09 16:04:27.845,3,-6.66,5.31,4.75,161.0654,199.29860000000002,282.5564,175,75
2026-05-09 16:04:27.857,3,0.83,-0.7,4.39,360.0854,353.7486,37.07640000000001,175,75
2026-05-09 16:04:27.878,3,-2.19,0.2,0.18,-62.4146,-422.3514,314.1464,175,75
2026-05-09 16:04:27.906,3,-0.78,-2.03,0.92,194.96540000000002,278.0786,33.906400000000005,175,75
2026-05-09 16:04:27.972,3,-0.25,-0.39,1.85,62.465399999999995,-20.821399999999997,46.766400000000004,175,75
2026-05-09 16:04:28.006,3,-0.37,-0.15,1.21,45.1454,-46.681400000000004,47.016400000000004,175,75
2026-05-09 16:04:28.013,3,-0.73,-0.24,1.02,42.3454,-6.8614,26.3464,175,75
2026-05-09 16:04:28.026,3,-0.6,-0.33,1.24,41.5554,29.0486,-4.5135999999999985,175,75
2026-05-09 16:04:28.057,3,-0.27,-0.53,1.33,11.2454,-23.931399999999996,-14.3936,175,75
2026-05-09 16:04:28.068,3,-0.21,-0.68,1.24,6.9154,-20.5214,-26.6436,175,75
2026-05-09 16:04:28.089,3,0.3,-0.97,1.07,3.1354000000000006,-52.961400000000005,-25.793599999999998,175,75
2026-05-09 16:04:28.103,3,0.39,-1.06,0.86,1.6753999999999998,-65.0314,-13.473599999999998,175,75
2026-05-09 16:04:28.129,3,0.68,-0.52,0.34,34.6054,-65.8914,34.0864,175,75
2026-05-09 16:04:28.149,3,0.5,-0.43,0.57,64.72540000000001,-41.3114,53.656400000000005,175,75
2026-05-09 16:04:28.161,3,0.61,-0.58,0.62,87.9554,-13.141399999999999,68.5964,175,75
2026-05-09 16:04:28.207,3,0.12,-0.02,1.47,164.5454,29.238599999999998,89.99640000000001,175,75
2026-05-09 16:04:28.239,3,-0.55,0.83,1.1,213.74540000000002,100.3286,98.0464,175,75
2026-05-09 16:04:28.249,3,-0.03,0.59,1.17,182.83540000000002,87.8286,121.4664,175,75
2026-05-09 16:04:28.261,3,0.14,0.52,0.95,162.58540000000002,42.5286,96.7664,175,75
2026-05-09 16:04:28.283,3,0.14,0.67,0.75,130.6954,63.748599999999996,85.7364,175,75
2026-05-09 16:04:28.294,3,0.32,1.01,0.79,101.3654,99.1786,98.71640000000001,175,75
2026-05-09 16:04:28.301,3,0.23,0.83,0.77,45.6954,4.538600000000001,76.27640000000001,175,75
2026-05-09 16:04:28.348,3,0.03,1.16,1.12,-37.7746,-11.9214,-0.42359999999999687,175,75
2026-05-09 16:04:28.385,3,0.18,0.91,0.6,-86.6746,-86.4314,-79.2036,175,75
2026-05-09 16:04:28.395,3,0.41,1.01,0.26,-116.43459999999999,-71.0114,-126.89359999999999,175,75
2026-05-09 16:04:28.444,3,-0.9,1.01,1.61,-171.31459999999998,122.76859999999999,-201.40359999999998,175,75
2026-05-09 16:04:28.456,3,-12.01,6.08,7.96,318.93539999999996,480.4586,655.6063999999999,175,75
2026-05-09 16:04:28.486,3,0.4,-4.01,2.96,-297.5946,-811.0714,-491.0336,175,75
2026-05-09 16:04:28.524,3,1.18,-1.71,-1.15,-52.7746,94.7186,24.576400000000003,175,75
2026-05-09 16:04:28.536,3,0.69,-1.66,0.04,11.6754,119.5386,-58.723600000000005,175,75
2026-05-09 16:04:28.547,3,0.58,-0.74,2.24,50.6354,119.2386,-40.5436,175,75
2026-05-09 16:04:28.659,3,-0.19,0.08,1.07,133.3854,97.5886,87.0164,175,75
2026-05-09 16:04:28.674,3,-0.28,-0.12,1.34,104.5454,80.0886,98.8464,175,75
2026-05-09 16:04:28.674,3,-0.36,-0.14,1.22,82.28540000000001,30.3286,96.0364,175,75
2026-05-09 16:04:28.695,3,-0.75,-0.13,0.8,46.1854,37.5886,95.3664,175,75
2026-05-09 16:04:28.717,3,-0.55,0.01,1.01,33.565400000000004,22.038600000000002,41.0364,175,75
2026-05-09 16:04:28.772,3,0.02,-0.1,0.3,-132.2846,-80.7014,-42.8036,175,75
2026-05-09 16:04:28.784,3,0.28,-0.08,0.54,-154.66459999999998,-71.0714,-64.2636,175,75
2026-05-09 16:04:28.796,3,0.44,-0.03,0.69,-178.3246,-89.9714,-77.50359999999999,175,75
2026-05-09 16:04:28.810,3,0.47,0.06,0.74,-208.0246,-110.9514,-82.3136,175,75
2026-05-09 16:04:28.821,3,0.46,0.13,0.67,-230.5246,-110.7614,-94.75359999999999,175,75
2026-05-09 16:04:28.846,3,0.6,0.18,0.6,-229.66459999999998,-34.3614,-109.14359999999999,175,75
2026-05-09 16:04:28.852,3,0.62,-0.04,0.63,-224.66459999999998,-6.1314,-109.5136,175,75
2026-05-09 16:04:28.863,3,0.62,-0.19,0.67,-223.9946,9.5986,-123.2336,175,75
2026-05-09 16:04:28.884,3,0.96,-0.21,0.89,-203.0246,92.2786,-122.3736,175,75
2026-05-09 16:04:28.895,3,0.62,-0.12,1.78,-171.8046,100.8186,-107.6236,175,75
2026-05-09 16:04:28.906,3,0.42,0.16,2.31,-139.66459999999998,97.4686,-138.4136,175,75
2026-05-09 16:04:28.916,3,0.85,0.67,1.95,-109.66460000000001,82.8886,-135.8536,175,75
2026-05-09 16:04:28.927,3,-1.01,1.89,2.43,-79.3046,87.0986,-43.2936,175,75
2026-05-09 16:04:28.941,3,-5.89,3.87,4.12,-9.4846,145.7586,204.3864,175,75
2026-05-09 16:04:28.952,3,-3.72,2.15,4.95,295.3954,529.7185999999999,200.0564,175,75
2026-05-09 16:04:28.968,3,6.09,-4.31,2.39,248.9354,-118.8114,-209.0236,175,75
2026-05-09 16:04:28.984,3,-4.38,0.21,-0.87,-92.8946,164.8486,307.9264,175,75
2026-05-09 16:04:29.007,3,-0.67,-0.99,0.01,197.40540000000001,19.718600000000002,-135.5436,175,75
2026-05-09 16:04:29.019,3,0.26,-0.18,0.74,111.43539999999999,215.38860000000003,-107.44359999999999,175,75
2026-05-09 16:04:29.073,3,-1.1,0.15,0.64,48.4454,-13.0214,50.60640000000001,175,75
2026-05-09 16:04:29.095,3,-0.96,-0.09,0.91,51.6754,75.3886,3.3564000000000007,175,75
2026-05-09 16:04:29.107,3,-0.21,-0.39,1.76,8.4454,-5.2814,-27.193599999999996,175,75
2026-05-09 16:04:29.127,3,-0.67,-0.36,1.22,-14.6646,-59.0614,-38.9036,175,75
2026-05-09 16:04:29.168,3,-0.01,-0.92,0.86,-34.364599999999996,-70.6414,-57.1936,175,75
2026-05-09 16:04:29.183,3,0.68,-0.83,0.95,-40.214600000000004,-60.641400000000004,-58.9636,175,75
2026-05-09 16:04:29.225,3,0.88,-0.07,0.63,-9.3646,-86.4314,-15.733599999999997,175,75
2026-05-09 16:04:29.235,3,0.64,0.18,0.56,17.645400000000002,-77.59140000000001,14.026399999999999,175,75
2026-05-09 16:04:29.265,3,0.25,0.05,0.84,79.90540000000001,-17.901400000000002,61.156400000000005,175,75
2026-05-09 16:04:29.274,3,-0.08,0.04,0.93,113.99539999999999,3.0186,91.8264,175,75
2026-05-09 16:04:29.289,3,-0.61,0.19,1.29,139.6654,61.678599999999996,117.25640000000001,175,75
2026-05-09 16:04:29.304,3,-0.59,0.09,1.64,163.5654,72.4686,153.1664,175,75
2026-05-09 16:04:29.315,3,-0.35,0.14,1.39,175.3954,15.4586,157.5564,175,75
2026-05-09 16:04:29.325,3,-0.65,0.39,1.42,178.93540000000002,37.218599999999995,174.87640000000002,175,75
2026-05-09 16:04:29.335,3,-0.51,0.45,1.61,189.6054,30.388599999999997,202.9264,175,75
2026-05-09 16:04:29.346,3,0.11,0.04,1.7,172.6454,-39.3014,223.1064,175,75
2026-05-09 16:04:29.358,3,0.35,-0.08,1.4,81.30539999999999,-132.4114,216.4664,175,75
2026-05-09 16:04:29.372,3,0.12,0.33,0.7,79.6654,-183.7514,163.9664,175,75
2026-05-09 16:04:29.396,3,0.47,0.72,0.32,82.77539999999999,-40.281400000000005,157.4364,175,75
2026-05-09 16:04:29.407,3,0.26,0.6,0.37,73.3254,-45.2214,131.8864,175,75
2026-05-09 16:04:29.413,3,0.05,0.74,0.19,60.1454,-26.071399999999997,101.0364,175,75
2026-05-09 16:04:29.424,3,0.02,0.87,0.36,44.1754,33.6286,80.4864,175,75
2026-05-09 16:04:29.457,3,0.1,1.02,0.75,5.455400000000001,60.6986,45.4264,175,75
2026-05-09 16:04:29.465,3,0.34,1.02,0.58,2.1054000000000013,8.688600000000001,-12.013599999999997,175,75
2026-05-09 16:04:29.477,3,0.61,1.06,0.19,-19.784599999999998,-0.2113999999999998,-49.3936,175,75
2026-05-09 16:04:29.496,3,0.61,1.04,-0.17,-65.8846,61.9786,-105.61359999999999,175,75
2026-05-09 16:04:29.507,3,0.79,1.01,-0.05,-92.1046,92.76859999999999,-145.3636,175,75
2026-05-09 16:04:29.519,3,0.48,1.02,0.58,-121.43459999999999,106.7386,-161.8336,175,75
2026-05-09 16:04:29.540,3,-7.2,3.11,4.76,77.58539999999999,357.5886,129.3864,175,75
2026-05-09 16:04:29.555,3,-5.53,0.94,7.87,519.2954000000001,578.3186,443.9664,175,75
2026-05-09 16:04:29.561,3,0.46,-8.04,7.03,248.07540000000003,-526.9814,-162.0136,175,75
2026-05-09 16:04:29.572,3,0.36,-3.77,1.97,-468.99460000000005,-644.8514,-419.0836,175,75
2026-05-09 16:04:29.609,3,0.06,-1.82,-0.38,24.2354,211.60860000000002,55.126400000000004,175,75
2026-05-09 16:04:29.642,3,0.52,-0.27,1.76,12.1054,61.608599999999996,-112.6836,175,75
2026-05-09 16:04:29.673,3,0.67,-0.11,1.36,45.0254,12.8286,-23.723599999999998,175,75
2026-05-09 16:04:29.686,3,0.35,0.18,0.92,84.84540000000001,74.2386,-28.5336,175,75
2026-05-09 16:04:29.693,3,0.32,0.33,1.23,124.90540000000001,140.26860000000002,-18.533599999999996,175,75
2026-05-09 16:04:29.704,3,0.24,0.49,1.53,142.1654,133.5686,-9.143599999999998,175,75
2026-05-09 16:04:29.729,3,-0.07,0.77,1.16,156.55540000000002,49.4786,8.296400000000002,175,75
2026-05-09 16:04:29.743,3,-0.42,0.98,1.19,144.90540000000001,76.6086,38.35640000000001,175,75
2026-05-09 16:04:29.749,3,-0.3,0.77,1.24,119.05539999999999,72.5886,74.1464,175,75
2026-05-09 16:04:29.765,3,-0.22,0.65,1.12,95.6354,26.608600000000003,77.80640000000001,175,75
2026-05-09 16:04:29.773,3,-0.23,0.57,0.91,66.18539999999999,-0.0913999999999997,83.2964,175,75
2026-05-09 16:04:29.785,3,-0.16,0.4,0.81,42.3454,-2.9613999999999994,90.30640000000001,175,75
2026-05-09 16:04:29.805,3,-0.2,0.11,0.91,9.845400000000001,-17.961399999999998,90.4264,175,75
2026-05-09 16:04:29.817,3,-0.22,-0.1,0.94,-9.6646,-37.7214,81.8264,175,75
2026-05-09 16:04:29.862,3,-0.13,-0.05,1.01,-68.5646,-89.6714,26.3464,175,75
2026-05-09 16:04:29.873,3,-0.15,0.01,0.86,-96.19460000000001,-99.2414,-1.2835999999999963,175,75
2026-05-09 16:04:29.878,3,-0.15,-0.02,0.81,-114.91460000000001,-87.7214,-22.013599999999997,175,75
2026-05-09 16:04:29.888,3,-0.09,-0.11,0.88,-134.1746,-67.6514,-40.733599999999996,175,75
2026-05-09 16:04:29.900,3,0.02,-0.26,1.01,-155.03459999999998,-53.2014,-59.203599999999994,175,75
2026-05-09 16:04:29.911,3,0.11,-0.35,1.09,-172.7746,-62.7214,-77.6236,175,75
2026-05-09 16:04:29.924,3,0.13,-0.27,0.95,-187.8346,-69.1814,-97.9236,175,75
2026-05-09 16:04:29.935,3,0.19,-0.16,0.8,-191.4946,-34.6114,-109.5736,175,75
2026-05-09 16:04:29.941,3,0.35,-0.12,0.8,-186.8646,-13.6314,-117.5636,175,75
2026-05-09 16:04:29.984,3,0.82,-0.17,0.3,-178.0846,77.40859999999999,-131.1536,175,75
2026-05-09 16:04:29.995,3,1.17,-0.28,0.25,-176.9246,113.8086,-136.4036,175,75
2026-05-09 16:04:30.032,3,-0.68,1.3,2.87,-57.3546,96.7986,-87.80359999999999,175,75
2026-05-09 16:04:30.043,3,-3.48,2.84,4.05,6.0654,134.5386,74.02640000000001,175,75
2026-05-09 16:04:30.084,3,0.29,-0.35,4.19,193.93540000000002,-11.311399999999999,23.106400000000004,175,75
2026-05-09 16:04:30.105,3,-3.61,-0.8,-1.47,-50.5246,239.35860000000002,257.2564,175,75
2026-05-09 16:04:30.129,3,-0.99,-0.69,1.17,161.43540000000002,120.51859999999999,-158.7836,175,75
2026-05-09 16:04:30.145,3,1.17,0.68,1.2,109.3554,223.6286,-72.5636,175,75
2026-05-09 16:04:30.160,3,0.17,-0.9,2.05,55.2154,-46.8014,57.9264,175,75
2026-05-09 16:04:30.173,3,-0.08,-0.32,1.21,50.7554,-60.9514,39.99640000000001,175,75
2026-05-09 16:04:30.205,3,-0.34,-0.29,1.24,36.9754,40.5786,4.996400000000001,175,75
2026-05-09 16:04:30.223,3,-0.32,-0.49,1.43,23.5054,31.738599999999998,0.546400000000002,175,75
2026-05-09 16:04:30.234,3,-0.33,-0.57,1.38,14.1754,-1.2513999999999998,-9.633599999999998,175,75
2026-05-09 16:04:30.257,3,-0.03,-0.59,1.28,-0.0345999999999993,-5.2814,-30.613599999999998,175,75
2026-05-09 16:04:30.274,3,-0.06,-0.87,1.09,-14.724599999999999,-19.611400000000003,-34.203599999999994,175,75
2026-05-09 16:04:30.297,3,0.12,-0.96,1.1,-20.9446,-33.931400000000004,-39.203599999999994,175,75
2026-05-09 16:04:30.297,3,0.24,-0.93,1.07,-26.6146,-54.3614,-41.1536,175,75
2026-05-09 16:04:30.331,3,0.54,-0.82,0.88,-38.9946,-90.7014,-29.083599999999997,175,75
2026-05-09 16:04:30.331,3,0.74,-0.66,0.8,-40.214600000000004,-111.62140000000001,-26.8936,175,75
2026-05-09 16:04:30.355,3,1.1,-0.27,0.89,-15.7046,-92.6514,-5.123599999999998,175,75
2026-05-09 16:04:30.375,3,0.7,-0.05,0.92,20.2154,-72.1114,27.496400000000005,175,75
2026-05-09 16:04:30.399,3,0.12,-0.11,0.84,59.605399999999996,-13.0814,55.186400000000006,175,75
2026-05-09 16:04:30.421,3,-0.41,-0.01,1.06,93.99539999999999,79.4786,70.7364,175,75
2026-05-09 16:04:30.446,3,-0.33,0.25,1.23,142.52540000000002,57.4086,92.9264,175,75
2026-05-09 16:04:30.457,3,-0.11,0.41,0.93,156.24540000000002,48.9886,104.1464,175,75
2026-05-09 16:04:30.486,3,-0.3,0.62,1.43,206.3654,67.76859999999999,146.5264,175,75
2026-05-09 16:04:30.572,3,0.18,1.18,0.55,-4.4845999999999995,29.718600000000002,6.156400000000001,175,75
2026-05-09 16:04:30.615,3,0.35,1.13,0.33,-31.5546,-1.5614,-63.723600000000005,175,75
2026-05-09 16:04:30.626,3,0.65,1.01,0.16,-63.5646,-1.4314,-94.94359999999999,175,75
2026-05-09 16:04:30.636,3,0.52,0.91,0.08,-109.72460000000001,30.638599999999997,-121.28359999999999,175,75
2026-05-09 16:04:30.646,3,0.27,0.78,0.59,-129.6046,88.1986,-142.3136,175,75
2026-05-09 16:04:30.657,3,-2.31,1.83,2.54,-69.6046,140.9386,-88.0436,175,75
2026-05-09 16:04:30.670,3,-6.5,3.48,5.53,195.9454,413.6286,221.7064,175,75
2026-05-09 16:04:30.709,3,1.26,1.81,-1.57,-375.88460000000003,-350.52139999999997,-224.9436,175,75
2026-05-09 16:04:30.721,3,-0.03,1.6,-1.68,-42.5946,-149.1214,55.546400000000006,175,75
2026-05-09 16:04:30.732,3,0.11,-1.1,-0.22,3.195400000000001,182.64860000000002,64.8764,175,75
2026-05-09 16:04:30.745,3,1.36,-2.37,0.82,20.395400000000002,286.4886,-13.113599999999998,175,75
2026-05-09 16:04:30.745,3,1.15,-1.88,1.8,10.455400000000001,138.7486,-83.11359999999999,175,75
2026-05-09 16:04:30.755,3,0.63,-0.9,1.83,-2.2845999999999993,44.7786,-99.08359999999999,175,75
2026-05-09 16:04:30.769,3,0.75,-0.2,1.62,0.3954000000000004,73.1386,-56.583600000000004,175,75
2026-05-09 16:04:30.780,3,0.88,-0.33,1.95,15.215399999999999,70.6386,-27.803599999999996,175,75
2026-05-09 16:04:30.792,3,0.88,-0.07,1.57,34.6054,16.608600000000003,-22.013599999999997,175,75
2026-05-09 16:04:30.817,3,0.49,0.12,1.1,72.83539999999999,58.2586,17.9864,175,75
2026-05-09 16:04:30.821,3,0.33,0.13,1.03,94.47540000000001,53.318599999999996,30.366400000000002,175,75
2026-05-09 16:04:30.835,3,0.17,0.14,0.98,110.5154,60.1486,38.166399999999996,175,75
2026-05-09 16:04:30.849,3,-0.06,0.17,1.04,127.34540000000001,88.01859999999999,47.626400000000004,175,75
2026-05-09 16:04:30.866,3,-0.12,0.27,1.25,131.0654,100.3286,58.2364,175,75
2026-05-09 16:04:30.872,3,-0.23,0.3,1.49,109.4154,85.2086,74.38640000000001,175,75
2026-05-09 16:04:30.892,3,-0.12,0.39,1.31,87.40540000000001,24.538600000000002,84.4564,175,75
2026-05-09 16:04:30.904,3,-0.27,0.47,1.04,73.3254,12.3486,86.1564,175,75
2026-05-09 16:04:30.904,3,-0.47,0.53,1.0,69.6654,32.7086,92.74640000000001,175,75
2026-05-09 16:04:30.925,3,-0.56,0.43,1.15,62.5254,41.678599999999996,101.46640000000001,175,75
2026-05-09 16:04:30.925,3,-0.54,0.3,1.19,53.3254,15.9986,95.1264,175,75
2026-05-09 16:04:30.938,3,-0.54,0.3,1.08,41.0054,-17.351399999999998,80.5464,175,75
2026-05-09 16:04:30.963,3,-0.35,0.21,1.06,9.5454,-21.1914,69.7564,175,75
2026-05-09 16:04:30.975,3,-0.29,0.11,1.06,-7.414599999999999,-54.6714,55.24640000000001,175,75
2026-05-09 16:04:30.992,3,-0.32,0.17,0.82,-28.5046,-69.6114,21.646400000000003,175,75
2026-05-09 16:04:30.998,3,-0.26,0.26,0.79,-39.724599999999995,-43.391400000000004,-3.293599999999998,175,75
2026-05-09 16:04:31.026,3,-0.06,0.14,1.1,-90.5846,-49.5414,-31.4636,175,75
2026-05-09 16:04:31.064,3,0.23,0.06,0.85,-147.1046,-88.9314,-76.9536,175,75
2026-05-09 16:04:31.074,3,0.47,0.11,0.76,-157.7146,-97.4714,-87.50359999999999,175,75
2026-05-09 16:04:31.086,3,0.64,0.28,0.61,-165.3946,-80.5214,-83.53359999999999,175,75
2026-05-09 16:04:31.096,3,0.59,0.47,0.41,-161.4946,-37.0414,-69.4536,175,75
2026-05-09 16:04:31.102,3,0.8,0.27,0.28,-151.9246,-9.061399999999999,-78.9036,175,75
2026-05-09 16:04:31.135,3,0.55,-0.3,0.77,-156.9846,49.968599999999995,-75.4836,175,75
2026-05-09 16:04:31.148,3,0.17,-0.3,1.53,-138.8746,75.51859999999999,-85.91359999999999,175,75
2026-05-09 16:04:31.148,3,-0.98,0.61,2.67,-74.1146,120.9986,-67.9836,175,75
2026-05-09 16:04:31.159,3,-1.83,1.11,3.56,-11.554599999999999,226.0686,-13.963599999999998,175,75
2026-05-09 16:04:31.173,3,-2.5,1.21,5.06,123.25540000000001,195.9386,67.13640000000001,175,75
2026-05-09 16:04:31.179,3,2.9,-1.78,2.77,103.62540000000001,-57.4114,-154.5736,175,75
2026-05-09 16:04:31.197,3,3.32,0.81,-0.46,2.6454000000000004,-348.5114,12.746400000000005,175,75
2026-05-09 16:04:31.207,3,-1.88,0.19,-1.18,7.465399999999999,-17.291400000000003,134.81640000000002,175,75
2026-05-09 16:04:31.219,3,-1.42,-0.92,-1.41,22.7754,276.7386,82.8664,175,75
2026-05-09 16:04:31.230,3,-0.48,-1.32,-0.07,104.90540000000001,277.6486,-31.223599999999998,175,75
2026-05-09 16:04:31.241,3,-0.74,-0.68,1.36,97.8954,284.4186,-62.983599999999996,175,75
2026-05-09 16:04:31.254,3,0.41,-0.15,1.84,73.8654,200.8186,-24.3936,175,75
2026-05-09 16:04:31.276,3,-0.16,-0.38,1.32,20.9454,-5.7014,12.076400000000003,175,75
2026-05-09 16:04:31.286,3,-0.22,-0.52,1.01,17.9554,5.458600000000001,5.366400000000002,175,75
2026-05-09 16:04:31.297,3,0.08,-0.75,1.24,14.415400000000002,13.5686,4.086400000000001,175,75
2026-05-09 16:04:31.309,3,0.05,-0.73,1.27,9.6054,-18.571399999999997,4.936400000000003,175,75
2026-05-09 16:04:31.319,3,-0.2,-0.59,1.09,9.6054,11.4286,-7.443599999999998,175,75
2026-05-09 16:04:31.329,3,-0.34,-0.63,1.27,3.3854000000000006,19.108600000000003,-10.733599999999997,175,75
2026-05-09 16:04:31.340,3,-0.32,-0.66,1.29,-3.084599999999999,-6.0114,-26.223599999999998,175,75
2026-05-09 16:04:31.365,3,-0.2,-0.7,1.36,-24.2446,-34.4214,-45.9136,175,75
2026-05-09 16:04:31.376,3,0.02,-0.7,1.26,-36.9246,-73.6314,-49.3336,175,75
2026-05-09 16:04:31.391,3,0.03,-0.8,1.06,-46.7446,-89.2414,-46.6436,175,75
2026-05-09 16:04:31.405,3,0.14,-0.88,0.95,-52.4146,-89.3014,-49.3336,175,75
2026-05-09 16:04:31.415,3,0.38,-0.9,0.92,-59.8546,-96.98140000000001,-47.443599999999996,175,75
2026-05-09 16:04:31.427,3,0.61,-0.83,0.85,-63.9946,-112.4114,-43.9636,175,75
2026-05-09 16:04:31.441,3,0.71,-0.52,0.76,-60.7646,-144.48139999999998,-33.6536,175,75
2026-05-09 16:04:31.456,3,0.84,-0.27,0.47,-52.0446,-145.2114,-17.133599999999998,175,75
2026-05-09 16:04:31.467,3,0.82,-0.04,0.42,-31.0646,-127.2314,-5.183599999999998,175,75
2026-05-09 16:04:31.507,3,-0.14,0.14,0.78,91.9154,16.6786,85.4864,175,75
2026-05-09 16:04:31.518,3,-0.79,0.24,1.31,136.18540000000002,118.62859999999999,116.7664,175,75
2026-05-09 16:04:31.532,3,-0.44,-0.06,2.03,183.3254,86.2486,145.7364,175,75
2026-05-09 16:04:31.557,3,-0.52,0.26,1.49,213.99540000000002,52.038599999999995,184.0864,175,75
2026-05-09 16:04:31.570,3,-0.05,0.02,1.61,228.93540000000002,32.5286,176.8864,175,75
2026-05-09 16:04:31.582,3,0.36,-0.35,1.63,144.7254,-2.0414,181.5264,175,75
2026-05-09 16:04:31.591,3,0.37,0.1,1.03,126.00540000000001,-84.3014,148.65640000000002,175,75
2026-05-09 16:04:31.605,3,0.1,0.51,0.54,127.77540000000002,-70.0314,103.47640000000001,175,75
2026-05-09 16:04:31.616,3,0.3,0.81,0.31,114.84540000000001,8.0786,116.88640000000001,175,75
2026-05-09 16:04:31.627,3,0.17,0.64,0.47,110.5154,27.038600000000002,107.4364,175,75
2026-05-09 16:04:31.637,3,0.0,0.64,0.44,101.00540000000001,29.2986,74.69640000000001,175,75
2026-05-09 16:04:31.655,3,-0.14,0.69,0.48,77.9554,110.51859999999999,43.71640000000001,175,75
2026-05-09 16:04:31.663,3,-0.03,0.72,0.75,75.75540000000001,132.82860000000002,23.966400000000004,175,75
2026-05-09 16:04:31.688,3,0.43,0.77,0.93,73.4454,47.5886,-3.783599999999998,175,75
2026-05-09 16:04:31.700,3,0.36,0.58,0.49,50.9454,6.6086,-23.7836,175,75
2026-05-09 16:04:31.700,3,0.16,0.58,0.09,27.715400000000002,26.3686,-63.593599999999995,175,75
2026-05-09 16:04:31.726,3,0.71,1.03,0.41,-41.9246,56.9786,-137.4436,175,75
2026-05-09 16:04:31.744,3,0.79,1.07,0.61,-77.1046,24.598599999999998,-145.4236,175,75
2026-05-09 16:04:31.766,3,0.38,0.87,1.15,-122.53460000000001,-35.2214,-173.65359999999998,175,75
2026-05-09 16:04:31.776,3,-3.9,2.0,3.11,-1.1345999999999998,178.7486,-5.003599999999999,175,75
2026-05-09 16:04:31.789,3,-7.5,3.28,6.65,283.99539999999996,369.96860000000004,344.0264,175,75
2026-05-09 16:04:31.808,3,-0.65,-4.14,2.99,-329.3046,-648.7514,-263.53360000000004,175,75
2026-05-09 16:04:31.835,3,2.09,3.98,-2.73,-175.03459999999998,-133.20139999999998,-103.9036,175,75
2026-05-09 16:04:31.848,3,-0.05,0.04,-0.74,-12.8946,236.9786,114.3264,175,75
2026-05-09 16:04:31.859,3,0.43,-1.01,1.25,71.49539999999999,378.3786,-23.9636,175,75
2026-05-09 16:04:31.870,3,1.31,-2.05,2.63,89.2954,246.48860000000002,-100.00359999999999,175,75
2026-05-09 16:04:31.892,3,0.55,-0.76,1.9,-15.0346,-43.751400000000004,-67.3736,175,75
2026-05-09 16:04:31.902,3,0.69,-0.09,1.14,6.9154,0.6386000000000003,-86.64359999999999,175,75
2026-05-09 16:04:31.962,3,0.42,-0.03,1.41,75.5154,130.8786,12.256400000000003,175,75
2026-05-09 16:04:31.962,3,0.53,0.02,1.67,67.71539999999999,74.4186,35.60640000000001,175,75
2026-05-09 16:04:31.982,3,0.07,0.3,1.31,41.7354,-18.081400000000002,74.02640000000001,175,75
2026-05-09 16:04:31.994,3,-0.25,0.39,1.05,31.065400000000004,-24.001399999999997,92.8664,175,75
2026-05-09 16:04:32.026,3,-0.56,0.2,0.82,7.5854,-16.5614,92.3764,175,75
2026-05-09 16:04:32.036,3,-0.71,0.14,0.78,-0.7645999999999997,7.8286,91.9564,175,75
2026-05-09 16:04:32.047,3,-0.72,0.04,0.86,-0.7045999999999992,27.1586,83.77640000000001,175,75
2026-05-09 16:04:32.056,3,-0.69,0.07,0.94,-0.8845999999999998,26.3086,62.376400000000004,175,75
2026-05-09 16:04:32.072,3,-0.64,0.36,1.07,-12.5946,2.3486000000000002,46.46640000000001,175,75
2026-05-09 16:04:32.086,3,-0.48,0.17,1.09,-34.364599999999996,-49.181400000000004,46.406400000000005,175,75
2026-05-09 16:04:32.101,3,-0.57,0.08,0.97,-49.9146,-70.8914,27.866400000000002,175,75
2026-05-09 16:04:32.132,3,-0.12,0.15,1.24,-98.3246,-83.1414,-38.3536,175,75
2026-05-09 16:04:32.154,3,0.15,0.26,1.15,-126.31460000000001,-114.3014,-46.4636,175,75
2026-05-09 16:04:32.185,3,0.49,0.33,0.6,-112.47460000000001,-111.7414,-68.3536,175,75
2026-05-09 16:04:32.197,3,0.57,0.36,0.25,-104.1746,-67.9014,-78.0436,175,75
2026-05-09 16:04:32.211,3,0.61,0.37,0.18,-90.52459999999999,11.5486,-81.1536,175,75
2026-05-09 16:04:32.228,3,0.58,0.33,0.87,-88.81460000000001,62.2786,-77.1336,175,75
2026-05-09 16:04:32.243,3,0.08,0.64,2.17,-66.3146,98.37859999999999,-63.9636,175,75
2026-05-09 16:04:32.266,3,0.79,0.43,2.24,-56.3746,53.748599999999996,-55.36359999999999,175,75
2026-05-09 16:04:32.278,3,-1.08,1.46,3.24,-22.0446,-6.8014,43.5964,175,75
2026-05-09 16:04:32.289,3,-1.13,0.9,2.96,40.5154,-19.7314,95.05640000000001,175,75
2026-05-09 16:04:32.300,3,1.53,-0.93,0.98,49.7854,-100.4614,-14.263599999999997,175,75
2026-05-09 16:04:32.324,3,-1.05,-1.96,-0.62,4.4754000000000005,304.1086,123.47640000000001,175,75
2026-05-09 16:04:32.336,3,-0.87,-1.39,0.76,81.6154,228.3786,-21.4636,175,75
2026-05-09 16:04:32.351,3,0.1,-0.25,1.38,102.1654,158.6886,-139.3936,175,75
2026-05-09 16:04:32.366,3,1.07,0.39,1.31,54.4754,85.4586,51.7064,175,75
2026-05-09 16:04:32.392,3,-0.19,-0.74,1.05,32.4654,18.3786,0.7364000000000033,175,75
2026-05-09 16:04:32.417,3,0.01,-0.88,1.43,16.9154,-13.9314,27.0164,175,75
2026-05-09 16:04:32.428,3,-0.31,-0.66,1.22,15.145400000000002,-26.431399999999996,0.1264000000000003,175,75
2026-05-09 16:04:32.439,3,-0.36,-0.57,1.12,10.6954,-13.811399999999999,-7.193599999999998,175,75
2026-05-09 16:04:32.439,3,-0.44,-0.62,1.17,4.6654,-16.501399999999997,-14.453599999999998,175,75
2026-05-09 16:04:32.452,3,-0.39,-0.64,1.26,-5.2745999999999995,-19.3014,-32.563599999999994,175,75
2026-05-09 16:04:32.463,3,-0.2,-0.66,1.32,-16.674599999999998,-25.891399999999997,-44.873599999999996,175,75
2026-05-09 16:04:32.476,3,-0.06,-0.69,1.34,-26.3746,-40.2214,-47.563599999999994,175,75
2026-05-09 16:04:32.486,3,0.02,-0.81,1.21,-35.5246,-56.8614,-46.953599999999994,175,75
2026-05-09 16:04:32.524,3,0.54,-0.92,0.94,-54.7846,-67.5314,-49.5136,175,75
2026-05-09 16:04:32.562,3,0.95,-0.29,0.69,-47.1046,-96.98140000000001,-32.983599999999996,175,75
2026-05-09 16:04:32.587,3,0.98,-0.03,0.51,-26.2546,-99.6714,-11.703599999999998,175,75
2026-05-09 16:04:32.638,3,-0.53,0.2,1.97,141.0654,104.8486,104.5764,175,75
2026-05-09 16:04:32.649,3,-0.41,0.41,2.08,148.1354,67.6486,131.40640000000002,175,75
2026-05-09 16:04:32.660,3,-0.43,0.16,1.45,179.2354,19.418599999999998,143.53640000000001,175,75
2026-05-09 16:04:32.675,3,-0.8,0.54,1.43,196.49540000000002,41.4886,153.7164,175,75
2026-05-09 16:04:32.686,3,-0.23,0.25,1.56,215.08540000000002,32.5886,176.5264,175,75
2026-05-09 16:04:32.697,3,0.03,-0.14,1.66,158.2554,7.7686,197.0164,175,75
2026-05-09 16:04:32.719,3,-0.04,0.62,0.86,129.4154,-58.141400000000004,102.3164,175,75
2026-05-09 16:04:32.740,3,0.42,0.86,0.86,117.9554,5.458600000000001,119.3264,175,75
2026-05-09 16:04:32.755,3,0.33,0.82,0.83,106.8554,-23.8114,94.3264,175,75
2026-05-09 16:04:32.762,3,0.04,0.97,0.52,76.6754,13.1386,65.30640000000001,175,75
2026-05-09 16:04:32.784,3,0.08,1.02,0.56,65.21539999999999,20.638599999999997,43.5364,175,75
2026-05-09 16:04:32.808,3,0.14,1.27,0.45,44.3554,34.4786,17.8064,175,75
2026-05-09 16:04:32.825,3,0.28,1.19,0.46,32.1654,34.6586,-0.24359999999999715,175,75
2026-05-09 16:04:32.856,3,0.75,1.08,0.31,-7.3546,-21.3114,-54.39359999999999,175,75
2026-05-09 16:04:32.884,3,1.06,1.17,-0.1,-59.3646,-28.081400000000002,-102.3136,175,75
2026-05-09 16:04:32.914,3,0.55,1.18,1.06,-103.6346,4.1786,-145.4236,175,75
2026-05-09 16:04:32.944,3,-2.58,2.2,2.8,-55.9446,0.6986000000000002,-54.083600000000004,175,75
2026-05-09 16:04:32.944,3,-7.23,3.65,4.67,56.4954,183.3786,207.37640000000002,175,75
2026-05-09 16:04:32.971,3,-3.64,-0.68,6.04,316.06539999999995,413.7486,340.1864,175,75
2026-05-09 16:04:32.989,3,-0.03,-4.13,1.85,-396.8046,-573.0214000000001,-305.9736,175,75
2026-05-09 16:04:32.989,3,-0.52,1.16,-0.4,-423.38460000000003,-344.3614,-321.8336,175,75
2026-05-09 16:04:33.011,3,0.41,1.35,-1.52,-79.91460000000001,-98.8114,-22.9836,175,75
2026-05-09 16:04:33.011,3,0.69,-1.83,-0.01,16.735400000000002,189.23860000000002,84.02640000000001,175,75
2026-05-09 16:04:33.060,3,0.53,0.15,1.1,8.865400000000001,-4.001399999999999,-4.5135999999999985,175,75
2026-05-09 16:04:33.072,3,0.62,0.04,1.08,27.4054,29.718600000000002,3.046400000000002,175,75
2026-05-09 16:04:33.072,3,0.64,0.01,1.04,41.6154,38.928599999999996,4.696400000000001,175,75
2026-05-09 16:04:33.082,3,0.51,0.08,0.96,65.1454,71.12859999999999,6.0364,175,75
2026-05-09 16:04:33.093,3,0.48,0.07,1.18,74.78540000000001,100.0886,7.3764,175,75
2026-05-09 16:04:33.114,3,0.45,0.32,1.64,78.56540000000001,67.0386,33.96640000000001,175,75
2026-05-09 16:04:33.114,3,0.35,0.32,1.55,75.5154,32.2186,47.9864,175,75
2026-05-09 16:04:33.121,3,0.02,0.39,1.29,68.3254,-1.5614,63.47640000000001,175,75
2026-05-09 16:04:33.133,3,-0.17,0.36,1.08,60.51540000000001,-6.1914,72.4364,175,75
2026-05-09 16:04:33.133,3,-0.31,0.31,0.94,51.1254,6.4886,74.8764,175,75
2026-05-09 16:04:33.144,3,-0.4,0.22,0.84,36.3054,32.8886,73.2364,175,75
2026-05-09 16:04:33.153,3,-0.69,0.25,0.97,26.4354,74.0486,67.3764,175,75
2026-05-09 16:04:33.170,3,-0.78,0.27,1.19,37.7154,92.7086,64.9364,175,75
2026-05-09 16:04:33.173,3,-0.72,0.22,1.45,43.4454,71.9186,49.4564,175,75
2026-05-09 16:04:33.195,3,-0.47,0.23,1.46,31.3654,9.4186,38.4764,175,75
2026-05-09 16:04:33.206,3,-0.46,0.19,1.21,12.5854,-33.8714,41.406400000000005,175,75
2026-05-09 16:04:33.218,3,-0.56,0.14,0.83,-6.9246,-48.8114,21.9564,175,75
2026-05-09 16:04:33.218,3,-0.53,0.22,0.67,-12.714599999999999,-26.7414,-6.7635999999999985,175,75
2026-05-09 16:04:33.232,3,-0.32,0.32,0.87,-27.354599999999998,4.5986,-26.583599999999997,175,75
2026-05-09 16:04:33.248,3,-0.08,0.35,1.09,-43.0846,-21.501399999999997,-35.7936,175,75
2026-05-09 16:04:33.258,3,0.08,0.39,1.14,-61.4946,-68.3914,-42.8036,175,75
2026-05-09 16:04:33.272,3,0.25,0.46,1.01,-75.94460000000001,-90.2814,-49.6336,175,75
2026-05-09 16:04:33.285,3,0.4,0.59,0.96,-81.49459999999999,-94.73140000000001,-62.8036,175,75
2026-05-09 16:04:33.300,3,0.5,0.76,0.9,-85.3946,-106.6814,-70.61359999999999,175,75
2026-05-09 16:04:33.310,3,0.61,0.73,0.7,-88.3846,-109.12140000000001,-71.7636,175,75
2026-05-09 16:04:33.354,3,0.72,-0.36,0.48,-126.31460000000001,37.218599999999995,-123.41359999999999,175,75
2026-05-09 16:04:33.363,3,0.32,-0.19,0.9,-119.78460000000001,70.8186,-149.2036,175,75
2026-05-09 16:04:33.379,3,-0.82,0.31,1.67,-99.8546,152.82860000000002,-112.86359999999999,175,75
2026-05-09 16:04:33.402,3,-4.23,2.3,4.45,91.00540000000001,323.2586,82.3164,175,75
2026-05-09 16:04:33.413,3,4.11,-1.13,0.75,43.0154,-105.1514,-163.1736,175,75
2026-05-09 16:04:33.426,3,-0.08,1.86,0.23,-72.1046,-322.53139999999996,137.9864,175,75
2026-05-09 16:04:33.437,3,-2.21,0.01,-0.73,-82.77459999999999,85.6986,140.5464,175,75
2026-05-09 16:04:33.456,3,-0.55,-0.77,0.3,-10.3946,87.40859999999999,-89.08359999999999,175,75
2026-05-09 16:04:33.468,3,0.02,-0.23,1.32,-55.0346,93.8086,-36.5236,175,75
2026-05-09 16:04:33.484,3,0.32,-0.76,1.6,-32.224599999999995,-2.4713999999999996,-17.5036,175,75
2026-05-09 16:04:33.496,3,0.22,-1.4,1.17,-44.7846,-74.48140000000001,-29.633599999999998,175,75
2026-05-09 16:04:33.545,3,0.92,0.43,0.19,22.2254,-71.8014,73.2364,175,75
2026-05-09 16:04:33.555,3,-0.71,0.0,-0.52,53.8054,-25.9514,78.8464,175,75
2026-05-09 16:04:33.562,3,-0.99,-0.44,-0.53,97.40540000000001,33.3786,45.91640000000001,175,75
2026-05-09 16:04:33.574,3,-0.58,-1.0,0.37,119.4154,73.7486,30.9164,175,75
2026-05-09 16:04:33.595,3,-0.47,-1.25,1.0,99.3554,-60.4014,48.046400000000006,175,75
2026-05-09 16:04:33.595,3,-0.4,-1.2,0.82,86.8554,-115.8914,24.146400000000003,175,75
2026-05-09 16:04:33.606,3,0.22,-0.98,0.61,94.72540000000001,-103.0214,1.7664000000000009,175,75
2026-05-09 16:04:33.617,3,0.82,-1.01,0.72,101.3654,-77.9014,27.3764,175,75
2026-05-09 16:04:33.628,3,1.14,-1.2,0.78,104.3554,-85.5814,55.7364,175,75
2026-05-09 16:04:33.640,3,1.14,-1.16,0.51,109.4154,-98.6914,56.58640000000001,175,75
2026-05-09 16:04:33.660,3,1.1,-1.25,0.19,125.4554,-50.7614,68.2964,175,75
2026-05-09 16:04:33.670,3,0.56,-1.02,0.42,135.02540000000002,-20.401400000000002,82.74640000000001,175,75
2026-05-09 16:04:33.682,3,0.23,-0.9,0.86,171.24540000000002,47.6486,82.3164,175,75
2026-05-09 16:04:33.690,3,0.68,-1.12,0.98,174.6654,53.3786,77.19640000000001,175,75
2026-05-09 16:04:33.706,3,0.48,-0.74,0.74,174.8454,38.568599999999996,69.4564,175,75
2026-05-09 16:04:33.731,3,-0.28,-0.2,0.96,194.1754,154.41860000000003,66.3464,175,75
2026-05-09 16:04:33.740,3,0.37,-0.37,0.9,209.8454,120.6986,32.686400000000006,175,75
2026-05-09 16:04:33.740,3,0.28,-0.19,0.5,219.1754,70.6386,-8.173599999999999,175,75
2026-05-09 16:04:33.800,3,-0.17,-0.08,0.46,116.49539999999999,-33.2014,54.38640000000001,175,75
2026-05-09 16:04:33.812,3,0.23,0.16,0.24,115.5154,32.5286,0.7364000000000033,175,75
2026-05-09 16:04:33.825,3,0.79,0.44,0.44,88.4454,44.718599999999995,0.7364000000000033,175,75
2026-05-09 16:04:33.834,3,0.95,0.55,0.5,62.1654,-6.3114,30.796400000000002,175,75
2026-05-09 16:04:33.845,3,0.55,0.42,0.34,46.0054,-36.9214,32.13640000000001,175,75
2026-05-09 16:04:33.845,3,0.07,0.44,0.16,29.7254,-24.001399999999997,4.576400000000003,175,75
2026-05-09 16:04:33.857,3,-0.09,0.55,0.2,7.8354,34.538599999999995,-32.803599999999996,175,75
2026-05-09 16:04:33.880,3,0.06,0.53,0.8,-51.254599999999996,44.0486,-69.5136,175,75
2026-05-09 16:04:33.894,3,-0.12,0.54,0.82,-76.06460000000001,22.5886,-85.7336,175,75
2026-05-09 16:04:33.904,3,-0.32,0.58,0.66,-84.1146,28.498600000000003,-106.4636,175,75
2026-05-09 16:04:33.915,3,-0.49,0.64,0.51,-81.1346,61.7386,-134.0836,175,75
2026-05-09 16:04:33.926,3,-0.52,0.7,0.49,-81.8646,94.1086,-154.6936,175,75
2026-05-09 16:04:33.939,3,-0.5,0.8,0.56,-86.1346,119.9686,-169.4536,175,75
2026-05-09 16:04:33.947,3,-0.7,0.98,0.7,-100.7646,145.45860000000002,-178.3536,175,75
2026-05-09 16:04:33.961,3,-0.91,1.17,0.84,-110.52459999999999,170.26860000000002,-198.65359999999998,175,75
2026-05-09 16:04:33.961,3,-0.88,1.34,1.03,-123.3246,154.9686,-208.4736,175,75
2026-05-09 16:04:33.979,3,-0.75,1.42,1.18,-143.44459999999998,105.1486,-211.8336,175,75
2026-05-09 16:04:33.991,3,-0.56,1.34,1.18,-154.6046,45.1486,-211.46359999999999,175,75
2026-05-09 16:04:33.999,3,-0.19,1.12,0.9,-163.8746,-12.9014,-222.0736,175,75
2026-05-09 16:04:34.020,3,-0.65,1.13,0.88,-181.8046,28.8086,-182.3136,175,75
2026-05-09 16:04:34.023,3,-1.88,1.66,2.08,-159.8546,107.0386,-156.5236,175,75
2026-05-09 16:04:34.040,3,-8.03,4.29,5.16,-49.2446,225.51860000000002,133.90640000000002,175,75
2026-05-09 16:04:34.051,3,-10.79,6.75,9.11,429.05539999999996,692.5286,519.3263999999999,175,75
2026-05-09 16:04:34.063,3,1.7,-8.53,8.68,396.43539999999996,-497.53139999999996,-305.3636,175,75
2026-05-09 16:04:34.085,3,0.84,2.15,-0.72,-326.00460000000004,-641.1914,135.7364,175,75
2026-05-09 16:04:34.097,3,-0.97,-0.5,-2.16,-415.94460000000004,-129.79139999999998,156.8264,175,75
2026-05-09 16:04:34.104,3,-0.08,-1.91,-2.07,-205.03459999999998,267.8886,9.8764,175,75
2026-05-09 16:04:34.117,3,1.1,-2.77,-1.19,226.7954,255.45860000000002,-61.223600000000005,175,75
2026-05-09 16:04:34.120,3,-0.45,-1.96,0.81,289.4754,308.8086,-123.47359999999999,175,75
2026-05-09 16:04:34.130,3,0.96,-0.93,1.76,176.30540000000002,465.9986,-178.59359999999998,175,75
2026-05-09 16:04:34.141,3,2.16,-0.23,2.12,177.2854,297.21860000000004,-67.0136,175,75
2026-05-09 16:04:34.151,3,1.57,-0.65,1.79,150.5154,104.1786,18.8464,175,75
2026-05-09 16:04:34.174,3,1.0,-1.09,0.51,221.18540000000002,190.32860000000002,-24.453599999999998,175,75
2026-05-09 16:04:34.191,3,1.44,-0.58,0.61,227.1054,168.8086,1.5264000000000024,175,75
2026-05-09 16:04:34.198,3,1.03,-0.52,0.51,231.0054,178.8086,21.0964,175,75
2026-05-09 16:04:34.223,3,0.51,-0.29,1.03,258.62539999999996,206.85860000000002,21.886400000000005,175,75
2026-05-09 16:04:34.234,3,0.78,-0.51,1.06,226.3654,143.92860000000002,47.8664,175,75
2026-05-09 16:04:34.245,3,0.47,-0.31,0.51,164.7854,47.5286,41.9564,175,75
2026-05-09 16:04:34.276,3,0.17,0.49,0.74,99.47540000000001,143.3186,23.6564,175,75
2026-05-09 16:04:34.306,3,0.28,0.0,0.93,-48.9946,-200.1514,62.626400000000004,175,75
2026-05-09 16:04:34.316,3,0.23,-0.02,0.38,-91.00460000000001,-216.8014,38.35640000000001,175,75
2026-05-09 16:04:34.329,3,0.39,0.01,0.27,-122.47460000000001,-195.95139999999998,20.546400000000002,175,75
2026-05-09 16:04:34.340,3,0.49,0.14,0.56,-141.19459999999998,-197.7814,-29.083599999999997,175,75
2026-05-09 16:04:34.350,3,0.51,0.35,0.88,-161.1346,-184.0614,-49.873599999999996,175,75
2026-05-09 16:04:34.363,3,0.38,0.4,0.86,-187.8346,-182.8414,-44.0836,175,75
2026-05-09 16:04:34.374,3,-0.0,0.39,0.61,-210.09459999999999,-162.9614,-56.583600000000004,175,75
2026-05-09 16:04:34.385,3,-0.25,0.24,0.29,-221.9846,-87.23140000000001,-86.22359999999999,175,75
2026-05-09 16:04:34.396,3,-0.34,0.08,0.34,-241.19459999999998,-12.7814,-103.11359999999999,175,75
2026-05-09 16:04:34.407,3,-0.34,-0.02,0.68,-260.5246,56.068599999999996,-132.1936,175,75
2026-05-09 16:04:34.425,3,-0.4,-0.1,0.92,-263.32460000000003,82.6486,-147.0736,175,75
2026-05-09 16:04:34.429,3,-0.43,-0.25,1.04,-249.0546,131.73860000000002,-169.1436,175,75
2026-05-09 16:04:34.440,3,-0.38,-0.42,1.18,-229.2446,173.98860000000002,-173.2936,175,75
2026-05-09 16:04:34.452,3,-0.37,-0.69,1.35,-205.3346,192.82860000000002,-187.1936,175,75
2026-05-09 16:04:34.463,3,-0.27,-0.78,1.4,-154.3046,231.67860000000002,-212.68359999999998,175,75
2026-05-09 16:04:34.485,3,-0.28,-0.16,1.39,-40.0946,243.13860000000003,-186.7636,175,75
2026-05-09 16:04:34.505,3,-0.61,0.73,1.58,-10.6446,225.7586,-162.5036,175,75
2026-05-09 16:04:34.523,3,-0.61,1.5,2.23,-12.1646,146.67860000000002,-102.25359999999999,175,75
2026-05-09 16:04:34.566,3,2.54,-0.96,1.39,180.7554,-342.3514,192.8064,175,75
2026-05-09 16:04:34.576,3,-0.48,-1.47,-1.33,-1.9845999999999995,-534.2414,292.1364,175,75
2026-05-09 16:04:34.583,3,-4.22,0.27,-1.58,-7.164599999999999,187.64860000000002,302.3164,175,75
2026-05-09 16:04:34.598,3,-1.41,-1.33,-0.27,186.7954,379.65860000000004,72.49640000000001,175,75
2026-05-09 16:04:34.609,3,-1.16,-0.23,2.5,195.33540000000002,249.5986,-154.8136,175,75
2026-05-09 16:04:34.621,3,1.83,0.77,2.83,76.6154,146.67860000000002,-73.3536,175,75
2026-05-09 16:04:34.632,3,1.42,0.77,2.52,36.8554,-98.0814,130.4864,175,75
2026-05-09 16:04:34.632,3,-0.53,-0.78,1.52,-4.9146,-196.1914,136.8264,175,75
2026-05-09 16:04:34.645,3,-0.96,-1.5,0.65,15.755400000000002,-102.23140000000001,77.0164,175,75
2026-05-09 16:04:34.655,3,-0.61,-2.05,0.88,62.465399999999995,28.498600000000003,17.0164,175,75
2026-05-09 16:04:34.666,3,0.0,-1.74,1.45,75.08539999999999,44.2386,-30.6736,175,75
2026-05-09 16:04:34.676,3,0.76,-1.01,1.49,43.6854,-6.0114,11.586400000000001,175,75
2026-05-09 16:04:34.705,3,0.04,-1.76,0.94,46.245400000000004,-0.4613999999999998,28.9064,175,75
2026-05-09 16:04:34.715,3,0.82,-1.5,1.1,54.1154,-5.2214,11.096400000000003,175,75
2026-05-09 16:04:34.728,3,1.35,-1.29,1.06,45.6354,-55.5214,28.7764,175,75
2026-05-09 16:04:34.742,3,1.59,-1.29,0.6,43.3254,-115.7614,58.5964,175,75
2026-05-09 16:04:34.767,3,1.15,-0.93,-0.53,60.2754,-132.4114,66.21640000000001,175,75
2026-05-09 16:04:34.788,3,0.93,-0.62,0.29,169.90540000000001,38.318599999999996,82.9864,175,75
2026-05-09 16:04:34.796,3,1.14,-0.79,0.2,176.6154,28.8686,99.02640000000001,175,75
2026-05-09 16:04:34.815,3,0.26,-0.73,0.25,172.6454,86.9786,107.8664,175,75
2026-05-09 16:04:34.825,3,-0.38,-0.34,0.98,197.83540000000002,149.6586,103.35640000000001,175,75
2026-05-09 16:04:34.849,3,0.75,-0.22,0.83,226.43540000000002,-24.851399999999998,71.52640000000001,175,75
2026-05-09 16:04:34.860,3,0.55,0.18,0.46,231.6154,-6.3114,43.4764,175,75
2026-05-09 16:04:34.870,3,-0.55,0.98,1.41,267.1654,108.0786,96.0964,175,75
2026-05-09 16:04:34.878,3,-0.23,0.45,2.04,226.3654,112.0986,146.15640000000002,175,75
2026-05-09 16:04:34.894,3,0.5,-0.5,1.52,154.8454,-111.37140000000001,110.18639999999999,175,75
2026-05-09 16:04:34.906,3,0.52,-0.32,0.24,125.3954,-136.5614,69.38640000000001,175,75
2026-05-09 16:04:34.911,3,0.61,0.07,-0.23,129.4754,-37.3514,69.2664,175,75
2026-05-09 16:04:34.925,3,0.78,0.15,0.12,118.93539999999999,30.7586,68.47640000000001,175,75
2026-05-09 16:04:34.936,3,0.82,0.14,0.46,94.1154,-12.0414,45.546400000000006,175,75
2026-05-09 16:04:34.946,3,0.4,0.25,0.47,67.40540000000001,-27.961399999999998,25.6664,175,75
2026-05-09 16:04:34.959,3,-0.01,0.37,0.47,38.8054,17.468600000000002,5.736400000000003,175,75
2026-05-09 16:04:34.970,3,-0.07,0.35,0.61,14.3554,44.9086,-15.853599999999998,175,75
2026-05-09 16:04:34.989,3,0.12,0.07,0.71,-48.934599999999996,16.738599999999998,-75.4236,175,75
2026-05-09 16:04:35.012,3,-0.11,0.19,0.57,-81.8046,-4.001399999999999,-130.9736,175,75
2026-05-09 16:04:35.034,3,-0.34,0.65,0.55,-141.4946,52.3486,-189.2036,175,75
2026-05-09 16:04:35.047,3,-0.31,0.9,0.57,-171.1346,70.2086,-210.0036,175,75
2026-05-09 16:04:35.059,3,-0.49,1.13,0.67,-202.7146,103.62859999999999,-229.9436,175,75
2026-05-09 16:04:35.069,3,-0.42,1.19,0.87,-220.09459999999999,125.51859999999999,-246.15359999999998,175,75
2026-05-09 16:04:35.081,3,-0.44,1.17,1.01,-233.2046,110.4586,-251.9536,175,75
2026-05-09 16:04:35.092,3,-0.4,1.0,0.95,-252.9546,81.4886,-265.6136,175,75
2026-05-09 16:04:35.102,3,0.03,0.67,0.82,-261.7446,78.3186,-295.48359999999997,175,75
2026-05-09 16:04:35.116,3,-0.24,0.27,0.87,-269.24460000000005,108.62859999999999,-290.6736,175,75
2026-05-09 16:04:35.139,3,-5.9,2.0,4.01,-163.3246,276.4886,9.5164,175,75
2026-05-09 16:04:35.189,3,-12.05,4.08,9.15,439.4154,805.0885999999999,644.8764,175,75
2026-05-09 16:04:35.189,3,-6.52,-1.75,11.29,647.2254,-204.1214,10.976400000000002,175,75
2026-05-09 16:04:35.200,3,0.38,-4.1,5.06,5.5754,-711.8614,-900.4836,175,75
2026-05-09 16:04:35.214,3,-0.97,-0.6,-1.58,-410.82460000000003,-39.6114,262.8064,175,75
2026-05-09 16:04:35.237,3,0.21,-2.1,-0.32,264.3554,165.45860000000002,-98.72359999999999,175,75
2026-05-09 16:04:35.237,3,0.6,-0.97,1.55,144.96540000000002,385.5786,-26.153599999999997,175,75
2026-05-09 16:04:35.261,3,1.47,-0.45,1.35,108.0754,-13.391399999999999,56.406400000000005,175,75
2026-05-09 16:04:35.279,3,0.92,-1.1,0.07,171.30540000000002,56.1286,57.626400000000004,175,75
2026-05-09 16:04:35.292,3,1.12,-1.09,-0.01,191.6754,106.0686,57.49640000000001,175,75
2026-05-09 16:04:35.299,3,1.05,-1.01,0.01,210.8254,119.1086,68.5964,175,75
2026-05-09 16:04:35.312,3,0.61,-0.82,0.19,219.4754,151.73860000000002,73.16640000000001,175,75
2026-05-09 16:04:35.335,3,0.18,-0.49,0.74,223.2554,170.8786,64.99640000000001,175,75
2026-05-09 16:04:35.359,3,-0.06,-0.37,1.09,166.1254,136.42860000000002,60.126400000000004,175,75
2026-05-09 16:04:35.370,3,-0.01,-0.02,0.95,116.9154,88.0786,45.4264,175,75
2026-05-09 16:04:35.386,3,0.13,0.61,0.54,92.22540000000001,29.2986,25.0564,175,75
2026-05-09 16:04:35.406,3,-0.0,0.51,0.68,17.5854,12.7086,86.3464,175,75
2026-05-09 16:04:35.412,3,0.14,0.24,0.3,-4.6046,-47.4714,40.4864,175,75
2026-05-09 16:04:35.422,3,0.16,0.23,-0.07,-41.9846,-32.9014,1.4064000000000014,175,75
2026-05-09 16:04:35.454,3,0.52,0.34,0.36,-101.1346,-5.0914,-65.6736,175,75
2026-05-09 16:04:35.464,3,0.41,0.31,0.56,-130.2746,-19.851399999999998,-99.6336,175,75
2026-05-09 16:04:35.485,3,0.24,0.23,0.84,-169.3646,-12.7114,-157.7436,175,75
2026-05-09 16:04:35.496,3,0.18,0.11,1.04,-193.9946,-19.1214,-177.62359999999998,175,75
2026-05-09 16:04:35.507,3,0.15,-0.11,1.11,-216.5546,-28.571399999999997,-187.5636,175,75
2026-05-09 16:04:35.518,3,0.04,-0.44,1.1,-237.22459999999998,-24.971400000000003,-199.6336,175,75
2026-05-09 16:04:35.528,3,-0.06,-0.87,1.04,-257.4146,1.9786000000000001,-213.7836,175,75
2026-05-09 16:04:35.562,3,-0.23,-1.04,0.38,-215.3346,115.9986,-237.0136,175,75
2026-05-09 16:04:35.581,3,-0.24,-0.75,0.45,-159.66459999999998,249.4786,-253.1136,175,75
2026-05-09 16:04:35.607,3,0.24,0.25,0.83,-50.2746,327.9586,-233.96359999999999,175,75
2026-05-09 16:04:35.623,3,-0.3,1.04,0.86,-19.424599999999998,315.5186,-176.6436,175,75
2026-05-09 16:04:35.633,3,-2.2,1.61,1.85,43.6854,413.9286,-39.0836,175,75
2026-05-09 16:04:35.633,3,-6.87,3.7,4.61,204.2954,692.4086,201.8864,175,75
2026-05-09 16:04:35.645,3,-3.01,2.2,6.92,569.6654000000001,850.6386,34.026399999999995,175,75
2026-05-09 16:04:35.655,3,3.5,-1.62,5.48,353.1954,245.20860000000002,84.7564,175,75
2026-05-09 16:04:35.659,3,3.98,-1.96,0.96,-3.6945999999999994,-514.1814,307.3764,175,75
2026-05-09 16:04:35.686,3,-3.6,-0.76,-1.48,16.3654,320.0886,235.9764,175,75
2026-05-09 16:04:35.710,3,-2.03,-0.03,0.37,122.34540000000001,70.6386,-84.2036,175,75
2026-05-09 16:04:35.710,3,-0.78,0.19,1.45,99.1154,21.918599999999998,-179.5736,175,75
2026-05-09 16:04:35.721,3,1.57,0.78,1.62,6.435400000000001,20.998600000000003,77.19640000000001,175,75
2026-05-09 16:04:35.731,3,-0.15,-1.13,2.03,-3.5046,-131.8014,178.59640000000002,175,75
2026-05-09 16:04:35.742,3,-0.42,-2.29,1.47,-5.2745999999999995,-133.8114,102.4364,175,75
2026-05-09 16:04:35.742,3,-0.17,-2.17,1.16,32.3454,-54.7314,8.416400000000003,175,75
2026-05-09 16:04:35.765,3,0.27,-1.19,1.25,56.3654,15.518600000000001,-31.703599999999998,175,75
2026-05-09 16:04:35.765,3,0.88,-0.05,1.42,37.6454,26.068600000000004,43.416399999999996,175,75
2026-05-09 16:04:35.778,3,-0.15,-0.39,1.15,10.275400000000001,-36.0114,114.0264,175,75
2026-05-09 16:04:35.778,3,-0.85,-1.15,1.07,11.0654,-1.5013999999999998,91.88640000000001,175,75
2026-05-09 16:04:35.791,3,-0.4,-1.64,1.45,35.4554,53.318599999999996,19.6964,175,75
2026-05-09 16:04:35.802,3,0.26,-1.36,1.87,11.8554,9.108600000000001,-6.583599999999999,175,75
2026-05-09 16:04:35.823,3,0.72,-0.82,1.46,-7.044599999999999,-111.8614,21.7664,175,75
2026-05-09 16:04:35.823,3,0.65,-0.91,0.93,-4.244599999999999,-150.0914,48.10640000000001,175,75
2026-05-09 16:04:35.847,3,0.91,-1.24,0.09,12.4054,-120.9514,39.2064,175,75
2026-05-09 16:04:35.873,3,1.2,-0.63,-0.24,44.6654,-75.6414,49.4564,175,75
2026-05-09 16:04:35.884,3,0.86,-0.51,0.19,93.3254,-5.0914,54.38640000000001,175,75
2026-05-09 16:04:35.891,3,1.01,-0.41,0.58,139.6054,21.7986,56.52640000000001,175,75
2026-05-09 16:04:35.916,3,1.13,-0.63,0.29,179.3554,45.2686,75.05640000000001,175,75
2026-05-09 16:04:35.923,3,0.83,-0.59,0.32,190.7554,115.7586,67.80640000000001,175,75
2026-05-09 16:04:35.945,3,0.17,-0.17,1.41,236.9754,208.6286,88.77640000000001,175,75
2026-05-09 16:04:35.965,3,0.67,-0.36,0.66,279.3554,99.90859999999999,63.2364,175,75
2026-05-09 16:04:35.986,3,0.53,0.06,-0.05,216.7354,142.0386,19.2664,175,75
2026-05-09 16:04:35.991,3,-0.95,1.22,0.37,233.93540000000002,231.36860000000001,78.2364,175,75
2026-05-09 16:04:35.999,3,-1.21,0.85,1.03,236.43540000000002,360.9986,139.5164,175,75
2026-05-09 16:04:36.011,3,0.1,-0.08,2.02,250.63540000000003,277.7086,127.8664,175,75
2026-05-09 16:04:36.022,3,0.75,-0.41,2.2,138.4454,54.718599999999995,104.2664,175,75
2026-05-09 16:04:36.034,3,0.64,0.07,1.47,83.74539999999999,-113.4514,127.68639999999999,175,75
2026-05-09 16:04:36.046,3,0.34,0.13,0.99,48.5054,-137.9614,156.2164,175,75
2026-05-09 16:04:36.070,3,0.06,0.22,0.73,6.9754000000000005,-157.8414,97.74640000000001,175,75
2026-05-09 16:04:36.091,3,0.07,0.25,0.71,-23.3246,-163.14139999999998,78.9064,175,75
2026-05-09 16:04:36.112,3,-0.04,0.18,0.55,-69.5446,-165.1514,74.4564,175,75
2026-05-09 16:04:36.124,3,-0.12,0.22,0.43,-118.02459999999999,-155.1514,-8.963599999999998,175,75
2026-05-09 16:04:36.148,3,-0.24,0.59,0.61,-156.5546,-64.12140000000001,-91.7636,175,75
2026-05-09 16:04:36.164,3,-0.23,0.85,0.65,-177.0446,-24.361400000000003,-129.5736,175,75
2026-05-09 16:04:36.183,3,-0.15,1.3,0.47,-217.53459999999998,89.5386,-200.9736,175,75
2026-05-09 16:04:36.210,3,-0.12,1.43,0.54,-229.3046,109.3586,-221.6436,175,75
2026-05-09 16:04:36.246,3,-0.52,0.84,0.78,-244.5446,205.6986,-280.48359999999997,175,75
2026-05-09 16:04:36.257,3,-5.79,2.64,3.82,-139.91459999999998,380.9386,-62.6836,175,75
2026-05-09 16:04:36.257,3,-13.53,6.14,7.8,107.6454,572.2786,478.9664,175,75
2026-05-09 16:04:36.280,3,-14.27,6.79,12.83,714.5454000000001,1505.6386,1101.9564,175,75
2026-05-09 16:04:36.290,3,-1.42,-11.7,11.17,704.0554000000001,-1051.0113999999999,-506.2236,175,75
2026-05-09 16:04:36.290,3,6.7,-1.95,-0.24,-17.354599999999998,-560.2214,-992.5636000000001,175,75
2026-05-09 16:04:36.302,3,-2.21,3.92,0.13,-199.66459999999998,-706.6214,421.6464,175,75
2026-05-09 16:04:36.312,3,0.16,-0.31,-1.75,-286.5546,198.3786,-22.863599999999998,175,75
2026-05-09 16:04:36.324,3,-0.29,-1.1,-0.97,180.8854,138.4986,-11.703599999999998,175,75
2026-05-09 16:04:36.334,3,-0.86,-1.86,0.76,205.6954,364.96860000000004,8.846400000000003,175,75
2026-05-09 16:04:36.357,3,0.6,-0.83,1.96,142.46540000000002,332.46860000000004,-76.4036,175,75
2026-05-09 16:04:36.375,3,1.27,-0.06,1.54,56.4954,-34.3614,110.2464,175,75
2026-05-09 16:04:36.409,3,0.96,-1.0,0.53,139.1154,57.7086,67.6264,175,75
2026-05-09 16:04:36.409,3,1.11,-0.8,0.98,165.3954,115.5786,70.7364,175,75
2026-05-09 16:04:36.420,3,0.96,-0.69,1.28,184.90540000000001,109.2386,70.1864,175,75
2026-05-09 16:04:36.438,3,0.71,-0.61,1.31,194.8454,88.6886,75.7364,175,75
2026-05-09 16:04:36.440,3,0.45,-0.62,1.25,195.9454,80.9386,83.41640000000001,175,75
2026-05-09 16:04:36.452,3,0.26,-0.53,0.99,161.8554,53.6886,84.69640000000001,175,75
2026-05-09 16:04:36.464,3,0.04,-0.41,0.66,118.50540000000001,63.318599999999996,64.8164,175,75
2026-05-09 16:04:36.486,3,0.09,0.15,0.22,80.9454,122.15859999999999,4.386400000000002,175,75
2026-05-09 16:04:36.493,3,-0.46,0.65,0.83,98.1954,191.36860000000001,16.5264,175,75
2026-05-09 16:04:36.563,3,-0.43,0.03,0.17,-72.0446,-14.3614,-64.0836,175,75
2026-05-09 16:04:36.572,3,-0.26,0.3,0.35,-94.91460000000001,-16.3114,-127.3736,175,75
2026-05-09 16:04:36.579,3,-0.07,0.46,0.48,-122.47460000000001,-37.2314,-139.9436,175,75
2026-05-09 16:04:36.594,3,-0.11,0.43,0.7,-145.8846,-48.2614,-145.4236,175,75
2026-05-09 16:04:36.604,3,-0.16,0.38,0.98,-171.1346,-63.9314,-158.7836,175,75
2026-05-09 16:04:36.608,3,-0.13,0.37,1.22,-192.8946,-89.2414,-175.2436,175,75
2026-05-09 16:04:36.752,3,0.1,-0.56,1.19,-168.8746,11.7386,-134.5136,175,75
2026-05-09 16:04:36.773,3,0.41,1.52,1.83,-48.2046,122.0986,-111.1536,175,75
2026-05-09 16:04:36.805,3,-8.41,5.67,4.54,120.4554,248.5686,428.0464,175,75
2026-05-09 16:04:36.823,3,3.28,-3.79,2.24,499.7254,527.4685999999999,-35.303599999999996,175,75
2026-05-09 16:04:36.840,3,6.86,-4.62,1.07,139.2354,-302.84139999999996,-85.36359999999999,175,75
2026-05-09 16:04:36.912,3,-0.3,-1.85,0.72,199.4154,357.8886,11.276400000000002,175,75
2026-05-09 16:04:36.933,3,-0.35,-0.64,1.99,171.8554,34.108599999999996,-189.0236,175,75
2026-05-09 16:04:36.956,3,0.6,-1.06,2.16,62.8954,65.6986,130.6664,175,75
2026-05-09 16:04:36.970,3,0.23,-2.16,2.74,85.1454,9.2986,69.38640000000001,175,75
2026-05-09 16:04:36.984,3,0.32,-0.9,2.14,50.4554,-35.5214,28.046400000000002,175,75
2026-05-09 16:04:36.995,3,-0.41,-1.31,1.11,33.0754,12.4686,11.646400000000003,175,75
2026-05-09 16:04:37.007,3,0.38,-0.8,1.12,10.275400000000001,-103.0814,-13.353599999999998,175,75
2026-05-09 16:04:37.007,3,0.45,-0.73,0.79,6.555400000000001,-116.62140000000001,9.756400000000003,175,75
2026-05-09 16:04:37.024,3,0.61,-1.18,0.58,8.255400000000002,-116.37140000000001,23.106400000000004,175,75
2026-05-09 16:04:37.035,3,0.91,-0.95,0.37,3.5054,-126.5614,22.076400000000003,175,75
2026-05-09 16:04:37.044,3,1.06,-0.71,0.32,14.4754,-108.87140000000001,26.2764,175,75
2026-05-09 16:04:37.044,3,0.89,-0.27,0.46,35.5154,-104.0614,43.166399999999996,175,75
2026-05-09 16:04:37.071,3,0.59,-0.3,0.57,104.1154,-35.031400000000005,76.7664,175,75
2026-05-09 16:04:37.082,3,0.63,-0.44,0.28,108.80539999999999,-18.8714,83.2964,175,75
2026-05-09 16:04:37.082,3,0.37,-0.46,0.27,111.00540000000001,33.318599999999996,89.1464,175,75
2026-05-09 16:04:37.093,3,0.04,-0.29,0.73,128.4454,74.0486,88.16640000000001,175,75
2026-05-09 16:04:37.125,3,0.25,-0.21,0.83,163.2554,23.0186,89.8164,175,75
2026-05-09 16:04:37.136,3,0.49,0.06,0.61,171.6754,33.2586,58.5964,175,75
2026-05-09 16:04:37.150,3,0.2,0.52,1.58,179.4154,56.7386,121.15640000000002,175,75
2026-05-09 16:04:37.154,3,0.27,0.0,1.62,134.6054,-32.3514,162.4364,175,75
2026-05-09 16:04:37.174,3,-0.16,-0.09,0.3,89.47540000000001,-53.6314,86.46640000000001,175,75
2026-05-09 16:04:37.187,3,0.78,0.67,0.78,75.9454,67.0986,65.24640000000001,175,75
2026-05-09 16:04:37.198,3,0.69,0.68,0.85,50.4554,26.678600000000003,76.0964,175,75
2026-05-09 16:04:37.220,3,-0.05,0.51,0.57,9.235400000000002,51.4886,19.936400000000003,175,75
2026-05-09 16:04:37.231,3,-0.0,0.39,0.76,-29.424599999999998,87.5286,-16.5236,175,75
2026-05-09 16:04:37.242,3,-0.17,0.87,1.02,-83.50460000000001,52.7686,-73.9036,175,75
2026-05-09 16:04:37.262,3,-0.71,1.2,0.95,-80.7646,79.7786,-86.4636,175,75
2026-05-09 16:04:37.274,3,-0.77,1.27,0.98,-56.1946,100.2086,-107.9236,175,75
2026-05-09 16:04:37.292,3,-0.61,1.61,1.39,-62.4746,67.8886,-138.2336,175,75
2026-05-09 16:04:37.303,3,-0.39,1.82,1.37,-84.66460000000001,19.238599999999998,-143.2336,175,75
2026-05-09 16:04:37.316,3,-0.23,1.89,1.24,-109.4246,-35.461400000000005,-153.4736,175,75
2026-05-09 16:04:37.355,3,0.84,0.9,0.14,-170.2146,-58.141400000000004,-160.3036,175,75
2026-05-09 16:04:37.355,3,0.09,0.5,0.62,-187.3546,69.4186,-189.6936,175,75
2026-05-09 16:04:37.378,3,-2.41,1.74,3.04,-102.0446,172.4086,-125.7336,175,75
2026-05-09 16:04:37.388,3,-8.05,3.33,9.58,548.7454,552.3485999999999,519.8163999999999,175,75
2026-05-09 16:04:37.411,3,3.47,-1.54,-0.76,-531.0046,-586.9814,-428.9036,175,75
2026-05-09 16:04:37.430,3,0.23,3.84,-2.32,-491.25460000000004,-306.5014,3.5964000000000027,175,75
2026-05-09 16:04:37.440,3,0.96,-0.57,-1.87,98.68539999999999,314.78860000000003,75.66640000000001,175,75
2026-05-09 16:04:37.488,3,1.47,-0.23,1.53,65.5154,-57.8414,-111.9536,175,75
2026-05-09 16:04:37.554,3,0.26,-0.79,0.09,134.5454,-0.15139999999999976,59.69640000000001,175,75
2026-05-09 16:04:37.564,3,0.6,-0.37,0.82,159.8454,114.5986,81.7664,175,75
2026-05-09 16:04:37.575,3,0.33,-0.33,1.43,186.0054,63.1986,95.30640000000001,175,75
2026-05-09 16:04:37.610,3,-0.28,0.01,0.79,76.00540000000001,-12.4114,55.91640000000001,175,75
2026-05-09 16:04:37.622,3,-0.18,0.5,0.12,39.8454,62.468599999999995,20.796400000000002,175,75
2026-05-09 16:04:37.646,3,-0.36,0.54,1.05,51.6754,151.3086,38.166399999999996,175,75
2026-05-09 16:04:37.691,3,-0.29,0.28,0.99,26.1254,70.87859999999999,-4.333599999999999,175,75
2026-05-09 16:04:37.691,3,-0.41,0.29,0.63,-9.1746,57.8886,-47.0736,175,75
2026-05-09 16:04:37.701,3,-0.2,0.41,0.59,-33.324600000000004,59.0486,-101.52359999999999,175,75
2026-05-09 16:04:37.712,3,-0.07,0.62,0.77,-60.0946,55.5186,-136.0336,175,75
2026-05-09 16:04:37.722,3,-0.0,0.67,0.92,-89.3646,39.6586,-149.7536,175,75
2026-05-09 16:04:37.744,3,0.15,0.51,1.09,-141.6746,-38.6314,-168.7236,175,75
2026-05-09 16:04:37.754,3,0.25,0.42,1.24,-168.50459999999998,-70.09140000000001,-174.1436,175,75
2026-05-09 16:04:37.767,3,0.29,0.2,1.33,-199.66459999999998,-115.9514,-166.0336,175,75
2026-05-09 16:04:37.773,3,0.18,0.1,1.13,-203.8746,-120.2814,-157.0136,175,75
2026-05-09 16:04:37.820,3,0.25,-0.3,0.79,-184.4246,-36.0114,-157.0736,175,75
2026-05-09 16:04:37.830,3,0.59,-0.48,0.67,-152.7146,32.2886,-147.9236,175,75
2026-05-09 16:04:37.847,3,0.35,-0.4,0.84,-122.16460000000001,81.3086,-127.25359999999999,175,75
2026-05-09 16:04:37.876,3,-0.72,0.86,1.74,-60.5246,151.48860000000002,-132.5636,175,75
2026-05-09 16:04:37.913,3,-3.47,2.85,3.95,126.7954,337.28860000000003,121.34640000000002,175,75
2026-05-09 16:04:37.943,3,4.54,-2.45,1.61,139.05540000000002,-171.92139999999998,-6.6435999999999975,175,75
2026-05-09 16:04:37.965,3,1.54,-0.55,-0.45,-62.7146,-516.6814,199.3864,175,75
2026-05-09 16:04:37.970,3,-0.91,-1.89,-0.39,135.08540000000002,339.71860000000004,85.3664,175,75
2026-05-09 16:04:37.992,3,0.8,0.09,2.26,110.4554,191.3086,-77.1936,175,75
2026-05-09 16:04:38.071,3,-0.07,-0.6,1.38,46.5554,-41.251400000000004,67.3764,175,75
2026-05-09 16:04:38.082,3,-0.41,-0.69,0.99,50.3954,43.3786,37.07640000000001,175,75
2026-05-09 16:04:38.095,3,-0.06,-0.65,1.03,30.0854,-48.2014,10.546400000000002,175,75
2026-05-09 16:04:38.116,3,0.25,-0.79,0.6,32.4654,-64.6114,22.3764,175,75
2026-05-09 16:04:38.131,3,0.35,-0.86,0.55,34.4754,-55.5214,17.686400000000003,175,75
2026-05-09 16:04:38.142,3,0.64,-0.75,0.56,38.1354,-59.3014,24.5164,175,75
2026-05-09 16:04:38.142,3,0.88,-0.74,0.37,33.1354,-72.7814,28.4764,175,75
2026-05-09 16:04:38.161,3,0.63,-0.35,0.78,55.6954,-31.681400000000004,37.626400000000004,175,75
2026-05-09 16:04:38.182,3,0.53,-0.08,1.16,80.8254,-18.261400000000002,50.796400000000006,175,75
2026-05-09 16:04:38.206,3,0.33,-0.15,0.56,123.0154,68.9886,54.516400000000004,175,75
2026-05-09 16:04:38.220,3,0.09,0.2,1.0,140.8854,103.1986,57.9264,175,75
2026-05-09 16:04:38.243,3,0.18,-0.04,1.02,185.6354,64.1786,76.52640000000001,175,75
2026-05-09 16:04:38.243,3,0.17,0.11,0.96,187.0454,66.4286,63.2364,175,75
2026-05-09 16:04:38.254,3,0.37,-0.09,0.99,157.83540000000002,79.4186,71.8264,175,75
2026-05-09 16:04:38.263,3,0.59,0.15,0.79,139.7854,32.5286,67.6264,175,75
2026-05-09 16:04:38.278,3,0.29,0.54,0.66,134.1754,-5.2814,52.436400000000006,175,75
2026-05-09 16:04:38.331,3,-0.38,0.89,0.65,133.5654,40.818599999999996,71.1564,175,75
2026-05-09 16:04:38.361,3,-0.12,0.56,1.1,47.2854,84.4786,26.886400000000005,175,75
2026-05-09 16:04:38.371,3,-0.02,0.61,1.18,19.4154,77.4686,27.136400000000005,175,75
2026-05-09 16:04:38.381,3,0.09,0.6,1.17,2.775400000000001,46.7386,25.7364,175,75
2026-05-09 16:04:38.392,3,-0.08,0.72,0.97,-10.7646,-53.391400000000004,-12.253599999999999,175,75
2026-05-09 16:04:38.403,3,0.0,0.67,0.85,-39.0546,-77.5314,-41.28359999999999,175,75
2026-05-09 16:04:38.487,3,0.77,0.68,0.5,-218.6346,-51.8614,-188.59359999999998,175,75
2026-05-09 16:04:38.512,3,-11.33,5.29,7.54,203.68540000000002,575.5785999999999,560.3664,175,75
2026-05-09 16:04:38.533,3,4.19,0.73,-0.36,-393.32460000000003,-375.21139999999997,-428.29359999999997,175,75
2026-05-09 16:04:38.544,3,1.26,4.7,-1.09,-295.94460000000004,-330.52139999999997,98.35640000000001,175,75
2026-05-09 16:04:38.546,3,0.67,1.87,-1.59,-222.7746,-142.17139999999998,132.5564,175,75
2026-05-09 16:04:38.606,3,1.08,-1.98,2.16,73.56540000000001,241.67860000000002,-22.443599999999996,175,75
2026-05-09 16:04:38.627,3,0.82,0.22,0.97,81.8554,95.7586,-25.063599999999997,175,75
2026-05-09 16:04:38.627,3,0.94,0.08,1.06,88.1354,92.3486,8.1064,175,75
2026-05-09 16:04:38.691,3,0.59,-0.17,0.93,106.9154,58.2586,26.7064,175,75
2026-05-09 16:04:38.790,3,0.34,-0.35,0.74,148.4454,114.1786,32.686400000000006,175,75
2026-05-09 16:04:38.803,3,0.41,-0.18,0.95,149.4154,127.2786,36.0964,175,75
2026-05-09 16:04:38.847,3,0.56,-0.11,1.06,154.05540000000002,112.40859999999999,46.406400000000005,175,75
2026-05-09 16:04:38.878,3,-0.2,-0.37,1.23,122.8954,102.5286,90.97640000000001,175,75
2026-05-09 16:04:38.900,3,-0.74,-0.11,0.73,63.565400000000004,-3.0214,86.8264,175,75
2026-05-09 16:04:38.919,3,-0.6,0.3,1.29,20.2754,37.7686,59.99640000000001,175,75
2026-05-09 16:04:38.957,3,0.26,0.11,0.78,-186.9846,-66.7414,-94.14359999999999,175,75
2026-05-09 16:04:38.974,3,0.2,0.07,0.87,-204.97459999999998,-66.5614,-119.5736,175,75
2026-05-09 16:04:39.086,3,0.05,-0.0,1.25,-144.78459999999998,108.5686,-128.4736,175,75
2026-05-09 16:04:39.132,3,4.05,-2.04,1.7,94.05539999999999,-272.4114,-72.50359999999999,175,75
2026-05-09 16:04:39.132,3,1.92,0.23,0.35,-48.4446,-454.4214,186.5864,175,75
2026-05-09 16:04:39.157,3,-0.16,-0.65,1.65,35.5154,35.2086,42.016400000000004,175,75
2026-05-09 16:04:39.180,3,0.18,-1.11,1.4,18.1354,18.2586,9.8764,175,75
2026-05-09 16:04:39.205,3,0.02,-1.01,1.16,7.2254000000000005,-9.4214,17.746400000000005,175,75
2026-05-09 16:04:39.226,3,-0.18,-0.89,0.87,10.3354,-20.891399999999997,4.636400000000002,175,75
2026-05-09 16:04:39.237,3,-0.11,-0.83,0.73,18.6854,-5.3414,-5.123599999999998,175,75
2026-05-09 16:04:39.249,3,0.03,-0.81,0.76,27.165399999999998,-6.1914,-7.073599999999997,175,75
2026-05-09 16:04:39.267,3,0.12,-0.85,0.7,31.7954,-19.4814,1.6464000000000034,175,75
2026-05-09 16:04:39.278,3,0.19,-0.92,0.69,32.5254,-31.6214,6.886400000000002,175,75
2026-05-09 16:04:39.294,3,0.54,-0.8,0.64,31.1254,-71.6814,18.966400000000004,175,75
2026-05-09 16:04:39.306,3,0.66,-0.72,0.5,45.4554,-81.8014,34.8164,175,75
2026-05-09 16:04:39.330,3,0.84,-0.38,0.23,69.90540000000001,-64.9714,45.97640000000001,175,75
2026-05-09 16:04:39.373,3,0.59,-0.11,0.5,111.3654,-1.6214,65.97640000000001,175,75
2026-05-09 16:04:39.450,3,0.02,-0.02,1.53,168.1354,98.9286,99.9364,175,75
2026-05-09 16:04:39.450,3,0.14,-0.14,1.42,173.4454,55.998599999999996,102.3164,175,75
2026-05-09 16:04:39.461,3,0.22,-0.16,0.72,197.2854,21.9786,78.71640000000001,175,75
2026-05-09 16:04:39.506,3,-0.43,0.5,0.82,102.28540000000001,53.8686,48.8464,175,75
2026-05-09 16:04:39.520,3,0.02,0.62,1.03,33.0154,65.5786,11.956400000000002,175,75
2026-05-09 16:04:39.540,3,0.09,0.74,0.96,15.395400000000002,14.0486,1.1564000000000014,175,75
2026-05-09 16:04:39.540,3,-0.05,0.93,0.84,15.8854,-7.041399999999999,-10.423599999999999,175,75
2026-05-09 16:04:39.564,3,-0.21,1.06,0.89,21.1854,4.2986,-16.6436,175,75
2026-05-09 16:04:39.584,3,0.01,1.31,0.59,-63.4446,-74.6114,-87.86359999999999,175,75
2026-05-09 16:04:39.610,3,0.68,1.39,0.2,-161.19459999999998,-5.0914,-170.7336,175,75
2026-05-09 16:04:39.626,3,0.3,0.65,0.8,-206.8646,27.5886,-203.7836,175,75
2026-05-09 16:04:39.677,3,-11.9,6.19,7.51,152.71540000000002,334.90860000000004,592.6264,175,75
2026-05-09 16:04:39.689,3,3.04,-11.29,8.14,340.0254,-153.8714,-236.34359999999998,175,75
2026-05-09 16:04:39.726,3,0.6,-2.31,0.66,97.0454,305.6986,3.7164000000000037,175,75
2026-05-09 16:04:39.726,3,0.73,-2.96,1.79,83.62540000000001,227.64860000000002,-59.333600000000004,175,75
2026-05-09 16:04:39.740,3,0.44,-1.32,1.69,72.46539999999999,118.8086,-106.4036,175,75
2026-05-09 16:04:39.772,3,0.7,-0.3,1.24,73.56540000000001,138.6886,-107.0136,175,75
2026-05-09 16:04:39.772,3,1.36,-0.01,1.2,71.9154,143.8086,-41.4036,175,75
2026-05-09 16:04:39.786,3,1.21,-0.27,1.27,82.40540000000001,50.1486,35.546400000000006,175,75
2026-05-09 16:04:39.808,3,0.72,-0.61,0.5,114.84540000000001,90.9986,51.46640000000001,175,75
2026-05-09 16:04:39.818,3,0.72,-0.54,0.65,154.4154,140.9386,69.7564,175,75
2026-05-09 16:04:39.837,3,0.78,-0.64,1.01,156.18540000000002,132.5886,88.71640000000001,175,75
2026-05-09 16:04:39.859,3,0.38,-0.44,0.87,152.9554,86.3086,102.9264,175,75
2026-05-09 16:04:39.885,3,0.02,-0.26,1.0,151.24540000000002,88.1386,105.1864,175,75
2026-05-09 16:04:39.954,3,0.23,0.12,1.13,-43.4446,-148.57139999999998,31.036400000000004,175,75
2026-05-09 16:04:40.005,3,0.19,0.36,0.72,-123.99459999999999,-169.9114,-48.0436,175,75
2026-05-09 16:04:40.029,3,0.2,0.12,0.8,-188.1446,-80.0314,-138.4136,175,75
2026-05-09 16:04:40.029,3,0.05,-0.0,0.81,-204.3046,-43.2014,-168.2936,175,75
2026-05-09 16:04:40.041,3,0.07,-0.09,0.75,-222.1046,-24.7314,-190.6136,175,75
2026-05-09 16:04:40.070,3,0.09,-0.06,0.62,-225.8246,-31.3114,-193.59359999999998,175,75
2026-05-09 16:04:40.113,3,-0.45,0.11,1.19,-134.9146,200.9986,-174.7536,175,75
2026-05-09 16:04:40.178,3,-1.85,0.97,3.4,-13.4446,76.7386,-58.3536,175,75
2026-05-09 16:04:40.178,3,-2.6,2.18,3.98,25.825400000000002,-80.0314,49.2064,175,75
2026-05-09 16:04:40.188,3,-2.91,2.4,3.51,82.58539999999999,-99.6114,92.9264,175,75
2026-05-09 16:04:40.205,3,0.42,-0.11,1.21,143.1354,-92.9614,12.9864,175,75
2026-05-09 16:04:40.210,3,2.15,0.0,-1.05,63.4454,-141.6814,15.796400000000002,175,75
2026-05-09 16:04:40.233,3,-0.03,0.06,-1.33,9.665400000000002,-62.4114,147.5564,175,75
2026-05-09 16:04:40.255,3,-2.36,0.35,-0.73,4.295400000000001,237.2886,144.4564,175,75
2026-05-09 16:04:40.267,3,-0.77,-0.86,0.16,104.47540000000001,309.0486,38.96640000000001,175,75
2026-05-09 16:04:40.280,3,0.29,0.05,2.48,29.355400000000003,91.8586,22.866400000000002,175,75
2026-05-09 16:04:40.280,3,0.61,-0.1,2.1,16.2454,-48.2014,21.886400000000005,175,75
2026-05-09 16:04:40.291,3,0.2,-0.08,1.51,-6.8046,-88.5714,30.606400000000004,175,75
2026-05-09 16:04:40.314,3,0.27,-1.67,1.09,-8.2646,-10.1514,-0.06359999999999744,175,75
2026-05-09 16:04:40.314,3,0.31,-1.06,0.92,-1.3745999999999992,1.7386000000000004,0.7364000000000033,175,75
2026-05-09 16:04:40.324,3,0.22,-0.78,1.13,16.6754,31.738599999999998,14.386400000000005,175,75
2026-05-09 16:04:40.338,3,0.23,-0.88,0.91,16.6154,-25.7014,11.706400000000002,175,75
2026-05-09 16:04:40.355,3,0.13,-0.84,0.67,20.0254,-38.141400000000004,20.426400000000005,175,75
2026-05-09 16:04:40.366,3,0.29,-0.78,0.48,40.6354,-52.5914,15.3064,175,75
2026-05-09 16:04:40.399,3,0.72,-0.63,0.33,76.3654,-49.6114,41.0964,175,75
2026-05-09 16:04:40.399,3,0.76,-0.45,0.5,89.4154,-55.7614,50.7364,175,75
2026-05-09 16:04:40.453,3,0.76,-0.35,0.5,133.99540000000002,1.0686000000000002,71.21640000000001,175,75
2026-05-09 16:04:40.494,3,0.58,-0.43,0.66,160.4554,28.3786,87.9864,175,75
2026-05-09 16:04:40.494,3,0.53,-0.64,0.59,172.9554,53.748599999999996,96.4064,175,75
2026-05-09 16:04:40.524,3,0.21,-0.41,0.95,195.8254,170.20860000000002,77.6864,175,75
2026-05-09 16:04:40.572,3,0.07,0.72,1.22,184.7854,32.2886,39.266400000000004,175,75
2026-05-09 16:04:40.587,3,-0.38,0.79,1.42,176.18540000000002,57.3486,71.9564,175,75
2026-05-09 16:04:40.600,3,-0.16,0.36,1.21,132.40540000000001,6.5486,85.85640000000001,175,75
2026-05-09 16:04:40.622,3,-0.46,0.5,0.65,100.4554,-7.7814,38.8464,175,75
2026-05-09 16:04:40.643,3,-0.39,0.65,0.48,87.83539999999999,49.4786,6.886400000000002,175,75
2026-05-09 16:04:40.643,3,0.01,0.6,0.84,48.2554,92.8886,-13.173599999999997,175,75
2026-05-09 16:04:40.675,3,-0.05,1.07,0.75,-27.7146,-44.3014,-114.4536,175,75
2026-05-09 16:04:40.687,3,0.07,1.14,0.48,-63.1446,-44.8514,-135.6736,175,75
2026-05-09 16:04:40.720,3,0.75,1.06,-0.03,-215.03459999999998,14.2986,-270.3636,175,75
2026-05-09 16:04:40.732,3,0.86,0.52,0.22,-242.59459999999999,23.138599999999997,-282.8636,175,75
2026-05-09 16:04:40.744,3,-7.06,2.57,4.5,-135.1546,341.6786,91.7664,175,75
2026-05-09 16:04:40.758,3,-3.71,-8.22,6.71,196.1254,-952.3514,-368.7236,175,75
2026-05-09 16:04:40.772,3,0.03,-1.8,-0.02,-432.9546,-541.3714,-794.4536,175,75
2026-05-09 16:04:40.786,3,2.63,7.4,-2.8,-265.0946,-434.0614,30.4864,175,75
2026-05-09 16:04:40.808,3,-0.17,-0.77,-0.54,48.2554,408.4986,119.87640000000002,175,75
2026-05-09 16:04:40.813,3,0.41,-2.16,1.31,154.6054,259.53860000000003,0.18640000000000256,175,75
2026-05-09 16:04:40.854,3,0.99,0.16,0.86,49.9654,1.7986000000000002,61.406400000000005,175,75
2026-05-09 16:04:40.884,3,0.45,-0.45,0.8,91.24539999999999,22.7686,74.38640000000001,175,75
2026-05-09 16:04:40.904,3,0.57,-0.36,1.11,112.8954,33.8086,84.7564,175,75
2026-05-09 16:04:40.915,3,0.36,-0.13,1.22,125.33540000000002,38.748599999999996,99.08640000000001,175,75
2026-05-09 16:04:40.940,3,0.13,-0.43,1.72,105.9454,45.998599999999996,111.09640000000002,175,75
2026-05-09 16:04:40.952,3,-0.09,-0.34,1.77,86.3654,19.238599999999998,82.3764,175,75
2026-05-09 16:04:40.987,3,-0.26,0.22,0.85,50.3354,-35.2214,51.3464,175,75
2026-05-09 16:04:40.998,3,-0.41,0.46,0.34,34.6054,-7.5914,43.5964,175,75
2026-05-09 16:04:40.998,3,-0.48,0.58,0.42,46.1854,67.2786,26.7064,175,75
2026-05-09 16:04:41.010,3,-0.36,0.65,0.96,45.6354,123.2586,12.8064,175,75
2026-05-09 16:04:41.020,3,-0.51,0.63,1.31,31.065400000000004,103.4386,19.6964,175,75
2026-05-09 16:04:41.058,3,-0.07,0.16,0.45,-49.7246,64.5986,-92.1336,175,75
2026-05-09 16:04:41.069,3,0.23,0.18,0.8,-71.43459999999999,64.4786,-123.41359999999999,175,75
2026-05-09 16:04:41.086,3,0.37,0.22,0.91,-88.99459999999999,21.7986,-147.0736,175,75
2026-05-09 16:04:41.096,3,0.59,0.24,0.87,-105.5846,-14.481399999999999,-164.6336,175,75
2026-05-09 16:04:41.109,3,0.89,0.22,0.76,-123.81460000000001,-39.5414,-173.1136,175,75
2026-05-09 16:04:41.120,3,0.94,0.23,0.57,-148.9946,-34.181400000000004,-175.7936,175,75
2026-05-09 16:04:41.130,3,0.74,0.21,0.46,-158.9946,0.20860000000000023,-175.8536,175,75
2026-05-09 16:04:41.142,3,0.56,0.1,0.5,-160.09459999999999,29.848599999999998,-181.2236,175,75
2026-05-09 16:04:41.142,3,0.43,-0.08,0.63,-161.6746,52.7086,-193.7236,175,75
2026-05-09 16:04:41.158,3,0.55,-0.42,0.66,-161.7446,85.26859999999999,-212.0136,175,75
2026-05-09 16:04:41.169,3,0.68,-0.67,0.6,-153.9946,111.9786,-217.1936,175,75
2026-05-09 16:04:41.215,3,-3.97,1.89,3.55,3.0153999999999996,334.0486,13.046400000000002,175,75
2026-05-09 16:04:41.290,3,-0.53,-1.2,0.39,98.56540000000001,56.1886,-29.453599999999998,175,75
2026-05-09 16:04:41.301,3,0.0,-0.84,1.5,71.12540000000001,82.76859999999999,-90.1836,175,75
2026-05-09 16:04:41.315,3,1.09,0.15,1.58,41.245400000000004,53.498599999999996,17.8064,175,75
2026-05-09 16:04:41.332,3,-0.27,-0.91,1.0,29.0554,28.3786,28.356400000000004,175,75
2026-05-09 16:04:41.376,3,-0.2,-0.86,1.12,16.3654,17.708599999999997,-8.113599999999998,175,75
2026-05-09 16:04:41.448,3,0.62,-0.7,0.83,5.695400000000001,-26.681399999999996,-13.903599999999997,175,75
2026-05-09 16:04:41.475,3,0.87,-0.4,0.3,69.78540000000001,19.108600000000003,11.0364,175,75
2026-05-09 16:04:41.507,3,0.71,-0.35,0.5,156.43540000000002,127.15859999999999,31.7664,175,75
2026-05-09 16:04:41.523,3,0.62,-0.58,0.68,192.1654,206.42860000000002,30.606400000000004,175,75
2026-05-09 16:04:41.531,3,0.68,-0.5,0.9,211.55540000000002,238.7486,18.8464,175,75
2026-05-09 16:04:41.555,3,0.26,-0.12,1.26,238.1354,236.54860000000002,34.7564,175,75
2026-05-09 16:04:41.571,3,0.17,-0.12,1.45,251.1854,218.4986,34.516400000000004,175,75
2026-05-09 16:04:41.582,3,0.22,-0.1,1.09,271.24539999999996,161.67860000000002,24.4564,175,75
2026-05-09 16:04:41.606,3,0.18,0.06,0.93,217.9554,150.9386,36.21640000000001,175,75
2026-05-09 16:04:41.616,3,0.0,0.6,0.83,217.71540000000002,103.5686,35.3664,175,75
2026-05-09 16:04:41.626,3,-0.55,1.08,0.96,228.8654,96.9186,46.766400000000004,175,75
2026-05-09 16:04:41.637,3,-0.33,0.53,1.11,195.8254,90.26859999999999,88.35640000000001,175,75
2026-05-09 16:04:41.650,3,-0.47,0.44,1.02,176.3654,60.1486,76.0364,175,75
2026-05-09 16:04:41.665,3,-0.46,0.69,0.88,154.90540000000001,46.428599999999996,42.8664,175,75
2026-05-09 16:04:41.665,3,-0.24,0.69,0.9,140.21540000000002,30.8786,27.316400000000005,175,75
2026-05-09 16:04:41.682,3,-0.16,0.69,0.88,117.22540000000001,13.7486,22.496400000000005,175,75
2026-05-09 16:04:41.699,3,-0.28,0.73,0.56,72.8954,-12.3514,2.076400000000003,175,75
2026-05-09 16:04:41.761,3,-0.04,0.88,0.18,-36.8046,-102.1714,-144.8136,175,75
2026-05-09 16:04:41.772,3,0.42,1.12,-0.25,-72.3546,-52.781400000000005,-169.5736,175,75
2026-05-09 16:04:41.783,3,0.49,0.75,0.09,-127.65459999999999,25.458599999999997,-199.8136,175,75
2026-05-09 16:04:41.794,3,0.11,0.58,0.52,-147.28459999999998,47.9586,-229.5736,175,75
2026-05-09 16:04:41.850,3,-1.14,-4.28,3.6,-187.47459999999998,-664.6714000000001,-386.0336,175,75
2026-05-09 16:04:41.860,3,1.35,0.47,-0.06,-445.0946,-349.3614,-688.2336,175,75
2026-05-09 16:04:41.860,3,3.59,5.19,-2.05,-200.1546,-197.7814,-178.3536,175,75
2026-05-09 16:04:41.884,3,-0.35,0.99,-0.99,-0.39459999999999873,107.0386,152.5564,175,75
2026-05-09 16:04:41.897,3,0.52,-0.8,1.77,117.34540000000001,410.2686,-73.8436,175,75
2026-05-09 16:04:41.941,3,0.91,-0.33,2.31,69.47540000000001,51.428599999999996,-72.50359999999999,175,75
2026-05-09 16:04:41.951,3,0.22,-0.06,1.73,75.8854,68.2586,-55.973600000000005,175,75
2026-05-09 16:04:41.951,3,0.31,0.11,1.54,82.77539999999999,105.0886,-62.373599999999996,175,75
2026-05-09 16:04:41.963,3,0.72,0.51,0.9,94.3554,83.1986,-47.623599999999996,175,75
2026-05-09 16:04:41.975,3,0.4,0.36,0.94,106.00540000000001,170.14860000000002,-14.3936,175,75
2026-05-09 16:04:41.985,3,0.4,0.24,1.31,114.2954,189.7186,-10.853599999999998,175,75
2026-05-09 16:04:42.009,3,0.26,0.32,1.23,94.90540000000001,73.6886,11.586400000000001,175,75
2026-05-09 16:04:42.009,3,0.02,0.34,0.98,76.24539999999999,60.3286,33.5964,175,75
2026-05-09 16:04:42.041,3,-0.49,0.17,0.85,42.7154,54.2386,62.49640000000001,175,75
2026-05-09 16:04:42.065,3,-0.69,-0.23,0.88,26.7354,54.538599999999995,66.88640000000001,175,75
2026-05-09 16:04:42.075,3,-0.68,-0.25,0.89,22.5854,46.428599999999996,57.376400000000004,175,75
2026-05-09 16:04:42.080,3,-0.72,-0.07,0.86,23.0154,31.858600000000003,48.296400000000006,175,75
2026-05-09 16:04:42.103,3,-0.62,0.06,0.73,-1.3745999999999992,-7.291399999999999,60.186400000000006,175,75
2026-05-09 16:04:42.115,3,-0.7,-0.09,0.67,-20.8246,-18.511400000000002,54.57640000000001,175,75
2026-05-09 16:04:42.136,3,-0.69,-0.19,0.58,-34.4846,-20.641399999999997,27.256400000000003,175,75
2026-05-09 16:04:42.154,3,-0.46,-0.04,0.62,-50.3946,9.9686,-33.6536,175,75
2026-05-09 16:04:42.159,3,-0.31,0.08,0.74,-57.5346,14.2386,-47.8036,175,75
2026-05-09 16:04:42.219,3,0.08,0.27,0.81,-89.0546,84.7186,-121.4636,175,75
2026-05-09 16:04:42.232,3,0.19,0.29,0.95,-96.49459999999999,88.62859999999999,-136.4036,175,75
2026-05-09 16:04:42.243,3,0.22,0.34,1.03,-105.27459999999999,89.2386,-142.74360000000001,175,75
2026-05-09 16:04:42.267,3,0.24,0.49,1.2,-127.47460000000001,87.4686,-137.9236,175,75
2026-05-09 16:04:42.278,3,0.11,0.64,1.23,-133.2046,79.8486,-128.9036,175,75
2026-05-09 16:04:42.288,3,-0.01,0.79,1.33,-139.5446,55.8786,-119.02359999999999,175,75
2026-05-09 16:04:42.308,3,-1.32,1.56,2.4,-123.87459999999999,104.8486,-12.133599999999998,175,75
2026-05-09 16:04:42.325,3,-1.26,1.42,3.39,-63.2046,126.0686,1.0364000000000004,175,75
2026-05-09 16:04:42.338,3,0.26,-0.7,5.3,61.0054,-26.071399999999997,20.426400000000005,175,75
2026-05-09 16:04:42.350,3,4.75,-1.15,1.51,-73.2646,-412.71139999999997,-91.03359999999999,175,75
2026-05-09 16:04:42.360,3,0.52,0.18,-0.82,-128.9946,-433.7514,119.93639999999999,175,75
2026-05-09 16:04:42.372,3,-1.88,-0.61,-1.44,-116.9246,47.4086,142.9264,175,75
2026-05-09 16:04:42.423,3,0.41,-0.33,1.02,37.0454,188.6886,-28.473599999999998,175,75
2026-05-09 16:04:42.435,3,-0.03,-0.65,1.25,8.4454,105.3286,13.536400000000004,175,75
2026-05-09 16:04:42.446,3,0.09,-0.92,1.42,7.1654,43.2586,-5.063599999999997,175,75
2026-05-09 16:04:42.451,3,0.48,-0.84,1.25,-10.5246,-30.821399999999997,0.05640000000000356,175,75
2026-05-09 16:04:42.464,3,0.27,-0.85,0.9,-17.654600000000002,-64.5414,25.606400000000004,175,75
2026-05-09 16:04:42.474,3,0.14,-1.13,0.7,-5.2745999999999995,-39.4214,13.356400000000004,175,75
2026-05-09 16:04:42.493,3,0.21,-1.04,0.45,14.3554,-51.5614,25.246400000000005,175,75
2026-05-09 16:04:42.504,3,0.0,-1.26,0.46,22.4054,-29.361400000000003,25.186400000000003,175,75
2026-05-09 16:04:42.549,3,0.64,-0.86,0.76,10.9454,-71.0114,32.686400000000006,175,75
2026-05-09 16:04:42.559,3,0.79,-0.9,0.7,12.525400000000001,-76.1914,39.1464,175,75
2026-05-09 16:04:42.564,3,1.04,-0.84,0.57,21.3054,-80.7614,44.026399999999995,175,75
2026-05-09 16:04:42.621,3,0.5,-0.35,1.28,90.8854,79.4186,71.52640000000001,175,75
2026-05-09 16:04:42.631,3,0.33,-0.43,1.37,111.00540000000001,130.63860000000003,48.35640000000001,175,75
2026-05-09 16:04:42.638,3,0.07,-0.19,1.55,131.6154,162.64860000000002,39.99640000000001,175,75
2026-05-09 16:04:42.667,3,0.1,0.03,1.47,204.7854,154.29860000000002,7.136400000000002,175,75
2026-05-09 16:04:42.687,3,-0.29,0.62,1.27,237.40540000000001,179.9086,7.806400000000004,175,75
2026-05-09 16:04:42.708,3,-0.57,0.48,2.41,286.7954,228.5686,101.7064,175,75
2026-05-09 16:04:42.720,3,-0.07,0.21,2.6,234.6054,65.0286,80.1864,175,75
2026-05-09 16:04:42.738,3,0.19,1.0,1.61,222.8954,-13.2614,82.74640000000001,175,75
2026-05-09 16:04:42.796,3,0.29,0.89,0.54,193.1954,-108.0214,32.5564,175,75
2026-05-09 16:04:42.808,3,0.29,1.0,0.56,172.6454,-91.4314,22.866400000000002,175,75
2026-05-09 16:04:42.808,3,0.25,0.97,0.63,156.7954,-94.9714,8.906400000000001,175,75
2026-05-09 16:04:42.823,3,0.26,1.01,0.69,137.52540000000002,-107.84140000000001,-18.533599999999996,175,75
2026-05-09 16:04:42.834,3,0.16,1.19,0.6,117.8954,-116.37140000000001,-27.5036,175,75
2026-05-09 16:04:42.865,3,-0.13,1.24,0.07,47.3454,-146.5014,-54.333600000000004,175,75
2026-05-09 16:04:42.886,3,0.18,1.45,-0.83,-80.7046,-148.9314,-72.1936,175,75
2026-05-09 16:04:42.898,3,0.57,1.18,-1.08,-144.6046,-119.6714,-67.6836,175,75
2026-05-09 16:04:42.898,3,0.79,0.83,-1.04,-202.6546,-93.5714,-75.4836,175,75
2026-05-09 16:04:42.911,3,0.75,0.77,-0.64,-249.5446,-80.2814,-88.2336,175,75
2026-05-09 16:04:42.951,3,5.22,-11.47,5.26,86.12540000000001,-94.12140000000001,-205.5436,175,75
2026-05-09 16:04:42.999,3,0.55,-3.15,0.91,-54.1746,128.1386,-23.7836,175,75
2026-05-09 16:04:43.032,3,1.15,-1.08,1.69,-1.5545999999999998,237.0986,-65.2436,175,75
2026-05-09 16:04:43.034,3,0.64,-0.63,1.99,12.1054,225.32860000000002,-37.563599999999994,175,75
2026-05-09 16:04:43.051,3,0.54,-0.52,2.29,14.965399999999999,231.73860000000002,-25.423599999999997,175,75
2026-05-09 16:04:43.106,3,0.67,0.54,1.13,98.1954,95.0886,-38.593599999999995,175,75
2026-05-09 16:04:43.137,3,1.27,0.34,0.97,97.77539999999999,136.3086,-92.86359999999999,175,75
2026-05-09 16:04:43.155,3,0.44,0.87,1.22,111.49539999999999,192.2886,-70.0636,175,75
2026-05-09 16:04:43.170,3,0.07,0.68,2.87,171.7354,152.0386,2.016400000000001,175,75
2026-05-09 16:04:43.177,3,0.73,0.1,3.26,157.6454,-82.6514,-24.263599999999997,175,75
2026-05-09 16:04:43.204,3,-0.04,-0.04,1.36,81.7954,-188.08139999999997,17.436400000000003,175,75
2026-05-09 16:04:43.223,3,-0.2,-0.26,1.2,61.855399999999996,-127.11139999999999,-30.733599999999996,175,75
2026-05-09 16:04:43.256,3,-0.75,0.08,0.82,26.1854,-109.3614,-48.1136,175,75
2026-05-09 16:04:43.280,3,-0.71,0.24,1.31,22.9554,-42.4714,-57.92359999999999,175,75
2026-05-09 16:04:43.290,3,-0.77,0.21,1.44,14.965399999999999,-49.9714,-67.4436,175,75
2026-05-09 16:04:43.315,3,-0.82,0.3,0.9,4.965400000000001,-36.7414,-85.00359999999999,175,75
2026-05-09 16:04:43.366,3,-0.61,0.74,0.4,-11.314599999999999,114.2386,-91.64359999999999,175,75
2026-05-09 16:04:43.439,3,-1.07,1.33,1.76,-70.7046,165.9386,-95.61359999999999,175,75
2026-05-09 16:04:43.450,3,-1.85,0.36,2.6,-82.47460000000001,-80.2214,33.5964,175,75
2026-05-09 16:04:43.465,3,1.32,-2.55,-0.68,-180.8846,-117.9614,2.3764000000000003,175,75
2026-05-09 16:04:43.513,3,1.1,-0.83,0.12,-87.9546,-7.711399999999999,27.076400000000003,175,75
2026-05-09 16:04:43.535,3,-0.7,-0.27,-1.31,-46.6146,100.87859999999999,87.0764,175,75
2026-05-09 16:04:43.546,3,0.44,-0.67,0.4,45.2754,203.3186,38.416399999999996,175,75
2026-05-09 16:04:43.591,3,-0.59,-1.57,0.86,-14.544599999999999,-18.4514,68.16640000000001,175,75
2026-05-09 16:04:43.591,3,-0.23,-1.12,0.86,8.0154,30.5186,22.496400000000005,175,75
2026-05-09 16:04:43.624,3,0.33,-1.35,0.86,-19.174599999999998,-80.1514,67.0164,175,75
2026-05-09 16:04:43.695,3,0.66,-0.31,1.03,72.1054,104.90859999999999,76.21640000000001,175,75
2026-05-09 16:04:43.705,3,0.42,-0.24,0.82,108.0754,210.63860000000003,39.6964,175,75
2026-05-09 16:04:43.777,3,-0.17,-0.15,3.75,314.05539999999996,261.2486,130.3664,175,75
2026-05-09 16:04:43.794,3,1.24,-0.3,4.58,294.4154,34.538599999999995,3.7764000000000024,175,75
2026-05-09 16:04:43.806,3,1.29,0.75,3.14,252.95540000000003,-255.52139999999997,71.4064,175,75
2026-05-09 16:04:43.818,3,0.64,0.29,1.81,208.5054,-295.09139999999996,146.7664,175,75
2026-05-09 16:04:43.829,3,0.24,-0.07,0.84,193.5654,-280.03139999999996,58.2364,175,75
2026-05-09 16:04:43.835,3,0.32,0.22,0.48,229.4154,-164.0014,-32.6836,175,75
2026-05-09 16:04:43.863,3,0.95,0.56,1.35,228.99540000000002,-177.7814,-17.443599999999996,175,75
2026-05-09 16:04:43.876,3,0.51,0.62,1.08,234.3554,-187.29139999999998,-34.5736,175,75
2026-05-09 16:04:43.887,3,0.27,0.76,0.81,232.58540000000002,-153.8114,-51.583600000000004,175,75
2026-05-09 16:04:43.887,3,0.17,0.9,0.61,219.6054,-112.4714,-71.3436,175,75
2026-05-09 16:04:43.901,3,0.05,0.96,0.55,205.5754,-107.0414,-78.0436,175,75
2026-05-09 16:04:43.932,3,-0.12,1.07,0.53,125.6954,-117.9014,-86.7636,175,75
2026-05-09 16:04:43.944,3,-0.31,1.19,0.43,78.99539999999999,-127.65140000000001,-73.9036,175,75
2026-05-09 16:04:43.967,3,-0.66,1.28,0.16,-30.3346,-139.3014,-84.08359999999999,175,75
2026-05-09 16:04:43.967,3,-0.53,1.44,0.04,-71.8046,-141.2514,-116.0936,175,75
2026-05-09 16:04:43.980,3,-0.3,1.57,-0.19,-117.1046,-136.7414,-118.11359999999999,175,75
2026-05-09 16:04:44.007,3,-0.27,0.7,-1.23,-237.22459999999998,-54.001400000000004,-89.8136,175,75
2026-05-09 16:04:44.013,3,-4.7,2.73,1.43,-157.1046,267.7686,-15.063599999999997,175,75
2026-05-09 16:04:44.035,3,1.36,-2.91,3.94,224.3554,606.5486,-44.0236,175,75
2026-05-09 16:04:44.046,3,2.24,-7.47,3.12,-150.09459999999999,-516.7414,-158.1736,175,75
2026-05-09 16:04:44.057,3,-1.42,-4.41,1.45,-423.38460000000003,-124.73140000000001,179.3264,175,75
2026-05-09 16:04:44.071,3,-0.92,-2.84,-0.88,-241.7446,-177.04139999999998,44.266400000000004,175,75
2026-05-09 16:04:44.083,3,-1.78,-1.86,-0.76,-130.09459999999999,147.95860000000002,-43.1136,175,75
2026-05-09 16:04:44.104,3,1.75,-1.92,2.9,-64.72460000000001,240.45860000000002,-87.3136,175,75
2026-05-09 16:04:44.115,3,1.34,-1.15,3.35,-144.8546,47.6486,3.416400000000003,175,75
2026-05-09 16:04:44.130,3,1.08,-0.95,2.21,-160.5246,-23.931399999999996,9.756400000000003,175,75
2026-05-09 16:04:44.134,3,0.79,-0.45,1.8,-136.6746,35.2086,-26.0336,175,75
2026-05-09 16:04:44.164,3,1.66,0.02,1.84,-108.99459999999999,62.5286,-5.243599999999997,175,75
2026-05-09 16:04:44.180,3,0.98,0.32,1.55,-15.7646,100.3286,-44.873599999999996,175,75
2026-05-09 16:04:44.191,3,1.06,0.7,1.89,27.2254,151.91860000000003,-59.14359999999999,175,75
2026-05-09 16:04:44.203,3,1.26,0.67,2.2,57.715399999999995,170.57860000000002,-59.6336,175,75
2026-05-09 16:04:44.231,3,0.8,0.9,1.34,72.52539999999999,147.2886,-116.1536,175,75
2026-05-09 16:04:44.258,3,1.43,0.6,3.12,138.3254,156.54860000000002,-99.69359999999999,175,75
2026-05-09 16:04:44.281,3,0.86,0.25,1.65,70.9454,-104.2414,-79.6936,175,75
2026-05-09 16:04:44.293,3,1.07,0.46,1.77,66.00540000000001,-120.9514,-94.6336,175,75
2026-05-09 16:04:44.315,3,0.48,0.18,1.7,59.605399999999996,-166.2514,-58.0436,175,75
2026-05-09 16:04:44.326,3,-0.1,-0.44,1.44,52.0454,-160.4614,-58.2936,175,75
2026-05-09 16:04:44.345,3,-0.38,-1.26,1.26,43.2554,-115.0314,-46.4636,175,75
2026-05-09 16:04:44.365,3,-1.58,-1.45,0.53,43.8654,-56.0114,-75.3036,175,75
2026-05-09 16:04:44.375,3,-1.92,-0.87,-0.03,90.75540000000001,27.218600000000002,-164.3936,175,75
2026-05-09 16:04:44.390,3,-1.29,-0.4,0.01,152.58540000000002,157.64860000000002,-211.9536,175,75
2026-05-09 16:04:44.401,3,-0.74,-0.17,0.9,162.52540000000002,214.4786,-150.7936,175,75
2026-05-09 16:04:44.412,3,-0.69,-0.64,1.59,96.30539999999999,67.76859999999999,-26.703599999999998,175,75
2026-05-09 16:04:44.424,3,-1.29,-0.66,1.23,61.795399999999994,-18.391399999999997,-25.543599999999998,175,75
2026-05-09 16:04:44.424,3,-1.66,-0.42,0.59,50.5754,-13.391399999999999,-54.6336,175,75
2026-05-09 16:04:44.435,3,-1.64,-0.0,0.15,63.685399999999994,61.428599999999996,-90.30359999999999,175,75
2026-05-09 16:04:44.462,3,-0.55,0.65,0.48,77.77539999999999,179.35860000000002,-36.7636,175,75
2026-05-09 16:04:44.473,3,-0.45,0.66,0.32,58.4454,177.95860000000002,-8.783599999999998,175,75
2026-05-09 16:04:44.484,3,-0.43,0.77,0.05,43.3854,218.98860000000002,-15.003599999999999,175,75
2026-05-09 16:04:44.494,3,0.05,0.95,-0.01,29.665399999999998,280.2086,-31.4636,175,75
2026-05-09 16:04:44.513,3,0.34,1.14,0.49,10.755400000000002,272.52860000000004,-15.543599999999998,175,75
2026-05-09 16:04:44.513,3,0.29,1.12,0.62,-17.5946,221.0686,-23.903599999999997,175,75
2026-05-09 16:04:44.548,3,-0.25,1.41,0.83,-49.7246,141.60860000000002,-36.28359999999999,175,75
2026-05-09 16:04:44.584,3,1.2,0.22,2.39,-97.22460000000001,-190.64139999999998,-20.673599999999997,175,75
2026-05-09 16:04:44.596,3,-0.09,0.59,0.71,-139.0546,-319.1214,54.876400000000004,175,75
2026-05-09 16:04:44.608,3,-0.44,-0.89,-0.94,-206.4946,-134.73139999999998,117.7464,175,75
2026-05-09 16:04:44.619,3,0.82,-2.49,-1.21,-178.81459999999998,62.8886,84.8164,175,75
2026-05-09 16:04:44.619,3,-0.37,-2.73,-0.07,-162.16459999999998,178.86860000000001,84.3264,175,75
2026-05-09 16:04:44.633,3,0.37,-1.19,0.3,-66.6746,269.2986,-124.14359999999999,175,75
2026-05-09 16:04:44.664,3,1.39,-0.06,0.04,-56.6146,189.41860000000003,75.3664,175,75
2026-05-09 16:04:44.672,3,-0.53,-0.89,-0.45,-66.5546,100.5786,127.19640000000001,175,75
2026-05-09 16:04:44.695,3,-1.23,-1.39,-0.61,-44.6646,142.4686,110.4264,175,75
2026-05-09 16:04:44.705,3,-1.19,-1.82,0.46,5.885400000000001,153.13860000000003,66.3464,175,75
2026-05-09 16:04:44.706,3,-0.7,-2.12,1.33,-1.3145999999999995,82.2786,22.496400000000005,175,75
2026-05-09 16:04:44.727,3,0.4,-1.15,1.15,-29.5446,-127.17139999999999,26.5864,175,75
2026-05-09 16:04:44.727,3,-0.02,-1.23,0.56,-37.2846,-127.2314,70.97640000000001,175,75
2026-05-09 16:04:44.738,3,-0.24,-1.57,0.77,-13.2046,-52.6514,63.47640000000001,175,75
2026-05-09 16:04:44.760,3,1.31,-1.48,1.47,-25.0346,-67.1114,29.2064,175,75
2026-05-09 16:04:44.772,3,1.56,-1.2,1.33,-28.1446,-67.2914,49.63640000000001,175,75
2026-05-09 16:04:44.844,3,-0.45,0.12,1.46,86.8554,171.1286,86.58640000000001,175,75
2026-05-09 16:04:44.881,3,-1.22,1.19,1.99,194.5454,234.35860000000002,94.8164,175,75
2026-05-09 16:04:44.906,3,0.37,0.08,3.11,246.9154,150.0286,95.97640000000001,175,75
2026-05-09 16:04:44.919,3,0.51,-0.01,2.95,199.3554,7.8286,77.9864,175,75
2026-05-09 16:04:44.949,3,0.68,0.55,2.15,180.6954,-65.6414,77.0764,175,75
2026-05-09 16:04:44.960,3,0.74,0.63,1.77,193.8654,-83.8114,63.2364,175,75
2026-05-09 16:04:44.960,3,0.87,0.61,1.64,192.6454,-87.1114,60.4864,175,75
2026-05-09 16:04:44.989,3,0.79,0.54,1.46,193.3854,-106.3114,37.07640000000001,175,75
2026-05-09 16:04:45.001,3,0.82,0.6,1.44,200.8854,-108.5714,8.966400000000004,175,75
2026-05-09 16:04:45.012,3,0.94,0.63,1.47,202.8954,-118.5114,-3.043599999999998,175,75
2026-05-09 16:04:45.019,3,0.98,0.63,1.45,203.99540000000002,-139.54139999999998,-15.363599999999998,175,75
2026-05-09 16:04:45.029,3,0.89,0.68,1.33,202.8954,-156.98139999999998,-27.623599999999996,175,75
2026-05-09 16:04:45.035,3,0.81,0.72,1.13,200.5154,-162.23139999999998,-39.6336,175,75
2026-05-09 16:04:45.052,3,0.66,0.81,0.9,193.3254,-163.08139999999997,-57.313599999999994,175,75
2026-05-09 16:04:45.064,3,0.38,0.88,0.64,178.3254,-137.17139999999998,-68.9636,175,75
2026-05-09 16:04:45.095,3,-0.25,0.89,0.53,144.8454,-83.1414,-103.0436,175,75
2026-05-09 16:04:45.108,3,-0.35,0.89,0.54,117.71539999999999,-87.4714,-136.4036,175,75
2026-05-09 16:04:45.108,3,-0.27,0.95,0.5,73.99539999999999,-116.37140000000001,-137.1936,175,75
2026-05-09 16:04:45.118,3,-0.64,1.15,0.39,31.1854,-114.48140000000001,-120.00359999999999,175,75
2026-05-09 16:04:45.130,3,-1.32,1.57,0.0,-71.1346,-112.1114,-106.28359999999999,175,75
2026-05-09 16:04:45.142,3,-0.72,1.33,-0.11,-108.99459999999999,-103.3214,-111.89359999999999,175,75
2026-05-09 16:04:45.165,3,-0.24,0.8,0.36,-198.9346,-108.3214,-66.03359999999999,175,75
2026-05-09 16:04:45.176,3,-3.27,2.39,1.87,-173.6346,-18.8114,-4.943599999999998,175,75
2026-05-09 16:04:45.187,3,-9.08,4.45,5.22,-51.7446,215.6986,385.4864,175,75
2026-05-09 16:04:45.187,3,-2.68,-0.72,5.03,148.1954,515.3285999999999,258.9064,175,75
2026-05-09 16:04:45.199,3,2.8,-8.44,3.51,-52.1046,-284.7314,-131.7636,175,75
2026-05-09 16:04:45.199,3,1.21,-5.21,0.76,-483.93460000000005,-817.5314000000001,-119.02359999999999,175,75
2026-05-09 16:04:45.211,3,-1.91,-0.43,-0.09,-351.8046,30.3286,89.3264,175,75
2026-05-09 16:04:45.222,3,3.07,-5.56,-1.15,-124.1746,88.62859999999999,160.4864,175,75
2026-05-09 16:04:45.229,3,-1.1,-2.46,0.48,-85.27459999999999,49.108599999999996,87.55640000000001,175,75
2026-05-09 16:04:45.245,3,0.05,-2.49,1.14,-61.1346,272.52860000000004,-14.203599999999998,175,75
2026-05-09 16:04:45.260,3,2.12,-1.83,2.09,-67.6546,198.6886,-36.03359999999999,175,75
2026-05-09 16:04:45.271,3,1.36,-0.9,2.68,-86.43459999999999,127.40859999999999,53.2364,175,75
2026-05-09 16:04:45.271,3,1.1,-0.74,2.45,-110.52459999999999,76.4286,73.10640000000001,175,75
2026-05-09 16:04:45.281,3,0.85,-0.35,2.1,-104.91460000000001,49.4786,40.7364,175,75
2026-05-09 16:04:45.320,3,1.05,-0.04,1.3,-96.1346,32.6486,65.5464,175,75
2026-05-09 16:04:45.334,3,1.07,0.26,1.68,-53.0846,59.968599999999995,17.496400000000005,175,75
2026-05-09 16:04:45.345,3,0.98,0.54,2.15,15.275400000000001,93.3186,16.1564,175,75
2026-05-09 16:04:45.356,3,1.0,0.43,2.2,45.4554,83.8086,12.1964,175,75
2026-05-09 16:04:45.368,3,1.34,0.44,1.77,61.795399999999994,37.2786,-38.4136,175,75
2026-05-09 16:04:45.378,3,1.26,0.7,1.3,51.7954,31.5486,-52.0136,175,75
2026-05-09 16:04:45.398,3,1.53,0.57,2.68,102.52539999999999,75.3886,-51.703599999999994,175,75
2026-05-09 16:04:45.422,3,1.54,0.43,1.95,63.935399999999994,-169.73139999999998,-53.3536,175,75
2026-05-09 16:04:45.422,3,1.13,0.04,1.56,51.0054,-141.7414,-37.7436,175,75
2026-05-09 16:04:45.445,3,0.91,-0.25,1.56,46.1854,-132.29139999999998,-74.6936,175,75
2026-05-09 16:04:45.457,3,0.61,-0.28,1.42,49.1754,-127.5314,-96.7036,175,75
2026-05-09 16:04:45.468,3,0.31,-0.72,1.24,48.0754,-106.1314,-97.25359999999999,175,75
2026-05-09 16:04:45.481,3,-0.18,-1.07,1.08,56.0054,-91.37140000000001,-110.8536,175,75
2026-05-09 16:04:45.491,3,-0.74,-0.97,0.78,55.6954,-69.8514,-117.7436,175,75
2026-05-09 16:04:45.516,3,-1.44,-0.13,0.16,88.3254,104.1786,-198.7236,175,75
2026-05-09 16:04:45.528,3,-1.22,0.09,0.51,101.7954,167.4086,-204.2636,175,75
2026-05-09 16:04:45.528,3,-1.14,0.1,1.08,102.1054,178.4986,-184.2636,175,75
2026-05-09 16:04:45.539,3,-1.14,-0.08,1.31,79.6654,139.04860000000002,-148.4736,175,75
2026-05-09 16:04:45.550,3,-1.4,-0.06,1.12,53.8054,92.4686,-142.8636,175,75
2026-05-09 16:04:45.574,3,-1.44,0.29,0.75,37.8954,89.1086,-162.5036,175,75
2026-05-09 16:04:45.588,3,-0.93,0.74,0.71,-0.5245999999999995,143.92860000000002,-114.2636,175,75
2026-05-09 16:04:45.599,3,-0.9,0.71,0.69,-19.3646,146.79860000000002,-90.5436,175,75
2026-05-09 16:04:45.610,3,-0.96,0.78,0.35,-30.0346,163.6886,-76.03359999999999,175,75
2026-05-09 16:04:45.620,3,-0.89,0.89,0.03,-33.4446,205.6986,-70.9136,175,75
2026-05-09 16:04:45.630,3,-0.65,1.0,-0.18,-32.5346,289.0486,-60.123599999999996,175,75
2026-05-09 16:04:45.643,3,-0.55,0.96,0.16,-31.7446,322.09860000000003,-48.9636,175,75
2026-05-09 16:04:45.655,3,-0.6,0.81,0.8,-32.0446,318.4386,-46.703599999999994,175,75
2026-05-09 16:04:45.655,3,-1.25,1.1,1.62,-19.424599999999998,284.71860000000004,-31.3436,175,75
2026-05-09 16:04:45.665,3,-0.91,0.61,2.34,-20.8246,202.1586,-19.7536,175,75
2026-05-09 16:04:45.721,3,0.03,0.42,1.88,-190.2146,-212.4114,126.5864,175,75
2026-05-09 16:04:45.732,3,0.81,-0.68,1.14,-173.50459999999998,-52.3514,31.646400000000003,175,75
2026-05-09 16:04:45.754,3,2.3,-0.9,0.82,-133.2646,-21.3114,42.2564,175,75
2026-05-09 16:04:45.789,3,-1.85,-0.78,-2.02,-175.3946,13.2586,175.1864,175,75
2026-05-09 16:04:45.810,3,-1.89,-0.6,-2.5,-119.8546,255.8186,95.30640000000001,175,75
2026-05-09 16:04:45.824,3,-0.15,-1.84,1.25,98.0154,344.2386,75.05640000000001,175,75
2026-05-09 16:04:45.835,3,0.77,-1.36,2.51,-28.264599999999998,-71.37140000000001,73.10640000000001,175,75
2026-05-09 16:04:45.857,3,-0.97,-1.44,0.01,-35.0346,-113.3914,133.4764,175,75
2026-05-09 16:04:45.869,3,0.36,-1.93,1.29,26.495400000000004,20.8786,5.916400000000003,175,75
2026-05-09 16:04:45.878,3,1.73,-1.28,1.39,-12.3546,-90.1514,92.9864,175,75
2026-05-09 16:04:45.889,3,1.5,-1.29,1.04,-12.1046,-86.0114,79.2664,175,75
2026-05-09 16:04:45.900,3,1.79,-1.17,0.88,5.1454,-28.2014,55.7364,175,75
2026-05-09 16:04:45.911,3,1.64,-0.38,1.26,51.4354,90.51859999999999,65.1264,175,75
2026-05-09 16:04:45.936,3,0.67,-0.52,0.56,115.1454,249.5386,47.55640000000001,175,75
2026-05-09 16:04:45.947,3,0.15,-0.08,0.79,172.8954,337.7686,6.096400000000003,175,75
2026-05-09 16:04:45.965,3,-0.1,0.11,1.32,244.1754,455.6386,-6.093599999999999,175,75
2026-05-09 16:04:45.977,3,0.11,0.23,0.87,285.0854,424.90860000000004,-38.843599999999995,175,75
2026-05-09 16:04:45.992,3,-2.12,1.37,1.47,332.4654,486.6786,47.80640000000001,175,75
2026-05-09 16:04:46.003,3,-1.69,0.83,2.37,398.0154,639.8485999999999,79.69640000000001,175,75
2026-05-09 16:04:46.017,3,0.02,0.1,4.07,418.56539999999995,337.21860000000004,41.9564,175,75
2026-05-09 16:04:46.028,3,0.47,0.2,4.17,324.9654,123.1986,61.0364,175,75
2026-05-09 16:04:46.044,3,0.3,0.42,2.37,258.68539999999996,-196.8014,110.97640000000001,175,75
2026-05-09 16:04:46.055,3,0.53,0.33,1.61,259.9654,-248.20139999999998,75.97640000000001,175,75
2026-05-09 16:04:46.076,3,0.68,0.43,0.93,280.8254,-185.4014,15.1264,175,75
2026-05-09 16:04:46.083,3,0.92,0.51,1.04,291.12539999999996,-180.0314,-7.443599999999998,175,75
2026-05-09 16:04:46.106,3,1.13,0.55,1.03,292.1654,-234.79139999999998,-37.313599999999994,175,75
2026-05-09 16:04:46.118,3,1.09,0.54,0.77,291.36539999999997,-251.07139999999998,-69.8736,175,75
2026-05-09 16:04:46.118,3,0.97,0.65,0.58,285.5154,-230.89139999999998,-92.5636,175,75
2026-05-09 16:04:46.134,3,0.95,0.86,0.31,276.9154,-213.57139999999998,-103.11359999999999,175,75
2026-05-09 16:04:46.149,3,0.12,1.14,-0.06,240.6354,-178.9314,-85.4836,175,75
2026-05-09 16:04:46.171,3,-0.36,0.97,0.52,168.3254,-63.45140000000001,-118.47359999999999,175,75
2026-05-09 16:04:46.184,3,0.14,0.65,0.81,106.12540000000001,-172.4114,-136.5236,175,75
2026-05-09 16:04:46.216,3,-0.61,0.18,0.64,-33.2046,-204.36139999999997,-114.2636,175,75
2026-05-09 16:04:46.228,3,-0.64,0.15,0.75,-62.6546,-189.9114,-146.8936,175,75
2026-05-09 16:04:46.242,3,-0.74,1.27,-0.1,-164.8546,-77.1714,-106.03359999999999,175,75
2026-05-09 16:04:46.248,3,-0.93,1.42,-0.45,-200.8246,1.2486000000000002,-85.4836,175,75
2026-05-09 16:04:46.262,3,-1.84,1.8,-0.35,-221.25459999999998,155.57860000000002,-61.03359999999999,175,75
2026-05-09 16:04:46.275,3,-6.0,3.14,2.58,-132.5346,303.8086,146.09640000000002,175,75
2026-05-09 16:04:46.286,3,-5.28,2.02,6.31,286.7954,1127.3486,204.5164,175,75
2026-05-09 16:04:46.315,3,-1.49,-3.06,3.41,-323.63460000000003,-117.1114,42.9264,175,75
2026-05-09 16:04:46.328,3,1.39,-2.89,-0.4,-400.4546,-453.2014,95.85640000000001,175,75
2026-05-09 16:04:46.341,3,-2.59,-0.56,-1.14,-341.49460000000005,-130.64139999999998,114.87640000000002,175,75
2026-05-09 16:04:46.355,3,0.1,-1.52,-1.41,-167.3546,310.0886,82.49640000000001,175,75
2026-05-09 16:04:46.360,3,0.27,-2.3,1.65,-85.03460000000001,290.9386,116.2164,175,75
2026-05-09 16:04:46.397,3,0.66,-1.1,2.19,-192.28459999999998,-67.4714,42.5564,175,75
2026-05-09 16:04:46.412,3,1.47,-0.78,1.77,-178.81459999999998,-40.7014,66.7664,175,75
2026-05-09 16:04:46.440,3,0.91,-0.14,1.04,-152.22459999999998,-23.081400000000002,72.80640000000001,175,75
2026-05-09 16:04:46.440,3,0.87,0.43,1.49,-114.3646,91.4886,44.0864,175,75
2026-05-09 16:04:46.452,3,0.92,0.78,1.86,-62.7746,94.0486,9.5164,175,75
2026-05-09 16:04:46.461,3,0.98,1.0,1.98,-14.3046,68.1986,-6.953599999999998,175,75
2026-05-09 16:04:46.474,3,0.66,1.05,2.08,24.785400000000003,97.2786,15.6664,175,75
2026-05-09 16:04:46.505,3,1.16,0.39,1.76,62.045399999999994,81.6786,-42.623599999999996,175,75
2026-05-09 16:04:46.527,3,1.18,0.63,3.0,160.3954,130.26860000000002,-27.623599999999996,175,75
2026-05-09 16:04:46.541,3,1.59,0.35,2.84,155.3954,-78.87140000000001,-47.2536,175,75
2026-05-09 16:04:46.590,3,1.01,-0.03,1.96,89.72540000000001,-163.32139999999998,-49.943599999999996,175,75
2026-05-09 16:04:46.614,3,0.39,-0.15,1.38,88.68539999999999,-171.07139999999998,-63.11359999999999,175,75
2026-05-09 16:04:46.659,3,-1.03,-0.94,0.67,39.3554,-63.5714,-104.8736,175,75
2026-05-09 16:04:46.683,3,-0.91,-0.0,0.77,100.6354,161.42860000000002,-179.5736,175,75
2026-05-09 16:04:46.683,3,-0.72,-0.08,1.23,103.3254,168.3186,-151.7036,175,75
2026-05-09 16:04:46.705,3,-1.28,0.44,0.64,56.6754,107.6486,-156.2236,175,75
2026-05-09 16:04:46.737,3,-0.72,1.2,0.75,7.645400000000002,99.65859999999999,-80.8536,175,75
2026-05-09 16:04:46.748,3,-0.66,1.14,0.25,-24.4846,105.1486,-52.86359999999999,175,75
2026-05-09 16:04:46.760,3,-0.09,0.85,0.03,-51.1946,185.51860000000002,-48.233599999999996,175,75
2026-05-09 16:04:46.821,3,0.32,0.2,1.96,-30.764599999999998,147.70860000000002,-39.453599999999994,175,75
2026-05-09 16:04:46.834,3,-0.22,-1.06,0.64,-140.5846,-76.6814,72.6864,175,75
2026-05-09 16:04:46.845,3,0.26,-1.7,-0.61,-181.25459999999998,-106.98140000000001,69.02640000000001,175,75
2026-05-09 16:04:46.866,3,-0.94,-1.48,-0.87,-207.16459999999998,14.108600000000001,71.58640000000001,175,75
2026-05-09 16:04:46.886,3,-1.08,-1.15,-0.28,-156.8646,210.8786,30.856400000000004,175,75
2026-05-09 16:04:46.896,3,0.85,-0.78,0.18,-79.8546,207.76860000000002,-83.5936,175,75
2026-05-09 16:04:46.896,3,1.45,-0.13,0.61,-61.7446,194.23860000000002,-12.863599999999998,175,75
2026-05-09 16:04:46.907,3,0.67,-0.48,-0.43,-57.1646,53.3786,74.8764,175,75
2026-05-09 16:04:46.918,3,-0.83,-0.85,-0.77,-25.764599999999998,134.9686,100.05640000000001,175,75
2026-05-09 16:04:46.932,3,-0.73,-1.71,0.27,20.9454,218.4986,80.7964,175,75
2026-05-09 16:04:46.944,3,-0.3,-2.29,1.61,42.6454,175.26860000000002,42.8664,175,75
2026-05-09 16:04:46.944,3,-0.11,-2.13,2.15,2.7154000000000007,52.7686,17.076400000000003,175,75
2026-05-09 16:04:46.954,3,0.32,-1.24,1.86,-17.4746,-56.8014,12.076400000000003,175,75
2026-05-09 16:04:46.965,3,0.16,-0.93,0.91,-40.2746,-107.1114,73.5364,175,75
2026-05-09 16:04:46.976,3,-0.14,-1.3,0.81,-18.3246,-54.4214,77.55640000000001,175,75
2026-05-09 16:04:46.987,3,0.31,-1.47,1.12,-9.2446,-53.0814,49.4564,175,75
2026-05-09 16:04:46.987,3,0.93,-1.31,1.19,-5.824599999999999,-56.431400000000004,61.9564,175,75
2026-05-09 16:04:46.997,3,1.08,-1.27,1.12,0.14540000000000042,-57.6514,74.9364,175,75
2026-05-09 16:04:47.026,3,1.38,-1.12,0.71,11.6754,-37.781400000000005,80.24640000000001,175,75
2026-05-09 16:04:47.038,3,1.47,-0.86,0.93,42.1054,14.4186,74.63640000000001,175,75
2026-05-09 16:04:47.064,3,0.8,-0.53,1.15,88.68539999999999,107.5886,90.3664,175,75
2026-05-09 16:04:47.075,3,0.66,-0.68,1.18,118.0154,176.48860000000002,73.41640000000001,175,75
2026-05-09 16:04:47.099,3,-0.19,0.0,1.46,186.0654,289.78860000000003,30.9764,175,75
2026-05-09 16:04:47.109,3,-0.04,-0.03,1.78,229.1154,316.3686,19.6964,175,75
2026-05-09 16:04:47.134,3,0.39,0.01,1.37,254.1754,271.6086,-26.403599999999997,175,75
2026-05-09 16:04:47.134,3,-0.6,0.98,1.89,261.18539999999996,303.7486,-25.123599999999996,175,75
2026-05-09 16:04:47.146,3,-0.91,1.36,2.51,243.80540000000002,321.9186,31.1564,175,75
2026-05-09 16:04:47.146,3,-0.32,0.89,3.25,246.3654,282.5886,52.8664,175,75
2026-05-09 16:04:47.158,3,-0.1,0.66,3.41,179.90540000000001,55.8786,82.8664,175,75
2026-05-09 16:04:47.185,3,1.11,0.88,3.38,209.1154,-211.7414,24.386400000000005,175,75
2026-05-09 16:04:47.198,3,0.72,0.64,2.25,161.55540000000002,-369.4214,100.7964,175,75
2026-05-09 16:04:47.202,3,-0.16,0.25,0.74,120.5754,-401.1914,28.8464,175,75
2026-05-09 16:04:47.232,3,0.8,0.76,0.04,146.0654,-166.8014,-80.61359999999999,175,75
2026-05-09 16:04:47.245,3,0.98,0.71,0.39,146.0054,-160.4014,-80.36359999999999,175,75
2026-05-09 16:04:47.258,3,0.56,0.96,0.14,164.6654,-141.4314,-86.7636,175,75
2026-05-09 16:04:47.269,3,0.02,1.07,0.27,165.5754,-43.141400000000004,-81.5836,175,75
2026-05-09 16:04:47.280,3,-0.06,0.94,0.77,145.02540000000002,19.418599999999998,-109.39359999999999,175,75
2026-05-09 16:04:47.292,3,0.01,0.99,1.23,114.78540000000001,-35.641400000000004,-152.37359999999998,175,75
2026-05-09 16:04:47.304,3,0.14,1.09,1.42,61.435399999999994,-148.26139999999998,-140.8536,175,75
2026-05-09 16:04:47.341,3,-0.94,1.01,-0.02,-84.72460000000001,-158.51139999999998,-161.5236,175,75
2026-05-09 16:04:47.358,3,-0.61,1.26,-0.21,-99.5446,-109.8514,-163.5336,175,75
2026-05-09 16:04:47.358,3,-0.3,1.39,0.03,-117.8946,4.788600000000001,-121.3436,175,75
2026-05-09 16:04:47.370,3,-0.39,1.22,0.51,-135.2746,34.0486,-89.75359999999999,175,75
2026-05-09 16:04:47.382,3,-0.8,0.99,1.13,-156.06459999999998,-3.3213999999999997,-97.6236,175,75
2026-05-09 16:04:47.395,3,-2.95,2.41,2.15,-120.15459999999999,43.1386,-53.6536,175,75
2026-05-09 16:04:47.406,3,-7.01,3.56,4.39,-48.6946,168.6286,160.6064,175,75
2026-05-09 16:04:47.416,3,-6.2,2.59,6.27,185.02540000000002,577.2786,314.8164,175,75
2026-05-09 16:04:47.427,3,2.78,-8.0,4.09,60.3954,-265.03139999999996,-184.2036,175,75
2026-05-09 16:04:47.439,3,0.78,-2.89,0.22,-430.3346,-427.53139999999996,-45.123599999999996,175,75
2026-05-09 16:04:47.453,3,-0.15,-0.68,-1.29,-357.0446,-1.3714,98.41640000000001,175,75
2026-05-09 16:04:47.463,3,0.5,-2.33,-1.63,-79.3646,94.7786,139.6364,175,75
2026-05-09 16:04:47.476,3,-0.66,-2.56,-0.32,-43.3846,221.91860000000003,89.02640000000001,175,75
2026-05-09 16:04:47.489,3,-0.23,-1.88,1.24,-23.2646,272.5886,6.826400000000003,175,75
2026-05-09 16:04:47.489,3,0.57,-1.74,2.17,-50.2146,222.2886,-15.003599999999999,175,75
2026-05-09 16:04:47.501,3,1.83,-1.42,2.61,-66.6746,134.17860000000002,12.746400000000005,175,75
2026-05-09 16:04:47.513,3,0.92,-0.89,2.51,-98.0846,59.108599999999996,65.05640000000001,175,75
2026-05-09 16:04:47.520,3,0.86,-0.83,1.94,-94.3046,29.418599999999998,49.1464,175,75
2026-05-09 16:04:47.555,3,1.13,-0.56,1.54,-81.37459999999999,10.938600000000001,49.2064,175,75
2026-05-09 16:04:47.624,3,1.57,0.12,1.56,71.9154,76.4286,-1.0335999999999963,175,75
2026-05-09 16:04:47.624,3,1.02,0.51,1.07,106.55539999999999,119.7186,-21.223599999999998,175,75
2026-05-09 16:04:47.633,3,0.93,0.52,1.15,134.05540000000002,180.0886,-39.3936,175,75
2026-05-09 16:04:47.645,3,1.31,0.41,0.99,135.5754,175.32860000000002,-71.4636,175,75
2026-05-09 16:04:47.677,3,0.06,1.46,2.15,154.2954,205.9386,-25.673599999999997,175,75
2026-05-09 16:04:47.693,3,0.22,0.91,2.63,154.2354,126.9786,-25.423599999999997,175,75
2026-05-09 16:04:47.705,3,0.85,0.44,2.7,122.8954,-62.1714,-42.193599999999996,175,75
2026-05-09 16:04:47.716,3,0.49,0.3,1.61,47.6454,-215.64139999999998,-8.783599999999998,175,75
2026-05-09 16:04:47.716,3,0.02,-0.01,0.89,-19.7246,-197.6514,-24.333599999999997,175,75
2026-05-09 16:04:47.731,3,-0.01,-0.15,0.71,-23.8746,-178.51139999999998,-57.7436,175,75
2026-05-09 16:04:47.741,3,-0.12,-0.38,0.6,-23.5646,-177.11139999999997,-82.3736,175,75
2026-05-09 16:04:47.753,3,-0.32,-0.6,0.35,-40.3946,-157.29139999999998,-84.5736,175,75
2026-05-09 16:04:47.764,3,-0.59,-0.59,0.26,-37.0446,-107.3514,-98.9036,175,75
2026-05-09 16:04:47.777,3,-0.91,-0.48,0.55,-18.6946,-57.9014,-125.4836,175,75
2026-05-09 16:04:47.788,3,-0.92,-0.44,0.89,-11.1946,-24.181399999999996,-145.9136,175,75
2026-05-09 16:04:47.788,3,-0.74,-0.51,0.98,-24.2446,-19.361400000000003,-134.3336,175,75
2026-05-09 16:04:47.799,3,-0.96,-0.53,0.84,-48.2646,-15.951400000000001,-123.5936,175,75
2026-05-09 16:04:47.809,3,-0.97,-0.13,0.78,-69.6046,44.178599999999996,-127.19359999999999,175,75
2026-05-09 16:04:47.832,3,-0.63,0.3,0.63,-92.8346,87.9586,-82.86359999999999,175,75
2026-05-09 16:04:47.845,3,-0.79,0.5,0.51,-102.3546,120.0286,-63.843599999999995,175,75
2026-05-09 16:04:47.859,3,-0.84,0.69,0.51,-107.71459999999999,156.85860000000002,-54.6936,175,75
2026-05-09 16:04:47.872,3,-0.61,0.86,1.06,-107.53460000000001,204.6586,-35.0036,175,75
2026-05-09 16:04:47.883,3,-0.51,0.78,1.4,-97.28460000000001,182.0386,-23.5936,175,75
2026-05-09 16:04:47.893,3,-0.46,0.79,1.49,-75.7646,168.4986,-22.743599999999997,175,75
2026-05-09 16:04:47.920,3,-0.23,0.25,2.37,-5.3346,164.23860000000002,-50.8536,175,75
2026-05-09 16:04:47.936,3,1.58,-0.28,-0.03,-77.28460000000001,-39.6714,102.4364,175,75
2026-05-09 16:04:47.942,3,0.7,-0.08,-0.4,-57.9546,-35.821400000000004,66.88640000000001,175,75
2026-05-09 16:04:47.969,3,1.2,-0.46,0.67,-48.2646,141.79860000000002,69.1464,175,75
2026-05-09 16:04:47.995,3,-0.35,-1.15,0.57,-63.3246,23.3786,119.81640000000002,175,75
2026-05-09 16:04:47.998,3,-1.06,-1.21,-0.03,-56.5546,4.4186,125.60640000000001,175,75
2026-05-09 16:04:48.011,3,-1.2,-1.46,-0.38,-53.0846,-8.0814,108.35640000000001,175,75
2026-05-09 16:04:48.025,3,-0.92,-1.59,-0.07,-21.9846,65.0286,35.0564,175,75
2026-05-09 16:04:48.038,3,0.97,-1.24,1.54,31.6154,141.48860000000002,-43.593599999999995,175,75
2026-05-09 16:04:48.060,3,-0.13,-0.78,0.69,-29.854599999999998,-131.7414,134.0864,175,75
2026-05-09 16:04:48.082,3,-0.75,-1.1,-0.21,-3.6945999999999994,-53.0214,108.2364,175,75
2026-05-09 16:04:48.082,3,-0.89,-1.47,-0.17,15.575400000000002,30.208599999999997,92.55640000000001,175,75
2026-05-09 16:04:48.111,3,-0.23,-1.54,0.9,45.3354,45.7586,23.6564,175,75
2026-05-09 16:04:48.132,3,0.86,-0.9,1.02,11.915400000000002,-60.4014,53.296400000000006,175,75
2026-05-09 16:04:48.151,3,1.03,-1.03,0.64,7.775400000000001,-88.5114,68.35640000000001,175,75
2026-05-09 16:04:48.195,3,0.78,-0.48,0.96,82.83539999999999,96.4886,71.8264,175,75
2026-05-09 16:04:48.207,3,0.64,-0.6,1.16,109.1754,167.0386,66.46640000000001,175,75
2026-05-09 16:04:48.230,3,0.03,0.28,1.63,197.8954,316.9186,8.166400000000003,175,75
2026-05-09 16:04:48.268,3,0.15,0.61,1.1,272.2254,292.5886,-54.6336,175,75
2026-05-09 16:04:48.290,3,-0.25,0.16,3.31,265.8254,237.4086,67.4364,175,75
2026-05-09 16:04:48.310,3,0.06,0.85,2.95,215.8254,18.8086,45.66640000000001,175,75
2026-05-09 16:04:48.313,3,1.14,0.51,4.03,244.2354,-194.0614,96.58640000000001,175,75
2026-05-09 16:04:48.324,3,0.52,0.22,2.39,190.5754,-455.03139999999996,122.4964,175,75
2026-05-09 16:04:48.351,3,-0.42,0.51,-0.6,157.1054,-368.4514,-27.313599999999997,175,75
2026-05-09 16:04:48.351,3,0.18,0.89,-0.49,205.21540000000002,-124.9714,-52.1936,175,75
2026-05-09 16:04:48.363,3,0.85,0.86,0.3,201.55540000000002,-31.9814,-31.8936,175,75
2026-05-09 16:04:48.390,3,0.15,0.81,0.73,206.6754,-94.2414,-57.0136,175,75
2026-05-09 16:04:48.400,3,-0.06,0.82,0.82,201.55540000000002,-47.0414,-66.7636,175,75
2026-05-09 16:04:48.415,3,-0.04,0.9,1.04,173.1354,-60.3414,-86.28359999999999,175,75
2026-05-09 16:04:48.428,3,-0.16,1.02,1.08,109.47540000000001,-127.2914,-92.6236,175,75
2026-05-09 16:04:48.444,3,-0.94,1.18,0.36,16.1254,-144.48139999999998,-85.1236,175,75
2026-05-09 16:04:48.467,3,-0.37,1.75,-0.31,-71.49459999999999,-112.2914,-79.0236,175,75
2026-05-09 16:04:48.478,3,0.6,1.46,-0.33,-123.3846,-87.7814,-63.4136,175,75
2026-05-09 16:04:48.494,3,1.07,0.8,-0.18,-170.8246,-66.0114,-72.86359999999999,175,75
2026-05-09 16:04:48.507,3,-0.54,1.08,0.05,-228.0846,-54.1214,-52.373599999999996,175,75
2026-05-09 16:04:48.519,3,-1.51,1.06,-0.05,-263.5046,49.7786,-47.313599999999994,175,75
2026-05-09 16:04:48.541,3,-10.68,5.49,5.96,6.6754,342.28860000000003,491.0364,175,75
2026-05-09 16:04:48.541,3,0.22,-4.25,7.18,377.2854,812.5286,140.9164,175,75
2026-05-09 16:04:48.570,3,-0.26,-0.76,0.75,-547.4746,-272.2914,-160.8536,175,75
2026-05-09 16:04:48.588,3,3.55,-1.59,-0.63,-248.50459999999998,156.79860000000002,60.546400000000006,175,75
2026-05-09 16:04:48.588,3,3.16,-3.81,-0.49,-130.3346,-116.3114,145.7364,175,75
2026-05-09 16:04:48.617,3,0.58,-2.02,-0.07,-63.3846,262.40860000000004,-38.4136,175,75
2026-05-09 16:04:48.670,3,1.6,-0.4,2.85,-90.5846,199.7886,43.5964,175,75
2026-05-09 16:04:48.709,3,1.24,-0.1,1.12,7.2254000000000005,-60.891400000000004,51.46640000000001,175,75
2026-05-09 16:04:48.719,3,0.86,-0.02,0.41,39.6054,5.3886,25.9764,175,75
2026-05-09 16:04:48.719,3,0.44,0.28,0.44,89.6054,143.8086,-30.6736,175,75
2026-05-09 16:04:48.731,3,0.92,0.45,1.12,128.80540000000002,245.8786,-68.7236,175,75
2026-05-09 16:04:48.744,3,1.38,0.49,1.56,132.1054,222.0986,-59.0236,175,75
2026-05-09 16:04:48.756,3,0.05,1.18,1.85,126.55540000000002,162.88860000000003,-3.6535999999999973,175,75
2026-05-09 16:04:48.766,3,0.02,1.02,2.33,133.1954,139.04860000000002,7.076400000000003,175,75
2026-05-09 16:04:48.776,3,0.74,0.42,2.57,118.25540000000001,-65.8214,11.156400000000001,175,75
2026-05-09 16:04:48.815,3,0.16,-0.16,0.95,-2.414599999999999,-148.39139999999998,-29.943599999999996,175,75
2026-05-09 16:04:48.826,3,0.0,-0.18,0.92,-11.134599999999999,-157.11139999999997,-35.5436,175,75
2026-05-09 16:04:48.839,3,-0.24,-0.26,0.75,-32.2846,-164.42139999999998,-27.373599999999996,175,75
2026-05-09 16:04:48.865,3,-0.73,-0.32,0.49,-52.0446,-144.9714,-64.6336,175,75
2026-05-09 16:04:48.876,3,-0.82,-0.4,0.5,-58.1446,-79.0014,-79.3336,175,75
2026-05-09 16:04:48.888,3,-0.89,-0.55,0.79,-63.8146,-17.531399999999998,-93.41359999999999,175,75
2026-05-09 16:04:48.898,3,-0.94,-0.53,0.95,-63.6346,-2.7813999999999997,-105.1236,175,75
2026-05-09 16:04:48.898,3,-0.89,-0.43,1.1,-63.4446,18.138599999999997,-117.6836,175,75
2026-05-09 16:04:48.915,3,-0.78,-0.09,1.34,-71.8646,47.5286,-119.2036,175,75
2026-05-09 16:04:48.923,3,-0.54,0.21,1.55,-92.59459999999999,42.5286,-103.3536,175,75
2026-05-09 16:04:48.945,3,-0.46,0.46,1.2,-119.4846,22.468600000000002,-65.4836,175,75
2026-05-09 16:04:48.957,3,-0.53,0.59,0.72,-125.7046,57.7086,-44.203599999999994,175,75
2026-05-09 16:04:48.968,3,-0.41,0.63,0.69,-112.0446,111.4886,-39.3336,175,75
2026-05-09 16:04:48.978,3,-0.28,0.73,1.1,-95.3346,143.8086,-26.0936,175,75
2026-05-09 16:04:48.991,3,-0.03,0.7,1.42,-75.5846,138.2586,-29.203599999999998,175,75
2026-05-09 16:04:48.991,3,-0.01,0.82,1.56,-65.1546,125.0886,-26.953599999999998,175,75
2026-05-09 16:04:49.013,3,0.13,0.8,1.56,-42.8346,124.4786,-30.303599999999996,175,75
2026-05-09 16:04:49.030,3,-0.64,1.63,1.99,36.8554,137.82860000000002,7.926400000000001,175,75
2026-05-09 16:04:49.040,3,-0.83,0.94,2.28,50.3354,67.5886,56.82640000000001,175,75
2026-05-09 16:04:49.050,3,1.72,-0.7,0.07,-5.704599999999999,-30.761400000000002,13.296400000000002,175,75
2026-05-09 16:04:49.072,3,0.84,0.05,-0.91,-37.6546,-47.8414,93.47640000000001,175,75
