Time,ID,Ax,Ay,Az,Gx,Gy,Gz,Height,Weight
2026-05-11 17:54:51.173,3,-0.87,-1.23,0.76,-58.453399999999995,-4.4528,-58.811,175,75
2026-05-11 17:54:51.200,3,-0.73,-1.75,0.67,-73.0334,-21.4628,-53.691,175,75
2026-05-11 17:54:51.200,3,-0.01,-2.42,0.4,-79.9834,-52.0728,-66.981,175,75
2026-05-11 17:54:51.212,3,-0.06,-2.86,0.19,-69.8634,-99.4528,-17.531,175,75
2026-05-11 17:54:51.225,3,0.12,-2.34,0.04,-92.7234,-118.65280000000001,-29.721,175,75
2026-05-11 17:54:51.250,3,0.66,-1.45,-0.21,-111.8134,-206.46280000000002,-58.871,175,75
2026-05-11 17:54:51.250,3,0.75,-0.77,-0.71,-92.7834,-290.3028,-19.791,175,75
2026-05-11 17:54:51.263,3,-0.2,-0.82,-1.22,-36.563399999999994,-214.6928,40.638999999999996,175,75
2026-05-11 17:54:51.291,3,-0.79,-0.79,-0.48,169.8366,-15.2428,58.929,175,75
2026-05-11 17:54:51.291,3,-1.21,-0.77,-0.06,236.9066,-16.0328,113.869,175,75
2026-05-11 17:54:51.318,3,-1.51,-1.03,0.7,266.9666,64.0272,156.42899999999997,175,75
2026-05-11 17:54:51.333,3,-0.77,-1.37,1.06,254.04659999999998,27.507199999999997,174.66899999999998,175,75
2026-05-11 17:54:51.338,3,0.1,-1.78,0.8,134.6566,-109.81280000000001,129.05900000000003,175,75
2026-05-11 17:54:51.355,3,0.33,-0.98,0.05,48.796600000000005,-197.1928,111.369,175,75
2026-05-11 17:54:51.366,3,0.34,-0.38,-0.57,58.7366,-212.68280000000001,109.849,175,75
2026-05-11 17:54:51.387,3,0.11,-0.15,-0.75,78.9166,-118.4728,83.199,175,75
2026-05-11 17:54:51.410,3,0.13,-0.12,-0.43,39.7766,-24.4528,55.699,175,75
2026-05-11 17:54:51.427,3,0.12,-0.05,-0.21,24.8966,-0.1828000000000003,34.909,175,75
2026-05-11 17:54:51.442,3,0.13,0.04,-0.06,-1.9933999999999976,4.517199999999999,17.649,175,75
2026-05-11 17:54:51.442,3,0.04,0.13,0.01,-34.2534,9.697200000000002,-5.821000000000001,175,75
2026-05-11 17:54:51.459,3,-0.08,0.15,0.18,-76.1434,26.407199999999996,-51.371,175,75
2026-05-11 17:54:51.487,3,0.22,0.22,0.47,-132.9134,8.907199999999996,-110.521,175,75
2026-05-11 17:54:51.512,3,-0.4,1.6,-0.15,-192.7834,-55.912800000000004,-131.191,175,75
2026-05-11 17:54:51.524,3,-0.31,1.38,-0.84,-209.4934,20.8572,-116.981,175,75
2026-05-11 17:54:51.540,3,-0.66,1.31,-1.34,-198.0334,144.5172,-136.49099999999999,175,75
2026-05-11 17:54:51.548,3,-0.77,1.15,-1.02,-151.5634,352.5672,-181.01100000000002,175,75
2026-05-11 17:54:51.562,3,-0.61,0.73,0.0,-113.9434,484.3272,-206.551,175,75
2026-05-11 17:54:51.575,3,-7.42,1.58,3.8,56.726600000000005,457.5672,-11.371,175,75
2026-05-11 17:54:51.585,3,-16.1,5.38,8.35,496.0566,1066.4072,921.6790000000001,175,75
2026-05-11 17:54:51.595,3,-3.06,-14.39,11.87,651.3566000000001,-1304.4528,-439.851,175,75
2026-05-11 17:54:51.610,3,-0.5,-3.22,2.9,-42.243399999999994,-410.7928,-1000.881,175,75
2026-05-11 17:54:51.630,3,6.98,2.38,-2.48,-326.8734,-245.18280000000001,350.089,175,75
2026-05-11 17:54:51.660,3,-1.57,-1.5,-1.75,178.3666,44.147200000000005,-343.141,175,75
2026-05-11 17:54:51.695,3,2.1,1.07,1.1,-38.523399999999995,284.8172,72.289,175,75
2026-05-11 17:54:51.711,3,-1.38,-2.16,-0.62,107.75659999999999,-294.20279999999997,71.739,175,75
2026-05-11 17:54:51.725,3,-1.52,-1.55,-1.63,70.9966,125.7972,-58.081,175,75
2026-05-11 17:54:51.734,3,-0.62,-0.37,-0.99,236.1166,292.4372,-63.691,175,75
2026-05-11 17:54:51.745,3,-0.3,0.11,0.63,321.1766,273.35720000000003,18.509,175,75
2026-05-11 17:54:51.799,3,-0.11,-1.0,-0.31,66.3566,-99.6928,124.849,175,75
2026-05-11 17:54:51.833,3,-0.04,-0.94,-0.55,105.86659999999999,-91.46279999999999,113.929,175,75
2026-05-11 17:54:51.855,3,-0.11,-1.11,-0.4,115.0166,-72.7428,90.279,175,75
2026-05-11 17:54:51.868,3,-0.19,-1.03,-0.3,75.3266,-32.0728,69.239,175,75
2026-05-11 17:54:51.900,3,-0.23,-0.4,0.12,-14.003399999999997,-45.7328,23.808999999999997,175,75
2026-05-11 17:54:51.900,3,-0.48,0.08,-0.09,-103.21340000000001,-35.6728,-31.861,175,75
2026-05-11 17:54:51.911,3,-0.49,0.15,-0.02,-129.0634,-21.2828,-51.371,175,75
2026-05-11 17:54:51.922,3,-0.44,0.21,0.05,-153.45340000000002,-12.0128,-74.361,175,75
2026-05-11 17:54:51.936,3,-0.37,0.26,0.07,-179.3134,4.8172,-97.901,175,75
2026-05-11 17:54:51.971,3,-0.25,0.06,0.3,-219.6134,79.1472,-144.911,175,75
2026-05-11 17:54:52.017,3,-1.68,-0.39,0.63,-182.9134,216.3472,-155.70100000000002,175,75
2026-05-11 17:54:52.061,3,-1.64,-0.44,1.91,-38.6434,249.45719999999997,-125.581,175,75
2026-05-11 17:54:52.067,3,-1.66,0.09,2.47,1.606600000000002,140.06719999999999,-70.271,175,75
2026-05-11 17:54:52.081,3,-1.83,0.45,2.51,-38.7634,113.2972,-10.881,175,75
2026-05-11 17:54:52.113,3,-1.3,0.64,2.2,-11.5634,22.197200000000002,18.319,175,75
2026-05-11 17:54:52.124,3,-1.29,-0.03,2.65,133.1866,118.2972,137.589,175,75
2026-05-11 17:54:52.150,3,-0.19,-2.04,-2.01,-78.0334,-318.96279999999996,115.209,175,75
2026-05-11 17:54:52.180,3,-2.1,-1.51,-2.66,116.8466,197.0172,136.30900000000003,175,75
2026-05-11 17:54:52.180,3,-1.46,-2.0,-1.81,166.7866,176.28719999999998,75.949,175,75
2026-05-11 17:54:52.189,3,-1.04,-1.38,-0.21,203.1866,231.4672,28.259,175,75
2026-05-11 17:54:52.189,3,0.9,-1.33,2.06,292.7566,429.2072,48.569,175,75
2026-05-11 17:54:52.205,3,0.2,-1.46,3.45,310.3866,310.85720000000003,135.089,175,75
2026-05-11 17:54:52.264,3,-0.28,-0.83,2.23,-131.5034,-191.1528,32.589,175,75
2026-05-11 17:54:52.264,3,-0.75,-0.86,0.47,-143.9434,-277.3128,80.949,175,75
2026-05-11 17:54:52.264,3,-1.61,-1.67,-0.26,-97.66340000000001,-204.3228,72.959,175,75
2026-05-11 17:54:52.275,3,-0.58,-3.03,0.06,17.3966,57.377199999999995,-85.031,175,75
2026-05-11 17:54:52.287,3,0.64,-2.3,0.81,-16.083399999999997,54.81719999999999,-83.511,175,75
2026-05-11 17:54:52.298,3,1.18,-1.74,0.87,-63.1534,-26.0328,-35.641000000000005,175,75
2026-05-11 17:54:52.313,3,0.98,-1.68,0.66,-66.8134,-144.0828,-4.301,175,75
2026-05-11 17:54:52.313,3,0.77,-1.64,-0.09,-83.27340000000001,-250.7928,-19.361,175,75
2026-05-11 17:54:52.339,3,0.28,-1.36,-0.82,-99.6734,-288.78279999999995,-34.661,175,75
2026-05-11 17:54:52.365,3,-1.36,-0.99,-0.22,246.9666,72.49719999999999,105.639,175,75
2026-05-11 17:54:52.415,3,-1.57,-2.44,2.03,473.6766,78.2972,211.06900000000002,175,75
2026-05-11 17:54:52.446,3,0.35,-0.2,-1.02,165.1966,-241.9528,161.73899999999998,175,75
2026-05-11 17:54:52.457,3,0.27,-0.55,-1.4,115.86659999999999,-70.7328,102.039,175,75
2026-05-11 17:54:52.476,3,0.53,-0.44,-1.18,103.61659999999999,-65.9128,69.059,175,75
2026-05-11 17:54:52.486,3,0.54,-0.2,-1.09,65.0166,-49.0828,55.519,175,75
2026-05-11 17:54:52.497,3,0.49,0.09,-0.96,41.9666,-24.512800000000002,44.299,175,75
2026-05-11 17:54:52.508,3,0.37,0.2,-0.76,17.276600000000002,-18.6528,27.348999999999997,175,75
2026-05-11 17:54:52.519,3,0.23,0.25,-0.7,-12.2434,-16.2128,11.858999999999998,175,75
2026-05-11 17:54:52.519,3,0.03,0.31,-0.64,-44.553399999999996,17.867199999999997,-13.141000000000002,175,75
2026-05-11 17:54:52.534,3,-0.01,0.35,-0.53,-65.5334,52.927200000000006,-37.711,175,75
2026-05-11 17:54:52.545,3,-0.06,0.44,-0.3,-94.6734,82.37719999999999,-66.431,175,75
2026-05-11 17:54:52.572,3,0.21,0.53,0.64,-153.1534,45.9772,-148.93099999999998,175,75
2026-05-11 17:54:52.595,3,0.4,0.8,0.84,-179.8634,-4.812799999999999,-157.901,175,75
2026-05-11 17:54:52.600,3,-0.17,1.25,0.6,-213.3934,-61.4628,-127.411,175,75
2026-05-11 17:54:52.618,3,-0.42,0.92,0.51,-204.6134,-40.912800000000004,-136.981,175,75
2026-05-11 17:54:52.629,3,-0.77,0.81,0.66,-202.17340000000002,8.657199999999996,-134.541,175,75
2026-05-11 17:54:52.658,3,-1.18,0.61,1.43,-158.1534,75.18719999999999,-153.99099999999999,175,75
2026-05-11 17:54:52.660,3,-1.29,0.44,1.37,-166.3834,139.69719999999998,-146.07100000000003,175,75
2026-05-11 17:54:52.671,3,-1.22,-0.04,2.03,-120.89340000000001,175.4272,-140.461,175,75
2026-05-11 17:54:52.685,3,-1.32,-0.6,2.34,-119.3734,123.71719999999999,-149.911,175,75
2026-05-11 17:54:52.695,3,-1.79,-1.23,2.2,-201.6934,60.127199999999995,-164.541,175,75
2026-05-11 17:54:52.708,3,-5.94,0.51,3.38,-13.943399999999999,268.35720000000003,112.039,175,75
2026-05-11 17:54:52.761,3,-1.12,1.55,-2.39,-707.9133999999999,-167.9828,0.7589999999999986,175,75
2026-05-11 17:54:52.776,3,-0.13,-3.51,-3.09,191.1166,33.5972,49.729,175,75
2026-05-11 17:54:52.796,3,-0.68,-2.63,-1.1,204.5266,227.6272,-89.971,175,75
2026-05-11 17:54:52.815,3,1.28,-1.14,0.42,54.71660000000001,316.40720000000005,-149.791,175,75
2026-05-11 17:54:52.815,3,1.71,-0.07,1.0,92.33659999999999,10.2472,74.849,175,75
2026-05-11 17:54:52.844,3,0.87,-1.19,0.7,111.9066,-205.24280000000002,107.099,175,75
2026-05-11 17:54:52.894,3,-0.21,-1.17,-0.48,210.1366,50.8572,23.079,175,75
2026-05-11 17:54:52.916,3,-0.41,-1.39,0.71,252.2766,159.2672,97.589,175,75
2026-05-11 17:54:52.939,3,-0.29,-0.95,0.54,120.8066,-26.0928,95.519,175,75
2026-05-11 17:54:52.955,3,-0.33,-0.89,0.35,81.3566,-45.4828,75.519,175,75
2026-05-11 17:54:52.975,3,-0.21,-0.31,0.02,17.3366,-37.1328,29.598999999999997,175,75
2026-05-11 17:54:52.986,3,-0.3,-0.03,0.06,1.606600000000002,-49.0828,14.419,175,75
2026-05-11 17:54:52.992,3,-0.5,0.27,0.04,-29.673399999999994,-52.9228,-7.901000000000001,175,75
2026-05-11 17:54:53.010,3,-0.55,0.36,0.04,-59.7434,-31.7028,-34.721000000000004,175,75
2026-05-11 17:54:53.055,3,-0.59,0.41,0.06,-81.2634,-5.972799999999999,-56.311,175,75
2026-05-11 17:54:53.057,3,-0.59,0.43,0.1,-94.2534,19.937199999999997,-74.851,175,75
2026-05-11 17:54:53.065,3,-0.55,0.43,0.19,-107.7834,44.3272,-91.251,175,75
2026-05-11 17:54:53.100,3,-0.44,0.23,0.43,-148.5834,70.3672,-107.161,175,75
2026-05-11 17:54:53.100,3,-0.49,0.13,0.37,-161.9334,71.7072,-114.361,175,75
2026-05-11 17:54:53.123,3,-0.74,-0.09,0.37,-175.0434,109.75719999999998,-145.27100000000002,175,75
2026-05-11 17:54:53.231,3,-0.75,0.0,0.46,-146.7534,143.0472,-118.871,175,75
2026-05-11 17:54:53.257,3,-1.05,-0.32,0.87,-58.2734,92.0172,-48.751,175,75
2026-05-11 17:54:53.277,3,-0.72,-0.49,0.98,-46.3234,106.28719999999998,-53.081,175,75
2026-05-11 17:54:53.296,3,-0.44,-0.34,1.1,-38.273399999999995,103.41720000000001,-61.621,175,75
2026-05-11 17:54:53.307,3,3.98,-5.58,1.56,52.756600000000006,-281.21279999999996,-36.921,175,75
2026-05-11 17:54:53.360,3,0.09,-1.73,-1.99,-359.1334,-745.3027999999999,249.849,175,75
2026-05-11 17:54:53.360,3,-4.57,-1.03,-3.2,-213.6434,-146.7628,287.709,175,75
2026-05-11 17:54:53.395,3,1.49,-1.78,2.48,166.54659999999998,355.2472,65.149,175,75
2026-05-11 17:54:53.406,3,0.27,-1.83,2.99,157.0266,48.4172,167.289,175,75
2026-05-11 17:54:53.456,3,-1.23,-1.64,-0.11,-124.0034,-197.86280000000002,-13.511000000000001,175,75
2026-05-11 17:54:53.456,3,-1.3,-2.31,-0.49,-101.38340000000001,-60.7328,-61.431,175,75
2026-05-11 17:54:53.467,3,-0.82,-2.29,-0.25,-88.3934,-24.9328,-117.471,175,75
2026-05-11 17:54:53.569,3,0.73,-1.63,0.31,-121.99340000000001,-106.28280000000001,-86.861,175,75
2026-05-11 17:54:53.599,3,-0.64,-0.04,-0.6,66.5466,-71.58279999999999,27.348999999999997,175,75
2026-05-11 17:54:53.607,3,-0.97,-0.43,0.23,160.9966,-82.6228,73.569,175,75
2026-05-11 17:54:53.622,3,-2.0,-1.23,1.5,347.5766,-42.7428,249.17899999999997,175,75
2026-05-11 17:54:53.641,3,0.31,-0.3,-0.01,86.5466,-115.7928,105.399,175,75
2026-05-11 17:54:53.641,3,0.52,-0.11,-0.17,68.1266,-139.2028,97.709,175,75
2026-05-11 17:54:53.669,3,0.24,0.22,-0.29,37.8866,-42.312799999999996,72.469,175,75
2026-05-11 17:54:53.685,3,0.14,0.37,-0.06,31.7866,-0.3028000000000013,63.989000000000004,175,75
2026-05-11 17:54:53.685,3,-0.02,0.43,0.11,5.626600000000002,6.287199999999999,43.509,175,75
2026-05-11 17:54:53.712,3,0.33,1.27,0.29,-117.30340000000001,-65.2428,-77.531,175,75
2026-05-11 17:54:53.731,3,-0.25,0.94,0.18,-77.4234,95.3672,-79.121,175,75
2026-05-11 17:54:53.777,3,-0.37,0.74,1.02,-66.3234,119.1472,-107.901,175,75
2026-05-11 17:54:53.777,3,-0.33,0.53,1.09,-92.91340000000001,90.5472,-123.141,175,75
2026-05-11 17:54:53.840,3,-3.98,-9.05,6.04,41.6666,-1141.5828,20.889,175,75
2026-05-11 17:54:53.884,3,-1.05,-4.39,-0.89,-746.2034,-426.15279999999996,-756.981,175,75
2026-05-11 17:54:53.884,3,0.95,0.62,-2.6,-108.88340000000001,-45.1828,177.099,175,75
2026-05-11 17:54:53.890,3,-0.42,-2.96,-2.07,86.1766,37.8672,84.479,175,75
2026-05-11 17:54:53.909,3,-1.13,-0.91,0.59,167.51659999999998,321.5272,-176.981,175,75
2026-05-11 17:54:53.937,3,-1.21,-0.3,1.4,284.71659999999997,108.78719999999998,234.909,175,75
2026-05-11 17:54:53.979,3,-1.27,-1.83,0.92,288.7366,21.407199999999996,174.29899999999998,175,75
2026-05-11 17:54:53.979,3,-1.53,-2.69,0.54,225.32659999999998,78.2972,71.249,175,75
2026-05-11 17:54:54.003,3,0.56,-0.39,0.35,220.3866,59.0872,121.73899999999999,175,75
2026-05-11 17:54:54.038,3,-0.14,-0.72,0.14,183.9166,18.657199999999996,154.72899999999998,175,75
2026-05-11 17:54:54.073,3,0.12,-0.62,0.24,143.1866,40.06719999999999,90.339,175,75
2026-05-11 17:54:54.086,3,0.14,-0.14,0.38,87.0266,-11.642800000000001,93.079,175,75
2026-05-11 17:54:54.097,3,0.01,-0.01,0.34,49.406600000000005,-53.5328,71.429,175,75
2026-05-11 17:54:54.097,3,-0.02,0.19,0.15,9.226600000000001,-93.65280000000001,48.689,175,75
2026-05-11 17:54:54.146,3,-0.09,0.56,-0.19,-54.25339999999999,-129.5728,20.399,175,75
2026-05-11 17:54:54.146,3,-0.19,0.65,-0.3,-80.8334,-110.4228,8.628999999999998,175,75
2026-05-11 17:54:54.160,3,-0.22,0.61,-0.29,-98.7034,-98.53280000000001,-8.441,175,75
2026-05-11 17:54:54.160,3,-0.24,0.54,-0.3,-116.26339999999999,-91.52279999999999,-22.651000000000003,175,75
2026-05-11 17:54:54.170,3,-0.32,0.51,-0.33,-135.4134,-70.6028,-36.551,175,75
2026-05-11 17:54:54.183,3,-0.31,0.39,-0.32,-152.6634,-35.1228,-56.371,175,75
2026-05-11 17:54:54.221,3,-0.22,-0.15,0.07,-197.9734,75.3072,-129.661,175,75
2026-05-11 17:54:54.221,3,-0.21,-0.34,0.26,-200.7134,87.0772,-150.211,175,75
2026-05-11 17:54:54.243,3,-0.56,-0.61,0.72,-186.8734,72.43719999999999,-166.801,175,75
2026-05-11 17:54:54.278,3,-1.29,-1.33,0.7,-131.20340000000002,155.91719999999998,-120.521,175,75
2026-05-11 17:54:54.301,3,-0.74,-0.18,1.1,-55.6534,198.6572,-136.191,175,75
2026-05-11 17:54:54.348,3,-1.17,0.6,1.36,-13.3334,46.037200000000006,13.989,175,75
2026-05-11 17:54:54.359,3,-3.3,1.35,2.26,133.5566,40.487199999999994,248.68899999999996,175,75
2026-05-11 17:54:54.385,3,-3.37,-1.38,-2.96,-53.7634,135.91719999999998,149.599,175,75
2026-05-11 17:54:54.408,3,-0.02,-1.73,0.39,262.02660000000003,362.98720000000003,-77.351,175,75
2026-05-11 17:54:54.418,3,0.97,-1.64,2.2,187.2166,270.4272,-0.761000000000001,175,75
2026-05-11 17:54:54.430,3,0.49,-2.5,2.6,121.0566,97.25720000000001,91.489,175,75
2026-05-11 17:54:54.441,3,-1.38,-2.97,2.17,42.4566,-116.21279999999999,95.949,175,75
2026-05-11 17:54:54.443,3,-1.28,-1.83,1.92,-48.093399999999995,-103.4728,4.968999999999999,175,75
2026-05-11 17:54:54.518,3,0.67,-1.9,0.63,-80.8934,-46.4028,-128.08100000000002,175,75
2026-05-11 17:54:54.560,3,-0.17,-0.18,-1.2,-86.8734,-171.6428,-67.471,175,75
2026-05-11 17:54:54.560,3,-0.62,0.04,-0.94,26.9666,-75.1828,-0.8810000000000011,175,75
2026-05-11 17:54:54.572,3,-0.72,-0.74,-0.31,153.0666,-22.192800000000002,76.129,175,75
2026-05-11 17:54:54.595,3,-1.3,-0.65,0.25,232.51659999999998,-47.312799999999996,125.949,175,75
2026-05-11 17:54:54.609,3,-1.66,-1.56,1.45,361.96659999999997,-8.2928,228.31900000000002,175,75
2026-05-11 17:54:54.644,3,0.23,-1.08,-0.35,117.8266,-120.18280000000001,84.909,175,75
2026-05-11 17:54:54.688,3,-0.11,-0.17,-0.48,121.3566,-9.5728,84.849,175,75
2026-05-11 17:54:54.704,3,0.03,0.29,-0.49,98.7366,2.6271999999999984,44.669,175,75
2026-05-11 17:54:54.732,3,0.45,1.89,-0.34,80.6866,32.0172,30.698999999999998,175,75
2026-05-11 17:54:54.749,3,0.43,1.06,0.2,69.2266,-2.6828000000000003,27.589,175,75
2026-05-11 17:54:54.754,3,0.28,1.18,0.2,55.076600000000006,-14.8728,-6.311000000000001,175,75
2026-05-11 17:54:54.777,3,0.25,1.4,0.19,36.906600000000005,-0.4228000000000023,-22.161,175,75
2026-05-11 17:54:54.827,3,-0.29,1.24,0.61,3.1266000000000016,-18.102800000000002,-39.111000000000004,175,75
2026-05-11 17:54:54.827,3,-0.4,1.16,0.71,-19.8634,-28.102800000000002,-46.311,175,75
2026-05-11 17:54:54.838,3,-0.52,1.07,0.61,-42.9734,-24.8728,-46.861000000000004,175,75
2026-05-11 17:54:54.838,3,-0.55,0.92,0.49,-54.063399999999994,-11.462800000000001,-50.641,175,75
2026-05-11 17:54:54.873,3,-0.64,0.84,0.5,-75.0434,68.71719999999999,-70.271,175,75
2026-05-11 17:54:54.888,3,-0.47,0.67,0.53,-92.66340000000001,102.31719999999999,-80.70100000000001,175,75
2026-05-11 17:54:54.900,3,-0.01,-0.28,0.42,-178.0934,51.347199999999994,-133.811,175,75
2026-05-11 17:54:54.910,3,-3.61,1.06,1.4,-186.6934,55.427200000000006,-29.541,175,75
2026-05-11 17:54:54.948,3,-12.89,3.73,5.87,249.4666,908.7872,601.3090000000001,175,75
2026-05-11 17:54:54.978,3,3.64,0.59,-2.35,-584.5533999999999,-323.71279999999996,-157.471,175,75
2026-05-11 17:54:54.987,3,-0.13,-1.08,-1.8,-313.1534,-94.2028,111.739,175,75
2026-05-11 17:54:54.998,3,0.0,-3.93,-2.13,-192.0534,25.4872,109.909,175,75
2026-05-11 17:54:55.010,3,-1.25,-1.88,-0.21,10.9966,155.7972,-160.33100000000002,175,75
2026-05-11 17:54:55.039,3,-2.19,0.57,0.97,160.5066,-5.672800000000002,134.29899999999998,175,75
2026-05-11 17:54:55.053,3,-0.85,-3.0,1.38,244.2266,-48.9028,111.979,175,75
2026-05-11 17:54:55.091,3,-0.15,-0.65,0.22,222.3966,12.017200000000003,126.919,175,75
2026-05-11 17:54:55.091,3,-0.16,-0.38,0.15,209.4666,7.747199999999999,150.579,175,75
2026-05-11 17:54:55.125,3,-0.26,-0.39,0.22,213.79659999999998,30.7372,137.529,175,75
2026-05-11 17:54:55.137,3,0.13,-0.24,0.11,184.8966,20.0672,117.039,175,75
2026-05-11 17:54:55.148,3,0.28,-0.19,0.12,160.4466,10.127200000000002,110.759,175,75
2026-05-11 17:54:55.173,3,0.28,-0.15,0.16,118.2466,-31.7028,91.919,175,75
2026-05-11 17:54:55.185,3,0.23,0.02,-0.04,83.61659999999999,-38.7828,78.019,175,75
2026-05-11 17:54:55.212,3,0.23,0.22,-0.23,43.4966,-39.2628,55.949,175,75
2026-05-11 17:54:55.229,3,0.35,0.38,-0.34,10.866600000000002,-42.3728,32.289,175,75
2026-05-11 17:54:55.229,3,0.38,0.51,-0.41,-20.533399999999993,-43.9628,18.689,175,75
2026-05-11 17:54:55.252,3,0.29,0.93,-0.49,-80.4734,-26.1528,-30.461000000000002,175,75
2026-05-11 17:54:55.265,3,0.25,1.09,-0.43,-104.9234,-26.3428,-59.301,175,75
2026-05-11 17:54:55.298,3,0.24,1.01,-0.35,-133.0934,-35.4228,-80.581,175,75
2026-05-11 17:54:55.323,3,0.2,0.57,-0.31,-176.0834,-38.2328,-90.211,175,75
2026-05-11 17:54:55.354,3,-0.03,0.06,-0.21,-213.5834,29.2072,-125.881,175,75
2026-05-11 17:54:55.354,3,-0.15,-0.12,-0.06,-226.4434,64.2672,-142.591,175,75
2026-05-11 17:54:55.386,3,-0.59,-0.69,0.81,-207.17340000000002,63.597199999999994,-173.26100000000002,175,75
2026-05-11 17:54:55.397,3,-0.63,-1.3,0.69,-217.42340000000002,52.31719999999999,-185.151,175,75
2026-05-11 17:54:55.397,3,-0.8,-1.78,0.43,-221.4434,63.907199999999996,-179.721,175,75
2026-05-11 17:54:55.408,3,-1.19,-2.07,0.01,-215.8934,134.0872,-142.961,175,75
2026-05-11 17:54:55.421,3,-1.64,-1.67,-0.16,-164.0634,258.90720000000005,-126.071,175,75
2026-05-11 17:54:55.464,3,-3.51,1.17,2.95,-14.803399999999998,-7.8628,131.30900000000003,175,75
2026-05-11 17:54:55.476,3,-5.56,2.35,3.67,148.6766,9.937199999999997,363.74899999999997,175,75
2026-05-11 17:54:55.505,3,-1.3,-0.75,-2.24,-389.4334,-574.3928,138.92899999999997,175,75
2026-05-11 17:54:55.544,3,-1.02,-1.46,-2.14,162.4566,363.04720000000003,-7.831,175,75
2026-05-11 17:54:55.567,3,0.42,-2.14,2.21,242.4566,343.35720000000003,51.489,175,75
2026-05-11 17:54:55.567,3,-0.39,-2.54,2.73,214.4066,73.41720000000001,90.399,175,75
2026-05-11 17:54:55.579,3,-1.35,-2.36,2.95,8.126600000000002,-66.4028,-6.801000000000001,175,75
2026-05-11 17:54:55.596,3,-0.28,-1.47,1.77,-111.8734,-107.56280000000001,-57.531,175,75
2026-05-11 17:54:55.600,3,-0.67,-1.63,0.65,-120.4134,-252.0728,-28.381,175,75
2026-05-11 17:54:55.613,3,-1.2,-2.0,-0.32,-147.17340000000002,-185.4828,-63.201,175,75
2026-05-11 17:54:55.660,3,-0.95,-1.94,-0.73,-112.7834,-43.0428,-122.901,175,75
2026-05-11 17:54:55.671,3,0.54,-1.49,0.23,-76.5034,-36.8228,-116.551,175,75
2026-05-11 17:54:55.682,3,0.41,-1.31,0.06,-129.5534,-140.9728,-96.801,175,75
2026-05-11 17:54:55.694,3,0.4,-0.9,-0.47,-154.5534,-169.6328,-116.491,175,75
2026-05-11 17:54:55.694,3,-0.34,0.06,-0.59,-37.9734,-158.0428,-54.721000000000004,175,75
2026-05-11 17:54:55.723,3,-1.58,-0.56,0.3,232.1566,-14.632800000000001,160.209,175,75
2026-05-11 17:54:55.735,3,-2.07,-0.83,1.14,322.0266,2.8672000000000004,201.42899999999997,175,75
2026-05-11 17:54:55.746,3,-2.09,-1.58,1.74,353.3666,-31.9528,251.79899999999998,175,75
2026-05-11 17:54:55.764,3,-1.09,-3.09,1.21,215.7466,-106.21279999999999,193.199,175,75
2026-05-11 17:54:55.812,3,0.14,-0.18,-0.4,163.4966,-48.1728,163.74900000000002,175,75
2026-05-11 17:54:55.864,3,0.67,0.16,-0.15,53.616600000000005,-95.00280000000001,61.429,175,75
2026-05-11 17:54:55.869,3,0.62,0.31,-0.26,39.4666,-103.65280000000001,58.629000000000005,175,75
2026-05-11 17:54:55.895,3,-0.17,0.94,-0.37,0.2566000000000024,43.7172,8.509,175,75
2026-05-11 17:54:55.933,3,-0.07,1.23,0.5,-47.9734,28.1072,-47.901,175,75
2026-05-11 17:54:56.014,3,-0.5,1.38,0.12,-95.77340000000001,-65.3628,-43.751,175,75
2026-05-11 17:54:56.039,3,-0.46,0.93,-0.14,-72.7234,42.1972,-44.541000000000004,175,75
2026-05-11 17:54:56.051,3,-0.67,0.81,-0.16,-57.6634,165.5472,-56.921,175,75
2026-05-11 17:54:56.051,3,-0.76,0.88,0.15,-37.9734,255.2472,-79.661,175,75
2026-05-11 17:54:56.062,3,-0.65,0.81,0.76,-22.973399999999998,305.1272,-102.711,175,75
2026-05-11 17:54:56.062,3,-0.31,0.38,1.37,-63.2734,245.7372,-122.531,175,75
2026-05-11 17:54:56.128,3,4.75,-15.85,7.07,512.5766,224.2672,-87.961,175,75
2026-05-11 17:54:56.166,3,2.35,-0.96,-2.56,-733.9434,-194.1428,-305.401,175,75
2026-05-11 17:54:56.190,3,-0.09,-2.98,-1.36,-22.973399999999998,77.56719999999999,-7.531000000000001,175,75
2026-05-11 17:54:56.243,3,-1.79,0.11,1.62,195.5666,-28.0428,121.24900000000001,175,75
2026-05-11 17:54:56.249,3,-0.88,-2.62,0.8,131.9066,-54.1428,117.899,175,75
2026-05-11 17:54:56.252,3,-1.4,-1.91,0.49,127.8266,-70.9128,109.969,175,75
2026-05-11 17:54:56.264,3,-1.09,-1.55,0.18,222.82659999999998,-0.7927999999999997,95.029,175,75
2026-05-11 17:54:56.276,3,-0.45,-1.41,0.27,223.0666,23.477199999999996,90.209,175,75
2026-05-11 17:54:56.311,3,-0.15,-1.1,0.31,195.01659999999998,10.487200000000001,103.869,175,75
2026-05-11 17:54:56.330,3,-0.1,-0.73,0.04,172.0266,49.0872,100.699,175,75
2026-05-11 17:54:56.346,3,0.38,-0.39,0.3,139.4666,21.647199999999998,82.589,175,75
2026-05-11 17:54:56.359,3,0.4,-0.23,0.24,108.00659999999999,-13.5928,72.649,175,75
2026-05-11 17:54:56.359,3,0.2,0.36,-0.11,16.5466,-27.192800000000002,40.949,175,75
2026-05-11 17:54:56.391,3,0.18,0.72,-0.21,-24.493399999999994,-31.3428,18.198999999999998,175,75
2026-05-11 17:54:56.432,3,0.22,1.42,-0.69,-111.63340000000001,-52.0128,-34.181,175,75
2026-05-11 17:54:56.444,3,0.21,1.45,-0.59,-95.9534,1.5272000000000006,-34.661,175,75
2026-05-11 17:54:56.444,3,0.32,1.11,-0.34,-97.8434,22.1372,-40.701,175,75
2026-05-11 17:54:56.458,3,0.3,0.88,-0.11,-107.5434,19.267200000000003,-56.681,175,75
2026-05-11 17:54:56.483,3,-0.07,0.4,0.11,-146.2634,36.407199999999996,-109.971,175,75
2026-05-11 17:54:56.483,3,-0.22,0.1,0.35,-169.3134,27.377200000000002,-157.83100000000002,175,75
2026-05-11 17:54:56.495,3,-0.29,-0.08,0.55,-182.17340000000002,4.087199999999999,-177.291,175,75
2026-05-11 17:54:56.514,3,-0.74,-0.41,0.85,-197.7234,-19.0828,-160.94099999999997,175,75
2026-05-11 17:54:56.514,3,-1.0,-0.79,0.84,-202.17340000000002,-21.2128,-135.70100000000002,175,75
2026-05-11 17:54:56.523,3,-1.12,-1.35,0.85,-192.9734,-20.3628,-119.661,175,75
2026-05-11 17:54:56.535,3,-1.77,-2.06,0.56,-199.0034,70.7372,-105.091,175,75
2026-05-11 17:54:56.547,3,-1.69,-1.87,0.5,-145.7134,153.7172,-116.861,175,75
2026-05-11 17:54:56.547,3,-1.49,-1.31,0.66,-55.593399999999995,227.9872,-179.601,175,75
2026-05-11 17:54:56.568,3,-0.66,0.18,1.84,-23.703399999999995,231.28719999999998,-128.93099999999998,175,75
2026-05-11 17:54:56.568,3,-1.05,0.23,1.95,15.136600000000001,128.2972,-40.271,175,75
2026-05-11 17:54:56.590,3,-5.21,1.43,3.2,182.2766,138.1072,292.349,175,75
2026-05-11 17:54:56.614,3,4.0,-7.49,-0.68,-167.8434,-319.8728,-131.74099999999999,175,75
2026-05-11 17:54:56.625,3,-1.44,-1.71,-3.41,-373.09340000000003,-563.0427999999999,78.199,175,75
2026-05-11 17:54:56.644,3,-1.09,-0.36,-2.75,103.7966,619.5172,46.739,175,75
2026-05-11 17:54:56.654,3,1.59,-2.7,0.01,320.5666,507.7472,1.3689999999999998,175,75
2026-05-11 17:54:56.665,3,-0.01,-2.41,2.52,304.0466,205.6772,77.589,175,75
2026-05-11 17:54:56.677,3,-0.29,-2.69,3.13,213.7366,177.13719999999998,62.709,175,75
2026-05-11 17:54:56.687,3,-0.13,-2.08,3.43,-35.10339999999999,37.9272,14.119,175,75
2026-05-11 17:54:56.705,3,-0.2,-1.33,1.76,-129.4334,-294.8128,46.619,175,75
2026-05-11 17:54:56.713,3,-1.24,-1.28,0.64,-137.42340000000002,-310.5428,33.199,175,75
2026-05-11 17:54:56.749,3,-0.3,-1.56,-0.24,-13.3334,24.937199999999997,-122.221,175,75
2026-05-11 17:54:56.763,3,0.6,-1.05,0.45,-72.7834,-20.9128,-107.161,175,75
2026-05-11 17:54:56.774,3,0.65,-0.93,0.13,-113.6434,-184.8728,-66.62100000000001,175,75
2026-05-11 17:54:56.785,3,0.09,-1.02,-0.72,-117.17340000000002,-262.4328,-50.641,175,75
2026-05-11 17:54:56.806,3,-0.51,-0.3,-0.86,68.6166,-28.0428,3.199,175,75
2026-05-11 17:54:56.826,3,-0.68,-0.72,-0.07,164.7166,-14.4528,83.869,175,75
2026-05-11 17:54:56.861,3,-1.67,-2.37,1.35,273.7366,-18.8428,199.05900000000003,175,75
2026-05-11 17:54:56.879,3,-0.72,-2.37,0.61,141.0566,-42.4328,117.469,175,75
2026-05-11 17:54:56.920,3,0.0,-0.29,-0.25,199.2266,-57.1328,171.30900000000003,175,75
2026-05-11 17:54:56.920,3,0.1,-0.37,-0.09,165.3866,-42.312799999999996,139.599,175,75
2026-05-11 17:54:57.013,3,0.15,1.0,-0.06,-4.373399999999998,-24.1428,3.8689999999999998,175,75
2026-05-11 17:54:57.025,3,0.2,1.2,0.05,-30.593399999999995,-19.692800000000002,-20.091,175,75
2026-05-11 17:54:57.048,3,0.29,1.38,0.03,-46.813399999999994,-42.5028,-19.601,175,75
2026-05-11 17:54:57.063,3,-0.1,1.33,-0.01,-59.61339999999999,10.547199999999997,-41.741,175,75
2026-05-11 17:54:57.069,3,0.13,1.17,0.13,-76.7534,46.157199999999996,-59.241,175,75
2026-05-11 17:54:57.080,3,0.23,0.94,0.29,-92.05340000000001,42.1372,-67.411,175,75
2026-05-11 17:54:57.123,3,-0.21,0.12,0.34,-130.8934,47.4372,-94.361,175,75
2026-05-11 17:54:57.123,3,-0.37,-0.5,0.31,-209.4334,67.43719999999999,-131.981,175,75
2026-05-11 17:54:57.142,3,-0.17,-1.06,0.15,-261.9334,61.647200000000005,-164.18099999999998,175,75
2026-05-11 17:54:57.145,3,-5.84,1.43,2.84,-146.5634,140.2472,84.29899999999999,175,75
2026-05-11 17:54:57.168,3,0.73,-14.33,6.92,515.0166,1057.7472,820.519,175,75
2026-05-11 17:54:57.168,3,-5.33,-6.15,4.95,-147.3634,-1045.8528000000001,-335.271,175,75
2026-05-11 17:54:57.178,3,-2.71,-1.28,0.75,-637.1733999999999,-220.8528,-1147.291,175,75
2026-05-11 17:54:57.208,3,5.55,2.97,-2.73,-431.4434,66.03720000000001,-282.531,175,75
2026-05-11 17:54:57.208,3,1.33,0.41,-0.9,-184.8034,-150.3628,265.459,175,75
2026-05-11 17:54:57.219,3,0.05,-2.72,-1.05,-29.743399999999994,-146.7028,155.639,175,75
2026-05-11 17:54:57.231,3,-2.64,-2.71,-1.4,-115.4734,-124.3228,-20.641,175,75
2026-05-11 17:54:57.251,3,-0.11,-0.59,0.04,108.9166,331.28720000000004,-234.601,175,75
2026-05-11 17:54:57.291,3,-0.61,0.19,1.78,147.7566,-69.3228,149.05900000000003,175,75
2026-05-11 17:54:57.305,3,-1.42,-2.25,0.72,163.3066,-69.08279999999999,135.699,175,75
2026-05-11 17:54:57.305,3,-1.19,-2.22,0.34,98.4366,-49.3928,77.289,175,75
2026-05-11 17:54:57.348,3,0.15,-0.37,-0.05,189.1666,42.8072,61.069,175,75
2026-05-11 17:54:57.431,3,-0.01,-0.49,0.27,99.28659999999999,-44.022800000000004,102.289,175,75
2026-05-11 17:54:57.443,3,0.02,-0.37,0.17,80.19659999999999,-59.3928,87.039,175,75
2026-05-11 17:54:57.461,3,-0.04,0.41,0.04,-8.273399999999997,-57.1928,40.699,175,75
2026-05-11 17:54:57.506,3,-0.43,1.01,-0.19,-90.0434,-113.0428,-11.431000000000001,175,75
2026-05-11 17:54:57.529,3,-0.32,0.82,-0.39,-136.3834,-62.4928,-32.831,175,75
2026-05-11 17:54:57.579,3,-0.6,-0.45,0.39,-149.0034,117.56719999999999,-131.311,175,75
2026-05-11 17:54:57.579,3,-0.62,-0.65,0.41,-141.5034,140.7372,-150.58100000000002,175,75
2026-05-11 17:54:57.612,3,-0.82,-1.32,0.25,-82.3634,160.3672,-141.13100000000003,175,75
2026-05-11 17:54:57.622,3,-0.99,-1.18,0.23,-58.64339999999999,200.00719999999998,-130.761,175,75
2026-05-11 17:54:57.633,3,-0.94,-0.75,0.33,-46.3234,223.2372,-148.20100000000002,175,75
2026-05-11 17:54:57.653,3,-0.48,-0.08,0.52,-45.593399999999995,219.3272,-166.07100000000003,175,75
2026-05-11 17:54:57.671,3,0.23,0.59,0.98,-39.6134,67.1372,-65.64099999999999,175,75
2026-05-11 17:54:57.685,3,-4.96,1.86,2.5,162.7566,74.75720000000001,333.25899999999996,175,75
2026-05-11 17:54:57.685,3,-1.71,-1.52,2.25,286.96659999999997,233.96720000000002,120.14899999999999,175,75
2026-05-11 17:54:57.696,3,2.08,-6.08,1.23,85.6866,-25.3028,-239.481,175,75
2026-05-11 17:54:57.708,3,3.15,-1.78,-1.18,-235.5934,-385.5428,35.819,175,75
2026-05-11 17:54:57.719,3,-1.0,-1.14,-1.73,-187.0534,-430.7328,169.72899999999998,175,75
2026-05-11 17:54:57.730,3,-2.65,-1.38,-2.05,-45.8934,99.5772,128.019,175,75
2026-05-11 17:54:57.730,3,-1.13,-1.6,-1.8,67.6366,263.10720000000003,14.729,175,75
2026-05-11 17:54:57.746,3,0.95,-1.77,1.44,163.4966,239.32719999999998,27.229,175,75
2026-05-11 17:54:57.766,3,-1.12,-1.1,1.52,-101.5034,-114.02279999999999,-25.091,175,75
2026-05-11 17:54:57.777,3,-0.54,-1.05,0.56,-127.30340000000001,-151.3428,-41.431,175,75
2026-05-11 17:54:57.794,3,-1.28,-1.85,-0.12,-66.6934,-72.1328,-30.031000000000002,175,75
2026-05-11 17:54:57.835,3,-0.64,-1.81,0.36,-50.343399999999995,20.6072,-159.18099999999998,175,75
2026-05-11 17:54:57.835,3,0.15,-1.69,0.56,-89.9234,-21.9528,-146.62099999999998,175,75
2026-05-11 17:54:57.835,3,0.45,-1.73,0.41,-105.3434,-87.8628,-96.981,175,75
2026-05-11 17:54:57.882,3,0.15,0.24,-0.36,0.4466000000000019,0.30719999999999814,-61.861000000000004,175,75
2026-05-11 17:54:57.901,3,-0.25,-0.63,0.07,128.91660000000002,22.687199999999997,20.759,175,75
2026-05-11 17:54:57.930,3,-2.09,-0.83,1.15,377.0266,122.8072,140.339,175,75
2026-05-11 17:54:57.944,3,-1.33,-1.99,1.37,372.4566,54.517199999999995,147.16899999999998,175,75
2026-05-11 17:54:57.971,3,-0.23,-1.91,0.69,161.4766,-54.2628,66.369,175,75
2026-05-11 17:54:57.971,3,0.34,-0.78,0.27,149.2266,-118.0428,89.539,175,75
2026-05-11 17:54:58.000,3,-0.14,-0.02,-0.05,170.9366,-245.9728,149.11899999999997,175,75
2026-05-11 17:54:58.023,3,-0.36,-0.34,-0.53,103.1266,-205.9728,105.089,175,75
2026-05-11 17:54:58.032,3,0.04,0.05,-0.69,88.7366,-122.8628,66.189,175,75
2026-05-11 17:54:58.076,3,-0.0,0.25,-0.25,72.0866,-47.1328,70.399,175,75
2026-05-11 17:54:58.083,3,-0.12,0.44,-0.2,37.086600000000004,-21.7628,36.859,175,75
2026-05-11 17:54:58.101,3,-0.15,0.58,-0.07,8.856600000000002,-9.7528,13.018999999999998,175,75
2026-05-11 17:54:58.118,3,-0.1,0.71,0.1,-23.883399999999995,-9.4528,-9.181000000000001,175,75
2026-05-11 17:54:58.118,3,-0.03,0.92,0.26,-61.08339999999999,-17.2528,-22.101,175,75
2026-05-11 17:54:58.154,3,-0.25,1.04,0.13,-104.0634,-21.4028,-29.541,175,75
2026-05-11 17:54:58.163,3,-0.15,0.69,0.11,-115.2234,5.0672,-32.221000000000004,175,75
2026-05-11 17:54:58.173,3,-0.3,0.27,0.26,-127.30340000000001,51.2172,-46.861000000000004,175,75
2026-05-11 17:54:58.194,3,-0.39,0.07,0.44,-132.9734,97.9272,-60.331,175,75
2026-05-11 17:54:58.226,3,-0.19,-0.41,0.26,-206.6934,116.5272,-119.181,175,75
2026-05-11 17:54:58.236,3,-0.55,-0.33,0.24,-208.5834,137.6272,-126.551,175,75
2026-05-11 17:54:58.251,3,-2.95,0.16,1.41,-177.5434,160.00719999999998,-77.591,175,75
2026-05-11 17:54:58.266,3,-10.59,2.66,5.67,236.8466,687.3772,467.529,175,75
2026-05-11 17:54:58.281,3,4.26,-15.85,8.6,567.8266000000001,27.507199999999997,42.589,175,75
2026-05-11 17:54:58.287,3,-4.98,-5.01,4.84,-161.7534,-1086.1528,-383.261,175,75
2026-05-11 17:54:58.296,3,2.6,-2.43,-1.81,-688.5834,-109.5128,-597.651,175,75
2026-05-11 17:54:58.308,3,4.14,1.36,-2.61,-732.4233999999999,-312.1328,-79.661,175,75
2026-05-11 17:54:58.315,3,-0.87,0.99,-2.22,-348.5834,-243.4728,53.449,175,75
2026-05-11 17:54:58.331,3,-1.16,-1.88,-2.9,-111.99340000000001,-24.2028,-4.111000000000001,175,75
2026-05-11 17:54:58.368,3,-0.64,-0.14,0.81,200.07659999999998,290.60720000000003,-113.20100000000001,175,75
2026-05-11 17:54:58.378,3,-0.31,0.4,1.61,171.7266,233.5372,-69.661,175,75
2026-05-11 17:54:58.378,3,-0.74,0.41,2.21,224.2866,121.7672,135.089,175,75
2026-05-11 17:54:58.391,3,-0.85,-1.39,1.65,200.9366,-55.0028,160.579,175,75
2026-05-11 17:54:58.407,3,-0.91,-2.02,0.68,77.75659999999999,-53.1028,125.699,175,75
2026-05-11 17:54:58.420,3,-1.17,-1.28,0.14,109.4666,-8.102800000000002,92.169,175,75
2026-05-11 17:54:58.420,3,-0.66,-0.8,-0.03,176.6666,28.907199999999996,53.449,175,75
2026-05-11 17:54:58.436,3,-0.05,-0.64,0.12,188.4966,59.6372,54.179,175,75
2026-05-11 17:54:58.457,3,0.31,-0.28,0.47,161.2366,-5.732800000000001,129.41899999999998,175,75
2026-05-11 17:54:58.501,3,-0.14,-0.29,0.24,66.5466,-57.6828,93.989,175,75
2026-05-11 17:54:58.509,3,-0.16,-0.16,0.27,52.8866,-52.802800000000005,70.639,175,75
2026-05-11 17:54:58.522,3,-0.01,0.11,0.37,31.546600000000005,-55.062799999999996,53.379,175,75
2026-05-11 17:54:58.551,3,0.04,0.39,0.31,3.436600000000002,-90.6028,62.468999999999994,175,75
2026-05-11 17:54:58.551,3,-0.09,0.46,0.21,-18.583399999999997,-93.2328,60.519000000000005,175,75
2026-05-11 17:54:58.590,3,-0.26,0.33,0.1,-89.9834,-68.53280000000001,5.029,175,75
2026-05-11 17:54:58.611,3,-0.26,0.31,-0.03,-109.4334,-41.8928,-6.431000000000001,175,75
2026-05-11 17:54:58.625,3,-0.33,0.11,-0.06,-122.7234,-1.8228000000000009,-19.971,175,75
2026-05-11 17:54:58.636,3,-0.32,-0.13,-0.02,-131.6934,30.6072,-43.441,175,75
2026-05-11 17:54:58.647,3,-0.31,-0.42,0.07,-141.9934,68.78720000000001,-69.661,175,75
2026-05-11 17:54:58.647,3,-0.38,-0.84,0.2,-142.1134,115.12719999999999,-103.20100000000001,175,75
2026-05-11 17:54:58.658,3,-0.43,-0.98,0.24,-131.2634,125.06719999999999,-120.881,175,75
2026-05-11 17:54:58.691,3,-0.6,-0.86,0.16,-86.3234,193.0472,-132.471,175,75
2026-05-11 17:54:58.701,3,-0.59,-0.67,0.28,-54.3734,219.81719999999999,-132.351,175,75
2026-05-11 17:54:58.746,3,-0.4,-0.07,0.87,0.9966000000000008,163.1072,-109.911,175,75
2026-05-11 17:54:58.787,3,3.03,-2.31,-1.0,-247.0534,-454.20279999999997,17.288999999999998,175,75
2026-05-11 17:54:58.800,3,-0.42,-0.56,-2.19,-212.7834,-577.6827999999999,165.399,175,75
2026-05-11 17:54:58.816,3,-3.24,-1.48,-2.35,-66.4434,24.937199999999997,154.47899999999998,175,75
2026-05-11 17:54:58.816,3,-1.25,-2.3,-1.8,99.4066,402.8672,35.399,175,75
2026-05-11 17:54:58.833,3,1.16,-1.9,2.01,230.5066,194.8772,-25.211000000000002,175,75
2026-05-11 17:54:58.864,3,-1.27,-1.22,1.93,27.756600000000002,-48.8428,94.599,175,75
2026-05-11 17:54:58.910,3,-1.12,-1.68,0.43,-64.1934,19.397199999999998,-99.601,175,75
2026-05-11 17:54:58.918,3,-0.65,-1.62,0.61,-72.1134,8.357199999999999,-144.421,175,75
2026-05-11 17:54:58.964,3,0.06,-2.19,0.03,-125.1034,-104.93280000000001,-103.021,175,75
2026-05-11 17:54:58.975,3,0.26,-2.05,-0.4,-141.3234,-111.58279999999999,-109.601,175,75
2026-05-11 17:54:58.985,3,0.38,-1.18,-0.91,-168.5834,-109.6328,-103.871,175,75
2026-05-11 17:54:58.995,3,0.16,0.02,-0.27,-72.60340000000001,-67.0128,-80.941,175,75
2026-05-11 17:54:59.020,3,-1.08,-0.43,0.59,107.0266,-135.0028,99.179,175,75
2026-05-11 17:54:59.031,3,-1.82,-0.4,1.05,189.7166,-148.7128,164.41899999999998,175,75
2026-05-11 17:54:59.075,3,-1.4,-2.66,0.79,141.9066,-198.1728,197.899,175,75
2026-05-11 17:54:59.111,3,0.24,0.05,-0.32,221.3566,31.2872,144.849,175,75
2026-05-11 17:54:59.133,3,0.16,-0.26,0.09,199.2866,36.6472,101.979,175,75
2026-05-11 17:54:59.144,3,0.5,0.23,0.17,148.3066,-4.6328,54.849,175,75
2026-05-11 17:54:59.198,3,0.37,0.46,0.0,130.9366,-21.2128,65.279,175,75
2026-05-11 17:54:59.210,3,0.14,0.4,-0.16,121.47659999999999,-2.1327999999999996,59.059,175,75
2026-05-11 17:54:59.210,3,0.06,0.37,-0.25,109.0466,34.8772,40.819,175,75
2026-05-11 17:54:59.230,3,0.02,0.5,-0.18,93.1866,60.427200000000006,24.598999999999997,175,75
2026-05-11 17:54:59.256,3,0.05,0.89,0.55,-18.6434,-84.1428,-33.260999999999996,175,75
2026-05-11 17:54:59.258,3,-0.19,1.02,0.25,-42.303399999999996,-121.9528,-30.941000000000003,175,75
2026-05-11 17:54:59.308,3,0.07,0.74,-0.19,-113.27340000000001,54.6372,-82.161,175,75
2026-05-11 17:54:59.329,3,0.08,-0.54,0.24,-189.0634,125.00719999999998,-191.62099999999998,175,75
2026-05-11 17:54:59.345,3,-2.24,0.17,1.29,-179.1934,102.8672,-142.711,175,75
2026-05-11 17:54:59.359,3,-2.31,-12.45,8.6,14.046600000000002,-954.3228,-409.481,175,75
2026-05-11 17:54:59.380,3,-1.07,-2.09,0.81,-458.2734,-215.0628,-856.0709999999999,175,75
2026-05-11 17:54:59.396,3,-2.03,-1.73,-1.81,-330.59340000000003,-275.7928,169.11899999999997,175,75
2026-05-11 17:54:59.463,3,-0.21,0.39,0.18,-34.8634,-99.5128,-8.141,175,75
2026-05-11 17:54:59.463,3,-0.96,-0.51,-0.14,53.5566,-46.2128,24.299,175,75
2026-05-11 17:54:59.485,3,-1.8,-1.03,0.18,168.6766,100.91720000000001,52.528999999999996,175,75
2026-05-11 17:54:59.507,3,-1.85,-1.26,0.83,247.0266,202.9272,87.959,175,75
2026-05-11 17:54:59.514,3,-1.02,-1.6,1.11,219.6566,114.3272,0.6989999999999998,175,75
2026-05-11 17:54:59.529,3,-0.35,-0.71,0.92,111.4166,57.6872,-48.081,175,75
2026-05-11 17:54:59.540,3,0.14,0.31,0.44,119.9566,1.2871999999999986,120.879,175,75
2026-05-11 17:54:59.563,3,0.05,-0.38,0.31,118.2466,-9.0228,50.339,175,75
2026-05-11 17:54:59.578,3,0.3,-0.24,0.41,107.75659999999999,-7.502800000000001,46.559,175,75
2026-05-11 17:54:59.613,3,-0.1,-0.29,0.38,86.2966,-63.7828,53.449,175,75
2026-05-11 17:54:59.631,3,-0.23,-0.42,0.31,74.7766,-37.1328,33.809,175,75
2026-05-11 17:54:59.631,3,-0.25,-0.46,0.36,67.8866,-16.6428,14.538999999999998,175,75
2026-05-11 17:54:59.638,3,-0.28,-0.41,0.48,64.5866,-10.9128,-1.4910000000000005,175,75
2026-05-11 17:54:59.654,3,-0.35,-0.17,0.56,52.6366,-30.7328,-9.361,175,75
2026-05-11 17:54:59.654,3,-0.39,0.04,0.54,34.4666,-42.0728,-16.921,175,75
2026-05-11 17:54:59.680,3,-0.36,0.36,0.43,1.6666000000000007,-31.7028,-35.941,175,75
2026-05-11 17:54:59.731,3,-0.33,0.07,0.3,-39.3734,13.657199999999996,-77.901,175,75
2026-05-11 17:54:59.782,3,-0.26,-0.24,0.3,-52.97339999999999,124.93719999999999,-120.821,175,75
2026-05-11 17:54:59.833,3,-0.69,-0.64,0.27,-41.9334,262.6872,-162.901,175,75
2026-05-11 17:54:59.889,3,-0.95,-0.78,0.15,-23.153399999999998,315.79720000000003,-175.70100000000002,175,75
2026-05-11 17:54:59.900,3,-1.06,-0.74,0.13,4.776600000000002,354.7572,-182.711,175,75
2026-05-11 17:54:59.932,3,-1.12,-0.66,0.47,59.3466,386.46720000000005,-172.411,175,75
2026-05-11 17:54:59.964,3,-2.02,-0.03,1.65,122.75659999999999,388.23720000000003,-9.481000000000002,175,75
2026-05-11 17:54:59.997,3,-0.78,-1.4,-1.36,-103.88340000000001,-167.1328,91.739,175,75
2026-05-11 17:55:00.024,3,-0.31,-1.96,-0.57,135.0166,182.4372,-6.371,175,75
2026-05-11 17:55:00.038,3,0.8,-1.63,2.06,167.2766,217.0172,-2.0410000000000004,175,75
2026-05-11 17:55:00.038,3,0.3,-2.25,2.07,72.8266,78.65719999999999,53.629,175,75
2026-05-11 17:55:00.048,3,-0.45,-3.02,1.65,-28.763399999999997,-72.6828,98.319,175,75
2026-05-11 17:55:00.059,3,-1.1,-1.89,0.72,-52.9134,-129.2028,80.459,175,75
2026-05-11 17:55:00.059,3,-1.39,-1.11,0.45,-6.8134,-55.4828,12.099,175,75
2026-05-11 17:55:00.079,3,-1.34,-1.05,0.33,-0.28339999999999854,-1.6428000000000011,-41.071,175,75
2026-05-11 17:55:00.079,3,-1.14,-1.6,0.32,-35.10339999999999,-17.492800000000003,-51.921,175,75
2026-05-11 17:55:00.104,3,-0.78,-2.27,0.19,-66.2634,-38.4728,-102.651,175,75
2026-05-11 17:55:00.116,3,0.4,-1.97,0.18,-59.00339999999999,-85.6728,-92.961,175,75
2026-05-11 17:55:00.127,3,0.7,-1.45,-0.54,-82.4234,-172.2528,-55.881,175,75
2026-05-11 17:55:00.172,3,0.51,-0.63,-1.09,-22.1134,-90.4228,-25.401,175,75
2026-05-11 17:55:00.183,3,0.36,-0.67,-0.59,35.016600000000004,-47.312799999999996,-8.141,175,75
2026-05-11 17:55:00.214,3,-0.29,-1.02,-0.22,142.3366,-53.0428,47.589,175,75
2026-05-11 17:55:00.226,3,-1.26,-1.0,-0.08,223.9766,23.5372,101.739,175,75
2026-05-11 17:55:00.238,3,-1.59,-1.22,0.1,318.1266,122.37719999999999,138.37900000000002,175,75
2026-05-11 17:55:00.262,3,-0.07,-1.94,0.47,281.1166,177.56719999999999,-0.7010000000000005,175,75
2026-05-11 17:55:00.278,3,0.77,0.02,-0.23,245.07659999999998,63.3572,123.509,175,75
2026-05-11 17:55:00.294,3,-0.0,-0.03,0.35,246.0566,53.4172,128.019,175,75
2026-05-11 17:55:00.294,3,0.16,-0.23,-0.12,207.9466,-15.6728,109.119,175,75
2026-05-11 17:55:00.306,3,0.12,-0.44,-1.2,173.79659999999998,-71.4028,-48.021,175,75
2026-05-11 17:55:00.318,3,0.3,-0.31,-1.17,171.7866,34.5172,-40.761,175,75
2026-05-11 17:55:00.327,3,0.32,-0.4,-0.76,155.5066,82.0772,-49.241,175,75
2026-05-11 17:55:00.339,3,0.2,-0.54,-0.51,127.33659999999999,34.2072,-88.871,175,75
2026-05-11 17:55:00.350,3,-0.02,-0.15,-0.42,21.6066,38.5972,-147.531,175,75
2026-05-11 17:55:00.362,3,-0.01,-0.07,-0.35,-21.563399999999994,12.9272,-183.32100000000003,175,75
2026-05-11 17:55:00.362,3,-0.1,0.03,-0.23,-73.7634,-5.912800000000001,-212.351,175,75
2026-05-11 17:55:00.377,3,-0.0,0.05,-0.06,-146.9934,-58.7128,-245.64100000000002,175,75
2026-05-11 17:55:00.389,3,-0.26,0.13,-0.1,-170.2234,-65.7328,-245.091,175,75
2026-05-11 17:55:00.400,3,-0.61,0.34,-0.26,-201.6934,-22.3728,-233.93099999999998,175,75
2026-05-11 17:55:00.404,3,-0.6,0.22,-0.23,-221.0834,24.397199999999998,-236.43099999999998,175,75
2026-05-11 17:55:00.415,3,-0.73,0.03,0.11,-233.1534,52.8072,-231.31099999999998,175,75
2026-05-11 17:55:00.428,3,-1.13,0.09,0.55,-237.7834,80.7972,-221.19099999999997,175,75
2026-05-11 17:55:00.454,3,-1.59,-0.38,1.19,-194.0634,132.9872,-144.24099999999999,175,75
2026-05-11 17:55:00.478,3,-2.25,-1.12,1.45,-154.98340000000002,164.69719999999998,-90.641,175,75
2026-05-11 17:55:00.492,3,-3.04,-0.09,1.94,-90.10340000000001,230.4872,-129.051,175,75
2026-05-11 17:55:00.514,3,-2.27,0.46,2.77,-92.1734,201.6472,-127.591,175,75
2026-05-11 17:55:00.523,3,-4.29,1.49,3.0,-94.8634,56.767199999999995,101.069,175,75
2026-05-11 17:55:00.575,3,3.94,-2.71,-0.24,-497.7234,-575.7927999999999,107.529,175,75
2026-05-11 17:55:00.585,3,-1.17,-1.22,-1.44,-449.6134,-351.70279999999997,89.909,175,75
2026-05-11 17:55:00.595,3,1.56,-2.87,-3.01,143.1866,92.19720000000001,-93.261,175,75
2026-05-11 17:55:00.609,3,0.63,-1.94,-0.87,200.32659999999998,257.6272,68.139,175,75
2026-05-11 17:55:00.633,3,0.65,-1.72,1.01,175.2566,49.3272,-10.151,175,75
2026-05-11 17:55:00.671,3,1.29,-1.39,0.36,117.1566,-120.6728,63.869,175,75
2026-05-11 17:55:00.695,3,0.06,-1.5,-0.83,145.8666,-172.0128,88.259,175,75
2026-05-11 17:55:00.718,3,0.11,-0.99,-0.03,300.4466,212.3772,38.689,175,75
2026-05-11 17:55:00.718,3,1.1,-1.53,0.91,294.3466,105.06719999999999,50.028999999999996,175,75
2026-05-11 17:55:00.730,3,0.84,-1.76,0.74,171.1766,-61.8928,54.419,175,75
2026-05-11 17:55:00.740,3,0.19,-1.64,-0.21,85.5666,-93.78280000000001,36.799,175,75
2026-05-11 17:55:00.776,3,-0.17,-1.4,-0.56,73.0066,-19.4528,-9.051,175,75
2026-05-11 17:55:00.807,3,0.1,-0.58,-0.15,39.3466,37.5672,-43.381,175,75
2026-05-11 17:55:00.807,3,-0.11,-0.28,-0.01,-0.593399999999999,6.767199999999999,-43.321,175,75
2026-05-11 17:55:00.820,3,-0.25,-0.17,0.0,-33.703399999999995,-15.1828,-57.411,175,75
2026-05-11 17:55:00.841,3,-0.3,-0.14,-0.0,-60.28339999999999,-30.672800000000002,-63.631,175,75
2026-05-11 17:55:00.841,3,-0.35,-0.11,0.0,-88.6434,-31.2828,-68.511,175,75
2026-05-11 17:55:00.872,3,-0.51,0.12,0.09,-134.5534,-17.2528,-86.801,175,75
2026-05-11 17:55:00.872,3,-0.51,0.29,0.15,-152.7234,-9.632800000000001,-102.161,175,75
2026-05-11 17:55:00.895,3,-0.46,0.79,0.35,-188.5834,22.197200000000002,-124.911,175,75
2026-05-11 17:55:00.922,3,-0.62,0.64,0.45,-189.3734,37.1972,-117.651,175,75
2026-05-11 17:55:00.922,3,-0.94,0.36,0.61,-181.6934,67.43719999999999,-121.131,175,75
2026-05-11 17:55:00.934,3,-1.29,0.26,0.82,-166.9934,74.0272,-132.651,175,75
2026-05-11 17:55:00.944,3,-1.76,0.35,0.96,-146.4434,85.4872,-143.87099999999998,175,75
2026-05-11 17:55:00.985,3,-1.5,-0.23,1.23,-35.413399999999996,310.6772,-117.961,175,75
2026-05-11 17:55:00.996,3,-1.44,-0.32,1.31,-5.4734,296.09720000000004,-114.301,175,75
2026-05-11 17:55:01.006,3,-1.63,0.3,1.04,15.686600000000002,241.15720000000002,-64.241,175,75
2026-05-11 17:55:01.058,3,-3.12,0.63,1.04,51.7866,228.5972,109.059,175,75
2026-05-11 17:55:01.058,3,-5.6,2.09,2.75,223.4966,331.15720000000005,363.199,175,75
2026-05-11 17:55:01.121,3,4.63,-2.5,0.04,-288.7634,-496.70279999999997,155.699,175,75
2026-05-11 17:55:01.298,3,-0.09,-2.49,-1.18,211.1166,280.60720000000003,-17.161,175,75
2026-05-11 17:55:01.309,3,-0.33,-0.77,1.53,-46.1434,-62.1928,46.859,175,75
2026-05-11 17:55:01.322,3,-1.77,-1.63,0.39,-60.7134,-59.5128,22.038999999999998,175,75
2026-05-11 17:55:01.343,3,-1.54,-0.9,0.78,402.8866,176.4072,167.779,175,75
2026-05-11 17:55:01.345,3,-0.07,-1.9,1.0,394.7766,155.3072,129.849,175,75
2026-05-11 17:55:01.359,3,0.81,-2.27,0.94,257.08660000000003,-45.3628,80.279,175,75
2026-05-11 17:55:01.396,3,0.91,-1.21,-0.15,146.6666,-190.9128,109.359,175,75
2026-05-11 17:55:01.396,3,0.32,-0.59,-0.94,158.0066,-227.68280000000001,118.509,175,75
2026-05-11 17:55:01.422,3,-0.22,-0.93,-1.23,176.3566,-121.7028,74.969,175,75
2026-05-11 17:55:01.432,3,-0.2,-1.06,-1.15,168.3066,-50.1828,57.528999999999996,175,75
2026-05-11 17:55:01.451,3,-0.15,-1.06,-1.0,156.9066,2.0771999999999977,34.179,175,75
2026-05-11 17:55:01.464,3,-0.17,-0.79,-0.42,122.5166,77.31719999999999,3.1389999999999993,175,75
2026-05-11 17:55:01.486,3,-0.26,-0.64,-0.1,86.0566,57.8072,-22.411,175,75
2026-05-11 17:55:01.498,3,-0.6,-0.38,-0.05,-20.283399999999993,-5.002800000000001,-90.521,175,75
2026-05-11 17:55:01.509,3,-0.82,-0.24,-0.2,-75.0434,8.537199999999999,-128.571,175,75
2026-05-11 17:55:01.519,3,-0.91,-0.11,-0.24,-111.7534,34.0872,-157.351,175,75
2026-05-11 17:55:01.519,3,-1.06,0.1,-0.21,-151.1434,59.9372,-196.49099999999999,175,75
2026-05-11 17:55:01.527,3,-1.16,0.22,-0.16,-178.70340000000002,95.8572,-228.26100000000002,175,75
2026-05-11 17:55:01.553,3,-1.04,0.13,-0.06,-198.5234,131.5872,-234.301,175,75
2026-05-11 17:55:01.660,3,-0.92,-0.21,0.48,-251.6934,147.19719999999998,-236.62099999999998,175,75
2026-05-11 17:55:01.673,3,-0.55,-0.11,0.8,-311.8134,136.6472,-278.81100000000004,175,75
2026-05-11 17:55:01.685,3,-0.77,-0.06,0.88,-321.5034,137.25719999999998,-277.411,175,75
2026-05-11 17:55:01.695,3,-1.38,0.02,0.95,-307.4234,144.3272,-270.401,175,75
2026-05-11 17:55:01.732,3,-2.07,0.0,1.04,-278.2734,172.0172,-263.871,175,75
2026-05-11 17:55:01.758,3,8.78,-3.51,0.7,-244.92340000000002,-521.7028,14.239,175,75
2026-05-11 17:55:01.776,3,-3.73,-0.96,-2.61,-488.9434,-143.5928,146.24900000000002,175,75
2026-05-11 17:55:01.786,3,-1.11,-1.68,-3.93,-101.9334,240.8572,-135.33100000000002,175,75
2026-05-11 17:55:01.815,3,1.02,-2.06,-2.01,419.8366,194.3972,-103.631,175,75
2026-05-11 17:55:01.815,3,0.86,-0.94,0.34,289.0466,243.7872,143.68900000000002,175,75
2026-05-11 17:55:01.825,3,0.32,-1.54,0.85,306.2366,77.49719999999999,109.969,175,75
2026-05-11 17:55:01.825,3,0.45,-2.41,0.87,283.8566,-42.802800000000005,70.339,175,75
2026-05-11 17:55:01.836,3,0.79,-2.58,0.13,186.0566,-158.4728,62.649,175,75
2026-05-11 17:55:01.849,3,-0.23,-1.95,-1.3,207.4566,-96.8928,70.209,175,75
2026-05-11 17:55:01.862,3,-0.42,-1.58,-1.35,262.02660000000003,33.2372,53.509,175,75
2026-05-11 17:55:01.862,3,-0.46,-1.14,0.5,308.3066,189.5172,39.669,175,75
2026-05-11 17:55:01.870,3,-0.26,-1.52,1.06,263.6766,150.1872,41.739,175,75
2026-05-11 17:55:01.881,3,-0.11,-1.75,0.52,27.4566,-101.52279999999999,15.088999999999999,175,75
2026-05-11 17:55:01.881,3,-0.36,-1.12,-0.29,-43.1534,-125.4828,-10.941,175,75
2026-05-11 17:55:01.892,3,-0.46,-0.43,-0.86,-45.413399999999996,-80.06280000000001,-40.461,175,75
2026-05-11 17:55:01.903,3,-0.07,0.11,-0.72,-51.383399999999995,51.157199999999996,-68.511,175,75
2026-05-11 17:55:01.918,3,-0.08,0.01,-0.3,-89.0634,87.56719999999999,-59.971000000000004,175,75
2026-05-11 17:55:01.930,3,-0.27,-0.11,-0.04,-123.70340000000002,83.78720000000001,-71.311,175,75
2026-05-11 17:55:01.944,3,-0.39,-0.12,0.07,-154.98340000000002,71.15719999999999,-97.531,175,75
2026-05-11 17:55:01.955,3,-0.34,0.07,0.01,-202.6634,65.24719999999999,-129.851,175,75
2026-05-11 17:55:01.975,3,-0.27,0.37,-0.01,-245.47340000000003,118.90719999999999,-143.93099999999998,175,75
2026-05-11 17:55:01.985,3,-0.46,-0.04,0.16,-252.3034,168.9672,-164.361,175,75
2026-05-11 17:55:01.998,3,-0.69,-0.31,0.26,-245.47340000000003,197.6272,-180.461,175,75
2026-05-11 17:55:01.998,3,-1.01,-0.52,0.35,-225.4134,224.75719999999998,-190.88100000000003,175,75
2026-05-11 17:55:02.021,3,-1.3,-0.68,0.59,-188.5834,268.04720000000003,-200.211,175,75
2026-05-11 17:55:02.026,3,-1.42,-0.79,0.89,-145.2234,316.34720000000004,-201.31099999999998,175,75
2026-05-11 17:55:02.038,3,-1.55,-0.82,1.28,-97.1734,330.3672,-182.901,175,75
2026-05-11 17:55:02.038,3,-1.7,-0.77,1.55,-51.383399999999995,301.7672,-162.77100000000002,175,75
2026-05-11 17:55:02.051,3,-0.75,-1.59,0.27,-51.203399999999995,266.8972,-199.481,175,75
2026-05-11 17:55:02.066,3,-2.15,-0.33,1.99,-22.603399999999993,252.3772,-139.971,175,75
2026-05-11 17:55:02.086,3,-1.04,1.12,1.66,-10.343399999999997,152.56719999999999,-41.071,175,75
2026-05-11 17:55:02.134,3,-2.78,1.47,1.93,43.6166,126.46719999999999,145.339,175,75
2026-05-11 17:55:02.134,3,-4.87,2.35,3.09,214.1066,227.0772,341.679,175,75
2026-05-11 17:55:02.145,3,-3.23,-0.47,3.9,494.71659999999997,357.0172,316.61899999999997,175,75
2026-05-11 17:55:02.181,3,2.97,-6.2,2.03,255.1366,-136.6428,-16.371000000000002,175,75
2026-05-11 17:55:02.202,3,3.39,-4.12,-1.75,-360.34340000000003,-758.6528,266.979,175,75
2026-05-11 17:55:02.231,3,-1.63,-2.59,-3.71,175.6266,443.47720000000004,29.119,175,75
2026-05-11 17:55:02.243,3,-0.09,-2.1,-0.54,554.8966,442.6272,-123.571,175,75
2026-05-11 17:55:02.283,3,1.03,-1.11,2.69,613.9766000000001,492.07720000000006,-49.421,175,75
2026-05-11 17:55:02.295,3,0.22,0.87,3.83,281.0566,313.78720000000004,226.67899999999997,175,75
2026-05-11 17:55:02.307,3,-0.92,-1.25,2.68,-89.8634,-219.5128,104.789,175,75
2026-05-11 17:55:02.344,3,-1.91,-1.12,-0.43,-54.1334,-163.0428,63.259,175,75
2026-05-11 17:55:02.352,3,-2.0,-1.51,-0.63,-6.933399999999997,-29.1428,-11.131,175,75
2026-05-11 17:55:02.398,3,0.77,-2.68,1.05,-70.5934,-124.6928,-50.701,175,75
2026-05-11 17:55:02.410,3,1.29,-2.32,0.09,-93.3934,-260.6728,-36.801,175,75
2026-05-11 17:55:02.421,3,0.97,-1.53,-1.19,-120.89340000000001,-293.53279999999995,-12.161000000000001,175,75
2026-05-11 17:55:02.426,3,0.04,-0.5,-1.47,29.046600000000005,-38.9628,-22.771,175,75
2026-05-11 17:55:02.447,3,-0.08,-0.62,-0.95,126.6066,61.157199999999996,-6.431000000000001,175,75
2026-05-11 17:55:02.459,3,-0.98,-0.81,0.02,258.0666,49.267199999999995,63.809,175,75
2026-05-11 17:55:02.480,3,0.82,-1.66,0.86,275.7466,40.3072,64.179,175,75
2026-05-11 17:55:02.485,3,0.82,-0.95,0.35,185.7466,-132.2528,103.449,175,75
2026-05-11 17:55:02.504,3,0.29,-0.63,-0.28,150.1366,-212.68280000000001,119.119,175,75
2026-05-11 17:55:02.528,3,0.07,-0.74,-0.7,133.85660000000001,-225.5428,94.479,175,75
2026-05-11 17:55:02.539,3,-0.16,-0.88,-1.09,123.2466,-201.1528,66.859,175,75
2026-05-11 17:55:02.551,3,-0.25,-0.99,-1.23,130.13660000000002,-74.6928,20.149,175,75
2026-05-11 17:55:02.562,3,-0.17,-0.87,-0.91,134.3466,7.1372,1.859,175,75
2026-05-11 17:55:02.573,3,-0.2,-0.81,-0.63,126.6666,40.7972,-7.961000000000001,175,75
2026-05-11 17:55:02.583,3,-0.36,-0.7,-0.33,112.4566,61.407199999999996,-24.911,175,75
2026-05-11 17:55:02.595,3,-0.62,-0.62,-0.11,86.6066,57.4372,-50.211,175,75
2026-05-11 17:55:02.605,3,-0.83,-0.67,-0.02,57.21660000000001,47.627199999999995,-79.661,175,75
2026-05-11 17:55:02.605,3,-1.09,-0.71,-0.09,16.9666,43.787200000000006,-119.721,175,75
2026-05-11 17:55:02.623,3,-1.43,-0.49,-0.32,-40.53339999999999,70.4272,-170.211,175,75
2026-05-11 17:55:02.623,3,-1.59,-0.24,-0.49,-76.63340000000001,103.1072,-205.27100000000002,175,75
2026-05-11 17:55:02.637,3,-1.83,0.19,-0.55,-109.74340000000001,180.1872,-248.69099999999997,175,75
2026-05-11 17:55:02.648,3,-1.6,0.33,-0.23,-121.20340000000002,250.9772,-270.331,175,75
2026-05-11 17:55:02.658,3,-1.25,0.19,0.22,-139.8634,262.5672,-275.821,175,75
2026-05-11 17:55:02.670,3,-0.86,-0.11,0.69,-177.5434,204.0872,-282.411,175,75
2026-05-11 17:55:02.681,3,-0.8,-0.32,0.93,-224.92340000000002,96.34719999999999,-291.62100000000004,175,75
2026-05-11 17:55:02.695,3,-1.9,0.12,0.26,-340.34340000000003,131.0972,-289.051,175,75
2026-05-11 17:55:02.708,3,-1.69,0.09,-0.07,-356.9934,172.9872,-290.211,175,75
2026-05-11 17:55:02.722,3,-6.26,0.84,3.44,-7.243399999999999,644.2072000000001,-15.761000000000001,175,75
2026-05-11 17:55:02.734,3,-8.56,1.49,7.95,639.4066,1151.8272,291.859,175,75
2026-05-11 17:55:02.734,3,-9.06,2.63,9.91,1146.2966000000001,-7.1328,493.019,175,75
2026-05-11 17:55:02.745,3,-8.36,1.52,12.58,1044.1666,-697.8628,-317.291,175,75
2026-05-11 17:55:02.756,3,13.86,-2.9,-2.21,-177.7834,232.6272,-841.251,175,75
2026-05-11 17:55:02.756,3,2.18,2.5,1.29,-941.9934,-905.3027999999999,656.369,175,75
2026-05-11 17:55:02.793,3,-1.32,-2.2,-0.68,-539.9233999999999,12.9272,-6.371,175,75
2026-05-11 17:55:02.805,3,-0.61,-3.88,-2.55,9.716600000000001,-344.20279999999997,-192.041,175,75
2026-05-11 17:55:02.805,3,-1.32,-2.64,-2.83,92.39659999999999,23.3572,-224.24099999999999,175,75
2026-05-11 17:55:02.840,3,0.87,-1.68,1.46,283.6766,34.9372,119.789,175,75
2026-05-11 17:55:02.859,3,0.12,-2.77,1.18,150.2566,-118.84280000000001,92.469,175,75
2026-05-11 17:55:02.874,3,0.28,-1.71,-0.74,140.0166,-81.58279999999999,29.969,175,75
2026-05-11 17:55:02.896,3,0.13,-1.32,-0.98,212.51659999999998,0.9172000000000011,36.429,175,75
2026-05-11 17:55:02.909,3,-0.15,-1.18,-0.77,249.8366,110.06719999999999,43.319,175,75
2026-05-11 17:55:02.909,3,-0.26,-1.04,-0.22,282.8866,195.7972,36.009,175,75
2026-05-11 17:55:02.920,3,-0.46,-0.74,0.01,262.39660000000003,172.19719999999998,12.709,175,75
2026-05-11 17:55:02.935,3,-0.39,-1.31,1.9,301.7866,111.8272,63.629000000000005,175,75
2026-05-11 17:55:02.961,3,-0.16,-1.79,1.14,128.7366,-84.08279999999999,46.919,175,75
2026-05-11 17:55:02.961,3,-0.42,-1.51,0.28,43.0666,-78.53280000000001,31.488999999999997,175,75
2026-05-11 17:55:02.976,3,-0.44,-0.99,-0.35,28.736600000000003,-52.6228,-0.15100000000000158,175,75
2026-05-11 17:55:02.993,3,-0.42,-0.6,-0.53,27.276600000000002,-39.6328,-36.801,175,75
2026-05-11 17:55:03.003,3,-0.42,-0.3,-0.46,5.866600000000002,-5.1828,-61.981,175,75
2026-05-11 17:55:03.013,3,-0.42,-0.16,-0.14,-60.89339999999999,24.757199999999997,-76.371,175,75
2026-05-11 17:55:03.029,3,-0.52,-0.19,0.11,-102.1134,19.517200000000003,-95.331,175,75
2026-05-11 17:55:03.046,3,-0.61,-0.14,0.18,-144.8034,7.377199999999998,-114.721,175,75
2026-05-11 17:55:03.067,3,-0.51,-0.03,0.1,-224.8034,6.4072,-148.20100000000002,175,75
2026-05-11 17:55:03.080,3,-0.48,-0.05,0.07,-249.4334,16.2172,-153.44099999999997,175,75
2026-05-11 17:55:03.093,3,-0.52,-0.12,0.04,-266.5034,38.8472,-154.721,175,75
2026-05-11 17:55:03.116,3,-0.7,-0.53,0.03,-283.8834,108.1072,-161.01100000000002,175,75
2026-05-11 17:55:03.123,3,-0.98,-0.83,0.12,-279.4334,137.25719999999998,-172.411,175,75
2026-05-11 17:55:03.147,3,-1.44,-1.19,0.29,-218.45340000000002,266.09720000000004,-168.44099999999997,175,75
2026-05-11 17:55:03.159,3,-1.36,-1.17,0.75,-159.6134,326.21720000000005,-169.851,175,75
2026-05-11 17:55:03.174,3,-1.2,-1.03,1.28,-104.13340000000001,322.6872,-182.101,175,75
2026-05-11 17:55:03.186,3,-0.97,-0.91,1.71,-83.52340000000001,262.3772,-203.20100000000002,175,75
2026-05-11 17:55:03.198,3,-0.89,-0.49,1.82,-111.38340000000001,184.0872,-193.87099999999998,175,75
2026-05-11 17:55:03.210,3,-1.15,0.45,1.33,-133.5834,136.6472,-115.70100000000001,175,75
2026-05-11 17:55:03.233,3,-1.03,0.77,0.95,-112.60340000000001,136.9572,-75.641,175,75
2026-05-11 17:55:03.254,3,-0.65,0.69,0.79,-46.2634,136.0972,-50.941,175,75
2026-05-11 17:55:03.268,3,-0.85,0.54,1.44,34.2866,133.0472,3.2589999999999986,175,75
2026-05-11 17:55:03.268,3,-2.87,1.36,2.02,67.3366,99.4572,140.279,175,75
2026-05-11 17:55:03.281,3,-3.41,-0.24,3.57,445.9966,302.6872,299.969,175,75
2026-05-11 17:55:03.296,3,2.52,-6.31,1.15,186.6066,-104.6928,33.319,175,75
2026-05-11 17:55:03.296,3,2.58,-6.19,-1.58,-291.5634,-540.5427999999999,200.81900000000002,175,75
2026-05-11 17:55:03.335,3,-4.19,0.35,-2.28,-292.5434,-484.9328,367.409,175,75
2026-05-11 17:55:03.347,3,-2.46,-0.9,-2.97,96.2366,219.1472,95.699,175,75
2026-05-11 17:55:03.347,3,0.9,-1.56,0.0,557.4566000000001,488.7872,-75.211,175,75
2026-05-11 17:55:03.375,3,0.79,-0.32,3.54,495.0766,478.41720000000004,148.56900000000002,175,75
2026-05-11 17:55:03.393,3,-0.77,-0.1,4.15,236.6666,142.31719999999999,184.05900000000003,175,75
2026-05-11 17:55:03.404,3,-1.13,-0.39,2.84,-115.77340000000001,-270.1828,149.72899999999998,175,75
2026-05-11 17:55:03.404,3,-0.62,-0.94,0.58,-201.3234,-336.09279999999995,117.229,175,75
2026-05-11 17:55:03.415,3,-1.73,-0.71,-0.41,-78.1534,-146.8928,93.869,175,75
2026-05-11 17:55:03.433,3,-2.16,-0.83,-0.63,16.056600000000003,-9.5128,13.079,175,75
2026-05-11 17:55:03.433,3,-1.57,-1.69,-0.1,14.226600000000001,38.9672,-57.901,175,75
2026-05-11 17:55:03.460,3,-0.66,-1.96,0.66,42.4566,53.537200000000006,-96.251,175,75
2026-05-11 17:55:03.497,3,-0.04,-2.26,1.22,37.7566,28.1772,-31.011,175,75
2026-05-11 17:55:03.511,3,0.34,-2.44,1.17,-49.133399999999995,-28.7128,-57.351,175,75
2026-05-11 17:55:03.512,3,0.8,-2.23,0.73,-73.1534,-97.62280000000001,-53.511,175,75
2026-05-11 17:55:03.532,3,0.84,-1.77,-0.17,-74.74340000000001,-205.36280000000002,-15.641000000000002,175,75
2026-05-11 17:55:03.543,3,0.09,-0.72,-0.91,76.3566,-0.3028000000000013,-13.321000000000002,175,75
2026-05-11 17:55:03.566,3,-0.52,-0.86,-0.29,193.0666,39.81719999999999,38.379,175,75
2026-05-11 17:55:03.585,3,-1.41,-0.54,0.12,290.5066,137.3772,72.529,175,75
2026-05-11 17:55:03.596,3,-0.13,-1.44,1.11,330.1366,153.5972,71.069,175,75
2026-05-11 17:55:03.596,3,0.55,-1.51,0.93,206.54659999999998,-41.2828,55.519,175,75
2026-05-11 17:55:03.607,3,0.59,-0.87,0.09,127.75659999999999,-138.7128,80.399,175,75
2026-05-11 17:55:03.625,3,-0.06,-0.55,-0.87,139.3466,-124.3928,64.419,175,75
2026-05-11 17:55:03.641,3,-0.08,-0.65,-0.82,140.8066,-85.4828,46.309,175,75
2026-05-11 17:55:03.671,3,-0.19,-0.64,-0.63,137.63660000000002,-24.692800000000002,30.399,175,75
2026-05-11 17:55:03.701,3,-0.32,-0.62,-0.23,119.5266,46.5872,-3.6910000000000007,175,75
2026-05-11 17:55:03.701,3,-0.32,-0.56,0.02,93.2466,54.757200000000005,-29.911,175,75
2026-05-11 17:55:03.722,3,-0.64,-0.16,0.23,-49.553399999999996,16.827199999999998,-118.441,175,75
2026-05-11 17:55:03.733,3,-0.73,0.19,0.15,-94.49340000000001,21.7072,-140.94099999999997,175,75
2026-05-11 17:55:03.745,3,-0.84,0.46,0.11,-122.05340000000001,42.8072,-167.531,175,75
2026-05-11 17:55:03.768,3,-0.6,0.41,0.08,-174.8634,87.56719999999999,-184.12099999999998,175,75
2026-05-11 17:55:03.806,3,-0.43,0.25,0.14,-207.42340000000002,105.4872,-195.27100000000002,175,75
2026-05-11 17:55:03.834,3,-1.46,-0.28,0.25,-274.0634,240.5472,-287.161,175,75
2026-05-11 17:55:03.858,3,-2.97,-0.26,1.75,-152.7834,412.1372,-250.70100000000002,175,75
2026-05-11 17:55:03.868,3,-8.03,1.76,6.09,425.3266,995.4272,112.959,175,75
2026-05-11 17:55:03.873,3,-6.03,-0.84,10.18,1147.8266,416.21720000000005,380.089,175,75
2026-05-11 17:55:03.908,3,9.65,-2.98,-1.53,-492.6634,-19.692800000000002,-539.4209999999999,175,75
2026-05-11 17:55:03.908,3,3.65,2.34,-1.34,-1202.4833999999998,-777.5627999999999,473.019,175,75
2026-05-11 17:55:03.918,3,-2.32,2.02,0.14,-1041.2634,-16.7628,196.00900000000001,175,75
2026-05-11 17:55:03.932,3,-1.26,-1.15,-2.4,-552.4834,-173.5928,-22.901000000000003,175,75
2026-05-11 17:55:03.943,3,-1.12,-2.93,-3.79,131.2966,-309.8728,-97.531,175,75
2026-05-11 17:55:03.958,3,-1.95,-2.17,-3.11,246.9066,154.8772,-156.551,175,75
2026-05-11 17:55:03.970,3,0.58,-0.04,-0.68,105.9366,625.6072,-114.361,175,75
2026-05-11 17:55:03.973,3,1.75,0.57,0.91,205.1366,409.6972,70.459,175,75
2026-05-11 17:55:04.016,3,-0.19,-1.55,0.3,109.83659999999999,88.3572,9.479,175,75
2026-05-11 17:55:04.016,3,0.04,-0.83,-0.21,161.4166,114.4572,5.279,175,75
2026-05-11 17:55:04.037,3,-0.12,-0.51,-0.21,213.9166,139.3272,27.098999999999997,175,75
2026-05-11 17:55:04.048,3,-0.4,-0.38,0.36,250.5666,210.6772,46.859,175,75
2026-05-11 17:55:04.061,3,-0.42,-0.66,1.25,225.4466,129.8772,26.308999999999997,175,75
2026-05-11 17:55:04.073,3,-0.22,-0.73,1.42,199.3466,71.40719999999999,27.528999999999996,175,75
2026-05-11 17:55:04.091,3,-0.09,-1.02,1.01,134.9566,-29.7528,55.458999999999996,175,75
2026-05-11 17:55:04.101,3,-0.34,-1.13,0.56,77.33659999999999,-73.59280000000001,52.958999999999996,175,75
2026-05-11 17:55:04.125,3,-0.69,-0.64,-0.36,29.2866,-55.6028,3.199,175,75
2026-05-11 17:55:04.160,3,-0.5,-0.3,0.06,-14.003399999999997,-7.252800000000001,-31.251,175,75
2026-05-11 17:55:04.173,3,-0.7,-0.4,0.09,-55.47339999999999,-18.5328,-54.121,175,75
2026-05-11 17:55:04.179,3,-0.74,-0.41,-0.04,-89.8634,-2.9228000000000023,-90.881,175,75
2026-05-11 17:55:04.191,3,-0.62,-0.4,-0.12,-117.17340000000002,38.8472,-116.371,175,75
2026-05-11 17:55:04.202,3,-0.6,-0.42,-0.15,-134.8034,81.7672,-121.551,175,75
2026-05-11 17:55:04.227,3,-0.84,-0.78,-0.17,-161.8734,158.7172,-138.57100000000003,175,75
2026-05-11 17:55:04.238,3,-0.94,-0.98,-0.26,-172.9734,197.9872,-159.911,175,75
2026-05-11 17:55:04.248,3,-0.88,-1.13,-0.34,-172.7834,234.08719999999997,-182.531,175,75
2026-05-11 17:55:04.272,3,-0.7,-1.05,-0.36,-145.4134,285.97720000000004,-195.461,175,75
2026-05-11 17:55:04.272,3,-0.82,-0.66,-0.12,-110.77340000000001,347.0772,-176.62099999999998,175,75
2026-05-11 17:55:04.282,3,-0.94,-0.39,0.14,-88.3934,363.53720000000004,-153.93099999999998,175,75
2026-05-11 17:55:04.295,3,-0.86,-0.14,0.52,-66.5034,333.90720000000005,-133.321,175,75
2026-05-11 17:55:04.332,3,-0.31,0.32,1.4,-61.08339999999999,132.9272,-59.361000000000004,175,75
2026-05-11 17:55:04.335,3,-1.0,0.51,1.54,-88.3334,54.9372,0.6389999999999993,175,75
2026-05-11 17:55:04.354,3,-3.62,1.6,2.34,-6.753399999999997,14.757199999999997,182.899,175,75
2026-05-11 17:55:04.365,3,-4.14,1.25,3.4,219.1066,171.1572,227.589,175,75
2026-05-11 17:55:04.378,3,-2.44,-1.0,3.54,318.1266,123.0472,174.66899999999998,175,75
2026-05-11 17:55:04.394,3,1.9,-4.25,1.87,97.8866,-125.4228,-58.021,175,75
2026-05-11 17:55:04.403,3,2.28,-1.03,-1.4,-360.1034,-473.59279999999995,124.729,175,75
2026-05-11 17:55:04.497,3,-0.53,-0.4,2.74,-76.99340000000001,-114.75280000000001,65.759,175,75
2026-05-11 17:55:04.537,3,-0.93,-1.8,-0.06,-39.743399999999994,60.2472,-110.761,175,75
2026-05-11 17:55:04.548,3,-0.56,-1.7,0.44,-6.263399999999999,78.0472,-121.491,175,75
2026-05-11 17:55:04.590,3,0.06,-1.76,-0.24,-114.8634,-115.12280000000001,-91.071,175,75
2026-05-11 17:55:04.602,3,0.08,-1.58,-0.69,-122.24340000000001,-109.75280000000001,-76.011,175,75
2026-05-11 17:55:04.602,3,0.03,-1.0,-0.89,-102.4234,-46.4028,-74.241,175,75
2026-05-11 17:55:04.613,3,-0.1,-0.28,-0.45,-14.863399999999997,-17.2528,-44.911,175,75
2026-05-11 17:55:04.617,3,-0.32,-0.07,-0.11,66.9666,-25.1228,-0.7010000000000005,175,75
2026-05-11 17:55:04.645,3,-0.92,-0.34,0.39,154.6566,-18.7128,73.569,175,75
2026-05-11 17:55:04.645,3,-1.63,-0.5,0.78,212.8866,1.767199999999999,135.87900000000002,175,75
2026-05-11 17:55:04.668,3,-2.3,-0.66,1.38,295.3266,21.647199999999998,189.969,175,75
2026-05-11 17:55:04.668,3,-2.06,-1.46,1.49,322.2766,26.7072,186.30900000000003,175,75
2026-05-11 17:55:04.679,3,-1.26,-2.58,0.97,236.9666,9.327199999999998,103.989,175,75
2026-05-11 17:55:04.690,3,-0.59,-1.83,0.47,171.54659999999998,17.257199999999997,58.259,175,75
2026-05-11 17:55:04.703,3,0.14,-0.55,0.11,196.8466,-7.742799999999999,79.849,175,75
2026-05-11 17:55:04.716,3,-0.1,0.05,0.42,227.82659999999998,-82.7428,170.339,175,75
2026-05-11 17:55:04.738,3,-0.11,-0.34,0.44,185.8066,-118.2328,152.709,175,75
2026-05-11 17:55:04.738,3,0.03,-0.39,0.3,149.2866,-139.6328,123.199,175,75
2026-05-11 17:55:04.741,3,0.28,-0.26,0.15,134.6566,-146.8928,105.209,175,75
2026-05-11 17:55:04.754,3,0.41,0.02,0.07,121.6066,-159.08280000000002,97.649,175,75
2026-05-11 17:55:04.778,3,0.32,0.21,-0.01,108.6766,-154.99280000000002,90.029,175,75
2026-05-11 17:55:04.819,3,0.15,0.38,-0.05,75.5666,-93.4128,40.879,175,75
2026-05-11 17:55:04.841,3,0.06,0.79,-0.09,26.846600000000002,-66.4028,7.838999999999999,175,75
2026-05-11 17:55:04.861,3,0.04,0.91,-0.07,-7.113399999999997,-38.9028,-12.771,175,75
2026-05-11 17:55:04.881,3,-0.03,1.46,-0.22,-52.97339999999999,117.19719999999998,-64.661,175,75
2026-05-11 17:55:04.905,3,0.02,0.79,-0.03,-105.16340000000001,210.1272,-92.651,175,75
2026-05-11 17:55:04.916,3,0.08,0.42,0.03,-129.98340000000002,230.6072,-122.221,175,75
2026-05-11 17:55:04.945,3,-0.34,-0.12,0.13,-195.4134,247.8672,-175.52100000000002,175,75
2026-05-11 17:55:04.949,3,-0.91,-0.12,0.57,-202.8434,273.1772,-191.31099999999998,175,75
2026-05-11 17:55:04.964,3,-5.62,1.99,2.51,-142.7234,284.8772,-4.661000000000001,175,75
2026-05-11 17:55:04.977,3,-14.89,3.64,8.11,341.7866,1370.6072,730.759,175,75
2026-05-11 17:55:04.990,3,-4.48,-3.55,2.94,-339.1934,-751.6428,-690.5809999999999,175,75
2026-05-11 17:55:05.051,3,-1.06,-3.1,-1.83,107.8266,238.65720000000002,-123.931,175,75
2026-05-11 17:55:05.062,3,-0.6,-2.18,0.06,231.1166,435.0672,-141.49099999999999,175,75
2026-05-11 17:55:05.076,3,0.26,0.69,2.25,117.39659999999999,166.7072,-37.291,175,75
2026-05-11 17:55:05.089,3,-0.31,-0.14,1.97,190.1366,-44.9328,155.089,175,75
2026-05-11 17:55:05.107,3,-1.5,-1.04,1.2,216.4766,-93.4128,163.37900000000002,175,75
2026-05-11 17:55:05.179,3,-1.24,-1.98,0.43,231.0566,74.69720000000001,80.879,175,75
2026-05-11 17:55:05.179,3,-0.88,-1.36,0.26,217.4566,55.9172,50.879,175,75
2026-05-11 17:55:05.179,3,-0.28,-0.38,0.28,228.9766,92.56719999999999,77.039,175,75
2026-05-11 17:55:05.179,3,-0.04,0.0,0.62,248.4366,61.8272,165.75900000000001,175,75
2026-05-11 17:55:05.203,3,-0.23,-0.47,0.85,170.5066,-67.1928,172.529,175,75
2026-05-11 17:55:05.203,3,-0.21,-0.5,0.61,130.8066,-94.6328,155.87900000000002,175,75
2026-05-11 17:55:05.218,3,-0.21,-0.37,0.31,103.0666,-102.31280000000001,113.139,175,75
2026-05-11 17:55:05.238,3,-0.09,0.02,0.27,62.576600000000006,-95.4828,63.07899999999999,175,75
2026-05-11 17:55:05.276,3,-0.2,0.61,-0.05,-15.773399999999997,-51.1528,17.839,175,75
2026-05-11 17:55:05.286,3,-0.2,0.71,-0.04,-35.8934,-39.5728,-0.8810000000000011,175,75
2026-05-11 17:55:05.297,3,-0.22,0.73,-0.03,-60.7734,-29.3928,-17.161,175,75
2026-05-11 17:55:05.308,3,-0.28,0.62,-0.03,-83.88340000000001,-16.8228,-27.101,175,75
2026-05-11 17:55:05.325,3,-0.33,0.37,-0.02,-113.27340000000001,-1.7027999999999999,-47.411,175,75
2026-05-11 17:55:05.346,3,-0.34,-0.07,0.02,-155.1634,37.8072,-85.581,175,75
2026-05-11 17:55:05.357,3,-0.44,-0.59,0.18,-186.0834,72.49719999999999,-113.991,175,75
2026-05-11 17:55:05.369,3,-0.55,-0.74,0.2,-196.7534,80.4272,-121.861,175,75
2026-05-11 17:55:05.382,3,-0.58,-0.81,0.15,-199.0034,87.0172,-129.601,175,75
2026-05-11 17:55:05.402,3,-0.69,-0.85,-0.02,-188.1534,126.8972,-135.821,175,75
2026-05-11 17:55:05.414,3,-0.74,-0.88,0.0,-170.3434,159.0872,-138.63100000000003,175,75
2026-05-11 17:55:05.425,3,-0.59,-0.99,0.15,-133.5234,190.8572,-146.68099999999998,175,75
2026-05-11 17:55:05.455,3,-0.72,-0.67,0.62,-64.9234,209.5772,-122.411,175,75
2026-05-11 17:55:05.469,3,-0.54,0.62,1.28,-69.9234,75.3072,-67.831,175,75
2026-05-11 17:55:05.492,3,-2.24,0.32,2.96,225.6866,255.3072,183.62900000000002,175,75
2026-05-11 17:55:05.524,3,2.64,-2.07,-0.23,-272.78340000000003,-451.34279999999995,32.169,175,75
2026-05-11 17:55:05.535,3,-1.19,-0.57,-1.8,-217.0534,-411.34279999999995,175.279,175,75
2026-05-11 17:55:05.548,3,-2.65,-1.27,-2.28,-74.6734,105.3072,106.129,175,75
2026-05-11 17:55:05.570,3,-0.55,-2.17,-0.14,144.1666,137.8072,-57.961,175,75
2026-05-11 17:55:05.625,3,-0.52,-1.18,1.38,-97.5434,-97.37280000000001,-34.971000000000004,175,75
2026-05-11 17:55:05.640,3,-1.12,-1.92,0.26,-116.6334,-66.4628,-55.211,175,75
2026-05-11 17:55:05.680,3,-0.11,-1.55,0.58,-84.55340000000001,-65.8528,-119.421,175,75
2026-05-11 17:55:05.680,3,0.07,-1.59,0.43,-108.0334,-110.06280000000001,-98.441,175,75
2026-05-11 17:55:05.707,3,0.08,-1.53,-0.35,-141.1434,-161.8228,-91.801,175,75
2026-05-11 17:55:05.718,3,0.04,-0.94,-0.85,-152.6634,-135.2428,-99.541,175,75
2026-05-11 17:55:05.756,3,-0.84,-0.35,0.17,90.9966,-112.37280000000001,68.079,175,75
2026-05-11 17:55:05.849,3,-0.18,-0.79,-0.06,155.9966,-64.6928,92.469,175,75
2026-05-11 17:55:05.872,3,-0.04,0.05,-0.13,219.2866,-32.1328,158.37900000000002,175,75
2026-05-11 17:55:05.883,3,-0.1,-0.29,0.16,169.04659999999998,-23.2928,134.539,175,75
2026-05-11 17:55:05.900,3,0.09,-0.18,0.2,148.6166,-34.2628,118.749,175,75
2026-05-11 17:55:05.913,3,0.33,-0.02,0.18,127.6366,-51.5828,120.20899999999999,175,75
2026-05-11 17:55:05.923,3,0.42,0.1,0.06,105.5666,-96.03280000000001,134.41899999999998,175,75
2026-05-11 17:55:05.937,3,0.09,-0.01,-0.28,84.28659999999999,-92.8628,117.169,175,75
2026-05-11 17:55:05.948,3,0.02,0.09,-0.38,67.5166,-55.7328,87.899,175,75
2026-05-11 17:55:05.987,3,0.19,0.77,0.13,-29.803399999999996,-21.0928,-11.311,175,75
2026-05-11 17:55:06.029,3,0.22,0.76,-0.08,-111.4434,33.8472,-86.551,175,75
2026-05-11 17:55:06.049,3,0.35,0.23,-0.11,-134.7434,69.5172,-113.811,175,75
2026-05-11 17:55:06.072,3,-0.1,-0.0,0.17,-173.1534,143.1072,-171.68099999999998,175,75
2026-05-11 17:55:06.072,3,-0.18,-0.12,0.5,-179.0634,145.4272,-200.031,175,75
2026-05-11 17:55:06.097,3,-3.58,0.63,1.66,-215.0434,124.5772,-119.121,175,75
2026-05-11 17:55:06.131,3,-12.41,3.27,6.92,297.6366,1029.4572,450.089,175,75
2026-05-11 17:55:06.131,3,0.11,-11.77,9.69,723.7366000000001,728.2372,518.9290000000001,175,75
2026-05-11 17:55:06.143,3,-7.34,-4.22,6.87,-64.6134,-1291.5228,-622.0409999999999,175,75
2026-05-11 17:55:06.178,3,-1.38,0.12,-2.2,-552.7234,-369.8128,190.459,175,75
2026-05-11 17:55:06.190,3,-0.91,-5.02,-4.23,-184.1334,16.827199999999998,-18.931,175,75
2026-05-11 17:55:06.190,3,-2.15,-2.53,-2.47,135.4466,286.7672,-153.57100000000003,175,75
2026-05-11 17:55:06.206,3,0.11,-1.34,-0.14,300.1966,525.7972,-228.44099999999997,175,75
2026-05-11 17:55:06.222,3,0.7,0.15,2.4,100.25659999999999,54.397200000000005,90.639,175,75
2026-05-11 17:55:06.345,3,-0.23,-0.02,1.0,153.6766,-59.9928,159.969,175,75
2026-05-11 17:55:06.345,3,-0.66,-0.35,0.64,102.0266,-119.5728,142.649,175,75
2026-05-11 17:55:06.357,3,-0.59,-0.32,0.21,57.0266,-111.15280000000001,93.139,175,75
2026-05-11 17:55:06.368,3,-0.33,0.01,0.06,32.8866,-98.59280000000001,63.449,175,75
2026-05-11 17:55:06.379,3,-0.16,0.37,0.07,11.356600000000002,-102.80279999999999,61.309,175,75
2026-05-11 17:55:06.391,3,-0.19,0.59,0.04,-6.8134,-114.75280000000001,63.629000000000005,175,75
2026-05-11 17:55:06.391,3,-0.26,0.73,-0.03,-27.3634,-117.25280000000001,58.138999999999996,175,75
2026-05-11 17:55:06.462,3,-0.27,0.74,-0.03,-73.21340000000001,-84.9328,27.708999999999996,175,75
2026-05-11 17:55:06.462,3,-0.23,0.7,0.01,-90.77340000000001,-90.00280000000001,11.009,175,75
2026-05-11 17:55:06.475,3,-0.21,0.62,0.04,-108.6434,-86.4028,-6.371,175,75
2026-05-11 17:55:06.475,3,-0.21,0.54,0.02,-121.7534,-71.03280000000001,-17.161,175,75
2026-05-11 17:55:06.485,3,-0.22,0.41,-0.01,-131.3834,-49.8728,-29.361,175,75
2026-05-11 17:55:06.507,3,-0.29,-0.09,-0.06,-151.8134,66.8972,-93.261,175,75
2026-05-11 17:55:06.611,3,-0.78,-0.07,1.11,-47.7234,140.6072,-73.811,175,75
2026-05-11 17:55:06.625,3,-2.43,1.01,1.37,-23.153399999999998,87.19720000000001,52.469,175,75
2026-05-11 17:55:06.625,3,-2.52,1.21,1.89,57.516600000000004,93.1772,158.31900000000002,175,75
2026-05-11 17:55:06.640,3,1.95,-2.25,0.66,-110.4734,-294.9928,14.729,175,75
2026-05-11 17:55:06.652,3,1.03,-1.93,-1.88,-169.98340000000002,-410.6028,67.899,175,75
2026-05-11 17:55:06.667,3,-0.91,-2.55,-1.92,109.5266,332.0172,61.18899999999999,175,75
2026-05-11 17:55:06.685,3,-1.08,-1.95,-0.22,183.4366,170.97719999999998,18.019,175,75
2026-05-11 17:55:06.709,3,0.25,-1.47,1.6,140.1966,167.13719999999998,13.079,175,75
2026-05-11 17:55:06.722,3,0.35,-1.8,2.37,129.2266,129.0872,62.099000000000004,175,75
2026-05-11 17:55:06.735,3,-1.27,-1.21,2.21,6.9666000000000015,-30.852800000000002,64.239,175,75
2026-05-11 17:55:06.756,3,-1.17,-0.71,0.14,-91.7534,-68.2328,-19.601,175,75
2026-05-11 17:55:06.771,3,-1.32,-1.13,0.06,-67.05340000000001,-6.7028,-35.150999999999996,175,75
2026-05-11 17:55:06.785,3,-1.21,-1.42,0.37,-75.6534,29.327199999999998,-86.191,175,75
2026-05-11 17:55:06.795,3,-0.72,-1.63,0.62,-82.24340000000001,31.897199999999998,-138.44099999999997,175,75
2026-05-11 17:55:06.808,3,-0.41,-1.63,0.75,-91.2634,-11.0328,-143.87099999999998,175,75
2026-05-11 17:55:06.808,3,-0.13,-1.8,0.64,-108.6434,-69.75280000000001,-126.251,175,75
2026-05-11 17:55:06.825,3,0.02,-2.04,0.27,-124.3734,-116.7628,-101.801,175,75
2026-05-11 17:55:06.836,3,-0.09,-2.08,-0.22,-133.8234,-123.78280000000001,-90.941,175,75
2026-05-11 17:55:06.846,3,0.03,-1.68,-0.57,-149.0034,-112.1928,-96.011,175,75
2026-05-11 17:55:06.846,3,0.46,-0.98,-0.67,-153.8234,-94.6928,-115.761,175,75
2026-05-11 17:55:06.858,3,0.54,-0.28,-0.41,-97.24340000000001,-124.6928,-88.631,175,75
2026-05-11 17:55:06.892,3,-1.49,-0.31,0.61,133.7966,-104.6928,99.669,175,75
2026-05-11 17:55:06.929,3,-1.26,-1.73,1.4,213.3666,-162.6228,146.61899999999997,175,75
2026-05-11 17:55:06.941,3,-0.67,-1.84,0.44,119.1666,-158.0428,108.079,175,75
2026-05-11 17:55:06.995,3,-0.01,-0.26,-0.07,236.7266,-4.082799999999999,116.249,175,75
2026-05-11 17:55:07.005,3,-0.02,-0.33,0.07,204.3466,-0.1828000000000003,99.539,175,75
2026-05-11 17:55:07.011,3,0.09,-0.24,0.05,188.3666,-2.5028000000000006,82.959,175,75
2026-05-11 17:55:07.024,3,0.21,0.01,0.01,168.9166,1.4071999999999996,78.689,175,75
2026-05-11 17:55:07.034,3,0.26,0.18,-0.05,155.5666,12.017200000000003,79.849,175,75
2026-05-11 17:55:07.048,3,0.2,0.22,-0.06,148.3666,11.587200000000003,76.069,175,75
2026-05-11 17:55:07.060,3,0.08,0.26,-0.08,127.08659999999999,17.9272,65.089,175,75
2026-05-11 17:55:07.071,3,-0.04,0.35,-0.05,99.9566,30.007199999999997,51.679,175,75
2026-05-11 17:55:07.111,3,-0.21,1.0,0.19,-16.1434,-63.1728,-21.801000000000002,175,75
2026-05-11 17:55:07.127,3,-0.23,1.14,0.21,-43.7634,-59.9928,-43.811,175,75
2026-05-11 17:55:07.129,3,-0.14,1.24,0.13,-77.4234,-46.952799999999996,-57.591,175,75
2026-05-11 17:55:07.162,3,0.14,0.97,-0.04,-114.80340000000001,39.757200000000005,-76.371,175,75
2026-05-11 17:55:07.215,3,0.14,0.48,-0.33,-177.9134,88.1072,-115.091,175,75
2026-05-11 17:55:07.246,3,-0.54,-0.3,-0.37,-243.0934,230.1872,-184.24099999999999,175,75
2026-05-11 17:55:07.246,3,-5.58,1.95,2.57,-73.3934,388.65720000000005,-18.381,175,75
2026-05-11 17:55:07.290,3,-1.62,-1.9,-1.51,-540.1633999999999,-88.96279999999999,67.839,175,75
2026-05-11 17:55:07.305,3,-1.35,-3.15,-2.46,-284.4334,-49.8728,-124.721,175,75
2026-05-11 17:55:07.342,3,-1.07,-0.61,1.48,207.2166,-42.8628,129.17899999999997,175,75
2026-05-11 17:55:07.354,3,-2.04,-0.84,1.08,198.1266,25.187199999999997,162.839,175,75
2026-05-11 17:55:07.360,3,-2.32,-0.8,1.19,230.5066,71.15719999999999,148.62900000000002,175,75
2026-05-11 17:55:07.375,3,-1.64,-1.01,1.21,240.1366,58.787200000000006,141.79899999999998,175,75
2026-05-11 17:55:07.393,3,-0.63,-0.75,1.22,172.7566,-9.5728,159.17899999999997,175,75
2026-05-11 17:55:07.405,3,-0.4,-0.4,1.0,152.3966,-93.96279999999999,218.31900000000002,175,75
2026-05-11 17:55:07.415,3,-0.56,-0.47,0.68,135.8666,-154.2028,241.48899999999998,175,75
2026-05-11 17:55:07.427,3,-0.66,-0.63,0.29,109.83659999999999,-162.9228,227.709,175,75
2026-05-11 17:55:07.437,3,-0.61,-0.67,-0.04,94.4066,-151.2128,207.529,175,75
2026-05-11 17:55:07.448,3,-0.47,-0.61,-0.31,92.5766,-119.87280000000001,180.81900000000002,175,75
2026-05-11 17:55:07.463,3,-0.06,-0.31,-0.1,91.8466,-32.3728,137.22899999999998,175,75
2026-05-11 17:55:07.474,3,0.07,-0.18,0.07,75.3266,-32.9828,120.45899999999999,175,75
2026-05-11 17:55:07.505,3,0.19,0.07,0.05,6.726600000000001,-82.1928,96.069,175,75
2026-05-11 17:55:07.515,3,0.11,0.12,-0.14,-31.5034,-94.87280000000001,71.009,175,75
2026-05-11 17:55:07.553,3,-0.02,0.35,-0.33,-76.5634,-44.452799999999996,1.7989999999999995,175,75
2026-05-11 17:55:07.601,3,-0.11,0.23,-0.14,-143.70340000000002,4.087199999999999,-70.701,175,75
2026-05-11 17:55:07.624,3,-0.17,-0.23,0.37,-154.0034,64.1472,-130.401,175,75
2026-05-11 17:55:07.647,3,-0.12,-0.55,0.08,-203.1534,28.2372,-166.37099999999998,175,75
2026-05-11 17:55:07.647,3,-0.21,-0.62,-0.23,-212.2434,67.74719999999999,-178.81099999999998,175,75
2026-05-11 17:55:07.719,3,-0.79,-0.89,0.54,-71.0834,276.8972,-186.37099999999998,175,75
2026-05-11 17:55:07.746,3,-4.12,1.16,1.62,-64.4334,208.7172,-35.641000000000005,175,75
2026-05-11 17:55:07.755,3,-3.2,-0.12,4.53,373.4966,726.3472,241.79899999999998,175,75
2026-05-11 17:55:07.755,3,1.84,-6.84,3.94,348.3666,-0.5427999999999997,-273.87100000000004,175,75
2026-05-11 17:55:07.767,3,5.52,-2.47,-0.44,-356.7534,-567.4928,-124.181,175,75
2026-05-11 17:55:07.777,3,-0.42,1.35,-0.66,-432.9734,-550.5427999999999,194.72899999999998,175,75
2026-05-11 17:55:07.788,3,-0.2,-3.07,-2.35,-61.2634,196.1572,-20.091,175,75
2026-05-11 17:55:07.803,3,-0.01,-5.19,-0.84,197.4566,12.507199999999997,-47.771,175,75
2026-05-11 17:55:07.818,3,-0.81,-2.51,0.09,401.7266,99.2072,38.809,175,75
2026-05-11 17:55:07.834,3,-0.42,0.59,2.28,30.196600000000004,176.28719999999998,0.8189999999999991,175,75
2026-05-11 17:55:07.859,3,-0.79,-1.02,1.02,-71.8134,-200.7928,76.009,175,75
2026-05-11 17:55:07.871,3,-1.49,-0.87,-0.09,-46.203399999999995,-25.1828,-68.261,175,75
2026-05-11 17:55:07.882,3,-1.08,-1.11,0.3,-40.8334,12.807200000000002,-103.441,175,75
2026-05-11 17:55:07.919,3,-0.67,-1.26,0.99,-66.5634,-5.062799999999999,-88.511,175,75
2026-05-11 17:55:07.930,3,-0.49,-1.6,0.93,-83.21340000000001,-29.4528,-107.161,175,75
2026-05-11 17:55:07.942,3,-0.38,-1.74,0.72,-91.5634,-72.7428,-105.521,175,75
2026-05-11 17:55:07.942,3,-0.18,-1.88,0.59,-88.6434,-78.59280000000001,-101.981,175,75
2026-05-11 17:55:08.008,3,0.11,-0.6,-0.5,-100.3434,-111.9528,-72.041,175,75
2026-05-11 17:55:08.022,3,-0.28,-0.04,-0.38,-35.163399999999996,-101.34280000000001,-56.071,175,75
2026-05-11 17:55:08.022,3,-0.62,-0.07,-0.19,63.006600000000006,-79.3928,7.289,175,75
2026-05-11 17:55:08.035,3,-1.96,-0.34,0.92,245.8666,6.347200000000001,135.279,175,75
2026-05-11 17:55:08.080,3,-0.34,-1.08,0.37,159.5266,-58.842800000000004,92.409,175,75
2026-05-11 17:55:08.095,3,-0.08,-0.19,-0.01,192.9466,-62.8628,116.559,175,75
2026-05-11 17:55:08.106,3,-0.16,0.16,0.01,220.3866,-48.6528,156.06900000000002,175,75
2026-05-11 17:55:08.120,3,-0.17,0.02,0.13,216.7866,-47.8628,167.779,175,75
2026-05-11 17:55:08.120,3,-0.14,-0.17,0.26,190.1366,-66.28280000000001,153.079,175,75
2026-05-11 17:55:08.146,3,0.13,-0.05,0.11,140.13660000000002,-118.1728,128.56900000000002,175,75
2026-05-11 17:55:08.156,3,0.12,0.05,-0.06,128.1266,-116.8928,129.539,175,75
2026-05-11 17:55:08.167,3,0.03,0.07,-0.18,125.25659999999999,-95.6728,125.27900000000001,175,75
2026-05-11 17:55:08.173,3,-0.12,0.02,-0.29,121.0566,-51.8228,104.29899999999999,175,75
2026-05-11 17:55:08.216,3,-0.01,0.45,-0.1,42.7566,24.577199999999998,12.099,175,75
2026-05-11 17:55:08.226,3,0.07,0.6,-0.07,4.956600000000002,3.357199999999999,-16.981,175,75
2026-05-11 17:55:08.238,3,0.03,0.79,-0.21,-19.0034,-7.072800000000001,-40.271,175,75
2026-05-11 17:55:08.249,3,-0.07,0.96,-0.35,-39.0034,17.9872,-63.571,175,75
2026-05-11 17:55:08.260,3,-0.05,1.08,-0.35,-59.923399999999994,56.2172,-80.091,175,75
2026-05-11 17:55:08.278,3,-0.08,0.63,0.02,-93.9434,92.68719999999999,-91.621,175,75
2026-05-11 17:55:08.298,3,0.28,-0.01,0.22,-164.2534,28.1772,-148.26100000000002,175,75
2026-05-11 17:55:08.322,3,-0.23,-0.16,0.06,-244.4334,-7.072800000000001,-172.101,175,75
2026-05-11 17:55:08.332,3,-0.54,-0.33,0.07,-286.8734,-3.5328000000000017,-182.901,175,75
2026-05-11 17:55:08.355,3,-2.65,0.02,1.18,-314.3134,90.3672,-160.76100000000002,175,75
2026-05-11 17:55:08.381,3,2.11,-15.85,9.94,297.5766,-733.5928,-201.861,175,75
2026-05-11 17:55:08.396,3,-5.22,-1.69,3.84,-155.7734,-655.8528,-694.481,175,75
2026-05-11 17:55:08.413,3,1.74,2.73,-2.22,-610.7134,-652.5627999999999,198.37900000000002,175,75
2026-05-11 17:55:08.458,3,-0.57,-1.82,-0.57,253.6166,211.0972,-134.301,175,75
2026-05-11 17:55:08.470,3,0.5,-0.81,1.22,155.5066,354.5172,-89.661,175,75
2026-05-11 17:55:08.481,3,1.35,-0.34,2.2,13.856600000000002,116.15719999999999,37.649,175,75
2026-05-11 17:55:08.491,3,0.57,-0.58,1.76,6.846600000000001,-289.7528,92.229,175,75
2026-05-11 17:55:08.504,3,-0.56,-1.08,0.46,-2.843399999999999,-349.9328,87.779,175,75
2026-05-11 17:55:08.515,3,-0.84,-1.2,-0.48,15.936600000000002,-174.08280000000002,50.208999999999996,175,75
2026-05-11 17:55:08.526,3,-0.37,-1.09,-0.62,80.6866,-45.6028,12.169,175,75
2026-05-11 17:55:08.569,3,-0.39,-0.48,0.79,150.07659999999998,59.517199999999995,26.918999999999997,175,75
2026-05-11 17:55:08.569,3,-0.57,-0.4,0.75,139.9566,62.017199999999995,27.589,175,75
2026-05-11 17:55:08.605,3,-0.87,-0.53,0.64,117.2766,88.2372,24.299,175,75
2026-05-11 17:55:08.618,3,-0.56,-0.54,0.92,96.2966,67.62719999999999,-18.511000000000003,175,75
2026-05-11 17:55:08.673,3,-0.84,-0.13,0.53,-12.423399999999999,-37.1328,-7.1610000000000005,175,75
2026-05-11 17:55:08.710,3,-0.82,0.08,0.39,-59.313399999999994,-4.4528,-27.901,175,75
2026-05-11 17:55:08.720,3,-0.79,0.01,0.22,-63.1534,31.2872,-32.041,175,75
2026-05-11 17:55:08.720,3,-0.74,-0.06,0.11,-60.22339999999999,66.8972,-40.271,175,75
2026-05-11 17:55:08.736,3,-0.67,-0.18,0.08,-49.673399999999994,114.81719999999999,-51.981,175,75
2026-05-11 17:55:08.748,3,-0.64,-0.25,0.24,-37.303399999999996,143.1072,-62.351,175,75
2026-05-11 17:55:08.758,3,-0.74,-0.19,0.39,-25.343399999999995,149.5172,-64.12100000000001,175,75
2026-05-11 17:55:08.760,3,-0.79,-0.13,0.46,-21.1434,154.63719999999998,-64.791,175,75
2026-05-11 17:55:08.782,3,-0.7,0.02,0.31,-8.3334,181.5872,-47.531,175,75
2026-05-11 17:55:08.814,3,-0.76,-0.05,0.55,36.906600000000005,185.97719999999998,-26.611,175,75
2026-05-11 17:55:08.868,3,-0.4,0.0,0.55,50.5666,188.5972,-17.291,175,75
2026-05-11 17:55:08.884,3,-0.13,0.07,0.5,56.476600000000005,174.3972,-0.09100000000000108,175,75
2026-05-11 17:55:08.896,3,-1.87,0.91,0.76,52.2766,138.7172,86.739,175,75
2026-05-11 17:55:08.926,3,-0.88,-0.95,-0.22,-53.2734,-152.2528,137.839,175,75
2026-05-11 17:55:08.959,3,0.02,-3.24,0.32,138.0066,215.00719999999998,-73.381,175,75
2026-05-11 17:55:09.006,3,-0.28,-0.13,1.51,53.436600000000006,222.3772,35.879,175,75
2026-05-11 17:55:09.023,3,-1.44,-1.1,1.66,-71.99340000000001,-73.4728,56.069,175,75
2026-05-11 17:55:09.035,3,-1.57,-0.82,0.67,-133.3334,-58.2328,-10.211,175,75
2026-05-11 17:55:09.048,3,-0.86,-0.87,0.54,-123.76339999999999,30.4872,-40.521,175,75
2026-05-11 17:55:09.058,3,-0.75,-1.15,0.76,-89.1934,41.157199999999996,-31.741,175,75
2026-05-11 17:55:09.068,3,-0.8,-2.04,0.69,-91.6934,36.3472,-53.081,175,75
2026-05-11 17:55:09.095,3,0.49,-2.81,0.38,-72.30340000000001,-24.0228,-48.321,175,75
2026-05-11 17:55:09.095,3,0.41,-2.2,0.35,-81.5634,-37.2528,-20.401000000000003,175,75
2026-05-11 17:55:09.107,3,0.7,-1.41,0.33,-94.6134,-57.1928,-32.291,175,75
2026-05-11 17:55:09.133,3,-0.07,-1.25,-0.16,144.2266,-159.08280000000002,52.649,175,75
2026-05-11 17:55:09.139,3,-0.83,-1.36,-0.33,202.4566,-18.2328,60.339,175,75
2026-05-11 17:55:09.173,3,-1.09,-1.51,-0.08,323.6766,138.0472,74.849,175,75
2026-05-11 17:55:09.173,3,-1.13,-1.75,0.24,369.8366,186.8272,70.149,175,75
2026-05-11 17:55:09.185,3,-1.6,-1.22,0.76,376.3566,225.5472,79.419,175,75
2026-05-11 17:55:09.206,3,1.21,-1.12,1.16,276.96659999999997,74.3272,-55.031,175,75
2026-05-11 17:55:09.218,3,1.19,-0.06,0.91,238.2466,-13.2928,27.528999999999996,175,75
2026-05-11 17:55:09.218,3,0.72,-0.1,0.83,234.04659999999998,-98.0428,28.259,175,75
2026-05-11 17:55:09.231,3,0.71,-0.56,0.54,201.0566,-164.3228,-4.2410000000000005,175,75
2026-05-11 17:55:09.246,3,0.78,-0.83,-0.14,144.8366,-193.3528,-71.131,175,75
2026-05-11 17:55:09.261,3,0.79,-0.68,-0.2,145.3866,-184.02280000000002,-108.081,175,75
2026-05-11 17:55:09.288,3,0.72,-0.38,0.07,102.0266,-188.2928,-119.661,175,75
2026-05-11 17:55:09.298,3,0.47,-0.26,0.11,67.0266,-197.74280000000002,-121.131,175,75
2026-05-11 17:55:09.298,3,0.29,-0.19,0.14,36.9666,-203.6528,-138.69099999999997,175,75
2026-05-11 17:55:09.311,3,0.16,-0.1,0.07,-3.093399999999999,-210.18280000000001,-155.88100000000003,175,75
2026-05-11 17:55:09.332,3,0.06,-0.05,-0.11,-40.53339999999999,-206.8228,-170.031,175,75
2026-05-11 17:55:09.345,3,-0.3,-0.12,-0.31,-106.2634,-154.08280000000002,-203.81099999999998,175,75
2026-05-11 17:55:09.356,3,-0.56,-0.09,-0.21,-133.5234,-114.2628,-223.20100000000002,175,75
2026-05-11 17:55:09.380,3,-0.68,-0.07,-0.1,-141.9334,-85.1828,-237.351,175,75
2026-05-11 17:55:09.389,3,-0.71,-0.23,-0.15,-160.2834,-9.8728,-240.70100000000002,175,75
2026-05-11 17:55:09.405,3,-1.33,-0.42,-0.39,-134.3734,174.4572,-187.291,175,75
2026-05-11 17:55:09.423,3,-1.95,-0.42,-0.23,-95.2834,304.8172,-136.131,175,75
2026-05-11 17:55:09.423,3,-2.64,-0.35,-0.07,-73.7034,343.59720000000004,-91.801,175,75
2026-05-11 17:55:09.443,3,-3.32,-0.16,0.1,-70.2834,335.85720000000003,-55.031,175,75
2026-05-11 17:55:09.473,3,-9.66,3.28,4.8,248.6166,795.0672000000001,211.48899999999998,175,75
2026-05-11 17:55:09.487,3,-4.54,-0.41,6.99,827.4566000000001,639.4572000000001,493.929,175,75
2026-05-11 17:55:09.493,3,-0.35,-6.73,6.29,210.8666,-945.0627999999999,-492.101,175,75
2026-05-11 17:55:09.577,3,-0.51,-1.74,-0.01,272.7566,515.6772,-99.661,175,75
2026-05-11 17:55:09.577,3,1.15,-0.92,1.66,93.61659999999999,576.8272000000001,15.948999999999998,175,75
2026-05-11 17:55:09.646,3,1.47,-1.99,0.57,-6.3834,41.897200000000005,31.738999999999997,175,75
2026-05-11 17:55:09.646,3,1.51,-1.3,0.28,55.8066,46.70719999999999,-2.1610000000000005,175,75
2026-05-11 17:55:09.667,3,1.18,-0.71,-0.29,154.1666,147.0772,-23.631,175,75
2026-05-11 17:55:09.678,3,1.05,-0.61,-0.0,198.1266,220.00719999999998,-47.041000000000004,175,75
2026-05-11 17:55:09.689,3,0.17,0.23,2.28,345.8066,217.8672,-29.541,175,75
2026-05-11 17:55:09.708,3,1.73,-0.96,2.68,275.7466,47.0772,-54.661,175,75
2026-05-11 17:55:09.708,3,2.58,-1.37,2.77,57.576600000000006,-257.1928,-23.931,175,75
2026-05-11 17:55:09.721,3,1.85,-0.91,1.24,-47.303399999999996,-426.09279999999995,-35.211,175,75
2026-05-11 17:55:09.731,3,1.29,-0.81,-0.48,-34.4334,-366.76279999999997,-119.051,175,75
2026-05-11 17:55:09.767,3,1.1,-0.91,-1.09,-17.053399999999996,-277.8028,-183.57100000000003,175,75
2026-05-11 17:55:09.778,3,0.65,-0.88,-1.4,-42.243399999999994,-146.2128,-220.64100000000002,175,75
2026-05-11 17:55:09.778,3,0.28,-0.69,-1.48,-55.1034,-38.0428,-232.77100000000002,175,75
2026-05-11 17:55:09.820,3,-1.47,-0.66,0.64,-50.2234,20.4872,-215.27100000000002,175,75
2026-05-11 17:55:09.830,3,-1.87,-0.88,0.74,-88.0934,23.9672,-198.51100000000002,175,75
2026-05-11 17:55:09.841,3,-2.08,-0.95,0.34,-128.0934,82.0172,-216.981,175,75
2026-05-11 17:55:09.851,3,-2.19,-1.05,-0.18,-128.7634,184.4572,-219.051,175,75
2026-05-11 17:55:09.875,3,-2.74,-0.53,-0.7,21.416600000000003,510.67719999999997,-135.761,175,75
2026-05-11 17:55:09.917,3,-2.08,0.11,0.94,154.7166,574.5772000000001,-125.521,175,75
2026-05-11 17:55:09.928,3,-1.45,0.09,1.08,99.83659999999999,424.2072,-107.711,175,75
2026-05-11 17:55:09.952,3,-1.13,0.36,0.57,2.2166000000000015,292.3172,-46.981,175,75
2026-05-11 17:55:09.968,3,-2.71,0.69,0.76,107.8266,225.8572,159.35899999999998,175,75
2026-05-11 17:55:09.983,3,-0.89,-1.21,-0.25,47.756600000000006,136.8272,154.29899999999998,175,75
2026-05-11 17:55:09.995,3,-0.35,-2.94,-0.94,-70.71340000000001,13.237200000000001,91.979,175,75
2026-05-11 17:55:10.006,3,-2.78,-1.41,-1.0,-144.4934,-140.2428,200.699,175,75
2026-05-11 17:55:10.006,3,-2.59,-1.73,-0.95,-127.24340000000001,-61.9528,193.139,175,75
2026-05-11 17:55:10.018,3,-2.16,-1.99,-0.82,-69.8634,44.757200000000005,52.958999999999996,175,75
2026-05-11 17:55:10.051,3,0.86,-1.82,0.97,47.8866,89.2072,-43.571,175,75
2026-05-11 17:55:10.076,3,1.11,-2.5,2.27,136.5466,137.6872,50.458999999999996,175,75
2026-05-11 17:55:10.076,3,-2.04,-2.03,1.42,36.9666,135.6772,131.73899999999998,175,75
2026-05-11 17:55:10.105,3,0.11,-0.52,0.39,-6.323399999999998,116.28719999999998,-31.551000000000002,175,75
2026-05-11 17:55:10.105,3,-0.31,-0.89,1.76,-2.2433999999999976,204.75719999999998,57.289,175,75
2026-05-11 17:55:10.117,3,-1.43,-1.07,1.62,-98.0334,84.0872,28.569000000000003,175,75
2026-05-11 17:55:10.128,3,-1.19,-1.22,1.18,-135.4134,121.6472,-17.591,175,75
2026-05-11 17:55:10.138,3,-0.71,-1.44,1.19,-143.5234,198.1072,-33.141000000000005,175,75
2026-05-11 17:55:10.138,3,-0.21,-1.68,1.62,-130.8334,206.7672,-27.831,175,75
2026-05-11 17:55:10.149,3,0.03,-2.75,1.95,-132.9134,124.0872,-7.041,175,75
2026-05-11 17:55:10.177,3,1.06,-1.37,0.76,-221.8134,-102.8628,-58.441,175,75
2026-05-11 17:55:10.190,3,1.62,0.11,0.49,-88.21340000000001,-24.9328,-69.181,175,75
2026-05-11 17:55:10.201,3,1.8,-0.16,0.71,61.6666,46.647200000000005,13.628999999999998,175,75
2026-05-11 17:55:10.219,3,0.21,-1.43,0.9,205.8666,-8.7828,6.488999999999999,175,75
2026-05-11 17:55:10.219,3,-0.92,-0.9,0.64,319.1066,142.3772,19.119,175,75
2026-05-11 17:55:10.241,3,-1.63,-0.85,0.77,383.2466,283.96720000000005,75.399,175,75
2026-05-11 17:55:10.273,3,-1.02,-1.17,2.02,517.5166,363.23720000000003,61.309,175,75
2026-05-11 17:55:10.283,3,0.77,-1.83,2.6,479.40659999999997,194.2072,-99.971,175,75
2026-05-11 17:55:10.294,3,2.12,-0.25,2.24,242.6966,83.59719999999999,-46.861000000000004,175,75
2026-05-11 17:55:10.316,3,1.5,0.46,1.63,226.7266,-102.80279999999999,4.478999999999999,175,75
2026-05-11 17:55:10.317,3,0.97,-0.54,0.78,252.3366,-238.8428,-27.291,175,75
2026-05-11 17:55:10.377,3,0.68,-1.18,-0.29,216.4166,-223.2928,-107.961,175,75
2026-05-11 17:55:10.377,3,0.49,-0.44,-0.88,251.29659999999998,-54.812799999999996,-229.18099999999998,175,75
2026-05-11 17:55:10.390,3,0.41,-0.3,-0.63,252.0266,9.327199999999998,-218.87099999999998,175,75
2026-05-11 17:55:10.401,3,0.25,-0.46,-0.27,237.82659999999998,3.9671999999999983,-214.361,175,75
2026-05-11 17:55:10.415,3,0.08,-0.61,-0.15,212.0866,-40.7328,-229.361,175,75
2026-05-11 17:55:10.466,3,-0.8,-1.39,0.07,55.076600000000006,-121.28280000000001,-266.921,175,75
2026-05-11 17:55:10.480,3,-1.18,-1.26,-0.26,17.826600000000003,-61.7628,-275.581,175,75
2026-05-11 17:55:10.480,3,-1.5,-1.09,-0.48,14.526600000000002,15.977199999999996,-275.581,175,75
2026-05-11 17:55:10.493,3,-2.01,-0.95,-0.58,40.8666,141.3472,-251.49099999999999,175,75
2026-05-11 17:55:10.511,3,-2.71,-0.78,-0.5,85.50659999999999,350.48720000000003,-168.51100000000002,175,75
2026-05-11 17:55:10.519,3,-2.73,-0.71,-0.1,67.6966,365.1272,-118.141,175,75
2026-05-11 17:55:10.533,3,-2.62,-0.7,-0.02,21.416600000000003,341.40720000000005,-102.291,175,75
2026-05-11 17:55:10.537,3,-2.34,-0.6,-0.18,-60.6534,254.69719999999998,-84.661,175,75
2026-05-11 17:55:10.561,3,-2.21,-0.38,-0.17,-136.0834,202.7472,-35.091,175,75
2026-05-11 17:55:10.597,3,0.52,0.14,1.5,-367.6034,-384.51279999999997,88.569,175,75
2026-05-11 17:55:10.633,3,-1.9,-2.16,-0.86,-3.5833999999999993,222.6872,38.509,175,75
2026-05-11 17:55:10.655,3,-1.36,-1.67,0.19,28.2466,278.71720000000005,-56.431,175,75
2026-05-11 17:55:10.668,3,0.92,-1.79,1.57,-28.093399999999995,228.8472,10.338999999999999,175,75
2026-05-11 17:55:10.722,3,0.73,-2.08,0.73,-44.063399999999994,-63.2928,49.419,175,75
2026-05-11 17:55:10.796,3,1.26,-0.3,0.75,159.04659999999998,200.91719999999998,-33.441,175,75
2026-05-11 17:55:10.796,3,1.21,-0.04,1.21,153.8566,155.3672,-34.241,175,75
2026-05-11 17:55:10.819,3,0.5,-0.09,1.68,143.7366,64.75720000000001,-55.941,175,75
2026-05-11 17:55:10.838,3,1.79,-0.92,1.89,118.7966,-80.1228,-107.291,175,75
2026-05-11 17:55:10.848,3,1.53,-0.52,1.18,28.6166,-207.74280000000002,-115.401,175,75
2026-05-11 17:55:10.864,3,1.12,-0.49,0.52,24.4066,-195.7928,-140.031,175,75
2026-05-11 17:55:10.881,3,0.84,-0.56,0.12,31.1766,-148.0428,-186.62099999999998,175,75
2026-05-11 17:55:10.898,3,0.48,-0.57,0.04,50.446600000000004,-96.8228,-237.901,175,75
2026-05-11 17:55:10.905,3,0.05,-0.68,0.17,63.9166,-37.2528,-260.941,175,75
2026-05-11 17:55:10.918,3,-0.55,-0.76,0.27,69.1066,-14.142800000000001,-266.801,175,75
2026-05-11 17:55:10.930,3,-0.89,-0.9,0.3,58.9166,-12.0128,-275.821,175,75
2026-05-11 17:55:10.948,3,-1.6,-1.21,0.54,43.4966,21.647199999999998,-276.25100000000003,175,75
2026-05-11 17:55:10.948,3,-1.98,-1.01,0.44,28.2466,26.4672,-264.121,175,75
2026-05-11 17:55:11.022,3,-2.69,-0.45,-0.3,163.7366,486.7072,-113.441,175,75
2026-05-11 17:55:11.035,3,-2.26,-0.26,0.06,190.07659999999998,528.4172,-102.831,175,75
2026-05-11 17:55:11.035,3,-1.59,0.12,0.39,166.1766,502.56720000000007,-90.941,175,75
2026-05-11 17:55:11.073,3,-2.66,0.8,0.25,31.236600000000003,162.6872,144.47899999999998,175,75
2026-05-11 17:55:11.084,3,-0.08,-1.86,-0.2,4.346600000000002,112.8672,35.089,175,75
2026-05-11 17:55:11.095,3,-0.35,-1.59,0.26,-32.483399999999996,6.527200000000001,30.089,175,75
2026-05-11 17:55:11.144,3,-2.13,-2.11,-0.26,-203.0334,-67.3728,162.289,175,75
2026-05-11 17:55:11.144,3,-0.4,-1.2,-0.29,12.336600000000002,18.907199999999996,-87.711,175,75
2026-05-11 17:55:11.155,3,0.25,-0.51,0.77,-3.5833999999999993,59.3272,-39.051,175,75
2026-05-11 17:55:11.184,3,-0.43,-2.94,2.37,92.8266,54.517199999999995,-15.331,175,75
2026-05-11 17:55:11.270,3,-0.8,-1.01,1.34,-140.8334,177.6872,-38.081,175,75
2026-05-11 17:55:11.283,3,-0.64,-0.9,1.35,-164.0034,191.28719999999998,-14.911000000000001,175,75
2026-05-11 17:55:11.347,3,-0.05,-3.19,1.27,-80.5334,181.28719999999998,3.318999999999999,175,75
2026-05-11 17:55:11.373,3,0.31,-1.3,0.91,-111.5634,-34.7528,-16.921,175,75
2026-05-11 17:55:11.383,3,0.93,-1.15,0.56,-75.5334,-60.5428,-42.651,175,75
2026-05-11 17:55:11.396,3,1.26,-1.4,0.8,167.6966,42.627199999999995,6.008999999999999,175,75
2026-05-11 17:55:11.434,3,-0.97,-0.71,1.36,383.5566,172.19719999999998,42.099,175,75
2026-05-11 17:55:11.445,3,0.64,-1.3,1.77,363.3066,135.06719999999999,-69.721,175,75
2026-05-11 17:55:11.457,3,2.47,-0.51,2.58,357.6966,95.24719999999999,-134.911,175,75
2026-05-11 17:55:11.473,3,0.01,-1.62,-0.94,52.826600000000006,-444.26279999999997,-140.70100000000002,175,75
2026-05-11 17:55:11.523,3,0.19,-0.73,-1.89,185.5666,-54.5728,-319.421,175,75
2026-05-11 17:55:11.536,3,0.8,-0.41,-1.0,242.51659999999998,43.177200000000006,-306.921,175,75
2026-05-11 17:55:11.550,3,0.22,-0.76,0.4,172.6366,-103.0428,-244.541,175,75
2026-05-11 17:55:11.563,3,-0.21,-0.97,0.23,103.9166,-200.0628,-271.25100000000003,175,75
2026-05-11 17:55:11.573,3,-0.41,-0.95,-0.09,55.1366,-204.2028,-288.87100000000004,175,75
2026-05-11 17:55:11.573,3,-0.44,-0.88,-0.2,32.086600000000004,-155.5428,-294.481,175,75
2026-05-11 17:55:11.583,3,-0.45,-0.95,0.05,22.2166,-116.21279999999999,-297.411,175,75
2026-05-11 17:55:11.595,3,-1.16,-1.11,0.31,-56.08339999999999,-85.5428,-303.87100000000004,175,75
2026-05-11 17:55:11.606,3,-1.62,-1.08,-0.02,-96.4434,-37.6828,-297.591,175,75
2026-05-11 17:55:11.606,3,-2.18,-1.04,-0.55,-109.0034,73.71719999999999,-277.901,175,75
2026-05-11 17:55:11.617,3,-2.7,-1.05,-0.93,-76.5034,214.5172,-242.041,175,75
2026-05-11 17:55:11.638,3,-3.77,-0.87,-0.69,46.296600000000005,444.5772,-110.941,175,75
2026-05-11 17:55:11.638,3,-3.86,-0.81,-0.51,65.0166,429.2672,-87.471,175,75
2026-05-11 17:55:11.652,3,-3.9,-0.5,-0.21,27.026600000000002,358.53720000000004,-110.401,175,75
2026-05-11 17:55:11.667,3,-5.24,2.08,3.32,336.3566,524.6972000000001,-16.131,175,75
2026-05-11 17:55:11.725,3,3.68,-2.67,2.07,-495.1034,-409.45279999999997,87.349,175,75
2026-05-11 17:55:11.735,3,-1.91,-1.81,-1.28,-317.3034,38.2372,108.259,175,75
2026-05-11 17:55:11.827,3,-1.17,-2.1,0.51,14.716600000000001,286.9572,10.209,175,75
2026-05-11 17:55:11.851,3,-0.23,-2.03,1.21,-40.773399999999995,180.3672,5.029,175,75
2026-05-11 17:55:11.891,3,0.75,-1.84,1.86,-32.1134,260.54720000000003,62.649,175,75
2026-05-11 17:55:11.943,3,0.89,0.37,1.1,139.3466,130.6072,-60.641,175,75
2026-05-11 17:55:11.953,3,1.75,-1.06,1.88,81.11659999999999,-173.4128,-120.521,175,75
2026-05-11 17:55:11.981,3,0.49,-0.3,-0.67,-7.423399999999999,-136.8228,-237.591,175,75
2026-05-11 17:55:11.981,3,0.31,-0.24,-0.7,-6.323399999999998,-69.3928,-256.011,175,75
2026-05-11 17:55:12.083,3,-3.48,0.06,-0.55,189.4666,467.2572,-154.791,175,75
2026-05-11 17:55:12.083,3,-2.88,0.07,-0.07,278.7366,511.58720000000005,-113.751,175,75
2026-05-11 17:55:12.104,3,-1.55,0.01,0.82,195.2566,471.6472,-36.071,175,75
2026-05-11 17:55:12.129,3,-0.77,0.33,0.26,46.726600000000005,251.64719999999997,56.248999999999995,175,75
2026-05-11 17:55:12.135,3,-0.8,0.11,-0.25,42.6366,173.8472,86.79899999999999,175,75
2026-05-11 17:55:12.151,3,-2.37,0.75,-0.93,-6.3834,154.9372,121.67899999999999,175,75
2026-05-11 17:55:12.166,3,-0.68,-0.11,-1.1,5.806600000000001,216.6472,64.909,175,75
2026-05-11 17:55:12.188,3,0.47,0.16,0.21,-10.0434,173.8472,-29.541,175,75
2026-05-11 17:55:12.188,3,-1.72,0.48,1.03,0.07660000000000089,65.4272,138.079,175,75
2026-05-11 17:55:12.233,3,-0.86,-2.6,0.49,58.9166,298.90720000000005,3.0189999999999984,175,75
2026-05-11 17:55:12.243,3,-0.02,-3.88,2.3,193.9166,109.3272,-83.571,175,75
2026-05-11 17:55:12.243,3,-1.03,-2.09,1.23,108.0666,117.9272,-61.491,175,75
2026-05-11 17:55:12.254,3,-1.21,-1.23,0.69,17.1566,85.3672,-0.5810000000000004,175,75
2026-05-11 17:55:12.268,3,0.26,-0.5,1.24,29.8966,104.81719999999999,-6.981000000000001,175,75
2026-05-11 17:55:12.280,3,-0.63,-0.53,1.98,-13.523399999999997,103.1772,30.339,175,75
2026-05-11 17:55:12.291,3,-1.22,-0.81,1.89,-76.02340000000001,101.21719999999999,-2.8310000000000004,175,75
2026-05-11 17:55:12.310,3,-1.11,-0.88,1.55,-168.45340000000002,147.56719999999999,-27.711000000000002,175,75
2026-05-11 17:55:12.320,3,-0.61,-0.78,1.3,-196.2634,152.13719999999998,-29.241,175,75
2026-05-11 17:55:12.320,3,-0.76,-1.0,1.24,-187.1134,156.8972,-29.181,175,75
2026-05-11 17:55:12.329,3,-0.69,-1.48,1.22,-166.1434,165.5472,-43.021,175,75
2026-05-11 17:55:12.352,3,-0.45,-2.46,1.36,-142.3634,154.5772,-53.991,175,75
2026-05-11 17:55:12.367,3,-0.17,-2.99,1.12,-134.1334,148.41719999999998,-28.081,175,75
2026-05-11 17:55:12.367,3,0.17,-2.48,0.33,-130.3434,100.4872,-1.431000000000001,175,75
2026-05-11 17:55:12.437,3,-0.24,-1.45,0.94,249.7766,15.547199999999997,-4.661000000000001,175,75
2026-05-11 17:55:12.437,3,-0.78,-1.07,0.75,317.21659999999997,139.2672,9.788999999999998,175,75
2026-05-11 17:55:12.467,3,-0.09,-1.2,0.87,314.46659999999997,131.28719999999998,-22.041,175,75
2026-05-11 17:55:12.490,3,1.19,0.01,0.86,284.9566,44.5772,-54.121,175,75
2026-05-11 17:55:12.525,3,0.96,0.2,1.1,251.1166,-31.4028,-33.201,175,75
2026-05-11 17:55:12.570,3,0.38,-0.74,-0.1,183.8566,-188.3528,-143.57100000000003,175,75
2026-05-11 17:55:12.570,3,0.23,-0.65,-0.3,194.5866,-141.9528,-185.52100000000002,175,75
2026-05-11 17:55:12.613,3,0.25,-0.52,-0.26,211.9066,-105.6728,-207.961,175,75
2026-05-11 17:55:12.613,3,0.24,-0.61,-0.17,215.8066,-88.71279999999999,-220.88100000000003,175,75
2026-05-11 17:55:12.613,3,0.1,-0.79,-0.07,206.6066,-90.9728,-238.51100000000002,175,75
2026-05-11 17:55:12.626,3,-0.25,-0.9,-0.08,191.9066,-108.2328,-262.901,175,75
2026-05-11 17:55:12.639,3,-0.53,-0.85,-0.02,166.2366,-95.6028,-289.601,175,75
2026-05-11 17:55:12.650,3,-0.61,-0.85,0.25,161.8466,-94.3228,-295.031,175,75
2026-05-11 17:55:12.650,3,-0.72,-0.91,0.47,144.7166,-115.24279999999999,-296.31100000000004,175,75
2026-05-11 17:55:12.659,3,-0.9,-0.97,0.4,111.6666,-128.5928,-298.511,175,75
2026-05-11 17:55:12.659,3,-1.24,-0.96,0.02,68.0666,-98.84280000000001,-295.091,175,75
2026-05-11 17:55:12.704,3,-2.08,-0.57,-0.43,98.2466,147.7472,-277.651,175,75
2026-05-11 17:55:12.728,3,-2.09,-0.6,-0.44,95.50659999999999,221.1572,-259.541,175,75
2026-05-11 17:55:12.728,3,-1.97,-0.6,-0.66,48.976600000000005,284.7572,-216.13100000000003,175,75
2026-05-11 17:55:12.768,3,-2.86,0.47,-1.94,-209.8634,378.23720000000003,18.929,175,75
2026-05-11 17:55:12.789,3,-5.99,2.68,0.89,-148.2734,478.65720000000005,196.06900000000002,175,75
2026-05-11 17:55:12.789,3,-6.83,2.93,5.68,379.7766,974.3972,297.289,175,75
2026-05-11 17:55:12.822,3,1.3,-5.78,7.12,388.8566,-376.28279999999995,-267.101,175,75
2026-05-11 17:55:12.822,3,-1.81,0.54,1.61,-693.2134,-552.2528,393.449,175,75
2026-05-11 17:55:12.822,3,-1.09,-0.76,-0.74,-577.7833999999999,-81.6428,185.949,175,75
2026-05-11 17:55:12.847,3,-0.88,-1.5,-2.19,-64.49340000000001,37.3172,21.739,175,75
2026-05-11 17:55:12.858,3,-1.98,-1.56,-1.3,26.236600000000003,244.45719999999997,75.339,175,75
2026-05-11 17:55:12.862,3,-2.0,-1.69,0.2,21.6066,350.0672,51.919,175,75
2026-05-11 17:55:12.877,3,-1.02,-2.28,1.13,-26.563399999999994,183.2972,-32.291,175,75
2026-05-11 17:55:12.884,3,-0.23,-2.06,1.33,-56.8734,146.7672,-49.051,175,75
2026-05-11 17:55:12.896,3,0.61,-2.03,2.35,-52.843399999999995,168.7172,26.429000000000002,175,75
2026-05-11 17:55:12.937,3,1.17,-1.51,1.62,-158.3334,-99.93280000000001,87.289,175,75
2026-05-11 17:55:12.948,3,0.9,-1.8,0.91,-144.0034,-62.1928,74.599,175,75
2026-05-11 17:55:12.948,3,0.64,-1.29,0.61,-88.9434,-34.9928,29.729,175,75
2026-05-11 17:55:12.959,3,0.86,-0.84,0.63,-16.443399999999997,15.857199999999999,-19.601,175,75
2026-05-11 17:55:12.972,3,1.21,-0.19,0.99,84.6566,72.0172,-35.400999999999996,175,75
2026-05-11 17:55:12.997,3,1.38,0.03,1.33,118.2466,54.9972,-6.191000000000001,175,75
2026-05-11 17:55:13.008,3,-0.33,-0.26,1.55,118.5566,-27.8628,40.759,175,75
2026-05-11 17:55:13.008,3,0.23,-0.91,1.88,172.6966,-16.4628,-1.011000000000001,175,75
2026-05-11 17:55:13.021,3,1.84,-1.66,1.86,72.1566,-172.68280000000001,-61.981,175,75
2026-05-11 17:55:13.035,3,1.63,-0.88,1.06,-13.823399999999998,-266.64279999999997,-59.241,175,75
2026-05-11 17:55:13.083,3,0.97,-0.49,0.11,-5.953399999999997,-280.3628,-87.831,175,75
2026-05-11 17:55:13.094,3,0.51,-0.53,-0.73,-15.533399999999999,-202.43280000000001,-163.69099999999997,175,75
2026-05-11 17:55:13.120,3,-0.43,-0.73,-0.37,-29.803399999999996,55.2472,-241.19099999999997,175,75
2026-05-11 17:55:13.129,3,-0.7,-0.94,0.21,-21.563399999999994,59.0272,-255.401,175,75
2026-05-11 17:55:13.148,3,-1.51,-1.11,0.82,-39.803399999999996,23.5972,-226.43099999999998,175,75
2026-05-11 17:55:13.148,3,-2.06,-0.93,0.61,-78.4534,46.287200000000006,-228.63100000000003,175,75
2026-05-11 17:55:13.158,3,-2.35,-0.75,0.11,-95.77340000000001,105.6072,-250.76100000000002,175,75
2026-05-11 17:55:13.158,3,-2.49,-0.71,-0.44,-53.1534,234.02719999999997,-255.091,175,75
2026-05-11 17:55:13.198,3,-2.35,0.25,0.3,211.8466,549.0872,-124.121,175,75
2026-05-11 17:55:13.223,3,-1.83,0.58,0.3,125.50659999999999,389.5772,-60.821,175,75
2026-05-11 17:55:13.235,3,-1.59,0.54,-0.04,76.9066,301.6472,-8.931000000000001,175,75
2026-05-11 17:55:13.235,3,-1.51,0.53,-0.56,54.3466,176.03719999999998,59.669,175,75
2026-05-11 17:55:13.260,3,-3.49,1.75,0.34,85.44659999999999,207.31719999999999,112.779,175,75
2026-05-11 17:55:13.260,3,0.14,-1.09,-0.59,101.5466,195.6072,89.909,175,75
2026-05-11 17:55:13.271,3,-1.2,-1.4,-0.52,-46.633399999999995,18.2372,119.599,175,75
2026-05-11 17:55:13.284,3,-3.83,-0.78,-0.55,-118.45340000000002,-184.4528,232.469,175,75
2026-05-11 17:55:13.289,3,-2.86,-2.18,-1.3,-198.6434,-32.6228,149.47899999999998,175,75
2026-05-11 17:55:13.300,3,-0.98,-1.67,-1.37,-152.6634,29.4572,-118.631,175,75
2026-05-11 17:55:13.312,3,2.77,-5.8,1.54,199.2866,78.1072,-251.74099999999999,175,75
2026-05-11 17:55:13.323,3,-0.84,-4.61,1.74,278.5566,420.97720000000004,123.379,175,75
2026-05-11 17:55:13.354,3,-0.83,-0.06,-0.62,100.19659999999999,146.5872,-233.63100000000003,175,75
2026-05-11 17:55:13.378,3,-0.41,-0.69,3.89,54.7766,58.177200000000006,103.259,175,75
2026-05-11 17:55:13.390,3,-1.91,-0.76,1.86,-120.1634,-38.9628,64.059,175,75
2026-05-11 17:55:13.422,3,-0.7,-0.84,1.36,-83.21340000000001,147.56719999999999,-24.541,175,75
2026-05-11 17:55:13.445,3,-0.72,-1.21,1.47,-180.5934,190.4872,-32.650999999999996,175,75
2026-05-11 17:55:13.456,3,-0.69,-1.33,1.39,-198.2734,160.00719999999998,-30.821,175,75
2026-05-11 17:55:13.459,3,-0.27,-2.24,1.21,-185.4734,108.2972,-23.691000000000003,175,75
2026-05-11 17:55:13.471,3,0.3,-2.93,0.71,-177.9134,56.157199999999996,-9.421000000000001,175,75
2026-05-11 17:55:13.497,3,-0.03,-1.96,-0.02,-84.6134,35.0072,-14.851,175,75
2026-05-11 17:55:13.497,3,0.27,-1.02,0.26,-22.423399999999994,62.017199999999995,-52.651,175,75
2026-05-11 17:55:13.519,3,1.54,-1.3,0.85,98.7966,-72.4328,29.789,175,75
2026-05-11 17:55:13.546,3,-0.09,-1.64,0.26,160.01659999999998,-19.3928,24.668999999999997,175,75
2026-05-11 17:55:13.559,3,-0.2,-1.6,-0.01,188.3666,100.3672,-0.8210000000000006,175,75
2026-05-11 17:55:13.559,3,0.07,-1.42,-0.13,217.82659999999998,180.7972,-36.311,175,75
2026-05-11 17:55:13.583,3,0.67,-0.82,-0.14,204.8966,172.13719999999998,-101.371,175,75
2026-05-11 17:55:13.604,3,1.17,-0.01,0.59,231.2366,153.6572,-129.481,175,75
2026-05-11 17:55:13.623,3,1.16,-0.09,1.08,135.0166,-45.1828,-153.38100000000003,175,75
2026-05-11 17:55:13.636,3,0.95,-0.42,0.46,82.6366,-139.1428,-166.31099999999998,175,75
2026-05-11 17:55:13.652,3,0.55,-0.5,0.01,89.83659999999999,-132.5628,-199.12099999999998,175,75
2026-05-11 17:55:13.669,3,0.39,-0.54,-0.08,105.3266,-82.9828,-249.971,175,75
2026-05-11 17:55:13.669,3,0.41,-0.58,0.05,108.0666,-53.5928,-276.25100000000003,175,75
2026-05-11 17:55:13.703,3,-0.19,-0.78,0.3,122.5166,6.347200000000001,-325.521,175,75
2026-05-11 17:55:13.721,3,-0.52,-0.76,0.53,144.8366,20.9172,-343.571,175,75
2026-05-11 17:55:13.738,3,-0.9,-0.61,0.44,141.6066,26.767200000000003,-335.091,175,75
2026-05-11 17:55:13.746,3,-1.2,-0.73,0.29,145.6266,72.9872,-319.541,175,75
2026-05-11 17:55:13.760,3,-1.65,-0.99,0.39,187.51659999999998,146.9572,-295.401,175,75
2026-05-11 17:55:13.760,3,-2.04,-1.18,0.53,221.7866,175.3672,-271.011,175,75
2026-05-11 17:55:13.774,3,-2.63,-1.27,0.51,230.9966,196.4072,-238.93099999999998,175,75
2026-05-11 17:55:13.786,3,-3.27,-1.13,0.24,209.4666,245.4872,-228.75099999999998,175,75
2026-05-11 17:55:13.808,3,-3.58,-0.35,-1.18,205.01659999999998,384.9372,-149.971,175,75
2026-05-11 17:55:13.838,3,-2.5,0.56,-0.7,202.0866,452.3172,-135.761,175,75
2026-05-11 17:55:13.848,3,-0.07,1.03,0.43,67.9466,210.6772,-116.311,175,75
2026-05-11 17:55:13.860,3,-0.83,1.79,2.67,-104.13340000000001,-7.012800000000002,57.409000000000006,175,75
2026-05-11 17:55:13.882,3,0.67,-4.48,3.3,-274.6134,-188.9028,39.599,175,75
2026-05-11 17:55:13.889,3,2.2,0.38,1.22,-394.2534,-423.1728,7.529,175,75
2026-05-11 17:55:13.917,3,-0.05,-1.63,-0.27,-204.1934,132.6272,136.79899999999998,175,75
2026-05-11 17:55:13.929,3,-0.97,-2.53,-0.16,-136.1434,253.1072,139.539,175,75
2026-05-11 17:55:13.940,3,-1.71,-2.48,-0.49,-172.9134,105.18719999999999,156.85899999999998,175,75
2026-05-11 17:55:13.950,3,-1.83,-2.29,-1.03,-112.1134,114.0872,122.229,175,75
2026-05-11 17:55:13.953,3,-1.26,-1.87,-0.27,-14.193399999999999,180.6772,65.519,175,75
2026-05-11 17:55:13.969,3,0.12,-1.76,0.86,39.2866,239.63719999999998,16.189,175,75
2026-05-11 17:55:13.986,3,0.52,-1.48,2.36,39.2866,295.1272,56.129000000000005,175,75
2026-05-11 17:55:13.986,3,0.5,-1.8,2.92,-3.8834,162.9872,80.209,175,75
2026-05-11 17:55:13.997,3,0.72,-2.06,2.94,-64.8634,31.827199999999998,50.149,175,75
2026-05-11 17:55:14.007,3,1.14,-1.68,2.06,-130.2234,-109.08279999999999,64.969,175,75
2026-05-11 17:55:14.065,3,1.42,-0.14,1.2,136.0566,173.41719999999998,-40.941,175,75
2026-05-11 17:55:14.074,3,1.57,-0.07,1.73,151.2366,126.6472,-46.131,175,75
2026-05-11 17:55:14.100,3,-0.05,-0.3,0.95,74.7766,-7.192800000000002,-28.321,175,75
2026-05-11 17:55:14.150,3,1.14,-0.73,0.81,25.256600000000002,-283.1728,-141.801,175,75
2026-05-11 17:55:14.190,3,-0.28,-0.96,-0.68,2.026600000000002,67.37719999999999,-273.141,175,75
2026-05-11 17:55:14.215,3,-0.64,-1.26,-0.16,7.456600000000002,74.5172,-288.141,175,75
2026-05-11 17:55:14.226,3,-1.62,-1.24,0.3,0.19660000000000188,59.877199999999995,-251.801,175,75
2026-05-11 17:55:14.270,3,-2.47,-0.87,0.22,-25.773399999999995,138.2372,-248.38100000000003,175,75
2026-05-11 17:55:14.290,3,-2.7,-0.84,-0.29,55.3866,328.78720000000004,-143.32100000000003,175,75
2026-05-11 17:55:14.317,3,-3.1,-0.19,-0.6,151.3566,509.57720000000006,-65.271,175,75
2026-05-11 17:55:14.358,3,-1.7,0.37,-0.43,170.5666,516.7072000000001,-36.981,175,75
2026-05-11 17:55:14.370,3,-2.31,1.06,0.12,133.3066,437.2572,62.289,175,75
2026-05-11 17:55:14.370,3,-1.44,0.68,0.76,105.0166,373.10720000000003,116.189,175,75
2026-05-11 17:55:14.380,3,0.1,-2.24,1.01,56.726600000000005,103.59719999999999,95.519,175,75
2026-05-11 17:55:14.410,3,-3.44,-1.14,-0.41,-203.70340000000002,-144.3928,195.519,175,75
2026-05-11 17:55:14.411,3,-1.49,-1.34,-1.71,-123.27340000000001,77.49719999999999,-8.321000000000002,175,75
2026-05-11 17:55:14.422,3,-1.01,-1.02,-0.65,14.5866,62.257200000000005,-51.071,175,75
2026-05-11 17:55:14.445,3,1.33,-3.69,1.81,142.8866,126.46719999999999,-64.971,175,75
2026-05-11 17:55:14.451,3,0.33,-1.75,2.67,137.2166,223.0472,45.399,175,75
2026-05-11 17:55:14.462,3,-1.84,-1.01,1.34,-51.4434,59.517199999999995,114.849,175,75
2026-05-11 17:55:14.473,3,0.05,-0.45,0.41,60.446600000000004,184.5772,-53.381,175,75
2026-05-11 17:55:14.477,3,0.16,-0.73,2.46,-10.953399999999997,179.5772,51.009,175,75
2026-05-11 17:55:14.511,3,-0.61,-1.17,1.19,-106.02340000000001,211.1572,-37.041,175,75
2026-05-11 17:55:14.546,3,-0.0,-3.14,1.52,-75.4734,94.75720000000001,-9.361,175,75
2026-05-11 17:55:14.562,3,0.28,-2.9,1.57,-85.0434,-31.2128,-3.6910000000000007,175,75
2026-05-11 17:55:14.571,3,0.79,-1.8,1.34,-135.4134,-99.75280000000001,-37.531000000000006,175,75
2026-05-11 17:55:14.578,3,1.22,-0.74,0.78,-123.0334,-94.08279999999999,-34.481,175,75
2026-05-11 17:55:14.591,3,1.7,-0.61,0.28,-43.703399999999995,-32.4928,-6.551000000000001,175,75
2026-05-11 17:55:14.605,3,2.0,-1.02,0.23,61.7866,-8.352800000000002,-1.7410000000000005,175,75
2026-05-11 17:55:14.605,3,1.03,-1.22,0.33,136.1166,-29.0228,-15.331,175,75
2026-05-11 17:55:14.629,3,0.26,-1.24,-0.02,190.9966,79.69720000000001,-24.241,175,75
2026-05-11 17:55:14.686,3,2.12,-2.07,2.1,205.2566,-81.7028,-104.481,175,75
2026-05-11 17:55:14.695,3,1.66,-0.56,1.11,54.89660000000001,-253.6528,-68.381,175,75
2026-05-11 17:55:14.708,3,0.95,-0.4,0.19,74.8366,-305.7928,-108.081,175,75
2026-05-11 17:55:14.722,3,0.77,-0.79,-0.41,75.4466,-291.70279999999997,-160.70100000000002,175,75
2026-05-11 17:55:14.722,3,0.73,-0.95,-0.83,55.1366,-219.3228,-206.19099999999997,175,75
2026-05-11 17:55:14.767,3,0.4,-0.55,-0.49,77.4566,-11.642800000000001,-268.69100000000003,175,75
2026-05-11 17:55:14.777,3,0.3,-0.64,-0.06,74.3466,-27.192800000000002,-277.531,175,75
2026-05-11 17:55:14.820,3,-0.44,-0.81,0.05,6.416600000000002,-48.2928,-294.541,175,75
2026-05-11 17:55:14.835,3,-0.73,-1.02,0.12,-17.1134,-2.012800000000002,-305.461,175,75
2026-05-11 17:55:14.851,3,-1.71,-1.3,0.21,-37.423399999999994,71.9572,-276.43100000000004,175,75
2026-05-11 17:55:14.878,3,-2.38,-1.34,0.24,-31.3234,120.8572,-246.801,175,75
2026-05-11 17:55:14.902,3,-3.19,-1.16,0.25,-22.603399999999993,181.1572,-203.32100000000003,175,75
2026-05-11 17:55:14.922,3,-4.24,-0.24,-0.03,92.8866,340.48720000000003,-150.82100000000003,175,75
2026-05-11 17:55:14.956,3,-2.81,-0.86,1.94,89.7166,114.3272,-61.011,175,75
2026-05-11 17:55:14.956,3,0.66,-3.26,-0.59,-355.4734,-105.9728,104.539,175,75
2026-05-11 17:55:14.973,3,-1.83,-0.71,-1.33,-271.3234,-358.78279999999995,298.139,175,75
2026-05-11 17:55:14.989,3,1.22,-4.05,0.93,69.7166,352.5672,-26.131,175,75
2026-05-11 17:55:15.006,3,0.08,-0.3,1.42,68.9766,352.6272,108.019,175,75
2026-05-11 17:55:15.027,3,-2.01,-1.43,0.3,-162.7234,-51.2828,145.949,175,75
2026-05-11 17:55:15.059,3,-0.02,-2.04,1.74,-21.9334,153.9072,-15.581,175,75
2026-05-11 17:55:15.069,3,0.51,-2.2,1.67,-29.983399999999996,145.3072,-0.8210000000000006,175,75
2026-05-11 17:55:15.078,3,0.77,-2.22,1.61,-56.75339999999999,41.647200000000005,36.129,175,75
2026-05-11 17:55:15.098,3,1.06,-2.11,1.58,-75.77340000000001,34.0872,40.638999999999996,175,75
2026-05-11 17:55:15.101,3,1.42,-2.03,1.34,-33.5834,51.5872,31.249000000000002,175,75
2026-05-11 17:55:15.115,3,2.09,-2.37,0.92,-26.813399999999994,44.0872,22.959,175,75
2026-05-11 17:55:15.161,3,1.1,-0.29,0.61,216.4766,240.9172,-88.321,175,75
2026-05-11 17:55:15.178,3,0.2,0.08,1.47,232.3966,149.63719999999998,-84.481,175,75
2026-05-11 17:55:15.203,3,1.32,-0.54,0.48,46.726600000000005,-193.9028,-156.43099999999998,175,75
2026-05-11 17:55:15.214,3,1.02,-0.52,-0.03,40.446600000000004,-181.7628,-193.51100000000002,175,75
2026-05-11 17:55:15.224,3,0.9,-0.59,-0.36,21.3566,-163.4728,-225.58100000000002,175,75
2026-05-11 17:55:15.239,3,0.6,-0.55,-0.61,-9.373399999999998,-130.6028,-247.591,175,75
2026-05-11 17:55:15.282,3,0.25,-0.49,-0.73,-28.3934,-63.1728,-268.141,175,75
2026-05-11 17:55:15.292,3,-0.06,-0.53,-0.56,-27.603399999999993,1.7072000000000003,-283.201,175,75
2026-05-11 17:55:15.292,3,-0.23,-0.71,-0.31,-25.343399999999995,22.8072,-290.331,175,75
2026-05-11 17:55:15.314,3,-0.39,-0.99,-0.09,-26.1434,13.8472,-293.081,175,75
2026-05-11 17:55:15.314,3,-0.77,-1.23,0.26,-30.533399999999993,-4.692800000000002,-285.151,175,75
2026-05-11 17:55:15.336,3,-1.69,-1.66,0.53,-35.413399999999996,42.017199999999995,-217.531,175,75
2026-05-11 17:55:15.372,3,-2.92,-1.05,-0.16,14.046600000000002,271.40720000000005,-198.81099999999998,175,75
2026-05-11 17:55:15.409,3,-2.87,0.16,-0.22,231.3566,524.6372,-63.081,175,75
2026-05-11 17:55:15.432,3,-1.35,-0.12,0.55,178.0666,434.5772,7.408999999999999,175,75
2026-05-11 17:55:15.432,3,-0.88,-0.1,0.28,83.3066,331.7672,59.789,175,75
2026-05-11 17:55:15.454,3,-0.81,-0.05,-0.24,44.226600000000005,264.6972,98.629,175,75
2026-05-11 17:55:15.464,3,-1.33,0.27,-0.49,29.2866,263.23720000000003,121.55900000000001,175,75
2026-05-11 17:55:15.487,3,-2.28,1.73,0.47,10.136600000000001,285.1872,133.199,175,75
2026-05-11 17:55:15.487,3,1.49,-2.17,0.94,16.116600000000002,125.6072,40.028999999999996,175,75
2026-05-11 17:55:15.498,3,-1.49,0.04,1.68,-22.843399999999995,-115.24279999999999,169.969,175,75
2026-05-11 17:55:15.519,3,-1.59,-2.12,-0.26,-224.67340000000002,50.7972,94.729,175,75
2026-05-11 17:55:15.531,3,-0.73,-1.07,-0.85,-135.0434,-18.5928,26.308999999999997,175,75
2026-05-11 17:55:15.551,3,0.13,-1.67,-0.24,12.276600000000002,81.34719999999999,-13.511000000000001,175,75
2026-05-11 17:55:15.562,3,-1.05,-2.24,1.27,29.776600000000002,105.5472,34.239,175,75
2026-05-11 17:55:15.565,3,-1.78,-0.99,0.01,-7.303399999999998,-4.262800000000002,51.679,175,75
2026-05-11 17:55:15.618,3,0.07,-0.56,2.12,14.466600000000001,169.75719999999998,-2.771000000000001,175,75
2026-05-11 17:55:15.629,3,-0.88,-1.11,1.73,-78.1534,75.4872,24.238999999999997,175,75
2026-05-11 17:55:15.641,3,-1.06,-1.18,1.28,-114.74340000000001,141.7072,-19.181,175,75
2026-05-11 17:55:15.659,3,0.13,-2.02,1.76,-104.9234,181.8272,-1.4910000000000005,175,75
2026-05-11 17:55:15.659,3,-0.17,-2.75,1.68,-98.7634,174.81719999999999,-2.6510000000000007,175,75
2026-05-11 17:55:15.678,3,0.15,-3.06,1.54,-60.6534,89.0872,-2.961000000000001,175,75
2026-05-11 17:55:15.690,3,0.29,-2.61,1.58,-83.3934,5.187200000000001,-17.591,175,75
2026-05-11 17:55:15.709,3,1.83,-0.79,0.56,-34.743399999999994,89.2672,-56.131,175,75
2026-05-11 17:55:15.709,3,2.12,-0.85,0.63,60.256600000000006,107.68719999999999,-30.941000000000003,175,75
2026-05-11 17:55:15.720,3,1.81,-1.16,0.73,116.6666,2.927199999999999,-44.541000000000004,175,75
2026-05-11 17:55:15.761,3,-1.18,-1.08,1.01,328.9766,161.03719999999998,65.459,175,75
2026-05-11 17:55:15.801,3,2.24,-1.87,2.06,191.9666,-73.6528,-99.481,175,75
2026-05-11 17:55:15.812,3,1.74,-0.28,1.29,48.5566,-229.4528,-35.091,175,75
2026-05-11 17:55:15.812,3,1.09,-0.06,0.52,56.3566,-315.0628,-52.901,175,75
2026-05-11 17:55:15.828,3,0.81,-0.91,-0.88,25.1366,-291.64279999999997,-146.13100000000003,175,75
2026-05-11 17:55:15.867,3,0.54,-0.26,-1.0,11.846600000000002,-68.7128,-220.70100000000002,175,75
2026-05-11 17:55:15.899,3,-0.12,-0.71,-0.02,-44.493399999999994,-93.96279999999999,-260.761,175,75
2026-05-11 17:55:15.910,3,-0.3,-0.81,0.09,-60.28339999999999,-85.7928,-269.051,175,75
2026-05-11 17:55:15.929,3,-0.57,-1.13,0.42,-72.66340000000001,-64.3928,-283.81100000000004,175,75
2026-05-11 17:55:15.953,3,-1.21,-1.74,0.44,-97.1134,0.24719999999999942,-278.81100000000004,175,75
2026-05-11 17:55:15.986,3,-1.69,-1.9,0.25,-104.74340000000001,77.19720000000001,-268.63100000000003,175,75
2026-05-11 17:55:16.009,3,-3.78,-0.58,0.03,4.526600000000002,268.23720000000003,-184.481,175,75
2026-05-11 17:55:16.020,3,-3.96,0.5,0.43,133.3666,353.10720000000003,-138.14100000000002,175,75
2026-05-11 17:55:16.043,3,-2.24,-0.1,2.17,120.0166,117.43719999999999,118.079,175,75
2026-05-11 17:55:16.141,3,-0.59,-2.88,-0.32,136.8466,331.8972,65.089,175,75
2026-05-11 17:55:16.165,3,-0.61,-0.82,1.35,89.1066,198.78719999999998,96.309,175,75
2026-05-11 17:55:16.176,3,-0.85,-0.98,1.92,2.3366000000000025,78.3572,90.639,175,75
2026-05-11 17:55:16.188,3,-0.79,-0.93,1.41,-59.3734,70.6772,58.07899999999999,175,75
2026-05-11 17:55:16.198,3,-0.4,-1.15,1.02,-53.7634,75.4872,-6.681000000000001,175,75
2026-05-11 17:55:16.210,3,-0.17,-1.45,0.85,-40.8334,92.37719999999999,-28.511,175,75
2026-05-11 17:55:16.272,3,1.64,-1.92,0.6,76.3566,104.93719999999999,-7.711,175,75
2026-05-11 17:55:16.284,3,1.58,-1.44,0.3,91.0566,105.24719999999999,-45.151,175,75
2026-05-11 17:55:16.293,3,1.29,-0.95,-0.02,110.0766,132.7472,-59.421,175,75
2026-05-11 17:55:16.308,3,1.0,-0.2,0.19,187.51659999999998,231.64719999999997,-63.991,175,75
2026-05-11 17:55:16.318,3,0.75,0.14,1.06,227.9466,213.78719999999998,-53.931,175,75
2026-05-11 17:55:16.318,3,0.34,0.04,1.53,215.32659999999998,115.00719999999998,-34.911,175,75
2026-05-11 17:55:16.341,3,1.05,-0.84,2.07,235.9366,24.0272,-63.201,175,75
2026-05-11 17:55:16.341,3,2.18,-1.67,1.91,106.11659999999999,-175.9728,-80.761,175,75
2026-05-11 17:55:16.365,3,1.62,-0.96,0.8,-9.373399999999998,-286.15279999999996,-102.901,175,75
2026-05-11 17:55:16.379,3,1.18,-0.66,-0.05,-20.473399999999998,-281.52279999999996,-142.77100000000002,175,75
2026-05-11 17:55:16.413,3,0.95,-0.52,-0.65,-19.193399999999997,-247.68280000000001,-187.291,175,75
2026-05-11 17:55:16.459,3,-0.27,-0.76,-0.59,-72.4834,5.487199999999998,-237.77100000000002,175,75
2026-05-11 17:55:16.501,3,-1.45,-1.62,0.22,-147.7834,1.897199999999998,-235.76100000000002,175,75
2026-05-11 17:55:16.513,3,-1.57,-1.44,-0.03,-137.0534,79.81719999999999,-244.721,175,75
2026-05-11 17:55:16.524,3,-1.8,-1.02,-0.04,-74.2534,264.5172,-204.541,175,75
2026-05-11 17:55:16.534,3,-2.19,-0.64,0.06,-20.773399999999995,296.28720000000004,-154.051,175,75
2026-05-11 17:55:16.561,3,-2.48,-0.07,0.17,12.026600000000002,347.7472,-69.051,175,75
2026-05-11 17:55:16.584,3,-1.99,0.1,0.29,26.416600000000003,299.5172,-62.161,175,75
2026-05-11 17:55:16.596,3,-1.47,0.3,0.31,22.6366,249.57719999999998,-36.551,175,75
2026-05-11 17:55:16.609,3,-2.21,0.86,1.75,153.4366,350.73720000000003,106.009,175,75
2026-05-11 17:55:16.633,3,1.16,-4.4,0.91,-5.953399999999997,-182.80280000000002,131.18900000000002,175,75
2026-05-11 17:55:16.646,3,-3.43,-1.25,-2.06,-366.0234,-425.5428,351.24899999999997,175,75
2026-05-11 17:55:16.705,3,-0.34,-0.68,1.28,-56.44339999999999,-11.7028,-75.151,175,75
2026-05-11 17:55:16.756,3,-0.87,-0.73,1.07,-62.423399999999994,22.257199999999997,41.129,175,75
2026-05-11 17:55:16.797,3,-0.25,-0.86,1.15,-83.52340000000001,101.28720000000001,4.2989999999999995,175,75
2026-05-11 17:55:16.808,3,-0.55,-0.99,1.11,-81.63340000000001,99.3972,-3.261000000000001,175,75
2026-05-11 17:55:16.869,3,-0.42,-1.49,0.97,-85.2834,79.4572,-23.081000000000003,175,75
2026-05-11 17:55:16.903,3,0.16,-2.26,0.64,-46.633399999999995,34.3972,-1.9810000000000008,175,75
2026-05-11 17:55:16.961,3,1.09,-1.67,0.89,16.236600000000003,82.0172,-4.541,175,75
2026-05-11 17:55:16.973,3,1.12,-1.8,0.97,72.5766,95.06719999999999,-29.421,175,75
2026-05-11 17:55:16.983,3,0.53,-1.34,0.47,108.6766,7.437200000000001,-76.981,175,75
2026-05-11 17:55:16.993,3,-1.05,0.24,0.6,311.5466,286.28720000000004,-28.991,175,75
2026-05-11 17:55:17.022,3,0.41,0.62,-0.77,33.2466,-171.0328,-131.74099999999999,175,75
