Time,ID,Ax,Ay,Az,Gx,Gy,Gz,Height,Weight
2026-05-07 18:39:43.037,3,-0.03,-1.42,1.57,163.20260000000002,119.92259999999999,-31.465,175,75
2026-05-07 18:39:43.096,3,-0.76,-0.84,-0.8,0.5725999999999978,130.1626,-4.694999999999999,175,75
2026-05-07 18:39:43.123,3,-0.8,-0.98,-0.25,-27.3474,174.0026,-19.945,175,75
2026-05-07 18:39:43.222,3,-0.78,-1.35,0.55,-236.5574,2.2426000000000013,-17.744999999999997,175,75
2026-05-07 18:39:43.234,3,-0.79,-1.42,0.6,-251.0074,-12.6374,-13.174999999999999,175,75
2026-05-07 18:39:43.246,3,-0.86,-1.46,0.48,-259.36740000000003,-13.3674,-7.385,175,75
2026-05-07 18:39:43.292,3,-0.98,-1.5,0.37,-241.2574,35.2926,-0.125,175,75
2026-05-07 18:39:43.292,3,-0.99,-1.41,0.41,-228.5674,54.3126,-2.1950000000000003,175,75
2026-05-07 18:39:43.356,3,-1.07,-0.8,0.88,-150.51739999999998,123.58260000000001,-1.7750000000000004,175,75
2026-05-07 18:39:43.356,3,-1.15,-0.65,1.04,-135.5174,129.2526,4.505000000000001,175,75
2026-05-07 18:39:43.380,3,-1.32,-0.37,1.62,-94.23740000000001,109.1926,24.625000000000004,175,75
2026-05-07 18:39:43.392,3,-1.35,-0.09,2.36,-50.45740000000001,30.8326,56.94500000000001,175,75
2026-05-07 18:39:43.413,3,-1.23,0.14,2.29,-19.727400000000003,-83.3674,71.455,175,75
2026-05-07 18:39:43.423,3,-1.04,0.04,1.45,44.602599999999995,-79.4674,84.08500000000001,175,75
2026-05-07 18:39:43.433,3,-1.26,0.28,1.54,82.59259999999999,25.712600000000002,39.205,175,75
2026-05-07 18:39:43.454,3,-1.84,-1.39,-0.88,-29.907400000000003,-376.60740000000004,138.285,175,75
2026-05-07 18:39:43.468,3,1.36,-6.55,1.64,366.00260000000003,361.57259999999997,18.165,175,75
2026-05-07 18:39:43.483,3,-2.84,-2.41,3.28,364.9626,-386.11740000000003,95.545,175,75
2026-05-07 18:39:43.493,3,-3.5,-0.09,0.24,-206.4974,-196.35739999999998,-402.075,175,75
2026-05-07 18:39:43.525,3,-2.07,2.12,-0.58,290.7626,261.8726,178.715,175,75
2026-05-07 18:39:43.558,3,-1.09,-1.06,1.81,79.2926,-70.19739999999999,47.985,175,75
2026-05-07 18:39:43.582,3,-0.93,-1.06,0.73,70.03259999999999,-84.8974,61.64500000000001,175,75
2026-05-07 18:39:43.595,3,-1.26,-1.12,0.72,66.73259999999999,-53.1274,40.295,175,75
2026-05-07 18:39:43.642,3,-1.29,-1.46,0.97,27.2826,-62.8174,14.205000000000002,175,75
2026-05-07 18:39:43.663,3,-1.28,-1.7,1.0,21.182599999999997,-66.8474,5.234999999999999,175,75
2026-05-07 18:39:43.693,3,-1.02,-3.03,0.68,22.402599999999996,-116.1774,-17.994999999999997,175,75
2026-05-07 18:39:43.730,3,-0.35,-2.23,-0.98,44.23259999999999,-72.51740000000001,-38.965,175,75
2026-05-07 18:39:43.740,3,-0.65,-2.07,-1.28,56.5526,-24.287399999999998,-11.045,175,75
2026-05-07 18:39:43.760,3,-0.91,-2.09,-1.25,96.12259999999999,26.992600000000003,-12.015,175,75
2026-05-07 18:39:43.773,3,-0.69,-1.69,-0.49,187.6526,153.39260000000002,-27.565,175,75
2026-05-07 18:39:43.790,3,-0.6,-1.58,-0.09,221.1226,130.7126,21.825,175,75
2026-05-07 18:39:43.820,3,-0.44,-2.37,-1.12,265.1526,116.4426,57.065,175,75
2026-05-07 18:39:43.852,3,-0.51,-1.07,-0.13,267.3426,259.19259999999997,134.20499999999998,175,75
2026-05-07 18:39:43.859,3,0.21,-2.35,0.67,191.92260000000002,62.4226,165.36499999999998,175,75
2026-05-07 18:39:43.875,3,-0.53,-2.33,0.17,81.06259999999999,-21.6674,141.155,175,75
2026-05-07 18:39:43.889,3,-0.39,-2.02,-0.35,54.78259999999999,-46.727399999999996,111.825,175,75
2026-05-07 18:39:43.900,3,-0.59,-1.96,-0.56,44.352599999999995,-17.3374,102.86500000000001,175,75
2026-05-07 18:39:43.900,3,-0.84,-1.98,-0.48,30.762599999999996,31.442600000000002,99.14500000000001,175,75
2026-05-07 18:39:43.914,3,-0.83,-2.01,-0.1,-0.6474000000000011,29.9826,53.53500000000001,175,75
2026-05-07 18:39:43.940,3,-0.65,-1.21,0.33,-115.0374,33.1526,-20.005,175,75
2026-05-07 18:39:43.968,3,-0.72,-0.76,0.56,-261.2574,4.8626000000000005,-99.945,175,75
2026-05-07 18:39:44.007,3,-0.77,-1.04,0.66,-375.5774,-21.2374,-159.51500000000001,175,75
2026-05-07 18:39:44.014,3,-0.76,-1.09,0.7,-397.2274,-26.727399999999996,-173.54500000000002,175,75
2026-05-07 18:39:44.058,3,-0.82,-1.27,0.64,-438.87739999999997,-23.6774,-188.785,175,75
2026-05-07 18:39:44.069,3,-0.87,-1.42,0.58,-463.4474,-2.9474,-188.785,175,75
2026-05-07 18:39:44.080,3,-0.73,-1.68,0.73,-477.1674,8.7626,-195.615,175,75
2026-05-07 18:39:44.099,3,-0.87,-1.75,0.63,-479.2974,27.5426,-189.57500000000002,175,75
2026-05-07 18:39:44.105,3,-0.98,-1.96,0.65,-473.99739999999997,63.1526,-184.63500000000002,175,75
2026-05-07 18:39:44.162,3,-2.05,-1.89,5.01,-158.4474,3.5226000000000006,-247.685,175,75
2026-05-07 18:39:44.203,3,-1.63,0.17,1.8,112.04260000000001,228.1526,-29.025,175,75
2026-05-07 18:39:44.220,3,-0.8,-0.21,2.78,135.6326,187.9126,26.154999999999998,175,75
2026-05-07 18:39:44.251,3,-2.44,0.26,2.9,112.8326,98.4026,90.295,175,75
2026-05-07 18:39:44.251,3,-2.63,-0.16,2.03,187.5926,12.5426,165.545,175,75
2026-05-07 18:39:44.262,3,0.63,-8.49,0.11,173.32260000000002,-378.42740000000003,199.265,175,75
2026-05-07 18:39:44.283,3,-4.55,1.66,1.94,432.4026,140.5326,130.665,175,75
2026-05-07 18:39:44.298,3,-1.17,-0.64,3.07,659.4226,-142.8174,-366.34499999999997,175,75
2026-05-07 18:39:44.377,3,-1.33,-1.58,0.7,90.70259999999999,18.4026,92.00500000000001,175,75
2026-05-07 18:39:44.386,3,-1.28,-1.46,0.92,73.5026,21.2026,70.72500000000001,175,75
2026-05-07 18:39:44.434,3,-1.24,-1.55,0.54,-4.177400000000002,-78.91739999999999,5.484999999999999,175,75
2026-05-07 18:39:44.473,3,-1.01,-4.69,0.07,-73.0174,-212.7574,36.825,175,75
2026-05-07 18:39:44.490,3,-0.87,-5.01,-0.95,-123.5074,-295.92740000000003,-16.285,175,75
2026-05-07 18:39:44.515,3,-0.09,-1.04,-3.38,-84.23740000000001,-221.7274,-150.555,175,75
2026-05-07 18:39:44.526,3,-0.39,0.34,-2.81,51.67259999999999,21.4426,-26.895,175,75
2026-05-07 18:39:44.537,3,-1.05,0.16,-1.65,139.42260000000002,201.5026,86.515,175,75
2026-05-07 18:39:44.549,3,-1.24,-1.13,-0.1,263.4426,204.3126,184.815,175,75
2026-05-07 18:39:44.561,3,-1.11,-2.2,0.04,233.8726,24.802599999999998,159.14499999999998,175,75
2026-05-07 18:39:44.573,3,-0.62,-2.42,-0.39,128.32260000000002,-11.177399999999999,25.235000000000003,175,75
2026-05-07 18:39:44.595,3,0.6,0.21,-1.66,79.2926,30.7726,25.785,175,75
2026-05-07 18:39:44.595,3,0.56,-0.85,-1.52,10.1526,47.4226,58.045,175,75
2026-05-07 18:39:44.606,3,0.07,-0.78,-1.63,-56.5574,67.6626,-27.445,175,75
2026-05-07 18:39:44.620,3,0.62,-0.05,-1.6,-107.46740000000001,69.1926,-71.045,175,75
2026-05-07 18:39:44.648,3,0.04,-0.36,-0.93,-189.8474,91.8126,-89.88499999999999,175,75
2026-05-07 18:39:44.670,3,-0.1,-0.92,-0.04,-226.0674,32.1126,-125.85499999999999,175,75
2026-05-07 18:39:44.700,3,-0.19,-1.42,0.47,-291.2574,-160.8074,-125.005,175,75
2026-05-07 18:39:44.711,3,-0.28,-1.43,0.41,-306.6774,-203.2474,-117.38499999999999,175,75
2026-05-07 18:39:44.754,3,-0.22,-0.99,0.68,-296.6174,-176.7274,-66.895,175,75
2026-05-07 18:39:44.754,3,-0.36,-0.78,0.78,-265.5174,-130.3174,-71.225,175,75
2026-05-07 18:39:44.782,3,-0.54,-0.86,1.42,-153.6274,15.7726,-60.435,175,75
2026-05-07 18:39:44.787,3,-0.5,-0.81,1.66,-123.01740000000001,40.2226,-81.16499999999999,175,75
2026-05-07 18:39:44.814,3,-12.34,3.64,5.35,145.39260000000002,738.5826,464.695,175,75
2026-05-07 18:39:44.833,3,-5.16,0.87,8.89,734.7826,636.8726,124.56500000000001,175,75
2026-05-07 18:39:44.838,3,-3.4,-2.11,10.61,996.6125999999999,31.9926,73.405,175,75
2026-05-07 18:39:44.861,3,-3.39,-7.2,2.2,-253.6874,-222.63739999999999,864.625,175,75
2026-05-07 18:39:44.867,3,-1.0,-7.3,0.5,87.40259999999999,-4.167400000000001,293.285,175,75
2026-05-07 18:39:44.883,3,-2.69,-2.62,-1.5,289.5426,-546.1774,-232.44500000000002,175,75
2026-05-07 18:39:44.893,3,-1.18,0.43,-4.34,-5.707400000000002,165.7726,-324.515,175,75
2026-05-07 18:39:44.925,3,-0.04,-0.6,2.64,256.5526,198.2726,193.89499999999998,175,75
2026-05-07 18:39:44.934,3,-1.46,-2.18,3.02,220.8826,-99.5874,252.55499999999998,175,75
2026-05-07 18:39:44.946,3,-2.82,-2.48,2.58,88.3826,-100.25739999999999,192.73499999999999,175,75
2026-05-07 18:39:44.946,3,-2.57,-1.84,1.63,-53.507400000000004,-175.8074,21.334999999999997,175,75
2026-05-07 18:39:44.961,3,-1.29,-0.95,0.16,-83.3274,-243.4974,-73.175,175,75
2026-05-07 18:39:44.988,3,-1.29,-1.31,-0.23,82.8926,-14.9574,53.83500000000001,175,75
2026-05-07 18:39:45.003,3,-1.4,-1.55,0.31,84.3526,40.6526,10.545000000000002,175,75
2026-05-07 18:39:45.014,3,-1.3,-1.26,0.82,72.34259999999999,38.2726,-49.334999999999994,175,75
2026-05-07 18:39:45.014,3,-1.06,-1.05,0.98,47.102599999999995,23.212600000000002,-48.415000000000006,175,75
2026-05-07 18:39:45.041,3,-1.24,-1.06,0.84,8.502599999999997,-15.3874,-37.625,175,75
2026-05-07 18:39:45.063,3,-1.12,-1.18,0.92,-19.727400000000003,-24.037399999999998,-50.004999999999995,175,75
2026-05-07 18:39:45.083,3,-1.06,-1.3,0.98,-46.7374,-34.8974,-51.595,175,75
2026-05-07 18:39:45.094,3,-0.99,-1.52,0.9,-69.6074,-63.977399999999996,-47.565,175,75
2026-05-07 18:39:45.108,3,-0.77,-2.37,0.3,-100.2774,-130.38739999999999,-23.295,175,75
2026-05-07 18:39:45.132,3,-0.7,-2.74,-0.15,-113.5674,-138.1874,-18.485,175,75
2026-05-07 18:39:45.146,3,-0.36,-2.32,-0.75,-97.5374,-138.1274,-40.855000000000004,175,75
2026-05-07 18:39:45.174,3,-0.06,-1.24,-0.8,-41.257400000000004,-83.2474,-34.945,175,75
2026-05-07 18:39:45.184,3,-0.53,-0.87,-0.62,-14.8474,-11.7274,-11.594999999999999,175,75
2026-05-07 18:39:45.194,3,-0.75,-0.79,-0.36,19.1726,48.7626,-0.8550000000000004,175,75
2026-05-07 18:39:45.218,3,-0.96,-1.0,0.38,114.90259999999999,91.20259999999999,43.045,175,75
2026-05-07 18:39:45.232,3,-0.65,-0.89,-0.05,80.8226,46.5726,13.655000000000001,175,75
2026-05-07 18:39:45.244,3,0.08,-0.34,-0.33,73.6826,25.712600000000002,-10.434999999999999,175,75
2026-05-07 18:39:45.270,3,0.05,-0.6,-0.76,-19.547400000000003,-0.5673999999999992,14.085,175,75
2026-05-07 18:39:45.279,3,0.18,-0.59,-0.93,-67.34740000000001,-29.837400000000002,-33.665,175,75
2026-05-07 18:39:45.291,3,0.01,-0.06,-0.9,-112.40740000000001,13.582600000000001,-47.875,175,75
2026-05-07 18:39:45.309,3,0.05,-0.39,-0.4,-132.8974,-2.8873999999999995,-55.495000000000005,175,75
2026-05-07 18:39:45.322,3,-0.02,-0.63,-0.16,-151.1874,-50.9974,-59.94499999999999,175,75
2026-05-07 18:39:45.333,3,-0.17,-0.68,-0.13,-163.1474,-92.88739999999999,-61.465,175,75
2026-05-07 18:39:45.351,3,-0.21,-0.66,-0.18,-183.7574,-150.8074,-50.855000000000004,175,75
2026-05-07 18:39:45.363,3,-0.25,-0.63,-0.27,-194.7874,-174.8374,-43.665000000000006,175,75
2026-05-07 18:39:45.380,3,0.14,-0.58,-0.41,-202.1674,-180.5674,-43.05499999999999,175,75
2026-05-07 18:39:45.392,3,-3.06,0.45,0.41,-170.57739999999998,-21.117399999999996,23.165000000000003,175,75
2026-05-07 18:39:45.404,3,-13.08,3.95,4.93,12.402599999999996,979.6826,481.15500000000003,175,75
2026-05-07 18:39:45.435,3,3.98,-7.2,5.34,551.5526,-636.1774,-183.235,175,75
2026-05-07 18:39:45.435,3,-1.96,-2.04,2.4,-319.5474,-506.9674,465.665,175,75
2026-05-07 18:39:45.448,3,-2.23,0.59,1.83,-335.7074,127.6026,111.94500000000001,175,75
2026-05-07 18:39:45.471,3,-1.05,-1.05,-1.71,87.8326,-94.28739999999999,143.105,175,75
2026-05-07 18:39:45.509,3,-1.78,-2.82,1.06,172.7726,157.3026,22.255,175,75
2026-05-07 18:39:45.521,3,-1.02,-1.2,1.46,140.45260000000002,37.0526,-43.235,175,75
2026-05-07 18:39:45.555,3,-1.46,-2.33,0.43,72.1626,-141.4174,186.825,175,75
2026-05-07 18:39:45.555,3,-1.14,-2.8,0.45,98.7426,-155.6274,103.105,175,75
2026-05-07 18:39:45.568,3,-0.87,-2.53,0.47,98.26259999999999,-172.0874,41.095,175,75
2026-05-07 18:39:45.589,3,0.01,-1.28,0.3,57.8326,-186.35739999999998,70.11500000000001,175,75
2026-05-07 18:39:45.601,3,0.01,-1.45,0.12,56.92259999999999,-208.2474,85.36500000000001,175,75
2026-05-07 18:39:45.611,3,0.02,-1.96,-0.15,49.42259999999999,-234.1674,73.775,175,75
2026-05-07 18:39:45.641,3,-0.77,-1.76,-0.83,126.9226,-35.7474,7.615000000000002,175,75
2026-05-07 18:39:45.653,3,-0.67,-0.84,-0.26,174.0526,76.0826,-28.965,175,75
2026-05-07 18:39:45.677,3,-1.06,-0.54,-0.02,169.7826,156.6926,18.045,175,75
2026-05-07 18:39:45.677,3,-1.23,-1.02,0.27,201.98260000000002,202.8526,82.495,175,75
2026-05-07 18:39:45.689,3,-1.32,-1.83,0.33,194.11260000000001,166.3226,95.72500000000001,175,75
2026-05-07 18:39:45.702,3,-1.39,-2.1,0.12,168.1326,157.36260000000001,66.515,175,75
2026-05-07 18:39:45.723,3,-1.14,-1.93,-0.13,159.48260000000002,129.3126,16.275000000000002,175,75
2026-05-07 18:39:45.746,3,-1.25,-0.7,1.45,196.4926,242.0526,130.36499999999998,175,75
2026-05-07 18:39:45.758,3,-0.96,-1.42,1.79,149.9626,63.8226,135.545,175,75
2026-05-07 18:39:45.787,3,-1.67,-1.31,0.24,-11.797400000000001,-109.28739999999999,5.425000000000001,175,75
2026-05-07 18:39:45.815,3,-1.16,-0.83,0.21,16.5526,-52.1474,6.155000000000001,175,75
2026-05-07 18:39:45.841,3,-1.18,-0.77,0.51,-44.0574,-38.977399999999996,-38.724999999999994,175,75
2026-05-07 18:39:45.848,3,-1.09,-0.68,0.65,-66.6174,-45.6274,-47.745000000000005,175,75
2026-05-07 18:39:45.864,3,-0.99,-0.49,0.63,-111.5574,-68.6774,-63.485,175,75
2026-05-07 18:39:45.875,3,-0.95,-0.42,0.48,-144.9074,-77.94739999999999,-71.775,175,75
2026-05-07 18:39:45.898,3,-0.9,-0.42,0.33,-187.7774,-52.8174,-81.71499999999999,175,75
2026-05-07 18:39:45.923,3,-0.9,-0.58,0.52,-230.88739999999999,-19.7774,-86.405,175,75
2026-05-07 18:39:45.934,3,-0.87,-0.67,0.67,-252.7774,-16.2374,-88.725,175,75
2026-05-07 18:39:45.946,3,-0.87,-0.69,0.67,-276.0074,-24.1674,-83.235,175,75
2026-05-07 18:39:45.958,3,-0.9,-0.67,0.55,-294.7874,-33.0074,-80.30499999999999,175,75
2026-05-07 18:39:45.968,3,-0.85,-0.65,0.43,-306.7974,-23.617399999999996,-74.885,175,75
2026-05-07 18:39:45.991,3,-0.89,-0.56,0.3,-309.2974,19.8626,-63.545,175,75
2026-05-07 18:39:46.003,3,-0.92,-0.5,0.34,-303.99739999999997,47.5426,-58.845,175,75
2026-05-07 18:39:46.014,3,-0.97,-0.47,0.52,-296.6774,68.9426,-54.635000000000005,175,75
2026-05-07 18:39:46.024,3,-1.11,-0.48,0.8,-288.2674,73.8226,-55.735,175,75
2026-05-07 18:39:46.031,3,-1.29,-0.44,1.04,-276.8674,72.9726,-53.545,175,75
2026-05-07 18:39:46.042,3,-1.44,-0.37,1.28,-258.8774,74.3126,-54.515,175,75
2026-05-07 18:39:46.054,3,-1.63,-0.2,1.63,-230.2774,78.0926,-54.885000000000005,175,75
2026-05-07 18:39:46.066,3,-1.84,0.05,2.02,-192.6574,102.48259999999999,-49.515,175,75
2026-05-07 18:39:46.084,3,-1.94,0.17,2.38,-158.07739999999998,107.9726,-45.855000000000004,175,75
2026-05-07 18:39:46.098,3,-1.88,0.28,2.92,-110.9474,64.1926,-35.004999999999995,175,75
2026-05-07 18:39:46.111,3,-1.61,0.26,3.06,-88.1474,-15.807399999999998,2.1950000000000003,175,75
2026-05-07 18:39:46.121,3,-2.39,0.42,2.48,-36.6174,-46.5374,69.44500000000001,175,75
2026-05-07 18:39:46.133,3,-5.39,1.55,2.47,4.422599999999999,42.242599999999996,226.155,175,75
2026-05-07 18:39:46.163,3,3.78,-3.71,5.14,303.81260000000003,-139.8974,80.36500000000001,175,75
2026-05-07 18:39:46.191,3,-2.07,-2.28,-2.05,55.15259999999999,-24.897399999999998,42.614999999999995,175,75
2026-05-07 18:39:46.208,3,-2.14,-2.13,-1.39,271.7926,-23.007399999999997,-27.384999999999998,175,75
2026-05-07 18:39:46.218,3,-0.8,-0.98,0.03,275.7026,240.8326,-51.834999999999994,175,75
2026-05-07 18:39:46.230,3,-0.27,-0.14,1.56,185.45260000000002,258.2126,45.845,175,75
2026-05-07 18:39:46.230,3,-1.02,-0.13,2.08,135.2126,150.5926,78.405,175,75
2026-05-07 18:39:46.258,3,-1.18,-0.8,1.48,8.5626,-192.9474,103.83500000000001,175,75
2026-05-07 18:39:46.277,3,-1.74,-1.19,0.42,-20.2774,-232.0874,110.78500000000001,175,75
2026-05-07 18:39:46.287,3,-2.08,-1.43,-0.28,-16.927400000000002,-143.79739999999998,78.47500000000001,175,75
2026-05-07 18:39:46.311,3,-1.08,-2.17,0.87,50.15259999999999,-62.8174,19.815,175,75
2026-05-07 18:39:46.335,3,-1.01,-2.27,0.51,14.842600000000001,-125.9274,0.4250000000000007,175,75
2026-05-07 18:39:46.352,3,-0.76,-2.51,-0.06,9.292599999999997,-153.3074,-4.335,175,75
2026-05-07 18:39:46.363,3,-0.73,-2.65,-0.48,8.202599999999997,-143.4274,-1.4649999999999999,175,75
2026-05-07 18:39:46.363,3,-0.76,-2.64,-0.88,8.072599999999998,-121.9074,-11.165,175,75
2026-05-07 18:39:46.374,3,-0.8,-2.32,-1.08,17.5326,-87.4574,-31.595,175,75
2026-05-07 18:39:46.395,3,-0.64,-1.64,-0.9,54.78259999999999,-5.3873999999999995,-55.55499999999999,175,75
2026-05-07 18:39:46.411,3,-0.59,-0.69,-0.07,121.37259999999999,71.8726,1.825000000000001,175,75
2026-05-07 18:39:46.411,3,-0.6,-0.79,0.2,138.20260000000002,74.8026,54.815,175,75
2026-05-07 18:39:46.421,3,-0.58,-1.34,0.46,153.8726,41.2626,109.565,175,75
2026-05-07 18:39:46.438,3,-0.96,-1.75,0.46,164.7226,-3.7973999999999997,153.535,175,75
2026-05-07 18:39:46.440,3,-0.99,-2.12,0.23,167.5326,-40.2574,153.045,175,75
2026-05-07 18:39:46.463,3,-0.81,-2.2,-0.24,159.54260000000002,-75.07740000000001,139.445,175,75
2026-05-07 18:39:46.474,3,-0.05,-1.78,-0.75,147.95260000000002,-64.8374,132.065,175,75
2026-05-07 18:39:46.494,3,-0.61,-1.02,-0.2,182.1026,64.6126,166.215,175,75
2026-05-07 18:39:46.494,3,-0.56,-1.26,0.65,197.4026,95.4126,237.80499999999998,175,75
2026-05-07 18:39:46.514,3,-0.34,-2.05,1.04,116.7326,-98.3074,211.45499999999998,175,75
2026-05-07 18:39:46.537,3,-0.73,-1.39,-0.35,-21.9874,-149.2274,145.605,175,75
2026-05-07 18:39:46.537,3,-0.66,-1.24,-0.53,-25.337400000000002,-103.4974,145.36499999999998,175,75
2026-05-07 18:39:46.566,3,-0.68,-1.35,0.08,-92.04740000000001,-17.2074,113.28500000000001,175,75
2026-05-07 18:39:46.578,3,-0.62,-1.33,0.34,-115.76740000000001,-0.8674,94.44500000000001,175,75
2026-05-07 18:39:46.591,3,-0.44,-1.29,0.61,-153.26739999999998,-0.5073999999999987,65.845,175,75
2026-05-07 18:39:46.603,3,-0.3,-1.14,0.67,-216.3774,-10.8674,42.614999999999995,175,75
2026-05-07 18:39:46.610,3,-0.33,-1.12,0.5,-258.8174,-1.3573999999999984,26.095000000000002,175,75
2026-05-07 18:39:46.642,3,-0.32,-1.41,0.28,-317.8374,83.1526,-34.155,175,75
2026-05-07 18:39:46.670,3,-0.44,-1.79,0.35,-365.7074,132.6626,-98.96499999999999,175,75
2026-05-07 18:39:46.682,3,-0.49,-1.84,0.69,-378.5074,141.26260000000002,-147.44500000000002,175,75
2026-05-07 18:39:46.705,3,-0.63,-1.87,0.88,-388.2074,114.80260000000001,-165.245,175,75
2026-05-07 18:39:46.708,3,-0.69,-1.89,0.96,-398.3274,90.4726,-178.785,175,75
2026-05-07 18:39:46.722,3,-0.69,-1.93,0.96,-413.62739999999997,48.0326,-193.905,175,75
2026-05-07 18:39:46.734,3,-0.76,-1.96,0.88,-432.6574,4.682600000000001,-206.525,175,75
2026-05-07 18:39:46.744,3,-0.73,-2.01,0.91,-439.4874,-13.497399999999999,-212.32500000000002,175,75
2026-05-07 18:39:46.753,3,-0.72,-2.05,0.95,-442.5974,-20.447400000000002,-214.275,175,75
2026-05-07 18:39:46.776,3,-0.8,-2.1,1.17,-432.0474,-21.1774,-211.10500000000002,175,75
2026-05-07 18:39:46.778,3,-1.05,-2.04,1.59,-408.56739999999996,-25.7474,-204.395,175,75
2026-05-07 18:39:46.804,3,-1.41,-1.94,2.43,-313.4474,-49.7074,-196.345,175,75
2026-05-07 18:39:46.823,3,-1.53,-1.45,2.36,-237.7774,-97.81739999999999,-174.88500000000002,175,75
2026-05-07 18:39:46.840,3,-1.85,-0.89,1.85,-191.1874,-69.16739999999999,-158.235,175,75
2026-05-07 18:39:46.847,3,-1.89,-0.19,1.62,-128.3274,36.7526,-129.57500000000002,175,75
2026-05-07 18:39:46.872,3,-1.24,0.49,3.29,50.70259999999999,221.5026,-44.94499999999999,175,75
2026-05-07 18:39:46.883,3,-1.03,0.67,3.9,93.20259999999999,175.1026,0.4250000000000007,175,75
2026-05-07 18:39:46.883,3,-1.26,0.17,3.77,114.72259999999999,-20.077399999999997,73.83500000000001,175,75
2026-05-07 18:39:46.899,3,-2.63,-0.33,2.3,79.1126,-152.63739999999999,147.73499999999999,175,75
2026-05-07 18:39:46.924,3,1.07,-4.88,-3.46,-239.8474,-968.9774,207.98499999999999,175,75
2026-05-07 18:39:46.937,3,-1.56,-3.48,-0.12,529.6626,592.6626,240.23499999999999,175,75
2026-05-07 18:39:46.953,3,-2.37,0.96,2.34,780.0926,64.0726,94.325,175,75
2026-05-07 18:39:46.964,3,-0.7,-0.26,4.26,740.7026,5.472600000000001,-300.185,175,75
2026-05-07 18:39:46.988,3,-0.37,0.23,2.77,-23.387400000000003,1.5726000000000013,258.40500000000003,175,75
2026-05-07 18:39:46.999,3,-1.64,-0.83,0.47,126.5526,-205.6874,119.99499999999999,175,75
2026-05-07 18:39:47.011,3,-1.43,-0.83,0.02,121.06259999999999,-77.69739999999999,124.015,175,75
2026-05-07 18:39:47.022,3,-0.84,-1.13,0.59,91.37259999999999,16.2026,97.25500000000001,175,75
2026-05-07 18:39:47.034,3,-0.83,-1.37,0.92,87.65259999999999,-4.167400000000001,95.845,175,75
2026-05-07 18:39:47.077,3,-1.23,-1.11,0.69,-17.7774,-100.6274,50.235,175,75
2026-05-07 18:39:47.089,3,-1.63,-1.07,0.3,-36.007400000000004,-111.35740000000001,44.935,175,75
2026-05-07 18:39:47.104,3,-1.51,-1.19,0.2,-24.907400000000003,-70.19739999999999,12.195,175,75
2026-05-07 18:39:47.116,3,-1.25,-1.24,0.46,-19.9674,-62.8174,-1.5949999999999989,175,75
2026-05-07 18:39:47.129,3,-1.33,-1.36,0.41,-30.0374,-65.38739999999999,-9.395,175,75
2026-05-07 18:39:47.145,3,-1.34,-1.64,0.44,-45.3374,-67.63739999999999,-12.265,175,75
2026-05-07 18:39:47.174,3,-0.98,-2.95,0.02,-112.40740000000001,-183.4974,-8.905,175,75
2026-05-07 18:39:47.192,3,-0.72,-3.14,-0.45,-136.4374,-241.60739999999998,-19.155,175,75
2026-05-07 18:39:47.204,3,-0.15,-2.69,-1.6,-142.9574,-279.8374,-70.55499999999999,175,75
2026-05-07 18:39:47.235,3,-0.86,-0.16,-2.19,-79.9074,-59.4074,-66.345,175,75
2026-05-07 18:39:47.241,3,-1.63,0.26,-1.07,71.67259999999999,203.70260000000002,35.235,175,75
2026-05-07 18:39:47.268,3,-0.99,-1.34,0.95,198.3826,62.7926,120.485,175,75
2026-05-07 18:39:47.279,3,-0.49,-1.66,0.67,95.03259999999999,-102.51740000000001,43.045,175,75
2026-05-07 18:39:47.300,3,0.7,-0.52,-1.46,-68.8174,-189.5874,57.125,175,75
2026-05-07 18:39:47.315,3,0.28,-0.65,-1.91,-96.73740000000001,-172.51739999999998,35.364999999999995,175,75
2026-05-07 18:39:47.347,3,-0.1,-0.36,-0.81,-232.10739999999998,-42.5174,-43.235,175,75
2026-05-07 18:39:47.347,3,-0.17,-0.61,-0.46,-267.2274,-77.2074,-56.955,175,75
2026-05-07 18:39:47.365,3,-0.15,-0.79,-0.14,-291.9874,-126.1774,-59.705,175,75
2026-05-07 18:39:47.369,3,-0.25,-0.92,0.07,-308.0174,-177.63739999999999,-44.025000000000006,175,75
2026-05-07 18:39:47.383,3,-0.16,-1.26,0.27,-321.9274,-275.2574,-33.605000000000004,175,75
2026-05-07 18:39:47.405,3,-0.56,-1.3,0.59,-323.3874,-304.4074,-8.235,175,75
2026-05-07 18:39:47.416,3,-0.49,-1.17,0.99,-300.6474,-300.80740000000003,-10.615,175,75
2026-05-07 18:39:47.439,3,-0.55,-0.66,1.51,-239.3674,-339.6474,-4.2749999999999995,175,75
2026-05-07 18:39:47.451,3,-0.43,-0.07,1.85,-228.7574,-386.17740000000003,23.404999999999998,175,75
2026-05-07 18:39:47.468,3,-0.28,0.01,1.31,-226.3174,-401.05740000000003,28.654999999999998,175,75
2026-05-07 18:39:47.485,3,-3.81,0.9,2.0,-22.7174,-11.237400000000001,169.445,175,75
2026-05-07 18:39:47.513,3,-16.42,5.11,7.61,254.6626,773.6426,808.775,175,75
2026-05-07 18:39:47.513,3,10.4,-10.79,10.67,911.4925999999999,-426.66740000000004,-712.745,175,75
2026-05-07 18:39:47.577,3,-4.24,-1.69,-4.63,229.6026,220.9626,130.845,175,75
2026-05-07 18:39:47.624,3,-1.28,-0.43,1.94,-181.8674,-483.73740000000004,247.19499999999996,175,75
2026-05-07 18:39:47.637,3,-2.93,-1.03,-0.3,-194.3674,-396.05740000000003,180.845,175,75
2026-05-07 18:39:47.649,3,-2.79,-0.84,-1.39,-94.54740000000001,-186.4774,41.515,175,75
2026-05-07 18:39:47.662,3,-1.48,-0.28,-0.87,83.5026,-43.4974,-83.05499999999999,175,75
2026-05-07 18:39:47.669,3,-0.63,0.32,0.53,47.95259999999999,114.3126,8.475000000000001,175,75
2026-05-07 18:39:47.681,3,-0.93,0.08,1.05,12.342600000000001,65.96260000000001,51.334999999999994,175,75
2026-05-07 18:39:47.693,3,-1.3,-0.43,1.05,10.032599999999999,19.0726,28.165000000000003,175,75
2026-05-07 18:39:47.708,3,-1.38,-0.78,0.85,-14.487400000000001,-28.977399999999996,3.8949999999999996,175,75
2026-05-07 18:39:47.717,3,-1.37,-0.91,0.55,-25.4574,-45.1974,-0.9849999999999994,175,75
2026-05-07 18:39:47.727,3,-1.33,-1.09,0.45,-27.9574,-33.4974,-5.435,175,75
2026-05-07 18:39:47.746,3,-1.25,-1.29,0.58,-26.927400000000002,-22.6374,-15.184999999999999,175,75
2026-05-07 18:39:47.759,3,-1.27,-1.41,0.69,-36.1274,-49.7774,-43.845,175,75
2026-05-07 18:39:47.773,3,-1.44,-1.21,0.52,-43.2674,-65.8074,-56.775000000000006,175,75
2026-05-07 18:39:47.788,3,-1.37,-1.05,0.36,-45.647400000000005,-63.307399999999994,-66.525,175,75
2026-05-07 18:39:47.793,3,-1.36,-1.04,0.32,-43.6274,-53.6774,-64.155,175,75
2026-05-07 18:39:47.804,3,-1.29,-1.22,0.4,-49.0574,-39.2874,-61.525000000000006,175,75
2026-05-07 18:39:47.824,3,-1.27,-1.4,0.51,-58.62740000000001,-33.367399999999996,-60.795,175,75
2026-05-07 18:39:47.839,3,-1.04,-1.68,0.55,-88.68740000000001,-90.6874,-65.855,175,75
2026-05-07 18:39:47.855,3,-0.98,-1.76,0.38,-108.5074,-125.9274,-56.834999999999994,175,75
2026-05-07 18:39:47.871,3,-0.75,-1.91,-0.19,-130.1574,-173.9774,-47.995000000000005,175,75
2026-05-07 18:39:47.900,3,-0.61,-1.16,-0.52,-97.1074,-101.5974,-60.614999999999995,175,75
2026-05-07 18:39:47.925,3,-0.81,-0.8,-0.29,-71.1874,-28.1274,-38.965,175,75
2026-05-07 18:39:47.949,3,-1.27,-0.78,1.05,52.712599999999995,-61.5374,42.435,175,75
2026-05-07 18:39:47.959,3,-1.25,-0.76,0.67,30.2126,-106.1774,52.254999999999995,175,75
2026-05-07 18:39:47.979,3,-0.58,-0.54,-0.13,24.112599999999997,-95.8674,56.825,175,75
2026-05-07 18:39:47.988,3,-0.46,-0.26,-0.35,15.6326,-85.07740000000001,63.715,175,75
2026-05-07 18:39:48.009,3,-0.45,-0.32,-0.57,-22.8974,-79.03739999999999,64.625,175,75
2026-05-07 18:39:48.022,3,-0.27,-0.58,-0.67,-55.09740000000001,-69.9574,49.385000000000005,175,75
2026-05-07 18:39:48.040,3,-0.05,-0.29,-1.0,-94.1174,-15.6874,18.955000000000002,175,75
2026-05-07 18:39:48.063,3,-0.14,-0.55,-0.58,-79.5474,39.982600000000005,3.1050000000000004,175,75
2026-05-07 18:39:48.075,3,-0.29,-0.5,-0.47,-75.8874,47.4826,0.2350000000000012,175,75
2026-05-07 18:39:48.092,3,-0.24,-0.52,-0.18,-73.7574,48.4026,1.2750000000000004,175,75
2026-05-07 18:39:48.112,3,-0.17,-0.54,-0.03,-83.7574,23.8826,-2.385,175,75
2026-05-07 18:39:48.112,3,-0.01,-0.53,0.04,-90.3374,4.8626000000000005,-9.885,175,75
2026-05-07 18:39:48.137,3,-8.25,2.37,2.35,2.2226,412.4226,207.92499999999998,175,75
2026-05-07 18:39:48.151,3,-11.67,5.49,6.7,343.2626,1189.8626000000002,873.955,175,75
2026-05-07 18:39:48.173,3,-1.38,-1.09,3.53,-72.7774,-65.07740000000001,467.615,175,75
2026-05-07 18:39:48.199,3,0.22,-0.61,0.22,-225.2174,-651.4174,-61.894999999999996,175,75
2026-05-07 18:39:48.210,3,-1.71,0.27,-2.53,-77.9574,-271.11740000000003,89.325,175,75
2026-05-07 18:39:48.210,3,-2.19,-1.47,-2.55,43.8126,156.20260000000002,125.84500000000001,175,75
2026-05-07 18:39:48.259,3,-1.66,-2.44,2.84,107.8926,89.74260000000001,-85.005,175,75
2026-05-07 18:39:48.271,3,-0.13,-1.65,2.56,8.7426,-92.0874,-126.16499999999999,175,75
2026-05-07 18:39:48.283,3,-0.01,-1.61,1.61,-31.927400000000002,-258.61740000000003,100.36500000000001,175,75
2026-05-07 18:39:48.296,3,-1.46,-2.52,0.59,-64.4274,-279.7774,202.98499999999999,175,75
2026-05-07 18:39:48.306,3,-1.8,-2.91,-0.25,-56.8674,-262.2774,63.28500000000001,175,75
2026-05-07 18:39:48.327,3,-0.44,-2.07,-0.82,14.902599999999996,-212.1474,-60.30499999999999,175,75
2026-05-07 18:39:48.341,3,0.39,-1.43,-0.56,26.002599999999997,-178.0074,39.625,175,75
2026-05-07 18:39:48.353,3,0.31,-1.82,-0.37,39.29259999999999,-197.45739999999998,73.22500000000001,175,75
2026-05-07 18:39:48.364,3,-0.16,-1.82,-0.38,44.29259999999999,-205.9274,45.05500000000001,175,75
2026-05-07 18:39:48.386,3,-1.06,-1.43,-0.65,150.0926,-33.1874,94.815,175,75
2026-05-07 18:39:48.401,3,-1.38,-2.26,-0.69,218.8126,106.5026,143.405,175,75
2026-05-07 18:39:48.412,3,-1.77,-2.68,-0.37,273.2626,227.1826,207.67499999999998,175,75
2026-05-07 18:39:48.423,3,-1.84,-2.69,0.05,290.4526,211.14260000000002,214.325,175,75
2026-05-07 18:39:48.436,3,-1.28,-2.75,0.55,295.3926,186.4426,120.72500000000001,175,75
2026-05-07 18:39:48.506,3,-1.49,-2.45,1.34,-12.777400000000002,-243.3074,173.77499999999998,175,75
2026-05-07 18:39:48.539,3,-0.47,-0.7,-0.01,-77.2874,-48.0674,17.615000000000002,175,75
2026-05-07 18:39:48.552,3,-0.47,-0.61,0.3,-109.0574,-33.0074,0.5449999999999999,175,75
2026-05-07 18:39:48.552,3,-0.51,-0.66,0.56,-146.6174,-38.7374,-46.525000000000006,175,75
2026-05-07 18:39:48.563,3,-0.36,-0.57,0.62,-197.2274,-62.8174,-84.21499999999999,175,75
2026-05-07 18:39:48.613,3,-0.16,-0.46,-0.08,-356.6774,-41.6674,-137.445,175,75
2026-05-07 18:39:48.624,3,-0.24,-0.57,0.0,-373.4474,-26.907400000000003,-146.345,175,75
2026-05-07 18:39:48.634,3,-0.26,-0.59,0.04,-385.4574,-8.0074,-154.275,175,75
2026-05-07 18:39:48.646,3,-0.37,-0.56,0.11,-395.0974,30.4126,-161.405,175,75
2026-05-07 18:39:48.658,3,-0.57,-0.41,0.54,-395.1574,101.93260000000001,-197.805,175,75
2026-05-07 18:39:48.674,3,-0.58,-0.29,0.79,-385.0374,125.71260000000001,-215.185,175,75
2026-05-07 18:39:48.686,3,-0.71,-0.12,1.08,-362.6574,153.3326,-236.10500000000002,175,75
2026-05-07 18:39:48.696,3,-0.93,-0.0,1.28,-338.99739999999997,178.5226,-241.04500000000002,175,75
2026-05-07 18:39:48.719,3,-1.68,-0.17,1.85,-274.2374,199.3126,-236.895,175,75
2026-05-07 18:39:48.742,3,-2.94,-0.42,2.53,-180.1574,180.1026,-195.00500000000002,175,75
2026-05-07 18:39:48.754,3,-3.19,-0.36,3.04,-110.9474,160.9626,-174.57500000000002,175,75
2026-05-07 18:39:48.780,3,-3.31,-0.1,2.41,-78.3274,-144.2274,4.085000000000001,175,75
2026-05-07 18:39:48.791,3,-5.71,1.52,2.34,-8.997400000000003,-24.837400000000002,78.83500000000001,175,75
2026-05-07 18:39:48.802,3,-12.0,4.61,3.88,109.35259999999998,168.8226,571.885,175,75
2026-05-07 18:39:48.819,3,4.49,-6.86,3.86,616.4925999999999,-207.51739999999998,-96.405,175,75
2026-05-07 18:39:48.831,3,1.5,-3.66,2.21,103.9926,-257.9474,144.565,175,75
2026-05-07 18:39:48.842,3,-3.8,1.84,2.35,-78.8174,28.3326,314.815,175,75
2026-05-07 18:39:48.865,3,-1.25,-1.15,0.59,253.44260000000003,-258.91740000000004,172.73499999999999,175,75
2026-05-07 18:39:48.865,3,-1.9,-0.8,-0.48,124.1126,-113.5574,134.565,175,75
2026-05-07 18:39:48.877,3,-1.97,-0.34,-0.44,107.2226,92.6026,94.815,175,75
2026-05-07 18:39:48.890,3,-1.08,-0.51,0.44,180.51260000000002,144.4326,63.595,175,75
2026-05-07 18:39:48.941,3,-1.63,-1.66,0.97,16.372599999999995,-131.7874,45.785,175,75
2026-05-07 18:39:48.952,3,-1.39,-2.11,0.81,27.9526,-111.9674,23.834999999999997,175,75
2026-05-07 18:39:48.964,3,-1.08,-2.73,0.91,51.37259999999999,-104.7774,2.4350000000000005,175,75
2026-05-07 18:39:48.975,3,-0.87,-3.24,0.9,48.4426,-120.50739999999999,-10.434999999999999,175,75
2026-05-07 18:39:48.987,3,-0.51,-3.65,0.78,37.952600000000004,-131.4774,-11.105,175,75
2026-05-07 18:39:49.021,3,0.07,-3.43,-0.49,-19.297400000000003,-173.0674,-66.465,175,75
2026-05-07 18:39:49.021,3,0.13,-2.92,-1.5,-36.8674,-182.20739999999998,-65.915,175,75
2026-05-07 18:39:49.033,3,-0.3,-2.29,-2.06,-12.837400000000002,-105.50739999999999,-66.955,175,75
2026-05-07 18:39:49.043,3,-0.74,-1.54,-2.03,39.90259999999999,13.0326,-86.285,175,75
2026-05-07 18:39:49.072,3,-1.04,-0.74,-0.48,202.7126,399.0026,41.885000000000005,175,75
2026-05-07 18:39:49.083,3,-0.79,-1.55,0.7,309.9026,328.82259999999997,143.225,175,75
2026-05-07 18:39:49.098,3,0.33,-2.39,0.19,189.54260000000002,5.5326,18.045,175,75
2026-05-07 18:39:49.120,3,1.05,-1.21,-0.37,165.0326,1.6326,65.11500000000001,175,75
2026-05-07 18:39:49.128,3,0.14,-0.68,-0.03,208.6226,96.99260000000001,170.975,175,75
2026-05-07 18:39:49.154,3,-0.63,-2.02,0.09,57.8926,-147.63739999999999,144.015,175,75
2026-05-07 18:39:49.158,3,-0.5,-1.81,-0.43,38.4426,-197.9474,108.775,175,75
2026-05-07 18:39:49.179,3,-0.77,-1.97,-0.81,55.70259999999999,-213.0674,80.905,175,75
2026-05-07 18:39:49.190,3,-0.84,-2.23,-0.95,50.76259999999999,-118.3074,80.235,175,75
2026-05-07 18:39:49.190,3,-0.85,-2.34,-0.87,46.182599999999994,-83.73740000000001,63.22500000000001,175,75
2026-05-07 18:39:49.202,3,-1.18,-2.17,-0.8,40.6326,-56.1774,8.405000000000001,175,75
2026-05-07 18:39:49.213,3,-1.3,-1.63,-0.79,35.0326,23.212600000000002,-26.715,175,75
2026-05-07 18:39:49.227,3,-1.2,-1.2,-0.53,18.7426,73.9426,-32.685,175,75
2026-05-07 18:39:49.238,3,-1.38,-0.94,-0.23,-13.017400000000002,91.08260000000001,-41.715,175,75
2026-05-07 18:39:49.250,3,-1.41,-0.95,0.06,-38.9974,91.20259999999999,-71.895,175,75
2026-05-07 18:39:49.260,3,-1.38,-1.06,0.41,-85.7074,72.0526,-107.445,175,75
2026-05-07 18:39:49.283,3,-1.23,-1.29,0.81,-198.38739999999999,-1.8473999999999986,-157.50500000000002,175,75
2026-05-07 18:39:49.299,3,-1.26,-1.15,0.79,-247.1674,-22.577399999999997,-176.715,175,75
2026-05-07 18:39:49.306,3,-1.24,-1.04,0.79,-271.1274,-18.307399999999998,-182.995,175,75
2026-05-07 18:39:49.319,3,-1.23,-0.97,0.83,-303.1474,-27.6374,-183.905,175,75
2026-05-07 18:39:49.330,3,-1.2,-1.05,0.65,-329.7274,-36.6674,-180.615,175,75
2026-05-07 18:39:49.341,3,-1.63,-0.97,0.51,-354.6074,5.832600000000001,-180.065,175,75
2026-05-07 18:39:49.361,3,-1.33,-1.22,0.13,-424.2374,-33.3074,-184.095,175,75
2026-05-07 18:39:49.372,3,-1.27,-1.13,0.1,-407.5974,82.30260000000001,-183.485,175,75
2026-05-07 18:39:49.387,3,-0.82,-1.39,0.3,-406.7374,74.0026,-180.615,175,75
2026-05-07 18:39:49.397,3,-1.15,-1.5,0.4,-418.7574,94.49260000000001,-178.60500000000002,175,75
2026-05-07 18:39:49.409,3,-1.06,-1.68,0.52,-412.3474,143.4626,-190.305,175,75
2026-05-07 18:39:49.421,3,-1.17,-1.92,0.93,-394.9674,181.3826,-201.955,175,75
2026-05-07 18:39:49.437,3,-1.89,-1.88,1.91,-325.0374,213.1526,-206.04500000000002,175,75
2026-05-07 18:39:49.449,3,-1.99,-1.9,2.52,-265.6474,197.11260000000001,-200.185,175,75
2026-05-07 18:39:49.460,3,-2.09,-2.04,2.9,-230.2174,134.0726,-188.54500000000002,175,75
2026-05-07 18:39:49.472,3,-2.36,-1.43,2.68,-256.3174,39.4326,-198.845,175,75
2026-05-07 18:39:49.479,3,-2.3,-0.71,1.89,-250.3974,30.9026,-174.395,175,75
2026-05-07 18:39:49.492,3,-2.44,-0.01,1.44,-159.8474,81.02260000000001,-110.735,175,75
2026-05-07 18:39:49.512,3,-2.08,0.38,2.69,43.992599999999996,207.8526,-11.594999999999999,175,75
2026-05-07 18:39:49.525,3,-1.7,0.49,3.29,76.1826,103.0926,37.735,175,75
2026-05-07 18:39:49.536,3,-1.56,0.15,2.88,85.09259999999999,-15.1374,94.50500000000001,175,75
2026-05-07 18:39:49.547,3,-0.66,-1.07,1.46,76.7926,-125.8674,135.545,175,75
2026-05-07 18:39:49.568,3,-2.68,-0.47,1.08,130.82260000000002,25.962600000000002,157.80499999999998,175,75
2026-05-07 18:39:49.568,3,1.63,-3.08,-1.09,82.34259999999999,-358.85740000000004,129.695,175,75
2026-05-07 18:39:49.579,3,1.13,-7.97,-1.6,16.612599999999997,-561.1174,65.055,175,75
2026-05-07 18:39:49.610,3,-8.1,4.65,2.03,309.7226,862.6626,1095.175,175,75
2026-05-07 18:39:49.626,3,0.7,-0.05,5.73,832.3426,685.3525999999999,-389.515,175,75
2026-05-07 18:39:49.645,3,2.73,2.48,4.89,-213.07739999999998,-516.9074,452.065,175,75
2026-05-07 18:39:49.666,3,-1.83,-1.21,-1.23,-37.5974,-258.2474,186.39499999999998,175,75
2026-05-07 18:39:49.677,3,-2.38,-1.16,-1.37,172.89260000000002,-53.617399999999996,3.405000000000001,175,75
2026-05-07 18:39:49.688,3,-0.46,-1.32,-0.05,212.4626,193.0326,-7.324999999999999,175,75
2026-05-07 18:39:49.699,3,-0.34,-1.21,1.29,167.95260000000002,219.86260000000001,106.885,175,75
2026-05-07 18:39:49.712,3,-1.09,-1.49,1.92,113.56259999999999,127.30260000000001,133.345,175,75
2026-05-07 18:39:49.723,3,-1.31,-1.9,1.92,65.3926,21.992600000000003,80.72500000000001,175,75
2026-05-07 18:39:49.736,3,-1.12,-1.78,1.53,14.542599999999997,-39.6474,31.275000000000002,175,75
2026-05-07 18:39:49.752,3,-1.31,-1.04,0.29,-15.157400000000003,-77.94739999999999,21.395,175,75
2026-05-07 18:39:49.765,3,-1.1,-1.47,0.32,9.842599999999997,-11.967399999999998,9.815000000000001,175,75
2026-05-07 18:39:49.777,3,-1.12,-1.9,0.65,3.0725999999999978,-12.2774,0.7850000000000001,175,75
2026-05-07 18:39:49.787,3,-1.03,-2.45,0.57,-18.387400000000003,-33.1274,-15.855,175,75
2026-05-07 18:39:49.803,3,-1.08,-2.92,0.24,-34.2374,-48.3074,-19.275,175,75
2026-05-07 18:39:49.815,3,-0.96,-3.21,-0.29,-44.9074,-78.1274,-35.735,175,75
2026-05-07 18:39:49.826,3,-0.58,-3.17,-0.86,-62.1674,-97.81739999999999,-49.275000000000006,175,75
2026-05-07 18:39:49.842,3,-0.13,-2.72,-1.43,-66.98740000000001,-107.94739999999999,-50.675,175,75
2026-05-07 18:39:49.858,3,0.01,-2.16,-1.67,-54.23740000000001,-94.7074,-51.894999999999996,175,75
2026-05-07 18:39:49.859,3,-0.01,-1.52,-1.61,-28.3874,-68.06739999999999,-45.55499999999999,175,75
2026-05-07 18:39:49.885,3,-0.74,-1.06,-1.2,53.742599999999996,74.3126,17.675,175,75
2026-05-07 18:39:49.885,3,-0.8,-1.12,-0.58,139.8426,154.3126,64.75500000000001,175,75
2026-05-07 18:39:49.895,3,-0.91,-1.67,-0.07,190.2126,101.3826,125.90500000000002,175,75
2026-05-07 18:39:49.912,3,-0.64,-2.19,-0.13,143.8126,48.0926,83.715,175,75
2026-05-07 18:39:49.924,3,0.57,-1.61,-0.63,91.37259999999999,-13.0674,-19.884999999999998,175,75
2026-05-07 18:39:49.935,3,0.12,-0.09,-1.16,72.0426,42.8526,28.345000000000002,175,75
2026-05-07 18:39:49.947,3,0.5,-0.52,-1.35,25.512599999999996,44.6126,78.345,175,75
2026-05-07 18:39:49.968,3,0.54,-0.01,-1.56,-133.2074,51.1426,-46.834999999999994,175,75
2026-05-07 18:39:49.982,3,0.23,0.13,-0.63,-189.9674,62.1826,-61.045,175,75
2026-05-07 18:39:49.991,3,0.09,-0.32,-0.18,-222.95739999999998,25.2926,-73.845,175,75
2026-05-07 18:39:50.014,3,-0.23,-0.6,0.06,-261.1874,-36.4174,-84.095,175,75
2026-05-07 18:39:50.027,3,-0.17,-0.92,0.31,-298.2074,-116.23739999999998,-89.21499999999999,175,75
2026-05-07 18:39:50.057,3,-0.36,-1.35,0.59,-335.8274,-237.63739999999999,-57.745000000000005,175,75
2026-05-07 18:39:50.068,3,-0.51,-1.28,0.94,-318.7574,-251.66740000000001,-52.745000000000005,175,75
2026-05-07 18:39:50.080,3,-0.54,-1.1,1.2,-303.0774,-264.6474,-43.415000000000006,175,75
2026-05-07 18:39:50.080,3,-0.65,-0.78,1.46,-294.2374,-273.4974,-27.685,175,75
2026-05-07 18:39:50.093,3,-0.66,-0.61,1.58,-290.3374,-279.3474,-13.355,175,75
2026-05-07 18:39:50.106,3,-0.72,-0.43,1.5,-256.4974,-256.05740000000003,1.0350000000000001,175,75
2026-05-07 18:39:50.121,3,-0.61,-0.45,1.45,-219.7874,-229.4674,-0.0649999999999995,175,75
2026-05-07 18:39:50.148,3,-0.86,0.04,1.09,-69.9674,13.582600000000001,-0.0649999999999995,175,75
2026-05-07 18:39:50.159,3,-5.65,1.15,1.9,23.502599999999997,181.6326,224.935,175,75
2026-05-07 18:39:50.171,3,-13.46,4.95,9.73,597.2826,1465.4126,822.9250000000001,175,75
2026-05-07 18:39:50.194,3,12.02,-7.01,3.19,-178.5074,-902.2774000000001,758.285,175,75
2026-05-07 18:39:50.205,3,-10.54,1.92,0.7,-579.6074000000001,-878.3674,715.905,175,75
2026-05-07 18:39:50.214,3,-0.58,-7.01,-3.85,-495.4574,-27.337400000000002,-81.71499999999999,175,75
2026-05-07 18:39:50.225,3,-1.7,-5.52,-4.04,518.9326,-131.8474,-83.785,175,75
2026-05-07 18:39:50.255,3,-1.81,2.53,1.74,261.8526,509.7426,99.015,175,75
2026-05-07 18:39:50.278,3,-0.32,-0.13,1.92,91.73259999999999,-174.7774,160.23499999999999,175,75
2026-05-07 18:39:50.293,3,-2.64,-1.22,0.64,59.84259999999999,-197.1474,162.55499999999998,175,75
2026-05-07 18:39:50.303,3,-2.6,-1.27,0.04,-8.937400000000002,-28.3074,66.215,175,75
2026-05-07 18:39:50.304,3,-1.76,-1.04,-0.01,4.052599999999998,-33.977399999999996,-39.335,175,75
2026-05-07 18:39:50.324,3,-0.64,-1.02,0.72,21.432599999999997,-2.0274,21.215,175,75
2026-05-07 18:39:50.336,3,-1.27,-1.43,0.75,-2.9574000000000034,-22.2074,31.514999999999997,175,75
2026-05-07 18:39:50.349,3,-1.25,-1.62,0.73,-3.567400000000003,-30.257399999999997,-2.385,175,75
2026-05-07 18:39:50.361,3,-0.99,-1.4,0.61,-2.5374000000000017,-53.1274,-25.915,175,75
2026-05-07 18:39:50.369,3,-0.99,-1.18,0.45,-9.237400000000001,-41.2374,-11.594999999999999,175,75
2026-05-07 18:39:50.402,3,-1.06,-1.0,0.53,-13.147400000000001,-22.6374,-26.715,175,75
2026-05-07 18:39:50.414,3,-1.12,-1.01,0.57,-23.3274,-35.7474,-27.995,175,75
2026-05-07 18:39:50.430,3,-1.25,-0.98,0.55,-36.4374,-34.5274,-35.555,175,75
2026-05-07 18:39:50.443,3,-1.2,-0.96,0.52,-48.3274,-44.7074,-45.30499999999999,175,75
2026-05-07 18:39:50.456,3,-1.27,-0.98,0.48,-56.4374,-55.13739999999999,-45.375,175,75
2026-05-07 18:39:50.467,3,-1.27,-1.16,0.42,-65.9474,-62.02739999999999,-42.445,175,75
2026-05-07 18:39:50.493,3,-1.07,-1.71,0.36,-82.4674,-82.94739999999999,-40.915,175,75
2026-05-07 18:39:50.504,3,-0.98,-1.89,0.26,-89.7274,-102.0274,-42.745000000000005,175,75
2026-05-07 18:39:50.518,3,-0.98,-1.93,0.13,-100.4574,-110.9274,-44.025000000000006,175,75
2026-05-07 18:39:50.518,3,-0.92,-1.83,-0.03,-108.01740000000001,-123.4974,-46.955,175,75
2026-05-07 18:39:50.540,3,-0.92,-1.7,-0.19,-113.93740000000001,-126.47739999999999,-45.985,175,75
2026-05-07 18:39:50.540,3,-0.87,-1.5,-0.3,-103.26740000000001,-131.60739999999998,-41.224999999999994,175,75
2026-05-07 18:39:50.552,3,-0.97,-1.32,-0.5,-109.4274,-159.70739999999998,-44.515,175,75
2026-05-07 18:39:50.562,3,-1.08,-1.17,-0.78,-120.9474,-145.9274,-32.325,175,75
2026-05-07 18:39:50.584,3,-1.36,-0.9,-0.86,-91.6774,-87.81739999999999,-14.945,175,75
2026-05-07 18:39:50.595,3,-1.36,-0.7,-0.54,-44.0574,-38.3074,-12.075,175,75
2026-05-07 18:39:50.607,3,-1.65,-0.34,0.47,21.372599999999995,-83.00739999999999,61.155,175,75
2026-05-07 18:39:50.617,3,-1.75,-0.56,0.3,-4.547400000000001,-122.3974,97.555,175,75
2026-05-07 18:39:50.628,3,-1.5,-0.72,0.03,-23.6274,-150.2574,87.065,175,75
2026-05-07 18:39:50.639,3,-0.74,-0.59,-0.2,-29.727400000000003,-208.79739999999998,62.675,175,75
2026-05-07 18:39:50.652,3,-0.35,-0.54,-0.5,-61.257400000000004,-270.6874,85.175,175,75
2026-05-07 18:39:50.668,3,-0.77,-0.4,-0.77,-87.9574,-249.1074,114.08500000000001,175,75
2026-05-07 18:39:50.684,3,-0.49,-0.49,-0.95,-105.2774,-248.4974,90.545,175,75
2026-05-07 18:39:50.684,3,-0.32,-0.42,-1.0,-123.32740000000001,-202.3374,85.36500000000001,175,75
2026-05-07 18:39:50.709,3,-0.38,-0.45,-1.01,-141.8674,-89.22739999999999,82.795,175,75
2026-05-07 18:39:50.722,3,-0.37,-0.49,-0.92,-134.2974,-40.9274,86.03500000000001,175,75
2026-05-07 18:39:50.722,3,-0.3,-0.67,-0.69,-125.2774,-7.947399999999998,81.94500000000001,175,75
2026-05-07 18:39:50.745,3,-0.29,-0.72,-0.4,-116.18740000000001,22.602600000000002,71.515,175,75
2026-05-07 18:39:50.745,3,-0.19,-0.66,-0.26,-102.65740000000001,53.6426,63.715,175,75
2026-05-07 18:39:50.762,3,-0.19,-0.66,-0.28,-97.40740000000001,66.0826,52.495000000000005,175,75
2026-05-07 18:39:50.773,3,-0.06,-0.64,-0.35,-92.59740000000001,75.1026,31.945000000000004,175,75
2026-05-07 18:39:50.786,3,0.22,-0.72,-0.28,-88.5074,69.1326,11.275000000000002,175,75
2026-05-07 18:39:50.797,3,0.28,-0.62,-0.07,-89.29740000000001,76.5026,2.4350000000000005,175,75
2026-05-07 18:39:50.810,3,0.58,-0.6,0.5,-88.26740000000001,79.49260000000001,-12.195,175,75
2026-05-07 18:39:50.820,3,-4.21,1.22,1.79,-44.8474,222.48260000000002,126.825,175,75
2026-05-07 18:39:50.832,3,-15.85,5.6,7.4,227.89260000000002,1077.3026,768.405,175,75
2026-05-07 18:39:50.842,3,5.62,-7.11,9.65,817.4626,-736.5974,-608.355,175,75
2026-05-07 18:39:50.854,3,5.51,-4.47,4.05,-45.7674,-318.61740000000003,529.085,175,75
2026-05-07 18:39:50.854,3,-1.9,-0.66,3.4,-258.2074,-631.1174,456.64500000000004,175,75
2026-05-07 18:39:50.880,3,-1.48,-1.81,-2.17,-308.62739999999997,-446.53740000000005,-102.625,175,75
2026-05-07 18:39:50.900,3,-1.8,-4.1,-3.28,40.51259999999999,340.96259999999995,146.64499999999998,175,75
2026-05-07 18:39:50.913,3,-1.08,-5.47,-1.26,325.0326,464.07259999999997,148.535,175,75
2026-05-07 18:39:50.932,3,-2.32,-2.94,1.81,494.78260000000006,424.0026,-30.495,175,75
2026-05-07 18:39:50.941,3,-0.99,-1.33,4.02,310.7026,321.9926,-219.455,175,75
2026-05-07 18:39:50.949,3,1.35,-0.97,3.25,-82.59740000000001,-337.8874,243.225,175,75
2026-05-07 18:39:50.961,3,-1.82,-2.33,1.06,-143.6274,-536.0574,363.40500000000003,175,75
2026-05-07 18:39:50.980,3,-2.47,-3.59,-0.86,-154.23739999999998,-420.7474,281.095,175,75
2026-05-07 18:39:50.993,3,-1.78,-3.54,-1.77,5.572599999999998,-355.0774,79.995,175,75
2026-05-07 18:39:51.004,3,-0.1,-3.25,-1.4,123.9326,-282.7574,-23.965,175,75
2026-05-07 18:39:51.028,3,1.06,-1.38,0.05,68.81259999999999,-190.2574,217.255,175,75
2026-05-07 18:39:51.039,3,-1.65,-0.99,0.35,135.0926,-64.5274,206.095,175,75
2026-05-07 18:39:51.060,3,-1.81,-1.05,0.55,154.54260000000002,29.5526,210.30499999999998,175,75
2026-05-07 18:39:51.082,3,-1.33,-2.09,0.93,164.7826,21.7526,182.255,175,75
2026-05-07 18:39:51.093,3,-1.15,-1.84,1.03,93.26259999999999,47.0526,122.31500000000001,175,75
2026-05-07 18:39:51.104,3,-1.17,-0.82,1.29,89.7226,90.2226,111.515,175,75
2026-05-07 18:39:51.132,3,-0.52,-0.56,1.5,-67.4074,-129.1674,126.15500000000002,175,75
2026-05-07 18:39:51.146,3,-0.57,-0.34,0.94,-109.54740000000001,-165.5674,98.22500000000001,175,75
2026-05-07 18:39:51.151,3,-0.46,-0.15,0.62,-116.2574,-157.2774,85.78500000000001,175,75
2026-05-07 18:39:51.163,3,-0.54,-0.15,0.57,-137.7774,-140.1974,75.11500000000001,175,75
2026-05-07 18:39:51.184,3,-0.44,-0.11,0.56,-208.6274,-103.4974,14.265,175,75
2026-05-07 18:39:51.208,3,-0.48,-0.12,0.47,-229.0574,-84.7074,-2.264999999999999,175,75
2026-05-07 18:39:51.226,3,-0.56,-0.34,0.24,-258.7574,-37.8874,-39.515,175,75
2026-05-07 18:39:51.241,3,-0.68,-0.47,0.15,-288.62739999999997,7.422600000000001,-58.415000000000006,175,75
2026-05-07 18:39:51.256,3,-0.65,-0.54,0.3,-302.5974,12.482600000000001,-64.275,175,75
2026-05-07 18:39:51.267,3,-0.66,-0.58,0.39,-320.0374,-9.7774,-65.735,175,75
2026-05-07 18:39:51.283,3,-0.76,-0.57,0.33,-341.9874,-34.0374,-64.155,175,75
2026-05-07 18:39:51.294,3,-0.76,-0.53,0.26,-354.8474,-44.4674,-57.015,175,75
2026-05-07 18:39:51.313,3,-0.79,-0.56,0.29,-376.37739999999997,-62.2074,-46.775000000000006,175,75
2026-05-07 18:39:51.336,3,-0.89,-0.45,0.49,-392.8974,-60.13739999999999,-39.825,175,75
2026-05-07 18:39:51.343,3,-0.98,-0.42,0.58,-391.2574,-53.557399999999994,-38.905,175,75
2026-05-07 18:39:51.372,3,-1.14,-0.46,0.92,-360.9474,-34.1674,-38.545,175,75
2026-05-07 18:39:51.384,3,-1.19,-0.48,1.31,-329.6674,-23.4274,-32.995000000000005,175,75
2026-05-07 18:39:51.384,3,-1.24,-0.47,1.59,-305.7674,-18.7974,-24.575,175,75
2026-05-07 18:39:51.404,3,-1.25,-0.52,1.98,-271.4374,-26.2374,-12.015,175,75
2026-05-07 18:39:51.417,3,-1.21,-0.59,2.21,-243.01739999999998,-62.3974,-7.385,175,75
2026-05-07 18:39:51.438,3,-0.79,-0.59,2.12,-157.8974,-128.1274,8.344999999999999,175,75
2026-05-07 18:39:51.450,3,-0.68,-0.6,2.12,-116.5574,-147.1474,3.7750000000000004,175,75
2026-05-07 18:39:51.461,3,-2.11,-0.05,2.1,-81.5574,-135.2574,25.115,175,75
2026-05-07 18:39:51.479,3,0.71,-2.4,4.24,410.6326,137.8526,-64.215,175,75
2026-05-07 18:39:51.492,3,4.39,-5.13,2.47,13.072599999999998,-440.0174,117.25500000000001,175,75
2026-05-07 18:39:51.517,3,-2.74,-2.34,-2.42,-99.23740000000001,69.0726,142.315,175,75
2026-05-07 18:39:51.530,3,-1.47,-3.84,-1.59,304.9626,-52.88739999999999,-32.015,175,75
2026-05-07 18:39:51.544,3,-1.42,-2.53,-0.26,411.43260000000004,145.2226,-64.335,175,75
2026-05-07 18:39:51.544,3,-0.48,-0.82,0.97,299.2326,261.69259999999997,-36.345,175,75
2026-05-07 18:39:51.567,3,-0.41,0.29,1.66,76.73259999999999,204.3126,80.72500000000001,175,75
2026-05-07 18:39:51.582,3,-0.93,-0.23,1.82,38.8126,-88.85740000000001,109.625,175,75
2026-05-07 18:39:51.592,3,-1.48,-0.74,1.17,3.5025999999999975,-198.73739999999998,136.885,175,75
2026-05-07 18:39:51.603,3,-1.77,-1.05,0.47,-18.817400000000003,-173.3074,105.425,175,75
2026-05-07 18:39:51.627,3,-1.59,-1.32,0.25,1.982599999999998,-50.9274,32.614999999999995,175,75
2026-05-07 18:39:51.646,3,-1.52,-1.57,0.81,0.8826,-83.1274,2.8049999999999997,175,75
2026-05-07 18:39:51.662,3,-1.62,-1.74,0.82,-3.817400000000001,-87.63739999999999,-4.944999999999999,175,75
2026-05-07 18:39:51.666,3,-1.25,-1.97,0.83,1.4925999999999995,-136.23739999999998,-17.134999999999998,175,75
2026-05-07 18:39:51.694,3,-0.99,-2.19,0.24,-16.677400000000002,-153.0674,-38.235,175,75
2026-05-07 18:39:51.706,3,-0.78,-2.49,0.17,-12.837400000000002,-165.8674,-29.155,175,75
2026-05-07 18:39:51.721,3,-0.54,-2.66,-0.03,-22.227400000000003,-167.63739999999999,-27.134999999999998,175,75
2026-05-07 18:39:51.721,3,-0.34,-2.55,-0.29,-24.7874,-159.2874,-49.885000000000005,175,75
2026-05-07 18:39:51.732,3,0.24,-2.09,-0.72,-11.437400000000002,-127.0274,-51.105000000000004,175,75
2026-05-07 18:39:51.744,3,0.18,-1.72,-0.98,24.1726,-79.16739999999999,-33.295,175,75
2026-05-07 18:39:51.754,3,-0.38,-1.19,-1.08,57.102599999999995,11.6926,-5.185,175,75
2026-05-07 18:39:51.773,3,-1.06,-0.39,-0.75,111.7326,111.7526,36.155,175,75
2026-05-07 18:39:51.784,3,-0.81,-1.01,-0.06,199.7226,143.8226,109.015,175,75
2026-05-07 18:39:51.784,3,-0.89,-1.51,0.65,239.2326,121.26259999999999,154.08499999999998,175,75
2026-05-07 18:39:51.823,3,-0.61,-2.52,0.2,110.3926,-154.10739999999998,175.23499999999999,175,75
2026-05-07 18:39:51.823,3,-0.34,-2.32,-0.5,73.20259999999999,-200.5674,135.975,175,75
2026-05-07 18:39:51.834,3,-0.56,-1.5,-0.79,91.4926,-134.3474,108.595,175,75
2026-05-07 18:39:51.855,3,-0.23,-1.61,0.26,125.5126,-72.3374,166.64499999999998,175,75
2026-05-07 18:39:51.867,3,-1.06,-1.88,-0.11,50.822599999999994,-98.6774,160.42499999999998,175,75
2026-05-07 18:39:51.889,3,-1.11,-1.93,-0.42,25.332599999999996,-38.617399999999996,70.235,175,75
2026-05-07 18:39:51.915,3,-0.83,-1.25,0.01,-30.0974,-16.9074,37.435,175,75
2026-05-07 18:39:51.928,3,-0.82,-0.94,0.17,-60.037400000000005,-24.287399999999998,21.825,175,75
2026-05-07 18:39:51.942,3,-0.8,-0.71,0.26,-110.6474,-35.4474,-6.284999999999999,175,75
2026-05-07 18:39:51.977,3,-0.71,-0.73,0.29,-198.20739999999998,-31.117399999999996,-38.415,175,75
2026-05-07 18:39:52.003,3,-0.49,-1.01,0.62,-302.7774,-43.3074,-120.125,175,75
2026-05-07 18:39:52.015,3,-0.48,-1.07,0.59,-326.8674,-42.2074,-130.305,175,75
2026-05-07 18:39:52.027,3,-0.54,-1.15,0.5,-341.6174,-35.6874,-138.485,175,75
2026-05-07 18:39:52.044,3,-0.55,-1.24,0.45,-356.06739999999996,-15.2574,-147.745,175,75
2026-05-07 18:39:52.044,3,-0.55,-1.31,0.45,-366.37739999999997,-2.087399999999999,-155.675,175,75
2026-05-07 18:39:52.058,3,-0.58,-1.37,0.43,-376.2574,6.382600000000001,-167.685,175,75
2026-05-07 18:39:52.060,3,-0.6,-1.41,0.37,-383.81739999999996,12.8526,-175.735,175,75
2026-05-07 18:39:52.081,3,-0.59,-1.46,0.26,-392.7174,31.6326,-182.565,175,75
2026-05-07 18:39:52.085,3,-0.61,-1.6,0.28,-389.4274,59.8026,-189.69500000000002,175,75
2026-05-07 18:39:52.107,3,-0.73,-1.93,0.71,-365.8874,124.55260000000001,-213.845,175,75
2026-05-07 18:39:52.133,3,-1.04,-2.25,1.39,-308.87739999999997,142.3026,-235.245,175,75
2026-05-07 18:39:52.145,3,-1.54,-2.18,1.79,-267.6574,149.7426,-233.54500000000002,175,75
2026-05-07 18:39:52.158,3,-1.7,-2.18,2.24,-213.20739999999998,130.4126,-235.675,175,75
2026-05-07 18:39:52.169,3,-1.67,-2.05,2.39,-190.88739999999999,81.02260000000001,-237.935,175,75
2026-05-07 18:39:52.193,3,-2.1,-0.32,1.05,-176.2574,53.6426,-169.215,175,75
2026-05-07 18:39:52.204,3,-1.5,0.24,1.36,-85.4574,154.92260000000002,-98.235,175,75
2026-05-07 18:39:52.215,3,-1.09,0.25,2.52,-13.0774,180.1026,-45.985,175,75
2026-05-07 18:39:52.215,3,-1.05,0.36,3.25,25.6326,88.0926,-11.525,175,75
2026-05-07 18:39:52.227,3,-1.02,0.11,2.89,58.992599999999996,-72.4574,15.665,175,75
2026-05-07 18:39:52.238,3,-1.49,-0.19,1.81,69.7226,-147.3974,53.405,175,75
2026-05-07 18:39:52.249,3,-2.65,-0.2,0.44,68.4426,-86.35740000000001,97.555,175,75
2026-05-07 18:39:52.279,3,2.89,-4.56,-3.01,-73.5074,-619.7774000000001,37.55500000000001,175,75
2026-05-07 18:39:52.290,3,-7.21,-3.41,-1.82,-107.34740000000001,-279.7774,328.225,175,75
2026-05-07 18:39:52.295,3,-5.19,-2.92,2.91,549.2325999999999,1440.2226,853.405,175,75
2026-05-07 18:39:52.333,3,2.86,0.47,2.59,94.3526,214.3726,-32.805,175,75
2026-05-07 18:39:52.347,3,-0.85,1.57,2.34,-308.0174,-287.0874,359.875,175,75
2026-05-07 18:39:52.383,3,-0.69,-1.95,0.37,202.7126,164.5526,82.555,175,75
2026-05-07 18:39:52.419,3,-1.22,-1.54,1.59,4.542599999999997,-44.2874,6.765000000000001,175,75
2026-05-07 18:39:52.442,3,-1.38,-0.95,0.24,-52.4674,-152.88739999999999,22.555000000000003,175,75
2026-05-07 18:39:52.483,3,-1.16,-1.62,0.67,-26.7374,-15.927399999999999,-49.095,175,75
2026-05-07 18:39:52.513,3,-1.05,-2.88,0.19,-119.4274,-85.07740000000001,-80.30499999999999,175,75
2026-05-07 18:39:52.523,3,-0.81,-2.92,-0.31,-156.5574,-114.8374,-108.35499999999999,175,75
2026-05-07 18:39:52.540,3,-0.56,-2.79,-0.69,-171.92739999999998,-129.1674,-114.395,175,75
2026-05-07 18:39:52.540,3,-0.21,-2.53,-1.05,-176.4974,-139.0374,-115.49499999999999,175,75
2026-05-07 18:39:52.557,3,-0.33,-1.51,-1.36,-187.95739999999998,-100.6874,-133.725,175,75
2026-05-07 18:39:52.569,3,-0.33,-0.41,-0.67,-131.1874,59.132600000000004,-133.905,175,75
2026-05-07 18:39:52.581,3,-0.96,0.57,0.73,36.242599999999996,80.4726,21.764999999999997,175,75
2026-05-07 18:39:52.607,3,-1.06,-0.94,0.65,13.622599999999995,-162.3374,57.00500000000001,175,75
2026-05-07 18:39:52.619,3,-0.59,-0.57,-0.37,20.6326,-124.28739999999999,23.654999999999998,175,75
2026-05-07 18:39:52.634,3,-0.65,-0.38,-0.49,109.60259999999998,-23.4274,74.205,175,75
2026-05-07 18:39:52.646,3,-0.66,-0.85,-0.15,124.60259999999998,9.1926,98.105,175,75
2026-05-07 18:39:52.658,3,-0.76,-0.94,-0.14,89.23259999999999,14.922600000000001,62.125,175,75
2026-05-07 18:39:52.669,3,-0.16,-0.67,-0.12,43.5026,31.8126,53.405,175,75
2026-05-07 18:39:52.695,3,-0.08,-0.11,-0.6,-18.5074,4.1926000000000005,0.054999999999999716,175,75
2026-05-07 18:39:52.706,3,-0.19,0.0,-0.7,-32.4074,8.642600000000002,-8.905,175,75
2026-05-07 18:39:52.726,3,-0.27,-0.15,-0.46,-50.3374,51.5726,-23.295,175,75
2026-05-07 18:39:52.762,3,-0.28,-0.32,0.67,-50.2174,19.2526,-34.705,175,75
2026-05-07 18:39:52.774,3,-0.38,-0.29,0.89,-57.537400000000005,-32.2774,-28.605,175,75
2026-05-07 18:39:52.789,3,-0.27,-0.32,1.07,-63.20740000000001,-95.56739999999999,-23.055,175,75
2026-05-07 18:39:52.802,3,-0.29,-0.41,1.05,-76.0074,-142.6974,-18.175,175,75
2026-05-07 18:39:52.826,3,-2.07,0.37,0.94,-1.1874000000000002,0.8326000000000011,40.845,175,75
2026-05-07 18:39:52.863,3,4.25,-6.13,6.19,313.68260000000004,-1084.6473999999998,-170.735,175,75
2026-05-07 18:39:52.876,3,-2.31,-3.48,-0.15,-260.5174,-524.0974,420.665,175,75
2026-05-07 18:39:52.887,3,-2.77,-0.42,-1.83,-394.9674,-70.07740000000001,224.20499999999998,175,75
2026-05-07 18:39:52.913,3,-2.08,-1.0,-1.87,193.6226,97.36260000000001,33.775000000000006,175,75
2026-05-07 18:39:52.924,3,-0.41,-1.6,-0.39,156.0026,338.0326,152.435,175,75
2026-05-07 18:39:52.947,3,-1.4,-2.12,0.86,186.0026,233.76260000000002,115.545,175,75
2026-05-07 18:39:52.947,3,-1.56,-2.72,1.2,134.8426,139.0726,3.835000000000001,175,75
2026-05-07 18:39:52.969,3,-0.5,-1.63,0.46,87.59259999999999,-67.2074,50.175,175,75
2026-05-07 18:39:52.983,3,-1.04,-1.5,0.21,99.3526,-10.627399999999998,70.055,175,75
2026-05-07 18:39:52.995,3,-1.35,-1.1,0.18,102.2226,50.3526,34.935,175,75
2026-05-07 18:39:53.006,3,-1.05,-0.77,0.57,101.06259999999999,98.27260000000001,17.065,175,75
2026-05-07 18:39:53.027,3,-0.69,-0.69,1.43,30.0326,56.2626,38.894999999999996,175,75
2026-05-07 18:39:53.027,3,-0.83,-0.63,1.45,-1.3774000000000015,-4.8973999999999975,50.724999999999994,175,75
2026-05-07 18:39:53.059,3,-0.9,-0.84,0.6,-34.177400000000006,-83.79740000000001,66.705,175,75
2026-05-07 18:39:53.069,3,-1.26,-0.96,0.34,-29.297400000000003,-50.0174,69.015,175,75
2026-05-07 18:39:53.082,3,-1.22,-1.15,0.42,-17.8974,-25.507399999999997,47.55500000000001,175,75
2026-05-07 18:39:53.132,3,-1.14,-0.81,0.48,-29.2374,-33.1274,6.705000000000002,175,75
2026-05-07 18:39:53.154,3,-1.23,-0.93,0.5,-24.907400000000003,-25.687399999999997,-2.994999999999999,175,75
2026-05-07 18:39:53.154,3,-1.24,-1.06,0.56,-26.927400000000002,-28.367399999999996,-14.885,175,75
2026-05-07 18:39:53.173,3,-1.22,-1.1,0.61,-31.1274,-30.8074,-23.415,175,75
2026-05-07 18:39:53.182,3,-1.21,-1.18,0.64,-33.937400000000004,-35.7474,-31.465,175,75
2026-05-07 18:39:53.194,3,-1.22,-1.24,0.69,-38.6874,-38.6774,-38.724999999999994,175,75
2026-05-07 18:39:53.204,3,-1.12,-1.3,0.7,-45.9474,-45.7474,-49.394999999999996,175,75
2026-05-07 18:39:53.217,3,-1.12,-1.32,0.69,-53.3874,-47.6974,-52.44499999999999,175,75
2026-05-07 18:39:53.217,3,-1.05,-1.34,0.68,-58.147400000000005,-46.477399999999996,-54.575,175,75
2026-05-07 18:39:53.238,3,-1.02,-1.58,0.66,-80.7074,-55.38739999999999,-53.905,175,75
2026-05-07 18:39:53.266,3,-0.78,-1.89,0.5,-106.0674,-89.5874,-57.205,175,75
2026-05-07 18:39:53.277,3,-0.62,-2.02,0.32,-119.48740000000001,-92.94739999999999,-56.595,175,75
2026-05-07 18:39:53.280,3,-0.51,-2.11,0.12,-129.9074,-96.1774,-56.894999999999996,175,75
2026-05-07 18:39:53.290,3,-0.38,-2.12,-0.03,-137.5974,-98.1874,-63.724999999999994,175,75
2026-05-07 18:39:53.300,3,-0.17,-2.06,-0.15,-144.2974,-105.56739999999999,-74.825,175,75
2026-05-07 18:39:53.324,3,-0.03,-1.67,-0.38,-160.51739999999998,-100.7474,-106.345,175,75
2026-05-07 18:39:53.333,3,-0.42,-1.08,-0.61,-165.6474,-57.7574,-113.485,175,75
2026-05-07 18:39:53.345,3,-1.19,-0.29,-0.47,-126.79740000000001,102.8526,-81.345,175,75
2026-05-07 18:39:53.357,3,-1.17,-0.2,0.61,33.01259999999999,221.5726,-11.895,175,75
2026-05-07 18:39:53.368,3,-1.74,-0.67,1.43,112.22259999999999,127.8526,45.665000000000006,175,75
2026-05-07 18:39:53.368,3,-1.23,-1.11,1.46,38.992599999999996,23.7626,-8.115,175,75
2026-05-07 18:39:53.389,3,-0.28,-0.84,0.62,-73.62740000000001,-132.3374,-83.845,175,75
2026-05-07 18:39:53.407,3,-0.11,-0.16,-0.7,-69.0574,-86.9674,20.175,175,75
2026-05-07 18:39:53.431,3,-0.13,-0.38,-0.61,-75.7074,-117.0274,-34.025,175,75
2026-05-07 18:39:53.445,3,-0.07,-0.28,-0.69,-82.6574,-75.56739999999999,-28.485,175,75
2026-05-07 18:39:53.472,3,0.1,-0.68,-0.18,-55.397400000000005,-18.7974,-48.235,175,75
2026-05-07 18:39:53.497,3,-0.11,-0.6,0.13,-16.7374,25.532600000000002,-43.235,175,75
2026-05-07 18:39:53.513,3,-0.11,-0.49,0.31,9.782599999999999,46.632600000000004,-41.105000000000004,175,75
2026-05-07 18:39:53.513,3,-0.1,-0.53,0.32,24.542599999999997,54.0726,-45.245000000000005,175,75
2026-05-07 18:39:53.532,3,-0.19,-0.34,0.37,38.202600000000004,114.0726,-54.334999999999994,175,75
2026-05-07 18:39:53.544,3,-0.86,0.0,0.75,65.9426,177.0526,-53.295,175,75
2026-05-07 18:39:53.566,3,-9.05,3.25,5.03,360.5126,1013.6426,134.935,175,75
2026-05-07 18:39:53.586,3,-0.85,-3.3,2.73,101.7926,-758.4974,120.175,175,75
2026-05-07 18:39:53.598,3,-5.78,1.58,-1.82,-313.93739999999997,74.8026,349.20500000000004,175,75
2026-05-07 18:39:53.615,3,-2.22,-0.54,-2.76,52.59259999999999,-425.6874,-24.884999999999998,175,75
2026-05-07 18:39:53.626,3,-1.62,-2.54,-2.04,243.62260000000003,-131.5374,-252.805,175,75
2026-05-07 18:39:53.656,3,-1.09,-2.77,2.25,225.57260000000002,139.1326,94.69500000000001,175,75
2026-05-07 18:39:53.719,3,-1.34,-1.07,1.47,80.5726,62.3626,54.75500000000001,175,75
2026-05-07 18:39:53.730,3,-1.51,-0.72,1.44,16.0626,-37.8874,3.4749999999999996,175,75
2026-05-07 18:39:53.741,3,-1.37,-0.4,0.78,1.6725999999999992,-111.1174,-23.235,175,75
2026-05-07 18:39:53.768,3,-1.43,-0.92,0.25,13.1326,-47.3374,-21.105,175,75
2026-05-07 18:39:53.768,3,-1.34,-1.31,0.36,9.962599999999998,-26.537399999999998,-43.114999999999995,175,75
2026-05-07 18:39:53.787,3,-1.18,-1.65,0.44,17.7126,-12.517399999999999,-59.705,175,75
2026-05-07 18:39:53.802,3,-1.02,-1.9,0.64,24.6626,-4.037399999999998,-60.245000000000005,175,75
2026-05-07 18:39:53.811,3,-0.79,-2.16,0.77,21.612599999999997,-17.5174,-54.635000000000005,175,75
2026-05-07 18:39:53.850,3,-0.08,-2.03,-0.09,-2.2874000000000017,-63.917399999999994,-24.884999999999998,175,75
2026-05-07 18:39:53.862,3,0.05,-2.09,-0.33,-5.947400000000002,-72.51740000000001,-19.025,175,75
2026-05-07 18:39:53.874,3,-0.03,-1.79,-0.55,8.7426,-71.66739999999999,-21.775,175,75
2026-05-07 18:39:53.889,3,-0.27,-1.15,-0.68,57.712599999999995,-33.5574,-10.795,175,75
2026-05-07 18:39:53.902,3,-0.86,-0.78,-0.56,113.44259999999998,28.212600000000002,21.645,175,75
2026-05-07 18:39:53.927,3,-0.8,-1.48,0.52,247.1626,181.6326,93.105,175,75
2026-05-07 18:39:53.964,3,-0.65,-1.96,0.39,243.56260000000003,89.55260000000001,98.045,175,75
2026-05-07 18:39:53.974,3,-0.31,-1.83,0.33,247.4626,76.93260000000001,88.47500000000001,175,75
2026-05-07 18:39:53.984,3,-0.32,-1.51,0.41,230.3326,53.6426,113.405,175,75
2026-05-07 18:39:54.017,3,-0.81,-1.62,0.56,124.35259999999998,-141.23739999999998,107.00500000000001,175,75
2026-05-07 18:39:54.036,3,-0.92,-1.26,-0.08,66.4926,-137.57739999999998,79.815,175,75
2026-05-07 18:39:54.056,3,-0.54,-0.49,-0.11,-16.9874,-46.297399999999996,16.885,175,75
2026-05-07 18:39:54.080,3,-0.61,-0.39,0.3,-81.37740000000001,-66.29740000000001,-15.004999999999999,175,75
2026-05-07 18:39:54.135,3,-0.7,-0.13,0.11,-290.5774,-35.8074,-100.675,175,75
2026-05-07 18:39:54.159,3,-0.72,-0.35,0.15,-318.4474,-14.5274,-120.49499999999999,175,75
2026-05-07 18:39:54.175,3,-0.91,-0.49,0.15,-323.56739999999996,105.77260000000001,-115.125,175,75
2026-05-07 18:39:54.199,3,-0.87,-0.68,0.52,-304.7274,159.86260000000001,-134.215,175,75
2026-05-07 18:39:54.199,3,-0.82,-0.78,1.02,-279.9074,192.2426,-152.995,175,75
2026-05-07 18:39:54.214,3,-0.81,-0.76,1.41,-258.5674,194.98260000000002,-162.935,175,75
2026-05-07 18:39:54.244,3,-0.93,-1.05,1.88,-208.1474,117.48259999999999,-170.00500000000002,175,75
2026-05-07 18:39:54.258,3,-1.28,-1.06,1.69,-190.82739999999998,101.26259999999999,-161.895,175,75
2026-05-07 18:39:54.269,3,-5.3,0.59,2.58,-90.3374,320.96259999999995,25.974999999999998,175,75
2026-05-07 18:39:54.298,3,-0.83,-1.49,4.64,348.0126,89.74260000000001,23.955000000000002,175,75
2026-05-07 18:39:54.327,3,-6.03,1.88,-0.39,-227.6574,18.1526,205.23499999999999,175,75
2026-05-07 18:39:54.337,3,0.74,0.09,-1.36,-34.427400000000006,215.2226,-19.765,175,75
2026-05-07 18:39:54.337,3,-0.38,-0.71,0.62,193.07260000000002,-48.0674,67.555,175,75
2026-05-07 18:39:54.359,3,-0.27,-1.93,1.23,121.85259999999998,125.96260000000001,103.28500000000001,175,75
2026-05-07 18:39:54.372,3,-1.15,-2.24,1.93,65.15259999999999,39.0026,56.095,175,75
2026-05-07 18:39:54.387,3,-1.28,-1.51,0.7,-21.677400000000002,-92.51740000000001,38.105000000000004,175,75
2026-05-07 18:39:54.406,3,-1.08,-1.65,0.46,-6.187400000000002,-112.88739999999999,37.19500000000001,175,75
2026-05-07 18:39:54.406,3,-1.03,-1.84,0.28,1.612599999999997,-109.0974,37.375,175,75
2026-05-07 18:39:54.428,3,-0.82,-1.93,0.09,30.942599999999995,-81.8474,11.035,175,75
2026-05-07 18:39:54.428,3,-0.36,-2.34,0.25,49.352599999999995,-48.0074,17.195,175,75
2026-05-07 18:39:54.439,3,-0.38,-2.74,0.26,45.6326,-44.8374,35.785,175,75
2026-05-07 18:39:54.450,3,-0.36,-2.68,0.04,49.6626,-40.8074,11.645,175,75
2026-05-07 18:39:54.473,3,-0.06,-2.08,-0.3,68.5026,-52.5174,8.105,175,75
2026-05-07 18:39:54.487,3,-0.04,-1.96,-0.64,90.76259999999999,-69.4674,54.69500000000001,175,75
2026-05-07 18:39:54.500,3,-0.2,-2.01,-0.76,93.3226,-57.7574,54.14500000000001,175,75
2026-05-07 18:39:54.514,3,-0.41,-1.78,-0.67,119.1726,-5.567399999999999,47.315,175,75
2026-05-07 18:39:54.524,3,-0.74,-1.37,-0.23,145.1526,47.5426,60.36500000000001,175,75
2026-05-07 18:39:54.537,3,-0.89,-1.27,0.31,167.6526,76.93260000000001,80.485,175,75
2026-05-07 18:39:54.548,3,-0.68,-1.29,0.31,168.7426,51.9326,86.825,175,75
2026-05-07 18:39:54.564,3,-0.4,-1.23,0.2,157.2826,40.2926,86.39500000000001,175,75
2026-05-07 18:39:54.602,3,-0.16,-0.79,0.22,140.6326,9.6126,59.50500000000001,175,75
2026-05-07 18:39:54.614,3,-0.45,-0.79,0.23,122.9526,-1.5973999999999986,61.64500000000001,175,75
2026-05-07 18:39:54.614,3,-0.63,-1.03,0.05,85.09259999999999,-14.7774,65.78500000000001,175,75
2026-05-07 18:39:54.636,3,-0.72,-1.19,-0.44,21.9226,-54.2874,33.105000000000004,175,75
2026-05-07 18:39:54.647,3,-0.85,-1.03,-0.89,-19.7874,-28.617399999999996,-0.6749999999999989,175,75
2026-05-07 18:39:54.673,3,-0.67,-0.78,-0.38,-74.9674,51.8726,-48.785,175,75
2026-05-07 18:39:54.704,3,-0.7,-0.67,0.35,-180.0974,-27.4574,-110.435,175,75
2026-05-07 18:39:54.744,3,-0.75,-0.9,0.22,-291.9874,-78.5574,-151.10500000000002,175,75
2026-05-07 18:39:54.744,3,-0.81,-0.99,0.17,-313.56739999999996,-62.087399999999995,-154.025,175,75
2026-05-07 18:39:54.765,3,-0.82,-1.18,0.13,-335.0974,-26.5974,-163.115,175,75
2026-05-07 18:39:54.779,3,-0.88,-1.4,0.07,-347.4674,14.742600000000001,-170.79500000000002,175,75
2026-05-07 18:39:54.794,3,-0.94,-1.64,0.03,-353.1474,50.6526,-174.095,175,75
2026-05-07 18:39:54.800,3,-1.23,-2.32,0.31,-310.7674,121.3826,-177.745,175,75
2026-05-07 18:39:54.822,3,-1.31,-2.44,0.85,-246.1274,199.98260000000002,-158.905,175,75
2026-05-07 18:39:54.835,3,-1.42,-2.13,1.54,-204.54739999999998,222.54260000000002,-157.995,175,75
2026-05-07 18:39:54.835,3,-1.58,-1.68,1.78,-187.8374,215.1026,-168.35500000000002,175,75
2026-05-07 18:39:54.847,3,-2.14,-0.73,1.69,-157.6574,197.9726,-137.625,175,75
2026-05-07 18:39:54.855,3,-2.42,-0.12,1.77,-60.8874,222.6026,-65.005,175,75
2026-05-07 18:39:54.869,3,-1.71,-0.11,2.41,58.62259999999999,174.4926,-105.185,175,75
2026-05-07 18:39:54.889,3,-1.52,0.95,3.31,128.8726,270.5926,-40.735,175,75
2026-05-07 18:39:54.920,3,1.19,-2.44,2.37,301.9826,-103.06739999999999,229.08499999999998,175,75
2026-05-07 18:39:54.933,3,-2.45,-3.76,-0.47,-55.157399999999996,-732.7574000000001,340.055,175,75
2026-05-07 18:39:54.936,3,-2.67,-3.17,-0.9,-74.7874,428.82259999999997,244.20499999999998,175,75
2026-05-07 18:39:54.983,3,-1.37,-0.03,0.64,-11.127400000000002,-52.087399999999995,142.61499999999998,175,75
2026-05-07 18:39:54.992,3,-1.49,-1.19,0.38,50.3326,-41.8474,98.89500000000001,175,75
2026-05-07 18:39:55.004,3,-1.54,-1.91,0.54,49.54259999999999,-30.3874,35.605000000000004,175,75
2026-05-07 18:39:55.023,3,-1.37,-2.11,0.68,36.6126,-3.3073999999999995,-7.805,175,75
2026-05-07 18:39:55.034,3,-1.27,-2.18,0.8,12.342600000000001,-7.2074,-42.995000000000005,175,75
2026-05-07 18:39:55.046,3,-1.16,-2.28,0.75,-12.5974,-12.7574,-57.015,175,75
2026-05-07 18:39:55.048,3,-1.14,-2.16,0.5,-36.4974,-26.967399999999998,-85.675,175,75
2026-05-07 18:39:55.054,3,-0.96,-2.1,0.17,-58.017399999999995,-28.187399999999997,-104.27499999999999,175,75
2026-05-07 18:39:55.071,3,-0.61,-2.18,-0.1,-76.98740000000001,-17.2074,-105.375,175,75
2026-05-07 18:39:55.081,3,-0.28,-2.23,-0.1,-87.9574,-0.13739999999999952,-101.835,175,75
2026-05-07 18:39:55.095,3,0.12,-2.18,-0.07,-113.1474,-8.6174,-108.485,175,75
2026-05-07 18:39:55.100,3,0.18,-1.94,-0.23,-142.5374,-23.2474,-115.005,175,75
2026-05-07 18:39:55.112,3,-0.17,-1.32,-0.48,-174.23739999999998,-23.0674,-109.705,175,75
2026-05-07 18:39:55.139,3,-1.41,-0.23,0.29,-10.5774,151.5026,-30.435,175,75
2026-05-07 18:39:55.139,3,-1.49,-0.38,0.81,71.7926,131.5026,7.675000000000001,175,75
2026-05-07 18:39:55.152,3,-1.14,-0.46,0.76,68.81259999999999,92.18260000000001,2.9250000000000007,175,75
2026-05-07 18:39:55.160,3,-0.4,-0.28,0.32,64.9626,56.9926,-9.635,175,75
2026-05-07 18:39:55.175,3,-0.46,-0.07,0.18,101.8526,90.3526,44.995000000000005,175,75
2026-05-07 18:39:55.214,3,-0.67,-0.77,0.55,63.5026,-1.7273999999999994,65.485,175,75
2026-05-07 18:39:55.214,3,-0.41,-0.55,0.24,21.0626,-41.0574,61.215,175,75
2026-05-07 18:39:55.228,3,-0.31,-0.36,-0.11,-16.927400000000002,-81.9674,62.435,175,75
2026-05-07 18:39:55.245,3,-0.23,-0.35,-0.42,-48.0774,-117.51739999999998,50.05500000000001,175,75
2026-05-07 18:39:55.257,3,-0.45,-0.15,-0.74,-55.037400000000005,-61.117399999999996,37.315,175,75
2026-05-07 18:39:55.285,3,-0.51,-0.24,-0.34,-28.8774,1.6926000000000005,40.665000000000006,175,75
2026-05-07 18:39:55.307,3,-0.82,-0.29,-0.1,-32.7174,-9.467399999999998,36.644999999999996,175,75
2026-05-07 18:39:55.307,3,-0.6,-0.32,0.51,-11.987400000000001,-8.0674,30.974999999999998,175,75
2026-05-07 18:39:55.327,3,0.18,-0.46,1.35,-25.767400000000002,-142.51739999999998,23.404999999999998,175,75
2026-05-07 18:39:55.338,3,0.2,-0.44,1.14,-60.517399999999995,-215.7474,16.155,175,75
2026-05-07 18:39:55.353,3,0.15,-0.25,0.64,-89.0574,-239.5874,20.235,175,75
2026-05-07 18:39:55.376,3,-4.91,1.35,2.41,59.352599999999995,161.4426,150.725,175,75
2026-05-07 18:39:55.379,3,-1.46,0.18,5.78,465.7026,592.4226,306.45500000000004,175,75
2026-05-07 18:39:55.389,3,3.66,-4.54,3.62,176.2426,-1008.6174,-78.845,175,75
2026-05-07 18:39:55.412,3,-3.98,-2.83,-1.88,-370.6474,-347.9474,411.15500000000003,175,75
2026-05-07 18:39:55.424,3,-3.89,-0.52,-2.73,-340.6474,176.4426,304.565,175,75
2026-05-07 18:39:55.424,3,-0.85,-1.46,-2.42,54.6626,-60.077400000000004,12.795000000000002,175,75
2026-05-07 18:39:55.432,3,-1.06,-2.34,-2.08,287.7726,-155.9974,-73.965,175,75
2026-05-07 18:39:55.452,3,0.35,-2.0,-0.06,111.85259999999998,378.27259999999995,116.94500000000001,175,75
2026-05-07 18:39:55.467,3,-1.04,-2.43,1.0,212.7726,281.63259999999997,128.225,175,75
2026-05-07 18:39:55.480,3,-1.94,-2.76,1.73,233.8726,216.3226,28.044999999999998,175,75
2026-05-07 18:39:55.501,3,-0.58,-1.12,1.98,80.8226,14.6126,-71.465,175,75
2026-05-07 18:39:55.518,3,-0.65,-1.28,0.52,19.6026,-53.497400000000006,54.08500000000001,175,75
2026-05-07 18:39:55.535,3,-1.03,-1.59,0.32,36.6126,-18.7974,34.754999999999995,175,75
2026-05-07 18:39:55.549,3,-1.17,-1.18,0.69,49.90259999999999,27.7226,14.625,175,75
2026-05-07 18:39:55.549,3,-0.99,-0.94,0.97,33.8126,6.932600000000001,5.785,175,75
2026-05-07 18:39:55.584,3,-1.01,-0.62,0.81,-24.547400000000003,-44.6474,8.895,175,75
2026-05-07 18:39:55.585,3,-0.99,-0.72,0.62,-36.067400000000006,-45.5074,10.665,175,75
2026-05-07 18:39:55.597,3,-0.99,-0.88,0.47,-36.1874,-43.4974,11.585,175,75
2026-05-07 18:39:55.610,3,-1.17,-0.92,0.47,-28.5674,-33.9174,3.4749999999999996,175,75
2026-05-07 18:39:55.623,3,-1.15,-1.01,0.51,-29.2374,-33.7374,-3.0549999999999997,175,75
2026-05-07 18:39:55.634,3,-1.16,-1.04,0.5,-32.4674,-37.3374,-8.725,175,75
2026-05-07 18:39:55.644,3,-1.2,-1.07,0.47,-32.6574,-30.017400000000002,-16.595,175,75
2026-05-07 18:39:55.666,3,-1.15,-0.94,0.68,-40.037400000000005,-13.1874,-41.045,175,75
2026-05-07 18:39:55.677,3,-1.13,-0.9,0.72,-47.3474,-17.5174,-44.765,175,75
2026-05-07 18:39:55.687,3,-1.08,-0.92,0.71,-56.98740000000001,-31.907400000000003,-46.955,175,75
2026-05-07 18:39:55.709,3,-0.95,-1.26,0.72,-76.7974,-35.5074,-43.905,175,75
2026-05-07 18:39:55.719,3,-0.88,-1.45,0.71,-87.65740000000001,-42.2074,-42.504999999999995,175,75
2026-05-07 18:39:55.727,3,-0.87,-1.62,0.65,-98.3874,-48.7374,-42.625,175,75
2026-05-07 18:39:55.737,3,-0.8,-1.78,0.53,-107.8974,-57.337399999999995,-44.765,175,75
2026-05-07 18:39:55.748,3,-0.73,-1.87,0.37,-114.1174,-74.28739999999999,-45.855000000000004,175,75
2026-05-07 18:39:55.759,3,-0.65,-1.87,0.14,-116.98740000000001,-93.91739999999999,-49.575,175,75
2026-05-07 18:39:55.773,3,-0.51,-1.83,-0.03,-111.2574,-105.6874,-49.394999999999996,175,75
2026-05-07 18:39:55.784,3,-0.39,-1.82,-0.14,-106.8674,-109.5274,-47.565,175,75
2026-05-07 18:39:55.785,3,-0.41,-1.72,-0.21,-109.7874,-104.9574,-48.665000000000006,175,75
2026-05-07 18:39:55.807,3,-0.42,-1.53,-0.29,-106.18740000000001,-92.63739999999999,-55.004999999999995,175,75
2026-05-07 18:39:55.811,3,-0.71,-1.11,-0.38,-94.84740000000001,-40.5674,-60.435,175,75
2026-05-07 18:39:55.822,3,-0.71,-0.59,-0.1,-51.4374,39.742599999999996,-50.735,175,75
2026-05-07 18:39:55.846,3,-1.26,-0.23,0.51,43.992599999999996,44.3126,24.625000000000004,175,75
2026-05-07 18:39:55.862,3,-1.14,-0.68,0.49,47.102599999999995,31.9926,42.675,175,75
2026-05-07 18:39:55.873,3,-0.63,-0.75,0.08,33.682599999999994,-0.13739999999999952,35.114999999999995,175,75
2026-05-07 18:39:55.880,3,-0.26,-0.75,-0.32,14.482600000000001,-18.7974,25.175,175,75
2026-05-07 18:39:55.895,3,-0.21,-0.46,-0.48,-2.4674000000000014,14.492600000000001,21.035,175,75
2026-05-07 18:39:55.924,3,0.03,-0.5,-0.1,-41.007400000000004,-10.197399999999998,-19.025,175,75
2026-05-07 18:39:55.934,3,0.02,-0.4,-0.21,-58.0774,-8.737400000000001,-23.725,175,75
2026-05-07 18:39:55.934,3,0.04,-0.46,-0.28,-67.9574,-6.537399999999998,-31.345,175,75
2026-05-07 18:39:55.957,3,-0.03,-0.56,-0.41,-75.1574,4.982600000000001,-43.724999999999994,175,75
2026-05-07 18:39:55.968,3,-0.15,-0.59,-0.51,-78.4474,33.2726,-54.885000000000005,175,75
2026-05-07 18:39:55.978,3,-0.07,-0.65,-0.58,-83.3274,20.712600000000002,-59.515,175,75
2026-05-07 18:39:55.989,3,-0.44,-0.65,-0.87,-93.3874,37.3026,-68.785,175,75
2026-05-07 18:39:56.002,3,-0.33,-0.47,-0.76,-90.15740000000001,86.8726,-53.114999999999995,175,75
2026-05-07 18:39:56.024,3,-8.3,2.69,3.66,162.3426,864.3726,187.435,175,75
2026-05-07 18:39:56.034,3,0.55,-2.08,3.28,294.7826,-169.5274,-49.095,175,75
2026-05-07 18:39:56.045,3,-6.75,0.49,4.74,213.8126,232.9726,141.885,175,75
2026-05-07 18:39:56.055,3,3.37,-3.96,2.46,58.072599999999994,-353.67740000000003,115.055,175,75
2026-05-07 18:39:56.059,3,-1.94,-2.5,0.44,-244.6674,-628.7974,206.515,175,75
2026-05-07 18:39:56.076,3,-4.02,-0.61,-1.56,-242.8974,-3.6174,204.08499999999998,175,75
2026-05-07 18:39:56.099,3,-0.34,-3.85,-0.27,249.2926,96.6926,160.665,175,75
2026-05-07 18:39:56.102,3,-1.62,-3.41,0.77,197.04260000000002,208.39260000000002,148.83499999999998,175,75
2026-05-07 18:39:56.121,3,-2.0,-2.03,1.18,166.3126,185.2226,51.155,175,75
2026-05-07 18:39:56.133,3,-1.45,-0.63,1.23,81.7926,122.6026,-55.915000000000006,175,75
2026-05-07 18:39:56.144,3,-0.23,0.86,0.94,24.1726,51.022600000000004,7.615000000000002,175,75
2026-05-07 18:39:56.148,3,-0.98,0.54,0.89,54.54259999999999,-18.6774,114.385,175,75
2026-05-07 18:39:56.163,3,-1.26,-0.96,0.88,32.462599999999995,-55.6274,97.555,175,75
2026-05-07 18:39:56.174,3,-1.5,-1.32,0.8,4.7226,-52.5174,68.405,175,75
2026-05-07 18:39:56.185,3,-1.53,-1.19,0.61,-8.207400000000002,-49.4674,23.595000000000002,175,75
2026-05-07 18:39:56.195,3,-1.48,-0.96,0.52,-11.737400000000001,-33.797399999999996,0.4850000000000012,175,75
2026-05-07 18:39:56.206,3,-1.25,-0.86,0.6,-18.017400000000002,-34.3474,-5.005,175,75
2026-05-07 18:39:56.217,3,-1.13,-1.05,0.64,-25.0374,-48.5574,-7.875,175,75
2026-05-07 18:39:56.217,3,-1.1,-1.34,0.55,-25.8874,-60.2574,-12.445,175,75
2026-05-07 18:39:56.232,3,-1.18,-1.46,0.45,-12.837400000000002,-54.2874,-25.375,175,75
2026-05-07 18:39:56.244,3,-1.14,-1.35,0.4,-2.4074000000000026,-38.8574,-41.835,175,75
2026-05-07 18:39:56.278,3,-0.88,-1.34,0.53,-3.8774000000000015,-28.9174,-46.165000000000006,175,75
2026-05-07 18:39:56.290,3,-0.81,-1.46,0.61,-4.727400000000001,-32.5774,-45.245000000000005,175,75
2026-05-07 18:39:56.317,3,-0.59,-1.64,0.7,-25.517400000000002,-79.8374,-31.224999999999998,175,75
2026-05-07 18:39:56.328,3,-0.56,-1.65,0.59,-29.4874,-101.47739999999999,-23.665,175,75
2026-05-07 18:39:56.328,3,-0.52,-1.64,0.41,-28.507400000000004,-121.47739999999999,-15.125,175,75
2026-05-07 18:39:56.345,3,-0.46,-1.65,0.25,-23.6874,-128.6774,-8.235,175,75
2026-05-07 18:39:56.356,3,-0.32,-1.75,0.08,-20.337400000000002,-130.1974,-2.135,175,75
2026-05-07 18:39:56.368,3,-0.13,-1.57,-0.23,9.292599999999997,-105.13739999999999,-3.7849999999999993,175,75
2026-05-07 18:39:56.386,3,0.01,-1.43,-0.33,36.492599999999996,-85.19739999999999,3.835000000000001,175,75
2026-05-07 18:39:56.386,3,-0.11,-1.34,-0.5,45.212599999999995,-57.63739999999999,18.595,175,75
2026-05-07 18:39:56.399,3,-0.68,-1.14,-0.69,61.182599999999994,13.822600000000001,30.425,175,75
2026-05-07 18:39:56.415,3,-1.17,-0.92,-0.57,103.1326,98.27260000000001,45.235,175,75
2026-05-07 18:39:56.428,3,-1.38,-0.98,-0.23,154.7826,170.5926,65.11500000000001,175,75
2026-05-07 18:39:56.453,3,-1.08,-1.28,1.06,197.4626,142.54260000000002,77.065,175,75
2026-05-07 18:39:56.462,3,-0.95,-1.06,1.09,173.5026,86.6326,89.625,175,75
2026-05-07 18:39:56.477,3,-0.99,-0.79,1.05,149.0526,32.0526,106.825,175,75
2026-05-07 18:39:56.493,3,-1.05,-0.51,1.15,136.61260000000001,-7.337399999999999,114.815,175,75
2026-05-07 18:39:56.504,3,-0.79,-0.68,1.11,126.2426,-65.7474,115.425,175,75
2026-05-07 18:39:56.504,3,-0.83,-0.97,0.69,86.67259999999999,-136.0574,105.905,175,75
2026-05-07 18:39:56.516,3,-0.97,-0.98,0.13,59.84259999999999,-141.8474,89.50500000000001,175,75
2026-05-07 18:39:56.526,3,-0.96,-0.83,-0.3,47.7726,-112.81739999999999,59.815,175,75
2026-05-07 18:39:56.540,3,-0.84,-0.58,-0.35,42.2826,-63.367399999999996,38.224999999999994,175,75
2026-05-07 18:39:56.568,3,-0.65,-0.35,-0.04,1.4325999999999972,-41.5374,11.275000000000002,175,75
2026-05-07 18:39:56.568,3,-0.61,-0.25,0.06,-18.267400000000002,-44.4674,-10.305,175,75
2026-05-07 18:39:56.579,3,-0.57,-0.07,0.13,-39.427400000000006,-38.797399999999996,-23.605,175,75
2026-05-07 18:39:56.593,3,-0.59,-0.01,0.15,-58.3274,-34.9574,-32.935,175,75
2026-05-07 18:39:56.605,3,-0.63,-0.01,0.14,-82.2274,-35.7474,-51.285,175,75
2026-05-07 18:39:56.627,3,-0.71,-0.14,-0.07,-130.88739999999999,-2.9474,-83.96499999999999,175,75
2026-05-07 18:39:56.638,3,-0.77,-0.24,-0.14,-150.3974,25.962600000000002,-95.065,175,75
2026-05-07 18:39:56.652,3,-0.84,-0.34,-0.13,-164.23739999999998,95.1626,-116.10499999999999,175,75
2026-05-07 18:39:56.674,3,-0.91,-0.47,0.02,-166.2574,146.8126,-121.895,175,75
2026-05-07 18:39:56.685,3,-0.95,-0.65,0.21,-160.51739999999998,163.2126,-135.305,175,75
2026-05-07 18:39:56.696,3,-0.91,-0.8,0.46,-153.8174,179.0026,-141.16500000000002,175,75
2026-05-07 18:39:56.696,3,-0.94,-0.99,0.79,-152.2874,169.8026,-134.635,175,75
2026-05-07 18:39:56.707,3,-0.87,-1.31,0.96,-152.4674,109.49260000000001,-141.655,175,75
2026-05-07 18:39:56.718,3,-0.92,-1.31,1.14,-148.9374,59.6126,-144.155,175,75
2026-05-07 18:39:56.735,3,-4.61,0.23,1.94,-113.9974,168.39260000000002,-41.595,175,75
2026-05-07 18:39:56.745,3,-2.68,-0.27,3.45,83.62259999999999,406.69259999999997,66.33500000000001,175,75
2026-05-07 18:39:56.771,3,3.33,-2.69,1.4,-135.7674,-564.5874,-74.575,175,75
2026-05-07 18:39:56.780,3,-2.81,0.4,-1.02,-305.2174,-586.5374,128.77499999999998,175,75
2026-05-07 18:39:56.808,3,1.07,-0.96,-0.95,181.3726,25.5926,-7.875,175,75
2026-05-07 18:39:56.817,3,-1.56,-1.47,0.24,123.38259999999998,99.1926,74.50500000000001,175,75
2026-05-07 18:39:56.843,3,-0.79,-1.9,1.16,75.03259999999999,143.9426,-13.235,175,75
2026-05-07 18:39:56.844,3,-0.76,-2.13,1.42,58.3826,131.7526,13.775000000000002,175,75
2026-05-07 18:39:56.856,3,-0.94,-2.06,1.81,52.28259999999999,39.0726,22.615,175,75
2026-05-07 18:39:56.868,3,-1.21,-1.54,1.35,-21.2574,-75.44739999999999,-19.215,175,75
2026-05-07 18:39:56.881,3,-0.74,-0.97,0.5,-29.177400000000002,-104.4074,4.695,175,75
2026-05-07 18:39:56.892,3,-1.03,-1.38,0.17,-0.5774000000000008,-88.3674,31.035,175,75
2026-05-07 18:39:56.903,3,-1.03,-1.77,0.29,6.2425999999999995,-38.9174,15.425,175,75
2026-05-07 18:39:56.924,3,-0.73,-2.04,0.63,9.542599999999997,-40.1374,0.3049999999999997,175,75
2026-05-07 18:39:56.934,3,-0.57,-2.13,0.77,6.982599999999998,-64.8974,10.665,175,75
2026-05-07 18:39:56.956,3,-0.32,-1.9,0.39,-1.987400000000001,-123.06739999999999,12.195,175,75
2026-05-07 18:39:56.956,3,-0.17,-1.89,0.12,4.292599999999997,-131.29739999999998,29.385,175,75
2026-05-07 18:39:56.978,3,-0.05,-2.02,-0.06,12.102599999999999,-136.1174,39.754999999999995,175,75
2026-05-07 18:39:56.993,3,0.09,-1.71,-0.2,40.3926,-133.0674,35.605000000000004,175,75
2026-05-07 18:39:57.006,3,-0.05,-1.48,-0.27,47.40259999999999,-128.6774,41.885000000000005,175,75
2026-05-07 18:39:57.031,3,-0.93,-0.83,-0.37,96.37259999999999,17.9726,61.515,175,75
2026-05-07 18:39:57.043,3,-1.12,-0.89,-0.12,141.5526,82.9126,87.435,175,75
2026-05-07 18:39:57.059,3,-0.96,-1.36,0.49,188.8726,70.3526,110.295,175,75
2026-05-07 18:39:57.071,3,-0.84,-1.39,0.44,182.89260000000002,34.8626,122.19500000000001,175,75
2026-05-07 18:39:57.098,3,-0.93,-1.41,-0.05,148.07260000000002,0.4126000000000012,112.125,175,75
2026-05-07 18:39:57.110,3,-1.11,-1.26,-0.2,131.4326,11.322600000000001,106.095,175,75
2026-05-07 18:39:57.110,3,-1.16,-1.2,-0.1,127.9526,37.482600000000005,90.72500000000001,175,75
2026-05-07 18:39:57.123,3,-1.28,-1.17,0.19,134.29260000000002,59.8026,80.845,175,75
2026-05-07 18:39:57.145,3,-1.05,-1.41,0.38,106.67259999999999,11.752600000000001,51.095,175,75
2026-05-07 18:39:57.156,3,-1.11,-1.31,0.1,47.28259999999999,-36.3574,13.655000000000001,175,75
2026-05-07 18:39:57.167,3,-1.0,-1.08,-0.18,11.732599999999998,-37.3374,-11.594999999999999,175,75
2026-05-07 18:39:57.167,3,-0.91,-0.78,-0.26,-6.617400000000002,-19.9574,-29.765,175,75
2026-05-07 18:39:57.191,3,-0.84,-0.56,-0.06,-34.0574,-8.1874,-54.705,175,75
2026-05-07 18:39:57.197,3,-0.9,-0.61,0.01,-59.84740000000001,7.3626000000000005,-69.635,175,75
2026-05-07 18:39:57.212,3,-0.82,-0.64,0.17,-82.34740000000001,7.1126000000000005,-103.60499999999999,175,75
2026-05-07 18:39:57.224,3,-0.75,-0.69,0.33,-98.1474,-5.2574000000000005,-128.29500000000002,175,75
2026-05-07 18:39:57.248,3,-0.63,-0.71,0.45,-166.1274,8.5226,-184.455,175,75
2026-05-07 18:39:57.258,3,-0.63,-0.75,0.4,-190.2174,9.982600000000001,-202.19500000000002,175,75
2026-05-07 18:39:57.269,3,-0.69,-0.84,0.32,-212.1674,26.4426,-220.985,175,75
2026-05-07 18:39:57.278,3,-0.79,-0.91,0.29,-226.6174,53.272600000000004,-237.07500000000002,175,75
2026-05-07 18:39:57.299,3,-0.84,-1.01,0.26,-242.3474,77.7926,-247.32500000000002,175,75
2026-05-07 18:39:57.299,3,-0.91,-1.08,0.28,-250.45739999999998,102.7226,-258.115,175,75
2026-05-07 18:39:57.310,3,-1.05,-1.17,0.32,-245.51739999999998,150.4726,-260.855,175,75
2026-05-07 18:39:57.323,3,-1.21,-1.25,0.34,-235.2774,215.1626,-253.965,175,75
2026-05-07 18:39:57.334,3,-1.43,-1.32,0.55,-205.9474,282.3626,-252.07500000000002,175,75
2026-05-07 18:39:57.356,3,-1.57,-1.37,0.75,-169.60739999999998,328.0926,-253.965,175,75
2026-05-07 18:39:57.356,3,-1.63,-1.39,0.97,-131.0674,373.52259999999995,-246.655,175,75
2026-05-07 18:39:57.366,3,-1.68,-1.46,1.22,-88.93740000000001,390.83259999999996,-235.065,175,75
2026-05-07 18:39:57.377,3,-1.91,-1.52,1.5,-30.0974,378.39259999999996,-226.775,175,75
2026-05-07 18:39:57.396,3,-2.5,-0.17,1.91,62.102599999999995,415.4126,-195.675,175,75
2026-05-07 18:39:57.413,3,-2.12,0.4,2.09,111.5526,309.07259999999997,-164.095,175,75
2026-05-07 18:39:57.425,3,-2.54,1.15,2.25,156.8526,347.6626,-62.504999999999995,175,75
2026-05-07 18:39:57.438,3,-2.31,1.06,2.59,237.1626,377.3026,26.035,175,75
2026-05-07 18:39:57.454,3,-0.73,-1.33,0.25,115.2726,-83.4274,77.985,175,75
2026-05-07 18:39:57.470,3,-2.37,-1.07,-1.41,-32.897400000000005,-43.367399999999996,139.445,175,75
2026-05-07 18:39:57.481,3,-2.76,-0.21,-0.94,94.0526,170.7126,167.255,175,75
2026-05-07 18:39:57.503,3,-1.42,-1.71,0.91,126.12259999999999,86.8126,124.50500000000001,175,75
2026-05-07 18:39:57.515,3,-0.24,-1.7,1.39,77.40259999999999,42.7226,105.11500000000001,175,75
2026-05-07 18:39:57.525,3,-0.4,-1.61,1.32,56.73259999999999,-22.577399999999997,77.675,175,75
2026-05-07 18:39:57.537,3,-0.76,-1.46,0.75,46.98259999999999,-32.0274,77.19500000000001,175,75
2026-05-07 18:39:57.549,3,-1.42,-1.41,0.43,55.212599999999995,-24.287399999999998,74.205,175,75
2026-05-07 18:39:57.561,3,-1.53,-1.52,0.22,52.2226,23.8826,56.095,175,75
2026-05-07 18:39:57.573,3,-1.21,-1.5,0.51,48.742599999999996,61.5026,35.425,175,75
2026-05-07 18:39:57.602,3,-1.12,-1.54,1.5,-13.387400000000001,54.6126,-9.094999999999999,175,75
2026-05-07 18:39:57.614,3,-1.05,-1.5,1.42,-59.23740000000001,-4.7074,-31.405,175,75
2026-05-07 18:39:57.654,3,-0.82,-1.82,0.48,-107.65740000000001,-8.677399999999999,-67.875,175,75
2026-05-07 18:39:57.666,3,-0.52,-2.04,0.38,-124.23740000000001,8.8826,-76.285,175,75
2026-05-07 18:39:57.666,3,-0.24,-2.28,0.25,-140.6474,16.5026,-84.63499999999999,175,75
2026-05-07 18:39:57.680,3,-0.04,-2.27,0.08,-151.8674,19.7426,-95.065,175,75
2026-05-07 18:39:57.695,3,-0.02,-1.85,-0.09,-158.9374,14.1326,-96.835,175,75
2026-05-07 18:39:57.705,3,-0.11,-1.33,-0.1,-162.04739999999998,11.572600000000001,-90.24499999999999,175,75
2026-05-07 18:39:57.715,3,-0.54,-0.65,0.16,-138.5674,-0.13739999999999952,-78.41499999999999,175,75
2026-05-07 18:39:57.726,3,-1.29,-0.2,0.84,-73.2674,48.1526,-32.445,175,75
2026-05-07 18:39:57.742,3,-1.16,-0.48,1.39,-14.057400000000001,107.48259999999999,5.295000000000002,175,75
2026-05-07 18:39:57.759,3,-0.68,-0.46,0.88,3.6225999999999985,3.582600000000001,-52.745000000000005,175,75
2026-05-07 18:39:57.770,3,-0.56,0.04,0.29,30.512599999999996,49.0026,-24.095,175,75
2026-05-07 18:39:57.777,3,-0.73,0.09,0.43,106.1826,134.6826,36.035,175,75
2026-05-07 18:39:57.792,3,-0.56,-0.63,0.86,139.8426,76.8726,54.14500000000001,175,75
2026-05-07 18:39:57.806,3,-0.73,-0.59,0.65,108.56259999999999,23.8826,37.55500000000001,175,75
2026-05-07 18:39:57.815,3,-0.49,-0.47,0.38,91.37259999999999,5.712600000000001,32.985,175,75
2026-05-07 18:39:57.819,3,-0.28,-0.42,0.21,71.31259999999999,-21.1774,35.364999999999995,175,75
2026-05-07 18:39:57.847,3,-0.17,-0.44,-0.3,38.742599999999996,-68.79740000000001,12.434999999999999,175,75
2026-05-07 18:39:57.859,3,-0.21,-0.33,-0.49,34.1726,-33.7374,4.015000000000001,175,75
2026-05-07 18:39:57.874,3,-0.27,-0.31,-0.53,34.7226,-1.5373999999999999,-13.905,175,75
2026-05-07 18:39:57.888,3,-0.32,-0.18,-0.54,31.8526,33.5226,-24.095,175,75
2026-05-07 18:39:57.898,3,-0.18,-0.19,-0.54,22.1026,38.092600000000004,-56.224999999999994,175,75
2026-05-07 18:39:57.920,3,-1.61,0.46,1.29,164.7226,354.9826,-52.685,175,75
2026-05-07 18:39:57.932,3,-6.98,2.43,5.11,414.4226,901.7526,102.375,175,75
2026-05-07 18:39:57.942,3,2.38,-2.1,4.1,474.0526,58.5826,20.545,175,75
2026-05-07 18:39:57.958,3,0.47,-3.88,0.85,-188.9374,-565.3174,61.33500000000001,175,75
2026-05-07 18:39:57.972,3,-4.48,-0.17,-0.65,-263.5674,298.58259999999996,213.715,175,75
2026-05-07 18:39:57.999,3,-2.16,-2.19,-1.52,89.23259999999999,-74.16739999999999,55.36500000000001,175,75
2026-05-07 18:39:57.999,3,-0.61,-2.14,-0.19,52.65259999999999,122.11260000000001,111.58500000000001,175,75
2026-05-07 18:39:58.012,3,0.41,-3.15,0.34,87.28259999999999,44.4926,87.25500000000001,175,75
2026-05-07 18:39:58.034,3,-0.54,-2.88,1.78,128.7426,130.5926,42.315,175,75
2026-05-07 18:39:58.054,3,-0.56,-1.48,0.94,18.322599999999998,-76.23740000000001,77.795,175,75
2026-05-07 18:39:58.075,3,-1.33,-1.18,0.09,75.70259999999999,76.7526,48.105000000000004,175,75
2026-05-07 18:39:58.103,3,-0.86,-0.74,1.55,52.2226,98.8226,46.515,175,75
2026-05-07 18:39:58.111,3,-0.99,-0.56,1.76,5.762599999999999,31.3226,27.435,175,75
2026-05-07 18:39:58.116,3,-1.04,-0.2,1.39,-48.6274,-53.187400000000004,13.775000000000002,175,75
2026-05-07 18:39:58.133,3,-1.06,-0.2,0.54,-62.34740000000001,-103.6174,34.935,175,75
2026-05-07 18:39:58.144,3,-1.38,-0.57,0.28,-52.407399999999996,-63.307399999999994,40.425,175,75
2026-05-07 18:39:58.156,3,-1.1,-1.01,0.54,-42.3474,-21.5974,12.375,175,75
2026-05-07 18:39:58.176,3,-0.98,-1.13,0.72,-44.7274,-27.8874,-1.1050000000000004,175,75
2026-05-07 18:39:58.189,3,-1.09,-1.24,0.76,-45.397400000000005,-28.007399999999997,-19.025,175,75
2026-05-07 18:39:58.197,3,-1.09,-1.35,0.69,-49.9674,-38.9174,-27.685,175,75
2026-05-07 18:39:58.213,3,-1.2,-1.34,0.57,-51.067400000000006,-34.8374,-35.675,175,75
2026-05-07 18:39:58.224,3,-1.09,-1.27,0.61,-45.5174,-23.617399999999996,-50.495000000000005,175,75
2026-05-07 18:39:58.259,3,-1.0,-1.06,0.84,-70.6474,-16.4774,-67.135,175,75
2026-05-07 18:39:58.259,3,-0.99,-1.18,0.8,-85.51740000000001,-22.517400000000002,-69.515,175,75
2026-05-07 18:39:58.271,3,-0.97,-1.37,0.71,-102.34740000000001,-36.9074,-68.785,175,75
2026-05-07 18:39:58.295,3,-0.81,-1.6,0.65,-115.3974,-46.727399999999996,-62.504999999999995,175,75
2026-05-07 18:39:58.295,3,-0.65,-1.81,0.61,-127.46740000000001,-61.477399999999996,-56.405,175,75
2026-05-07 18:39:58.314,3,-0.26,-2.13,0.43,-151.4974,-89.03739999999999,-58.605000000000004,175,75
2026-05-07 18:39:58.326,3,-0.09,-2.07,0.22,-167.5374,-103.4974,-67.80499999999999,175,75
2026-05-07 18:39:58.346,3,0.01,-1.84,-0.07,-178.6874,-98.73740000000001,-72.325,175,75
2026-05-07 18:39:58.346,3,-0.01,-1.64,-0.26,-175.0974,-85.07740000000001,-67.745,175,75
2026-05-07 18:39:58.359,3,-0.13,-1.32,-0.46,-168.5674,-77.2074,-81.46499999999999,175,75
2026-05-07 18:39:58.376,3,-0.68,-0.92,-0.62,-161.3174,-39.4074,-84.575,175,75
2026-05-07 18:39:58.376,3,-1.43,-0.26,-0.32,-110.3974,126.20259999999999,-61.525000000000006,175,75
2026-05-07 18:39:58.392,3,-1.68,-0.08,0.64,22.7726,212.1826,-5.305,175,75
2026-05-07 18:39:58.408,3,-1.76,-0.58,1.36,107.53259999999999,165.1626,33.834999999999994,175,75
2026-05-07 18:39:58.422,3,-1.19,-0.86,1.3,74.90259999999999,56.5726,7.004999999999999,175,75
2026-05-07 18:39:58.422,3,-0.44,-0.72,0.34,11.612599999999997,-29.407400000000003,-20.985,175,75
2026-05-07 18:39:58.445,3,-0.57,-0.49,-0.64,74.1126,106.3826,60.05500000000001,175,75
2026-05-07 18:39:58.460,3,-0.39,-0.76,-0.56,83.3826,99.0726,28.595000000000002,175,75
2026-05-07 18:39:58.477,3,-0.22,-0.59,-0.61,55.03259999999999,139.86260000000001,-11.955,175,75
2026-05-07 18:39:58.477,3,0.15,-0.43,-0.43,54.0526,166.20260000000002,-14.695,175,75
2026-05-07 18:39:58.492,3,0.13,-0.48,-0.34,38.8126,154.1326,-27.205,175,75
2026-05-07 18:39:58.504,3,-0.06,-0.43,-0.43,25.822599999999998,167.6626,-44.394999999999996,175,75
2026-05-07 18:39:58.523,3,-0.14,-0.41,-0.38,23.012599999999996,183.64260000000002,-49.515,175,75
2026-05-07 18:39:58.542,3,-0.09,-0.41,0.06,15.8826,168.76260000000002,-61.655,175,75
2026-05-07 18:39:58.554,3,-0.01,-0.4,0.19,-4.667400000000002,116.02260000000001,-71.525,175,75
2026-05-07 18:39:58.565,3,0.24,-0.47,0.18,-22.047400000000003,37.7926,-78.295,175,75
2026-05-07 18:39:58.577,3,-0.99,0.03,0.32,-22.5374,114.3126,-49.155,175,75
2026-05-07 18:39:58.588,3,-9.64,3.55,4.9,243.68260000000004,923.4626,144.99499999999998,175,75
2026-05-07 18:39:58.599,3,0.69,-0.62,5.86,513.3226,276.9926,250.665,175,75
2026-05-07 18:39:58.612,3,1.2,-3.79,4.26,226.73260000000002,-719.4074,-6.715,175,75
2026-05-07 18:39:58.634,3,-3.62,-2.18,-0.05,-338.3874,-319.7074,337.865,175,75
2026-05-07 18:39:58.635,3,-2.3,-0.03,-1.43,-215.51739999999998,-76.9674,154.625,175,75
2026-05-07 18:39:58.646,3,-1.95,-0.89,-2.11,77.7126,-450.6274,-77.565,175,75
2026-05-07 18:39:58.672,3,0.56,-1.82,-0.33,124.9626,252.7226,149.99499999999998,175,75
2026-05-07 18:39:58.696,3,-1.17,-4.25,1.61,231.3726,213.76260000000002,120.545,175,75
2026-05-07 18:39:58.709,3,-1.08,-1.81,1.98,100.03259999999999,-3.1273999999999997,-10.985,175,75
2026-05-07 18:39:58.723,3,-0.76,-0.12,0.95,61.0026,-108.79740000000001,-5.555,175,75
2026-05-07 18:39:58.736,3,-1.08,0.69,-0.03,47.28259999999999,-63.497400000000006,57.25500000000001,175,75
2026-05-07 18:39:58.752,3,-1.42,-0.6,0.74,63.01259999999999,83.1526,47.125,175,75
2026-05-07 18:39:58.762,3,-1.48,-1.02,1.27,45.45259999999999,33.092600000000004,9.934999999999999,175,75
2026-05-07 18:39:58.791,3,-1.18,-1.17,1.16,-6.987400000000001,-45.0174,-31.044999999999998,175,75
2026-05-07 18:39:58.802,3,-1.17,-1.31,0.87,-20.5774,-65.9274,-30.735,175,75
2026-05-07 18:39:58.805,3,-1.18,-1.7,0.62,-15.157400000000003,-72.0274,-37.325,175,75
2026-05-07 18:39:58.821,3,-1.17,-1.97,0.54,-8.877400000000002,-57.697399999999995,-44.515,175,75
2026-05-07 18:39:58.838,3,-0.85,-2.04,0.62,0.33259999999999934,-38.5574,-54.515,175,75
2026-05-07 18:39:58.858,3,-0.5,-1.64,0.58,-3.8774000000000015,-33.4274,-46.405,175,75
2026-05-07 18:39:58.873,3,-0.47,-1.81,0.6,-4.967400000000001,-36.0574,-28.605,175,75
2026-05-07 18:39:58.886,3,-0.47,-1.98,0.56,-9.607400000000002,-59.227399999999996,-29.945,175,75
2026-05-07 18:39:58.886,3,-0.42,-2.01,0.39,-13.937400000000002,-80.7474,-34.825,175,75
2026-05-07 18:39:58.899,3,-0.23,-1.99,0.09,-22.5974,-107.1474,-35.795,175,75
2026-05-07 18:39:58.912,3,-0.2,-1.73,-0.31,-21.0074,-116.1774,-33.415,175,75
2026-05-07 18:39:58.922,3,-0.38,-1.33,-0.67,11.2426,-95.31739999999999,-25.305,175,75
2026-05-07 18:39:58.932,3,-0.59,-1.09,-0.78,35.3326,-45.3174,-23.545,175,75
2026-05-07 18:39:58.942,3,-0.8,-0.84,-0.76,66.67259999999999,13.092600000000001,-14.695,175,75
2026-05-07 18:39:58.953,3,-1.24,-0.59,-0.48,121.5526,124.2526,6.824999999999999,175,75
2026-05-07 18:39:58.974,3,-1.17,-1.11,0.5,214.29260000000002,242.9726,56.155,175,75
2026-05-07 18:39:59.012,3,-0.55,-1.13,0.62,223.01260000000002,149.3126,67.925,175,75
2026-05-07 18:39:59.024,3,-0.49,-1.11,0.7,205.9426,95.2226,81.03500000000001,175,75
2026-05-07 18:39:59.068,3,-0.48,-1.16,1.04,157.95260000000002,-88.1874,81.765,175,75
2026-05-07 18:39:59.079,3,-0.81,-1.13,0.28,93.3826,-134.70739999999998,75.235,175,75
2026-05-07 18:39:59.092,3,-0.94,-0.99,-0.27,79.1126,-108.79740000000001,47.125,175,75
2026-05-07 18:39:59.105,3,-0.88,-0.79,-0.38,66.2426,-49.227399999999996,23.535,175,75
2026-05-07 18:39:59.105,3,-0.73,-0.66,-0.21,39.602599999999995,-28.1274,10.545000000000002,175,75
2026-05-07 18:39:59.127,3,-0.71,-0.37,0.06,-25.5774,-8.307399999999998,-30.375,175,75
2026-05-07 18:39:59.140,3,-0.68,-0.28,0.22,-51.257400000000004,-9.037399999999998,-38.845,175,75
2026-05-07 18:39:59.165,3,-0.81,-0.36,0.16,-116.37740000000001,-41.5374,-70.185,175,75
2026-05-07 18:39:59.182,3,-0.77,-0.26,-0.03,-177.8974,-29.037399999999998,-99.825,175,75
2026-05-07 18:39:59.193,3,-0.76,-0.27,0.06,-196.5574,-8.677399999999999,-108.545,175,75
2026-05-07 18:39:59.218,3,-0.75,-0.45,0.32,-239.7874,2.9726,-134.095,175,75
2026-05-07 18:39:59.234,3,-0.72,-0.5,0.28,-252.8974,17.852600000000002,-139.57500000000002,175,75
2026-05-07 18:39:59.234,3,-0.8,-0.59,0.16,-262.9574,54.4926,-143.29500000000002,175,75
2026-05-07 18:39:59.254,3,-0.88,-0.74,0.09,-264.9674,103.4026,-146.345,175,75
2026-05-07 18:39:59.254,3,-0.86,-0.92,0.16,-263.8174,142.3026,-152.19500000000002,175,75
2026-05-07 18:39:59.264,3,-0.81,-1.18,0.36,-252.1674,174.3726,-168.72500000000002,175,75
2026-05-07 18:39:59.275,3,-0.81,-1.34,0.51,-236.4374,212.36260000000001,-171.895,175,75
2026-05-07 18:39:59.287,3,-0.76,-1.46,0.72,-214.0574,223.9426,-175.065,175,75
2026-05-07 18:39:59.303,3,-0.76,-1.57,0.96,-194.7274,182.11260000000001,-176.22500000000002,175,75
2026-05-07 18:39:59.310,3,-2.43,-0.86,1.42,-168.8774,214.0726,-147.50500000000002,175,75
2026-05-07 18:39:59.321,3,-4.54,0.03,2.33,-85.7074,371.8126,34.44500000000001,175,75
2026-05-07 18:39:59.330,3,-1.91,-1.84,3.34,89.3526,185.1026,-119.21499999999999,175,75
2026-05-07 18:39:59.344,3,-5.66,0.42,5.36,269.0526,374.8026,47.795,175,75
2026-05-07 18:39:59.361,3,-0.29,-1.73,5.0,276.6126,-77.81739999999999,4.505000000000001,175,75
2026-05-07 18:39:59.374,3,1.39,-2.29,0.91,-170.51739999999998,-647.2074,31.825,175,75
2026-05-07 18:39:59.380,3,-5.55,1.78,-0.73,-267.5974,-57.2074,198.89499999999998,175,75
2026-05-07 18:39:59.392,3,1.73,-0.19,-1.68,21.432599999999997,60.4126,-54.394999999999996,175,75
2026-05-07 18:39:59.414,3,-0.71,-1.81,0.41,76.12259999999999,141.8126,67.86500000000001,175,75
2026-05-07 18:39:59.424,3,-1.01,-1.84,1.31,83.7426,115.71260000000001,47.735,175,75
2026-05-07 18:39:59.435,3,-0.95,-2.03,1.41,51.31259999999999,46.5026,31.584999999999997,175,75
2026-05-07 18:39:59.445,3,-1.17,-1.65,1.06,11.612599999999997,-24.227399999999996,28.955000000000002,175,75
2026-05-07 18:39:59.466,3,-1.06,-1.24,0.27,4.482599999999998,-65.8074,17.925,175,75
2026-05-07 18:39:59.479,3,-0.96,-1.33,0.15,32.8326,-55.6274,15.055,175,75
2026-05-07 18:39:59.485,3,-0.87,-1.6,0.24,38.62259999999999,-29.3474,17.125,175,75
2026-05-07 18:39:59.501,3,-0.72,-1.87,0.41,37.1626,-17.4574,18.345,175,75
2026-05-07 18:39:59.519,3,-0.64,-2.18,0.24,32.40259999999999,-36.727399999999996,9.695,175,75
2026-05-07 18:39:59.544,3,-0.48,-1.94,-0.18,50.03259999999999,-57.697399999999995,34.935,175,75
2026-05-07 18:39:59.556,3,-0.39,-1.95,-0.32,60.2726,-64.8974,50.724999999999994,175,75
2026-05-07 18:39:59.567,3,-0.34,-1.97,-0.44,55.76259999999999,-68.3074,64.205,175,75
2026-05-07 18:39:59.588,3,-0.31,-1.78,-0.45,64.2926,-41.8474,77.925,175,75
2026-05-07 18:39:59.588,3,-0.45,-1.45,-0.17,83.3226,-1.4773999999999994,84.50500000000001,175,75
2026-05-07 18:39:59.599,3,-0.34,-1.1,0.36,111.06259999999999,17.3026,83.405,175,75
2026-05-07 18:39:59.611,3,-0.39,-0.81,0.76,136.0026,-12.8874,102.86500000000001,175,75
2026-05-07 18:39:59.643,3,-0.67,-1.14,0.58,115.3926,-25.867399999999996,132.125,175,75
2026-05-07 18:39:59.654,3,-0.53,-1.23,0.54,114.72259999999999,-17.8174,125.545,175,75
2026-05-07 18:39:59.665,3,-0.42,-1.2,0.62,117.7126,-18.4974,114.325,175,75
2026-05-07 18:39:59.716,3,-0.74,-0.96,-0.62,-18.267400000000002,-66.5974,81.64500000000001,175,75
2026-05-07 18:39:59.717,3,-0.87,-1.1,-0.78,-58.817400000000006,-41.9074,41.515,175,75
2026-05-07 18:39:59.727,3,-0.76,-0.86,-0.69,-88.26740000000001,-13.0074,9.995000000000001,175,75
2026-05-07 18:39:59.738,3,-0.61,-0.7,-0.46,-106.73740000000001,1.502600000000001,-4.395,175,75
2026-05-07 18:39:59.738,3,-0.57,-0.51,-0.17,-135.88739999999999,18.212600000000002,3.955,175,75
2026-05-07 18:39:59.759,3,-0.64,-0.51,0.17,-171.0674,2.3026,-2.5649999999999995,175,75
2026-05-07 18:39:59.796,3,-0.73,-0.59,0.23,-287.7774,-90.9274,-9.455,175,75
2026-05-07 18:39:59.809,3,-0.81,-0.67,0.19,-316.37739999999997,-113.73740000000001,-11.165,175,75
2026-05-07 18:39:59.809,3,-0.87,-0.7,0.1,-345.0374,-130.2574,-15.004999999999999,175,75
2026-05-07 18:39:59.836,3,-0.9,-0.76,-0.02,-383.3874,-116.53739999999999,6.275000000000002,175,75
2026-05-07 18:39:59.847,3,-1.02,-0.9,-0.11,-395.8874,-103.73740000000001,9.995000000000001,175,75
2026-05-07 18:39:59.847,3,-1.03,-1.08,-0.13,-401.6174,-94.03739999999999,1.3350000000000009,175,75
2026-05-07 18:39:59.857,3,-1.02,-1.24,-0.08,-401.31739999999996,-80.13739999999999,-4.215,175,75
2026-05-07 18:39:59.868,3,-1.04,-1.42,0.02,-403.7574,-70.38739999999999,-0.375,175,75
2026-05-07 18:39:59.880,3,-1.02,-1.7,0.41,-393.4474,-102.0874,-1.8949999999999996,175,75
2026-05-07 18:39:59.891,3,-1.01,-1.81,0.92,-372.2274,-140.7474,2.0650000000000013,175,75
2026-05-07 18:39:59.915,3,-0.88,-1.9,1.7,-354.1174,-257.6374,36.584999999999994,175,75
2026-05-07 18:39:59.921,3,-0.69,-1.64,2.12,-359.9674,-337.7574,29.565,175,75
2026-05-07 18:39:59.938,3,-1.25,-0.79,2.29,-356.06739999999996,-386.11740000000003,55.605000000000004,175,75
2026-05-07 18:39:59.948,3,-3.45,0.53,2.35,-307.5974,-419.6474,190.725,175,75
2026-05-07 18:39:59.949,3,-1.11,-0.47,3.52,-97.40740000000001,-281.23740000000004,55.235,175,75
2026-05-07 18:39:59.959,3,0.06,-1.2,4.15,-22.107400000000002,-586.5974,156.155,175,75
2026-05-07 18:39:59.970,3,0.73,-2.28,1.74,-146.1274,-567.9474,151.58499999999998,175,75
2026-05-07 18:39:59.982,3,1.8,-3.17,0.06,-68.6874,-469.28740000000005,31.584999999999997,175,75
2026-05-07 18:40:00.015,3,0.3,-2.54,-2.45,161.4926,127.8526,11.585,175,75
2026-05-07 18:40:00.026,3,-1.28,-2.23,-1.75,236.0626,296.38259999999997,43.955,175,75
2026-05-07 18:40:00.036,3,-3.37,-1.87,-0.74,181.4926,344.0026,79.565,175,75
2026-05-07 18:40:00.051,3,-0.51,-2.11,2.27,301.31260000000003,280.6526,-52.44499999999999,175,75
2026-05-07 18:40:00.062,3,0.01,-1.07,3.9,236.37260000000003,176.3226,19.015,175,75
2026-05-07 18:40:00.072,3,0.21,-0.45,3.73,6.432599999999997,-114.3474,66.03500000000001,175,75
2026-05-07 18:40:00.111,3,-1.91,-0.9,-0.93,-7.777400000000002,-94.4074,62.00500000000001,175,75
2026-05-07 18:40:00.122,3,-1.56,-1.03,-0.25,27.7126,-15.3174,17.495,175,75
2026-05-07 18:40:00.122,3,-1.31,-0.89,0.38,8.442599999999999,21.0226,-2.014999999999999,175,75
2026-05-07 18:40:00.136,3,-1.22,-0.62,1.01,-23.817400000000003,32.242599999999996,5.055,175,75
2026-05-07 18:40:00.147,3,-1.28,-0.82,1.17,-49.9074,-28.3074,0.8450000000000006,175,75
2026-05-07 18:40:00.162,3,-1.62,-1.05,0.85,-90.09740000000001,-69.9574,-6.465,175,75
2026-05-07 18:40:00.192,3,-1.49,-1.39,0.72,-108.62740000000001,-88.85740000000001,-43.605000000000004,175,75
2026-05-07 18:40:00.202,3,-1.5,-1.36,0.62,-126.8674,-103.91739999999999,-63.845,175,75
2026-05-07 18:40:00.213,3,-1.47,-1.38,0.5,-141.5574,-115.07740000000001,-76.46499999999999,175,75
2026-05-07 18:40:00.222,3,-1.44,-1.48,0.37,-155.82739999999998,-130.3174,-82.265,175,75
2026-05-07 18:40:00.248,3,-1.3,-1.87,0.03,-185.2174,-152.51739999999998,-95.065,175,75
2026-05-07 18:40:00.264,3,-1.11,-2.02,-0.15,-193.26739999999998,-158.9174,-107.265,175,75
2026-05-07 18:40:00.275,3,-0.88,-2.04,-0.33,-196.5574,-171.6674,-111.405,175,75
2026-05-07 18:40:00.275,3,-0.83,-1.91,-0.6,-208.8174,-161.8474,-119.705,175,75
2026-05-07 18:40:00.285,3,-0.45,-1.61,-0.69,-211.5574,-91.66739999999999,-143.785,175,75
2026-05-07 18:40:00.285,3,-0.27,-1.08,-0.39,-173.8174,-54.7074,-136.835,175,75
2026-05-07 18:40:00.300,3,-1.19,-0.16,0.38,-104.6074,-33.3074,-74.025,175,75
2026-05-07 18:40:00.312,3,-2.13,0.53,1.23,-24.547400000000003,-81.53739999999999,8.715,175,75
2026-05-07 18:40:00.324,3,-1.8,-0.07,1.65,-24.6674,-250.38739999999999,63.715,175,75
2026-05-07 18:40:00.334,3,-1.58,-0.25,1.25,-83.2674,-369.4074,93.595,175,75
2026-05-07 18:40:00.342,3,-1.92,-0.05,0.6,-108.4474,-402.3374,133.165,175,75
2026-05-07 18:40:00.354,3,-1.28,-0.37,0.26,-65.9474,-424.7074,127.19500000000001,175,75
2026-05-07 18:40:00.382,3,-1.11,-0.62,-0.96,-110.51740000000001,-447.5774,131.945,175,75
2026-05-07 18:40:00.392,3,-0.81,-0.51,-1.23,-96.0074,-395.0774,104.625,175,75
2026-05-07 18:40:00.403,3,-0.42,-0.26,-1.26,-95.8874,-319.5874,86.095,175,75
2026-05-07 18:40:00.416,3,-0.19,-0.11,-1.11,-100.76740000000001,-285.5074,87.795,175,75
2026-05-07 18:40:00.429,3,-0.15,-0.08,-0.94,-116.6774,-253.4274,78.83500000000001,175,75
2026-05-07 18:40:00.440,3,-0.24,-0.11,-0.74,-106.0074,-217.0274,78.045,175,75
2026-05-07 18:40:00.440,3,-0.27,-0.19,-0.46,-108.5674,-204.8974,75.36500000000001,175,75
2026-05-07 18:40:00.453,3,-0.28,-0.21,-0.17,-106.9274,-186.6674,70.425,175,75
2026-05-07 18:40:00.476,3,-0.02,-0.36,0.38,-116.73740000000001,-244.52739999999997,58.955,175,75
2026-05-07 18:40:00.509,3,-1.25,0.3,1.05,-42.537400000000005,-121.66739999999999,97.555,175,75
2026-05-07 18:40:00.509,3,-4.48,1.59,2.36,6.1225999999999985,54.8626,155.05499999999998,175,75
2026-05-07 18:40:00.536,3,4.08,-4.71,4.08,33.5626,-877.0274000000001,3.3450000000000006,175,75
2026-05-07 18:40:00.546,3,-3.19,-1.4,-0.68,-322.3474,-337.5174,312.125,175,75
2026-05-07 18:40:00.574,3,-1.57,-1.24,-1.94,147.95260000000002,-15.447399999999998,104.205,175,75
2026-05-07 18:40:00.585,3,-2.89,-1.44,-1.52,74.0526,286.14259999999996,138.95499999999998,175,75
2026-05-07 18:40:00.599,3,-2.03,-2.24,-0.26,96.7926,283.52259999999995,91.095,175,75
2026-05-07 18:40:00.612,3,-1.51,-2.87,0.82,154.9026,233.39260000000002,77.61500000000001,175,75
2026-05-07 18:40:00.612,3,-1.17,-3.41,1.67,165.3326,154.4926,45.724999999999994,175,75
2026-05-07 18:40:00.634,3,-1.04,-2.04,2.68,98.20259999999999,124.0026,11.585,175,75
2026-05-07 18:40:00.645,3,0.21,-1.17,2.52,-20.8274,-120.6874,35.845,175,75
2026-05-07 18:40:00.656,3,-1.09,-1.02,1.14,-55.8274,-217.3374,137.005,175,75
2026-05-07 18:40:00.669,3,-2.04,-1.17,0.07,-60.2174,-130.6874,91.095,175,75
2026-05-07 18:40:00.680,3,-1.61,-0.82,0.03,-13.5074,-39.0974,11.705000000000002,175,75
2026-05-07 18:40:00.691,3,-1.22,-0.33,0.62,-3.8774000000000015,17.9726,-0.3049999999999997,175,75
2026-05-07 18:40:00.711,3,-1.14,-0.2,1.08,-12.957400000000002,28.2726,9.815000000000001,175,75
2026-05-07 18:40:00.711,3,-1.17,-0.39,1.3,-38.20740000000001,-3.247399999999999,5.975000000000001,175,75
2026-05-07 18:40:00.747,3,-1.71,-1.05,0.45,-89.48740000000001,-84.16739999999999,-41.525,175,75
2026-05-07 18:40:00.747,3,-1.6,-1.23,0.41,-89.4274,-87.81739999999999,-47.745000000000005,175,75
2026-05-07 18:40:00.765,3,-1.51,-1.39,0.53,-84.7874,-84.7074,-50.55499999999999,175,75
2026-05-07 18:40:00.776,3,-1.18,-1.76,0.85,-98.68740000000001,-123.06739999999999,-64.025,175,75
2026-05-07 18:40:00.822,3,-0.46,-1.94,0.17,-134.4274,-171.60739999999998,-54.334999999999994,175,75
2026-05-07 18:40:00.837,3,-0.35,-2.19,-0.1,-147.6574,-178.9174,-52.745000000000005,175,75
2026-05-07 18:40:00.872,3,-1.17,-0.21,-0.89,-131.7974,-61.2374,-74.395,175,75
2026-05-07 18:40:00.892,3,-1.56,0.34,-0.14,13.072599999999998,108.70259999999999,26.645,175,75
2026-05-07 18:40:00.905,3,-1.24,-0.33,1.17,115.63259999999998,60.5326,81.515,175,75
2026-05-07 18:40:00.905,3,-1.45,-0.79,1.5,90.9426,-33.9174,68.89500000000001,175,75
2026-05-07 18:40:00.915,3,-0.92,-0.82,0.84,18.5626,-120.01739999999998,55.545,175,75
2026-05-07 18:40:00.925,3,-0.38,-0.89,0.01,-22.4674,-187.57739999999998,46.035,175,75
2026-05-07 18:40:00.942,3,-0.09,-0.85,-0.92,-50.2774,-164.8974,49.625,175,75
2026-05-07 18:40:00.956,3,-0.39,-0.38,-1.16,-38.8774,-73.6174,29.145,175,75
2026-05-07 18:40:00.956,3,-0.23,-0.19,-0.79,-28.997400000000003,-23.0674,18.285,175,75
2026-05-07 18:40:00.968,3,0.06,-0.26,-0.48,-62.897400000000005,-17.0274,12.495000000000001,175,75
2026-05-07 18:40:00.982,3,0.09,-0.36,-0.47,-107.59740000000001,-21.787399999999998,5.055,175,75
2026-05-07 18:40:00.993,3,0.03,-0.42,-0.71,-118.93740000000001,4.7426,-0.6749999999999989,175,75
2026-05-07 18:40:01.004,3,-0.07,-0.46,-0.73,-112.5374,52.1126,-8.235,175,75
2026-05-07 18:40:01.017,3,-0.09,-0.46,-0.53,-103.5674,79.0726,-10.004999999999999,175,75
2026-05-07 18:40:01.034,3,-0.19,-0.48,-0.26,-92.8974,71.7526,-8.485,175,75
2026-05-07 18:40:01.034,3,-0.09,-0.58,-0.36,-103.26740000000001,40.2226,-15.915,175,75
2026-05-07 18:40:01.073,3,-14.09,3.8,5.29,140.51260000000002,884.3726,274.995,175,75
2026-05-07 18:40:01.090,3,4.29,-0.4,7.62,675.3326,437.0526,96.03500000000001,175,75
2026-05-07 18:40:01.090,3,3.13,-6.39,4.16,230.2126,-350.2574,184.385,175,75
2026-05-07 18:40:01.100,3,-4.76,0.97,2.88,-321.43739999999997,-390.4474,466.885,175,75
2026-05-07 18:40:01.134,3,-1.08,-0.49,-2.08,-175.0374,-573.9174,-157.745,175,75
2026-05-07 18:40:01.145,3,-1.19,-0.41,-2.79,123.9926,243.8826,125.665,175,75
2026-05-07 18:40:01.179,3,-2.02,-3.48,2.47,103.01259999999999,116.20259999999999,7.984999999999999,175,75
2026-05-07 18:40:01.186,3,-0.71,-2.09,2.29,13.2026,-83.1874,-87.74499999999999,175,75
2026-05-07 18:40:01.209,3,-1.16,-1.98,0.16,-13.147400000000001,-245.9974,158.045,175,75
2026-05-07 18:40:01.225,3,-1.53,-2.46,-0.44,3.202599999999997,-168.3074,119.69500000000001,175,75
2026-05-07 18:40:01.238,3,-1.31,-2.53,-0.46,85.8226,-161.6674,36.334999999999994,175,75
2026-05-07 18:40:01.249,3,-0.44,-2.19,-0.03,90.2126,-162.20739999999998,37.004999999999995,175,75
2026-05-07 18:40:01.267,3,0.0,-1.86,0.22,69.1126,-217.2774,88.595,175,75
2026-05-07 18:40:01.267,3,-0.04,-1.9,0.1,59.17259999999999,-300.0174,117.25500000000001,175,75
2026-05-07 18:40:01.325,3,-1.29,-1.61,0.03,204.9626,45.2926,163.655,175,75
2026-05-07 18:40:01.341,3,-1.38,-2.08,0.47,238.32260000000002,71.6926,187.80499999999998,175,75
2026-05-07 18:40:01.361,3,-1.5,-2.39,0.66,233.9326,45.1626,181.39499999999998,175,75
2026-05-07 18:40:01.411,3,-1.29,-2.11,0.2,190.2726,17.2426,42.925,175,75
2026-05-07 18:40:01.411,3,-0.68,-1.57,0.05,190.82260000000002,20.8326,7.795000000000002,175,75
2026-05-07 18:40:01.422,3,-0.95,-0.75,0.49,222.1626,122.18260000000001,38.045,175,75
2026-05-07 18:40:01.435,3,-0.84,-0.86,1.12,228.5026,111.6326,121.94500000000001,175,75
2026-05-07 18:40:01.451,3,-1.03,-1.77,1.22,161.79260000000002,-40.7474,63.105000000000004,175,75
2026-05-07 18:40:01.469,3,-0.84,-1.49,0.24,44.6626,-63.857400000000005,-13.785,175,75
2026-05-07 18:40:01.480,3,-0.79,-1.18,0.15,28.1326,-43.8574,-20.185,175,75
2026-05-07 18:40:01.480,3,-0.74,-0.98,0.21,6.732599999999998,-28.7374,-35.985,175,75
2026-05-07 18:40:01.503,3,-0.79,-0.87,0.5,-87.46740000000001,-9.287399999999998,-99.27499999999999,175,75
2026-05-07 18:40:01.515,3,-0.91,-0.83,0.32,-132.2274,-18.4274,-112.99499999999999,175,75
2026-05-07 18:40:01.525,3,-1.07,-0.74,0.06,-174.7874,4.982600000000001,-128.485,175,75
2026-05-07 18:40:01.554,3,-1.0,-0.71,0.05,-237.6574,56.2626,-147.26500000000001,175,75
2026-05-07 18:40:01.580,3,-1.09,-0.77,0.03,-275.0374,72.9126,-139.215,175,75
2026-05-07 18:40:01.580,3,-1.07,-0.77,0.12,-289.2974,65.9026,-137.205,175,75
2026-05-07 18:40:01.593,3,-1.05,-0.7,0.2,-305.6474,53.5826,-131.895,175,75
2026-05-07 18:40:01.604,3,-1.08,-0.6,0.2,-319.0574,52.6626,-122.205,175,75
2026-05-07 18:40:01.629,3,-1.11,-0.49,0.19,-342.2274,71.7526,-121.835,175,75
2026-05-07 18:40:01.669,3,-1.05,-0.46,0.58,-326.18739999999997,107.9126,-137.07500000000002,175,75
2026-05-07 18:40:01.683,3,-0.92,-0.51,1.0,-311.9274,112.48259999999999,-138.725,175,75
2026-05-07 18:40:01.694,3,-0.79,-0.58,1.29,-299.7874,68.52260000000001,-145.555,175,75
2026-05-07 18:40:01.694,3,-1.1,-0.5,1.27,-294.8474,71.4426,-139.215,175,75
2026-05-07 18:40:01.719,3,-1.11,-0.79,1.66,-202.5374,130.9626,-148.785,175,75
2026-05-07 18:40:01.730,3,-1.09,-0.79,1.92,-157.10739999999998,151.9326,-153.54500000000002,175,75
2026-05-07 18:40:01.742,3,-3.12,-0.1,2.33,-116.3174,229.7426,-91.835,175,75
2026-05-07 18:40:01.753,3,-6.85,1.89,4.02,57.7726,502.7926,183.535,175,75
2026-05-07 18:40:01.771,3,-5.08,-0.19,5.2,268.62260000000003,275.4126,47.065,175,75
2026-05-07 18:40:01.784,3,-4.13,0.09,6.62,366.7326,320.1026,219.08499999999998,175,75
2026-05-07 18:40:01.795,3,3.5,-4.51,5.8,373.2026,-268.67740000000003,-20.185,175,75
2026-05-07 18:40:01.807,3,1.29,-3.31,1.42,-87.46740000000001,-570.1974,212.55499999999998,175,75
2026-05-07 18:40:01.813,3,-4.18,0.07,-0.69,-204.9674,-68.1274,293.045,175,75
2026-05-07 18:40:01.826,3,-0.77,-0.52,-1.93,83.7426,-71.41739999999999,29.205000000000002,175,75
2026-05-07 18:40:01.843,3,-0.18,-0.73,0.7,285.2126,270.1026,102.25500000000001,175,75
2026-05-07 18:40:01.867,3,-0.67,-0.34,1.8,193.9926,180.6526,116.58500000000001,175,75
2026-05-07 18:40:01.867,3,-1.17,-0.31,1.9,129.6626,67.1126,100.36500000000001,175,75
2026-05-07 18:40:01.902,3,-1.34,-0.89,0.4,68.5026,-95.31739999999999,83.28500000000001,175,75
2026-05-07 18:40:01.938,3,-1.39,-1.69,0.8,101.73259999999999,1.5726000000000013,61.03500000000001,175,75
2026-05-07 18:40:01.949,3,-1.35,-1.2,0.86,96.31259999999999,-11.537399999999998,32.614999999999995,175,75
2026-05-07 18:40:01.972,3,-0.98,-0.57,1.08,68.87259999999999,-22.517400000000002,50.175,175,75
2026-05-07 18:40:01.995,3,-0.96,-1.19,1.32,43.87259999999999,-63.4274,42.19500000000001,175,75
2026-05-07 18:40:02.005,3,-0.85,-1.4,1.26,44.1726,-70.50739999999999,29.995,175,75
2026-05-07 18:40:02.016,3,-0.98,-1.57,1.22,52.462599999999995,-75.6274,23.654999999999998,175,75
2026-05-07 18:40:02.027,3,-0.99,-1.78,1.24,56.432599999999994,-79.0974,20.115000000000002,175,75
2026-05-07 18:40:02.045,3,-0.81,-2.08,1.23,55.3326,-97.3974,17.735,175,75
2026-05-07 18:40:02.097,3,0.35,-3.32,-0.42,55.51259999999999,-100.7474,4.505000000000001,175,75
2026-05-07 18:40:02.105,3,0.19,-2.73,-0.81,51.73259999999999,-55.5674,-6.835,175,75
2026-05-07 18:40:02.127,3,-0.57,-1.54,-0.85,124.35259999999998,122.30260000000001,21.945000000000004,175,75
2026-05-07 18:40:02.138,3,-1.25,-1.63,-0.43,193.3826,154.6826,72.925,175,75
2026-05-07 18:40:02.152,3,-1.89,-1.87,0.45,285.2726,190.9626,140.42499999999998,175,75
2026-05-07 18:40:02.161,3,-1.43,-2.56,1.04,290.8826,72.9726,153.595,175,75
2026-05-07 18:40:02.185,3,-1.29,-2.07,0.09,128.6226,-155.07739999999998,8.105,175,75
2026-05-07 18:40:02.209,3,-0.53,-1.98,0.42,253.87260000000003,-129.5274,47.925,175,75
2026-05-07 18:40:02.221,3,-1.5,-2.25,0.05,168.7426,-133.9174,25.055000000000003,175,75
2026-05-07 18:40:02.232,3,-1.65,-1.91,-0.57,160.45260000000002,-57.7574,-65.005,175,75
2026-05-07 18:40:02.253,3,-1.72,-1.52,-0.81,199.3526,6.3226,-146.22500000000002,175,75
2026-05-07 18:40:02.265,3,-1.78,-1.17,-0.72,203.32260000000002,72.9726,-187.32500000000002,175,75
2026-05-07 18:40:02.265,3,-1.8,-0.77,-0.53,193.3826,127.30260000000001,-214.335,175,75
2026-05-07 18:40:02.276,3,-2.07,-0.3,-0.3,181.73260000000002,165.89260000000002,-248.115,175,75
2026-05-07 18:40:02.286,3,-2.47,0.24,-0.0,186.92260000000002,211.14260000000002,-307.875,175,75
2026-05-07 18:40:02.308,3,-2.63,0.69,0.32,202.4026,228.2726,-348.23499999999996,175,75
2026-05-07 18:40:02.308,3,-2.49,0.99,0.73,217.4626,212.8526,-359.155,175,75
2026-05-07 18:40:02.319,3,-2.37,0.97,1.19,221.98260000000002,138.8826,-350.67499999999995,175,75
2026-05-07 18:40:02.341,3,-2.61,0.38,1.06,153.07260000000002,-89.16739999999999,-323.29499999999996,175,75
2026-05-07 18:40:02.354,3,-2.73,0.26,0.75,140.2726,-114.4074,-325.375,175,75
2026-05-07 18:40:02.368,3,-2.67,0.01,0.6,139.8426,-140.8674,-342.805,175,75
2026-05-07 18:40:02.380,3,-2.77,-0.06,0.54,130.3326,-132.6974,-365.185,175,75
2026-05-07 18:40:02.380,3,-2.71,0.11,0.48,130.2726,-107.3974,-377.385,175,75
2026-05-07 18:40:02.392,3,-2.7,0.25,0.43,131.3726,-80.07740000000001,-373.84499999999997,175,75
2026-05-07 18:40:02.405,3,-2.69,0.31,0.33,133.6226,-39.2874,-362.875,175,75
2026-05-07 18:40:02.417,3,-2.78,0.27,0.12,130.82260000000002,-14.3474,-358.48499999999996,175,75
2026-05-07 18:40:02.427,3,-2.67,0.27,-0.18,119.60259999999998,-2.9474,-361.955,175,75
2026-05-07 18:40:02.439,3,-2.54,0.41,-0.48,115.82260000000001,49.0026,-354.025,175,75
2026-05-07 18:40:02.450,3,-2.35,0.46,-0.45,117.22259999999999,100.2226,-334.575,175,75
2026-05-07 18:40:02.471,3,-1.99,0.12,0.07,112.16259999999998,101.7526,-335.245,175,75
2026-05-07 18:40:02.477,3,-1.83,0.02,0.14,95.76259999999999,75.96260000000001,-342.565,175,75
2026-05-07 18:40:02.492,3,-1.67,-0.04,0.03,66.67259999999999,49.3726,-341.465,175,75
2026-05-07 18:40:02.505,3,-1.68,-0.09,-0.24,35.76259999999999,47.9126,-333.60499999999996,175,75
2026-05-07 18:40:02.516,3,-1.64,-0.2,-0.44,14.902599999999996,57.6626,-339.275,175,75
2026-05-07 18:40:02.530,3,-1.53,-0.32,-0.65,-7.347400000000002,83.76259999999999,-345.67499999999995,175,75
2026-05-07 18:40:02.546,3,-1.41,-0.37,-0.75,-21.1874,117.9726,-340.245,175,75
2026-05-07 18:40:02.562,3,-1.27,-0.64,-0.63,-42.1674,191.6926,-303.84499999999997,175,75
2026-05-07 18:40:02.570,3,-1.22,-0.75,-0.5,-48.757400000000004,193.39260000000002,-295.125,175,75
2026-05-07 18:40:02.595,3,-1.3,-0.79,-0.49,-64.84740000000001,185.1626,-280.67499999999995,175,75
2026-05-07 18:40:02.606,3,-1.35,-0.75,-0.55,-72.4074,188.70260000000002,-278.35499999999996,175,75
2026-05-07 18:40:02.617,3,-1.43,-0.77,-0.61,-79.23740000000001,198.5826,-282.135,175,75
2026-05-07 18:40:02.620,3,-1.48,-0.82,-0.63,-77.2874,208.0926,-290.435,175,75
2026-05-07 18:40:02.632,3,-1.53,-0.88,-0.65,-77.0474,225.7126,-293.29499999999996,175,75
2026-05-07 18:40:02.645,3,-1.64,-0.93,-0.62,-76.4974,264.4926,-278.84499999999997,175,75
2026-05-07 18:40:02.664,3,-1.71,-1.05,-0.47,-68.6874,278.0926,-271.655,175,75
2026-05-07 18:40:02.688,3,-1.87,-0.89,-0.18,-70.0374,282.3626,-259.885,175,75
2026-05-07 18:40:02.703,3,-1.94,-0.83,-0.25,-83.0174,281.69259999999997,-244.69500000000002,175,75
2026-05-07 18:40:02.715,3,-1.99,-0.78,-0.31,-94.23740000000001,290.5926,-229.94500000000002,175,75
2026-05-07 18:40:02.725,3,-2.01,-0.78,-0.42,-98.3874,310.77259999999995,-212.38500000000002,175,75
2026-05-07 18:40:02.738,3,-2.03,-0.8,-0.52,-94.7874,349.4926,-192.995,175,75
2026-05-07 18:40:02.757,3,-2.09,-0.87,-0.63,-83.6874,405.2226,-173.785,175,75
2026-05-07 18:40:02.757,3,-2.18,-0.95,-0.7,-64.6074,460.5326,-162.935,175,75
2026-05-07 18:40:02.770,3,-2.46,-0.81,-0.62,-48.507400000000004,508.46259999999995,-148.905,175,75
2026-05-07 18:40:02.783,3,-2.51,-0.56,-0.08,-23.3274,523.1526,-138.235,175,75
2026-05-07 18:40:02.793,3,-2.51,-0.46,0.4,-2.2874000000000017,489.7426,-131.525,175,75
2026-05-07 18:40:02.796,3,-2.95,-0.25,0.77,8.012599999999999,421.69259999999997,-106.10499999999999,175,75
2026-05-07 18:40:02.812,3,-3.19,-0.11,1.17,16.792599999999997,366.44259999999997,-68.605,175,75
2026-05-07 18:40:02.823,3,-3.12,-0.14,1.66,33.62259999999999,280.5926,-44.455,175,75
2026-05-07 18:40:02.833,3,-2.95,-0.06,1.94,24.8426,176.26260000000002,-50.675,175,75
2026-05-07 18:40:02.844,3,-2.01,0.12,1.62,-36.317400000000006,30.2926,-65.915,175,75
2026-05-07 18:40:02.856,3,-1.4,0.43,0.95,-52.897400000000005,-32.3974,-21.225,175,75
2026-05-07 18:40:02.867,3,-1.35,0.57,0.42,-38.3274,-26.967399999999998,31.395,175,75
2026-05-07 18:40:02.879,3,-0.66,0.28,0.08,-16.617400000000004,31.0226,-4.395,175,75
2026-05-07 18:40:02.892,3,-9.85,2.96,2.92,71.31259999999999,459.9226,327.615,175,75
2026-05-07 18:40:02.903,3,0.12,-0.99,4.25,305.1526,549.4326,506.33500000000004,175,75
2026-05-07 18:40:02.935,3,-1.73,-6.21,2.45,66.4326,452.3026,188.045,175,75
2026-05-07 18:40:02.941,3,2.49,-3.57,5.51,523.2026,22.422600000000003,-191.655,175,75
2026-05-07 18:40:02.956,3,1.78,-2.84,2.12,149.54260000000002,-365.80740000000003,-91.46499999999999,175,75
2026-05-07 18:40:02.987,3,0.04,2.01,-0.13,280.2126,70.5326,25.235000000000003,175,75
2026-05-07 18:40:02.998,3,-1.09,0.26,0.79,239.3526,164.2526,132.125,175,75
2026-05-07 18:40:03.009,3,-1.13,-1.07,1.56,143.26260000000002,227.0526,114.015,175,75
2026-05-07 18:40:03.023,3,-0.57,-2.1,1.88,69.90259999999999,64.43260000000001,55.845,175,75
2026-05-07 18:40:03.034,3,-1.13,-2.04,1.46,5.762599999999999,-58.917399999999994,12.865000000000002,175,75
2026-05-07 18:40:03.046,3,-1.21,-1.53,0.73,-5.277400000000002,-61.7874,7.795000000000002,175,75
2026-05-07 18:40:03.064,3,-0.93,-1.15,0.4,21.5526,-28.9174,31.945000000000004,175,75
2026-05-07 18:40:03.075,3,-0.96,-1.04,0.47,19.1726,-9.037399999999998,29.625000000000004,175,75
2026-05-07 18:40:03.075,3,-0.85,-0.95,0.51,12.462599999999998,-11.357399999999998,27.435,175,75
2026-05-07 18:40:03.086,3,-1.12,-0.74,0.33,-0.09740000000000038,-25.1374,30.235000000000003,175,75
2026-05-07 18:40:03.102,3,-1.21,-0.6,0.13,2.4025999999999996,-9.037399999999998,28.955000000000002,175,75
2026-05-07 18:40:03.114,3,-0.98,-0.66,0.23,25.942599999999995,22.302599999999998,33.715,175,75
2026-05-07 18:40:03.139,3,-0.97,-0.96,0.57,24.902599999999996,25.6526,39.325,175,75
2026-05-07 18:40:03.139,3,-1.0,-1.1,0.6,20.822599999999998,19.0026,40.05500000000001,175,75
2026-05-07 18:40:03.147,3,-1.13,-1.14,0.59,13.9926,9.3126,35.235,175,75
2026-05-07 18:40:03.163,3,-1.12,-0.95,0.64,15.942599999999995,10.1026,26.645,175,75
2026-05-07 18:40:03.176,3,-1.0,-0.93,0.68,9.232599999999998,-10.997399999999999,27.865,175,75
2026-05-07 18:40:03.188,3,-1.1,-0.88,0.54,0.5725999999999978,-23.3074,28.654999999999998,175,75
2026-05-07 18:40:03.199,3,-1.17,-0.98,0.34,-0.037400000000001654,-30.3174,28.285,175,75
2026-05-07 18:40:03.243,3,-0.91,-0.82,0.58,14.962599999999998,5.472600000000001,10.844999999999999,175,75
2026-05-07 18:40:03.243,3,-0.91,-0.82,0.62,7.532599999999999,-2.2774,16.035,175,75
2026-05-07 18:40:03.254,3,-1.02,-0.77,0.54,1.4925999999999995,-5.997399999999999,17.615000000000002,175,75
2026-05-07 18:40:03.268,3,-1.1,-0.79,0.52,2.5925999999999974,3.4626,20.175,175,75
2026-05-07 18:40:03.300,3,-1.06,-0.82,0.51,-5.827400000000001,2.1126000000000005,19.325,175,75
2026-05-07 18:40:03.312,3,-1.01,-0.95,0.6,-5.397400000000001,1.8726000000000003,17.555,175,75
2026-05-07 18:40:03.334,3,-1.07,-1.08,0.64,-11.317400000000001,-5.0173999999999985,21.885,175,75
2026-05-07 18:40:03.346,3,-1.13,-1.09,0.56,-13.7574,-19.587400000000002,15.175,175,75
2026-05-07 18:40:03.378,3,-1.17,-0.73,0.36,-13.567400000000003,11.6926,7.734999999999999,175,75
2026-05-07 18:40:03.392,3,-1.04,-0.63,0.5,-22.107400000000002,-11.4774,19.015,175,75
2026-05-07 18:40:03.403,3,-1.11,-0.82,0.4,-23.017400000000002,-11.5974,21.334999999999997,175,75
2026-05-07 18:40:03.414,3,-1.19,-1.04,0.41,-23.387400000000003,-6.2974,18.475,175,75
2026-05-07 18:40:03.425,3,-1.13,-1.11,0.57,-23.267400000000002,1.0826000000000011,10.905000000000001,175,75
2026-05-07 18:40:03.436,3,-1.03,-1.08,0.83,-25.337400000000002,-5.317399999999999,7.254999999999999,175,75
2026-05-07 18:40:03.445,3,-0.94,-1.15,0.87,-36.927400000000006,-33.1874,9.815000000000001,175,75
2026-05-07 18:40:03.458,3,-1.05,-1.14,0.68,-45.0974,-44.4674,12.065000000000001,175,75
2026-05-07 18:40:03.478,3,-1.09,-0.78,0.39,-46.9874,-17.147399999999998,11.455000000000002,175,75
2026-05-07 18:40:03.492,3,-0.98,-0.61,0.47,-46.1274,-11.357399999999998,16.035,175,75
2026-05-07 18:40:03.503,3,-0.99,-0.57,0.54,-50.7674,-24.1674,23.044999999999998,175,75
2026-05-07 18:40:03.514,3,-1.21,-0.58,0.52,-56.6174,-28.797399999999996,28.404999999999998,175,75
2026-05-07 18:40:03.517,3,-1.29,-0.63,0.54,-63.9374,-40.9274,29.875000000000004,175,75
2026-05-07 18:40:03.541,3,-1.36,-0.64,0.59,-79.6674,-66.72739999999999,35.364999999999995,175,75
2026-05-07 18:40:03.541,3,-1.57,-0.57,0.49,-109.4274,-129.4074,49.015,175,75
2026-05-07 18:40:03.552,3,-1.64,-0.58,0.28,-133.9974,-194.1674,57.315,175,75
2026-05-07 18:40:03.562,3,-1.76,-0.47,-0.15,-169.17739999999998,-236.9674,76.455,175,75
2026-05-07 18:40:03.575,3,-2.0,-0.2,-0.41,-190.6474,-242.2774,103.89500000000001,175,75
2026-05-07 18:40:03.586,3,-1.75,-0.29,-0.44,-203.9374,-254.03740000000002,119.015,175,75
2026-05-07 18:40:03.599,3,-1.54,-0.36,-0.46,-236.8674,-285.7474,146.27499999999998,175,75
2026-05-07 18:40:03.599,3,-1.49,-0.32,-0.54,-256.9274,-295.1974,170.36499999999998,175,75
2026-05-07 18:40:03.645,3,-0.76,-1.17,0.78,-203.01739999999998,-217.57739999999998,189.265,175,75
2026-05-07 18:40:03.673,3,-0.57,-1.54,1.11,-220.2174,-239.7774,180.05499999999998,175,75
2026-05-07 18:40:03.683,3,-0.55,-1.56,1.03,-214.60739999999998,-239.6474,161.155,175,75
2026-05-07 18:40:03.738,3,-0.49,-1.38,0.7,-182.95739999999998,-156.29739999999998,115.845,175,75
