Time,ID,Ax,Ay,Az,Gx,Gy,Gz,Height,Weight
2026-05-09 16:25:50.540,3,-0.32,-1.01,0.4,3.904600000000002,-0.11500000000000199,1.956199999999999,175,75
2026-05-09 16:25:50.562,3,-0.33,-0.99,0.39,4.934600000000003,-0.6050000000000004,1.5961999999999978,175,75
2026-05-09 16:25:50.573,3,-0.33,-1.0,0.39,5.4846,-0.11500000000000199,1.5361999999999973,175,75
2026-05-09 16:25:50.593,3,-0.33,-1.01,0.39,5.914600000000007,0.004999999999999005,1.8961999999999986,175,75
2026-05-09 16:25:50.633,3,-0.33,-1.01,0.4,8.11460000000001,-0.7250000000000014,0.9861999999999984,175,75
2026-05-09 16:25:50.633,3,-0.33,-1.0,0.4,8.8446,-1.1550000000000011,1.046199999999999,175,75
2026-05-09 16:25:50.676,3,-0.33,-1.0,0.39,12.564599999999999,-0.7850000000000001,1.6561999999999983,175,75
2026-05-09 16:25:50.710,3,-0.32,-1.0,0.38,14.874600000000001,-1.6350000000000016,1.2261999999999986,175,75
2026-05-09 16:25:50.710,3,-0.32,-1.0,0.4,16.524600000000007,-0.6050000000000004,1.836199999999998,175,75
2026-05-09 16:25:50.728,3,-0.33,-1.01,0.42,18.11460000000001,-1.4550000000000018,2.8161999999999985,175,75
2026-05-09 16:25:50.755,3,-0.32,-0.99,0.45,19.8146,-1.3949999999999996,3.666199999999998,175,75
2026-05-09 16:25:50.791,3,-0.33,-0.99,0.45,20.184600000000003,-4.015000000000001,4.3961999999999986,175,75
2026-05-09 16:25:50.836,3,-0.32,-1.01,0.47,20.674600000000012,-1.9450000000000003,5.856199999999998,175,75
2026-05-09 16:25:50.920,3,-0.34,-0.99,0.47,22.744600000000005,1.8349999999999973,7.5661999999999985,175,75
2026-05-09 16:25:50.943,3,-0.35,-1.0,0.46,24.75460000000001,2.875,7.146199999999997,175,75
2026-05-09 16:25:50.943,3,-0.35,-0.99,0.49,26.9546,6.594999999999999,8.356199999999998,175,75
2026-05-09 16:25:50.962,3,-0.33,-1.0,0.5,27.134600000000006,5.984999999999999,8.176199999999998,175,75
2026-05-09 16:25:50.983,3,-0.33,-0.98,0.5,27.434600000000003,5.555,8.726199999999999,175,75
2026-05-09 16:25:50.983,3,-0.36,-0.98,0.53,28.47460000000001,8.844999999999999,10.066199999999998,175,75
2026-05-09 16:25:50.993,3,-0.34,-1.0,0.56,27.50460000000001,6.414999999999999,8.726199999999999,175,75
2026-05-09 16:25:51.006,3,-0.36,-0.98,0.55,26.3446,2.875,9.156199999999998,175,75
2026-05-09 16:25:51.049,3,-0.33,-0.98,0.6,22.924600000000012,6.344999999999999,10.2562,175,75
2026-05-09 16:25:51.072,3,-0.35,-0.99,0.59,18.53460000000001,5.494999999999997,11.466199999999997,175,75
2026-05-09 16:25:51.072,3,-0.36,-0.98,0.58,18.294600000000003,6.594999999999999,12.386199999999999,175,75
2026-05-09 16:25:51.091,3,-0.36,-0.97,0.6,17.3146,9.585,13.786199999999997,175,75
2026-05-09 16:25:51.103,3,-0.35,-0.98,0.61,15.61460000000001,8.844999999999999,13.786199999999997,175,75
2026-05-09 16:25:51.114,3,-0.36,-0.97,0.61,13.784600000000012,6.774999999999999,14.456199999999999,175,75
2026-05-09 16:25:51.124,3,-0.37,-0.96,0.59,12.50460000000001,6.714999999999996,15.496199999999998,175,75
2026-05-09 16:25:51.149,3,-0.37,-0.97,0.59,10.61460000000001,7.015000000000001,16.286199999999997,175,75
2026-05-09 16:25:51.169,3,-0.4,-0.98,0.61,8.2346,9.515,17.5062,175,75
2026-05-09 16:25:51.188,3,-0.41,-0.97,0.61,6.954599999999999,9.274999999999999,16.2262,175,75
2026-05-09 16:25:51.199,3,-0.4,-0.95,0.62,4.934600000000003,14.884999999999998,17.266199999999998,175,75
2026-05-09 16:25:51.239,3,-0.4,-0.97,0.64,-0.8553999999999888,17.015,18.5462,175,75
2026-05-09 16:25:51.252,3,-0.48,-0.95,0.58,-4.325399999999988,18.174999999999997,16.4062,175,75
2026-05-09 16:25:51.263,3,-0.46,-0.96,0.58,-4.695399999999992,22.695,15.4362,175,75
2026-05-09 16:25:51.330,3,-0.45,-0.97,0.58,-8.715399999999988,19.155,15.0062,175,75
2026-05-09 16:25:51.341,3,-0.47,-0.98,0.59,-9.085399999999993,16.955,15.6162,175,75
2026-05-09 16:25:51.353,3,-0.47,-0.99,0.58,-8.965399999999988,15.735,13.236199999999997,175,75
2026-05-09 16:25:51.364,3,-0.44,-0.98,0.59,-8.595399999999998,10.494999999999997,12.146199999999997,175,75
2026-05-09 16:25:51.364,3,-0.46,-0.96,0.56,-9.2654,6.535,12.626199999999997,175,75
2026-05-09 16:25:51.393,3,-0.53,-1.0,0.52,-7.2553999999999945,8.784999999999997,9.0962,175,75
2026-05-09 16:25:51.423,3,-0.47,-0.97,0.57,-4.2654,7.085000000000001,2.206199999999999,175,75
2026-05-09 16:25:51.468,3,-0.45,-0.95,0.58,-6.4054,6.714999999999996,5.736199999999997,175,75
2026-05-09 16:25:51.506,3,-0.45,-0.99,0.56,-4.085399999999993,14.884999999999998,10.0062,175,75
2026-05-09 16:25:51.517,3,-0.44,-1.01,0.61,-3.2353999999999985,2.3249999999999993,5.856199999999998,175,75
2026-05-09 16:25:51.517,3,-0.49,-0.99,0.56,-3.105399999999989,-3.0450000000000017,4.6461999999999986,175,75
2026-05-09 16:25:51.528,3,-0.49,-1.0,0.53,-2.7453999999999894,-5.785,3.1161999999999974,175,75
2026-05-09 16:25:51.552,3,-0.56,-0.98,0.47,-1.1554000000000002,-7.305,0.7961999999999989,175,75
2026-05-09 16:25:51.569,3,-0.53,-0.97,0.47,3.2946000000000026,2.0849999999999973,-4.323800000000002,175,75
2026-05-09 16:25:51.604,3,-0.5,-0.97,0.55,4.454599999999999,3.724999999999998,-5.843800000000002,175,75
2026-05-09 16:25:51.672,3,-0.48,-0.95,0.55,4.634600000000006,1.0449999999999982,-5.843800000000002,175,75
2026-05-09 16:25:51.695,3,-0.46,-0.96,0.54,3.2346000000000004,-4.625,-4.813800000000001,175,75
2026-05-09 16:25:51.704,3,-0.47,-0.95,0.53,3.7246000000000095,-4.445,-4.383800000000002,175,75
2026-05-09 16:25:51.713,3,-0.47,-0.94,0.53,3.904600000000002,-3.835000000000001,-4.013800000000002,175,75
2026-05-09 16:25:51.728,3,-0.47,-0.97,0.53,4.024600000000007,-4.265000000000001,-3.953800000000002,175,75
2026-05-09 16:25:51.740,3,-0.47,-0.97,0.53,5.36460000000001,-3.405000000000001,-4.503800000000002,175,75
2026-05-09 16:25:51.753,3,-0.46,-0.95,0.54,6.404600000000002,-1.9450000000000003,-4.383800000000002,175,75
2026-05-09 16:25:51.775,3,-0.46,-0.97,0.53,7.684600000000003,-6.825000000000003,-2.373800000000001,175,75
2026-05-09 16:25:51.790,3,-0.46,-0.98,0.54,8.8446,-7.795000000000002,-2.1838000000000015,175,75
2026-05-09 16:25:51.827,3,-0.48,-0.96,0.54,12.434600000000003,-8.105,-2.9838000000000022,175,75
2026-05-09 16:25:51.849,3,-0.49,-0.95,0.55,13.784600000000012,-9.445,-3.533800000000002,175,75
2026-05-09 16:25:51.860,3,-0.47,-0.97,0.55,15.244600000000005,-9.135000000000002,-4.443800000000002,175,75
2026-05-09 16:25:51.870,3,-0.47,-0.97,0.55,16.524600000000007,-9.935,-5.173800000000002,175,75
2026-05-09 16:25:51.870,3,-0.46,-0.96,0.55,17.25460000000001,-12.185,-4.993800000000002,175,75
2026-05-09 16:25:51.899,3,-0.44,-0.96,0.58,20.674600000000012,-10.295000000000002,-4.743800000000002,175,75
2026-05-09 16:25:51.913,3,-0.44,-0.97,0.58,20.674600000000012,-14.995000000000001,-4.013800000000002,175,75
2026-05-09 16:25:51.953,3,-0.41,-0.97,0.54,29.024600000000007,-20.905,-2.493800000000002,175,75
2026-05-09 16:25:51.965,3,-0.47,-0.93,0.54,31.9546,-19.385,-0.48380000000000223,175,75
2026-05-09 16:25:51.984,3,-0.49,-0.92,0.58,35.42460000000001,-14.135000000000002,-0.48380000000000223,175,75
2026-05-09 16:25:51.996,3,-0.45,-0.92,0.62,37.504599999999996,-16.515,-3.4638000000000018,175,75
2026-05-09 16:25:51.996,3,-0.45,-0.89,0.61,36.58460000000001,-23.525000000000002,-2.9238000000000017,175,75
2026-05-09 16:25:52.058,3,-0.4,-0.91,0.71,39.63459999999999,-22.735,3.9061999999999983,175,75
2026-05-09 16:25:52.079,3,-0.42,-0.95,0.68,40.36460000000001,-28.165,5.616199999999999,175,75
2026-05-09 16:25:52.090,3,-0.45,-0.95,0.7,41.64460000000001,-27.375,7.6861999999999995,175,75
2026-05-09 16:25:52.111,3,-0.45,-0.95,0.74,42.86460000000001,-29.015,7.146199999999997,175,75
2026-05-09 16:25:52.120,3,-0.47,-0.92,0.77,42.3746,-33.165,7.016199999999998,175,75
2026-05-09 16:25:52.143,3,-0.44,-0.9,0.86,41.224599999999995,-38.835,6.656199999999998,175,75
2026-05-09 16:25:52.159,3,-0.41,-0.96,0.79,34.4546,-49.195,5.126199999999997,175,75
2026-05-09 16:25:52.170,3,-0.41,-1.07,0.81,40.36460000000001,-43.165000000000006,8.176199999999998,175,75
2026-05-09 16:25:52.176,3,-0.47,-1.03,0.81,38.5946,-39.565,2.3261999999999983,175,75
2026-05-09 16:25:52.189,3,-0.6,-0.79,0.8,35.004599999999996,-29.805,-1.823800000000002,175,75
2026-05-09 16:25:52.205,3,-0.51,-0.76,0.88,32.074600000000004,-18.465,-2.793800000000001,175,75
2026-05-09 16:25:52.265,3,-0.33,-0.95,0.77,14.4546,-25.355,18.786199999999997,175,75
2026-05-09 16:25:52.275,3,-0.42,-0.92,0.75,14.514600000000002,-22.675,19.576199999999996,175,75
2026-05-09 16:25:52.296,3,-0.35,-0.92,1.01,16.89460000000001,-14.995000000000001,19.036199999999997,175,75
2026-05-09 16:25:52.306,3,-0.39,-0.9,0.99,10.064599999999999,-29.565,19.336199999999998,175,75
2026-05-09 16:25:52.317,3,-0.43,-0.9,0.9,6.3446,-33.835,16.5962,175,75
2026-05-09 16:25:52.339,3,-0.43,-0.88,0.9,2.8046000000000078,-36.635000000000005,16.836199999999998,175,75
2026-05-09 16:25:52.367,3,-0.5,-0.89,0.87,-6.955399999999997,-48.955,24.8862,175,75
2026-05-09 16:25:52.378,3,-0.54,-0.88,0.84,-11.345399999999998,-61.515,27.6262,175,75
2026-05-09 16:25:52.389,3,-0.59,-0.87,0.78,-15.185400000000001,-71.945,31.046199999999995,175,75
2026-05-09 16:25:52.399,3,-0.6,-0.85,0.79,-17.565399999999997,-75.965,33.11619999999999,175,75
2026-05-09 16:25:52.409,3,-0.57,-0.82,0.84,-21.1554,-81.39500000000001,35.676199999999994,175,75
2026-05-09 16:25:52.441,3,-0.48,-0.86,0.89,-31.155399999999993,-100.415,41.1662,175,75
2026-05-09 16:25:52.451,3,-0.34,-0.89,0.9,-34.3854,-103.58500000000001,37.446200000000005,175,75
2026-05-09 16:25:52.484,3,-0.24,-0.92,0.84,-34.3854,-93.105,34.8862,175,75
2026-05-09 16:25:52.496,3,-0.28,-0.87,0.86,-30.365399999999994,-72.065,34.096199999999996,175,75
2026-05-09 16:25:52.508,3,-0.32,-0.87,0.84,-27.925399999999996,-67.375,29.9462,175,75
2026-05-09 16:25:52.519,3,-0.35,-0.88,0.81,-25.24539999999999,-58.045,31.046199999999995,175,75
2026-05-09 16:25:52.545,3,-0.36,-0.88,0.84,-23.595399999999998,-49.745000000000005,29.7662,175,75
2026-05-09 16:25:52.563,3,-0.41,-0.89,0.85,-24.755399999999995,-45.415000000000006,29.9462,175,75
2026-05-09 16:25:52.585,3,-0.42,-0.88,0.85,-26.645399999999995,-39.135000000000005,29.7662,175,75
2026-05-09 16:25:52.596,3,-0.41,-0.91,0.85,-26.21539999999999,-38.165,28.726199999999995,175,75
2026-05-09 16:25:52.608,3,-0.44,-0.9,0.84,-27.195399999999992,-39.075,25.0662,175,75
2026-05-09 16:25:52.608,3,-0.41,-0.9,0.83,-27.0154,-38.585,22.8162,175,75
2026-05-09 16:25:52.629,3,-0.43,-0.89,0.81,-27.13539999999999,-38.655,23.8462,175,75
2026-05-09 16:25:52.639,3,-0.47,-0.88,0.79,-27.6254,-36.575,22.6262,175,75
2026-05-09 16:25:52.651,3,-0.43,-0.89,0.81,-26.955399999999997,-34.935,19.516199999999998,175,75
2026-05-09 16:25:52.672,3,-0.46,-0.91,0.78,-26.955399999999997,-39.995000000000005,17.8162,175,75
2026-05-09 16:25:52.684,3,-0.46,-0.9,0.76,-25.7954,-34.325,17.2062,175,75
2026-05-09 16:25:52.684,3,-0.42,-0.88,0.79,-24.02539999999999,-30.905,15.676199999999998,175,75
2026-05-09 16:25:52.695,3,-0.39,-0.9,0.81,-23.96539999999999,-31.215,16.106199999999998,175,75
2026-05-09 16:25:52.724,3,-0.45,-0.93,0.77,-22.6854,-30.845000000000002,13.296199999999999,175,75
2026-05-09 16:25:52.738,3,-0.47,-0.9,0.73,-21.46539999999999,-29.445,12.266199999999998,175,75
2026-05-09 16:25:52.753,3,-0.47,-0.87,0.74,-20.30539999999999,-25.055,13.1162,175,75
2026-05-09 16:25:52.764,3,-0.44,-0.88,0.77,-20.425399999999996,-21.765,13.296199999999999,175,75
2026-05-09 16:25:52.775,3,-0.39,-0.9,0.83,-20.30539999999999,-20.485,11.656199999999998,175,75
2026-05-09 16:25:52.785,3,-0.3,-0.91,0.87,-20.1854,-20.175,10.2562,175,75
2026-05-09 16:25:52.798,3,-0.32,-0.92,0.84,-21.1554,-27.245,10.4362,175,75
2026-05-09 16:25:52.809,3,-0.41,-0.93,0.73,-19.455399999999997,-20.605,10.316199999999998,175,75
2026-05-09 16:25:52.820,3,-0.41,-0.91,0.74,-16.4054,-11.275,8.356199999999998,175,75
2026-05-09 16:25:52.831,3,-0.39,-0.9,0.77,-15.605399999999989,-11.765,7.3261999999999965,175,75
2026-05-09 16:25:52.841,3,-0.4,-0.91,0.77,-14.325399999999988,-12.615000000000002,7.5661999999999985,175,75
2026-05-09 16:25:52.854,3,-0.43,-0.91,0.76,-14.99539999999999,-12.005,6.226199999999999,175,75
2026-05-09 16:25:52.872,3,-0.35,-0.93,0.78,-11.955399999999997,-8.285,5.926199999999998,175,75
2026-05-09 16:25:52.883,3,-0.35,-0.9,0.8,-12.625399999999999,-11.275,7.4461999999999975,175,75
2026-05-09 16:25:52.894,3,-0.38,-0.95,0.77,-14.575399999999988,-15.355,8.8462,175,75
2026-05-09 16:25:52.925,3,-0.44,-0.93,0.74,-12.565399999999997,-17.985,9.886199999999999,175,75
2026-05-09 16:25:52.947,3,-0.45,-0.97,0.71,-13.6554,-28.775000000000002,10.1862,175,75
2026-05-09 16:25:52.962,3,-0.45,-0.93,0.69,-12.925399999999996,-27.435000000000002,10.496199999999998,175,75
2026-05-09 16:25:53.000,3,-0.49,-0.94,0.7,-14.02539999999999,-29.625,9.516199999999998,175,75
2026-05-09 16:25:53.023,3,-0.4,-0.91,0.78,-16.27539999999999,-30.545,9.0962,175,75
2026-05-09 16:25:53.038,3,-0.42,-0.91,0.76,-17.6854,-34.875,7.3261999999999965,175,75
2026-05-09 16:25:53.049,3,-0.43,-0.92,0.74,-17.075399999999988,-35.605000000000004,5.2562,175,75
2026-05-09 16:25:53.073,3,-0.45,-0.89,0.71,-14.755399999999995,-18.225,10.676199999999998,175,75
2026-05-09 16:25:53.122,3,-0.4,-0.94,0.76,-15.125399999999999,-15.665000000000001,8.486199999999997,175,75
2026-05-09 16:25:53.122,3,-0.45,-0.93,0.7,-14.325399999999988,-9.935,6.5962,175,75
2026-05-09 16:25:53.166,3,-0.44,-0.91,0.69,-12.375399999999999,-2.0650000000000013,4.826199999999998,175,75
2026-05-09 16:25:53.166,3,-0.41,-0.92,0.74,-11.215399999999988,1.4749999999999979,4.826199999999998,175,75
2026-05-09 16:25:53.195,3,-0.44,-0.94,0.71,-12.685400000000001,-9.135000000000002,3.6061999999999976,175,75
2026-05-09 16:25:53.218,3,-0.49,-0.94,0.67,-11.1554,-11.395000000000001,0.3161999999999985,175,75
2026-05-09 16:25:53.231,3,-0.49,-0.94,0.63,-9.695399999999992,-9.075000000000003,-4.813800000000001,175,75
2026-05-09 16:25:53.240,3,-0.46,-0.94,0.69,-6.095399999999998,0.375,-4.6838000000000015,175,75
2026-05-09 16:25:53.259,3,-0.42,-0.93,0.7,-6.2753999999999905,-1.0850000000000009,-6.703800000000002,175,75
2026-05-09 16:25:53.275,3,-0.42,-0.94,0.7,-6.705399999999997,-3.1650000000000027,-6.093800000000002,175,75
2026-05-09 16:25:53.309,3,-0.45,-0.95,0.7,-6.4054,-3.835000000000001,-7.4338000000000015,175,75
2026-05-09 16:25:53.321,3,-0.42,-0.94,0.71,-6.2753999999999905,-6.575000000000003,-10.173800000000002,175,75
2026-05-09 16:25:53.332,3,-0.44,-0.94,0.71,-6.88539999999999,-6.395,-10.293800000000001,175,75
2026-05-09 16:25:53.334,3,-0.41,-0.95,0.68,-7.805399999999992,-9.625000000000002,-11.213800000000003,175,75
2026-05-09 16:25:53.343,3,-0.42,-0.96,0.67,-7.13539999999999,-8.895,-11.393800000000002,175,75
2026-05-09 16:25:53.354,3,-0.4,-0.97,0.67,-7.925399999999996,-9.135000000000002,-11.643800000000002,175,75
2026-05-09 16:25:53.357,3,-0.39,-0.97,0.7,-6.5253999999999905,-8.715,-11.213800000000003,175,75
2026-05-09 16:25:53.378,3,-0.38,-0.96,0.75,-7.0154,-12.005,-13.283800000000001,175,75
2026-05-09 16:25:53.388,3,-0.4,-0.94,0.72,-8.965399999999988,-13.585,-12.853800000000001,175,75
2026-05-09 16:25:53.398,3,-0.42,-0.95,0.67,-9.5154,-15.175,-12.553800000000003,175,75
2026-05-09 16:25:53.438,3,-0.38,-0.95,0.72,-9.575399999999988,-1.1550000000000011,-9.323800000000002,175,75
2026-05-09 16:25:53.460,3,-0.36,-0.96,0.72,-12.685400000000001,-5.845000000000002,-10.423800000000002,175,75
2026-05-09 16:25:53.475,3,-0.38,-0.96,0.7,-13.6554,-5.665000000000003,-7.613800000000001,175,75
2026-05-09 16:25:53.498,3,-0.39,-0.96,0.63,-13.2954,-3.955000000000002,-8.403800000000002,175,75
2026-05-09 16:25:53.527,3,-0.4,-0.95,0.67,-12.13539999999999,4.154999999999998,-6.6438000000000015,175,75
2026-05-09 16:25:53.548,3,-0.32,-0.95,0.73,-15.305399999999992,4.154999999999998,-4.443800000000002,175,75
2026-05-09 16:25:53.558,3,-0.33,-0.97,0.7,-16.345399999999998,-0.3550000000000004,-4.743800000000002,175,75
2026-05-09 16:25:53.582,3,-0.35,-0.98,0.68,-16.645399999999995,-1.5750000000000028,-4.993800000000002,175,75
2026-05-09 16:25:53.594,3,-0.39,-0.93,0.65,-17.865399999999994,-4.135000000000002,-4.203800000000002,175,75
2026-05-09 16:25:53.615,3,-0.28,-0.93,0.7,-14.815399999999997,4.035,-3.7738000000000014,175,75
2026-05-09 16:25:53.651,3,-0.34,-0.98,0.65,-16.645399999999995,-7.675000000000001,-0.7838000000000012,175,75
2026-05-09 16:25:53.674,3,-0.33,-1.01,0.63,-16.1554,-3.1050000000000004,-3.043800000000002,175,75
2026-05-09 16:25:53.693,3,-0.33,-0.95,0.67,-17.195399999999992,-4.325000000000003,-1.823800000000002,175,75
2026-05-09 16:25:53.728,3,-0.32,-1.0,0.58,-19.325399999999988,-11.335,-3.043800000000002,175,75
2026-05-09 16:25:53.728,3,-0.33,-0.98,0.59,-19.815399999999997,-10.415000000000001,-0.7838000000000012,175,75
2026-05-09 16:25:53.739,3,-0.31,-0.97,0.59,-18.2954,-7.675000000000001,-0.11380000000000123,175,75
2026-05-09 16:25:53.749,3,-0.32,-0.95,0.61,-17.075399999999988,-7.915000000000003,1.2261999999999986,175,75
2026-05-09 16:25:53.799,3,-0.34,-0.95,0.59,-17.3754,-4.265000000000001,4.456199999999999,175,75
2026-05-09 16:25:53.799,3,-0.38,-0.96,0.58,-16.585399999999993,0.6149999999999984,7.016199999999998,175,75
2026-05-09 16:25:53.809,3,-0.33,-0.97,0.6,-15.915399999999991,0.8049999999999997,5.0062,175,75
2026-05-09 16:25:53.831,3,-0.33,-0.99,0.61,-14.99539999999999,0.8649999999999984,6.286199999999997,175,75
2026-05-09 16:25:53.884,3,-0.3,-0.98,0.61,-13.415399999999991,3.844999999999999,4.036199999999997,175,75
2026-05-09 16:25:53.905,3,-0.35,-1.01,0.63,-13.715399999999988,-11.275,2.996199999999998,175,75
2026-05-09 16:25:53.917,3,-0.44,-1.0,0.49,-12.49539999999999,-20.665,-0.11380000000000123,175,75
2026-05-09 16:25:53.940,3,-0.37,-0.98,0.49,-8.9054,-6.155000000000001,-0.6638000000000019,175,75
2026-05-09 16:25:53.951,3,-0.34,-0.98,0.52,-9.02539999999999,-5.905000000000001,1.046199999999999,175,75
2026-05-09 16:25:53.969,3,-0.36,-0.99,0.52,-9.325399999999988,-7.065000000000001,2.9361999999999977,175,75
2026-05-09 16:25:53.980,3,-0.38,-1.0,0.5,-8.77539999999999,-9.385000000000002,3.0561999999999987,175,75
2026-05-09 16:25:54.004,3,-0.43,-0.97,0.48,-9.085399999999993,-8.525000000000002,-0.29380000000000095,175,75
2026-05-09 16:25:54.039,3,-0.4,-0.95,0.54,-10.24539999999999,-12.915000000000001,4.156199999999998,175,75
2026-05-09 16:25:54.050,3,-0.36,-1.01,0.57,-10.915399999999991,-11.025,2.1461999999999986,175,75
2026-05-09 16:25:54.061,3,-0.34,-0.98,0.58,-12.625399999999999,-16.695,4.886199999999999,175,75
2026-05-09 16:25:54.074,3,-0.38,-0.96,0.53,-12.685400000000001,-13.585,6.406199999999998,175,75
2026-05-09 16:25:54.082,3,-0.38,-0.96,0.52,-10.915399999999991,-8.655000000000001,5.2562,175,75
2026-05-09 16:25:54.108,3,-0.36,-0.98,0.53,-9.455399999999997,-4.075000000000003,4.336199999999998,175,75
2026-05-09 16:25:54.128,3,-0.35,-0.99,0.56,-8.845399999999998,-0.9050000000000011,4.706199999999999,175,75
2026-05-09 16:25:54.202,3,-0.4,-0.98,0.53,-8.595399999999998,-4.505000000000003,5.4361999999999995,175,75
2026-05-09 16:25:54.239,3,-0.36,-1.02,0.5,-7.075399999999988,-0.23499999999999943,1.4661999999999988,175,75
2026-05-09 16:25:54.295,3,-0.31,-1.01,0.57,-8.475399999999993,-5.175000000000001,-0.6038000000000014,175,75
2026-05-09 16:25:54.295,3,-0.37,-0.99,0.56,-6.465399999999988,-4.935000000000002,1.5961999999999978,175,75
2026-05-09 16:25:54.316,3,-0.4,-0.99,0.51,-9.38539999999999,-13.955000000000002,-0.9638000000000027,175,75
2026-05-09 16:25:54.341,3,-0.37,-0.98,0.47,-6.215399999999988,-3.655000000000001,-0.9638000000000027,175,75
2026-05-09 16:25:54.352,3,-0.36,-0.99,0.53,-4.205399999999997,-0.5450000000000017,-1.5138000000000016,175,75
2026-05-09 16:25:54.375,3,-0.39,-0.99,0.47,-4.63539999999999,-1.2750000000000021,0.376199999999999,175,75
2026-05-09 16:25:54.385,3,-0.35,-1.0,0.51,-2.565399999999997,3.544999999999998,0.6161999999999974,175,75
2026-05-09 16:25:54.419,3,-0.36,-1.0,0.49,-4.575399999999988,-5.545000000000002,1.3461999999999978,175,75
2026-05-09 16:25:54.447,3,-0.38,-1.0,0.49,-3.5353999999999957,-4.135000000000002,0.5561999999999987,175,75
2026-05-09 16:25:54.457,3,-0.36,-0.99,0.47,-2.865399999999994,-1.8250000000000028,-0.23380000000000223,175,75
2026-05-09 16:25:54.478,3,-0.38,-0.98,0.47,-2.865399999999994,-0.9050000000000011,0.7961999999999989,175,75
2026-05-09 16:25:54.478,3,-0.37,-0.99,0.47,-1.4653999999999883,-1.2750000000000021,-0.23380000000000223,175,75
2026-05-09 16:25:54.494,3,-0.36,-1.02,0.5,-2.9853999999999985,1.8349999999999973,0.6761999999999979,175,75
2026-05-09 16:25:54.504,3,-0.36,-1.01,0.5,-2.375399999999999,-1.5150000000000006,-0.29380000000000095,175,75
2026-05-09 16:25:54.515,3,-0.36,-0.98,0.49,-2.865399999999994,-3.775000000000002,-1.0338000000000012,175,75
2026-05-09 16:25:54.548,3,-0.37,-0.97,0.47,-2.9253999999999962,-3.0450000000000017,-1.573800000000002,175,75
2026-05-09 16:25:54.548,3,-0.36,-0.98,0.5,-1.7653999999999996,1.3449999999999989,-1.8838000000000026,175,75
2026-05-09 16:25:54.559,3,-0.33,-0.98,0.53,-1.7653999999999996,-0.2950000000000017,-1.3338000000000019,175,75
2026-05-09 16:25:54.569,3,-0.35,-0.99,0.5,-2.1953999999999922,-1.5750000000000028,1.4061999999999983,175,75
2026-05-09 16:25:54.582,3,-0.39,-1.08,0.52,-6.215399999999988,1.4149999999999991,2.3861999999999988,175,75
2026-05-09 16:25:54.596,3,-0.3,-0.94,0.46,2.684600000000003,2.6950000000000003,-5.903800000000002,175,75
2026-05-09 16:25:54.596,3,-0.3,-1.03,0.55,-1.0353999999999957,4.704999999999998,3.9061999999999983,175,75
2026-05-09 16:25:54.629,3,-0.38,-1.0,0.44,1.5246000000000066,0.9249999999999972,-0.29380000000000095,175,75
2026-05-09 16:25:54.641,3,-0.36,-0.98,0.5,1.7646000000000015,7.384999999999998,-0.543800000000001,175,75
2026-05-09 16:25:54.641,3,-0.32,-0.98,0.54,1.8946000000000112,1.7149999999999999,0.4361999999999977,175,75
2026-05-09 16:25:54.653,3,-0.37,-0.99,0.51,0.8546000000000049,-1.0250000000000021,2.206199999999999,175,75
2026-05-09 16:25:54.684,3,-0.36,-1.01,0.49,0.9746000000000095,-0.1750000000000007,1.1661999999999981,175,75
2026-05-09 16:25:54.694,3,-0.39,-0.98,0.46,2.5046000000000106,-0.2950000000000017,-0.9038000000000022,175,75
2026-05-09 16:25:54.703,3,-0.36,-0.99,0.53,4.024600000000007,1.5350000000000001,0.1861999999999977,175,75
2026-05-09 16:25:54.714,3,-0.35,-1.06,0.52,-0.4853999999999985,-4.385000000000002,-0.11380000000000123,175,75
2026-05-09 16:25:54.737,3,-0.4,-1.0,0.46,3.904600000000002,-2.0650000000000013,-4.013800000000002,175,75
2026-05-09 16:25:54.747,3,-0.34,-0.98,0.51,3.5946,3.6050000000000004,-1.573800000000002,175,75
2026-05-09 16:25:54.758,3,-0.34,-0.99,0.52,3.0446000000000026,0.49499999999999744,0.12619999999999898,175,75
2026-05-09 16:25:54.758,3,-0.37,-1.0,0.51,3.2946000000000026,-2.615000000000002,-1.6438000000000024,175,75
2026-05-09 16:25:54.768,3,-0.36,-1.0,0.51,3.904600000000002,-1.0250000000000021,-2.793800000000001,175,75
2026-05-09 16:25:54.779,3,-0.35,-0.99,0.51,4.024600000000007,-3.1050000000000004,-2.3138000000000023,175,75
2026-05-09 16:25:54.788,3,-0.37,-0.98,0.49,3.8446,-7.555,-2.373800000000001,175,75
2026-05-09 16:25:54.811,3,-0.41,-1.0,0.46,4.084600000000009,-7.305,-4.1438000000000015,175,75
2026-05-09 16:25:54.831,3,-0.36,-0.99,0.47,6.0946,0.125,-4.993800000000002,175,75
2026-05-09 16:25:54.845,3,-0.31,-0.99,0.54,5.7346,2.384999999999998,-2.0638000000000023,175,75
2026-05-09 16:25:54.855,3,-0.32,-1.0,0.57,4.2646000000000015,-1.0250000000000021,-0.29380000000000095,175,75
2026-05-09 16:25:54.865,3,-0.35,-1.0,0.52,4.024600000000007,-6.215,-3.283800000000002,175,75
2026-05-09 16:25:54.876,3,-0.35,-0.99,0.5,3.8446,-5.055,-2.793800000000001,175,75
2026-05-09 16:25:54.889,3,-0.37,-0.99,0.49,3.354600000000005,-4.935000000000002,-1.6438000000000024,175,75
2026-05-09 16:25:54.901,3,-0.39,-1.0,0.49,3.4746000000000095,-3.525000000000002,-2.243800000000002,175,75
2026-05-09 16:25:54.913,3,-0.33,-1.0,0.53,4.084600000000009,-1.7650000000000006,-3.7738000000000014,175,75
2026-05-09 16:25:54.927,3,-0.33,-0.99,0.54,3.354600000000005,-4.685000000000002,-2.793800000000001,175,75
2026-05-09 16:25:54.927,3,-0.35,-1.0,0.53,3.2946000000000026,-5.484999999999999,-2.6738000000000017,175,75
2026-05-09 16:25:54.940,3,-0.34,-1.01,0.53,3.0446000000000026,-5.665000000000003,-3.7738000000000014,175,75
2026-05-09 16:25:54.986,3,-0.35,-0.99,0.51,1.6446000000000112,-7.855,-2.3138000000000023,175,75
2026-05-09 16:25:54.996,3,-0.34,-0.99,0.52,1.9545999999999992,-5.355,-1.6438000000000024,175,75
2026-05-09 16:25:55.004,3,-0.34,-0.99,0.52,1.404600000000002,-5.665000000000003,-1.2738000000000014,175,75
2026-05-09 16:25:55.029,3,-0.32,-0.99,0.53,1.7646000000000015,-3.1650000000000027,-0.7238000000000024,175,75
2026-05-09 16:25:55.039,3,-0.31,-0.99,0.54,1.2246000000000095,-3.2250000000000014,0.1861999999999977,175,75
2026-05-09 16:25:55.050,3,-0.32,-0.99,0.54,0.9146000000000072,-3.585000000000001,0.9861999999999984,175,75
2026-05-09 16:25:55.083,3,-0.35,-0.99,0.52,0.24460000000000548,-4.195,1.956199999999999,175,75
2026-05-09 16:25:55.095,3,-0.34,-0.98,0.52,0.5446000000000026,-0.3550000000000004,2.0761999999999983,175,75
2026-05-09 16:25:55.107,3,-0.33,-0.99,0.55,-0.12539999999999907,-1.8850000000000016,3.426199999999998,175,75
2026-05-09 16:25:55.118,3,-0.34,-1.01,0.53,-0.7954000000000008,-3.835000000000001,3.4861999999999984,175,75
2026-05-09 16:25:55.128,3,-0.36,-1.0,0.51,-0.5454000000000008,-3.1050000000000004,2.996199999999998,175,75
2026-05-09 16:25:55.128,3,-0.36,-0.99,0.51,-0.2453999999999894,-1.1550000000000011,2.506199999999998,175,75
2026-05-09 16:25:55.153,3,-0.34,-0.99,0.53,-0.3053999999999917,-0.4150000000000027,2.1461999999999986,175,75
2026-05-09 16:25:55.180,3,-0.36,-0.99,0.53,-0.4853999999999985,-2.375,2.4461999999999975,175,75
2026-05-09 16:25:55.191,3,-0.39,-1.0,0.49,-0.6653999999999911,-4.565000000000001,2.3261999999999983,175,75
2026-05-09 16:25:55.191,3,-0.39,-1.01,0.48,-0.2453999999999894,-0.8450000000000024,0.9861999999999984,175,75
2026-05-09 16:25:55.211,3,-0.36,-1.0,0.51,-0.36539999999999395,1.9549999999999983,0.376199999999999,175,75
2026-05-09 16:25:55.211,3,-0.37,-1.0,0.54,0.24460000000000548,3.3649999999999984,0.1861999999999977,175,75
2026-05-09 16:25:55.221,3,-0.38,-1.01,0.53,-1.7053999999999974,-1.6350000000000016,-0.8438000000000017,175,75
2026-05-09 16:25:55.234,3,-0.41,-1.0,0.48,-1.7653999999999996,0.375,-2.0638000000000023,175,75
2026-05-09 16:25:55.246,3,-0.36,-0.98,0.52,-1.345399999999998,7.384999999999998,-0.6038000000000014,175,75
2026-05-09 16:25:55.267,3,-0.36,-0.98,0.53,-2.7453999999999894,4.395,0.8561999999999976,175,75
2026-05-09 16:25:55.294,3,-0.39,-0.98,0.48,-2.6854000000000013,8.725000000000001,3.4861999999999984,175,75
2026-05-09 16:25:55.305,3,-0.34,-1.01,0.51,-1.8253999999999877,15.064999999999998,2.1461999999999986,175,75
2026-05-09 16:25:55.328,3,-0.31,-1.03,0.56,-1.8253999999999877,13.545000000000002,1.5361999999999973,175,75
2026-05-09 16:25:55.334,3,-0.31,-1.0,0.57,-4.575399999999988,-0.054999999999999716,2.3861999999999988,175,75
2026-05-09 16:25:55.364,3,-0.35,-0.98,0.5,-4.935400000000001,0.8049999999999997,2.756199999999998,175,75
2026-05-09 16:25:55.381,3,-0.34,-0.98,0.5,-4.455399999999997,3.4849999999999994,4.096199999999998,175,75
2026-05-09 16:25:55.393,3,-0.34,-0.99,0.51,-4.695399999999992,3.844999999999999,4.706199999999999,175,75
2026-05-09 16:25:55.393,3,-0.36,-1.0,0.52,-5.185400000000001,1.7749999999999986,4.6461999999999986,175,75
2026-05-09 16:25:55.402,3,-0.37,-0.99,0.51,-4.995399999999989,1.5350000000000001,5.3161999999999985,175,75
2026-05-09 16:25:55.425,3,-0.36,-0.98,0.51,-4.935400000000001,1.6549999999999976,5.856199999999998,175,75
2026-05-09 16:25:55.425,3,-0.37,-0.97,0.51,-4.815399999999997,2.0849999999999973,6.716199999999997,175,75
2026-05-09 16:25:55.436,3,-0.36,-0.97,0.52,-4.575399999999988,2.4450000000000003,7.146199999999997,175,75
2026-05-09 16:25:55.436,3,-0.34,-1.0,0.55,-5.305399999999992,-1.1550000000000011,5.926199999999998,175,75
2026-05-09 16:25:55.447,3,-0.34,-0.99,0.53,-6.7654,-5.175000000000001,5.926199999999998,175,75
2026-05-09 16:25:55.475,3,-0.37,-0.98,0.49,-5.245399999999989,-4.685000000000002,4.886199999999999,175,75
2026-05-09 16:25:55.486,3,-0.36,-0.98,0.49,-4.5154,-2.9849999999999994,4.886199999999999,175,75
2026-05-09 16:25:55.488,3,-0.35,-0.99,0.5,-4.205399999999997,-2.0050000000000026,4.9461999999999975,175,75
2026-05-09 16:25:55.509,3,-0.35,-1.0,0.51,-2.6854000000000013,-0.7250000000000014,2.6861999999999977,175,75
2026-05-09 16:25:55.535,3,-0.34,-0.99,0.53,-2.625399999999999,-0.8450000000000024,1.8961999999999986,175,75
2026-05-09 16:25:55.545,3,-0.34,-0.99,0.52,-2.865399999999994,-2.9150000000000027,1.2861999999999973,175,75
2026-05-09 16:25:55.550,3,-0.36,-1.0,0.51,-2.8053999999999917,-5.355,0.9261999999999979,175,75
2026-05-09 16:25:55.582,3,-0.36,-0.99,0.5,-1.095399999999998,-1.6950000000000003,0.006199999999997985,175,75
2026-05-09 16:25:55.594,3,-0.38,-0.99,0.49,-1.345399999999998,-3.1650000000000027,-0.6038000000000014,175,75
2026-05-09 16:25:55.627,3,-0.38,-1.01,0.48,-0.18540000000000134,1.1649999999999991,-0.7238000000000024,175,75
2026-05-09 16:25:55.634,3,-0.37,-1.0,0.5,-0.4853999999999985,0.5549999999999997,-0.35380000000000145,175,75
2026-05-09 16:25:55.656,3,-0.37,-0.99,0.5,-0.9753999999999934,-2.6750000000000007,-1.0938000000000017,175,75
2026-05-09 16:25:55.671,3,-0.36,-0.99,0.49,-0.6053999999999888,-3.3450000000000024,-1.0938000000000017,175,75
2026-05-09 16:25:55.686,3,-0.37,-0.99,0.49,-0.6653999999999911,-2.125,-1.1538000000000022,175,75
2026-05-09 16:25:55.691,3,-0.37,-0.99,0.49,-0.4253999999999962,-2.3049999999999997,-0.8438000000000017,175,75
2026-05-09 16:25:55.730,3,-0.37,-0.99,0.49,0.004600000000010596,0.7349999999999994,-1.5138000000000016,175,75
2026-05-09 16:25:55.750,3,-0.36,-1.0,0.51,-0.0653999999999968,-0.054999999999999716,-1.8838000000000026,175,75
2026-05-09 16:25:55.750,3,-0.36,-0.99,0.51,-0.4853999999999985,-0.9050000000000011,-1.9438000000000013,175,75
2026-05-09 16:25:55.761,3,-0.35,-0.99,0.51,0.06459999999999866,-0.8450000000000024,-2.5538000000000025,175,75
2026-05-09 16:25:55.781,3,-0.34,-0.99,0.5,0.36460000000001,-0.8450000000000024,-2.793800000000001,175,75
2026-05-09 16:25:55.798,3,-0.36,-0.99,0.5,1.2846000000000117,0.125,-3.4638000000000018,175,75
2026-05-09 16:25:55.826,3,-0.39,-1.0,0.48,1.3445999999999998,0.9849999999999994,-2.9238000000000017,175,75
2026-05-09 16:25:55.845,3,-0.38,-1.01,0.49,1.404600000000002,2.9949999999999974,-3.533800000000002,175,75
2026-05-09 16:25:55.856,3,-0.35,-0.99,0.51,1.0346000000000117,2.4450000000000003,-3.403800000000002,175,75
2026-05-09 16:25:55.876,3,-0.35,-0.99,0.5,1.154600000000002,1.6549999999999976,-4.6838000000000015,175,75
2026-05-09 16:25:55.894,3,-0.34,-0.99,0.5,0.9746000000000095,1.9549999999999983,-4.743800000000002,175,75
2026-05-09 16:25:55.905,3,-0.34,-0.99,0.5,0.9746000000000095,1.4149999999999991,-4.443800000000002,175,75
2026-05-09 16:25:55.915,3,-0.35,-0.99,0.51,0.7346000000000004,0.6749999999999972,-4.073800000000002,175,75
2026-05-09 16:25:55.930,3,-0.34,-0.98,0.51,1.2846000000000117,1.6549999999999976,-3.833800000000002,175,75
2026-05-09 16:25:55.958,3,-0.34,-1.0,0.5,0.61460000000001,4.645,-1.6438000000000024,175,75
2026-05-09 16:25:55.967,3,-0.33,-1.0,0.51,0.12460000000000093,3.844999999999999,-0.7838000000000012,175,75
2026-05-09 16:25:55.988,3,-0.33,-0.99,0.52,-0.36539999999999395,2.6950000000000003,-0.29380000000000095,175,75
2026-05-09 16:25:55.988,3,-0.33,-0.99,0.52,-0.4853999999999985,0.8649999999999984,0.06619999999999848,175,75
2026-05-09 16:25:56.005,3,-0.33,-0.99,0.5,-1.095399999999998,-0.3550000000000004,0.9261999999999979,175,75
2026-05-09 16:25:56.013,3,-0.33,-0.99,0.51,-1.095399999999998,0.19500000000000028,0.8561999999999976,175,75
2026-05-09 16:25:56.029,3,-0.33,-0.99,0.51,-1.2753999999999905,-0.6650000000000027,1.5361999999999973,175,75
2026-05-09 16:25:56.040,3,-0.34,-0.99,0.51,-1.8253999999999877,-2.7349999999999994,1.5361999999999973,175,75
2026-05-09 16:25:56.052,3,-0.36,-0.99,0.48,-2.4354000000000013,-4.445,2.5661999999999985,175,75
2026-05-09 16:25:56.073,3,-0.36,-1.01,0.47,-1.5853999999999928,1.5350000000000001,3.9061999999999983,175,75
2026-05-09 16:25:56.073,3,-0.36,-1.01,0.47,-1.7653999999999996,1.8349999999999973,3.846199999999998,175,75
2026-05-09 16:25:56.108,3,-0.34,-0.99,0.52,-1.9553999999999974,-0.9050000000000011,3.966199999999999,175,75
2026-05-09 16:25:56.120,3,-0.35,-0.98,0.5,-2.1953999999999922,-1.2149999999999999,3.9061999999999983,175,75
2026-05-09 16:25:56.152,3,-0.35,-0.99,0.5,-1.5853999999999928,-0.48499999999999943,3.9061999999999983,175,75
2026-05-09 16:25:56.152,3,-0.36,-0.99,0.51,-1.095399999999998,-0.23499999999999943,2.756199999999998,175,75
2026-05-09 16:25:56.169,3,-0.38,-1.0,0.48,-1.8253999999999877,-4.875,1.7161999999999988,175,75
2026-05-09 16:25:56.177,3,-0.41,-1.0,0.44,-1.88539999999999,-3.8949999999999996,2.1461999999999986,175,75
2026-05-09 16:25:56.189,3,-0.39,-1.01,0.45,0.06459999999999866,4.094999999999999,0.9861999999999984,175,75
2026-05-09 16:25:56.213,3,-0.37,-1.0,0.51,-0.9753999999999934,-1.4550000000000018,1.5961999999999978,175,75
2026-05-09 16:25:56.238,3,-0.38,-0.99,0.48,-0.7353999999999985,-1.0850000000000009,0.6161999999999974,175,75
2026-05-09 16:25:56.249,3,-0.37,-0.97,0.48,0.48460000000000036,4.824999999999999,0.9261999999999979,175,75
2026-05-09 16:25:56.269,3,-0.31,-0.99,0.54,1.6446000000000112,8.725000000000001,0.006199999999997985,175,75
2026-05-09 16:25:56.279,3,-0.35,-0.99,0.54,0.1846000000000032,-0.3550000000000004,-0.7838000000000012,175,75
2026-05-09 16:25:56.290,3,-0.41,-1.01,0.47,-0.4853999999999985,-4.565000000000001,-1.2738000000000014,175,75
2026-05-09 16:25:56.309,3,-0.42,-1.02,0.4,2.5645999999999987,4.454999999999998,-2.493800000000002,175,75
2026-05-09 16:25:56.321,3,-0.36,-1.01,0.48,3.2946000000000026,10.555,-3.043800000000002,175,75
2026-05-09 16:25:56.343,3,-0.33,-0.99,0.53,3.11460000000001,6.655000000000001,-1.823800000000002,175,75
2026-05-09 16:25:56.343,3,-0.35,-1.0,0.53,1.6446000000000112,-1.0850000000000009,-2.373800000000001,175,75
2026-05-09 16:25:56.354,3,-0.37,-1.0,0.48,1.6446000000000112,-3.285,-4.013800000000002,175,75
2026-05-09 16:25:56.387,3,-0.37,-1.0,0.49,2.374600000000001,0.5549999999999997,-3.953800000000002,175,75
2026-05-09 16:25:56.406,3,-0.37,-1.0,0.48,2.134600000000006,-1.6950000000000003,-4.503800000000002,175,75
2026-05-09 16:25:56.412,3,-0.37,-1.0,0.47,3.0446000000000026,0.4349999999999987,-4.1438000000000015,175,75
2026-05-09 16:25:56.437,3,-0.35,-1.0,0.5,3.1746000000000123,2.8149999999999977,-4.263800000000002,175,75
2026-05-09 16:25:56.437,3,-0.34,-0.99,0.51,2.7446000000000055,1.1649999999999991,-4.443800000000002,175,75
2026-05-09 16:25:56.447,3,-0.34,-0.99,0.52,1.8946000000000112,-1.1550000000000011,-4.013800000000002,175,75
2026-05-09 16:25:56.459,3,-0.35,-1.0,0.48,1.154600000000002,-4.745000000000001,-3.7138000000000018,175,75
2026-05-09 16:25:56.471,3,-0.38,-1.01,0.46,2.5645999999999987,4.765000000000001,-3.403800000000002,175,75
2026-05-09 16:25:56.482,3,-0.34,-1.0,0.51,2.434600000000003,6.105,-3.8938000000000015,175,75
2026-05-09 16:25:56.523,3,-0.35,-0.99,0.5,-0.36539999999999395,-1.9450000000000003,-2.3138000000000023,175,75
2026-05-09 16:25:56.538,3,-0.35,-1.0,0.49,-0.8553999999999888,-1.3350000000000009,-2.1838000000000015,175,75
2026-05-09 16:25:56.550,3,-0.34,-1.0,0.5,-0.5454000000000008,2.0150000000000006,-0.8438000000000017,175,75
2026-05-09 16:25:56.561,3,-0.32,-0.99,0.52,-0.7353999999999985,0.375,-1.1538000000000022,175,75
2026-05-09 16:25:56.571,3,-0.34,-0.98,0.5,-1.5853999999999928,-1.7650000000000006,-0.35380000000000145,175,75
2026-05-09 16:25:56.593,3,-0.35,-0.99,0.48,-0.8553999999999888,0.375,-0.23380000000000223,175,75
2026-05-09 16:25:56.606,3,-0.34,-0.99,0.5,-0.6053999999999888,1.4149999999999991,0.4361999999999977,175,75
2026-05-09 16:25:56.636,3,-0.34,-0.99,0.5,-0.4253999999999962,0.3149999999999977,0.3161999999999985,175,75
2026-05-09 16:25:56.670,3,-0.38,-1.01,0.46,0.4246000000000123,-0.9050000000000011,-0.8438000000000017,175,75
2026-05-09 16:25:56.680,3,-0.36,-1.01,0.48,1.5246000000000066,1.1050000000000004,-2.0638000000000023,175,75
2026-05-09 16:25:56.696,3,-0.34,-1.0,0.5,1.7045999999999992,-0.3550000000000004,-1.9438000000000013,175,75
2026-05-09 16:25:56.750,3,-0.36,-1.0,0.46,2.2546000000000106,-1.7650000000000006,-2.8538000000000014,175,75
2026-05-09 16:25:56.763,3,-0.32,-0.98,0.49,3.1746000000000123,7.5049999999999955,-1.2138000000000027,175,75
2026-05-09 16:25:56.776,3,-0.31,-1.0,0.53,3.904600000000002,3.424999999999997,-2.123800000000001,175,75
2026-05-09 16:25:56.801,3,-0.29,-1.01,0.54,4.024600000000007,0.7349999999999994,-3.283800000000002,175,75
2026-05-09 16:25:56.801,3,-0.3,-0.98,0.54,3.8446,-3.0450000000000017,-1.9438000000000013,175,75
2026-05-09 16:25:56.824,3,-0.31,-0.98,0.54,6.0946,5.614999999999998,0.376199999999999,175,75
2026-05-09 16:25:56.839,3,-0.32,-0.99,0.52,5.7346,5.924999999999997,2.0161999999999978,175,75
2026-05-09 16:25:56.845,3,-0.35,-1.02,0.48,6.524600000000007,2.0849999999999973,0.376199999999999,175,75
2026-05-09 16:25:56.854,3,-0.4,-1.03,0.46,7.7446000000000055,-0.054999999999999716,-1.1538000000000022,175,75
2026-05-09 16:25:56.865,3,-0.4,-1.04,0.44,8.174600000000012,2.0849999999999973,-2.1838000000000015,175,75
2026-05-09 16:25:56.878,3,-0.4,-1.03,0.45,9.024600000000007,1.8949999999999996,-3.953800000000002,175,75
2026-05-09 16:25:56.906,3,-0.4,-1.01,0.47,9.75460000000001,1.8949999999999996,-6.273800000000001,175,75
2026-05-09 16:25:56.943,3,-0.38,-1.0,0.48,10.544600000000003,-2.3049999999999997,-8.833800000000002,175,75
2026-05-09 16:25:56.954,3,-0.34,-0.99,0.52,10.064599999999999,-2.4350000000000023,-8.403800000000002,175,75
2026-05-09 16:25:56.962,3,-0.34,-0.99,0.53,9.264600000000002,-5.295000000000002,-9.013800000000002,175,75
2026-05-09 16:25:56.972,3,-0.36,-0.99,0.52,9.144600000000011,-8.465,-9.873800000000003,175,75
2026-05-09 16:25:56.983,3,-0.36,-1.01,0.5,9.75460000000001,-6.155000000000001,-11.573800000000002,175,75
2026-05-09 16:25:56.996,3,-0.32,-1.0,0.51,9.814599999999999,-2.9150000000000027,-11.033800000000001,175,75
2026-05-09 16:25:57.027,3,-0.34,-1.0,0.53,8.5946,-8.105,-11.763800000000002,175,75
2026-05-09 16:25:57.041,3,-0.35,-0.99,0.52,8.72460000000001,-6.765000000000001,-11.763800000000002,175,75
2026-05-09 16:25:57.078,3,-0.28,-0.99,0.59,7.314599999999999,0.3149999999999977,-7.1838000000000015,175,75
2026-05-09 16:25:57.093,3,-0.31,-1.0,0.55,5.794600000000003,-0.11500000000000199,-7.1838000000000015,175,75
2026-05-09 16:25:57.108,3,-0.3,-1.0,0.54,5.184600000000003,-0.1750000000000007,-7.4338000000000015,175,75
2026-05-09 16:25:57.138,3,-0.29,-1.0,0.56,5.004600000000011,0.5549999999999997,-6.763800000000002,175,75
2026-05-09 16:25:57.138,3,-0.29,-0.99,0.57,3.414600000000007,-2.615000000000002,-5.3538000000000014,175,75
2026-05-09 16:25:57.149,3,-0.3,-1.0,0.55,2.9846000000000004,-0.9649999999999999,-5.233800000000002,175,75
2026-05-09 16:25:57.161,3,-0.28,-0.99,0.56,2.5046000000000106,-0.6050000000000004,-5.293800000000002,175,75
2026-05-09 16:25:57.187,3,-0.28,-1.0,0.57,1.404600000000002,-1.8250000000000028,-3.7138000000000018,175,75
2026-05-09 16:25:57.187,3,-0.29,-1.0,0.56,0.24460000000000548,-2.4350000000000023,-3.653800000000002,175,75
2026-05-09 16:25:57.197,3,-0.3,-0.99,0.54,0.30460000000000775,-1.6350000000000016,-3.4638000000000018,175,75
2026-05-09 16:25:57.208,3,-0.3,-0.99,0.54,-0.0653999999999968,0.9849999999999994,-2.493800000000002,175,75
2026-05-09 16:25:57.255,3,-0.29,-1.01,0.56,-1.095399999999998,-2.0050000000000026,-2.1838000000000015,175,75
2026-05-09 16:25:57.270,3,-0.29,-1.01,0.55,-1.7653999999999996,-1.5150000000000006,-2.243800000000002,175,75
2026-05-09 16:25:57.270,3,-0.28,-1.0,0.54,-1.7053999999999974,-1.3350000000000009,-1.703800000000001,175,75
2026-05-09 16:25:57.289,3,-0.28,-1.0,0.55,-2.0153999999999996,-1.6950000000000003,-1.5138000000000016,175,75
2026-05-09 16:25:57.296,3,-0.28,-1.0,0.55,-1.9553999999999974,-2.375,-0.48380000000000223,175,75
2026-05-09 16:25:57.328,3,-0.28,-0.99,0.54,-1.7053999999999974,-0.8450000000000024,0.006199999999997985,175,75
2026-05-09 16:25:57.328,3,-0.28,-1.0,0.54,-1.5253999999999905,-1.2149999999999999,0.12619999999999898,175,75
2026-05-09 16:25:57.343,3,-0.29,-1.0,0.55,-1.345399999999998,-0.5450000000000017,0.9861999999999984,175,75
2026-05-09 16:25:57.367,3,-0.32,-1.0,0.52,-1.345399999999998,-4.565000000000001,-0.35380000000000145,175,75
2026-05-09 16:25:57.378,3,-0.34,-1.01,0.49,-0.6653999999999911,-4.195,-0.48380000000000223,175,75
2026-05-09 16:25:57.389,3,-0.31,-1.0,0.52,1.0945999999999998,2.2049999999999983,-1.823800000000002,175,75
2026-05-09 16:25:57.402,3,-0.27,-0.99,0.56,0.61460000000001,-0.11500000000000199,-0.17380000000000173,175,75
2026-05-09 16:25:57.428,3,-0.3,-1.0,0.56,-0.4853999999999985,-3.655000000000001,-0.6638000000000019,175,75
2026-05-09 16:25:57.439,3,-0.31,-1.0,0.52,-0.36539999999999395,-5.295000000000002,-2.4338000000000015,175,75
2026-05-09 16:25:57.450,3,-0.34,-1.01,0.52,0.12460000000000093,-8.165000000000003,-4.263800000000002,175,75
2026-05-09 16:25:57.472,3,-0.28,-1.01,0.53,1.584600000000009,-3.0450000000000017,-4.443800000000002,175,75
2026-05-09 16:25:57.483,3,-0.26,-1.0,0.56,1.154600000000002,-4.195,-2.6138000000000012,175,75
2026-05-09 16:25:57.494,3,-0.36,-1.01,0.5,-2.0753999999999877,-19.685000000000002,-4.013800000000002,175,75
2026-05-09 16:25:57.505,3,-0.36,-1.02,0.44,-0.5454000000000008,-12.185,-5.293800000000002,175,75
2026-05-09 16:25:57.521,3,-0.33,-1.02,0.47,-0.3053999999999917,1.0449999999999982,-2.003800000000002,175,75
2026-05-09 16:25:57.544,3,-0.23,-1.01,0.62,-0.2453999999999894,5.125,-1.3338000000000019,175,75
2026-05-09 16:25:57.544,3,-0.23,-0.99,0.63,-1.2753999999999905,-1.1550000000000011,-1.2138000000000027,175,75
2026-05-09 16:25:57.574,3,-0.23,-0.98,0.6,-2.315399999999997,-4.445,-1.0938000000000017,175,75
2026-05-09 16:25:57.574,3,-0.28,-0.97,0.56,-2.625399999999999,-6.635000000000002,-0.7238000000000024,175,75
2026-05-09 16:25:57.583,3,-0.31,-0.99,0.51,-2.375399999999999,-2.3049999999999997,-1.0938000000000017,175,75
2026-05-09 16:25:57.606,3,-0.28,-1.01,0.52,-1.1554000000000002,4.765000000000001,-0.42380000000000173,175,75
2026-05-09 16:25:57.606,3,-0.25,-1.0,0.57,-0.36539999999999395,5.805,-0.11380000000000123,175,75
2026-05-09 16:25:57.616,3,-0.24,-1.0,0.6,-0.9753999999999934,2.1449999999999996,-0.6038000000000014,175,75
2026-05-09 16:25:57.632,3,-0.24,-0.99,0.59,-2.13539999999999,-3.775000000000002,-0.29380000000000095,175,75
2026-05-09 16:25:57.658,3,-0.28,-0.98,0.53,-2.625399999999999,-6.025000000000002,1.1061999999999976,175,75
2026-05-09 16:25:57.671,3,-0.3,-0.99,0.5,-1.4653999999999883,0.5549999999999997,1.3461999999999978,175,75
2026-05-09 16:25:57.682,3,-0.28,-0.98,0.53,-1.095399999999998,4.824999999999999,2.4461999999999975,175,75
2026-05-09 16:25:57.705,3,-0.25,-0.99,0.57,-0.18540000000000134,1.8349999999999973,2.206199999999999,175,75
2026-05-09 16:25:57.724,3,-0.24,-0.99,0.57,-0.2453999999999894,0.5549999999999997,2.3261999999999983,175,75
2026-05-09 16:25:57.739,3,-0.29,-0.99,0.52,-0.18540000000000134,-1.2750000000000021,2.626199999999999,175,75
2026-05-09 16:25:57.751,3,-0.29,-1.0,0.53,2.2546000000000106,4.515000000000001,1.1061999999999976,175,75
2026-05-09 16:25:57.762,3,-0.31,-1.0,0.53,2.1946000000000083,2.0849999999999973,1.6561999999999983,175,75
2026-05-09 16:25:57.825,3,-0.29,-0.99,0.56,3.2946000000000026,-1.0250000000000021,-1.0338000000000012,175,75
2026-05-09 16:25:57.836,3,-0.28,-0.99,0.54,4.334600000000009,-1.6950000000000003,-2.6738000000000017,175,75
2026-05-09 16:25:57.847,3,-0.27,-0.98,0.54,5.544600000000003,0.7349999999999994,-3.533800000000002,175,75
2026-05-09 16:25:57.847,3,-0.26,-0.98,0.54,6.154600000000002,1.8949999999999996,-2.373800000000001,175,75
2026-05-09 16:25:57.863,3,-0.26,-0.99,0.55,6.284600000000012,1.4749999999999979,-3.5938000000000017,175,75
2026-05-09 16:25:57.911,3,-0.3,-0.99,0.51,7.434600000000003,-1.8250000000000028,-1.5138000000000016,175,75
2026-05-09 16:25:57.932,3,-0.32,-1.03,0.49,8.294600000000003,2.6950000000000003,0.4961999999999982,175,75
2026-05-09 16:25:57.943,3,-0.3,-1.04,0.52,9.024600000000007,8.604999999999997,-1.2138000000000027,175,75
2026-05-09 16:25:57.954,3,-0.27,-1.0,0.58,9.814599999999999,2.8149999999999977,-2.7338000000000022,175,75
2026-05-09 16:25:57.964,3,-0.31,-1.0,0.55,8.8446,-2.615000000000002,-3.533800000000002,175,75
2026-05-09 16:25:57.994,3,-0.38,-1.0,0.48,9.264600000000002,-2.9150000000000027,-5.783800000000002,175,75
2026-05-09 16:25:57.994,3,-0.34,-1.0,0.48,11.154600000000002,4.515000000000001,-6.273800000000001,175,75
2026-05-09 16:25:58.005,3,-0.28,-1.0,0.54,12.074600000000004,9.585,-5.423800000000002,175,75
2026-05-09 16:25:58.043,3,-0.27,-0.99,0.59,10.124600000000001,-0.9649999999999999,-5.423800000000002,175,75
2026-05-09 16:25:58.043,3,-0.28,-0.99,0.56,10.304600000000008,0.375,-5.233800000000002,175,75
2026-05-09 16:25:58.050,3,-0.28,-0.99,0.55,9.934600000000003,3.3649999999999984,-5.293800000000002,175,75
2026-05-09 16:25:58.061,3,-0.28,-0.99,0.57,9.75460000000001,4.824999999999999,-4.443800000000002,175,75
2026-05-09 16:25:58.073,3,-0.27,-0.99,0.58,9.814599999999999,7.5049999999999955,-2.793800000000001,175,75
2026-05-09 16:25:58.087,3,-0.26,-1.0,0.59,9.394600000000011,7.204999999999998,-3.1038000000000014,175,75
2026-05-09 16:25:58.097,3,-0.26,-0.99,0.59,9.084600000000009,5.555,-2.9238000000000017,175,75
2026-05-09 16:25:58.109,3,-0.29,-0.99,0.57,8.2346,4.154999999999998,-3.1038000000000014,175,75
2026-05-09 16:25:58.121,3,-0.28,-1.0,0.56,7.804600000000008,5.434999999999999,-2.8538000000000014,175,75
2026-05-09 16:25:58.136,3,-0.28,-0.99,0.55,8.174600000000012,8.604999999999997,-1.453800000000001,175,75
2026-05-09 16:25:58.136,3,-0.28,-0.99,0.57,8.47460000000001,10.494999999999997,-0.543800000000001,175,75
2026-05-09 16:25:58.163,3,-0.27,-0.99,0.56,8.8446,12.204999999999998,1.1061999999999976,175,75
2026-05-09 16:25:58.180,3,-0.28,-1.0,0.57,9.514600000000002,16.345,1.1061999999999976,175,75
2026-05-09 16:25:58.191,3,-0.27,-1.0,0.59,9.75460000000001,16.345,0.9861999999999984,175,75
2026-05-09 16:25:58.208,3,-0.28,-1.0,0.61,8.414600000000007,13.115000000000002,0.6161999999999974,175,75
2026-05-09 16:25:58.219,3,-0.28,-0.99,0.6,8.294600000000003,13.844999999999999,1.046199999999999,175,75
2026-05-09 16:25:58.250,3,-0.28,-0.98,0.61,7.7446000000000055,14.454999999999998,2.2661999999999978,175,75
2026-05-09 16:25:58.261,3,-0.29,-0.98,0.6,6.524600000000007,14.824999999999996,2.6861999999999977,175,75
2026-05-09 16:25:58.302,3,-0.28,-0.99,0.62,7.924600000000012,25.375,6.1662,175,75
2026-05-09 16:25:58.313,3,-0.31,-0.97,0.61,7.624600000000001,24.275,5.796199999999999,175,75
2026-05-09 16:25:58.339,3,-0.28,-0.98,0.63,7.804600000000008,36.595,7.5661999999999985,175,75
2026-05-09 16:25:58.350,3,-0.27,-0.98,0.67,7.504600000000011,28.424999999999997,5.856199999999998,175,75
2026-05-09 16:25:58.362,3,-0.3,-1.0,0.62,5.2446000000000055,18.055,3.9061999999999983,175,75
2026-05-09 16:25:58.386,3,-0.27,-0.97,0.64,0.7346000000000004,14.824999999999996,2.996199999999998,175,75
2026-05-09 16:25:58.399,3,-0.26,-0.95,0.62,-1.8253999999999877,9.945,2.876199999999999,175,75
2026-05-09 16:25:58.399,3,-0.27,-0.96,0.6,-3.0454000000000008,7.204999999999998,3.1161999999999974,175,75
2026-05-09 16:25:58.430,3,-0.27,-1.01,0.61,-4.455399999999997,7.324999999999996,4.336199999999998,175,75
2026-05-09 16:25:58.430,3,-0.26,-1.05,0.63,-6.345399999999998,5.494999999999997,6.716199999999997,175,75
2026-05-09 16:25:58.458,3,-0.27,-0.98,0.63,-6.955399999999997,3.424999999999997,9.576199999999996,175,75
2026-05-09 16:25:58.492,3,-0.33,-0.96,0.55,-7.805399999999992,4.884999999999998,10.066199999999998,175,75
2026-05-09 16:25:58.517,3,-0.3,-0.99,0.6,-5.185400000000001,20.494999999999997,12.446199999999997,175,75
2026-05-09 16:25:58.528,3,-0.35,-1.01,0.58,-9.575399999999988,10.125,11.836199999999998,175,75
2026-05-09 16:25:58.573,3,-0.3,-0.97,0.65,-11.345399999999998,10.615000000000002,14.706199999999999,175,75
2026-05-09 16:25:58.599,3,-0.36,-1.0,0.57,-14.755399999999995,7.324999999999996,15.556199999999997,175,75
2026-05-09 16:25:58.610,3,-0.35,-1.0,0.56,-13.845399999999998,9.585,14.826199999999996,175,75
2026-05-09 16:25:58.611,3,-0.32,-1.0,0.58,-14.02539999999999,11.344999999999999,14.826199999999996,175,75
2026-05-09 16:25:58.649,3,-0.34,-0.97,0.58,-15.5454,11.655000000000001,21.406199999999995,175,75
2026-05-09 16:25:58.649,3,-0.35,-0.97,0.58,-15.5454,11.165,21.1662,175,75
2026-05-09 16:25:58.668,3,-0.34,-0.97,0.57,-15.975399999999993,8.665,22.2062,175,75
2026-05-09 16:25:58.679,3,-0.34,-1.0,0.56,-16.4054,7.265000000000001,22.8762,175,75
2026-05-09 16:25:58.690,3,-0.34,-1.0,0.57,-16.035399999999996,7.384999999999998,23.176199999999998,175,75
2026-05-09 16:25:58.704,3,-0.35,-0.99,0.59,-17.075399999999988,5.375,24.4562,175,75
2026-05-09 16:25:58.717,3,-0.36,-0.99,0.58,-17.80539999999999,1.2249999999999979,24.0962,175,75
2026-05-09 16:25:58.729,3,-0.4,-0.99,0.57,-17.9854,-2.1850000000000023,23.176199999999998,175,75
2026-05-09 16:25:58.729,3,-0.41,-1.01,0.56,-18.0454,-2.1850000000000023,22.2062,175,75
2026-05-09 16:25:58.739,3,-0.39,-1.0,0.57,-17.925399999999996,-0.1750000000000007,20.856199999999998,175,75
2026-05-09 16:25:58.752,3,-0.38,-0.99,0.58,-19.02539999999999,-4.445,19.4562,175,75
2026-05-09 16:25:58.762,3,-0.44,-0.97,0.52,-20.1854,-11.215000000000002,19.7062,175,75
2026-05-09 16:25:58.773,3,-0.51,-0.97,0.45,-19.085399999999993,-12.125000000000002,19.1562,175,75
2026-05-09 16:25:58.783,3,-0.53,-0.98,0.42,-15.735399999999998,-7.495000000000001,13.786199999999997,175,75
2026-05-09 16:25:58.793,3,-0.47,-0.96,0.43,-13.475399999999993,-5.115000000000002,11.286199999999997,175,75
2026-05-09 16:25:58.812,3,-0.47,-0.98,0.47,-12.195399999999992,-2.6750000000000007,11.1662,175,75
2026-05-09 16:25:58.823,3,-0.48,-1.01,0.48,-11.1554,-3.655000000000001,8.356199999999998,175,75
2026-05-09 16:25:58.837,3,-0.45,-1.01,0.46,-10.975399999999993,-10.235000000000001,4.576199999999998,175,75
2026-05-09 16:25:58.849,3,-0.48,-1.0,0.45,-8.475399999999993,-7.495000000000001,4.516199999999998,175,75
2026-05-09 16:25:58.858,3,-0.48,-1.0,0.49,-7.315399999999997,-6.455000000000002,1.1061999999999976,175,75
2026-05-09 16:25:58.872,3,-0.49,-1.0,0.48,-9.2654,-19.685000000000002,-4.013800000000002,175,75
2026-05-09 16:25:58.883,3,-0.49,-1.0,0.42,-9.935400000000001,-23.105,-5.293800000000002,175,75
2026-05-09 16:25:58.893,3,-0.45,-1.0,0.41,-6.825399999999988,-12.305000000000001,-5.3538000000000014,175,75
2026-05-09 16:25:58.905,3,-0.44,-0.97,0.5,-5.545400000000001,0.06499999999999773,1.5961999999999978,175,75
2026-05-09 16:25:58.917,3,-0.46,-0.97,0.52,-6.345399999999998,-1.6950000000000003,0.1861999999999977,175,75
2026-05-09 16:25:58.930,3,-0.43,-0.99,0.5,-6.825399999999988,-3.1650000000000027,-2.793800000000001,175,75
2026-05-09 16:25:58.940,3,-0.41,-1.0,0.5,-6.645399999999995,-2.4350000000000023,-2.5538000000000025,175,75
2026-05-09 16:25:58.958,3,-0.42,-1.01,0.52,-6.2753999999999905,0.9249999999999972,-2.8538000000000014,175,75
2026-05-09 16:25:58.972,3,-0.42,-0.96,0.53,-6.035399999999996,-5.355,-5.543800000000002,175,75
2026-05-09 16:25:58.991,3,-0.42,-0.96,0.48,-7.565399999999997,-10.115000000000002,-5.543800000000002,175,75
2026-05-09 16:25:59.002,3,-0.46,-0.97,0.45,-5.975399999999993,2.2049999999999983,-4.013800000000002,175,75
2026-05-09 16:25:59.022,3,-0.41,-0.97,0.5,-5.365399999999994,6.224999999999998,-4.323800000000002,175,75
2026-05-09 16:25:59.033,3,-0.35,-0.96,0.53,-5.665399999999991,2.0150000000000006,-4.443800000000002,175,75
2026-05-09 16:25:59.033,3,-0.37,-0.96,0.52,-4.995399999999989,-2.375,-3.533800000000002,175,75
2026-05-09 16:25:59.044,3,-0.33,-0.98,0.53,-3.355399999999989,1.6549999999999976,-7.1838000000000015,175,75
2026-05-09 16:25:59.059,3,-0.38,-0.95,0.53,-4.2654,-8.775000000000002,-6.763800000000002,175,75
2026-05-09 16:25:59.071,3,-0.47,-0.96,0.45,-5.545400000000001,-12.245000000000001,-5.423800000000002,175,75
2026-05-09 16:25:59.071,3,-0.51,-0.99,0.37,-3.2954000000000008,-7.305,-7.1838000000000015,175,75
2026-05-09 16:25:59.088,3,-0.45,-1.0,0.39,0.4246000000000123,3.3649999999999984,-9.563800000000002,175,75
2026-05-09 16:25:59.103,3,-0.37,-0.97,0.51,3.0446000000000026,6.535,-9.323800000000002,175,75
2026-05-09 16:25:59.121,3,-0.37,-0.96,0.52,1.9545999999999992,-1.0850000000000009,-8.223800000000002,175,75
2026-05-09 16:25:59.121,3,-0.43,-0.97,0.45,1.154600000000002,-1.6350000000000016,-7.923800000000002,175,75
2026-05-09 16:25:59.173,3,-0.4,-1.0,0.47,6.2246000000000095,5.864999999999998,-10.353800000000001,175,75
2026-05-09 16:25:59.193,3,-0.38,-0.98,0.47,5.7346,2.754999999999999,-9.563800000000002,175,75
2026-05-09 16:25:59.193,3,-0.39,-0.98,0.47,6.524600000000007,4.215,-8.463800000000003,175,75
2026-05-09 16:25:59.226,3,-0.37,-1.02,0.49,6.644600000000011,0.8649999999999984,-10.173800000000002,175,75
2026-05-09 16:25:59.238,3,-0.38,-1.0,0.47,6.524600000000007,-0.11500000000000199,-9.443800000000001,175,75
2026-05-09 16:25:59.239,3,-0.38,-0.98,0.48,8.354600000000005,1.1050000000000004,-9.323800000000002,175,75
2026-05-09 16:25:59.259,3,-0.38,-0.97,0.48,7.804600000000008,0.9249999999999972,-7.733800000000002,175,75
2026-05-09 16:25:59.280,3,-0.36,-0.96,0.5,9.024600000000007,3.6050000000000004,-7.373800000000002,175,75
2026-05-09 16:25:59.281,3,-0.35,-0.96,0.51,8.964600000000004,7.625,-6.033800000000002,175,75
2026-05-09 16:25:59.295,3,-0.31,-0.97,0.53,8.784600000000012,8.055,-5.423800000000002,175,75
2026-05-09 16:25:59.330,3,-0.35,-0.99,0.52,7.86460000000001,0.9849999999999994,-3.953800000000002,175,75
2026-05-09 16:25:59.343,3,-0.4,-0.99,0.48,7.134600000000006,0.5549999999999997,-3.043800000000002,175,75
2026-05-09 16:25:59.343,3,-0.41,-0.98,0.47,8.2346,6.954999999999998,-3.1038000000000014,175,75
2026-05-09 16:25:59.368,3,-0.34,-0.98,0.54,7.7446000000000055,5.924999999999997,-1.7638000000000016,175,75
2026-05-09 16:25:59.379,3,-0.37,-1.01,0.51,7.504600000000011,4.645,-1.7638000000000016,175,75
2026-05-09 16:25:59.393,3,-0.38,-0.99,0.51,7.194600000000008,4.884999999999998,-1.8838000000000026,175,75
2026-05-09 16:25:59.403,3,-0.37,-0.98,0.51,7.804600000000008,9.155000000000001,-1.3338000000000019,175,75
2026-05-09 16:25:59.450,3,-0.33,-1.0,0.56,6.154600000000002,8.235,-1.2738000000000014,175,75
2026-05-09 16:25:59.461,3,-0.34,-1.0,0.57,5.854600000000005,6.594999999999999,-0.9638000000000027,175,75
2026-05-09 16:25:59.468,3,-0.31,-1.0,0.56,6.524600000000007,10.314999999999998,-1.8838000000000026,175,75
2026-05-09 16:25:59.479,3,-0.34,-0.99,0.58,3.0446000000000026,-1.7650000000000006,-1.823800000000002,175,75
2026-05-09 16:25:59.504,3,-0.44,-1.01,0.46,3.354600000000005,-5.905000000000001,-3.163800000000002,175,75
2026-05-09 16:25:59.533,3,-0.5,-0.99,0.35,3.8446,-7.615000000000002,-3.043800000000002,175,75
2026-05-09 16:25:59.544,3,-0.37,-1.04,0.39,10.184600000000003,9.824999999999996,-4.073800000000002,175,75
2026-05-09 16:25:59.555,3,-0.31,-1.0,0.54,11.644600000000011,16.714999999999996,-1.3938000000000024,175,75
2026-05-09 16:25:59.555,3,-0.35,-0.98,0.59,7.924600000000012,2.2650000000000006,1.7761999999999976,175,75
2026-05-09 16:25:59.567,3,-0.4,-0.99,0.5,5.4846,-7.675000000000001,0.7961999999999989,175,75
2026-05-09 16:25:59.592,3,-0.34,-0.98,0.5,7.924600000000012,4.584999999999997,0.3161999999999985,175,75
2026-05-09 16:25:59.604,3,-0.37,-1.01,0.53,7.314599999999999,2.6950000000000003,0.7961999999999989,175,75
2026-05-09 16:25:59.604,3,-0.39,-1.01,0.52,6.584600000000009,-0.48499999999999943,-0.8438000000000017,175,75
2026-05-09 16:25:59.623,3,-0.4,-1.0,0.51,6.644600000000011,-1.2149999999999999,-2.4338000000000015,175,75
2026-05-09 16:25:59.645,3,-0.36,-0.97,0.56,7.194600000000008,1.4749999999999979,-2.243800000000002,175,75
2026-05-09 16:25:59.660,3,-0.37,-0.99,0.58,6.034600000000012,-2.375,-3.283800000000002,175,75
2026-05-09 16:25:59.692,3,-0.39,-1.0,0.51,6.034600000000012,-2.9150000000000027,-4.263800000000002,175,75
2026-05-09 16:25:59.704,3,-0.37,-0.99,0.49,6.704599999999999,-1.6350000000000016,-5.293800000000002,175,75
2026-05-09 16:25:59.714,3,-0.32,-0.98,0.54,8.174600000000012,2.9949999999999974,-2.8538000000000014,175,75
2026-05-09 16:25:59.727,3,-0.35,-0.99,0.57,5.36460000000001,-2.615000000000002,-1.5138000000000016,175,75
2026-05-09 16:25:59.770,3,-0.35,-0.97,0.52,4.694600000000008,-3.585000000000001,-0.8438000000000017,175,75
2026-05-09 16:25:59.770,3,-0.33,-0.97,0.57,6.404600000000002,4.035,1.4661999999999988,175,75
2026-05-09 16:25:59.783,3,-0.3,-0.97,0.61,4.874600000000001,0.7349999999999994,2.626199999999999,175,75
2026-05-09 16:25:59.802,3,-0.36,-0.99,0.52,2.9246000000000123,-1.5750000000000028,5.0661999999999985,175,75
2026-05-09 16:25:59.816,3,-0.35,-0.99,0.52,3.9646000000000043,1.4749999999999979,5.556199999999997,175,75
2026-05-09 16:25:59.826,3,-0.32,-0.98,0.55,4.334600000000009,2.6950000000000003,6.716199999999997,175,75
2026-05-09 16:25:59.826,3,-0.33,-0.98,0.55,3.904600000000002,2.0150000000000006,8.606199999999998,175,75
2026-05-09 16:25:59.836,3,-0.35,-0.98,0.56,3.7846000000000117,1.8349999999999973,9.0962,175,75
2026-05-09 16:25:59.846,3,-0.34,-0.99,0.56,3.7246000000000095,1.5949999999999989,9.826199999999996,175,75
2026-05-09 16:25:59.862,3,-0.36,-0.99,0.56,3.5946,2.5649999999999977,10.926199999999998,175,75
2026-05-09 16:25:59.871,3,-0.36,-0.99,0.58,3.4746000000000095,2.9349999999999987,10.556199999999997,175,75
2026-05-09 16:25:59.886,3,-0.37,-0.98,0.56,2.624600000000001,-0.054999999999999716,10.736199999999997,175,75
2026-05-09 16:25:59.896,3,-0.39,-0.97,0.54,2.684600000000003,1.4749999999999979,10.736199999999997,175,75
2026-05-09 16:25:59.916,3,-0.39,-0.99,0.56,3.904600000000002,0.375,9.0962,175,75
2026-05-09 16:25:59.926,3,-0.38,-0.99,0.56,4.2646000000000015,0.6149999999999984,9.0962,175,75
2026-05-09 16:25:59.938,3,-0.35,-0.99,0.58,4.934600000000003,1.4749999999999979,8.426199999999998,175,75
2026-05-09 16:25:59.999,3,-0.41,-0.97,0.51,3.904600000000002,-7.984999999999999,12.076199999999996,175,75
2026-05-09 16:25:59.999,3,-0.42,-0.98,0.5,5.854600000000005,-3.2250000000000014,9.886199999999999,175,75
2026-05-09 16:26:00.036,3,-0.37,-0.95,0.57,7.684600000000003,2.2650000000000006,10.926199999999998,175,75
2026-05-09 16:26:00.036,3,-0.39,-0.96,0.58,5.9746000000000095,-1.8250000000000028,12.446199999999997,175,75
2026-05-09 16:26:00.046,3,-0.4,-0.98,0.54,5.854600000000005,-4.565000000000001,11.896199999999997,175,75
2026-05-09 16:26:00.046,3,-0.38,-0.98,0.53,7.314599999999999,-1.5750000000000028,12.326199999999996,175,75
2026-05-09 16:26:00.066,3,-0.36,-0.98,0.54,8.044600000000003,-0.6650000000000027,13.966199999999997,175,75
2026-05-09 16:26:00.088,3,-0.39,-0.98,0.56,8.2346,-0.9649999999999999,15.676199999999998,175,75
2026-05-09 16:26:00.088,3,-0.42,-0.97,0.58,9.2046,1.3449999999999989,16.0462,175,75
2026-05-09 16:26:00.099,3,-0.4,-0.97,0.6,8.964600000000004,0.254999999999999,14.826199999999996,175,75
2026-05-09 16:26:00.126,3,-0.4,-0.97,0.6,7.314599999999999,-2.5549999999999997,14.336199999999998,175,75
2026-05-09 16:26:00.126,3,-0.41,-0.98,0.6,7.434600000000003,-2.8550000000000004,14.946199999999997,175,75
2026-05-09 16:26:00.139,3,-0.41,-0.99,0.59,7.194600000000008,-2.9150000000000027,14.036199999999997,175,75
2026-05-09 16:26:00.154,3,-0.39,-0.96,0.64,9.2046,0.3149999999999977,13.966199999999997,175,75
2026-05-09 16:26:00.191,3,-0.43,-0.99,0.63,6.524600000000007,-9.505,12.5062,175,75
2026-05-09 16:26:00.217,3,-0.44,-0.96,0.58,5.4846,-13.345,12.146199999999997,175,75
2026-05-09 16:26:00.255,3,-0.43,-0.98,0.62,8.174600000000012,-5.665000000000003,10.496199999999998,175,75
2026-05-09 16:26:00.281,3,-0.46,-0.98,0.56,5.004600000000011,-10.545000000000002,10.0062,175,75
2026-05-09 16:26:00.298,3,-0.48,-0.96,0.54,4.934600000000003,-9.935,7.8161999999999985,175,75
2026-05-09 16:26:00.330,3,-0.42,-0.96,0.65,3.8446,-6.515000000000001,5.796199999999999,175,75
2026-05-09 16:26:00.330,3,-0.45,-0.95,0.63,1.5246000000000066,-10.295000000000002,6.536199999999997,175,75
2026-05-09 16:26:00.344,3,-0.45,-0.97,0.6,0.06459999999999866,-11.335,6.466199999999997,175,75
2026-05-09 16:26:00.355,3,-0.44,-0.98,0.6,-0.7954000000000008,-8.715,5.856199999999998,175,75
2026-05-09 16:26:00.365,3,-0.43,-0.96,0.61,-3.4753999999999934,-8.775000000000002,6.656199999999998,175,75
2026-05-09 16:26:00.378,3,-0.49,-0.96,0.62,-4.085399999999993,-5.295000000000002,5.4361999999999995,175,75
2026-05-09 16:26:00.436,3,-0.48,-0.95,0.57,-12.435400000000001,-9.935,-2.9838000000000022,175,75
2026-05-09 16:26:00.436,3,-0.47,-0.97,0.59,-13.105399999999989,-7.555,-3.163800000000002,175,75
2026-05-09 16:26:00.446,3,-0.5,-0.97,0.59,-16.035399999999996,-11.335,-4.323800000000002,175,75
2026-05-09 16:26:00.457,3,-0.51,-0.99,0.58,-14.755399999999995,-7.915000000000003,-6.6438000000000015,175,75
2026-05-09 16:26:00.469,3,-0.49,-0.98,0.61,-14.085399999999993,-6.455000000000002,-11.703800000000001,175,75
2026-05-09 16:26:00.481,3,-0.47,-0.96,0.64,-12.685400000000001,-4.195,-12.793800000000001,175,75
2026-05-09 16:26:00.492,3,-0.45,-0.96,0.67,-14.455399999999997,-7.795000000000002,-15.053800000000003,175,75
2026-05-09 16:26:00.503,3,-0.43,-0.97,0.64,-16.585399999999993,-13.165000000000001,-16.213800000000003,175,75
2026-05-09 16:26:00.519,3,-0.43,-1.01,0.56,-18.0454,-19.015,-16.513800000000003,175,75
2026-05-09 16:26:00.530,3,-0.44,-1.01,0.48,-17.3754,-20.295,-17.7938,175,75
2026-05-09 16:26:00.541,3,-0.43,-1.0,0.46,-15.425399999999996,-13.775,-17.4938,175,75
2026-05-09 16:26:00.545,3,-0.43,-0.97,0.48,-13.6554,-9.875000000000002,-16.513800000000003,175,75
2026-05-09 16:26:00.613,3,-0.43,-0.97,0.49,-10.915399999999991,-10.725000000000001,-15.173800000000002,175,75
2026-05-09 16:26:00.635,3,-0.41,-0.93,0.6,-4.2654,-0.6650000000000027,-16.513800000000003,175,75
2026-05-09 16:26:00.646,3,-0.27,-0.93,0.62,-3.845399999999998,-6.575000000000003,-14.323800000000002,175,75
2026-05-09 16:26:00.651,3,-0.32,-0.97,0.54,-5.065399999999997,-14.995000000000001,-9.203800000000001,175,75
2026-05-09 16:26:00.663,3,-0.39,-1.04,0.46,-3.9653999999999883,-18.105,-6.273800000000001,175,75
2026-05-09 16:26:00.663,3,-0.4,-1.04,0.46,4.454599999999999,-11.635000000000002,-6.823800000000002,175,75
2026-05-09 16:26:00.679,3,-0.34,-1.02,0.5,5.544600000000003,-8.045000000000002,-4.323800000000002,175,75
2026-05-09 16:26:00.689,3,-0.33,-0.96,0.54,3.904600000000002,-12.185,0.9861999999999984,175,75
2026-05-09 16:26:00.722,3,-0.4,-0.97,0.53,5.004600000000011,-5.055,4.886199999999999,175,75
2026-05-09 16:26:00.740,3,-0.41,-0.96,0.57,1.834600000000009,-9.075000000000003,10.556199999999997,175,75
2026-05-09 16:26:00.810,3,-0.41,-0.9,0.63,-9.455399999999997,-2.4350000000000023,20.3162,175,75
2026-05-09 16:26:00.855,3,-0.4,-0.91,0.57,-11.825399999999988,-4.445,23.786199999999997,175,75
2026-05-09 16:26:00.864,3,-0.45,-0.93,0.56,-12.255399999999995,1.6549999999999976,25.256199999999996,175,75
2026-05-09 16:26:00.908,3,-0.45,-0.93,0.59,-12.625399999999999,6.285,21.9562,175,75
2026-05-09 16:26:00.934,3,-0.33,-0.93,0.72,-12.0154,6.655000000000001,15.856199999999998,175,75
2026-05-09 16:26:00.948,3,-0.31,-0.95,0.72,-17.80539999999999,-16.215000000000003,12.016199999999998,175,75
2026-05-09 16:26:00.948,3,-0.36,-0.99,0.6,-18.2954,-19.265,7.9361999999999995,175,75
2026-05-09 16:26:00.957,3,-0.39,-1.02,0.49,-16.955399999999997,-12.435,5.496199999999998,175,75
2026-05-09 16:26:00.957,3,-0.41,-1.05,0.44,-15.185400000000001,0.9249999999999972,5.0062,175,75
2026-05-09 16:26:00.966,3,-0.44,-1.01,0.54,-10.305399999999992,30.314999999999998,4.886199999999999,175,75
2026-05-09 16:26:00.979,3,-0.42,-0.9,0.67,-15.24539999999999,15.375,4.3961999999999986,175,75
2026-05-09 16:26:01.017,3,-0.38,-0.99,0.57,-8.715399999999988,9.704999999999998,7.3261999999999965,175,75
2026-05-09 16:26:01.051,3,-0.29,-1.05,0.62,-8.535399999999996,8.365000000000002,5.126199999999997,175,75
2026-05-09 16:26:01.062,3,-0.35,-1.11,0.62,-7.745399999999989,11.594999999999999,7.626199999999997,175,75
2026-05-09 16:26:01.068,3,-0.55,-1.09,0.56,-16.21539999999999,-22.065,6.226199999999999,175,75
2026-05-09 16:26:01.075,3,-0.67,-1.08,0.36,-14.575399999999988,-26.215,1.4661999999999988,175,75
2026-05-09 16:26:01.090,3,-0.65,-1.0,0.33,-7.315399999999997,-10.115000000000002,-7.793800000000002,175,75
2026-05-09 16:26:01.145,3,-0.49,-1.05,0.32,3.4746000000000095,-10.965000000000002,-13.713800000000003,175,75
2026-05-09 16:26:01.167,3,-0.44,-0.98,0.51,4.934600000000003,-7.125,-11.213800000000003,175,75
2026-05-09 16:26:01.167,3,-0.43,-0.97,0.49,2.7446000000000055,-14.445,-11.213800000000003,175,75
2026-05-09 16:26:01.187,3,-0.44,-0.97,0.47,2.3145999999999987,-13.045000000000002,-11.273800000000001,175,75
2026-05-09 16:26:01.202,3,-0.42,-0.97,0.48,3.414600000000007,-6.825000000000003,-11.453800000000001,175,75
2026-05-09 16:26:01.202,3,-0.4,-0.96,0.52,2.9846000000000004,-7.795000000000002,-11.883800000000003,175,75
2026-05-09 16:26:01.251,3,-0.39,-0.95,0.46,0.12460000000000093,11.534999999999997,-5.963800000000002,175,75
2026-05-09 16:26:01.261,3,-0.38,-1.0,0.56,1.4646000000000043,20.064999999999998,-5.963800000000002,175,75
2026-05-09 16:26:01.274,3,-0.3,-1.04,0.66,1.2246000000000095,15.985,-9.873800000000003,175,75
2026-05-09 16:26:01.290,3,-0.3,-1.0,0.66,-1.7653999999999996,6.164999999999999,-8.713800000000003,175,75
2026-05-09 16:26:01.316,3,-0.41,-0.98,0.48,-3.7753999999999905,13.174999999999997,-4.9338000000000015,175,75
2026-05-09 16:26:01.367,3,-0.4,-0.96,0.52,1.7646000000000015,31.415,-5.663800000000002,175,75
2026-05-09 16:26:01.367,3,-0.35,-0.95,0.6,4.934600000000003,41.655,-2.9838000000000022,175,75
2026-05-09 16:26:01.393,3,-0.38,-1.0,0.59,12.50460000000001,33.915,-3.403800000000002,175,75
2026-05-09 16:26:01.402,3,-0.34,-1.08,0.51,20.1246,41.41499999999999,-8.343800000000002,175,75
2026-05-09 16:26:01.406,3,-0.29,-1.13,0.48,30.544600000000003,59.334999999999994,-10.113800000000001,175,75
2026-05-09 16:26:01.415,3,-0.46,-1.04,0.39,41.0946,87.755,-3.2238000000000016,175,75
2026-05-09 16:26:01.449,3,-0.6,-0.93,0.31,57.3146,124.215,-5.053800000000002,175,75
2026-05-09 16:26:01.460,3,-0.53,-0.83,0.26,68.5946,143.605,-13.533800000000001,175,75
2026-05-09 16:26:01.460,3,-0.44,-0.83,0.26,70.73460000000001,145.98499999999999,-12.243800000000002,175,75
2026-05-09 16:26:01.468,3,-0.41,-0.94,0.32,66.70460000000001,133.115,-7.373800000000002,175,75
2026-05-09 16:26:01.476,3,-0.44,-1.04,0.45,61.64460000000001,102.205,-10.963800000000003,175,75
2026-05-09 16:26:01.484,3,-0.43,-1.08,0.59,53.04460000000002,53.175,-19.8138,175,75
2026-05-09 16:26:01.499,3,-0.45,-1.0,0.56,42.6846,-3.285,-22.6738,175,75
2026-05-09 16:26:01.551,3,-0.46,-0.88,0.18,52.5646,18.174999999999997,-14.263800000000002,175,75
2026-05-09 16:26:01.563,3,-0.45,-0.9,0.25,64.7546,38.785,-13.163800000000002,175,75
2026-05-09 16:26:01.574,3,-0.45,-0.94,0.39,75.9746,65.865,-8.343800000000002,175,75
2026-05-09 16:26:01.574,3,-0.4,-1.0,0.5,83.23460000000001,66.775,-10.603800000000001,175,75
2026-05-09 16:26:01.584,3,-0.4,-1.0,0.49,85.61460000000001,52.385000000000005,-11.823800000000002,175,75
2026-05-09 16:26:01.604,3,-0.52,-0.86,0.41,96.4046,49.275000000000006,-10.543800000000001,175,75
2026-05-09 16:26:01.604,3,-0.53,-0.86,0.54,105.48460000000001,54.94499999999999,-11.513800000000002,175,75
2026-05-09 16:26:01.616,3,-0.48,-0.95,0.65,110.0046,45.254999999999995,-14.683800000000002,175,75
2026-05-09 16:26:01.628,3,-0.47,-1.05,0.66,111.70460000000001,25.924999999999997,-23.653800000000004,175,75
2026-05-09 16:26:01.644,3,-0.44,-1.09,0.66,120.30460000000001,22.814999999999998,-32.85380000000001,175,75
2026-05-09 16:26:01.673,3,-0.26,-1.05,0.92,128.65460000000002,19.335,-57.6738,175,75
2026-05-09 16:26:01.673,3,-0.28,-1.03,0.93,128.8446,17.935000000000002,-64.2638,175,75
2026-05-09 16:26:01.684,3,-0.19,-1.08,0.87,131.2246,19.705,-74.9338,175,75
2026-05-09 16:26:01.695,3,-0.28,-1.16,0.78,138.2946,30.555,-77.9838,175,75
2026-05-09 16:26:01.700,3,-0.39,-1.18,0.76,140.2446,49.155,-89.07379999999999,175,75
2026-05-09 16:26:01.711,3,-0.35,-1.05,0.77,143.4746,62.504999999999995,-101.0938,175,75
2026-05-09 16:26:01.722,3,-0.36,-0.96,0.78,144.94459999999998,63.30499999999999,-102.9238,175,75
2026-05-09 16:26:01.761,3,-0.31,-0.88,1.03,155.1846,66.595,-130.0538,175,75
2026-05-09 16:26:01.787,3,-0.38,-0.88,0.95,152.3746,62.754999999999995,-140.7238,175,75
2026-05-09 16:26:01.799,3,-0.46,-0.75,0.88,154.08460000000002,78.235,-150.7838,175,75
2026-05-09 16:26:01.799,3,-0.5,-0.7,0.93,153.0446,81.345,-151.7038,175,75
2026-05-09 16:26:01.831,3,-0.51,-0.56,1.05,151.52460000000002,82.875,-153.46380000000002,175,75
2026-05-09 16:26:01.851,3,-0.46,-0.6,1.08,149.94459999999998,75.615,-157.61380000000003,175,75
2026-05-09 16:26:01.862,3,-0.44,-0.53,1.12,150.4846,75.315,-161.33380000000002,175,75
2026-05-09 16:26:01.862,3,-0.38,-0.51,1.14,145.1246,71.225,-159.5038,175,75
2026-05-09 16:26:01.873,3,-0.37,-0.5,1.1,142.6846,72.385,-163.2838,175,75
2026-05-09 16:26:01.885,3,-0.31,-0.44,1.15,143.4146,81.045,-163.71380000000002,175,75
2026-05-09 16:26:01.905,3,-0.28,-0.39,1.19,141.0946,82.445,-162.8538,175,75
2026-05-09 16:26:01.916,3,-0.32,-0.29,1.18,143.4146,87.145,-159.1438,175,75
2026-05-09 16:26:01.959,3,-0.31,-0.25,1.33,142.9846,48.974999999999994,-138.0438,175,75
2026-05-09 16:26:01.967,3,-0.26,-0.24,1.29,143.4746,47.625,-137.31380000000001,175,75
2026-05-09 16:26:02.001,3,-0.26,-0.2,1.19,147.7446,45.375,-131.4538,175,75
2026-05-09 16:26:02.001,3,-0.29,-0.13,1.24,152.9246,56.224999999999994,-127.0038,175,75
2026-05-09 16:26:02.017,3,-0.31,-0.14,1.36,151.70460000000003,51.224999999999994,-118.2838,175,75
2026-05-09 16:26:02.034,3,-0.31,0.03,1.38,149.57460000000003,43.485,-106.0338,175,75
2026-05-09 16:26:02.051,3,-0.26,0.03,1.42,148.90460000000002,38.845,-101.9438,175,75
2026-05-09 16:26:02.061,3,-0.21,-0.04,1.44,150.00459999999998,34.095,-102.7938,175,75
2026-05-09 16:26:02.071,3,-0.11,-0.1,1.42,148.3546,27.994999999999997,-107.7938,175,75
2026-05-09 16:26:02.098,3,-0.16,0.07,1.44,140.6746,19.824999999999996,-104.5638,175,75
2026-05-09 16:26:02.126,3,-0.46,0.32,1.32,125.30460000000001,-0.6650000000000027,-90.7838,175,75
2026-05-09 16:26:02.139,3,-0.5,0.48,1.24,114.08460000000001,4.945,-77.5538,175,75
2026-05-09 16:26:02.153,3,-0.59,0.61,1.23,106.1546,21.284999999999997,-62.793800000000005,175,75
2026-05-09 16:26:02.209,3,-0.25,0.57,1.47,66.89460000000001,-12.125000000000002,-27.0638,175,75
2026-05-09 16:26:02.284,3,-0.37,0.4,1.7,1.9545999999999992,-41.695,-38.2238,175,75
2026-05-09 16:26:02.294,3,-0.4,0.38,1.61,-3.4753999999999934,-23.775000000000002,-40.293800000000005,175,75
2026-05-09 16:26:02.294,3,-0.36,0.48,1.64,-16.7654,-10.665000000000001,-46.7638,175,75
2026-05-09 16:26:02.343,3,0.03,0.32,1.75,-61.58539999999999,-41.455,-60.7238,175,75
2026-05-09 16:26:02.354,3,-0.04,0.25,1.59,-67.49539999999999,-37.375,-60.2338,175,75
2026-05-09 16:26:02.392,3,-0.15,0.3,1.42,-90.85539999999999,4.824999999999999,-41.0338,175,75
2026-05-09 16:26:02.399,3,-0.09,0.22,1.41,-95.85539999999999,3.174999999999997,-36.4538,175,75
2026-05-09 16:26:02.412,3,-0.08,0.11,1.48,-103.5954,-2.0650000000000013,-29.9938,175,75
2026-05-09 16:26:02.440,3,-0.04,0.13,1.41,-106.1554,-17.005000000000003,-28.533800000000003,175,75
2026-05-09 16:26:02.456,3,-0.13,0.24,1.27,-106.6454,-19.565,-23.5938,175,75
2026-05-09 16:26:02.456,3,-0.17,0.26,1.21,-104.5154,-4.805,-18.7738,175,75
2026-05-09 16:26:02.480,3,-0.19,0.21,1.27,-102.8654,3.424999999999997,-13.893800000000002,175,75
2026-05-09 16:26:02.492,3,-0.27,0.13,1.34,-103.10539999999999,-5.175000000000001,-7.493800000000002,175,75
2026-05-09 16:26:02.502,3,-0.29,0.1,1.32,-104.99539999999999,-11.275,-2.9238000000000017,175,75
2026-05-09 16:26:02.508,3,-0.28,0.02,1.31,-105.7354,-15.965000000000002,-3.833800000000002,175,75
2026-05-09 16:26:02.520,3,-0.25,-0.02,1.28,-105.24539999999999,-17.125,-3.7138000000000018,175,75
2026-05-09 16:26:02.536,3,-0.23,-0.11,1.25,-102.80539999999999,-13.585,-2.493800000000002,175,75
2026-05-09 16:26:02.542,3,-0.2,-0.19,1.23,-99.8154,-5.605,-1.453800000000001,175,75
2026-05-09 16:26:02.552,3,-0.15,-0.25,1.28,-95.4254,8.115000000000002,1.7761999999999976,175,75
2026-05-09 16:26:02.573,3,-0.1,-0.31,1.34,-93.16539999999999,15.375,1.2861999999999973,175,75
2026-05-09 16:26:02.589,3,-0.11,-0.24,1.23,-91.1554,29.214999999999996,1.046199999999999,175,75
2026-05-09 16:26:02.600,3,-0.17,-0.23,1.19,-88.96539999999999,41.715,5.0062,175,75
2026-05-09 16:26:02.611,3,-0.21,-0.28,1.33,-80.7954,53.485,-2.5538000000000025,175,75
2026-05-09 16:26:02.639,3,-0.22,-0.43,1.21,-82.9854,40.125,-8.653800000000002,175,75
2026-05-09 16:26:02.663,3,-0.22,-0.36,1.31,-79.8754,63.485,-11.643800000000002,175,75
2026-05-09 16:26:02.676,3,-0.23,-0.31,1.36,-80.66539999999999,59.515,-12.433800000000002,175,75
2026-05-09 16:26:02.699,3,-0.35,-0.37,1.24,-85.4254,53.364999999999995,-10.233800000000002,175,75
2026-05-09 16:26:02.714,3,-0.4,-0.45,1.25,-85.4254,55.19499999999999,-8.593800000000002,175,75
2026-05-09 16:26:02.724,3,-0.42,-0.57,1.33,-84.8154,57.504999999999995,-12.313800000000002,175,75
2026-05-09 16:26:02.735,3,-0.41,-0.68,1.35,-92.6254,34.155,-19.143800000000002,175,75
2026-05-09 16:26:02.745,3,-0.4,-0.7,1.29,-97.07539999999999,32.625,-18.7738,175,75
2026-05-09 16:26:02.761,3,-0.4,-0.7,1.26,-99.99539999999999,31.345,-17.6738,175,75
2026-05-09 16:26:02.771,3,-0.41,-0.7,1.25,-102.0154,31.045,-16.393800000000002,175,75
2026-05-09 16:26:02.771,3,-0.4,-0.67,1.27,-102.80539999999999,31.714999999999996,-15.053800000000003,175,75
2026-05-09 16:26:02.802,3,-0.43,-0.63,1.25,-110.7354,15.494999999999997,-6.943800000000002,175,75
2026-05-09 16:26:02.813,3,-0.39,-0.67,1.21,-114.5754,14.644999999999996,-5.293800000000002,175,75
2026-05-09 16:26:02.813,3,-0.42,-0.68,1.2,-118.2354,15.735,-0.42380000000000173,175,75
2026-05-09 16:26:02.835,3,-0.4,-0.71,1.23,-119.7554,23.604999999999997,-0.543800000000001,175,75
2026-05-09 16:26:02.849,3,-0.33,-0.76,1.31,-126.46539999999999,14.155000000000001,1.1061999999999976,175,75
2026-05-09 16:26:02.862,3,-0.32,-0.84,1.25,-130.7954,-0.9649999999999999,0.4361999999999977,175,75
2026-05-09 16:26:02.909,3,-0.41,-1.01,1.01,-131.1554,-24.805,-4.263800000000002,175,75
2026-05-09 16:26:02.981,3,-0.45,-0.56,0.69,-69.8154,-10.115000000000002,-13.223800000000002,175,75
2026-05-09 16:26:03.000,3,-0.37,-0.55,0.72,-52.925399999999996,-3.3450000000000024,-17.6138,175,75
2026-05-09 16:26:03.002,3,-0.38,-0.56,0.7,-44.0254,-2.4350000000000023,-16.213800000000003,175,75
2026-05-09 16:26:03.038,3,-0.42,-0.54,0.77,-6.035399999999996,28.365000000000002,-15.423800000000002,175,75
2026-05-09 16:26:03.053,3,-0.38,-0.56,0.78,1.4646000000000043,23.174999999999997,-14.143800000000002,175,75
2026-05-09 16:26:03.079,3,-0.31,-0.78,0.85,21.0946,15.195,-10.423800000000002,175,75
2026-05-09 16:26:03.086,3,-0.24,-0.88,0.76,24.39460000000001,3.6050000000000004,-11.943800000000001,175,75
2026-05-09 16:26:03.192,3,-0.19,-1.09,0.8,44.8746,18.485,-8.773800000000001,175,75
2026-05-09 16:26:03.207,3,-0.19,-1.23,0.86,47.194599999999994,4.945,-3.8938000000000015,175,75
2026-05-09 16:26:03.222,3,-0.29,-1.36,0.82,60.67460000000001,-34.075,5.0661999999999985,175,75
2026-05-09 16:26:03.284,3,-0.34,-1.93,0.61,59.694599999999994,-134.935,18.1162,175,75
2026-05-09 16:26:03.284,3,-0.77,-1.52,0.37,67.6246,-141.215,16.9562,175,75
2026-05-09 16:26:03.336,3,-0.55,-0.53,1.1,14.75460000000001,-130.175,60.616200000000006,175,75
2026-05-09 16:26:03.349,3,-0.27,-0.54,0.06,-136.4654,-304.80499999999995,55.066199999999995,175,75
2026-05-09 16:26:03.361,3,-0.41,-0.19,-0.47,-170.3054,-256.275,56.4062,175,75
2026-05-09 16:26:03.375,3,-0.14,-0.4,-0.43,-175.60539999999997,-101.575,73.6662,175,75
2026-05-09 16:26:03.389,3,-0.07,-0.6,0.14,-212.0754,-43.894999999999996,89.39620000000001,175,75
2026-05-09 16:26:03.453,3,0.11,-1.1,0.75,-291.3454,-43.655,101.5962,175,75
2026-05-09 16:26:03.469,3,0.14,-1.28,0.79,-306.7654,-55.175,102.14620000000001,175,75
2026-05-09 16:26:03.469,3,0.13,-1.54,0.86,-313.7754,-70.055,92.9962,175,75
2026-05-09 16:26:03.485,3,0.18,-1.8,0.99,-317.8654,-71.39500000000001,68.1162,175,75
2026-05-09 16:26:03.525,3,0.11,-1.79,0.91,-267.6254,-9.805000000000001,27.3862,175,75
2026-05-09 16:26:03.542,3,0.12,-1.85,1.03,-250.79539999999997,3.974999999999998,15.556199999999997,175,75
2026-05-09 16:26:03.563,3,0.09,-1.89,1.14,-234.3254,15.985,4.336199999999998,175,75
2026-05-09 16:26:03.574,3,0.0,-1.79,1.2,-219.1454,23.174999999999997,-3.283800000000002,175,75
2026-05-09 16:26:03.586,3,-0.1,-1.64,1.2,-204.2654,26.345,-6.153800000000002,175,75
2026-05-09 16:26:03.605,3,-0.48,-1.19,1.19,-93.71539999999999,100.495,7.016199999999998,175,75
2026-05-09 16:26:03.626,3,-0.41,-1.06,1.6,-16.1554,95.315,7.6861999999999995,175,75
2026-05-09 16:26:03.632,3,-0.3,-1.08,1.74,17.6246,54.095,12.386199999999999,175,75
2026-05-09 16:26:03.665,3,-0.35,-0.89,1.18,85.30460000000001,-47.615,9.456199999999999,175,75
2026-05-09 16:26:03.670,3,-0.38,-0.92,1.05,107.92460000000001,-43.835,12.206199999999999,175,75
2026-05-09 16:26:03.692,3,-0.33,-0.93,0.91,139.8746,-45.485,9.396199999999997,175,75
2026-05-09 16:26:03.747,3,-0.25,-0.96,0.65,177.9246,-32.125,12.5062,175,75
2026-05-09 16:26:03.759,3,-0.27,-0.95,0.62,181.70459999999997,-26.635,12.7562,175,75
2026-05-09 16:26:03.769,3,-0.28,-0.86,0.59,188.65460000000002,-4.935000000000002,13.426199999999998,175,75
2026-05-09 16:26:03.847,3,-0.13,-0.86,0.5,185.9746,40.495000000000005,18.236199999999997,175,75
2026-05-09 16:26:03.852,3,-0.13,-0.81,0.44,178.1146,45.925,20.2562,175,75
2026-05-09 16:26:03.868,3,-0.19,-0.71,0.33,164.45459999999997,73.845,25.436199999999996,175,75
2026-05-09 16:26:03.879,3,-0.22,-0.68,0.32,156.15460000000002,89.155,29.576199999999996,175,75
2026-05-09 16:26:03.891,3,-1.08,-0.21,0.65,160.8546,141.225,74.03620000000001,175,75
2026-05-09 16:26:03.942,3,-0.13,-0.59,-0.35,60.85460000000002,78.725,31.716199999999997,175,75
2026-05-09 16:26:03.952,3,0.59,-1.05,-0.64,-5.4853999999999985,24.884999999999998,3.546199999999999,175,75
2026-05-09 16:26:03.964,3,0.47,-1.05,-0.83,-40.48539999999999,-29.135,0.006199999999997985,175,75
2026-05-09 16:26:03.974,3,-2.57,-1.52,-0.39,-31.095399999999998,197.995,159.2762,175,75
2026-05-09 16:26:04.054,3,-0.6,0.14,1.52,-25.1254,-207.005,119.88619999999999,175,75
2026-05-09 16:26:04.074,3,-0.96,-0.82,0.37,13.294600000000003,-73.105,8.426199999999998,175,75
2026-05-09 16:26:04.075,3,-0.65,-0.77,0.69,16.7046,-54.565,15.856199999999998,175,75
2026-05-09 16:26:04.088,3,-0.58,-0.77,0.93,-8.535399999999996,-37.375,41.0462,175,75
2026-05-09 16:26:04.114,3,-0.52,-0.85,1.05,-21.1554,-33.955,32.446200000000005,175,75
2026-05-09 16:26:04.114,3,-0.39,-0.91,1.04,-29.575399999999995,-51.215,18.5462,175,75
2026-05-09 16:26:04.133,3,-0.3,-1.04,0.73,-21.88539999999999,-32.005,9.456199999999999,175,75
2026-05-09 16:26:04.148,3,-0.29,-1.07,0.67,-13.845399999999998,-15.175,-2.9838000000000022,175,75
2026-05-09 16:26:04.156,3,-0.29,-1.01,0.64,-2.7453999999999894,7.625,-9.323800000000002,175,75
2026-05-09 16:26:04.185,3,-0.45,-0.91,0.62,11.22460000000001,28.975,-8.833800000000002,175,75
2026-05-09 16:26:04.210,3,-0.54,-0.91,0.76,15.124600000000001,44.095,-1.573800000000002,175,75
2026-05-09 16:26:04.220,3,-0.48,-0.94,0.89,12.9846,39.095,-1.8838000000000026,175,75
2026-05-09 16:26:04.230,3,-0.45,-0.92,0.93,9.144600000000011,29.765,-3.3438000000000017,175,75
2026-05-09 16:26:04.261,3,-0.47,-0.88,0.93,2.434600000000003,20.064999999999998,-5.543800000000002,175,75
2026-05-09 16:26:04.261,3,-0.46,-0.88,0.85,-5.545400000000001,13.784999999999997,-6.3938000000000015,175,75
2026-05-09 16:26:04.273,3,-0.57,-0.9,0.8,-7.375399999999999,12.994999999999997,-8.533800000000001,175,75
2026-05-09 16:26:04.286,3,-0.62,-0.91,0.78,-7.745399999999989,13.055,-13.463800000000003,175,75
2026-05-09 16:26:04.300,3,-0.61,-0.89,0.74,-7.625399999999999,15.435000000000002,-17.6738,175,75
2026-05-09 16:26:04.336,3,-0.55,-0.92,0.69,-6.1554,34.275,-24.623800000000003,175,75
2026-05-09 16:26:04.370,3,-0.48,-0.9,0.79,-9.875399999999999,38.365,-25.663800000000002,175,75
2026-05-09 16:26:04.378,3,-0.5,-0.92,0.8,-9.875399999999999,37.815,-25.2938,175,75
2026-05-09 16:26:04.391,3,-0.45,-0.94,0.77,-14.875399999999999,29.644999999999996,-24.143800000000002,175,75
2026-05-09 16:26:04.391,3,-0.45,-0.98,0.75,-15.185400000000001,32.754999999999995,-23.1038,175,75
2026-05-09 16:26:04.402,3,-0.46,-1.0,0.79,-15.605399999999989,29.515,-24.013800000000003,175,75
2026-05-09 16:26:04.469,3,-0.46,-1.01,0.71,-21.825399999999988,12.144999999999996,-30.2938,175,75
2026-05-09 16:26:04.493,3,-0.4,-1.07,0.69,-20.91539999999999,14.454999999999998,-40.1738,175,75
2026-05-09 16:26:04.504,3,-0.35,-1.07,0.66,-20.1254,15.555,-43.403800000000004,175,75
2026-05-09 16:26:04.529,3,-0.18,-1.06,0.6,-12.565399999999997,35.555,-45.60380000000001,175,75
2026-05-09 16:26:04.543,3,-0.08,-1.08,0.58,-8.475399999999993,45.864999999999995,-45.35380000000001,175,75
2026-05-09 16:26:04.571,3,-0.0,-1.08,0.55,16.154600000000002,81.715,-47.1238,175,75
2026-05-09 16:26:04.596,3,-0.07,-1.09,0.44,34.514600000000016,109.275,-56.7038,175,75
2026-05-09 16:26:04.606,3,-0.17,-1.04,0.4,47.13459999999999,135.315,-61.6438,175,75
2026-05-09 16:26:04.628,3,-0.25,-0.98,0.4,54.45460000000001,153.665,-65.9638,175,75
2026-05-09 16:26:04.638,3,-0.33,-0.91,0.39,59.20460000000001,169.585,-69.9338,175,75
2026-05-09 16:26:04.638,3,-0.39,-0.86,0.38,61.89460000000001,183.23499999999999,-70.9038,175,75
2026-05-09 16:26:04.649,3,-0.46,-0.8,0.35,65.1246,199.215,-70.1138,175,75
2026-05-09 16:26:04.661,3,-0.53,-0.78,0.37,71.64460000000001,213.785,-71.7638,175,75
2026-05-09 16:26:04.687,3,-0.44,-0.71,0.44,89.08460000000001,230.125,-83.0438,175,75
2026-05-09 16:26:04.699,3,-0.48,-0.7,0.54,95.2446,228.665,-77.7338,175,75
2026-05-09 16:26:04.699,3,-0.5,-0.76,0.6,96.58460000000001,211.655,-73.5938,175,75
2026-05-09 16:26:04.721,3,-0.69,-0.86,0.62,92.86460000000001,166.835,-60.8438,175,75
2026-05-09 16:26:04.733,3,-0.73,-0.88,0.67,90.9746,154.645,-54.74380000000001,175,75
2026-05-09 16:26:04.743,3,-0.78,-0.91,0.75,88.35460000000002,134.395,-51.27380000000001,175,75
2026-05-09 16:26:04.761,3,-0.74,-0.94,0.78,85.2446,110.555,-55.543800000000005,175,75
2026-05-09 16:26:04.772,3,-0.69,-0.91,0.76,82.5046,83.30499999999999,-60.1138,175,75
2026-05-09 16:26:04.786,3,-0.58,-0.88,0.7,80.79460000000002,64.455,-61.6438,175,75
2026-05-09 16:26:04.797,3,-0.57,-0.85,0.63,76.2846,51.41499999999999,-52.9238,175,75
2026-05-09 16:26:04.810,3,-0.85,-1.09,0.74,71.3446,32.875,-32.3138,175,75
2026-05-09 16:26:04.824,3,-0.93,-1.5,0.69,52.444599999999994,-6.025000000000002,-29.3838,175,75
2026-05-09 16:26:04.845,3,-0.74,-1.36,0.69,58.8446,-13.585,-40.6638,175,75
2026-05-09 16:26:04.857,3,-0.37,-1.21,0.75,62.744600000000005,-22.125,-42.0038,175,75
2026-05-09 16:26:04.871,3,-0.21,-1.25,0.77,58.964600000000004,-32.375,-23.463800000000003,175,75
2026-05-09 16:26:04.924,3,-0.45,-1.14,0.5,64.57460000000002,-40.605000000000004,-5.423800000000002,175,75
2026-05-09 16:26:04.942,3,-0.54,-1.01,0.46,62.444599999999994,-17.185000000000002,2.3861999999999988,175,75
2026-05-09 16:26:04.954,3,-0.47,-0.92,0.6,62.254599999999996,-0.11500000000000199,6.286199999999997,175,75
2026-05-09 16:26:04.979,3,-0.53,-0.76,0.69,54.514600000000016,-5.965,16.106199999999998,175,75
2026-05-09 16:26:04.979,3,-0.56,-0.7,0.82,46.1546,5.924999999999997,30.186199999999996,175,75
2026-05-09 16:26:05.000,3,-0.23,-0.87,0.59,-45.365399999999994,-131.635,11.286199999999997,175,75
2026-05-09 16:26:05.027,3,-0.18,-0.55,-0.53,-155.1854,-186.945,21.8362,175,75
2026-05-09 16:26:05.033,3,-0.27,-0.46,-0.81,-175.85539999999997,-153.04500000000002,34.8262,175,75
2026-05-09 16:26:05.054,3,-0.32,-0.79,-0.59,-202.6254,0.8649999999999984,68.7262,175,75
2026-05-09 16:26:05.072,3,-0.3,-0.98,-0.38,-223.53539999999998,21.345,69.2162,175,75
2026-05-09 16:26:05.113,3,-0.26,-1.54,0.23,-287.6854,21.415,59.5762,175,75
2026-05-09 16:26:05.118,3,-0.29,-1.72,0.31,-299.0254,25.195,55.1862,175,75
2026-05-09 16:26:05.160,3,-0.38,-1.95,0.28,-311.3454,37.565,29.826199999999996,175,75
2026-05-09 16:26:05.171,3,-0.37,-1.95,0.31,-307.1354,45.254999999999995,26.5962,175,75
2026-05-09 16:26:05.193,3,-0.4,-1.92,0.41,-291.7654,51.105000000000004,26.3462,175,75
2026-05-09 16:26:05.205,3,-0.46,-1.89,0.44,-280.6654,53.364999999999995,24.3362,175,75
2026-05-09 16:26:05.216,3,-0.47,-1.82,0.47,-264.2654,54.334999999999994,20.0062,175,75
2026-05-09 16:26:05.256,3,-0.51,-1.46,0.63,-220.5454,62.754999999999995,21.1662,175,75
2026-05-09 16:26:05.276,3,-0.51,-1.33,0.69,-202.0154,55.864999999999995,18.356199999999998,175,75
2026-05-09 16:26:05.289,3,-0.48,-1.21,0.78,-183.7154,57.144999999999996,18.9062,175,75
2026-05-09 16:26:05.298,3,-0.47,-1.07,0.89,-164.1454,52.325,23.966199999999997,175,75
2026-05-09 16:26:05.298,3,-0.46,-0.98,1.0,-145.2454,45.254999999999995,26.716199999999997,175,75
2026-05-09 16:26:05.310,3,-0.4,-0.87,1.16,-98.2354,-2.125,25.676199999999998,175,75
2026-05-09 16:26:05.326,3,-0.37,-0.76,1.03,-43.8454,-37.065,14.0962,175,75
2026-05-09 16:26:05.364,3,-0.44,-0.67,0.83,21.7646,-37.735,16.836199999999998,175,75
2026-05-09 16:26:05.378,3,-0.42,-0.65,0.82,63.11460000000001,-23.105,21.5962,175,75
2026-05-09 16:26:05.435,3,-0.38,-0.64,0.52,79.0246,-73.225,27.756199999999996,175,75
2026-05-09 16:26:05.467,3,-0.45,-0.57,0.31,71.58460000000001,-68.285,26.3462,175,75
2026-05-09 16:26:05.479,3,-0.46,-0.51,0.2,63.6546,-50.905,26.896199999999997,175,75
2026-05-09 16:26:05.490,3,-0.43,-0.55,0.2,54.694599999999994,-27.305,31.466199999999997,175,75
2026-05-09 16:26:05.502,3,-0.46,-0.75,0.36,42.504599999999996,-26.335,32.75619999999999,175,75
2026-05-09 16:26:05.512,3,-0.5,-0.83,0.38,41.64460000000001,-40.845,33.786199999999994,175,75
2026-05-09 16:26:05.512,3,-0.52,-0.93,0.38,48.234600000000015,-59.805,33.5462,175,75
2026-05-09 16:26:05.525,3,-0.51,-1.0,0.36,58.17460000000001,-77.185,27.756199999999996,175,75
2026-05-09 16:26:05.542,3,-0.53,-1.01,0.3,71.95460000000001,-88.16499999999999,24.156199999999995,175,75
2026-05-09 16:26:05.553,3,-0.56,-1.01,0.26,86.0946,-90.905,25.496199999999998,175,75
2026-05-09 16:26:05.567,3,-0.57,-1.04,0.25,97.6246,-94.685,24.036199999999997,175,75
2026-05-09 16:26:05.591,3,-0.58,-1.17,0.2,127.86460000000001,-98.715,17.016199999999998,175,75
2026-05-09 16:26:05.602,3,-0.55,-1.25,0.18,142.8646,-98.715,13.236199999999997,175,75
2026-05-09 16:26:05.624,3,-0.81,-1.22,-0.33,105.79460000000002,-220.965,47.6862,175,75
2026-05-09 16:26:05.635,3,-0.77,-1.74,-1.57,-26.88539999999999,-445.17499999999995,64.03620000000001,175,75
2026-05-09 16:26:05.645,3,-2.11,-1.38,-2.88,-146.2154,-482.91499999999996,18.1162,175,75
2026-05-09 16:26:05.666,3,-0.29,-1.0,-5.02,-58.16539999999999,-3.285,-204.0738,175,75
2026-05-09 16:26:05.666,3,0.1,-0.19,-3.51,117.5646,418.17499999999995,-116.57379999999999,175,75
2026-05-09 16:26:05.693,3,-0.51,-0.6,1.8,307.9846,653.235,200.6162,175,75
2026-05-09 16:26:05.705,3,-0.14,-2.74,1.76,332.6246,180.125,116.0462,175,75
2026-05-09 16:26:05.731,3,-0.71,-1.28,1.82,37.194599999999994,-71.825,-125.2938,175,75
2026-05-09 16:26:05.748,3,-0.35,-0.1,-0.03,40.91459999999999,-160.415,23.426199999999998,175,75
2026-05-09 16:26:05.768,3,-1.45,-0.6,-0.23,59.514600000000016,74.585,23.4862,175,75
2026-05-09 16:26:05.790,3,-1.14,-0.66,0.37,94.26460000000002,114.82499999999999,-30.603800000000003,175,75
2026-05-09 16:26:05.827,3,-0.02,-1.1,1.2,45.61460000000001,-6.695,-24.013800000000003,175,75
2026-05-09 16:26:05.859,3,-0.41,-1.22,0.61,-3.4753999999999934,-90.665,0.4361999999999977,175,75
2026-05-09 16:26:05.859,3,-0.42,-1.1,0.41,-2.1953999999999922,-102.855,-2.373800000000001,175,75
2026-05-09 16:26:05.880,3,-0.36,-1.01,0.02,16.154600000000002,-75.725,5.126199999999997,175,75
2026-05-09 16:26:05.891,3,-0.57,-0.97,0.05,26.3446,-17.005000000000003,19.036199999999997,175,75
2026-05-09 16:26:05.902,3,-0.68,-0.98,0.29,29.69460000000001,24.214999999999996,20.2562,175,75
2026-05-09 16:26:05.915,3,-0.55,-0.96,0.71,22.924600000000012,10.985,8.6662,175,75
2026-05-09 16:26:05.934,3,-0.67,-0.96,0.53,-2.0153999999999996,-23.465,2.4461999999999975,175,75
2026-05-09 16:26:05.955,3,-0.66,-0.97,0.48,-10.185400000000001,-29.075000000000003,-8.403800000000002,175,75
2026-05-09 16:26:05.969,3,-0.52,-0.94,0.35,-11.705399999999997,-14.195,-5.7238000000000016,175,75
2026-05-09 16:26:05.997,3,-0.55,-0.95,0.38,-3.9054,1.8949999999999996,-2.123800000000001,175,75
2026-05-09 16:26:06.011,3,-0.59,-0.93,0.42,-4.205399999999997,-1.9450000000000003,-1.703800000000001,175,75
2026-05-09 16:26:06.065,3,-0.58,-0.88,0.35,-2.9853999999999985,10.674999999999997,-10.233800000000002,175,75
2026-05-09 16:26:06.078,3,-0.6,-0.9,0.34,-1.1554000000000002,13.975000000000001,-9.743800000000002,175,75
2026-05-09 16:26:06.098,3,-0.55,-0.97,0.32,6.704599999999999,20.735,-11.153800000000002,175,75
2026-05-09 16:26:06.122,3,-0.55,-0.99,0.36,11.644600000000011,25.195,-11.943800000000001,175,75
2026-05-09 16:26:06.146,3,-0.48,-1.02,0.53,12.374600000000001,16.655,-13.893800000000002,175,75
2026-05-09 16:26:06.159,3,-0.49,-1.02,0.53,8.5946,2.5649999999999977,-13.403800000000002,175,75
2026-05-09 16:26:06.170,3,-0.5,-1.01,0.49,7.074600000000004,-6.575000000000003,-13.893800000000002,175,75
2026-05-09 16:26:06.180,3,-0.5,-0.99,0.44,6.954599999999999,-13.465000000000002,-14.563800000000002,175,75
2026-05-09 16:26:06.219,3,-0.56,-0.96,0.35,11.22460000000001,-6.885000000000002,-13.953800000000001,175,75
2026-05-09 16:26:06.253,3,-0.52,-0.92,0.38,17.6246,6.535,-12.553800000000003,175,75
2026-05-09 16:26:06.276,3,-0.44,-0.94,0.45,17.924600000000012,4.274999999999999,-11.213800000000003,175,75
2026-05-09 16:26:06.277,3,-0.44,-0.93,0.43,18.11460000000001,6.414999999999999,-8.463800000000003,175,75
2026-05-09 16:26:06.288,3,-0.38,-0.95,0.43,17.25460000000001,6.414999999999999,-6.6438000000000015,175,75
2026-05-09 16:26:06.300,3,-0.41,-0.94,0.43,17.19460000000001,3.664999999999999,-4.9338000000000015,175,75
2026-05-09 16:26:06.352,3,-0.43,-0.96,0.5,16.58460000000001,1.1050000000000004,-1.3338000000000019,175,75
2026-05-09 16:26:06.386,3,-0.46,-0.97,0.53,14.514600000000002,4.945,2.876199999999999,175,75
2026-05-09 16:26:06.397,3,-0.42,-0.99,0.58,11.894600000000011,-2.0050000000000026,3.2361999999999984,175,75
2026-05-09 16:26:06.409,3,-0.41,-0.99,0.51,7.314599999999999,-17.555,6.956199999999999,175,75
2026-05-09 16:26:06.455,3,-0.54,-0.95,0.48,1.7646000000000015,-45.175,19.036199999999997,175,75
2026-05-09 16:26:06.469,3,-0.67,-0.99,0.34,12.374600000000001,-31.765,8.726199999999999,175,75
2026-05-09 16:26:06.485,3,-0.67,-0.92,0.32,20.914600000000007,-5.545000000000002,2.756199999999998,175,75
2026-05-09 16:26:06.495,3,-0.63,-0.94,0.38,23.964600000000004,4.704999999999998,1.8961999999999986,175,75
2026-05-09 16:26:06.514,3,-0.55,-1.0,0.45,27.6246,2.5649999999999977,-3.4638000000000018,175,75
2026-05-09 16:26:06.525,3,-0.55,-0.97,0.43,29.024600000000007,-4.445,-6.6438000000000015,175,75
2026-05-09 16:26:06.536,3,-0.56,-0.92,0.36,34.2046,-3.525000000000002,-6.703800000000002,175,75
2026-05-09 16:26:06.573,3,-0.52,-0.94,0.54,45.67460000000001,15.375,-6.093800000000002,175,75
2026-05-09 16:26:06.594,3,-0.54,-0.94,0.56,44.63459999999999,17.445,-6.883800000000002,175,75
2026-05-09 16:26:06.606,3,-0.56,-0.9,0.61,42.80460000000001,16.534999999999997,-8.223800000000002,175,75
2026-05-09 16:26:06.606,3,-0.55,-0.88,0.64,40.54460000000002,16.894999999999996,-8.653800000000002,175,75
2026-05-09 16:26:06.619,3,-0.48,-0.9,0.67,37.194599999999994,18.845,-9.503800000000002,175,75
2026-05-09 16:26:06.629,3,-0.44,-0.92,0.69,33.2346,13.915,-8.953800000000001,175,75
2026-05-09 16:26:06.652,3,-0.52,-0.96,0.58,27.3746,7.5049999999999955,-9.683800000000002,175,75
2026-05-09 16:26:06.663,3,-0.52,-0.98,0.6,26.524600000000007,12.504999999999995,-10.603800000000001,175,75
2026-05-09 16:26:06.710,3,-0.53,-0.96,0.63,18.044600000000003,17.504999999999995,-14.443800000000001,175,75
2026-05-09 16:26:06.728,3,-0.48,-0.94,0.67,13.294600000000003,13.545000000000002,-16.7038,175,75
2026-05-09 16:26:06.749,3,-0.5,-0.94,0.67,6.464600000000004,10.064999999999998,-15.173800000000002,175,75
2026-05-09 16:26:06.762,3,-0.52,-0.93,0.63,4.694600000000008,11.714999999999996,-16.213800000000003,175,75
2026-05-09 16:26:06.772,3,-0.55,-0.92,0.6,3.1746000000000123,18.174999999999997,-15.783800000000003,175,75
2026-05-09 16:26:06.784,3,-0.49,-0.94,0.57,1.7646000000000015,22.695,-17.4338,175,75
2026-05-09 16:26:06.794,3,-0.53,-0.92,0.59,2.374600000000001,28.725,-15.783800000000003,175,75
2026-05-09 16:26:06.806,3,-0.49,-0.94,0.58,1.7045999999999992,40.55499999999999,-13.283800000000001,175,75
2026-05-09 16:26:06.813,3,-0.47,-0.96,0.63,0.24460000000000548,42.995000000000005,-11.333800000000002,175,75
2026-05-09 16:26:06.829,3,-0.43,-1.0,0.71,0.4246000000000123,33.055,-14.203800000000001,175,75
2026-05-09 16:26:06.834,3,-0.41,-0.99,0.71,-0.6653999999999911,14.884999999999998,-18.1038,175,75
2026-05-09 16:26:06.851,3,-0.44,-0.95,0.62,-1.7653999999999996,6.655000000000001,-17.4938,175,75
2026-05-09 16:26:06.879,3,-0.45,-0.96,0.61,-0.7954000000000008,4.334999999999997,-16.823800000000002,175,75
2026-05-09 16:26:06.890,3,-0.45,-0.95,0.62,-0.9753999999999934,2.2650000000000006,-17.003800000000002,175,75
2026-05-09 16:26:06.908,3,-0.44,-0.95,0.62,-1.345399999999998,0.125,-16.393800000000002,175,75
2026-05-09 16:26:06.919,3,-0.41,-0.95,0.63,-1.095399999999998,-1.3350000000000009,-16.0938,175,75
2026-05-09 16:26:06.941,3,-0.44,-0.97,0.57,-1.1554000000000002,-3.835000000000001,-15.903800000000002,175,75
2026-05-09 16:26:06.965,3,-0.42,-0.97,0.56,3.2946000000000026,-2.5549999999999997,-15.113800000000001,175,75
2026-05-09 16:26:07.006,3,-0.4,-0.98,0.54,9.144600000000011,-6.025000000000002,-15.7238,175,75
2026-05-09 16:26:07.045,3,-0.38,-0.98,0.57,15.124600000000001,-6.275000000000002,-14.073800000000002,175,75
2026-05-09 16:26:07.071,3,-0.39,-0.98,0.6,18.11460000000001,-12.675,-13.533800000000001,175,75
2026-05-09 16:26:07.071,3,-0.38,-1.01,0.58,19.8146,-17.245,-15.603800000000001,175,75
2026-05-09 16:26:07.089,3,-0.43,-0.98,0.51,22.074600000000004,-22.125,-16.333800000000004,175,75
2026-05-09 16:26:07.100,3,-0.44,-0.97,0.47,28.2346,-17.495,-17.733800000000002,175,75
2026-05-09 16:26:07.111,3,-0.41,-0.98,0.53,33.78460000000001,-18.525000000000002,-21.333800000000004,175,75
2026-05-09 16:26:07.121,3,-0.42,-0.96,0.51,36.83460000000001,-18.895000000000003,-21.513800000000003,175,75
2026-05-09 16:26:07.136,3,-0.43,-0.99,0.58,45.30460000000001,-13.105,-26.943800000000003,175,75
2026-05-09 16:26:07.149,3,-0.4,-1.0,0.63,47.92460000000001,-17.915,-29.443800000000003,175,75
2026-05-09 16:26:07.172,3,-0.39,-1.03,0.68,49.514600000000016,-28.955000000000002,-33.5938,175,75
2026-05-09 16:26:07.182,3,-0.4,-1.05,0.67,49.944599999999994,-33.405,-35.903800000000004,175,75
2026-05-09 16:26:07.193,3,-0.42,-1.03,0.68,51.58460000000001,-33.955,-40.4238,175,75
2026-05-09 16:26:07.205,3,-0.43,-1.01,0.71,52.92460000000001,-33.405,-42.7338,175,75
2026-05-09 16:26:07.218,3,-0.4,-1.02,0.72,52.444599999999994,-37.735,-45.8438,175,75
2026-05-09 16:26:07.229,3,-0.41,-1.0,0.71,51.58460000000001,-38.715,-49.5038,175,75
2026-05-09 16:26:07.238,3,-0.35,-1.0,0.75,52.444599999999994,-36.275,-52.793800000000005,175,75
2026-05-09 16:26:07.311,3,-0.19,-1.27,0.75,55.004599999999996,-30.665,-48.5938,175,75
2026-05-09 16:26:07.346,3,-0.24,-1.15,0.78,53.29460000000002,-54.685,-41.7038,175,75
2026-05-09 16:26:07.355,3,-0.29,-1.18,0.78,48.7846,-73.405,-37.6138,175,75
2026-05-09 16:26:07.375,3,-0.36,-1.15,0.76,38.8446,-101.825,-31.7038,175,75
2026-05-09 16:26:07.387,3,-0.41,-1.08,0.72,31.89460000000001,-119.19500000000001,-29.263800000000003,175,75
2026-05-09 16:26:07.410,3,-0.46,-1.03,0.66,26.7046,-131.335,-28.4038,175,75
2026-05-09 16:26:07.410,3,-0.49,-0.99,0.6,27.6246,-137.91500000000002,-27.0638,175,75
2026-05-09 16:26:07.421,3,-0.52,-0.99,0.57,28.294600000000003,-143.585,-21.4538,175,75
2026-05-09 16:26:07.433,3,-0.5,-1.02,0.52,29.75460000000001,-147.065,-17.003800000000002,175,75
2026-05-09 16:26:07.443,3,-0.54,-0.98,0.49,36.70460000000001,-142.245,-11.033800000000001,175,75
2026-05-09 16:26:07.454,3,-0.5,-1.0,0.46,36.95460000000001,-137.305,-9.563800000000002,175,75
2026-05-09 16:26:07.464,3,-0.52,-1.0,0.5,41.89460000000001,-122.675,-0.42380000000000173,175,75
2026-05-09 16:26:07.509,3,-0.28,-1.27,0.67,84.63459999999999,-37.735,-5.7238000000000016,175,75
2026-05-09 16:26:07.520,3,-0.43,-1.21,0.54,101.76460000000002,1.7749999999999986,5.616199999999999,175,75
2026-05-09 16:26:07.531,3,-0.6,-1.21,0.24,104.0246,55.315,11.7762,175,75
2026-05-09 16:26:07.537,3,-0.69,-1.19,0.08,115.67460000000001,116.83500000000001,18.486199999999997,175,75
2026-05-09 16:26:07.548,3,-0.56,-1.26,0.21,131.3446,172.265,14.576199999999996,175,75
2026-05-09 16:26:07.619,3,0.12,-1.46,1.75,57.984600000000015,0.6149999999999984,82.2662,175,75
2026-05-09 16:26:07.631,3,0.25,-1.39,1.68,31.7046,-45.175,83.2362,175,75
2026-05-09 16:26:07.644,3,0.33,-1.32,1.46,5.424600000000012,-95.725,82.2662,175,75
2026-05-09 16:26:07.655,3,0.37,-1.27,1.22,-8.165399999999991,-116.515,79.2162,175,75
2026-05-09 16:26:07.655,3,0.41,-1.23,1.05,-19.755399999999995,-110.115,73.8462,175,75
2026-05-09 16:26:07.693,3,0.31,-1.22,0.83,-29.2654,14.824999999999996,76.89620000000001,175,75
2026-05-09 16:26:07.705,3,0.25,-1.25,0.91,-28.845399999999998,62.084999999999994,70.1262,175,75
2026-05-09 16:26:07.749,3,0.01,-1.16,1.6,-22.74539999999999,192.625,37.6262,175,75
2026-05-09 16:26:07.813,3,-0.37,-0.65,1.96,-42.7454,138.975,-13.403800000000002,175,75
2026-05-09 16:26:07.813,3,-0.41,-0.59,1.98,-45.605399999999996,112.025,-23.9538,175,75
2026-05-09 16:26:07.825,3,-0.43,-0.53,1.92,-46.3454,89.645,-30.2938,175,75
2026-05-09 16:26:07.842,3,-0.5,-0.44,1.81,-45.91539999999999,74.945,-33.8938,175,75
2026-05-09 16:26:07.857,3,-0.53,-0.26,1.55,-37.80539999999999,60.614999999999995,-39.933800000000005,175,75
2026-05-09 16:26:07.891,3,-0.52,-0.12,1.37,-22.075399999999988,62.995000000000005,-37.6738,175,75
2026-05-09 16:26:07.917,3,-0.51,-0.07,1.33,-11.825399999999988,67.325,-34.5038,175,75
2026-05-09 16:26:07.939,3,-0.5,-0.02,1.3,-3.7153999999999883,65.865,-32.5538,175,75
2026-05-09 16:26:07.954,3,-0.48,0.06,1.23,7.86460000000001,62.875,-29.503800000000002,175,75
2026-05-09 16:26:07.972,3,-0.47,0.15,1.16,17.074600000000004,63.05499999999999,-25.8438,175,75
2026-05-09 16:26:07.986,3,-0.42,0.24,1.09,25.36460000000001,59.334999999999994,-22.2438,175,75
2026-05-09 16:26:07.986,3,-0.37,0.36,0.99,35.974599999999995,53.364999999999995,-16.943800000000003,175,75
2026-05-09 16:26:08.005,3,-0.29,0.43,0.89,46.0946,49.095,-9.813800000000002,175,75
2026-05-09 16:26:08.023,3,-0.23,0.45,0.81,53.6546,42.205,-2.003800000000002,175,75
2026-05-09 16:26:08.058,3,-0.06,0.41,0.54,75.61460000000001,15.435000000000002,18.606199999999998,175,75
2026-05-09 16:26:08.072,3,0.0,0.35,0.39,86.4646,-6.335000000000001,25.7362,175,75
2026-05-09 16:26:08.085,3,0.0,0.32,0.31,91.70460000000001,-14.745000000000001,29.8862,175,75
2026-05-09 16:26:08.107,3,0.03,0.27,0.19,97.98460000000001,-18.105,31.7762,175,75
2026-05-09 16:26:08.148,3,-0.02,0.16,0.27,89.63459999999999,7.384999999999998,22.8162,175,75
2026-05-09 16:26:08.148,3,-0.06,0.17,0.33,80.9746,6.344999999999999,19.516199999999998,175,75
2026-05-09 16:26:08.158,3,-0.11,0.17,0.41,70.61460000000001,1.9549999999999983,17.326199999999996,175,75
2026-05-09 16:26:08.171,3,-0.13,0.17,0.52,54.754599999999996,-11.945,14.706199999999999,175,75
2026-05-09 16:26:08.181,3,-0.13,0.13,0.58,36.3446,-36.695,10.2562,175,75
2026-05-09 16:26:08.181,3,-0.13,0.06,0.6,15.064599999999999,-60.545,6.226199999999999,175,75
2026-05-09 16:26:08.202,3,-0.16,-0.12,0.53,-24.99539999999999,-75.41499999999999,-5.293800000000002,175,75
2026-05-09 16:26:08.212,3,-0.22,-0.22,0.55,-45.30539999999999,-70.905,-9.623800000000003,175,75
2026-05-09 16:26:08.224,3,-0.27,-0.39,0.6,-68.3554,-73.105,-18.163800000000002,175,75
2026-05-09 16:26:08.237,3,-0.26,-0.57,0.61,-93.5954,-76.945,-27.7938,175,75
2026-05-09 16:26:08.249,3,-0.28,-0.77,0.59,-122.0754,-77.67500000000001,-35.1738,175,75
2026-05-09 16:26:08.260,3,-0.29,-1.02,0.57,-148.16539999999998,-74.935,-36.4538,175,75
2026-05-09 16:26:08.272,3,-0.26,-1.76,0.42,-216.6454,-62.615,-46.7638,175,75
2026-05-09 16:26:08.283,3,-0.35,-1.87,0.41,-228.7154,-46.025000000000006,-44.38380000000001,175,75
2026-05-09 16:26:08.301,3,-0.42,-1.9,0.24,-265.8554,-29.935000000000002,-56.213800000000006,175,75
2026-05-09 16:26:08.318,3,-0.33,-2.31,0.22,-291.0954,19.335,-32.6738,175,75
2026-05-09 16:26:08.341,3,-0.54,-2.53,-0.01,-305.0554,32.815,-18.283800000000003,175,75
2026-05-09 16:26:08.364,3,-0.54,-2.45,-0.28,-304.0254,77.325,-17.7938,175,75
2026-05-09 16:26:08.374,3,-0.47,-2.57,-0.28,-306.5254,116.775,-4.813800000000001,175,75
2026-05-09 16:26:08.399,3,-0.55,-2.7,-0.13,-304.5754,138.48499999999999,7.386199999999999,175,75
2026-05-09 16:26:08.427,3,-0.6,-2.79,0.11,-284.1454,125.125,-7.793800000000002,175,75
2026-05-09 16:26:08.463,3,-0.51,-2.15,0.23,-235.66539999999998,87.265,-42.1238,175,75
2026-05-09 16:26:08.473,3,-0.42,-1.92,0.25,-215.91539999999998,67.385,-36.5138,175,75
2026-05-09 16:26:08.484,3,-0.45,-1.66,0.28,-190.4254,41.535,-21.333800000000004,175,75
2026-05-09 16:26:08.495,3,-0.51,-1.51,0.3,-171.9554,27.935000000000002,-16.153800000000004,175,75
2026-05-09 16:26:08.546,3,-0.31,-1.15,0.45,-124.5154,-46.885000000000005,-9.323800000000002,175,75
2026-05-09 16:26:08.578,3,-0.3,-0.85,0.4,-97.68539999999999,-45.665000000000006,-11.033800000000001,175,75
2026-05-09 16:26:08.578,3,-0.33,-0.8,0.41,-91.27539999999999,-36.335,-10.483800000000002,175,75
2026-05-09 16:26:08.600,3,-0.36,-0.74,0.46,-83.2954,-23.715,-10.543800000000001,175,75
2026-05-09 16:26:08.610,3,-0.36,-0.68,0.5,-76.7654,-16.695,-9.263800000000002,175,75
2026-05-09 16:26:08.632,3,-0.41,-0.59,0.56,-60.425399999999996,-10.175,-4.873800000000002,175,75
2026-05-09 16:26:08.699,3,-0.39,-0.48,0.78,-5.125399999999999,-8.895,1.7161999999999988,175,75
2026-05-09 16:26:08.708,3,-0.42,-0.5,0.78,1.0346000000000117,-14.015,2.996199999999998,175,75
2026-05-09 16:26:08.728,3,-0.45,-0.53,0.77,9.634600000000006,-18.655,4.096199999999998,175,75
2026-05-09 16:26:08.772,3,-0.49,-0.63,0.68,54.514600000000016,-55.605000000000004,14.0962,175,75
2026-05-09 16:26:08.788,3,-0.5,-0.67,0.65,61.4046,-70.545,16.5962,175,75
2026-05-09 16:26:08.834,3,-0.62,-0.97,0.39,78.5346,-117.985,21.286199999999997,175,75
2026-05-09 16:26:08.871,3,-0.64,-1.07,0.21,102.6846,-137.185,14.396199999999997,175,75
2026-05-09 16:26:08.883,3,-0.66,-1.1,0.18,110.2446,-135.905,15.2562,175,75
2026-05-09 16:26:08.893,3,-0.69,-1.18,0.15,120.30460000000001,-131.275,15.796199999999999,175,75
2026-05-09 16:26:08.921,3,-0.71,-1.29,0.21,145.9746,-111.765,8.356199999999998,175,75
2026-05-09 16:26:08.943,3,-0.67,-1.58,-1.22,24.08460000000001,-462.55499999999995,82.6262,175,75
2026-05-09 16:26:08.953,3,-2.97,-1.3,-3.63,-399.8154,-1233.7749999999999,199.94619999999998,175,75
2026-05-09 16:26:08.977,3,-1.4,-0.97,-6.3,-454.9354,691.105,-379.1438,175,75
2026-05-09 16:26:09.010,3,1.0,0.03,0.78,533.2346,461.895,319.5762,175,75
2026-05-09 16:26:09.042,3,0.15,-2.26,2.6,70.61460000000001,309.095,-53.5338,175,75
2026-05-09 16:26:09.058,3,0.97,-1.14,1.31,42.6246,-216.455,12.446199999999997,175,75
2026-05-09 16:26:09.061,3,-0.94,-0.73,0.38,30.184600000000003,-281.33500000000004,70.4362,175,75
2026-05-09 16:26:09.093,3,-0.78,-0.71,0.46,111.58460000000001,-8.775000000000002,-77.6738,175,75
2026-05-09 16:26:09.112,3,-0.16,-0.64,0.84,67.1946,-20.965,-47.6138,175,75
2026-05-09 16:26:09.112,3,0.08,-0.54,0.8,46.4046,-71.515,0.5561999999999987,175,75
2026-05-09 16:26:09.146,3,-0.51,-1.2,0.05,55.67460000000001,-72.495,-2.793800000000001,175,75
2026-05-09 16:26:09.146,3,-0.51,-1.13,0.1,60.1246,-42.435,5.676199999999998,175,75
2026-05-09 16:26:09.169,3,-0.46,-1.03,0.4,54.08460000000001,-3.775000000000002,6.106199999999998,175,75
2026-05-09 16:26:09.214,3,-0.55,-0.94,0.53,19.69460000000001,-62.985,6.956199999999999,175,75
2026-05-09 16:26:09.238,3,-0.58,-0.95,0.31,17.6246,-51.155,1.1061999999999976,175,75
2026-05-09 16:26:09.250,3,-0.56,-0.92,0.35,20.0646,-19.385,0.7361999999999984,175,75
2026-05-09 16:26:09.278,3,-0.57,-0.88,0.43,18.654600000000002,-11.085,1.836199999999998,175,75
2026-05-09 16:26:09.291,3,-0.62,-0.85,0.49,11.464600000000004,-23.835,4.576199999999998,175,75
2026-05-09 16:26:09.306,3,-0.67,-0.87,0.43,9.2046,-26.945,4.6461999999999986,175,75
2026-05-09 16:26:09.356,3,-0.69,-0.86,0.36,7.0146000000000015,-13.715000000000002,3.176199999999998,175,75
2026-05-09 16:26:09.368,3,-0.62,-0.92,0.4,8.534600000000012,-6.335000000000001,-2.5538000000000025,175,75
2026-05-09 16:26:09.368,3,-0.58,-0.92,0.41,10.61460000000001,-4.745000000000001,-3.7138000000000018,175,75
2026-05-09 16:26:09.383,3,-0.57,-0.93,0.42,11.034600000000012,-5.484999999999999,-4.263800000000002,175,75
2026-05-09 16:26:09.406,3,-0.55,-0.97,0.43,13.044600000000003,-4.505000000000003,-6.213800000000002,175,75
2026-05-09 16:26:09.450,3,-0.56,-0.94,0.43,11.034600000000012,-4.805,-6.273800000000001,175,75
2026-05-09 16:26:09.461,3,-0.56,-0.93,0.45,12.074600000000004,-1.2149999999999999,-7.493800000000002,175,75
2026-05-09 16:26:09.461,3,-0.55,-0.92,0.47,11.464600000000004,0.5549999999999997,-8.223800000000002,175,75
2026-05-09 16:26:09.480,3,-0.53,-0.9,0.49,11.154600000000002,0.9849999999999994,-7.493800000000002,175,75
2026-05-09 16:26:09.528,3,-0.56,-0.95,0.53,7.924600000000012,-2.4350000000000023,-9.3838,175,75
2026-05-09 16:26:09.559,3,-0.53,-0.92,0.5,4.634600000000006,-6.825000000000003,-8.773800000000001,175,75
2026-05-09 16:26:09.588,3,-0.67,-0.92,0.39,3.5946,-15.175,-9.993800000000002,175,75
2026-05-09 16:26:09.603,3,-0.68,-0.93,0.34,4.024600000000007,-10.295000000000002,-13.403800000000002,175,75
2026-05-09 16:26:09.615,3,-0.71,-0.9,0.36,6.284600000000012,-3.955000000000002,-12.003800000000002,175,75
2026-05-09 16:26:09.626,3,-0.7,-0.87,0.41,6.2246000000000095,-3.465,-10.963800000000003,175,75
2026-05-09 16:26:09.639,3,-0.72,-0.83,0.46,1.7646000000000015,-13.165000000000001,-6.883800000000002,175,75
2026-05-09 16:26:09.659,3,-0.84,-0.76,0.44,-13.0454,-61.215,15.986199999999997,175,75
2026-05-09 16:26:09.724,3,-0.7,-0.62,0.32,-122.9254,-404.19500000000005,67.8762,175,75
2026-05-09 16:26:09.741,3,-0.21,-0.84,0.15,-113.5354,-357.43499999999995,67.8762,175,75
2026-05-09 16:26:09.753,3,0.11,-1.05,0.14,-102.3154,-317.18499999999995,57.3862,175,75
2026-05-09 16:26:09.808,3,-0.25,-1.08,-0.28,28.174600000000012,48.545,61.4062,175,75
2026-05-09 16:26:09.808,3,-1.2,-1.2,-0.49,31.58460000000001,93.115,78.5462,175,75
2026-05-09 16:26:09.833,3,-1.15,-1.41,0.53,88.4746,161.045,39.5762,175,75
2026-05-09 16:26:09.833,3,-0.93,-1.26,1.06,95.85460000000002,111.04499999999999,6.776199999999999,175,75
2026-05-09 16:26:09.845,3,-0.72,-0.94,1.36,55.42460000000001,64.705,-18.5938,175,75
2026-05-09 16:26:09.871,3,-0.51,-0.44,1.31,4.574600000000004,-2.9849999999999994,-13.163800000000002,175,75
2026-05-09 16:26:09.908,3,-0.85,-1.19,0.32,-2.865399999999994,-35.355000000000004,-0.11380000000000123,175,75
2026-05-09 16:26:09.908,3,-0.76,-1.12,0.33,5.004600000000011,-15.175,-11.643800000000002,175,75
2026-05-09 16:26:09.921,3,-0.58,-0.86,0.43,8.414600000000007,15.674999999999997,-16.763800000000003,175,75
2026-05-09 16:26:09.938,3,-0.49,-0.69,0.65,-0.9153999999999911,24.275,7.9361999999999995,175,75
2026-05-09 16:26:09.950,3,-0.64,-0.84,0.71,-4.575399999999988,16.775,13.606199999999998,175,75
2026-05-09 16:26:09.962,3,-0.72,-0.98,0.72,-11.345399999999998,5.864999999999998,2.876199999999999,175,75
2026-05-09 16:26:09.990,3,-0.62,-0.91,0.72,-22.0154,-11.025,-9.203800000000001,175,75
2026-05-09 16:26:10.009,3,-0.64,-0.88,0.53,-32.865399999999994,-32.005,-1.6438000000000024,175,75
2026-05-09 16:26:10.021,3,-0.66,-0.93,0.48,-30.185399999999994,-24.565,-3.8938000000000015,175,75
2026-05-09 16:26:10.073,3,-0.5,-0.94,0.53,-22.6254,1.9549999999999983,-1.6438000000000024,175,75
2026-05-09 16:26:10.079,3,-0.55,-1.0,0.53,-22.6854,-4.935000000000002,-0.6638000000000019,175,75
2026-05-09 16:26:10.103,3,-0.59,-0.96,0.46,-15.735399999999998,-11.575000000000001,-3.283800000000002,175,75
2026-05-09 16:26:10.189,3,-0.54,-0.95,0.59,-3.9054,-11.515,0.376199999999999,175,75
2026-05-09 16:26:10.199,3,-0.56,-0.98,0.58,-5.915399999999991,-16.695,-0.29380000000000095,175,75
2026-05-09 16:26:10.222,3,-0.56,-0.99,0.55,-7.375399999999999,-18.955000000000002,0.12619999999999898,175,75
2026-05-09 16:26:10.244,3,-0.56,-0.97,0.55,-7.925399999999996,-19.075000000000003,1.1661999999999981,175,75
2026-05-09 16:26:10.244,3,-0.58,-0.97,0.56,-8.2954,-19.995,1.5961999999999978,175,75
2026-05-09 16:26:10.277,3,-0.54,-0.98,0.56,-11.27539999999999,-26.455000000000002,0.6761999999999979,175,75
2026-05-09 16:26:10.311,3,-0.53,-0.96,0.56,-11.705399999999997,-30.295,1.7161999999999988,175,75
2026-05-09 16:26:10.345,3,-0.56,-0.95,0.53,-11.825399999999988,-36.765,2.0761999999999983,175,75
2026-05-09 16:26:10.355,3,-0.6,-0.94,0.51,-11.465399999999988,-39.265,2.9361999999999977,175,75
2026-05-09 16:26:10.355,3,-0.59,-0.96,0.51,-10.425399999999996,-38.165,2.1461999999999986,175,75
2026-05-09 16:26:10.404,3,-0.58,-0.88,0.49,-6.465399999999988,-48.655,6.406199999999998,175,75
2026-05-09 16:26:10.416,3,-0.6,-0.87,0.52,-4.145399999999995,-49.445,7.9361999999999995,175,75
2026-05-09 16:26:10.416,3,-0.6,-0.87,0.55,-4.38539999999999,-53.655,8.8462,175,75
2026-05-09 16:26:10.428,3,-0.69,-0.8,0.54,-5.605399999999989,-59.625,15.316199999999998,175,75
2026-05-09 16:26:10.439,3,-0.71,-0.72,0.77,-11.4054,-83.775,26.896199999999997,175,75
2026-05-09 16:26:10.454,3,-0.72,-0.74,0.75,-18.9054,-105.055,36.1662,175,75
2026-05-09 16:26:10.493,3,-0.81,-0.82,0.5,-21.825399999999988,-126.765,36.4062,175,75
2026-05-09 16:26:10.503,3,-0.82,-0.78,0.38,-17.6254,-131.575,40.556200000000004,175,75
2026-05-09 16:26:10.519,3,-1.06,-0.69,0.33,-4.935400000000001,-117.855,62.2662,175,75
2026-05-09 16:26:10.538,3,-1.1,-0.75,0.55,-4.695399999999992,-145.175,70.92620000000001,175,75
2026-05-09 16:26:10.539,3,-1.11,-0.76,0.54,-7.13539999999999,-162.495,71.6562,175,75
2026-05-09 16:26:10.575,3,-0.79,-0.83,0.54,-11.215399999999988,-211.945,67.8762,175,75
2026-05-09 16:26:10.586,3,-0.64,-0.87,0.5,-12.865399999999994,-226.76500000000001,74.03620000000001,175,75
2026-05-09 16:26:10.617,3,-0.54,-1.06,0.48,-2.9853999999999985,-230.725,84.1562,175,75
2026-05-09 16:26:10.617,3,-0.46,-1.16,0.56,2.374600000000001,-232.005,85.0062,175,75
2026-05-09 16:26:10.661,3,-0.15,-1.76,0.69,13.414600000000007,-276.765,94.5162,175,75
2026-05-09 16:26:10.685,3,-0.22,-2.17,0.61,14.264600000000002,-294.93499999999995,88.78620000000001,175,75
2026-05-09 16:26:10.700,3,-0.28,-2.21,0.34,24.2046,-309.875,75.1262,175,75
2026-05-09 16:26:10.713,3,-0.31,-2.1,0.21,39.33460000000001,-302.79499999999996,69.2762,175,75
2026-05-09 16:26:10.739,3,-0.66,-1.32,0.52,81.89460000000001,-198.405,93.7262,175,75
2026-05-09 16:26:10.750,3,-0.7,-1.34,0.71,88.9046,-151.335,100.1862,175,75
2026-05-09 16:26:10.771,3,-0.62,-1.34,1.02,80.30460000000001,-135.725,78.6062,175,75
2026-05-09 16:26:10.811,3,-0.79,-0.55,1.45,52.254599999999996,-23.955000000000002,97.5062,175,75
2026-05-09 16:26:10.830,3,-0.3,-0.92,1.82,41.224599999999995,-41.695,77.3262,175,75
2026-05-09 16:26:10.843,3,-0.17,-0.92,1.87,9.75460000000001,-106.515,63.6662,175,75
2026-05-09 16:26:10.854,3,-0.2,-0.85,1.56,-1.5253999999999905,-119.19500000000001,61.596199999999996,175,75
2026-05-09 16:26:10.875,3,-0.28,-0.79,1.5,20.424600000000012,-59.505,47.9362,175,75
2026-05-09 16:26:10.886,3,-0.31,-0.73,1.6,31.154600000000002,-35.355000000000004,38.2962,175,75
2026-05-09 16:26:10.919,3,-0.37,-0.4,1.81,54.02460000000001,16.955,20.4362,175,75
2026-05-09 16:26:10.930,3,-0.38,-0.29,1.78,62.13459999999999,21.045,15.986199999999997,175,75
2026-05-09 16:26:10.955,3,-0.35,-0.14,1.67,81.3446,35.675,17.016199999999998,175,75
2026-05-09 16:26:10.955,3,-0.32,-0.09,1.66,87.98460000000001,35.125,17.5662,175,75
2026-05-09 16:26:10.978,3,-0.31,-0.04,1.63,96.2246,35.555,21.106199999999998,175,75
2026-05-09 16:26:10.990,3,-0.27,-0.05,1.63,100.42460000000001,33.235,23.6662,175,75
2026-05-09 16:26:11.000,3,-0.25,-0.06,1.58,103.17460000000001,23.365000000000002,23.176199999999998,175,75
2026-05-09 16:26:11.000,3,-0.24,-0.0,1.51,105.9146,14.585,20.7962,175,75
2026-05-09 16:26:11.033,3,-0.17,0.1,1.37,107.07460000000002,-1.0250000000000021,16.106199999999998,175,75
2026-05-09 16:26:11.049,3,-0.14,0.14,1.26,108.29460000000002,-22.125,14.946199999999997,175,75
2026-05-09 16:26:11.083,3,-0.12,0.18,0.93,102.3146,-47.615,8.176199999999998,175,75
2026-05-09 16:26:11.094,3,-0.1,0.19,0.82,100.2446,-51.025000000000006,4.826199999999998,175,75
2026-05-09 16:26:11.094,3,-0.06,0.23,0.68,98.7846,-57.985,-1.823800000000002,175,75
2026-05-09 16:26:11.103,3,-0.03,0.24,0.57,98.7246,-58.655,-4.6838000000000015,175,75
2026-05-09 16:26:11.104,3,-0.03,0.22,0.51,97.3746,-52.735,-5.293800000000002,175,75
2026-05-09 16:26:11.114,3,-0.01,0.22,0.45,89.9446,-50.845,-12.673800000000002,175,75
2026-05-09 16:26:11.189,3,-0.04,0.24,0.45,32.6246,-29.195,-35.4238,175,75
2026-05-09 16:26:11.189,3,-0.04,0.24,0.48,19.634600000000006,-33.955,-41.0938,175,75
2026-05-09 16:26:11.211,3,-0.09,0.24,0.5,-7.2553999999999945,-31.455000000000002,-47.183800000000005,175,75
2026-05-09 16:26:11.243,3,-0.11,0.24,0.55,-21.705399999999997,-32.915,-50.4838,175,75
2026-05-09 16:26:11.256,3,-0.12,0.23,0.59,-33.535399999999996,-34.565,-53.3438,175,75
2026-05-09 16:26:11.295,3,-0.13,0.2,0.7,-62.80539999999999,-41.025,-56.823800000000006,175,75
2026-05-09 16:26:11.309,3,-0.11,0.15,0.72,-79.69539999999999,-48.165000000000006,-61.0338,175,75
2026-05-09 16:26:11.344,3,-0.08,0.05,0.65,-104.02539999999999,-46.155,-64.6238,175,75
2026-05-09 16:26:11.359,3,-0.08,0.01,0.65,-115.8554,-30.295,-67.5538,175,75
2026-05-09 16:26:11.370,3,-0.06,-0.06,0.77,-129.5754,-7.615000000000002,-69.99380000000001,175,75
2026-05-09 16:26:11.382,3,-0.05,-0.14,0.88,-145.3654,1.1050000000000004,-76.3938,175,75
2026-05-09 16:26:11.399,3,-0.08,-0.22,0.93,-156.6454,8.915,-78.6538,175,75
2026-05-09 16:26:11.399,3,-0.07,-0.35,0.97,-167.3154,16.655,-84.2038,175,75
2026-05-09 16:26:11.410,3,-0.1,-0.5,0.9,-176.03539999999998,37.385,-84.07379999999999,175,75
2026-05-09 16:26:11.421,3,-0.11,-0.64,0.79,-185.1254,59.825,-86.57379999999999,175,75
2026-05-09 16:26:11.435,3,-0.17,-0.75,0.47,-203.10539999999997,137.695,-94.1438,175,75
2026-05-09 16:26:11.466,3,-0.4,-0.98,0.53,-202.43540000000002,250.61499999999998,-89.6238,175,75
2026-05-09 16:26:11.480,3,-0.61,-1.11,0.52,-209.6354,293.05499999999995,-92.3138,175,75
2026-05-09 16:26:11.504,3,-0.77,-1.3,0.51,-215.4254,330.80499999999995,-93.71379999999999,175,75
2026-05-09 16:26:11.504,3,-0.98,-1.54,0.56,-216.5254,366.83500000000004,-96.21379999999999,175,75
2026-05-09 16:26:11.529,3,-2.69,-1.01,1.47,-172.43540000000002,444.645,-74.74380000000001,175,75
2026-05-09 16:26:11.628,3,-1.55,1.14,-0.87,-412.1354,-154.385,73.5462,175,75
2026-05-09 16:26:11.659,3,-1.45,-2.0,-1.58,-88.16539999999999,32.144999999999996,67.6262,175,75
2026-05-09 16:26:11.664,3,-1.48,-1.81,-0.62,47.504599999999996,265.55499999999995,-47.6138,175,75
2026-05-09 16:26:11.677,3,-0.16,-1.33,0.88,93.8446,361.655,-140.5438,175,75
2026-05-09 16:26:11.687,3,0.66,-0.67,1.96,-29.875399999999992,123.91499999999999,23.8462,175,75
2026-05-09 16:26:11.708,3,-0.67,-1.18,0.66,-21.705399999999997,35.315,-6.333800000000002,175,75
2026-05-09 16:26:11.708,3,-0.57,-1.01,0.85,-19.695399999999992,44.515,-13.163800000000002,175,75
2026-05-09 16:26:11.718,3,-0.46,-0.94,0.92,-25.4854,23.305,-12.983800000000002,175,75
2026-05-09 16:26:11.730,3,-0.54,-0.89,0.87,-29.935399999999994,13.545000000000002,-9.263800000000002,175,75
2026-05-09 16:26:11.741,3,-0.61,-0.88,0.81,-30.30539999999999,12.324999999999996,-11.153800000000002,175,75
2026-05-09 16:26:11.764,3,-0.68,-0.91,0.79,-29.515399999999993,8.915,-19.013800000000003,175,75
2026-05-09 16:26:11.783,3,-0.56,-0.89,0.73,-32.55539999999999,12.814999999999998,-25.7838,175,75
2026-05-09 16:26:11.804,3,-0.54,-0.86,0.72,-34.9954,15.555,-22.6738,175,75
2026-05-09 16:26:11.829,3,-0.55,-0.86,0.72,-36.035399999999996,18.485,-20.1738,175,75
2026-05-09 16:26:11.842,3,-0.53,-0.87,0.7,-36.7054,19.335,-20.7838,175,75
2026-05-09 16:26:11.861,3,-0.51,-0.84,0.63,-35.855399999999996,14.335,-17.4938,175,75
2026-05-09 16:26:11.873,3,-0.52,-0.86,0.62,-34.2054,14.765,-15.293800000000001,175,75
2026-05-09 16:26:11.905,3,-0.5,-0.94,0.6,-18.475399999999993,12.144999999999996,-13.533800000000001,175,75
2026-05-09 16:26:11.918,3,-0.51,-0.94,0.61,-17.315399999999997,9.644999999999996,-11.763800000000002,175,75
2026-05-09 16:26:11.928,3,-0.52,-0.94,0.62,-15.665399999999991,7.204999999999998,-11.823800000000002,175,75
2026-05-09 16:26:11.943,3,-0.52,-0.95,0.61,-14.575399999999988,4.824999999999999,-11.823800000000002,175,75
2026-05-09 16:26:11.943,3,-0.53,-0.94,0.59,-11.645399999999995,3.3049999999999997,-10.843800000000002,175,75
2026-05-09 16:26:11.956,3,-0.54,-0.93,0.58,-10.185400000000001,3.724999999999998,-10.903800000000002,175,75
2026-05-09 16:26:11.967,3,-0.55,-0.92,0.59,-8.845399999999998,4.395,-11.643800000000002,175,75
2026-05-09 16:26:11.968,3,-0.53,-0.91,0.59,-9.085399999999993,4.395,-12.613800000000001,175,75
2026-05-09 16:26:11.981,3,-0.53,-0.91,0.61,-8.2954,5.195,-12.493800000000002,175,75
2026-05-09 16:26:11.989,3,-0.49,-0.94,0.62,-8.77539999999999,2.0849999999999973,-12.373800000000003,175,75
2026-05-09 16:26:12.007,3,-0.48,-0.94,0.61,-8.535399999999996,2.0849999999999973,-11.393800000000002,175,75
2026-05-09 16:26:12.019,3,-0.48,-0.94,0.61,-8.0454,1.9549999999999983,-9.993800000000002,175,75
2026-05-09 16:26:12.019,3,-0.48,-0.95,0.62,-8.355399999999989,1.2850000000000001,-9.683800000000002,175,75
2026-05-09 16:26:12.053,3,-0.49,-0.94,0.59,-7.685400000000001,1.6549999999999976,-9.263800000000002,175,75
2026-05-09 16:26:12.094,3,-0.49,-0.93,0.6,-7.13539999999999,1.7149999999999999,-9.263800000000002,175,75
2026-05-09 16:26:12.105,3,-0.51,-0.92,0.59,-7.375399999999999,-1.2149999999999999,-8.403800000000002,175,75
2026-05-09 16:26:12.119,3,-0.52,-0.93,0.58,-5.065399999999997,1.1050000000000004,-10.663800000000002,175,75
2026-05-09 16:26:12.168,3,-0.51,-0.93,0.56,-2.315399999999997,0.6149999999999984,-10.843800000000002,175,75
2026-05-09 16:26:12.211,3,-0.52,-0.95,0.52,2.434600000000003,-0.6650000000000027,-12.063800000000002,175,75
2026-05-09 16:26:12.231,3,-0.54,-0.97,0.5,5.9746000000000095,0.5549999999999997,-13.223800000000002,175,75
2026-05-09 16:26:12.245,3,-0.53,-0.99,0.51,9.394600000000011,2.4450000000000003,-16.033800000000003,175,75
2026-05-09 16:26:12.245,3,-0.53,-0.98,0.53,11.9546,3.3049999999999997,-17.6138,175,75
2026-05-09 16:26:12.256,3,-0.5,-0.99,0.55,14.2046,2.0849999999999973,-19.443800000000003,175,75
2026-05-09 16:26:12.267,3,-0.5,-0.96,0.57,16.03460000000001,0.7349999999999994,-20.6038,175,75
2026-05-09 16:26:12.267,3,-0.49,-0.96,0.58,17.744600000000005,-0.9649999999999999,-21.8838,175,75
2026-05-09 16:26:12.281,3,-0.48,-0.95,0.58,19.2646,-2.7950000000000017,-23.1038,175,75
2026-05-09 16:26:12.293,3,-0.49,-0.95,0.55,21.7646,-3.775000000000002,-24.443800000000003,175,75
2026-05-09 16:26:12.293,3,-0.51,-0.96,0.52,24.75460000000001,-1.6950000000000003,-26.213800000000003,175,75
2026-05-09 16:26:12.307,3,-0.45,-0.94,0.64,29.8146,7.204999999999998,-31.513800000000003,175,75
2026-05-09 16:26:12.318,3,-0.45,-0.93,0.65,29.024600000000007,6.224999999999998,-31.823800000000002,175,75
2026-05-09 16:26:12.372,3,-0.46,-0.94,0.68,27.074600000000004,0.3149999999999977,-33.043800000000005,175,75
2026-05-09 16:26:12.372,3,-0.43,-0.95,0.67,26.3446,-0.7850000000000001,-34.8738,175,75
2026-05-09 16:26:12.394,3,-0.43,-0.98,0.67,24.2046,-5.355,-37.6738,175,75
2026-05-09 16:26:12.408,3,-0.4,-0.98,0.66,24.08460000000001,-7.245000000000001,-39.0138,175,75
2026-05-09 16:26:12.455,3,-0.35,-1.0,0.67,25.854600000000005,-13.465000000000002,-42.9838,175,75
