Time,ID,Ax,Ay,Az,Gx,Gy,Gz,Height,Weight
2026-05-11 18:06:05.460,3,-3.21,-0.16,-1.63,-475.3994,-186.7808,-248.0896,175,75
2026-05-11 18:06:05.460,3,1.45,0.29,-3.67,-134.0494,-210.0108,-355.9596,175,75
2026-05-11 18:06:05.503,3,-0.36,-1.89,3.83,239.60060000000001,148.2792,-27.6096,175,75
2026-05-11 18:06:05.531,3,-0.09,-0.59,1.31,9.4806,-263.7308,-10.2296,175,75
2026-05-11 18:06:05.548,3,-0.25,-0.87,0.17,49.300599999999996,-180.99079999999998,-31.869600000000002,175,75
2026-05-11 18:06:05.548,3,-0.32,-0.98,-0.19,121.86059999999999,-64.8908,-25.4096,175,75
2026-05-11 18:06:05.558,3,-0.25,-0.96,0.44,185.5806,42.2492,-22.7896,175,75
2026-05-11 18:06:05.568,3,-0.23,-0.94,0.81,185.88060000000002,44.9292,-15.6496,175,75
2026-05-11 18:06:05.594,3,-0.07,-1.56,0.55,179.6706,-189.2808,-14.9796,175,75
2026-05-11 18:06:05.652,3,-0.65,-1.42,-1.42,345.88059999999996,18.9492,-96.1996,175,75
2026-05-11 18:06:05.662,3,-0.66,-1.32,-0.37,388.38059999999996,114.61919999999999,5.8104,175,75
2026-05-11 18:06:05.662,3,-0.95,-1.54,0.29,462.5906,85.5392,80.2004,175,75
2026-05-11 18:06:05.674,3,-1.23,-1.6,0.95,453.9906,56.9392,95.4404,175,75
2026-05-11 18:06:05.699,3,-0.92,-0.67,2.04,272.1706,44.0792,-17.9096,175,75
2026-05-11 18:06:05.733,3,-1.22,-0.43,0.09,-50.1494,48.339200000000005,-14.249600000000001,175,75
2026-05-11 18:06:05.747,3,-0.2,0.71,1.51,-86.4294,273.8892,-35.2896,175,75
2026-05-11 18:06:05.761,3,-0.17,0.98,2.11,-156.0694,219.25920000000002,-29.3096,175,75
2026-05-11 18:06:05.779,3,-0.29,0.79,2.21,-313.0194,82.7992,-60.7796,175,75
2026-05-11 18:06:05.789,3,-0.32,0.8,2.08,-347.8294,80.7792,-62.4796,175,75
2026-05-11 18:06:05.800,3,-0.39,0.81,2.04,-370.3994,104.3792,-60.3496,175,75
2026-05-11 18:06:05.809,3,-0.36,0.74,2.05,-383.56940000000003,108.7692,-66.9296,175,75
2026-05-11 18:06:05.848,3,-0.21,0.81,2.03,-365.7594,121.5792,-46.9296,175,75
2026-05-11 18:06:05.860,3,-0.28,0.74,2.24,-350.4594,115.4192,-40.5896,175,75
2026-05-11 18:06:05.864,3,-0.11,0.74,2.33,-338.0194,100.1692,-45.2896,175,75
2026-05-11 18:06:05.884,3,0.02,0.75,2.33,-300.2694,66.14920000000001,-38.5196,175,75
2026-05-11 18:06:05.952,3,0.07,0.68,2.14,-260.2694,66.2092,-36.3896,175,75
2026-05-11 18:06:05.963,3,0.09,0.75,2.09,-248.9294,70.7192,-30.7196,175,75
2026-05-11 18:06:05.963,3,0.05,0.8,2.06,-239.3594,81.3292,-28.5796,175,75
2026-05-11 18:06:05.975,3,-0.05,0.71,2.09,-222.0394,116.6992,-35.2296,175,75
2026-05-11 18:06:05.996,3,-0.31,0.47,2.51,-164.4794,137.7292,-55.7796,175,75
2026-05-11 18:06:06.007,3,-0.23,0.46,2.67,-152.7694,109.9292,-55.9596,175,75
2026-05-11 18:06:06.020,3,-0.13,0.54,2.64,-143.43939999999998,59.0792,-53.949600000000004,175,75
2026-05-11 18:06:06.020,3,-0.14,0.63,2.53,-123.6894,17.1892,-47.2396,175,75
2026-05-11 18:06:06.031,3,-0.13,0.73,2.48,-99.1794,13.409200000000002,-39.8596,175,75
2026-05-11 18:06:06.047,3,-0.34,0.95,2.65,-41.9194,-11.050799999999999,-26.8096,175,75
2026-05-11 18:06:06.058,3,-0.44,0.98,2.94,-10.0294,-51.5308,-23.6396,175,75
2026-05-11 18:06:06.058,3,-0.34,1.0,2.94,-23.199399999999997,-86.5908,-13.579600000000001,175,75
2026-05-11 18:06:06.110,3,-0.42,0.87,1.95,-2.4094,-67.2008,-8.2196,175,75
2026-05-11 18:06:06.110,3,-0.51,0.86,2.15,71.0706,51.8792,-10.4096,175,75
2026-05-11 18:06:06.128,3,-0.33,0.8,2.89,116.5606,68.0992,-17.479599999999998,175,75
2026-05-11 18:06:06.139,3,-0.75,0.49,3.45,130.4606,58.2192,2.0904000000000003,175,75
2026-05-11 18:06:06.176,3,-3.52,1.92,1.02,-1010.1494,-470.50079999999997,-348.5196,175,75
2026-05-11 18:06:06.186,3,2.3,-2.05,-6.71,22.2906,-738.1808000000001,-70.4096,175,75
2026-05-11 18:06:06.198,3,-3.06,3.11,0.75,631.9806000000001,742.3692,70.4404,175,75
2026-05-11 18:06:06.207,3,-1.26,3.15,4.51,587.9606,713.7092,88.2504,175,75
2026-05-11 18:06:06.219,3,-0.27,-0.1,6.17,247.65060000000003,-395.5608,139.0404,175,75
2026-05-11 18:06:06.288,3,0.19,0.09,2.09,43.6306,-398.00079999999997,45.0204,175,75
2026-05-11 18:06:06.288,3,-0.97,0.39,1.13,154.3006,60.1092,-7.2996,175,75
2026-05-11 18:06:06.319,3,-0.19,-0.54,1.64,43.1406,1.0892000000000017,-33.6396,175,75
2026-05-11 18:06:06.343,3,0.02,-0.77,1.49,12.1006,82.0592,-33.5196,175,75
2026-05-11 18:06:06.364,3,-0.36,-0.9,1.36,-14.239400000000002,-1.290799999999999,-51.449600000000004,175,75
2026-05-11 18:06:06.364,3,-0.67,-0.95,1.05,-14.1194,-49.160799999999995,-57.2396,175,75
2026-05-11 18:06:06.377,3,-0.66,-1.22,0.88,-24.909399999999998,-82.02080000000001,-59.5596,175,75
2026-05-11 18:06:06.390,3,-0.81,-1.46,0.3,-149.4794,-220.5008,-52.7896,175,75
2026-05-11 18:06:06.407,3,-1.09,-0.59,-0.55,-153.0194,-219.40079999999998,-85.5296,175,75
2026-05-11 18:06:06.418,3,-1.49,0.32,-0.48,-40.089400000000005,-31.350799999999996,-37.7896,175,75
2026-05-11 18:06:06.430,3,-1.33,-0.12,0.31,75.5806,154.5592,46.7204,175,75
2026-05-11 18:06:06.447,3,-0.87,-0.38,1.73,156.9206,-137.5708,60.7504,175,75
2026-05-11 18:06:06.456,3,0.16,0.88,0.08,-70.5794,-507.6908,-2.4196,175,75
2026-05-11 18:06:06.521,3,-2.0,0.91,-3.64,-206.12939999999998,-188.8508,131.8504,175,75
2026-05-11 18:06:06.533,3,-2.28,1.18,-3.15,-220.6994,354.80920000000003,81.4204,175,75
2026-05-11 18:06:06.557,3,0.18,0.14,1.49,-235.02939999999998,105.5992,86.6004,175,75
2026-05-11 18:06:06.567,3,-0.05,0.19,1.12,-290.6994,-143.36079999999998,48.8604,175,75
2026-05-11 18:06:06.577,3,-0.47,0.3,0.58,-276.5494,-58.7308,97.0304,175,75
2026-05-11 18:06:06.584,3,0.1,-0.1,1.2,-262.7694,-23.850799999999996,76.8504,175,75
2026-05-11 18:06:06.607,3,0.09,0.29,2.81,-147.09939999999997,31.5792,82.7004,175,75
2026-05-11 18:06:06.620,3,0.91,0.52,3.32,-108.2594,-73.4208,50.4404,175,75
2026-05-11 18:06:06.630,3,0.88,0.63,3.18,-74.9094,-146.11079999999998,46.1104,175,75
2026-05-11 18:06:06.661,3,-4.31,2.08,5.92,373.69059999999996,495.0492,285.8104,175,75
2026-05-11 18:06:06.674,3,-7.69,2.45,11.65,1284.0606,1153.0392,620.8104,175,75
2026-05-11 18:06:06.685,3,6.33,-8.61,17.18,465.82059999999996,-518.3008000000001,72.7604,175,75
2026-05-11 18:06:06.685,3,0.54,1.02,5.4,-527.5894,-1293.9708,430.9304,175,75
2026-05-11 18:06:06.698,3,-3.27,-0.85,1.63,-744.7894,-779.7008000000001,-52.7296,175,75
2026-05-11 18:06:06.735,3,0.64,1.31,-7.66,-11.0694,-328.6108,-115.5296,175,75
2026-05-11 18:06:06.766,3,-5.68,0.42,-4.3,412.5306,596.3291999999999,151.2404,175,75
2026-05-11 18:06:06.766,3,-1.49,-2.62,2.91,547.4706,725.2991999999999,4.590400000000001,175,75
2026-05-11 18:06:06.778,3,-0.78,-0.42,6.05,488.4506,218.2792,-132.6696,175,75
2026-05-11 18:06:06.791,3,-0.08,-1.39,1.01,10.8806,-565.3808,-9.0096,175,75
2026-05-11 18:06:06.803,3,-1.79,-0.72,-1.27,87.78059999999999,-110.6808,-56.0196,175,75
2026-05-11 18:06:06.825,3,-0.79,-0.68,1.14,169.85060000000001,4.619200000000001,-45.2896,175,75
2026-05-11 18:06:06.838,3,-0.82,-0.6,1.15,191.0706,10.299200000000003,-54.1896,175,75
2026-05-11 18:06:06.845,3,-0.54,-0.69,1.19,213.9306,-76.1108,-55.5896,175,75
2026-05-11 18:06:06.882,3,-1.69,-1.15,-0.36,279.06059999999997,-101.66080000000001,-40.0396,175,75
2026-05-11 18:06:06.882,3,-0.96,-0.75,0.49,322.8406,-38.3608,-25.8396,175,75
2026-05-11 18:06:06.892,3,-0.76,-1.03,1.4,351.25059999999996,-68.24080000000001,33.800399999999996,175,75
2026-05-11 18:06:06.907,3,-0.7,-1.92,1.79,326.19059999999996,-216.6608,46.3604,175,75
2026-05-11 18:06:06.918,3,-0.63,-1.6,1.35,230.5206,-314.4008,15.630399999999998,175,75
2026-05-11 18:06:06.930,3,-0.01,-0.44,0.76,198.69060000000002,-360.9908,1.5404000000000004,175,75
2026-05-11 18:06:06.958,3,0.44,-0.5,0.31,128.9306,-288.7308,20.5004,175,75
2026-05-11 18:06:06.973,3,-0.53,0.51,-0.73,65.7606,106.0292,90.8104,175,75
2026-05-11 18:06:06.980,3,-0.38,0.98,0.03,60.8206,308.1592,143.8004,175,75
2026-05-11 18:06:07.028,3,0.23,0.47,1.55,-191.6794,-83.91080000000001,181.4204,175,75
2026-05-11 18:06:07.029,3,0.18,0.65,0.9,-229.59939999999997,-55.5008,191.1104,175,75
2026-05-11 18:06:07.051,3,0.18,0.44,0.77,-267.5294,49.809200000000004,209.6504,175,75
2026-05-11 18:06:07.062,3,0.27,-0.07,1.37,-337.8294,97.0592,211.1104,175,75
2026-05-11 18:06:07.070,3,0.08,-0.17,1.38,-381.24940000000004,95.5392,203.9204,175,75
2026-05-11 18:06:07.078,3,-0.03,-0.23,1.39,-403.1994,92.6092,199.6504,175,75
2026-05-11 18:06:07.138,3,-0.01,-0.22,1.89,-433.0194,11.699200000000001,187.8204,175,75
2026-05-11 18:06:07.138,3,0.15,-0.15,1.95,-444.17940000000004,-51.8408,189.2804,175,75
2026-05-11 18:06:07.154,3,0.51,-0.06,1.51,-428.43940000000003,-75.8608,203.3104,175,75
2026-05-11 18:06:07.214,3,0.39,-0.35,1.68,-366.9194,90.9692,173.1904,175,75
2026-05-11 18:06:07.228,3,0.33,-0.29,2.06,-333.37940000000003,162.85920000000002,147.7604,175,75
2026-05-11 18:06:07.229,3,0.37,-0.27,2.42,-313.56940000000003,189.25920000000002,133.2504,175,75
2026-05-11 18:06:07.229,3,0.24,-0.19,2.84,-285.93940000000003,204.07920000000001,121.1704,175,75
2026-05-11 18:06:07.241,3,0.5,-0.49,3.95,-192.2894,79.3192,60.4404,175,75
2026-05-11 18:06:07.272,3,0.81,-0.44,3.77,-95.5194,-287.75079999999997,-6.1396,175,75
2026-05-11 18:06:07.298,3,-3.39,0.83,6.41,540.8206,414.98920000000004,111.9104,175,75
2026-05-11 18:06:07.300,3,6.65,-4.96,7.61,167.47060000000002,-510.13079999999997,-111.6296,175,75
2026-05-11 18:06:07.311,3,-0.33,-0.91,0.77,-36.799400000000006,-704.0908000000001,41.1104,175,75
2026-05-11 18:06:07.337,3,-0.74,-1.0,-2.2,32.4106,128.0392,-115.5296,175,75
2026-05-11 18:06:07.344,3,-1.39,0.6,-0.66,337.2906,85.5992,49.6504,175,75
2026-05-11 18:06:07.374,3,-1.87,-0.43,1.89,309.3606,185.35920000000002,43.1304,175,75
2026-05-11 18:06:07.384,3,-0.36,-0.19,3.17,178.63060000000002,32.059200000000004,-34.7996,175,75
2026-05-11 18:06:07.396,3,0.38,-0.12,2.67,98.3206,-106.41080000000001,15.2604,175,75
2026-05-11 18:06:07.412,3,-0.57,-0.18,1.43,66.5606,-92.5108,-10.6496,175,75
2026-05-11 18:06:07.426,3,-0.53,-0.43,1.43,71.4906,-70.8608,-29.7996,175,75
2026-05-11 18:06:07.426,3,-1.01,-0.46,1.22,79.0606,-88.4208,-20.779600000000002,175,75
2026-05-11 18:06:07.437,3,-1.25,-0.49,1.13,92.1706,-70.8008,-31.6896,175,75
2026-05-11 18:06:07.454,3,-0.87,-0.36,1.5,93.4506,-69.0308,-38.5196,175,75
2026-05-11 18:06:07.469,3,-0.66,-0.48,1.62,71.0106,-98.24080000000001,-34.8596,175,75
2026-05-11 18:06:07.480,3,-0.57,-0.63,1.48,53.2606,-95.2508,-41.8696,175,75
2026-05-11 18:06:07.492,3,-0.58,-0.66,1.29,32.1706,-61.7808,-44.4296,175,75
2026-05-11 18:06:07.716,3,-0.54,-0.6,1.17,20.2806,-31.0508,-42.7896,175,75
2026-05-11 18:06:07.716,3,-0.72,-0.79,1.04,19.480600000000003,-18.670799999999996,-34.1896,175,75
2026-05-11 18:06:07.716,3,-0.58,-1.08,0.78,80.1506,-147.8808,-53.0296,175,75
2026-05-11 18:06:07.716,3,-0.64,-0.8,0.6,77.78059999999999,-199.1608,-53.3996,175,75
2026-05-11 18:06:07.716,3,-0.43,-0.22,0.47,97.7106,-161.11079999999998,-52.2996,175,75
2026-05-11 18:06:07.716,3,-0.73,-0.72,1.42,232.2306,-71.66080000000001,82.3904,175,75
2026-05-11 18:06:07.716,3,0.01,-0.69,1.5,166.7406,-280.8008,99.5904,175,75
2026-05-11 18:06:07.716,3,-0.39,0.46,1.18,-220.02939999999998,258.4092,121.1104,175,75
2026-05-11 18:06:07.716,3,-0.48,0.32,1.67,-271.12940000000003,201.9992,135.6304,175,75
2026-05-11 18:06:07.916,3,-0.35,0.38,1.81,-323.0794,97.6692,147.9404,175,75
2026-05-11 18:06:07.916,3,-0.34,0.32,1.72,-360.2694,29.499200000000002,160.5704,175,75
2026-05-11 18:06:07.916,3,-0.2,0.09,1.59,-403.92940000000004,-33.6108,167.6404,175,75
2026-05-11 18:06:07.917,3,0.07,-0.0,1.56,-417.2294,-63.300799999999995,177.4604,175,75
2026-05-11 18:06:07.917,3,0.39,-0.08,1.53,-428.9894,-54.7008,191.9104,175,75
2026-05-11 18:06:07.917,3,-4.1,-1.34,8.86,587.6506,596.6392,281.6004,175,75
2026-05-11 18:06:07.917,3,8.47,0.17,8.72,149.7306,-520.5608000000001,-68.9496,175,75
2026-05-11 18:06:07.917,3,1.07,0.28,2.9,-146.61939999999998,-920.6208,227.3904,175,75
2026-05-11 18:06:07.984,3,-5.08,-0.98,1.34,-319.0494,-305.6208,169.2804,175,75
2026-05-11 18:06:07.984,3,-1.99,-0.76,-1.7,-268.92940000000004,-299.5808,-204.6196,175,75
2026-05-11 18:06:07.984,3,-1.62,0.24,-2.84,149.7306,-268.3608,-253.6396,175,75
2026-05-11 18:06:07.984,3,-0.97,0.15,0.16,277.1006,221.32920000000001,71.0504,175,75
2026-05-11 18:06:08.055,3,-0.81,-0.45,1.17,63.870599999999996,1.0292000000000012,-50.7796,175,75
2026-05-11 18:06:08.131,3,-0.67,-0.45,1.13,66.4306,6.879200000000002,-49.1896,175,75
2026-05-11 18:06:08.163,3,-0.44,-0.73,0.78,213.69060000000002,-40.800799999999995,5.2004,175,75
2026-05-11 18:06:08.241,3,-0.75,-0.5,0.3,235.09060000000002,-25.070800000000002,79.5304,175,75
2026-05-11 18:06:08.269,3,-0.72,-2.94,0.78,89.7306,-322.0208,74.5304,175,75
2026-05-11 18:06:08.515,3,-1.3,-1.71,0.06,3.8706,-161.5308,38.8604,175,75
2026-05-11 18:06:08.515,3,0.12,-0.18,-0.08,-12.589400000000001,12.609200000000001,5.260399999999999,175,75
2026-05-11 18:06:08.515,3,-0.32,-0.29,1.46,-42.3494,145.41920000000002,46.3604,175,75
2026-05-11 18:06:08.515,3,-0.22,0.1,2.36,-225.5194,168.4092,14.5304,175,75
2026-05-11 18:06:08.515,3,-0.23,0.42,2.46,-285.2694,140.7192,-2.2396,175,75
2026-05-11 18:06:08.515,3,-0.14,0.51,2.37,-324.7894,109.9292,-8.8296,175,75
2026-05-11 18:06:08.515,3,-0.25,0.54,2.16,-355.0894,96.08919999999999,-15.1096,175,75
2026-05-11 18:06:08.533,3,-0.02,0.43,2.63,-386.9794,116.2092,-29.8596,175,75
2026-05-11 18:06:08.533,3,-0.22,0.6,2.52,-398.2594,39.0792,-37.4196,175,75
2026-05-11 18:06:08.587,3,-0.0,0.73,2.19,-400.87940000000003,21.9392,-41.0796,175,75
2026-05-11 18:06:08.753,3,-0.38,0.44,2.45,-77.46940000000001,46.3292,-56.3296,175,75
2026-05-11 18:06:08.753,3,7.63,-2.41,7.01,443.63059999999996,497.7992,338.3104,175,75
2026-05-11 18:06:08.754,3,-1.49,1.65,2.93,438.32059999999996,-439.4608,158.3704,175,75
2026-05-11 18:06:08.866,3,-0.66,0.34,1.48,275.5206,-114.40079999999999,-29.7996,175,75
2026-05-11 18:06:08.938,3,-0.57,-0.01,1.83,79.7306,-107.1408,2.2104000000000004,175,75
2026-05-11 18:06:08.938,3,-0.55,-0.47,1.49,-52.2894,75.7192,-72.2996,175,75
2026-05-11 18:06:08.938,3,-0.42,-0.53,1.28,-60.089400000000005,81.2092,-79.4996,175,75
2026-05-11 18:06:09.322,3,-0.28,-0.76,1.16,-58.6894,63.7692,-86.8696,175,75
2026-05-11 18:06:09.322,3,-0.24,-1.02,1.09,-46.7394,-6.1708,-85.6496,175,75
2026-05-11 18:06:09.322,3,-0.33,-1.6,0.55,-122.7694,-181.5908,-75.5896,175,75
2026-05-11 18:06:09.322,3,-1.25,0.52,-0.43,-87.0994,42.7992,-30.6496,175,75
2026-05-11 18:06:09.322,3,-0.9,0.19,0.45,67.7106,173.2792,57.0304,175,75
2026-05-11 18:06:09.323,3,-0.97,0.21,1.27,164.1806,96.4492,67.3904,175,75
2026-05-11 18:06:09.323,3,-0.85,0.44,1.89,131.9206,22.1892,59.1004,175,75
2026-05-11 18:06:09.323,3,0.39,1.12,1.0,-33.0794,-187.5108,-8.5796,175,75
2026-05-11 18:06:09.323,3,-0.33,2.31,0.15,-42.0394,-271.2308,13.610399999999998,175,75
2026-05-11 18:06:09.323,3,-0.3,0.23,-1.25,-100.3294,-180.5608,67.8204,175,75
2026-05-11 18:06:09.323,3,-1.55,0.5,-1.76,-157.46939999999998,58.2192,33.3704,175,75
2026-05-11 18:06:09.324,3,-0.53,0.9,-0.85,-79.7894,292.48920000000004,-4.7996,175,75
2026-05-11 18:06:09.324,3,0.29,0.78,0.97,-115.7594,269.1992,46.9704,175,75
2026-05-11 18:06:09.324,3,0.31,0.67,1.56,-144.59939999999997,91.5792,36.4204,175,75
2026-05-11 18:06:09.339,3,1.06,0.77,2.19,-42.409400000000005,-93.1208,11.5404,175,75
2026-05-11 18:06:09.350,3,-1.92,1.94,3.97,74.6006,150.47920000000002,103.1904,175,75
2026-05-11 18:06:09.433,3,0.24,-1.81,2.86,316.19059999999996,337.11920000000003,36.1704,175,75
2026-05-11 18:06:09.433,3,0.96,-1.43,4.46,82.9006,-64.52080000000001,-52.2996,175,75
2026-05-11 18:06:09.463,3,-1.14,-1.28,0.15,154.6706,-78.5508,-37.8496,175,75
2026-05-11 18:06:09.475,3,-1.39,-1.68,0.77,181.8606,-21.1108,-78.6996,175,75
2026-05-11 18:06:09.477,3,-0.83,-1.5,1.02,149.85060000000001,21.9392,-71.1996,175,75
2026-05-11 18:06:09.488,3,-0.76,-1.01,0.38,151.56060000000002,54.7492,-40.1096,175,75
2026-05-11 18:06:09.488,3,0.01,-1.23,0.79,209.3006,-71.3508,-40.2296,175,75
2026-05-11 18:06:09.523,3,-0.6,-0.14,-0.06,207.10060000000001,-175.80079999999998,-47.7296,175,75
2026-05-11 18:06:09.534,3,-0.43,-0.17,-0.02,277.1006,-50.6208,-37.3596,175,75
2026-05-11 18:06:09.544,3,-0.88,-0.89,0.23,308.57059999999996,-40.680800000000005,-20.0396,175,75
2026-05-11 18:06:09.556,3,-0.9,-1.05,0.38,306.0106,72.4292,25.5004,175,75
2026-05-11 18:06:09.566,3,-0.83,-0.73,0.8,294.06059999999997,38.6492,40.4404,175,75
2026-05-11 18:06:09.576,3,-0.81,-0.62,1.25,236.0706,-0.5607999999999986,24.9604,175,75
2026-05-11 18:06:09.588,3,-0.75,-0.21,1.85,225.9506,-32.880799999999994,78.9204,175,75
2026-05-11 18:06:09.598,3,-0.41,-0.52,1.61,155.88060000000002,-170.0708,61.1104,175,75
2026-05-11 18:06:09.598,3,-0.48,-0.38,0.92,58.8106,-228.42079999999999,16.3604,175,75
2026-05-11 18:06:09.611,3,-0.59,-0.02,0.29,9.4206,-123.91080000000001,13.8004,175,75
2026-05-11 18:06:09.622,3,-0.17,0.24,0.88,-10.2094,143.3392,27.1504,175,75
2026-05-11 18:06:09.657,3,-0.21,0.48,1.99,-200.93939999999998,125.1692,24.5904,175,75
2026-05-11 18:06:09.672,3,-0.22,0.67,1.81,-267.5294,88.2192,21.970399999999998,175,75
2026-05-11 18:06:09.695,3,-0.34,0.58,1.48,-355.0894,76.5792,34.3504,175,75
2026-05-11 18:06:09.703,3,-0.5,0.44,1.55,-369.4794,103.0992,49.7704,175,75
2026-05-11 18:06:09.731,3,-0.16,0.38,1.76,-392.4694,96.4492,63.9804,175,75
2026-05-11 18:06:09.744,3,-0.08,0.27,2.05,-396.0094,69.3792,72.3904,175,75
2026-05-11 18:06:09.773,3,0.02,0.37,2.23,-411.9194,4.379200000000001,70.9904,175,75
2026-05-11 18:06:09.785,3,0.02,0.46,1.97,-425.5794,-36.660799999999995,71.6604,175,75
2026-05-11 18:06:09.796,3,-0.09,0.34,1.72,-423.37940000000003,-10.4408,78.9204,175,75
2026-05-11 18:06:09.796,3,-0.04,0.24,1.82,-405.5794,42.2492,76.0504,175,75
2026-05-11 18:06:09.796,3,0.11,0.1,2.13,-388.0794,67.0592,69.8304,175,75
2026-05-11 18:06:09.808,3,0.08,0.08,2.5,-367.8994,76.2092,68.4904,175,75
2026-05-11 18:06:09.808,3,0.0,0.09,2.72,-336.18940000000003,75.1692,66.0504,175,75
2026-05-11 18:06:09.819,3,-0.29,-0.01,3.03,-277.0394,97.7992,69.1604,175,75
2026-05-11 18:06:09.852,3,-0.33,-0.26,3.81,-189.0494,122.8592,56.9104,175,75
2026-05-11 18:06:09.862,3,0.06,-0.29,4.38,-140.39939999999999,-9.340799999999998,31.3604,175,75
2026-05-11 18:06:09.890,3,0.43,0.27,3.57,-14.969400000000002,-260.3108,20.8704,175,75
2026-05-11 18:06:09.922,3,-4.17,1.75,4.76,311.0106,152.1192,222.1504,175,75
2026-05-11 18:06:09.944,3,6.87,-1.76,4.78,67.53059999999999,-566.7208,107.5804,175,75
2026-05-11 18:06:09.944,3,-1.41,-0.99,0.84,-6.9794,-585.8008000000001,63.07040000000001,175,75
2026-05-11 18:06:09.949,3,-2.56,-1.25,-1.42,-67.21940000000001,3.5292000000000012,-46.1396,175,75
2026-05-11 18:06:09.971,3,-1.76,0.93,0.54,426.07059999999996,216.57920000000001,70.8704,175,75
2026-05-11 18:06:09.971,3,-1.74,-0.83,2.64,257.5906,159.5592,61.7204,175,75
2026-05-11 18:06:09.992,3,-0.17,-0.15,2.69,111.3706,26.389200000000002,-3.6995999999999998,175,75
2026-05-11 18:06:10.010,3,0.28,-0.87,2.1,59.300599999999996,-110.4408,42.5804,175,75
2026-05-11 18:06:10.010,3,-0.47,-0.52,1.38,47.4706,-77.63080000000001,9.6504,175,75
2026-05-11 18:06:10.022,3,-0.57,-0.47,1.21,73.9906,-101.9008,3.1304000000000003,175,75
2026-05-11 18:06:10.036,3,-0.86,-0.31,1.38,135.88060000000002,-81.5308,-27.119600000000002,175,75
2026-05-11 18:06:10.047,3,-0.63,-0.75,1.78,89.36059999999999,-93.7308,-15.2296,175,75
2026-05-11 18:06:10.057,3,-0.72,-0.47,1.62,68.5106,-98.4808,-24.9196,175,75
2026-05-11 18:06:10.068,3,-0.61,-0.61,1.48,40.7606,-103.24080000000001,-34.7996,175,75
2026-05-11 18:06:10.076,3,-0.6,-0.68,1.34,24.8506,-86.7808,-34.4296,175,75
2026-05-11 18:06:10.101,3,-0.69,-0.81,1.23,11.6206,-65.38080000000001,-35.0396,175,75
2026-05-11 18:06:10.141,3,-0.68,-0.86,0.77,5.7606,-26.4708,-39.4996,175,75
2026-05-11 18:06:10.155,3,-0.55,-0.93,0.64,65.0306,-170.68079999999998,-41.5096,175,75
2026-05-11 18:06:10.239,3,-0.37,-0.55,0.46,191.0106,-110.5008,-10.7196,175,75
2026-05-11 18:06:10.244,3,-0.58,-0.87,0.63,220.2106,-124.40079999999999,-5.5896,175,75
2026-05-11 18:06:10.256,3,-0.63,-0.93,0.7,235.7006,-107.8108,19.9604,175,75
2026-05-11 18:06:10.266,3,-0.63,-0.79,0.93,258.87059999999997,-114.6408,39.4704,175,75
2026-05-11 18:06:10.272,3,-0.35,-0.3,1.37,210.88060000000002,-228.9708,39.1604,175,75
2026-05-11 18:06:10.286,3,-0.27,-0.06,1.17,177.78060000000002,-313.6108,50.7504,175,75
2026-05-11 18:06:10.307,3,-1.17,-1.12,0.47,32.6506,-440.7408,76.3604,175,75
2026-05-11 18:06:10.307,3,-1.42,-0.82,-0.23,-52.9594,-292.4508,48.2504,175,75
2026-05-11 18:06:10.307,3,-0.49,0.04,-0.97,-80.63940000000001,-76.2908,15.630399999999998,175,75
2026-05-11 18:06:10.331,3,0.06,0.61,-0.75,-62.0994,78.8292,32.8204,175,75
2026-05-11 18:06:10.331,3,0.29,0.85,0.3,-117.8294,284.0092,93.8604,175,75
2026-05-11 18:06:10.336,3,-0.02,0.75,1.07,-178.3194,338.0992,94.71039999999999,175,75
2026-05-11 18:06:10.355,3,-0.56,0.38,1.09,-382.1594,111.9392,93.1304,175,75
2026-05-11 18:06:10.422,3,-0.05,-0.14,2.1,-450.5194,166.50920000000002,91.7204,175,75
2026-05-11 18:06:10.422,3,0.2,-0.29,2.47,-492.8294,29.319200000000002,63.2504,175,75
2026-05-11 18:06:10.450,3,-0.16,-0.39,1.82,-441.06940000000003,66.7592,53.6104,175,75
2026-05-11 18:06:10.460,3,-0.17,-0.68,2.04,-393.80940000000004,128.1592,48.800399999999996,175,75
2026-05-11 18:06:10.470,3,-0.15,-0.94,2.78,-317.3494,234.8092,51.1104,175,75
2026-05-11 18:06:10.470,3,0.03,-0.9,3.99,-232.8294,297.9192,27.5804,175,75
2026-05-11 18:06:10.509,3,-1.31,0.6,5.7,-135.93939999999998,44.9292,86.4804,175,75
2026-05-11 18:06:10.509,3,-3.27,1.06,6.42,95.8206,61.5792,133.3104,175,75
2026-05-11 18:06:10.521,3,-1.14,-0.97,8.2,321.0106,227.85920000000002,-40.7196,175,75
2026-05-11 18:06:10.536,3,-1.15,1.61,8.98,263.4506,67.4892,174.2804,175,75
2026-05-11 18:06:10.546,3,2.98,-2.58,4.43,2.9606,-1072.5108,37.2704,175,75
2026-05-11 18:06:10.586,3,-1.24,-1.36,-2.41,-120.63940000000001,47.4892,-39.7996,175,75
2026-05-11 18:06:10.598,3,-1.51,0.08,-1.31,338.2006,90.22919999999999,-50.1696,175,75
2026-05-11 18:06:10.598,3,0.71,-0.66,2.39,293.57059999999996,205.2992,-31.5096,175,75
2026-05-11 18:06:10.612,3,0.98,-0.42,3.33,219.3606,-50.190799999999996,28.8604,175,75
2026-05-11 18:06:10.658,3,-0.11,-0.38,2.08,132.1706,-184.1608,33.6104,175,75
2026-05-11 18:06:10.658,3,-0.84,-0.06,1.07,106.4306,-133.0608,12.7004,175,75
2026-05-11 18:06:10.658,3,-0.85,-0.41,1.11,96.6206,-104.4608,-9.0096,175,75
2026-05-11 18:06:10.680,3,-0.91,-0.53,1.03,83.0206,-63.550799999999995,-25.7196,175,75
2026-05-11 18:06:10.680,3,-0.64,-0.59,0.98,79.5406,-32.630799999999994,-17.8496,175,75
2026-05-11 18:06:10.692,3,-0.62,-0.52,0.76,91.9806,-21.6608,-9.7996,175,75
2026-05-11 18:06:10.702,3,-0.51,-0.49,0.57,109.6706,3.039200000000001,-15.0396,175,75
2026-05-11 18:06:10.714,3,-0.31,-0.56,0.86,129.3606,-29.770799999999998,-19.619600000000002,175,75
2026-05-11 18:06:10.729,3,0.1,-0.75,1.01,126.25059999999999,-151.6608,-21.0796,175,75
2026-05-11 18:06:10.738,3,-0.11,-0.69,0.58,122.2306,-242.69079999999997,-26.2596,175,75
2026-05-11 18:06:10.752,3,-0.37,-0.66,0.19,168.2606,-162.5108,-18.7596,175,75
2026-05-11 18:06:10.791,3,-0.35,-0.74,0.35,211.31060000000002,-66.3508,7.5204,175,75
2026-05-11 18:06:10.791,3,-0.52,-0.57,0.75,238.63060000000002,-50.9808,42.1504,175,75
2026-05-11 18:06:10.791,3,-0.58,-0.56,1.15,245.2106,-44.520799999999994,68.8004,175,75
2026-05-11 18:06:10.800,3,-0.4,-0.56,1.46,226.0706,-105.9808,79.8904,175,75
2026-05-11 18:06:10.840,3,-0.28,-0.69,1.05,145.03060000000002,-277.57079999999996,88.1904,175,75
2026-05-11 18:06:10.840,3,-0.8,-0.18,1.19,141.8006,-234.1608,103.3704,175,75
2026-05-11 18:06:10.865,3,-0.4,-0.55,1.22,83.6306,-260.44079999999997,73.8604,175,75
2026-05-11 18:06:10.865,3,-0.53,-0.68,0.96,-11.189400000000001,-267.69079999999997,73.7404,175,75
2026-05-11 18:06:10.876,3,-0.53,-0.32,0.49,-86.6794,-188.7308,57.9404,175,75
2026-05-11 18:06:10.887,3,0.11,0.27,0.93,-136.4294,44.869200000000006,71.4204,175,75
2026-05-11 18:06:10.913,3,0.09,-0.24,1.47,-174.3594,91.9992,64.2804,175,75
2026-05-11 18:06:10.913,3,0.14,-0.14,1.81,-230.7594,85.3592,64.96039999999999,175,75
2026-05-11 18:06:10.922,3,0.05,0.36,1.83,-289.7894,53.4692,77.1504,175,75
2026-05-11 18:06:10.962,3,-0.08,0.25,1.8,-360.7594,49.4392,103.6704,175,75
2026-05-11 18:06:10.962,3,-0.07,0.01,1.98,-381.0094,55.7192,101.0504,175,75
2026-05-11 18:06:10.970,3,0.08,0.02,2.23,-392.2894,39.6892,96.4804,175,75
2026-05-11 18:06:10.977,3,0.31,0.16,2.45,-399.17940000000004,-4.700799999999997,98.5504,175,75
2026-05-11 18:06:10.999,3,0.37,0.29,2.35,-375.87940000000003,-49.3408,102.21039999999999,175,75
2026-05-11 18:06:11.023,3,0.61,0.38,2.31,-351.24940000000004,-51.1708,86.9104,175,75
2026-05-11 18:06:11.043,3,0.66,0.48,2.22,-326.67940000000004,-55.74080000000001,76.7804,175,75
2026-05-11 18:06:11.053,3,0.69,0.5,2.05,-296.7394,-47.880799999999994,51.5404,175,75
2026-05-11 18:06:11.065,3,0.69,0.61,1.9,-275.4594,-3.6708,29.040399999999998,175,75
2026-05-11 18:06:11.065,3,0.7,0.68,1.84,-256.30940000000004,33.0392,11.4804,175,75
2026-05-11 18:06:11.071,3,0.52,0.69,1.89,-233.2594,77.3692,0.5004,175,75
2026-05-11 18:06:11.084,3,0.43,0.57,2.0,-216.6794,97.36919999999999,-19.5596,175,75
2026-05-11 18:06:11.097,3,0.31,0.5,2.25,-206.5494,101.5192,-39.2496,175,75
2026-05-11 18:06:11.111,3,0.17,0.49,2.41,-192.52939999999998,92.11919999999999,-44.9196,175,75
2026-05-11 18:06:11.111,3,0.06,0.42,2.6,-164.1794,54.559200000000004,-53.0296,175,75
2026-05-11 18:06:11.130,3,-0.18,0.25,2.75,-156.7394,-53.790800000000004,-73.3996,175,75
2026-05-11 18:06:11.156,3,-0.2,0.28,2.7,-150.14939999999999,-121.53080000000001,-76.1996,175,75
2026-05-11 18:06:11.172,3,-0.13,0.41,2.36,-131.5494,-184.64079999999998,-66.5696,175,75
2026-05-11 18:06:11.172,3,-0.17,0.39,2.24,-107.2894,-175.0708,-50.5296,175,75
2026-05-11 18:06:11.182,3,-0.4,0.48,2.25,-71.4894,-117.63080000000001,-40.5896,175,75
2026-05-11 18:06:11.211,3,-0.44,0.9,3.02,13.9306,-158.18079999999998,-15.8396,175,75
2026-05-11 18:06:11.238,3,-0.66,0.91,2.25,94.7306,-119.8908,0.6304000000000003,175,75
2026-05-11 18:06:11.257,3,-2.76,2.09,2.89,161.8006,-71.2308,98.3104,175,75
2026-05-11 18:06:11.257,3,-6.27,1.51,4.71,507.9606,549.6192,274.1004,175,75
2026-05-11 18:06:11.267,3,3.19,-7.05,3.76,237.7106,-837.8108000000001,-43.3996,175,75
2026-05-11 18:06:11.277,3,-3.1,-2.36,-1.34,-127.03940000000001,-648.6708000000001,38.9204,175,75
2026-05-11 18:06:11.303,3,-1.57,0.88,-3.37,-164.1794,406.0892,-122.53960000000001,175,75
2026-05-11 18:06:11.303,3,1.51,2.76,-2.07,260.5806,419.3792,-32.9696,175,75
2026-05-11 18:06:11.315,3,-0.34,-4.03,1.61,240.28060000000002,175.41920000000002,126.66040000000001,175,75
2026-05-11 18:06:11.326,3,-1.6,-1.48,1.38,251.37060000000002,-3.060799999999997,-42.4196,175,75
2026-05-11 18:06:11.327,3,1.9,-1.23,1.28,310.7006,-85.9208,-42.5396,175,75
2026-05-11 18:06:11.342,3,0.61,-0.47,2.05,284.18059999999997,-119.8908,25.8104,175,75
2026-05-11 18:06:11.364,3,-0.79,0.24,1.85,177.41060000000002,-56.290800000000004,1.6004,175,75
2026-05-11 18:06:11.390,3,-0.33,0.46,1.84,118.2606,-67.1408,12.8804,175,75
2026-05-11 18:06:11.390,3,-0.31,0.33,2.04,97.2906,-59.8908,19.5904,175,75
2026-05-11 18:06:11.403,3,-0.39,0.36,1.99,49.120599999999996,-53.0608,19.470399999999998,175,75
2026-05-11 18:06:11.440,3,-0.56,0.28,1.68,28.6306,-38.910799999999995,18.130399999999998,175,75
2026-05-11 18:06:11.440,3,-0.6,0.28,1.55,31.430600000000002,-15.560799999999997,10.8704,175,75
2026-05-11 18:06:11.454,3,-0.52,0.18,1.9,18.0206,-6.230799999999999,7.5204,175,75
2026-05-11 18:06:11.464,3,-0.45,0.16,1.84,-12.4094,-36.660799999999995,9.0404,175,75
2026-05-11 18:06:11.464,3,-0.46,0.14,1.63,-23.1394,-15.7408,-2.7296,175,75
2026-05-11 18:06:11.474,3,-0.48,0.01,1.69,-33.0794,-5.560799999999997,-12.6696,175,75
2026-05-11 18:06:11.485,3,-0.5,-0.19,1.71,-48.379400000000004,-3.6107999999999976,-20.3496,175,75
2026-05-11 18:06:11.524,3,-0.64,-0.06,1.66,-102.1594,55.9092,-54.4996,175,75
2026-05-11 18:06:11.542,3,-0.7,-0.25,1.6,-113.0194,47.8592,-65.0396,175,75
2026-05-11 18:06:11.546,3,-0.61,-0.41,1.45,-111.5494,26.3292,-71.5696,175,75
2026-05-11 18:06:11.571,3,-0.6,-0.53,1.24,-98.4394,6.449200000000001,-68.8296,175,75
2026-05-11 18:06:11.571,3,-0.51,-0.84,1.12,-106.85940000000001,-41.2308,-64.36959999999999,175,75
2026-05-11 18:06:11.597,3,-0.37,-0.91,0.85,-124.9094,-83.6108,-58.5796,175,75
2026-05-11 18:06:11.609,3,-0.29,-0.66,0.51,-153.5694,-155.3808,-48.7596,175,75
2026-05-11 18:06:11.618,3,-0.26,-0.22,0.17,-169.7894,-158.0608,-39.0696,175,75
2026-05-11 18:06:11.618,3,-0.42,0.16,0.04,-142.34939999999997,-89.8308,-12.2996,175,75
2026-05-11 18:06:11.656,3,-0.85,0.4,0.53,-54.1194,74.3792,25.7504,175,75
2026-05-11 18:06:11.656,3,-0.84,0.63,1.52,36.980599999999995,102.5492,41.5404,175,75
2026-05-11 18:06:11.656,3,-0.76,0.77,2.32,61.1306,28.889200000000002,45.3804,175,75
2026-05-11 18:06:11.678,3,-0.35,0.96,1.89,-61.549400000000006,-307.2008,57.6404,175,75
2026-05-11 18:06:11.678,3,-0.28,1.19,0.75,-105.6994,-426.1708,39.2204,175,75
2026-05-11 18:06:11.693,3,-0.66,1.12,-0.26,-130.14939999999999,-360.07079999999996,43.1904,175,75
2026-05-11 18:06:11.706,3,-0.55,0.53,-1.13,-134.1794,-170.68079999999998,42.0304,175,75
2026-05-11 18:06:11.722,3,-0.66,0.83,-0.98,-120.63940000000001,-16.110799999999998,31.7804,175,75
2026-05-11 18:06:11.722,3,-0.32,0.97,-0.17,-121.1294,53.709199999999996,38.9804,175,75
2026-05-11 18:06:11.730,3,0.2,0.8,0.46,-131.61939999999998,-18.1208,29.590400000000002,175,75
2026-05-11 18:06:11.749,3,0.05,0.84,0.74,-140.5194,-90.9208,35.3204,175,75
2026-05-11 18:06:11.794,3,0.33,0.75,0.95,-115.7594,-160.4408,28.5504,175,75
2026-05-11 18:06:11.816,3,0.37,0.77,0.95,-104.1194,-106.0508,22.0904,175,75
2026-05-11 18:06:11.829,3,-1.6,1.68,2.47,14.6006,146.9992,102.3304,175,75
2026-05-11 18:06:11.829,3,-4.77,2.76,6.99,328.2606,991.2692,242.7004,175,75
2026-05-11 18:06:11.840,3,2.67,-1.14,11.42,1230.3406,-232.5108,5.2004,175,75
2026-05-11 18:06:11.853,3,5.25,-3.45,9.2,21.070600000000002,-1017.8108,335.6904,175,75
2026-05-11 18:06:11.874,3,-0.82,0.16,3.11,-470.2094,-1192.2008,418.9804,175,75
2026-05-11 18:06:11.885,3,-5.01,0.13,0.45,-645.5193999999999,-575.7408,92.5204,175,75
2026-05-11 18:06:11.899,3,-0.76,3.56,-5.64,181.0706,-1.6607999999999983,5.260399999999999,175,75
2026-05-11 18:06:11.918,3,-2.9,0.56,-2.21,423.5106,887.7991999999999,192.2704,175,75
2026-05-11 18:06:11.918,3,-1.61,-0.43,1.71,441.9206,886.3892,175.1404,175,75
2026-05-11 18:06:11.926,3,-1.23,-2.55,5.59,512.1006,123.2792,42.7604,175,75
2026-05-11 18:06:11.938,3,2.45,-0.05,4.98,-31.429399999999998,-132.14079999999998,-21.1996,175,75
2026-05-11 18:06:11.953,3,0.13,-0.67,2.24,-126.2494,-389.8908,52.2104,175,75
2026-05-11 18:06:12.009,3,-0.4,-1.35,-0.69,74.4206,-163.24079999999998,-29.9196,175,75
2026-05-11 18:06:12.009,3,-0.35,-1.37,0.08,144.4206,1.6392000000000007,20.630399999999998,175,75
2026-05-11 18:06:12.009,3,-0.42,-1.41,0.63,169.12060000000002,1.579200000000002,22.8204,175,75
2026-05-11 18:06:12.027,3,-0.13,-1.53,0.34,163.63060000000002,-255.44079999999997,4.160399999999999,175,75
2026-05-11 18:06:12.105,3,-0.95,-1.2,0.15,153.1406,-322.3308,12.760399999999999,175,75
2026-05-11 18:06:12.118,3,-0.77,-0.92,0.4,231.37060000000002,-78.0008,24.5304,175,75
2026-05-11 18:06:12.118,3,-0.78,-0.94,1.18,355.5206,26.7592,71.0504,175,75
2026-05-11 18:06:12.118,3,-0.79,-1.1,2.1,358.1406,25.8392,87.7004,175,75
2026-05-11 18:06:12.118,3,-0.38,-0.42,2.31,210.03060000000002,-89.77080000000001,63.370400000000004,175,75
2026-05-11 18:06:12.128,3,-0.38,0.5,2.22,179.4806,-143.67079999999999,44.4104,175,75
2026-05-11 18:06:12.155,3,-0.48,0.21,2.89,209.1806,-183.24079999999998,115.8704,175,75
2026-05-11 18:06:12.155,3,-0.27,-0.48,2.08,38.1406,-361.7808,52.5204,175,75
2026-05-11 18:06:12.173,3,-0.52,0.35,0.9,-62.21940000000001,-248.12079999999997,26.4204,175,75
2026-05-11 18:06:12.184,3,0.03,0.93,0.27,-57.159400000000005,-93.7308,5.080400000000001,175,75
2026-05-11 18:06:12.197,3,0.15,1.02,0.35,-42.409400000000005,19.319200000000002,0.20040000000000013,175,75
2026-05-11 18:06:12.197,3,0.16,1.02,0.88,-77.5294,182.2492,-2.3596,175,75
2026-05-11 18:06:12.201,3,0.17,1.08,1.41,-100.0894,221.2692,-8.9496,175,75
2026-05-11 18:06:12.216,3,-0.0,1.22,1.76,-161.18939999999998,201.38920000000002,-12.7296,175,75
2026-05-11 18:06:12.231,3,-0.02,1.46,1.99,-295.5194,63.2792,-24.0096,175,75
2026-05-11 18:06:12.239,3,0.14,1.49,1.99,-327.5294,-2.5707999999999984,-23.5796,175,75
2026-05-11 18:06:12.279,3,0.19,1.39,1.95,-343.43940000000003,-62.4508,-5.7196,175,75
2026-05-11 18:06:12.279,3,0.19,1.21,1.75,-352.3494,-83.6108,-0.7795999999999998,175,75
2026-05-11 18:06:12.290,3,0.1,0.94,1.42,-332.5894,72.1892,15.930399999999999,175,75
2026-05-11 18:06:12.309,3,0.2,0.72,1.76,-327.0394,120.1092,2.5204,175,75
2026-05-11 18:06:12.335,3,0.19,0.56,1.93,-320.6394,132.5492,-11.5096,175,75
2026-05-11 18:06:12.337,3,-0.01,0.46,2.07,-293.31940000000003,170.8392,-25.4096,175,75
2026-05-11 18:06:12.350,3,-0.14,0.42,2.17,-277.3494,193.94920000000002,-25.5896,175,75
2026-05-11 18:06:12.350,3,-0.26,0.32,2.4,-253.5694,209.13920000000002,-23.9496,175,75
2026-05-11 18:06:12.375,3,-0.38,0.04,2.49,-239.0494,200.9092,-38.5796,175,75
2026-05-11 18:06:12.375,3,-0.33,0.03,2.84,-214.96939999999998,163.6492,-46.2596,175,75
2026-05-11 18:06:12.399,3,-0.34,0.03,2.83,-202.46939999999998,119.8092,-52.8496,175,75
2026-05-11 18:06:12.410,3,-0.33,0.01,2.81,-185.14939999999999,101.8792,-55.6496,175,75
2026-05-11 18:06:12.410,3,-0.24,-0.03,2.82,-160.4594,61.209199999999996,-53.8296,175,75
2026-05-11 18:06:12.421,3,-0.4,0.15,2.64,-135.2694,20.5392,-67.9096,175,75
2026-05-11 18:06:12.508,3,0.24,0.84,1.85,9.7306,-4.4008,-29.8596,175,75
2026-05-11 18:06:12.508,3,0.44,0.74,1.52,4.300599999999999,-6.780799999999999,-32.5396,175,75
2026-05-11 18:06:12.517,3,-2.03,0.42,3.18,173.0206,324.2592,55.6304,175,75
2026-05-11 18:06:12.531,3,0.71,-3.67,3.23,-165.39939999999999,-981.3508,74.1604,175,75
2026-05-11 18:06:12.540,3,-3.69,-1.05,-0.99,-295.6394,-320.19079999999997,157.2704,175,75
2026-05-11 18:06:12.551,3,-2.19,0.51,-2.55,-316.12940000000003,76.5792,-179.0696,175,75
2026-05-11 18:06:12.563,3,1.67,2.41,-2.83,101.0106,122.11919999999999,-77.4196,175,75
2026-05-11 18:06:12.577,3,-0.52,1.13,-0.77,258.63059999999996,431.99920000000003,162.0304,175,75
2026-05-11 18:06:12.594,3,-0.69,-3.29,2.94,150.8206,339.0792,59.1604,175,75
2026-05-11 18:06:12.605,3,0.51,-0.48,2.7,59.3606,-38.0008,-2.3596,175,75
2026-05-11 18:06:12.615,3,0.14,-0.68,1.51,1.7406,-122.2708,19.7104,175,75
2026-05-11 18:06:12.688,3,-0.72,-0.74,0.63,65.0906,-19.890799999999995,-7.6096,175,75
2026-05-11 18:06:12.706,3,-0.38,-0.54,0.82,71.3106,28.159200000000002,-8.6996,175,75
2026-05-11 18:06:12.719,3,-0.19,-0.43,1.02,63.5106,18.9492,5.0204,175,75
2026-05-11 18:06:12.719,3,-0.1,-0.5,1.2,55.0306,-60.2508,8.8604,175,75
2026-05-11 18:06:12.731,3,0.05,-0.52,1.24,43.9306,-169.58079999999998,3.3704000000000005,175,75
2026-05-11 18:06:12.750,3,-0.09,0.06,0.65,6.740600000000001,-200.3808,0.6304000000000003,175,75
2026-05-11 18:06:12.753,3,-0.1,0.36,0.76,46.620599999999996,-43.0608,27.1504,175,75
2026-05-11 18:06:12.770,3,-0.08,0.36,1.33,100.3406,6.329200000000002,47.2104,175,75
2026-05-11 18:06:12.794,3,-0.4,0.15,1.56,101.1306,-10.500799999999998,38.6704,175,75
2026-05-11 18:06:12.832,3,-0.4,0.33,1.88,64.06060000000001,-28.6108,34.6504,175,75
2026-05-11 18:06:12.845,3,-0.47,0.55,1.64,28.2006,-64.4008,22.0304,175,75
2026-05-11 18:06:12.921,3,-0.06,0.64,1.15,-54.1194,-74.0908,-9.0696,175,75
2026-05-11 18:06:12.921,3,-0.03,0.74,1.12,-60.269400000000005,21.029200000000003,-21.9996,175,75
2026-05-11 18:06:12.940,3,0.08,0.83,1.43,-95.3294,63.7692,-55.1696,175,75
2026-05-11 18:06:12.964,3,0.08,0.83,1.53,-110.5794,128.5292,-70.03960000000001,175,75
2026-05-11 18:06:12.982,3,0.17,0.87,1.52,-120.8794,127.72919999999999,-78.0896,175,75
2026-05-11 18:06:13.009,3,0.44,0.86,0.91,-175.02939999999998,77.1892,-105.5896,175,75
2026-05-11 18:06:13.009,3,-1.03,1.16,2.15,-103.3794,378.5892,-99.2496,175,75
2026-05-11 18:06:13.110,3,0.68,-0.89,-1.3,-351.5494,-366.1108,-173.0896,175,75
2026-05-11 18:06:13.160,3,-0.11,-0.52,0.46,-55.269400000000005,-120.7408,-14.6796,175,75
2026-05-11 18:06:13.161,3,-0.63,-0.42,0.01,-1.9194,-31.350799999999996,-4.9796,175,75
2026-05-11 18:06:13.234,3,0.02,-0.98,0.48,34.120599999999996,-169.46079999999998,28.8604,175,75
2026-05-11 18:06:13.267,3,-0.7,0.27,1.06,93.6306,97.97919999999999,33.1304,175,75
2026-05-11 18:06:13.287,3,-0.61,0.24,2.08,135.8206,89.61919999999999,30.6304,175,75
2026-05-11 18:06:13.289,3,-0.37,-0.24,2.62,150.28060000000002,8.769200000000001,28.1904,175,75
2026-05-11 18:06:13.303,3,-0.95,-0.23,3.15,179.7306,-23.9708,49.4704,175,75
2026-05-11 18:06:13.314,3,-0.67,-1.02,3.0,125.4606,-108.8508,11.6004,175,75
2026-05-11 18:06:13.340,3,-0.31,-0.01,1.75,100.4606,34.9292,-27.7296,175,75
2026-05-11 18:06:13.352,3,-0.47,0.22,2.07,102.1006,73.8892,-20.3496,175,75
2026-05-11 18:06:13.362,3,-0.44,0.34,2.37,96.6806,60.599199999999996,-16.6896,175,75
2026-05-11 18:06:13.378,3,-0.34,0.46,2.52,80.4606,-3.300799999999999,-10.9596,175,75
2026-05-11 18:06:13.422,3,-0.25,0.56,1.52,60.7606,-52.7508,-0.03960000000000008,175,75
2026-05-11 18:06:13.436,3,-0.23,0.68,1.38,66.4906,-15.500799999999998,7.8804,175,75
2026-05-11 18:06:13.437,3,-0.14,0.89,1.39,75.9506,31.5192,18.5504,175,75
2026-05-11 18:06:13.448,3,-0.11,1.07,1.54,77.4106,36.699200000000005,27.2704,175,75
2026-05-11 18:06:13.460,3,-0.06,1.46,1.58,60.2106,9.929200000000002,45.4404,175,75
2026-05-11 18:06:13.476,3,-0.02,1.59,1.48,58.0806,-14.340799999999998,54.9604,175,75
2026-05-11 18:06:13.520,3,0.16,1.74,1.02,50.7606,-19.950799999999997,52.3904,175,75
2026-05-11 18:06:13.520,3,0.17,1.62,1.02,48.5106,5.539200000000001,50.3804,175,75
2026-05-11 18:06:13.535,3,0.21,1.47,1.06,44.6006,21.0892,48.3104,175,75
2026-05-11 18:06:13.581,3,0.18,1.36,1.09,40.1506,32.059200000000004,44.8304,175,75
2026-05-11 18:06:13.591,3,0.06,1.23,1.13,36.2506,57.2492,41.4804,175,75
2026-05-11 18:06:13.591,3,0.04,1.12,1.2,31.980600000000003,63.8892,38.800399999999996,175,75
2026-05-11 18:06:13.591,3,-0.01,1.02,1.21,24.7906,61.449200000000005,34.8304,175,75
2026-05-11 18:06:13.617,3,-0.04,1.0,1.17,5.1506,63.64920000000001,24.1004,175,75
2026-05-11 18:06:13.617,3,-0.03,1.05,1.15,-9.6594,58.8892,17.2704,175,75
2026-05-11 18:06:13.685,3,-0.41,0.89,1.59,-77.1594,59.199200000000005,-0.5895999999999999,175,75
2026-05-11 18:06:13.707,3,-0.27,0.79,1.83,-83.6894,6.999200000000002,-7.669599999999999,175,75
2026-05-11 18:06:13.707,3,0.05,0.63,1.91,-111.4294,-86.1108,-21.9296,175,75
2026-05-11 18:06:13.719,3,0.21,0.58,1.59,-136.9794,-168.67079999999999,-26.9296,175,75
2026-05-11 18:06:13.719,3,0.17,0.62,1.31,-151.5494,-199.89079999999998,-21.4496,175,75
2026-05-11 18:06:13.731,3,-0.26,0.66,1.18,-150.7594,-165.2508,-14.3696,175,75
2026-05-11 18:06:13.741,3,-0.34,0.3,1.29,-151.6794,-85.0108,-21.1396,175,75
2026-05-11 18:06:13.752,3,-3.74,0.48,4.0,41.4306,495.6592,49.8304,175,75
2026-05-11 18:06:13.771,3,1.06,-4.14,8.5,442.4106,-178.55079999999998,-40.9596,175,75
2026-05-11 18:06:13.771,3,3.98,-6.83,4.81,-158.62939999999998,-990.8008000000001,100.1404,175,75
2026-05-11 18:06:13.782,3,-2.89,-2.02,-0.85,-474.9694,-936.5908000000001,145.3804,175,75
2026-05-11 18:06:13.782,3,-3.8,-0.18,-3.48,-586.2493999999999,94.86919999999999,-111.1996,175,75
2026-05-11 18:06:13.801,3,1.42,3.9,-5.64,11.560599999999999,141.63920000000002,-83.6996,175,75
2026-05-11 18:06:13.815,3,-2.49,0.51,-1.42,236.8006,885.2292,156.9104,175,75
2026-05-11 18:06:13.832,3,-0.81,-5.54,2.65,286.13059999999996,708.5292,148.7404,175,75
2026-05-11 18:06:13.832,3,-2.56,-2.49,4.13,193.9306,211.44920000000002,92.8804,175,75
2026-05-11 18:06:13.843,3,-0.19,0.25,3.65,50.7606,-21.0508,-198.5196,175,75
2026-05-11 18:06:13.853,3,0.37,-1.17,1.18,-15.579400000000001,-238.36079999999998,33.7404,175,75
2026-05-11 18:06:13.864,3,-1.02,-0.79,0.22,52.0406,-129.0908,-9.6796,175,75
2026-05-11 18:06:13.866,3,-0.42,-0.02,0.77,103.8706,-12.880799999999997,-21.8096,175,75
2026-05-11 18:06:13.878,3,-0.27,-0.0,1.94,92.2906,-39.9508,12.2704,175,75
2026-05-11 18:06:13.929,3,-0.33,0.32,1.69,0.03059999999999996,-10.4408,0.08040000000000003,175,75
2026-05-11 18:06:13.943,3,-0.35,0.39,1.71,-14.719400000000002,-3.120799999999999,-2.4196,175,75
2026-05-11 18:06:13.955,3,-0.24,0.38,1.81,-25.3994,2.489200000000002,-8.7596,175,75
2026-05-11 18:06:13.959,3,-0.31,0.37,1.71,-38.3194,-7.810799999999997,-12.1196,175,75
2026-05-11 18:06:13.972,3,-0.38,0.27,1.61,-44.049400000000006,-8.180799999999998,-16.6296,175,75
2026-05-11 18:06:13.981,3,-0.4,0.23,1.51,-46.0094,-7.880799999999997,-16.5096,175,75
2026-05-11 18:06:13.995,3,-0.36,0.09,1.5,-47.9594,-5.250799999999998,-16.9296,175,75
2026-05-11 18:06:14.005,3,-0.24,-0.07,1.48,-49.909400000000005,-1.0507999999999988,-17.6696,175,75
2026-05-11 18:06:14.021,3,-0.27,-0.09,1.46,-48.019400000000005,5.049200000000001,-15.2896,175,75
2026-05-11 18:06:14.033,3,-0.31,0.04,1.62,-42.589400000000005,32.6092,-20.1696,175,75
2026-05-11 18:06:14.043,3,-0.47,0.13,1.7,-52.589400000000005,36.8792,-34.559599999999996,175,75
2026-05-11 18:06:14.059,3,-0.5,0.08,1.8,-66.4294,32.669200000000004,-53.8896,175,75
2026-05-11 18:06:14.070,3,-0.54,-0.1,1.81,-82.5894,5.229200000000002,-61.3896,175,75
2026-05-11 18:06:14.070,3,-0.59,-0.19,1.72,-94.5994,-9.520799999999998,-63.0896,175,75
2026-05-11 18:06:14.091,3,-0.52,-0.34,1.72,-112.2894,-23.7908,-70.9596,175,75
2026-05-11 18:06:14.091,3,-0.42,-0.49,1.66,-115.5194,-54.460800000000006,-72.4796,175,75
2026-05-11 18:06:14.102,3,-0.34,-0.69,1.5,-119.1194,-93.7908,-71.6896,175,75
2026-05-11 18:06:14.135,3,-0.26,-0.95,0.9,-158.2594,-164.1608,-65.1096,175,75
2026-05-11 18:06:14.146,3,-0.01,-1.08,0.76,-204.0494,-166.3508,-58.1496,175,75
2026-05-11 18:06:14.157,3,0.11,-0.74,0.4,-231.24939999999998,-196.11079999999998,-62.2396,175,75
2026-05-11 18:06:14.157,3,-0.03,-0.49,0.12,-245.39939999999999,-176.17079999999999,-56.6896,175,75
2026-05-11 18:06:14.202,3,-0.63,0.27,0.13,-232.21939999999998,-92.5108,-34.6196,175,75
2026-05-11 18:06:14.202,3,-1.75,1.41,1.18,-66.1294,127.4892,40.6904,175,75
2026-05-11 18:06:14.213,3,-1.38,1.5,2.88,133.0806,94.8092,65.6304,175,75
2026-05-11 18:06:14.213,3,-0.98,1.14,4.06,119.2406,-67.27080000000001,52.3304,175,75
2026-05-11 18:06:14.226,3,-0.08,0.49,3.88,26.3106,-304.9508,28.7404,175,75
2026-05-11 18:06:14.254,3,-0.34,0.25,1.05,44.2406,-442.8108,19.040399999999998,175,75
2026-05-11 18:06:14.267,3,-0.86,0.7,-0.44,20.210600000000003,-64.4608,10.6904,175,75
2026-05-11 18:06:14.271,3,-0.62,1.04,-0.29,104.7306,147.60920000000002,36.4204,175,75
2026-05-11 18:06:14.287,3,-0.23,0.76,0.41,125.4606,264.2592,49.4704,175,75
2026-05-11 18:06:14.296,3,0.08,0.89,0.95,125.7606,301.2692,55.6304,175,75
2026-05-11 18:06:14.324,3,0.39,0.99,1.22,145.15060000000003,241.2692,58.6104,175,75
2026-05-11 18:06:14.335,3,0.39,0.83,1.15,126.3706,172.4292,47.8204,175,75
2026-05-11 18:06:14.346,3,0.41,0.85,0.79,79.1206,116.4492,24.8304,175,75
2026-05-11 18:06:14.357,3,0.39,1.04,0.69,50.5806,132.4892,20.6904,175,75
2026-05-11 18:06:14.357,3,0.09,1.24,1.47,51.7406,187.66920000000002,27.1504,175,75
2026-05-11 18:06:14.372,3,0.16,1.25,3.61,107.9006,305.8392,39.2204,175,75
2026-05-11 18:06:14.379,3,-0.28,1.42,5.85,136.13060000000002,249.6892,51.1104,175,75
2026-05-11 18:06:14.398,3,-1.71,1.06,7.37,264.7306,242.1892,74.1604,175,75
2026-05-11 18:06:14.413,3,1.85,-2.11,7.07,242.2906,-496.6608,50.5704,175,75
2026-05-11 18:06:14.413,3,0.69,-1.54,2.01,-189.84939999999997,-1007.9408000000001,-4.3696,175,75
2026-05-11 18:06:14.463,3,-2.67,-0.08,-0.9,228.0206,703.7692,123.2504,175,75
2026-05-11 18:06:14.463,3,-1.16,-0.73,1.25,246.56060000000002,782.7991999999999,73.4304,175,75
2026-05-11 18:06:14.473,3,0.21,-1.85,4.48,230.7606,291.8192,-7.849600000000001,175,75
2026-05-11 18:06:14.483,3,0.29,-1.43,4.68,13.810599999999999,-74.5808,2.2104000000000004,175,75
2026-05-11 18:06:14.496,3,0.1,-0.83,2.22,-66.0694,-323.2408,1.4204000000000003,175,75
2026-05-11 18:06:14.496,3,-0.45,-1.04,0.8,-54.2394,-340.50079999999997,-20.5896,175,75
2026-05-11 18:06:14.526,3,-0.86,-1.24,-0.27,20.7006,-169.9508,-37.0596,175,75
2026-05-11 18:06:14.539,3,-0.58,-1.27,-0.09,76.9806,-2.4507999999999974,-36.1396,175,75
2026-05-11 18:06:14.547,3,-0.15,-1.19,0.63,121.9206,42.1892,-26.6896,175,75
2026-05-11 18:06:14.577,3,-0.13,-0.83,0.43,134.06060000000002,-199.0908,-44.4296,175,75
2026-05-11 18:06:14.610,3,-0.28,-0.22,-0.35,149.5406,-176.2908,-35.3496,175,75
2026-05-11 18:06:14.610,3,-0.74,-0.38,0.02,223.0806,29.6892,-3.1496,175,75
2026-05-11 18:06:14.650,3,-0.88,-1.23,1.24,373.57059999999996,73.2792,35.8704,175,75
2026-05-11 18:06:14.660,3,-0.77,-0.97,1.34,313.2006,119.1992,21.3004,175,75
2026-05-11 18:06:14.676,3,-0.05,-0.13,1.57,243.4506,52.6092,-17.5396,175,75
2026-05-11 18:06:14.701,3,-0.14,-0.9,3.35,279.06059999999997,-83.6108,48.8604,175,75
2026-05-11 18:06:14.722,3,-1.11,-0.44,0.74,-12.0394,-269.7708,-7.239599999999999,175,75
2026-05-11 18:06:14.731,3,-1.07,0.13,-0.05,-23.3794,-103.1208,-69.4296,175,75
2026-05-11 18:06:14.783,3,-0.3,0.75,1.92,-144.90939999999998,44.809200000000004,-70.8396,175,75
2026-05-11 18:06:14.786,3,-0.3,1.03,1.68,-218.0194,-9.2808,-74.3696,175,75
2026-05-11 18:06:14.840,3,-0.54,1.07,1.2,-299.0494,53.2792,-57.2396,175,75
2026-05-11 18:06:14.840,3,-0.23,0.96,1.43,-322.2894,76.14920000000001,-46.199600000000004,175,75
2026-05-11 18:06:14.865,3,-0.35,0.96,1.45,-341.5494,139.19920000000002,-11.2596,175,75
2026-05-11 18:06:14.887,3,-0.19,0.97,1.88,-333.31940000000003,146.2692,-4.2496,175,75
2026-05-11 18:06:14.923,3,-0.49,0.93,2.38,-302.2294,165.2992,-12.7296,175,75
2026-05-11 18:06:14.937,3,-0.37,1.05,2.78,-279.11940000000004,179.4392,-10.8396,175,75
2026-05-11 18:06:14.948,3,-0.26,1.11,3.08,-264.17940000000004,163.88920000000002,-2.1196,175,75
2026-05-11 18:06:14.959,3,-0.28,1.03,3.34,-241.4294,115.9092,-5.8995999999999995,175,75
2026-05-11 18:06:14.959,3,-0.22,0.96,3.45,-201.12939999999998,50.169200000000004,-15.8396,175,75
2026-05-11 18:06:14.964,3,-0.28,0.83,3.55,-154.2994,-2.630799999999997,-14.1896,175,75
2026-05-11 18:06:14.992,3,-0.01,0.73,3.68,-69.6594,-43.300799999999995,-4.5596,175,75
2026-05-11 18:06:14.998,3,0.32,0.74,3.53,-50.6394,-82.0808,-16.2596,175,75
2026-05-11 18:06:15.005,3,0.17,1.01,3.45,-21.1894,-4.4008,-52.3596,175,75
2026-05-11 18:06:15.026,3,-8.97,3.31,8.4,423.57059999999996,1123.7692,583.8604,175,75
2026-05-11 18:06:15.059,3,1.21,-5.26,10.01,571.8606000000001,-802.4508000000001,-188.7596,175,75
2026-05-11 18:06:15.098,3,-0.84,0.58,-2.24,35.950599999999994,-223.9708,-215.2896,175,75
2026-05-11 18:06:15.114,3,0.49,-0.63,3.11,158.9306,-12.390799999999999,-0.8395999999999999,175,75
2026-05-11 18:06:15.126,3,-0.64,0.26,1.21,95.8806,-69.0308,3.4304,175,75
2026-05-11 18:06:15.147,3,-0.7,-0.41,1.42,94.0606,-31.1108,-9.6196,175,75
2026-05-11 18:06:15.173,3,-0.74,-0.74,1.27,87.9006,-48.85079999999999,-21.3896,175,75
2026-05-11 18:06:15.202,3,-0.56,-0.59,1.4,91.1306,-33.6708,-44.3096,175,75
2026-05-11 18:06:15.210,3,-0.29,-0.45,1.47,90.5806,-18.1208,-46.1396,175,75
2026-05-11 18:06:15.214,3,-0.2,-0.6,1.5,96.5606,8.769200000000001,-44.1896,175,75
2026-05-11 18:06:15.226,3,-0.2,-0.84,1.45,97.1006,48.339200000000005,-42.7896,175,75
2026-05-11 18:06:15.249,3,-0.29,-1.6,0.84,63.7506,-143.67079999999999,-71.8696,175,75
2026-05-11 18:06:15.266,3,-0.49,-1.59,0.49,53.020599999999995,-183.61079999999998,-72.4796,175,75
2026-05-11 18:06:15.286,3,-0.27,-1.1,0.24,1.5606,-202.08079999999998,-71.1996,175,75
2026-05-11 18:06:15.294,3,0.16,0.03,-0.01,-10.3294,-203.36079999999998,-55.1696,175,75
2026-05-11 18:06:15.304,3,-0.09,0.34,-0.07,17.1706,-135.86079999999998,-61.2596,175,75
2026-05-11 18:06:15.316,3,-0.19,-0.25,0.14,97.9606,36.699200000000005,-36.2596,175,75
2026-05-11 18:06:15.328,3,0.11,-0.39,0.29,189.6706,-41.1108,-32.1196,175,75
2026-05-11 18:06:15.337,3,-0.7,-0.23,0.02,249.06060000000002,-84.16080000000001,-19.7396,175,75
2026-05-11 18:06:15.337,3,-0.81,-0.4,-0.03,260.1506,-8.300799999999999,12.2104,175,75
2026-05-11 18:06:15.347,3,-0.53,-0.58,0.3,260.6406,29.5592,40.6304,175,75
2026-05-11 18:06:15.347,3,-0.19,-0.78,0.95,250.5206,-69.2208,47.7604,175,75
2026-05-11 18:06:15.378,3,-0.7,-0.71,1.15,128.5706,-303.7308,48.7404,175,75
2026-05-11 18:06:15.403,3,-1.34,-0.9,-0.18,-87.9594,-336.8408,53.550399999999996,175,75
2026-05-11 18:06:15.425,3,-0.86,-0.31,-0.83,-73.9294,-28.3008,-4.9196,175,75
2026-05-11 18:06:15.438,3,-0.26,0.16,-0.07,-33.5694,95.3592,34.8904,175,75
2026-05-11 18:06:15.438,3,-0.32,0.21,0.65,-72.5294,137.3692,35.2604,175,75
2026-05-11 18:06:15.466,3,-0.43,0.03,1.44,-216.7994,139.3192,17.3904,175,75
2026-05-11 18:06:15.477,3,-0.35,0.14,1.42,-302.4094,113.7692,15.200399999999998,175,75
2026-05-11 18:06:15.478,3,-0.37,0.37,1.33,-346.06940000000003,110.5392,24.2804,175,75
2026-05-11 18:06:15.492,3,-0.36,0.31,1.35,-365.5194,130.5992,32.0904,175,75
2026-05-11 18:06:15.514,3,-0.64,-0.02,2.58,-311.24940000000004,340.4192,42.2704,175,75
2026-05-11 18:06:15.537,3,0.42,0.25,3.12,-387.5294,192.2492,22.5804,175,75
2026-05-11 18:06:15.545,3,-0.37,0.25,2.31,-369.17940000000004,129.6892,11.7804,175,75
2026-05-11 18:06:15.563,3,-0.65,0.11,1.47,-312.2894,236.2092,11.6604,175,75
2026-05-11 18:06:15.613,3,-0.28,0.14,4.32,-117.9594,475.9692,-28.279600000000002,175,75
2026-05-11 18:06:15.623,3,-1.47,0.88,4.81,-114.2394,303.8292,14.830400000000001,175,75
2026-05-11 18:06:15.623,3,-3.75,1.1,5.75,142.2306,509.0092,173.9204,175,75
2026-05-11 18:06:15.677,3,3.85,-3.18,6.17,228.4506,-843.1808000000001,66.1104,175,75
2026-05-11 18:06:15.693,3,-2.51,-0.62,-1.94,-230.93939999999998,109.0792,-93.6996,175,75
2026-05-11 18:06:15.726,3,-0.3,-1.11,3.18,196.62060000000002,54.4392,37.5804,175,75
2026-05-11 18:06:15.754,3,0.4,-0.49,2.42,72.6506,-157.33079999999998,22.2104,175,75
2026-05-11 18:06:15.754,3,-0.78,-0.54,0.6,54.6006,-173.42079999999999,30.5004,175,75
2026-05-11 18:06:15.768,3,-0.79,-0.75,0.06,94.1806,-79.16080000000001,-3.9496,175,75
2026-05-11 18:06:15.792,3,-0.26,-0.79,0.83,173.5706,10.169200000000002,11.6604,175,75
2026-05-11 18:06:15.792,3,-0.12,-0.68,0.92,171.62060000000002,29.989200000000004,10.750399999999999,175,75
2026-05-11 18:06:15.814,3,0.12,-1.0,1.07,158.0206,-8.550799999999999,9.4704,175,75
2026-05-11 18:06:15.817,3,0.28,-1.46,0.94,147.90060000000003,-84.8908,-6.569599999999999,175,75
2026-05-11 18:06:15.841,3,0.22,-1.45,-0.29,150.03060000000002,-296.5308,-25.1096,175,75
2026-05-11 18:06:15.850,3,0.05,-1.05,-0.66,151.8006,-278.2408,-34.9796,175,75
2026-05-11 18:06:15.857,3,-0.22,-0.61,-0.63,156.4306,-147.8108,-30.4696,175,75
2026-05-11 18:06:15.897,3,-0.29,-0.85,0.85,335.5206,30.169200000000004,82.8804,175,75
2026-05-11 18:06:15.908,3,-0.66,-0.69,1.46,333.38059999999996,-14.700799999999997,88.5504,175,75
2026-05-11 18:06:15.921,3,-0.31,-1.0,1.63,255.9506,-105.6808,54.8904,175,75
2026-05-11 18:06:15.921,3,-0.69,-0.78,1.2,169.7306,-179.2208,58.0704,175,75
2026-05-11 18:06:15.944,3,-0.4,-0.43,1.21,83.6306,-200.1908,8.1304,175,75
2026-05-11 18:06:15.979,3,-0.46,-0.26,0.59,-28.4394,-166.2908,17.8204,175,75
2026-05-11 18:06:15.979,3,-0.73,0.27,0.29,-72.5294,62.919200000000004,10.930399999999999,175,75
2026-05-11 18:06:15.989,3,-0.47,0.29,0.8,-57.3494,151.2692,-17.7896,175,75
2026-05-11 18:06:15.989,3,-0.13,0.35,1.64,-75.2694,206.9392,-23.3996,175,75
2026-05-11 18:06:15.999,3,-0.32,0.37,2.25,-113.6294,186.75920000000002,-16.5096,175,75
2026-05-11 18:06:16.010,3,-0.47,0.44,2.52,-179.7894,133.88920000000002,-40.2296,175,75
2026-05-11 18:06:16.034,3,-0.36,0.81,2.45,-246.9194,73.5892,-51.8696,175,75
2026-05-11 18:06:16.034,3,-0.5,0.99,2.36,-275.7594,45.229200000000006,-46.6896,175,75
2026-05-11 18:06:16.049,3,-0.52,0.99,2.31,-297.7094,31.639200000000002,-46.9996,175,75
2026-05-11 18:06:16.060,3,-0.4,0.98,2.25,-315.4594,6.579200000000001,-48.7596,175,75
2026-05-11 18:06:16.080,3,-0.26,1.04,2.21,-313.1994,-17.5108,-28.9496,175,75
2026-05-11 18:06:16.080,3,-0.17,0.99,2.23,-303.0194,-33.0008,-9.919599999999999,175,75
2026-05-11 18:06:16.087,3,-0.05,0.96,2.13,-297.7694,-60.070800000000006,-0.8395999999999999,175,75
2026-05-11 18:06:16.105,3,0.0,0.88,1.9,-289.0494,-59.2208,9.6504,175,75
2026-05-11 18:06:16.145,3,-0.04,0.85,1.41,-247.2894,103.5292,9.6504,175,75
2026-05-11 18:06:16.156,3,0.05,0.84,1.5,-232.52939999999998,159.8092,7.2704,175,75
2026-05-11 18:06:16.156,3,-0.01,0.88,1.63,-221.24939999999998,193.4092,5.6904,175,75
2026-05-11 18:06:16.175,3,-0.03,0.79,1.99,-204.65939999999998,214.6192,-2.1795999999999998,175,75
2026-05-11 18:06:16.205,3,-0.1,0.67,2.03,-202.89939999999999,199.31920000000002,-8.3396,175,75
2026-05-11 18:06:16.244,3,-0.13,0.35,2.2,-176.18939999999998,122.4892,-34.0696,175,75
2026-05-11 18:06:16.267,3,-0.13,0.5,2.4,-126.97940000000001,-56.960800000000006,-31.6896,175,75
2026-05-11 18:06:16.328,3,-0.04,0.79,1.7,-83.8694,-114.09080000000002,-4.9796,175,75
2026-05-11 18:06:16.343,3,-0.11,0.79,1.89,25.210600000000003,19.2592,7.8804,175,75
2026-05-11 18:06:16.358,3,0.17,0.78,2.11,83.3806,36.0292,13.1304,175,75
2026-05-11 18:06:16.392,3,3.35,-10.73,4.31,156.4906,-1617.8808000000001,-101.0196,175,75
2026-05-11 18:06:16.429,3,-2.28,2.18,-1.3,-531.6794,365.7792,-202.7296,175,75
2026-05-11 18:06:16.439,3,2.08,-3.07,-1.65,-82.7694,-227.5708,-26.5096,175,75
2026-05-11 18:06:16.439,3,-0.46,-3.59,-1.77,153.2006,-102.1408,15.2604,175,75
2026-05-11 18:06:16.454,3,0.28,-1.7,0.3,498.4506,8.949200000000001,-24.9196,175,75
2026-05-11 18:06:16.455,3,-0.09,0.78,1.74,383.32059999999996,43.5292,26.7804,175,75
2026-05-11 18:06:16.465,3,-0.07,0.6,2.91,254.2406,34.0192,-3.5196,175,75
2026-05-11 18:06:16.476,3,-0.04,0.53,2.89,149.85060000000001,-106.0508,36.4204,175,75
2026-05-11 18:06:16.518,3,-0.22,0.32,1.87,50.7606,-5.560799999999997,4.1004000000000005,175,75
2026-05-11 18:06:16.539,3,-0.27,0.17,1.9,27.3506,-24.640799999999995,11.4804,175,75
2026-05-11 18:06:16.551,3,-0.55,0.07,1.58,8.0806,-29.340799999999998,0.8704000000000001,175,75
2026-05-11 18:06:16.562,3,-0.45,0.02,1.48,3.0806,-25.2508,-6.3296,175,75
2026-05-11 18:06:16.604,3,-0.19,-0.09,1.44,-18.1394,-17.1408,-17.2396,175,75
2026-05-11 18:06:16.615,3,-0.26,-0.01,1.5,-16.7994,7.799200000000002,-23.3396,175,75
2026-05-11 18:06:16.625,3,-0.32,-0.08,1.63,-28.749399999999998,16.819200000000002,-27.9696,175,75
2026-05-11 18:06:16.631,3,-0.44,-0.14,1.7,-50.7594,38.2792,-41.9296,175,75
2026-05-11 18:06:16.664,3,-0.47,-0.46,1.6,-144.65939999999998,78.2792,-57.9096,175,75
2026-05-11 18:06:16.676,3,-0.44,-0.5,1.3,-151.30939999999998,95.5992,-56.199600000000004,175,75
2026-05-11 18:06:16.723,3,-0.25,-0.58,1.14,-128.1394,60.7192,-58.3396,175,75
2026-05-11 18:06:16.723,3,-0.2,-1.0,1.15,-100.8794,-8.300799999999999,-50.8396,175,75
2026-05-11 18:06:16.750,3,-0.29,-0.08,-0.09,-216.18939999999998,-193.12079999999997,-45.1696,175,75
2026-05-11 18:06:16.759,3,-0.74,0.28,-0.21,-173.80939999999998,-66.8408,-20.959600000000002,175,75
2026-05-11 18:06:16.774,3,-0.92,0.95,1.66,49.480599999999995,222.7992,43.4904,175,75
2026-05-11 18:06:16.788,3,-1.04,1.33,2.97,110.8206,107.36919999999999,53.1904,175,75
2026-05-11 18:06:16.804,3,-0.65,0.98,3.69,55.2806,-47.880799999999994,41.8504,175,75
2026-05-11 18:06:16.814,3,0.18,1.23,2.89,-58.199400000000004,-276.2308,30.440399999999997,175,75
2026-05-11 18:06:16.817,3,-0.65,0.38,0.4,-51.129400000000004,-384.9508,49.2804,175,75
2026-05-11 18:06:16.835,3,-1.11,0.52,-0.58,-65.8194,-165.2508,30.690399999999997,175,75
2026-05-11 18:06:16.838,3,-0.45,0.79,-0.8,7.3506,79.8092,9.1604,175,75
2026-05-11 18:06:16.855,3,0.08,0.84,0.15,39.1806,152.66920000000002,24.3504,175,75
2026-05-11 18:06:16.868,3,0.09,0.92,0.57,13.9306,173.82920000000001,34.7104,175,75
2026-05-11 18:06:16.880,3,0.04,0.85,0.79,33.8106,182.97920000000002,38.3104,175,75
2026-05-11 18:06:16.906,3,0.17,1.02,0.91,20.8806,127.0592,21.4204,175,75
2026-05-11 18:06:16.915,3,0.28,0.95,0.49,0.5806,110.2992,9.4104,175,75
2026-05-11 18:06:16.940,3,-0.72,1.19,2.93,97.0406,311.5092,91.9704,175,75
2026-05-11 18:06:16.958,3,-1.37,1.35,5.46,194.3006,580.8392,47.3304,175,75
2026-05-11 18:06:16.994,3,4.05,-4.36,10.61,314.4806,-1031.6608,139.1604,175,75
2026-05-11 18:06:17.023,3,-5.41,0.53,0.42,-613.5093999999999,-517.2008000000001,210.2004,175,75
2026-05-11 18:06:17.023,3,-2.13,0.01,-2.95,-633.9294,-153.18079999999998,-301.8696,175,75
2026-05-11 18:06:17.046,3,-1.61,-0.9,-0.17,307.1706,699.9291999999999,143.6104,175,75
2026-05-11 18:06:17.059,3,-0.74,-4.23,4.36,284.9706,372.36920000000003,18.3704,175,75
2026-05-11 18:06:17.070,3,0.95,-0.19,4.0,-9.7294,-19.030799999999996,-77.2996,175,75
2026-05-11 18:06:17.070,3,1.06,-0.66,1.98,-71.7994,-153.8508,15.080400000000001,175,75
2026-05-11 18:06:17.083,3,-0.21,-0.86,0.37,-28.199399999999997,-205.5608,-17.6696,175,75
2026-05-11 18:06:17.143,3,-0.5,-1.01,0.68,106.8006,-58.4808,-27.3596,175,75
2026-05-11 18:06:17.154,3,-0.36,-0.84,0.52,117.2906,-100.3108,-28.9496,175,75
2026-05-11 18:06:17.154,3,-0.09,-0.57,0.47,115.0906,-121.2308,-16.6296,175,75
2026-05-11 18:06:17.165,3,0.13,-0.58,0.31,118.2006,-168.55079999999998,-5.7196,175,75
2026-05-11 18:06:17.179,3,-0.01,-0.93,0.1,128.8706,-194.64079999999998,-7.179600000000001,175,75
2026-05-11 18:06:17.179,3,-0.25,-1.25,-0.02,136.4906,-247.3308,3.0004000000000004,175,75
2026-05-11 18:06:17.195,3,-1.28,-0.84,-0.06,173.9906,-153.12079999999997,15.500399999999999,175,75
2026-05-11 18:06:17.233,3,-0.5,-0.71,1.92,352.8406,210.9092,48.550399999999996,175,75
2026-05-11 18:06:17.269,3,-0.4,0.33,3.75,289.06059999999997,-27.570800000000002,28.4904,175,75
2026-05-11 18:06:17.293,3,-1.06,-0.43,1.3,114.9706,-288.00079999999997,-50.5296,175,75
2026-05-11 18:06:17.304,3,-0.82,0.07,0.63,100.64059999999999,-140.3108,-90.8396,175,75
2026-05-11 18:06:17.322,3,-0.12,1.07,1.22,118.6306,104.61919999999999,-63.6396,175,75
2026-05-11 18:06:17.333,3,-0.17,1.07,1.39,81.1906,65.3592,-52.6696,175,75
2026-05-11 18:06:17.348,3,-0.24,1.27,1.35,27.230600000000003,5.169200000000002,-43.6396,175,75
2026-05-11 18:06:17.401,3,-0.34,2.17,0.23,-150.39939999999999,26.5792,-16.6296,175,75
2026-05-11 18:06:17.419,3,-0.04,1.74,1.06,-189.96939999999998,144.5592,-4.4296,175,75
2026-05-11 18:06:17.431,3,0.19,1.62,1.41,-203.1994,108.4092,-7.6096,175,75
2026-05-11 18:06:17.474,3,0.18,1.54,1.02,-219.11939999999998,54.809200000000004,1.3603999999999998,175,75
2026-05-11 18:06:17.474,3,0.26,1.39,1.13,-217.34939999999997,115.6592,-0.34960000000000013,175,75
2026-05-11 18:06:17.474,3,0.23,1.23,1.24,-223.0194,147.1192,-6.999599999999999,175,75
2026-05-11 18:06:17.502,3,0.15,1.06,1.34,-220.6394,186.2092,-17.9096,175,75
2026-05-11 18:06:17.522,3,0.13,0.93,1.48,-217.7094,206.50920000000002,-26.2596,175,75
2026-05-11 18:06:17.535,3,-0.09,0.58,1.65,-207.64939999999999,201.2092,-45.8396,175,75
2026-05-11 18:06:17.545,3,-0.21,0.44,1.67,-201.7994,184.8092,-57.2396,175,75
2026-05-11 18:06:17.554,3,-0.42,0.3,1.57,-194.84939999999997,167.60920000000002,-69.3096,175,75
2026-05-11 18:06:17.576,3,-0.9,-0.05,1.8,-177.2894,201.0892,-80.28960000000001,175,75
2026-05-11 18:06:17.587,3,-1.01,-0.23,2.11,-167.7094,193.03920000000002,-86.0796,175,75
2026-05-11 18:06:17.598,3,-0.92,-0.29,2.49,-171.36939999999998,166.2692,-98.6396,175,75
2026-05-11 18:06:17.610,3,-0.19,-0.44,2.9,-174.2994,114.86919999999999,-99.4296,175,75
2026-05-11 18:06:17.646,3,0.49,-0.19,2.88,-159.90939999999998,27.3092,-85.2296,175,75
2026-05-11 18:06:17.646,3,0.31,0.06,2.7,-126.85940000000001,-80.9808,-51.3896,175,75
2026-05-11 18:06:17.646,3,-0.19,0.3,2.48,-101.85940000000001,-129.40079999999998,-44.7396,175,75
2026-05-11 18:06:17.646,3,-2.02,-0.32,3.77,19.6706,226.75920000000002,-7.5396,175,75
2026-05-11 18:06:17.646,3,-5.63,2.57,6.61,524.9106,744.3191999999999,166.2404,175,75
2026-05-11 18:06:17.663,3,1.87,-2.31,7.28,481.43059999999997,-408.2408,55.5004,175,75
2026-05-11 18:06:17.686,3,2.12,-4.02,4.22,-275.2694,-1181.5908,168.2504,175,75
2026-05-11 18:06:17.697,3,-2.06,-1.82,-0.1,-435.93940000000003,-842.2008000000001,258.6704,175,75
2026-05-11 18:06:17.710,3,4.04,2.81,-4.8,-65.6994,5.109200000000001,-290.2296,175,75
2026-05-11 18:06:17.738,3,-1.11,0.56,-1.18,252.84060000000002,604.8692,183.8004,175,75
2026-05-11 18:06:17.738,3,-0.4,-3.56,3.33,277.4106,367.7992,54.7704,175,75
2026-05-11 18:06:17.763,3,0.1,-0.3,1.56,-93.6894,-208.67079999999999,19.8304,175,75
2026-05-11 18:06:17.774,3,-0.55,-0.71,-0.09,-52.5294,-169.3408,-7.4796,175,75
2026-05-11 18:06:17.785,3,-0.74,-0.7,-0.12,35.700599999999994,-30.8608,-10.6496,175,75
2026-05-11 18:06:17.796,3,-0.1,-0.72,0.97,78.9906,12.0592,-6.8696,175,75
2026-05-11 18:06:17.807,3,-0.57,-0.71,0.92,35.7606,-64.3408,-5.8995999999999995,175,75
2026-05-11 18:06:17.837,3,-0.58,-0.6,0.56,54.6706,-55.440799999999996,-18.1496,175,75
2026-05-11 18:06:17.837,3,-0.33,-0.53,0.57,77.1006,-41.900800000000004,-6.0196000000000005,175,75
2026-05-11 18:06:17.858,3,-0.3,-0.61,0.77,79.7906,-58.9708,1.7803999999999998,175,75
2026-05-11 18:06:17.880,3,0.14,-0.95,0.84,35.8806,-204.3408,-2.6096,175,75
2026-05-11 18:06:17.891,3,-0.13,-0.32,0.5,18.0806,-194.2208,3.9804,175,75
2026-05-11 18:06:17.903,3,-0.34,0.33,0.41,36.0106,-79.4008,12.0304,175,75
2026-05-11 18:06:17.918,3,-0.31,0.9,1.08,113.8106,107.6092,41.3604,175,75
2026-05-11 18:06:17.922,3,-0.21,0.32,2.18,129.1806,-66.4708,31.1704,175,75
2026-05-11 18:06:17.935,3,-0.5,0.24,1.87,112.53059999999999,-89.7008,32.3304,175,75
2026-05-11 18:06:17.966,3,-0.51,0.64,1.84,91.3106,-52.27080000000001,30.8104,175,75
2026-05-11 18:06:17.966,3,-0.3,0.3,1.85,65.7606,-82.6908,7.090399999999999,175,75
2026-05-11 18:06:17.986,3,-0.26,0.3,1.58,13.7506,-72.3908,-14.249600000000001,175,75
2026-05-11 18:06:18.022,3,-0.14,0.77,1.37,-5.1494,-14.770799999999998,-16.389599999999998,175,75
2026-05-11 18:06:18.022,3,-0.05,0.95,1.47,-10.6394,17.8592,-20.1696,175,75
2026-05-11 18:06:18.034,3,0.0,1.01,1.79,-19.0494,20.599200000000003,-19.369600000000002,175,75
2026-05-11 18:06:18.043,3,-0.08,1.09,1.75,-46.309400000000004,-53.180800000000005,-13.8896,175,75
2026-05-11 18:06:18.054,3,-0.13,1.1,1.52,-57.8994,-59.77080000000001,-10.0396,175,75
2026-05-11 18:06:18.065,3,-0.15,1.02,1.33,-65.8194,-35.3108,-8.2796,175,75
2026-05-11 18:06:18.079,3,-0.1,0.91,1.27,-70.2094,9.439200000000001,-7.6096,175,75
2026-05-11 18:06:18.092,3,-0.04,0.81,1.31,-76.1894,34.4392,-13.6396,175,75
2026-05-11 18:06:18.127,3,0.43,0.7,1.09,-104.4794,27.8592,-15.9596,175,75
2026-05-11 18:06:18.141,3,0.78,0.58,0.85,-126.0094,16.2692,-24.0096,175,75
2026-05-11 18:06:18.153,3,1.2,0.47,0.4,-174.2994,-6.290799999999997,-46.3896,175,75
2026-05-11 18:06:18.164,3,-6.4,3.21,6.08,274.12059999999997,1462.4892,303.0704,175,75
2026-05-11 18:06:18.164,3,4.26,-2.82,6.91,698.9906000000001,-83.4808,-12.4196,175,75
2026-05-11 18:06:18.177,3,0.9,-2.83,5.99,56.8606,-677.7508,-31.4496,175,75
2026-05-11 18:06:18.238,3,-3.12,0.44,0.29,-517.9594,-29.520799999999998,39.5904,175,75
2026-05-11 18:06:18.263,3,-0.15,-1.45,-1.97,-378.31940000000003,-281.9608,-172.4196,175,75
2026-05-11 18:06:18.263,3,-1.13,-0.49,-2.28,-4.2994,-40.9208,1.1704000000000003,175,75
2026-05-11 18:06:18.277,3,0.49,-0.44,2.91,28.6306,75.1092,-0.03960000000000008,175,75
2026-05-11 18:06:18.291,3,0.03,-0.35,2.15,-55.5794,-65.1908,-14.6796,175,75
2026-05-11 18:06:18.302,3,-0.03,-0.38,1.16,-71.5494,-82.88080000000001,-11.079600000000001,175,75
2026-05-11 18:06:18.302,3,-0.55,-0.38,0.85,-55.5794,-45.800799999999995,-12.4196,175,75
2026-05-11 18:06:18.335,3,-0.26,-0.54,1.01,-33.6894,-24.340799999999998,-27.0596,175,75
2026-05-11 18:06:18.335,3,-0.16,-0.62,1.17,-28.319399999999998,-41.1708,-26.0796,175,75
2026-05-11 18:06:18.347,3,-0.07,-0.57,1.22,-40.0294,-67.5708,-25.4096,175,75
2026-05-11 18:06:18.357,3,0.1,-0.46,1.25,-48.9894,-86.41080000000001,-22.119600000000002,175,75
2026-05-11 18:06:18.357,3,0.26,-0.35,1.33,-58.6894,-110.74080000000001,-21.0196,175,75
2026-05-11 18:06:18.362,3,0.4,-0.16,1.3,-69.1794,-159.52079999999998,-18.1496,175,75
2026-05-11 18:06:18.405,3,0.34,-0.09,1.14,-86.6794,-176.17079999999999,-21.0796,175,75
2026-05-11 18:06:18.416,3,-0.28,0.09,0.75,-53.0794,-41.1708,-2.4196,175,75
2026-05-11 18:06:18.416,3,-0.61,0.1,1.0,11.6806,63.339200000000005,11.0504,175,75
2026-05-11 18:06:18.435,3,-0.37,-0.03,1.91,78.8706,85.9092,17.880399999999998,175,75
2026-05-11 18:06:18.447,3,-0.14,-0.04,2.49,76.3106,18.4692,37.8804,175,75
2026-05-11 18:06:18.447,3,-0.46,0.1,2.53,66.1306,-97.63080000000001,62.6404,175,75
2026-05-11 18:06:18.459,3,-1.11,0.15,2.47,78.9906,-132.33079999999998,80.3804,175,75
2026-05-11 18:06:18.519,3,-1.55,-0.94,2.93,98.75059999999999,-281.0508,87.7004,175,75
2026-05-11 18:06:18.526,3,-1.13,-0.74,2.35,28.320600000000002,-328.7908,70.8704,175,75
2026-05-11 18:06:18.540,3,-0.92,-0.39,1.83,40.340599999999995,-302.2008,86.3004,175,75
2026-05-11 18:06:18.540,3,-0.66,-0.31,1.81,78.6306,-264.5208,82.1504,175,75
2026-05-11 18:06:18.551,3,-0.44,-0.26,2.08,87.8406,-258.1208,81.2404,175,75
2026-05-11 18:06:18.575,3,-0.4,-0.37,2.05,66.9206,-339.8908,79.2804,175,75
2026-05-11 18:06:18.587,3,-0.55,-0.24,1.67,52.5306,-340.3108,81.9104,175,75
2026-05-11 18:06:18.588,3,-0.51,-0.0,1.34,45.0306,-301.4708,81.4204,175,75
2026-05-11 18:06:18.605,3,-0.25,0.73,1.05,47.1006,-135.3808,97.5204,175,75
2026-05-11 18:06:18.608,3,-0.24,0.8,1.15,41.3106,-106.2908,101.3604,175,75
2026-05-11 18:06:18.619,3,-0.23,0.93,1.21,28.3806,-97.2008,104.4704,175,75
2026-05-11 18:06:18.630,3,-0.22,1.14,1.16,8.4506,-109.52080000000001,106.9104,175,75
2026-05-11 18:06:18.649,3,-0.22,1.3,1.04,-4.2994,-120.7408,108.4304,175,75
2026-05-11 18:06:18.699,3,-0.12,1.41,0.8,-24.909399999999998,-113.7308,104.2804,175,75
2026-05-11 18:06:18.710,3,-0.06,1.38,0.82,-31.369399999999995,-108.3608,102.7004,175,75
2026-05-11 18:06:18.728,3,0.02,1.34,0.87,-41.4294,-109.2208,98.3704,175,75
2026-05-11 18:06:18.728,3,0.03,1.37,0.86,-50.1494,-102.1408,95.8104,175,75
2026-05-11 18:06:18.740,3,0.06,1.35,0.9,-53.019400000000005,-90.8008,92.46039999999999,175,75
2026-05-11 18:06:18.750,3,0.06,1.28,0.97,-57.3494,-79.5808,91.1704,175,75
2026-05-11 18:06:18.759,3,0.0,1.23,1.03,-71.9194,-64.4608,77.0904,175,75
2026-05-11 18:06:18.772,3,-0.05,1.19,1.04,-81.24940000000001,-52.2008,70.6304,175,75
2026-05-11 18:06:18.786,3,-0.17,1.09,1.11,-92.46940000000001,-13.300799999999999,67.3904,175,75
2026-05-11 18:06:18.786,3,-0.29,1.07,1.19,-97.0994,-0.7407999999999983,65.6304,175,75
2026-05-11 18:06:18.803,3,-0.53,0.78,1.35,-107.7094,5.659200000000002,42.2704,175,75
2026-05-11 18:06:18.848,3,-0.47,0.76,1.34,-126.7394,9.319200000000002,29.7104,175,75
2026-05-11 18:06:18.868,3,-0.32,0.77,1.47,-144.4194,-44.3408,29.770400000000002,175,75
2026-05-11 18:06:18.869,3,-0.37,0.62,1.52,-141.9794,-77.27080000000001,19.1004,175,75
2026-05-11 18:06:18.880,3,-0.27,0.45,2.04,-163.0194,-161.4108,16.3004,175,75
2026-05-11 18:06:18.886,3,-0.05,0.53,2.3,-176.24939999999998,-216.5308,17.7004,175,75
2026-05-11 18:06:18.897,3,0.21,0.55,2.15,-199.59939999999997,-317.63079999999997,27.3304,175,75
2026-05-11 18:06:18.897,3,-3.36,0.12,3.12,-38.5094,115.1692,104.0404,175,75
2026-05-11 18:06:18.918,3,-4.89,2.16,4.64,281.19059999999996,436.0892,133.7404,175,75
2026-05-11 18:06:18.931,3,0.92,-4.28,6.14,164.97060000000002,-539.8908,119.2204,175,75
2026-05-11 18:06:18.957,3,-4.04,0.06,-3.93,-453.31940000000003,58.64920000000001,-188.8896,175,75
2026-05-11 18:06:18.968,3,3.67,1.97,-5.74,31.3706,184.5592,-144.9796,175,75
2026-05-11 18:06:18.968,3,-1.13,1.19,-1.29,180.5206,707.0591999999999,198.6104,175,75
2026-05-11 18:06:18.992,3,-0.05,-1.06,2.03,285.5806,572.3091999999999,136.9704,175,75
2026-05-11 18:06:19.003,3,-1.79,-3.59,4.77,68.75059999999999,90.83919999999999,26.6604,175,75
2026-05-11 18:06:19.014,3,-0.46,1.3,2.32,-154.71939999999998,-133.0608,-58.949600000000004,175,75
2026-05-11 18:06:19.026,3,-0.28,-1.76,0.98,-73.1994,-236.6608,17.880399999999998,175,75
2026-05-11 18:06:19.026,3,-0.83,-1.52,-0.34,-12.5294,-76.0508,16.3004,175,75
2026-05-11 18:06:19.038,3,-0.39,-0.56,0.67,115.8806,-20.920799999999996,7.6404,175,75
2026-05-11 18:06:19.072,3,-0.69,0.35,1.93,53.3206,-47.880799999999994,39.7104,175,75
2026-05-11 18:06:19.126,3,-0.11,0.21,1.83,-18.199399999999997,-33.1208,15.2604,175,75
2026-05-11 18:06:19.140,3,-0.25,0.44,1.59,-25.2094,-19.2208,15.3204,175,75
2026-05-11 18:06:19.151,3,-0.34,0.52,1.76,-33.629400000000004,5.779200000000001,10.3804,175,75
2026-05-11 18:06:19.156,3,-0.45,0.43,1.68,-39.659400000000005,8.769200000000001,2.1504,175,75
2026-05-11 18:06:19.167,3,-0.53,0.18,1.46,-42.589400000000005,8.2192,-6.4496,175,75
2026-05-11 18:06:19.178,3,-0.45,0.02,1.44,-40.699400000000004,8.159200000000002,-13.4596,175,75
2026-05-11 18:06:19.178,3,-0.42,-0.2,1.41,-43.7494,9.0792,-22.6696,175,75
2026-05-11 18:06:19.218,3,-0.45,-0.15,1.47,-43.199400000000004,18.8292,-42.1196,175,75
2026-05-11 18:06:19.235,3,-0.46,-0.3,1.53,-54.9694,59.25920000000001,-52.9096,175,75
2026-05-11 18:06:19.235,3,-0.66,-0.24,1.62,-70.2694,66.5092,-68.5196,175,75
2026-05-11 18:06:19.249,3,-0.67,-0.26,1.62,-84.1194,72.8592,-84.7396,175,75
2026-05-11 18:06:19.249,3,-0.53,-0.27,1.52,-86.85940000000001,40.169200000000004,-101.8696,175,75
2026-05-11 18:06:19.284,3,-0.21,-1.19,0.8,-142.7094,-135.4408,-64.2496,175,75
2026-05-11 18:06:19.303,3,0.08,-0.96,0.75,-202.9594,-162.08079999999998,-57.9096,175,75
2026-05-11 18:06:19.313,3,0.38,-0.43,0.28,-272.8994,-193.7308,-61.6296,175,75
2026-05-11 18:06:19.356,3,-1.2,0.82,0.58,-110.8194,92.4292,20.6904,175,75
2026-05-11 18:06:19.377,3,-1.1,1.2,1.89,50.950599999999994,190.59920000000002,46.1704,175,75
2026-05-11 18:06:19.389,3,0.07,0.58,3.7,11.4306,-173.18079999999998,20.0204,175,75
2026-05-11 18:06:19.401,3,-0.41,0.42,0.92,16.1306,-352.51079999999996,-0.10959999999999992,175,75
2026-05-11 18:06:19.412,3,-0.66,0.63,0.12,39.0606,-167.2008,-1.1996,175,75
2026-05-11 18:06:19.425,3,-0.29,0.77,0.14,110.5206,80.6592,0.32040000000000024,175,75
2026-05-11 18:06:19.435,3,0.14,0.7,0.85,118.0806,138.7092,9.7104,175,75
2026-05-11 18:06:19.447,3,0.33,0.72,1.1,109.9706,81.2092,4.2804,175,75
2026-05-11 18:06:19.462,3,0.07,0.91,0.82,109.1206,48.5292,-2.2396,175,75
2026-05-11 18:06:19.477,3,-0.08,1.05,0.54,108.2606,106.2092,6.4803999999999995,175,75
2026-05-11 18:06:19.477,3,0.1,1.03,0.52,106.0106,162.66920000000002,0.9304000000000001,175,75
2026-05-11 18:06:19.488,3,0.29,1.05,0.56,85.7606,167.3092,-5.5296,175,75
2026-05-11 18:06:19.500,3,0.5,1.07,0.5,60.950599999999994,130.9692,-19.4996,175,75
2026-05-11 18:06:19.500,3,0.56,1.23,0.36,31.6206,125.1692,-20.4096,175,75
2026-05-11 18:06:19.524,3,-0.81,1.42,1.55,72.1006,282.6692,18.7404,175,75
2026-05-11 18:06:19.556,3,-2.21,2.58,5.94,304.18059999999997,749.1392,90.3204,175,75
2026-05-11 18:06:19.568,3,-0.94,1.31,7.92,485.82059999999996,192.4892,164.6504,175,75
2026-05-11 18:06:19.591,3,-1.91,-0.35,0.51,-307.6494,-752.0808000000001,135.4404,175,75
2026-05-11 18:06:19.591,3,-4.78,0.76,-0.51,-349.8494,-326.7808,92.7604,175,75
2026-05-11 18:06:19.604,3,-2.19,0.17,-2.35,-353.31940000000003,-105.9808,-155.8996,175,75
2026-05-11 18:06:19.604,3,0.93,1.01,-3.63,-50.8194,-44.7008,-97.9096,175,75
2026-05-11 18:06:19.621,3,-2.04,0.34,-1.6,163.3206,455.2292,166.1104,175,75
2026-05-11 18:06:19.644,3,0.46,-2.81,3.9,214.6706,296.0892,0.9304000000000001,175,75
2026-05-11 18:06:19.655,3,0.96,-1.42,4.13,30.5206,-53.6708,-1.8095999999999999,175,75
2026-05-11 18:06:19.666,3,0.23,-1.21,1.22,-59.909400000000005,-224.9508,-1.1996,175,75
2026-05-11 18:06:19.675,3,-0.24,-1.47,0.1,-8.8694,-140.74079999999998,-12.0596,175,75
2026-05-11 18:06:19.702,3,-0.24,-1.38,0.24,66.6806,26.819200000000002,-4.3096,175,75
2026-05-11 18:06:19.772,3,-0.13,-1.36,1.03,92.4706,16.639200000000002,16.9104,175,75
2026-05-11 18:06:19.797,3,-0.33,-1.37,0.99,111.6806,-62.330799999999996,15.3204,175,75
2026-05-11 18:06:19.797,3,-0.46,-1.37,0.6,128.2006,-145.86079999999998,1.1104000000000003,175,75
2026-05-11 18:06:19.818,3,0.02,-0.96,0.13,127.2906,-209.40079999999998,2.0904000000000003,175,75
2026-05-11 18:06:19.829,3,-0.1,-1.41,-0.07,145.28060000000002,-255.13079999999997,-7.9696,175,75
2026-05-11 18:06:19.860,3,0.09,-0.21,3.2,343.81059999999997,175.7792,-25.6496,175,75
2026-05-11 18:06:19.871,3,-0.87,0.6,4.5,387.7106,108.9492,55.5704,175,75
2026-05-11 18:06:19.883,3,-0.01,-1.31,4.28,328.4506,-261.4708,5.2004,175,75
2026-05-11 18:06:19.901,3,-0.84,-1.42,2.67,173.2006,-429.0908,-14.9796,175,75
2026-05-11 18:06:19.901,3,-1.17,-0.6,1.12,92.53059999999999,-336.6608,-51.2596,175,75
2026-05-11 18:06:19.911,3,-0.94,0.13,0.37,71.0706,-237.9408,-96.6296,175,75
2026-05-11 18:06:19.911,3,-0.57,0.92,0.06,68.0206,-100.9808,-110.5296,175,75
2026-05-11 18:06:19.922,3,-0.57,1.16,0.25,35.4606,8.409200000000002,-105.7796,175,75
2026-05-11 18:06:19.934,3,-0.61,1.27,0.4,-11.3694,70.2292,-101.8696,175,75
2026-05-11 18:06:19.934,3,-0.56,1.39,0.6,-60.5794,85.3592,-96.9296,175,75
2026-05-11 18:06:19.959,3,-0.49,1.58,0.68,-170.3294,11.639200000000002,-77.1196,175,75
2026-05-11 18:06:19.970,3,-0.54,1.91,0.46,-237.58939999999998,0.1092000000000013,-62.3596,175,75
2026-05-11 18:06:19.970,3,-0.56,1.85,0.25,-318.56940000000003,70.9692,-4.1896,175,75
2026-05-11 18:06:19.987,3,-0.54,1.64,0.26,-337.8294,96.9992,10.8704,175,75
2026-05-11 18:06:20.061,3,0.09,1.29,1.53,-329.5994,117.1892,40.6304,175,75
2026-05-11 18:06:20.061,3,0.19,1.21,1.62,-318.74940000000004,133.2192,36.8504,175,75
2026-05-11 18:06:20.061,3,0.21,1.14,1.81,-303.56940000000003,174.6892,29.160400000000003,175,75
2026-05-11 18:06:20.090,3,0.09,1.01,2.51,-263.56940000000003,189.37920000000003,13.430399999999999,175,75
2026-05-11 18:06:20.117,3,-0.29,0.63,2.53,-233.9294,86.4492,-23.0896,175,75
2026-05-11 18:06:20.132,3,-0.74,0.54,2.56,-204.1794,131.8792,-26.9996,175,75
2026-05-11 18:06:20.132,3,-0.84,0.2,3.14,-152.7094,158.94920000000002,-33.1496,175,75
2026-05-11 18:06:20.148,3,-0.59,0.04,3.9,-128.0194,112.6692,-53.1496,175,75
2026-05-11 18:06:20.172,3,0.76,0.39,3.4,-145.39939999999999,-175.62079999999997,-55.1696,175,75
2026-05-11 18:06:20.198,3,-9.12,2.94,8.1,624.7306000000001,1215.4792,510.8704,175,75
2026-05-11 18:06:20.209,3,2.21,-4.6,7.35,762.9006,-1302.8108,-3.3996,175,75
2026-05-11 18:06:20.221,3,0.24,-4.1,1.1,-26.7994,-460.9208,171.5404,175,75
2026-05-11 18:06:20.237,3,-2.59,-0.76,0.54,-581.8593999999999,-156.17079999999999,160.6304,175,75
2026-05-11 18:06:20.249,3,1.82,1.45,-2.78,-442.8294,-162.8808,-442.2396,175,75
2026-05-11 18:06:20.249,3,-0.61,1.41,-2.05,262.2906,38.6492,194.6504,175,75
2026-05-11 18:06:20.285,3,-0.63,-0.07,1.82,167.0406,57.6092,-101.5096,175,75
2026-05-11 18:06:20.295,3,1.19,-0.24,2.05,129.60060000000001,-25.0108,11.170399999999999,175,75
2026-05-11 18:06:20.313,3,-0.15,-0.57,1.47,76.4906,-62.02080000000001,-2.7896,175,75
2026-05-11 18:06:20.325,3,-0.07,-0.63,1.1,85.4606,-37.690799999999996,-20.4096,175,75
2026-05-11 18:06:20.337,3,-0.52,-0.92,0.97,81.8006,-30.130799999999997,-24.2496,175,75
2026-05-11 18:06:20.337,3,-0.86,-0.96,0.91,77.9006,5.539200000000001,-32.7896,175,75
2026-05-11 18:06:20.364,3,-0.4,-1.12,0.53,111.1906,44.9292,-36.9296,175,75
2026-05-11 18:06:20.374,3,-0.42,-1.27,0.56,126.5606,43.2792,-22.1796,175,75
2026-05-11 18:06:20.386,3,-0.19,-0.94,0.7,128.1406,-19.1608,-31.1996,175,75
2026-05-11 18:06:20.397,3,0.04,-0.87,0.73,122.4106,-112.27080000000001,-31.8096,175,75
2026-05-11 18:06:20.416,3,-0.16,-0.43,0.02,109.6706,-239.83079999999998,-42.6696,175,75
2026-05-11 18:06:20.435,3,0.12,-0.39,0.38,202.84060000000002,27.489200000000004,-10.8396,175,75
2026-05-11 18:06:20.453,3,-0.33,-0.17,1.09,234.60060000000001,-54.6408,19.6504,175,75
2026-05-11 18:06:20.488,3,-0.37,-0.41,1.15,145.28060000000002,-128.67079999999999,27.0904,175,75
2026-05-11 18:06:20.509,3,-1.04,1.3,0.54,25.210600000000003,-169.7008,3.4903999999999997,175,75
2026-05-11 18:06:20.522,3,-0.12,1.04,0.13,-10.8794,-136.5308,9.6504,175,75
2026-05-11 18:06:20.522,3,-0.46,0.65,-0.05,-59.7194,-76.8408,61.240399999999994,175,75
2026-05-11 18:06:20.544,3,-0.52,0.53,0.1,-78.9294,13.949200000000001,39.2804,175,75
2026-05-11 18:06:20.560,3,-0.26,0.67,0.59,-84.4794,86.1492,19.040399999999998,175,75
2026-05-11 18:06:20.571,3,0.02,0.78,1.26,-115.1494,101.8792,26.6004,175,75
2026-05-11 18:06:20.584,3,-0.03,0.67,1.62,-174.4794,59.619200000000006,24.1604,175,75
2026-05-11 18:06:20.601,3,-0.27,0.51,1.5,-265.4594,7.3092000000000015,20.2604,175,75
2026-05-11 18:06:20.692,3,-0.16,0.29,2.01,-317.3494,82.5492,39.8304,175,75
2026-05-11 18:06:20.704,3,-0.37,0.24,2.21,-323.92940000000004,53.709199999999996,43.7404,175,75
2026-05-11 18:06:20.704,3,-0.36,0.19,2.27,-317.4094,23.159200000000002,51.5404,175,75
2026-05-11 18:06:20.716,3,-0.35,0.04,2.28,-298.92940000000004,-3.7907999999999973,66.2404,175,75
2026-05-11 18:06:20.732,3,-0.25,-0.12,2.3,-271.61940000000004,-2.3907999999999987,88.8604,175,75
2026-05-11 18:06:20.752,3,-0.57,-1.52,4.98,-1.8594,241.9992,50.9904,175,75
2026-05-11 18:06:20.765,3,0.81,-1.32,6.4,-70.5794,95.9092,34.2204,175,75
2026-05-11 18:06:20.796,3,4.03,-0.91,4.15,4.4206,-585.9908,-18.2796,175,75
2026-05-11 18:06:20.810,3,1.65,-0.09,0.88,-35.5794,-716.6608,-29.0096,175,75
2026-05-11 18:06:20.821,3,-0.52,0.84,-1.25,20.090600000000002,-246.4108,12.1504,175,75
2026-05-11 18:06:20.843,3,-1.46,0.63,-2.11,34.480599999999995,272.48920000000004,46.6604,175,75
2026-05-11 18:06:20.855,3,-3.93,-1.2,1.54,118.0206,157.60920000000002,40.3804,175,75
2026-05-11 18:06:20.867,3,2.52,0.58,2.81,50.2806,-102.27080000000001,89.8304,175,75
2026-05-11 18:06:20.897,3,-1.18,-0.39,0.62,-0.5794000000000001,-135.80079999999998,-6.5096,175,75
2026-05-11 18:06:20.897,3,-0.45,-0.18,0.18,77.0406,-47.880799999999994,-61.0196,175,75
2026-05-11 18:06:20.897,3,-0.12,0.44,1.14,106.86059999999999,-0.3807999999999989,-25.3496,175,75
2026-05-11 18:06:20.926,3,-0.46,-0.09,1.77,77.5906,-44.7008,-11.6896,175,75
2026-05-11 18:06:20.938,3,-0.33,-0.06,1.62,53.3806,-67.02080000000001,-24.1896,175,75
2026-05-11 18:06:20.938,3,-0.43,-0.09,1.33,37.9606,-43.4208,-38.4596,175,75
2026-05-11 18:06:20.949,3,-0.24,-0.14,1.43,30.4006,-26.960799999999995,-39.2496,175,75
2026-05-11 18:06:20.954,3,-0.33,-0.22,1.46,12.2906,-11.470799999999997,-41.9996,175,75
2026-05-11 18:06:20.963,3,-0.2,-0.27,1.26,-11.1294,15.599200000000002,-63.6396,175,75
2026-05-11 18:06:21.009,3,-0.17,-0.03,1.31,32.5306,-23.3008,-32.4796,175,75
2026-05-11 18:06:21.020,3,-0.22,0.09,1.32,44.480599999999995,-53.790800000000004,-22.6096,175,75
2026-05-11 18:06:21.020,3,-0.19,0.09,1.32,55.950599999999994,-65.13080000000001,-10.1096,175,75
2026-05-11 18:06:21.032,3,-0.15,0.02,1.34,55.4006,-94.2808,0.3804000000000003,175,75
2026-05-11 18:06:21.045,3,-0.18,-0.01,1.36,52.840599999999995,-121.41080000000001,10.9904,175,75
2026-05-11 18:06:21.064,3,0.03,-0.85,1.09,49.5406,-176.90079999999998,20.4404,175,75
2026-05-11 18:06:21.107,3,-0.05,-1.16,0.94,49.480599999999995,-178.24079999999998,29.410400000000003,175,75
2026-05-11 18:06:21.107,3,-0.2,-1.06,1.1,65.3406,-171.4708,55.8104,175,75
2026-05-11 18:06:21.120,3,-0.65,-0.54,1.29,64.67060000000001,-187.8108,86.7204,175,75
2026-05-11 18:06:21.131,3,-1.1,-0.02,1.4,42.5306,-196.5308,102.8204,175,75
2026-05-11 18:06:21.143,3,-1.55,0.16,1.6,-3.8093999999999997,-143.8508,109.1004,175,75
2026-05-11 18:06:21.163,3,-1.25,0.17,2.09,-44.049400000000006,-157.33079999999998,120.4404,175,75
2026-05-11 18:06:21.176,3,-1.12,0.37,2.59,-76.24940000000001,-306.9608,142.7604,175,75
2026-05-11 18:06:21.200,3,-1.66,0.72,2.09,-182.64939999999999,-597.6308,205.9904,175,75
2026-05-11 18:06:21.210,3,-1.47,0.45,1.77,-211.9194,-660.8008000000001,223.5504,175,75
2026-05-11 18:06:21.233,3,-0.84,0.3,0.54,-159.84939999999997,-469.5808,248.8004,175,75
2026-05-11 18:06:21.271,3,-0.24,0.15,1.4,-70.3994,-346.5308,266.3004,175,75
2026-05-11 18:06:21.294,3,-0.27,0.16,1.26,-40.4594,-337.69079999999997,261.1104,175,75
2026-05-11 18:06:21.309,3,-0.19,0.15,1.17,-29.789399999999997,-312.69079999999997,250.0804,175,75
2026-05-11 18:06:21.321,3,0.08,0.24,1.1,-13.3794,-279.6408,225.5704,175,75
2026-05-11 18:06:21.321,3,0.22,0.38,1.05,-0.08939999999999992,-262.69079999999997,210.2004,175,75
2026-05-11 18:06:21.333,3,0.25,0.56,0.91,8.4506,-225.99079999999998,188.7404,175,75
2026-05-11 18:06:21.345,3,0.25,0.74,0.86,15.2106,-189.3408,171.1704,175,75
2026-05-11 18:06:21.360,3,0.2,0.85,0.86,16.8006,-159.46079999999998,157.4604,175,75
2026-05-11 18:06:21.361,3,0.07,0.91,0.88,8.3206,-127.69080000000001,139.4104,175,75
2026-05-11 18:06:21.403,3,-0.13,1.07,0.91,-38.5094,-129.83079999999998,112.8804,175,75
2026-05-11 18:06:21.417,3,-0.17,1.09,0.86,-49.7894,-143.9708,95.0804,175,75
2026-05-11 18:06:21.417,3,-0.12,1.15,0.75,-71.1894,-162.8108,87.1504,175,75
2026-05-11 18:06:21.417,3,0.03,1.21,0.56,-106.0694,-186.4108,78.9804,175,75
2026-05-11 18:06:21.450,3,0.32,1.26,0.35,-137.64939999999999,-210.68079999999998,78.0004,175,75
2026-05-11 18:06:21.450,3,0.44,1.29,0.25,-158.86939999999998,-232.33079999999998,72.2704,175,75
2026-05-11 18:06:21.450,3,0.52,1.23,0.18,-195.5194,-270.6808,55.3804,175,75
2026-05-11 18:06:21.562,3,-0.14,-4.51,8.96,530.5206000000001,-805.9208000000001,58.3704,175,75
2026-05-11 18:06:21.583,3,-5.09,-0.87,0.45,-566.5494,-755.7408,259.5904,175,75
2026-05-11 18:06:21.584,3,-4.61,-0.09,-2.73,-694.8494,-33.0608,-124.2496,175,75
2026-05-11 18:06:21.606,3,2.99,1.54,-6.21,-140.2094,-83.1808,-260.4696,175,75
2026-05-11 18:06:21.639,3,0.89,0.08,3.02,12.230599999999999,-76.41080000000001,-42.1796,175,75
2026-05-11 18:06:21.653,3,-0.68,-0.98,1.06,11.3706,-172.27079999999998,14.830400000000001,175,75
2026-05-11 18:06:21.665,3,-0.75,-0.77,0.87,46.370599999999996,-63.6108,-10.6496,175,75
2026-05-11 18:06:21.698,3,-0.64,-0.15,1.58,26.250600000000002,-19.280799999999996,1.9704000000000002,175,75
2026-05-11 18:06:21.729,3,-0.37,0.31,1.77,15.6406,-7.570799999999998,4.650399999999999,175,75
2026-05-11 18:06:21.752,3,-0.16,0.6,2.07,-17.039399999999997,2.4292000000000016,5.4404,175,75
2026-05-11 18:06:21.771,3,-0.2,0.27,1.81,-38.379400000000004,10.359200000000001,-3.0896,175,75
2026-05-11 18:06:21.811,3,-0.28,0.1,1.75,-47.409400000000005,24.0792,-12.909600000000001,175,75
2026-05-11 18:06:21.830,3,-0.48,0.06,1.76,-66.4294,52.919200000000004,-29.4996,175,75
2026-05-11 18:06:21.856,3,-0.56,-0.18,1.76,-87.3494,27.1192,-76.9296,175,75
2026-05-11 18:06:21.856,3,-0.59,-0.32,1.68,-81.0094,12.0592,-84.9796,175,75
2026-05-11 18:06:21.912,3,-0.58,-0.9,1.0,-133.86939999999998,-102.5708,-95.9596,175,75
2026-05-11 18:06:21.935,3,-0.36,-0.28,0.16,-184.2394,-181.2308,-53.5796,175,75
2026-05-11 18:06:21.946,3,-0.66,0.35,0.21,-186.18939999999998,-62.27080000000001,-26.4496,175,75
2026-05-11 18:06:21.957,3,-1.1,0.81,0.77,-110.5794,55.1092,20.8704,175,75
2026-05-11 18:06:21.970,3,-1.03,0.99,2.15,71.7406,50.0492,66.4204,175,75
2026-05-11 18:06:21.970,3,-0.95,0.71,3.13,93.3806,-112.63080000000001,70.4404,175,75
2026-05-11 18:06:21.980,3,-0.49,0.57,2.83,-51.0094,-328.3008,57.5204,175,75
2026-05-11 18:06:21.990,3,-0.47,0.9,1.55,-60.3294,-465.9208,55.4404,175,75
2026-05-11 18:06:22.005,3,-1.04,1.06,-0.52,-57.0994,-207.02079999999998,52.2104,175,75
2026-05-11 18:06:22.015,3,-0.41,0.76,-0.87,-29.2394,13.769200000000001,43.4304,175,75
2026-05-11 18:06:22.027,3,-0.33,0.7,-0.34,-8.1394,167.2492,50.5704,175,75
2026-05-11 18:06:22.072,3,0.29,0.97,1.2,-43.1394,74.3792,50.4404,175,75
2026-05-11 18:06:22.079,3,0.39,0.99,1.06,-55.4594,-56.66080000000001,43.1904,175,75
2026-05-11 18:06:22.087,3,0.15,1.05,0.48,-67.21940000000001,-47.3908,46.6004,175,75
2026-05-11 18:06:22.096,3,0.05,0.85,0.59,-43.5694,52.059200000000004,51.1104,175,75
2026-05-11 18:06:22.118,3,0.15,0.88,1.98,-7.8294,124.61919999999999,35.3804,175,75
2026-05-11 18:06:22.118,3,-1.42,1.45,3.98,114.36059999999999,406.2092,92.8804,175,75
2026-05-11 18:06:22.144,3,2.49,-2.02,12.29,1020.8206,-735.1908000000001,-42.0596,175,75
2026-05-11 18:06:22.155,3,-3.9,0.37,1.25,-530.8194,-763.0008,222.9404,175,75
2026-05-11 18:06:22.169,3,-2.05,-0.7,-1.91,-626.9793999999999,-292.63079999999997,-216.1996,175,75
2026-05-11 18:06:22.169,3,1.86,1.6,-5.92,-169.0494,-360.8608,-224.1896,175,75
2026-05-11 18:06:22.180,3,-3.64,0.45,-2.35,333.5106,750.3592,208.7404,175,75
2026-05-11 18:06:22.191,3,-1.07,-1.09,0.33,342.1006,949.9291999999999,129.7704,175,75
2026-05-11 18:06:22.191,3,-0.64,-1.83,3.2,473.87059999999997,544.8692,82.3304,175,75
2026-05-11 18:06:22.204,3,-2.03,-1.78,6.15,300.5206,74.8092,-104.1896,175,75
2026-05-11 18:06:22.221,3,2.54,0.02,3.65,-50.089400000000005,-187.7508,16.7804,175,75
2026-05-11 18:06:22.232,3,-0.69,-1.26,1.17,-75.4594,-315.19079999999997,-14.8596,175,75
2026-05-11 18:06:22.232,3,-0.62,-1.35,-0.11,11.740599999999999,-201.90079999999998,-70.8396,175,75
2026-05-11 18:06:22.254,3,-0.21,-1.35,0.07,107.1006,-17.3908,-23.1496,175,75
2026-05-11 18:06:22.254,3,-0.32,-1.4,0.57,138.81060000000002,-8.8508,-26.869600000000002,175,75
2026-05-11 18:06:22.265,3,-0.11,-1.12,0.61,160.09060000000002,-62.940799999999996,-35.1096,175,75
2026-05-11 18:06:22.279,3,0.05,-0.97,0.6,163.3206,-109.9508,-21.1396,175,75
2026-05-11 18:06:22.305,3,0.05,-0.9,0.41,147.65060000000003,-172.2008,-18.8296,175,75
2026-05-11 18:06:22.328,3,0.0,-0.84,0.11,142.59060000000002,-190.0708,-28.7596,175,75
2026-05-11 18:06:22.357,3,-0.92,-0.51,0.4,225.9506,-33.3608,8.4904,175,75
2026-05-11 18:06:22.377,3,-0.84,-0.99,1.21,350.0906,122.6692,25.9904,175,75
2026-05-11 18:06:22.377,3,-0.79,-0.8,1.59,336.19059999999996,138.2792,19.8904,175,75
2026-05-11 18:06:22.388,3,-0.15,-0.26,1.93,265.5206,81.3292,-5.8995999999999995,175,75
2026-05-11 18:06:22.388,3,-0.4,0.38,2.46,279.8506,12.249200000000002,9.4104,175,75
2026-05-11 18:06:22.403,3,-0.35,-0.29,3.22,311.31059999999997,-68.4808,66.3604,175,75
2026-05-11 18:06:22.415,3,-0.37,-1.27,3.03,208.9306,-284.9508,24.9604,175,75
2026-05-11 18:06:22.433,3,-0.84,-0.91,1.73,71.0706,-384.2208,6.170399999999999,175,75
2026-05-11 18:06:22.444,3,-0.81,0.46,0.1,3.1406,-93.5508,-64.7996,175,75
2026-05-11 18:06:22.455,3,-0.14,0.96,1.18,12.5306,121.0292,-63.0896,175,75
2026-05-11 18:06:22.485,3,-0.33,0.82,1.62,-40.8194,98.58919999999999,-60.2896,175,75
2026-05-11 18:06:22.507,3,-0.57,0.97,1.72,-107.3494,66.0292,-64.3096,175,75
2026-05-11 18:06:22.525,3,-0.59,1.3,1.55,-169.7894,38.7692,-67.9696,175,75
2026-05-11 18:06:22.536,3,-0.63,1.63,1.21,-247.52939999999998,45.7192,-46.9996,175,75
2026-05-11 18:06:22.569,3,-0.5,1.3,1.24,-298.1394,134.3192,-19.0096,175,75
2026-05-11 18:06:22.583,3,-0.44,1.25,1.31,-302.7694,140.5992,-5.5896,175,75
2026-05-11 18:06:22.583,3,-0.43,1.14,1.47,-302.8294,161.81920000000002,0.7504,175,75
2026-05-11 18:06:22.609,3,-0.22,1.06,1.64,-319.2994,136.9392,1.1704000000000003,175,75
2026-05-11 18:06:22.609,3,-0.24,1.05,1.64,-324.6594,109.5592,3.1904,175,75
2026-05-11 18:06:22.626,3,-0.33,1.04,1.6,-324.8494,108.5292,1.2403999999999997,175,75
2026-05-11 18:06:22.633,3,-0.43,1.06,1.61,-321.8594,136.57920000000001,1.1104000000000003,175,75
2026-05-11 18:06:22.644,3,-0.39,0.97,1.73,-310.5794,169.5592,2.6404,175,75
2026-05-11 18:06:22.668,3,-0.39,0.65,2.69,-250.87939999999998,179.25920000000002,-6.0796,175,75
2026-05-11 18:06:22.679,3,-0.47,0.5,2.69,-225.08939999999998,107.3092,-13.829600000000001,175,75
2026-05-11 18:06:22.694,3,-0.57,0.34,2.7,-204.7894,79.0792,-16.9996,175,75
2026-05-11 18:06:22.729,3,0.71,0.03,3.68,-113.3194,-52.570800000000006,-30.8996,175,75
2026-05-11 18:06:22.740,3,-1.98,1.02,4.2,-25.089399999999998,65.7792,73.2504,175,75
2026-05-11 18:06:22.749,3,-7.34,1.78,9.88,873.9906000000001,1216.5792,412.4604,175,75
2026-05-11 18:06:22.768,3,1.87,-4.93,11.23,622.7706000000001,-1190.8008,-212.3596,175,75
2026-05-11 18:06:22.768,3,-1.2,0.07,2.15,-269.6594,-609.0908000000001,301.9704,175,75
2026-05-11 18:06:22.780,3,-2.26,-0.62,-0.56,-592.5894,-216.11079999999998,-69.9196,175,75
2026-05-11 18:06:22.790,3,-1.65,0.79,-2.27,-414.2994,-35.5608,-312.1796,175,75
2026-05-11 18:06:22.801,3,-0.47,1.56,-2.27,287.9006,145.59920000000002,103.4904,175,75
2026-05-11 18:06:22.818,3,-1.34,-2.53,1.03,266.8606,423.3392,112.5204,175,75
2026-05-11 18:06:22.831,3,-0.44,-1.61,3.48,189.3006,140.41920000000002,-67.9096,175,75
2026-05-11 18:06:22.841,3,1.34,-0.06,2.61,40.4606,-99.8308,47.6404,175,75
2026-05-11 18:06:22.868,3,-0.75,-0.31,1.27,6.3706,-118.5508,8.920399999999999,175,75
2026-05-11 18:06:22.868,3,-0.37,-0.63,0.61,20.7606,-46.660799999999995,-24.1896,175,75
2026-05-11 18:06:22.878,3,-0.66,-0.6,0.76,69.5406,-27.7508,-9.8596,175,75
2026-05-11 18:06:22.886,3,-0.64,-0.62,1.05,81.3106,-12.570799999999998,-26.1396,175,75
2026-05-11 18:06:22.958,3,-0.15,-0.74,0.87,94.3006,-46.8408,-22.6096,175,75
2026-05-11 18:06:22.958,3,-0.06,-0.72,0.78,107.8406,-138.0608,-25.959600000000002,175,75
2026-05-11 18:06:22.973,3,-0.18,-0.65,0.45,110.3406,-222.14079999999998,-35.1096,175,75
2026-05-11 18:06:22.981,3,-0.35,-0.35,0.07,125.8806,-181.4708,-40.7196,175,75
2026-05-11 18:06:23.023,3,-0.23,-0.46,0.21,207.2306,31.8792,-12.6696,175,75
2026-05-11 18:06:23.023,3,0.02,-0.67,0.87,247.1706,4.749200000000002,6.170399999999999,175,75
2026-05-11 18:06:23.075,3,-0.47,0.79,0.39,21.430600000000002,-246.4708,29.470399999999998,175,75
2026-05-11 18:06:23.093,3,-0.34,0.43,-0.2,-50.0294,-255.99079999999998,17.880399999999998,175,75
2026-05-11 18:06:23.100,3,-0.67,0.41,-0.55,-73.4394,-124.03080000000001,39.6504,175,75
2026-05-11 18:06:23.121,3,-0.28,0.59,0.19,-95.8794,75.5992,20.2004,175,75
2026-05-11 18:06:23.143,3,-0.16,0.68,0.54,-124.5394,112.97919999999999,28.5504,175,75
2026-05-11 18:06:23.154,3,-0.28,0.59,0.74,-163.86939999999998,133.4092,34.1004,175,75
2026-05-11 18:06:23.154,3,-0.45,0.38,0.89,-203.68939999999998,148.5292,30.080399999999997,175,75
2026-05-11 18:06:23.164,3,-0.48,0.34,1.08,-247.15939999999998,155.41920000000002,33.800399999999996,175,75
2026-05-11 18:06:23.183,3,-0.53,0.25,1.25,-290.3994,136.0292,33.7404,175,75
2026-05-11 18:06:23.202,3,-0.6,0.39,1.81,-328.0194,144.8092,45.9304,175,75
2026-05-11 18:06:23.222,3,-0.44,0.34,1.86,-376.18940000000003,-27.3308,57.6404,175,75
2026-05-11 18:06:23.233,3,-0.44,0.29,1.79,-367.4694,-31.4708,71.0504,175,75
2026-05-11 18:06:23.244,3,-0.36,0.09,1.86,-361.61940000000004,-40.74079999999999,88.1304,175,75
2026-05-11 18:06:23.265,3,-0.15,-0.32,1.85,-326.12940000000003,-12.9408,120.7504,175,75
2026-05-11 18:06:23.316,3,-0.71,-0.69,7.64,29.6706,-165.2508,45.2004,175,75
2026-05-11 18:06:23.327,3,0.74,-1.82,6.7,200.40060000000003,-63.1208,-56.7496,175,75
2026-05-11 18:06:23.346,3,0.22,-0.31,-0.0,-17.769399999999997,-606.0508000000001,68.6704,175,75
2026-05-11 18:06:23.358,3,-4.58,-0.69,-1.37,-148.37939999999998,55.7192,73.1904,175,75
2026-05-11 18:06:23.373,3,-3.01,-0.55,-1.63,-159.7894,209.6892,114.96039999999999,175,75
2026-05-11 18:06:23.404,3,4.28,0.23,3.07,100.3406,166.44920000000002,4.8904,175,75
2026-05-11 18:06:23.404,3,-0.44,-0.51,2.23,69.0606,-187.08079999999998,58.1904,175,75
2026-05-11 18:06:23.422,3,-0.4,0.06,1.09,37.1706,-17.270799999999998,-31.1396,175,75
2026-05-11 18:06:23.436,3,-0.82,-0.04,1.11,33.9906,-12.630799999999997,-30.2896,175,75
2026-05-11 18:06:23.456,3,-0.45,-0.37,1.25,11.740599999999999,-6.1708,-56.449600000000004,175,75
2026-05-11 18:06:23.466,3,-0.38,-0.41,1.11,-1.9194,-17.0808,-51.2596,175,75
2026-05-11 18:06:23.469,3,-0.6,-0.34,0.96,-2.6494000000000004,-23.1808,-37.6696,175,75
2026-05-11 18:06:23.506,3,-0.67,-0.4,0.94,3.0806,-28.9708,-38.949600000000004,175,75
2026-05-11 18:06:23.525,3,-0.6,-0.25,1.05,-13.9894,-39.0908,-21.4496,175,75
2026-05-11 18:06:23.525,3,-0.54,0.08,1.09,-12.4094,-93.6708,-7.0596,175,75
2026-05-11 18:06:23.536,3,-0.43,0.09,0.97,24.5406,-221.7208,15.080400000000001,175,75
2026-05-11 18:06:23.546,3,-0.34,0.02,0.7,48.020599999999995,-292.4508,21.0504,175,75
2026-05-11 18:06:23.547,3,-0.65,0.18,0.38,43.6306,-295.6808,54.1604,175,75
2026-05-11 18:06:23.559,3,-1.15,0.78,0.58,52.5306,-251.7808,84.4704,175,75
2026-05-11 18:06:23.572,3,-1.29,1.2,1.28,38.5706,-306.1708,121.9704,175,75
2026-05-11 18:06:23.588,3,-0.84,0.53,1.37,-25.0294,-427.88079999999997,119.6504,175,75
2026-05-11 18:06:23.607,3,-0.65,0.62,0.81,-88.4394,-559.1608,128.7404,175,75
2026-05-11 18:06:23.607,3,-0.79,1.17,0.22,-119.9094,-596.2908,129.3504,175,75
2026-05-11 18:06:23.617,3,-0.62,1.49,-0.46,-137.52939999999998,-563.6708000000001,160.3804,175,75
2026-05-11 18:06:23.652,3,-0.78,1.7,-1.24,-162.0394,-415.07079999999996,198.8604,175,75
2026-05-11 18:06:23.652,3,-0.35,2.03,-1.46,-156.9794,-216.17079999999999,227.5204,175,75
2026-05-11 18:06:23.668,3,-1.09,2.31,-0.55,-159.2994,-27.630799999999997,301.7804,175,75
2026-05-11 18:06:23.679,3,-1.93,2.05,1.92,-91.9194,340.2292,278.8604,175,75
2026-05-11 18:06:23.705,3,4.54,2.52,4.66,-292.5894,-927.8808,110.5704,175,75
2026-05-11 18:06:23.716,3,0.26,-1.62,1.27,-302.6494,-815.3108000000001,11.7804,175,75
2026-05-11 18:06:23.727,3,-1.08,-0.09,-2.87,-61.8594,-236.05079999999998,-5.0396,175,75
2026-05-11 18:06:23.760,3,-3.42,-1.61,1.87,95.8806,85.47919999999999,-88.6396,175,75
2026-05-11 18:06:23.770,3,2.97,-0.96,3.59,-172.58939999999998,263.8292,-187.1796,175,75
2026-05-11 18:06:23.780,3,0.64,-0.43,2.73,-219.5394,-67.9408,-42.3596,175,75
2026-05-11 18:06:23.791,3,-0.6,-0.45,1.88,-137.46939999999998,-29.4008,-91.1996,175,75
2026-05-11 18:06:23.824,3,-1.09,-0.3,1.18,-115.3294,-324.0308,-44.3696,175,75
2026-05-11 18:06:23.824,3,-1.2,-1.38,0.66,-266.12940000000003,-217.8108,-86.0796,175,75
2026-05-11 18:06:23.836,3,-0.55,-1.73,0.35,-412.1594,-129.58079999999998,-123.8896,175,75
2026-05-11 18:06:23.848,3,0.07,-1.12,0.38,-414.3594,-132.33079999999998,-140.1096,175,75
2026-05-11 18:06:23.862,3,0.18,-0.19,0.85,-352.5894,-125.62079999999999,-118.1496,175,75
2026-05-11 18:06:23.879,3,-0.95,0.67,0.57,-90.0894,-188.42079999999999,-6.1996,175,75
2026-05-11 18:06:23.879,3,-3.12,1.47,3.45,173.75060000000002,-167.2008,97.6404,175,75
2026-05-11 18:06:23.890,3,-0.52,2.2,6.7,-67.4094,-639.3408000000001,25.0204,175,75
2026-05-11 18:06:23.901,3,-1.67,1.86,4.07,-27.4694,-845.6208,160.5704,175,75
2026-05-11 18:06:23.978,3,-0.42,1.03,-1.15,190.03060000000002,24.5592,-62.5396,175,75
2026-05-11 18:06:23.993,3,-0.06,1.39,0.46,176.9806,201.0292,83.3704,175,75
2026-05-11 18:06:24.040,3,-0.16,1.25,0.94,157.53060000000002,134.2592,104.96039999999999,175,75
2026-05-11 18:06:24.064,3,-0.6,1.1,0.71,55.2106,-67.9408,68.9204,175,75
2026-05-11 18:06:24.064,3,-0.5,1.09,0.58,33.5106,-56.41080000000001,54.2804,175,75
2026-05-11 18:06:24.075,3,-0.47,1.12,0.6,13.3806,-79.2808,40.3204,175,75
2026-05-11 18:06:24.104,3,-0.41,1.03,0.92,13.9306,-145.92079999999999,59.3504,175,75
2026-05-11 18:06:24.121,3,-0.4,0.87,1.19,10.9506,-235.2508,55.8104,175,75
2026-05-11 18:06:24.137,3,-0.54,0.93,0.79,-13.9894,-425.9908,59.9604,175,75
2026-05-11 18:06:24.145,3,0.0,0.6,0.28,-12.0394,-445.5608,32.0304,175,75
2026-05-11 18:06:24.153,3,-2.39,1.69,1.18,52.9606,-194.83079999999998,91.9104,175,75
2026-05-11 18:06:24.157,3,0.1,0.65,1.97,138.81060000000002,-27.140799999999995,20.9904,175,75
2026-05-11 18:06:24.187,3,0.72,-2.05,4.93,249.97060000000002,-390.13079999999997,112.8804,175,75
2026-05-11 18:06:24.198,3,-0.28,-2.01,3.46,101.9206,-583.4208000000001,159.1604,175,75
2026-05-11 18:06:24.211,3,-0.98,-3.3,-1.32,-24.4794,-628.0608000000001,55.8104,175,75
2026-05-11 18:06:24.268,3,0.93,-2.97,5.05,267.8406,-67.02080000000001,13.490400000000001,175,75
2026-05-11 18:06:24.268,3,0.91,-1.61,2.71,120.2106,-297.75079999999997,-68.8896,175,75
2026-05-11 18:06:24.279,3,-0.15,-0.4,0.85,186.4906,-302.8108,-47.1796,175,75
2026-05-11 18:06:24.336,3,-0.14,-1.09,1.91,242.2906,180.59920000000002,-25.0396,175,75
2026-05-11 18:06:24.359,3,-0.2,0.32,1.66,215.40060000000003,15.169200000000002,-13.3396,175,75
2026-05-11 18:06:24.370,3,-0.1,0.8,1.9,212.53060000000002,63.099199999999996,0.9304000000000001,175,75
2026-05-11 18:06:24.371,3,0.02,1.34,2.16,180.2106,33.7692,3.1304000000000003,175,75
2026-05-11 18:06:24.384,3,-0.19,1.84,2.13,148.87060000000002,3.3392000000000017,2.9404,175,75
2026-05-11 18:06:24.398,3,-0.3,2.22,2.24,135.7606,23.2192,15.380399999999998,175,75
2026-05-11 18:06:24.408,3,-0.15,1.95,2.4,120.2106,-0.8007999999999988,15.8704,175,75
2026-05-11 18:06:24.440,3,-0.02,1.37,2.0,88.14059999999999,-86.3508,21.3604,175,75
2026-05-11 18:06:24.440,3,0.01,1.3,1.96,82.2306,-50.5608,23.8004,175,75
2026-05-11 18:06:24.440,3,0.13,1.06,2.29,77.4706,-31.350799999999996,25.5004,175,75
2026-05-11 18:06:24.462,3,0.23,0.93,2.33,70.64059999999999,-54.9508,18.8604,175,75
2026-05-11 18:06:24.505,3,0.17,0.89,2.14,64.06060000000001,-28.1208,13.860399999999998,175,75
2026-05-11 18:06:24.532,3,0.11,0.83,2.22,56.8606,-26.4708,6.8504000000000005,175,75
2026-05-11 18:06:24.564,3,0.14,0.94,2.19,53.6306,-20.8008,8.3104,175,75
2026-05-11 18:06:24.572,3,0.18,1.11,2.14,49.120599999999996,7.799200000000002,3.4304,175,75
2026-05-11 18:06:24.588,3,0.16,1.13,2.22,47.9006,18.2192,1.0504000000000002,175,75
2026-05-11 18:06:24.603,3,0.17,1.15,2.24,42.3506,20.909200000000002,-5.0396,175,75
2026-05-11 18:06:24.614,3,0.14,1.2,2.25,38.2606,23.9492,-8.5196,175,75
2026-05-11 18:06:24.614,3,0.01,1.2,2.25,30.820600000000002,27.3092,-14.499600000000001,175,75
2026-05-11 18:06:24.614,3,-0.22,1.34,2.27,14.1206,19.9892,-14.3096,175,75
2026-05-11 18:06:24.638,3,-0.3,1.35,2.3,-1.9794,6.329200000000002,-7.179600000000001,175,75
2026-05-11 18:06:24.683,3,0.21,0.99,2.24,-41.979400000000005,-15.500799999999998,-5.349600000000001,175,75
2026-05-11 18:06:24.699,3,0.24,1.0,2.2,-46.549400000000006,-2.2007999999999974,-10.2896,175,75
2026-05-11 18:06:24.729,3,0.1,1.05,2.22,-57.8294,33.2192,-23.8296,175,75
2026-05-11 18:06:24.747,3,0.05,1.1,2.21,-61.9194,36.089200000000005,-24.1296,175,75
2026-05-11 18:06:24.780,3,-0.25,1.01,2.28,-94.4194,22.249200000000002,-8.9496,175,75
2026-05-11 18:06:24.830,3,-0.02,0.8,2.18,-126.0094,-26.6608,10.2004,175,75
2026-05-11 18:06:24.841,3,-0.11,0.56,2.09,-132.9594,-40.3108,19.1004,175,75
2026-05-11 18:06:24.891,3,-0.13,0.5,2.15,-158.0794,-43.6708,52.5804,175,75
2026-05-11 18:06:24.902,3,-0.12,0.21,2.07,-167.46939999999998,-57.570800000000006,49.4104,175,75
2026-05-11 18:06:24.948,3,-0.02,0.05,2.17,-173.2594,-52.080799999999996,53.1304,175,75
2026-05-11 18:06:24.961,3,-0.04,-0.03,2.24,-186.7994,-73.3608,68.9804,175,75
2026-05-11 18:06:24.974,3,-0.18,-0.21,2.14,-207.0394,-130.1308,93.9804,175,75
2026-05-11 18:06:24.990,3,-0.52,-0.25,2.0,-213.37939999999998,-149.77079999999998,115.6304,175,75
2026-05-11 18:06:25.006,3,-0.66,-0.37,1.94,-221.0094,-147.2008,129.9604,175,75
2026-05-11 18:06:25.006,3,-0.49,-0.44,2.02,-220.93939999999998,-188.0008,141.5404,175,75
2026-05-11 18:06:25.020,3,-0.49,-0.45,1.94,-214.7894,-286.5908,162.8204,175,75
2026-05-11 18:06:25.020,3,-0.83,-0.34,1.68,-204.0494,-338.6708,190.3204,175,75
2026-05-11 18:06:25.029,3,-0.66,-0.51,1.6,-217.58939999999998,-396.0508,188.0704,175,75
2026-05-11 18:06:25.081,3,-0.24,-0.29,0.84,-166.8594,-380.01079999999996,260.6304,175,75
2026-05-11 18:06:25.099,3,-0.41,-0.37,1.03,-166.7994,-382.0808,266.6604,175,75
2026-05-11 18:06:25.103,3,-0.57,-0.11,1.1,-168.1994,-397.2708,260.0204,175,75
2026-05-11 18:06:25.139,3,-0.32,0.02,1.12,-168.5094,-417.63079999999997,243.2504,175,75
2026-05-11 18:06:25.139,3,-0.11,0.27,1.17,-162.21939999999998,-435.3108,245.4404,175,75
2026-05-11 18:06:25.160,3,-0.03,0.62,1.15,-143.0194,-460.01079999999996,258.0004,175,75
2026-05-11 18:06:25.170,3,0.01,0.86,1.05,-120.3994,-502.88079999999997,257.0304,175,75
2026-05-11 18:06:25.269,3,-0.33,0.69,1.34,-93.2594,-379.7708,218.0704,175,75
2026-05-11 18:06:25.274,3,-0.45,0.68,1.64,-98.3194,-410.6808,205.8704,175,75
2026-05-11 18:06:25.293,3,-0.52,0.82,1.92,-112.46940000000001,-464.5808,201.9704,175,75
2026-05-11 18:06:25.303,3,-0.55,0.94,1.94,-118.5694,-550.3808,197.9404,175,75
2026-05-11 18:06:25.318,3,-0.03,0.52,1.48,-49.7194,-582.2008000000001,186.9104,175,75
2026-05-11 18:06:25.343,3,0.04,0.95,2.43,26.5606,-419.4608,138.9804,175,75
2026-05-11 18:06:25.345,3,-0.29,1.14,2.53,6.800599999999999,-462.94079999999997,138.3704,175,75
2026-05-11 18:06:25.397,3,-2.64,1.42,0.74,194.85060000000001,764.1991999999999,128.4904,175,75
2026-05-11 18:06:25.426,3,1.03,1.38,2.35,-120.3994,-200.5608,-94.4296,175,75
2026-05-11 18:06:25.438,3,-0.5,-0.67,-0.8,-14.539399999999999,-92.02080000000001,-7.3596,175,75
2026-05-11 18:06:25.442,3,-0.54,-0.18,0.62,121.5606,34.3792,-9.7396,175,75
2026-05-11 18:06:25.467,3,-0.44,0.13,2.43,43.450599999999994,-65.8008,50.4404,175,75
2026-05-11 18:06:25.478,3,-0.7,-0.08,1.89,-14.4794,-60.5008,35.0204,175,75
2026-05-11 18:06:25.503,3,-0.55,0.06,1.58,-29.2394,-60.0108,28.130399999999998,175,75
2026-05-11 18:06:25.503,3,-0.72,0.14,1.45,-47.8294,-32.2008,34.5304,175,75
2026-05-11 18:06:25.550,3,-0.64,0.44,1.31,-88.9294,-23.7908,-24.4296,175,75
2026-05-11 18:06:25.567,3,-0.57,0.2,1.23,-82.46940000000001,0.2992000000000008,-32.6096,175,75
2026-05-11 18:06:25.581,3,-0.63,0.01,1.37,-79.8494,21.5792,-42.2396,175,75
2026-05-11 18:06:25.581,3,-0.6,-0.02,1.48,-72.7094,11.939200000000001,-56.5696,175,75
2026-05-11 18:06:25.593,3,-0.67,-0.14,1.44,-72.46940000000001,4.019200000000001,-70.2296,175,75
2026-05-11 18:06:25.593,3,-0.58,-0.3,1.46,-69.4794,-14.700799999999997,-79.5596,175,75
2026-05-11 18:06:25.630,3,-0.58,-0.61,1.29,-53.629400000000004,-93.9708,-75.6496,175,75
2026-05-11 18:06:25.687,3,-0.48,-1.11,0.78,-174.65939999999998,-216.05079999999998,-70.6496,175,75
2026-05-11 18:06:25.697,3,-0.2,-0.93,0.46,-210.6994,-252.3308,-69.7996,175,75
2026-05-11 18:06:25.697,3,0.02,-0.52,0.12,-221.12939999999998,-280.19079999999997,-67.6096,175,75
2026-05-11 18:06:25.707,3,0.09,-0.06,-0.13,-218.86939999999998,-252.20080000000002,-55.6496,175,75
2026-05-11 18:06:25.719,3,-0.71,0.9,0.44,-53.9894,-48.790800000000004,35.9904,175,75
2026-05-11 18:06:25.719,3,-1.03,1.03,1.22,59.120599999999996,-75.5008,81.6604,175,75
2026-05-11 18:06:25.730,3,-1.05,0.78,2.16,71.9206,-182.4508,82.46039999999999,175,75
2026-05-11 18:06:25.753,3,-0.68,0.24,2.59,-24.909399999999998,-392.2708,87.9404,175,75
2026-05-11 18:06:25.763,3,-1.03,1.22,0.63,-171.6794,-655.1908000000001,84.8904,175,75
2026-05-11 18:06:25.789,3,-0.67,1.42,-0.34,-243.1994,-652.0808000000001,63.800399999999996,175,75
2026-05-11 18:06:25.798,3,-0.46,0.87,-0.99,-249.11939999999998,-513.6108,113.1304,175,75
2026-05-11 18:06:25.802,3,-0.67,0.78,-1.05,-264.17940000000004,-362.88079999999997,100.5004,175,75
2026-05-11 18:06:25.836,3,0.28,0.67,0.6,-242.58939999999998,-311.2908,69.4704,175,75
2026-05-11 18:06:25.836,3,-0.2,0.87,0.87,-252.7694,-387.3908,71.9704,175,75
2026-05-11 18:06:25.850,3,-0.34,0.93,0.81,-232.0394,-411.2308,77.9404,175,75
2026-05-11 18:06:25.888,3,-0.17,0.78,0.89,-225.02939999999998,-459.8908,83.1904,175,75
2026-05-11 18:06:25.911,3,-0.07,0.76,0.57,-220.02939999999998,-494.6408,65.3804,175,75
2026-05-11 18:06:25.922,3,0.08,0.79,0.29,-180.4594,-444.5208,84.2204,175,75
2026-05-11 18:06:25.938,3,0.01,0.65,0.59,-138.1994,-352.4508,81.3604,175,75
2026-05-11 18:06:25.951,3,-1.25,1.04,2.41,18.8106,-58.7308,160.0204,175,75
2026-05-11 18:06:25.951,3,-1.17,1.41,5.51,156.0706,142.7992,117.5204,175,75
2026-05-11 18:06:25.961,3,3.17,-2.67,8.42,400.7606,-124.6408,-17.2396,175,75
2026-05-11 18:06:26.002,3,2.61,-0.56,-5.24,-285.6994,-338.9108,-130.6496,175,75
2026-05-11 18:06:26.015,3,-3.44,-0.25,-3.22,58.5706,600.7192,58.4904,175,75
2026-05-11 18:06:26.044,3,-2.28,-4.37,5.14,177.65060000000003,320.2992,81.8504,175,75
2026-05-11 18:06:26.057,3,2.63,0.8,2.87,-174.4794,-231.8408,39.7104,175,75
2026-05-11 18:06:26.176,3,-1.68,-0.2,1.29,16.1906,-574.5808000000001,110.5704,175,75
2026-05-11 18:06:26.202,3,-0.42,0.84,0.37,1.6206,-554.4608000000001,122.3304,175,75
2026-05-11 18:06:26.207,3,0.38,0.9,0.35,-5.2094000000000005,-425.07079999999996,136.4204,175,75
2026-05-11 18:06:26.340,3,-2.22,-2.57,1.03,-34.1794,125.47919999999999,146.8504,175,75
2026-05-11 18:06:26.370,3,0.73,-1.04,2.47,-137.21939999999998,103.2192,-44.3696,175,75
2026-05-11 18:06:26.410,3,0.19,-1.14,1.97,-140.5794,77.5492,-64.61959999999999,175,75
2026-05-11 18:06:26.461,3,-0.62,-0.11,0.69,-229.3594,155.16920000000002,-60.3496,175,75
2026-05-11 18:06:26.472,3,-0.47,0.39,2.01,-123.9894,240.7192,-37.9096,175,75
2026-05-11 18:06:26.484,3,-1.16,0.86,3.42,28.140600000000003,279.1992,10.4404,175,75
2026-05-11 18:06:26.564,3,0.21,0.83,1.83,208.2006,131.8792,12.5804,175,75
2026-05-11 18:06:26.574,3,0.32,0.94,1.44,194.3006,26.5192,11.9104,175,75
2026-05-11 18:06:26.589,3,0.23,0.96,1.05,179.97060000000002,-0.07079999999999842,11.7804,175,75
2026-05-11 18:06:26.603,3,0.1,0.94,0.73,169.3606,16.7592,10.500399999999999,175,75
2026-05-11 18:06:26.615,3,0.11,0.91,0.65,156.19060000000002,30.7192,2.7003999999999997,175,75
2026-05-11 18:06:26.633,3,0.33,0.91,0.68,137.2306,31.819200000000002,-7.4796,175,75
2026-05-11 18:06:26.633,3,0.4,0.82,0.68,116.7406,-3.120799999999999,-15.0396,175,75
2026-05-11 18:06:26.655,3,-0.16,1.0,0.21,65.2806,-36.7808,-26.0196,175,75
2026-05-11 18:06:26.666,3,-0.02,1.04,0.47,41.8606,15.109200000000001,-3.9496,175,75
2026-05-11 18:06:26.677,3,0.29,0.91,0.87,15.580599999999999,-62.27080000000001,2.2704,175,75
2026-05-11 18:06:26.696,3,-0.94,0.82,1.94,55.090599999999995,100.5992,-12.8496,175,75
2026-05-11 18:06:26.707,3,-1.69,1.79,3.48,242.90060000000003,388.3392,85.9304,175,75
2026-05-11 18:06:26.707,3,-0.48,-0.04,6.79,458.81059999999997,143.2192,57.6404,175,75
2026-05-11 18:06:26.741,3,-1.04,-1.29,3.13,14.8506,-738.6108,108.0704,175,75
2026-05-11 18:06:26.741,3,-2.0,-1.43,1.4,7.230600000000001,-502.6908,77.6404,175,75
2026-05-11 18:06:26.806,3,0.97,-1.39,-0.55,69.0606,-154.46079999999998,-40.2296,175,75
2026-05-11 18:06:26.819,3,0.41,-0.32,1.11,166.6806,160.16920000000002,4.1004000000000005,175,75
2026-05-11 18:06:26.829,3,0.31,-1.02,1.86,218.4506,191.32920000000001,31.910400000000003,175,75
2026-05-11 18:06:26.841,3,-0.46,-2.13,2.06,158.1406,-92.1408,-10.2296,175,75
2026-05-11 18:06:26.854,3,-0.19,0.27,1.41,166.0106,-6.780799999999999,-4.1896,175,75
2026-05-11 18:06:26.865,3,-0.33,0.3,1.61,193.38060000000002,62.059200000000004,1.8504,175,75
2026-05-11 18:06:26.865,3,-0.32,-0.14,2.14,199.06060000000002,74.1992,1.3004000000000002,175,75
2026-05-11 18:06:26.881,3,-0.04,0.61,2.29,186.56060000000002,26.6992,4.5304,175,75
2026-05-11 18:06:26.881,3,-0.23,1.27,2.21,172.47060000000002,-4.640799999999999,10.9904,175,75
2026-05-11 18:06:26.915,3,-0.11,1.68,2.32,144.91060000000002,-6.590799999999998,14.5304,175,75
2026-05-11 18:06:26.926,3,-0.15,1.57,2.38,131.7406,-15.250799999999998,13.860399999999998,175,75
2026-05-11 18:06:26.969,3,-0.26,1.05,2.25,109.3006,-62.330799999999996,18.6104,175,75
2026-05-11 18:06:26.980,3,-0.13,0.83,2.18,106.6806,-62.570800000000006,20.9904,175,75
2026-05-11 18:06:26.980,3,-0.06,0.78,2.2,103.6906,-53.550799999999995,21.2404,175,75
2026-05-11 18:06:26.990,3,-0.01,0.85,2.23,94.6706,-39.830799999999996,18.5504,175,75
2026-05-11 18:06:27.007,3,-0.01,0.84,2.22,91.3706,-37.080799999999996,17.0904,175,75
2026-05-11 18:06:27.007,3,0.0,0.78,2.25,87.5906,-29.2208,16.4204,175,75
2026-05-11 18:06:27.027,3,-0.07,0.95,2.23,75.5806,-25.920799999999996,15.080400000000001,175,75
2026-05-11 18:06:27.075,3,-0.1,1.09,2.16,71.1306,-24.8308,15.2604,175,75
2026-05-11 18:06:27.075,3,-0.05,1.23,2.13,66.5606,-17.570800000000002,15.020399999999999,175,75
2026-05-11 18:06:27.088,3,0.04,1.32,2.26,52.7106,-8.8508,9.4704,175,75
2026-05-11 18:06:27.088,3,-0.0,1.34,2.28,39.2406,-11.7808,1.9704000000000002,175,75
2026-05-11 18:06:27.100,3,-0.06,1.42,2.23,25.820600000000002,-15.0108,-1.7495999999999998,175,75
2026-05-11 18:06:27.111,3,0.02,1.4,2.19,12.0406,-11.960799999999999,-7.669599999999999,175,75
2026-05-11 18:06:27.140,3,0.04,1.36,2.21,6.310599999999999,-7.200799999999997,-10.169599999999999,175,75
2026-05-11 18:06:27.158,3,0.04,1.31,2.25,-6.0694,-2.5707999999999984,-14.069600000000001,175,75
2026-05-11 18:06:27.158,3,0.05,1.29,2.21,-12.099400000000001,4.749200000000002,-15.8396,175,75
2026-05-11 18:06:27.185,3,0.1,1.23,2.26,-18.929399999999998,10.7192,-17.7896,175,75
2026-05-11 18:06:27.185,3,0.11,1.24,2.25,-26.1294,12.3092,-19.1896,175,75
2026-05-11 18:06:27.208,3,-0.01,1.23,2.17,-34.9694,17.799200000000003,-20.5896,175,75
2026-05-11 18:06:27.223,3,-0.02,1.18,2.28,-46.6794,28.6492,-20.959600000000002,175,75
2026-05-11 18:06:27.241,3,0.02,1.15,2.25,-52.8994,25.3592,-24.0696,175,75
2026-05-11 18:06:27.255,3,0.08,1.12,2.2,-57.5294,32.2492,-29.8596,175,75
2026-05-11 18:06:27.255,3,-0.02,1.19,2.13,-63.9894,42.5492,-34.9796,175,75
2026-05-11 18:06:27.310,3,-0.11,1.24,2.21,-80.0294,40.5392,-28.6396,175,75
2026-05-11 18:06:27.321,3,-0.12,1.17,2.2,-88.5694,31.2692,-27.6696,175,75
2026-05-11 18:06:27.321,3,-0.16,1.15,2.15,-95.9394,27.1892,-26.6296,175,75
2026-05-11 18:06:27.332,3,-0.24,1.16,2.12,-101.5494,27.5492,-23.029600000000002,175,75
2026-05-11 18:06:27.345,3,-0.32,1.14,2.19,-106.4294,24.9292,-17.7896,175,75
2026-05-11 18:06:27.376,3,-0.25,1.06,2.22,-114.4194,6.149200000000002,-14.1296,175,75
2026-05-11 18:06:27.387,3,-0.22,0.85,2.14,-125.1494,-7.940799999999999,-6.7496,175,75
2026-05-11 18:06:27.387,3,-0.2,0.86,2.17,-127.9594,-1.840799999999998,-5.5896,175,75
2026-05-11 18:06:27.411,3,-0.09,0.86,2.18,-132.64939999999999,-6.590799999999998,-4.4296,175,75
2026-05-11 18:06:27.411,3,-0.07,0.83,2.1,-136.7394,-13.610799999999998,-3.8895999999999997,175,75
2026-05-11 18:06:27.422,3,-0.12,0.76,2.09,-137.7094,-8.2408,-3.2796,175,75
2026-05-11 18:06:27.422,3,-0.1,0.64,2.17,-137.7094,-7.690799999999999,1.3004000000000002,175,75
2026-05-11 18:06:27.443,3,-0.1,0.52,2.21,-142.7694,-25.8608,4.410399999999999,175,75
2026-05-11 18:06:27.508,3,-0.16,0.48,2.13,-148.0194,-31.7208,7.9404,175,75
2026-05-11 18:06:27.508,3,-0.23,0.37,2.07,-152.2894,-24.640799999999995,9.3504,175,75
2026-05-11 18:06:27.518,3,-0.22,-0.03,1.96,-175.14939999999999,-11.660799999999998,11.9104,175,75
2026-05-11 18:06:27.555,3,-0.23,-0.06,1.95,-177.89939999999999,27.1192,9.1604,175,75
2026-05-11 18:06:27.561,3,-0.18,-0.2,2.1,-182.46939999999998,38.7692,7.2704,175,75
2026-05-11 18:06:27.593,3,-0.0,-0.25,2.31,-211.0694,30.7192,19.4104,175,75
2026-05-11 18:06:27.604,3,-0.34,-0.29,2.28,-256.24940000000004,-96.41080000000001,37.2104,175,75
2026-05-11 18:06:27.604,3,-1.21,-0.47,2.01,-259.2394,-121.78080000000001,74.6504,175,75
2026-05-11 18:06:27.617,3,-1.19,-0.57,2.24,-232.0394,-143.9108,102.5204,175,75
2026-05-11 18:06:27.656,3,-1.1,-0.51,2.21,-256.61940000000004,-323.00079999999997,117.7604,175,75
2026-05-11 18:06:27.666,3,-0.99,-0.28,1.75,-286.5494,-406.9608,143.2504,175,75
2026-05-11 18:06:27.671,3,-0.62,-0.08,1.45,-292.8994,-547.7508,175.9304,175,75
2026-05-11 18:06:27.687,3,-0.58,1.21,1.47,-331.36940000000004,-636.1708000000001,137.1504,175,75
2026-05-11 18:06:27.687,3,-0.29,0.7,1.47,-301.30940000000004,-712.6908000000001,239.7104,175,75
2026-05-11 18:06:27.698,3,-1.29,0.67,0.91,-338.74940000000004,-803.0008,254.5304,175,75
2026-05-11 18:06:27.710,3,-1.08,1.01,0.45,-308.37940000000003,-772.6908000000001,233.8604,175,75
2026-05-11 18:06:27.731,3,-0.72,1.28,0.5,-121.6194,-499.9508,232.2104,175,75
2026-05-11 18:06:27.743,3,-0.62,0.74,0.89,-59.7194,-447.69079999999997,245.2604,175,75
2026-05-11 18:06:27.754,3,-0.46,0.29,1.35,-40.6394,-472.57079999999996,227.9404,175,75
2026-05-11 18:06:27.773,3,-0.5,0.63,1.21,-45.0294,-468.6708,223.6104,175,75
2026-05-11 18:06:27.782,3,-0.48,0.8,0.96,-38.379400000000004,-435.01079999999996,218.6104,175,75
2026-05-11 18:06:27.794,3,-0.58,0.84,0.88,-18.1394,-389.7708,216.6604,175,75
2026-05-11 18:06:27.817,3,-0.2,0.64,1.21,1.1905999999999999,-341.8408,207.8204,175,75
2026-05-11 18:06:27.846,3,-0.09,0.6,1.29,10.8806,-367.8108,194.0404,175,75
2026-05-11 18:06:27.858,3,-0.04,0.69,1.3,15.7006,-375.19079999999997,187.2704,175,75
2026-05-11 18:06:27.876,3,-0.09,0.76,1.32,16.3706,-413.5508,177.8204,175,75
2026-05-11 18:06:27.902,3,0.07,0.69,0.9,-4.7894000000000005,-447.0808,151.7804,175,75
2026-05-11 18:06:27.912,3,0.19,0.81,0.79,-8.509400000000001,-363.9708,110.6304,175,75
2026-05-11 18:06:27.932,3,0.94,-0.53,0.81,-68.74940000000001,-625.6208,129.7704,175,75
2026-05-11 18:06:27.964,3,-2.15,2.61,0.35,210.15060000000003,687.5491999999999,76.7804,175,75
2026-05-11 18:06:27.970,3,-1.6,-0.3,1.7,257.1706,635.7192,191.0504,175,75
2026-05-11 18:06:27.997,3,0.14,-0.98,3.1,-67.7094,-64.8908,-47.4196,175,75
2026-05-11 18:06:28.023,3,0.93,-0.46,1.33,-22.039399999999997,-215.0108,42.8204,175,75
2026-05-11 18:06:28.023,3,-0.61,-0.31,0.5,98.0806,-24.770799999999998,13.250399999999999,175,75
2026-05-11 18:06:28.051,3,-0.45,0.19,2.23,48.870599999999996,-5.7408,41.5404,175,75
2026-05-11 18:06:28.064,3,-0.25,0.27,2.17,9.910599999999999,-16.9008,42.4604,175,75
2026-05-11 18:06:28.064,3,-0.26,0.36,1.94,-19.359399999999997,-15.7408,38.550399999999996,175,75
2026-05-11 18:06:28.125,3,-0.36,0.5,2.04,-48.7494,14.1392,25.7504,175,75
2026-05-11 18:06:28.125,3,-0.67,0.53,1.87,-73.1994,-6.530799999999999,12.090399999999999,175,75
2026-05-11 18:06:28.137,3,-0.69,0.42,1.67,-93.1994,-7.200799999999997,7.150399999999999,175,75
2026-05-11 18:06:28.148,3,-0.55,0.05,1.7,-106.0694,2.8592000000000013,-2.2396,175,75
2026-05-11 18:06:28.148,3,-0.4,0.02,1.75,-113.9894,-0.5007999999999981,-16.8096,175,75
2026-05-11 18:06:28.171,3,-0.45,0.03,1.75,-109.8494,-21.1108,-31.6896,175,75
2026-05-11 18:06:28.183,3,-0.66,-0.24,1.66,-105.3994,-63.9708,-53.5796,175,75
2026-05-11 18:06:28.183,3,-0.85,-0.39,1.45,-92.6494,-90.0708,-67.7296,175,75
2026-05-11 18:06:28.196,3,-0.85,-0.56,1.25,-65.6994,-136.4108,-79.7396,175,75
2026-05-11 18:06:28.202,3,-0.78,-0.93,1.16,-91.0094,-130.99079999999998,-82.4196,175,75
2026-05-11 18:06:28.227,3,-0.49,-1.05,0.86,-170.02939999999998,-185.1908,-84.0696,175,75
2026-05-11 18:06:28.258,3,-0.41,-0.12,-0.25,-204.0494,-158.61079999999998,-17.6096,175,75
2026-05-11 18:06:28.314,3,-0.96,0.35,2.32,6.8606,-332.4508,111.7804,175,75
2026-05-11 18:06:28.325,3,-0.64,0.16,1.54,-147.52939999999998,-496.5908,118.0004,175,75
2026-05-11 18:06:28.343,3,-0.99,1.19,-1.63,-243.1394,-412.4508,116.4804,175,75
2026-05-11 18:06:28.371,3,-0.7,0.54,-0.51,-190.87939999999998,-18.5508,110.6304,175,75
2026-05-11 18:06:28.371,3,-0.0,0.37,0.55,-191.61939999999998,-51.5908,92.2704,175,75
2026-05-11 18:06:28.396,3,0.28,0.51,1.33,-208.62939999999998,-178.24079999999998,96.6604,175,75
2026-05-11 18:06:28.414,3,-0.04,0.69,1.45,-212.09939999999997,-503.2408,118.8004,175,75
2026-05-11 18:06:28.430,3,0.08,0.68,1.07,-208.2594,-520.5008,125.3204,175,75
2026-05-11 18:06:28.445,3,-0.01,0.72,0.81,-187.89939999999999,-489.7008,121.4204,175,75
2026-05-11 18:06:28.486,3,0.23,0.79,0.85,-175.3294,-459.0308,116.0504,175,75
2026-05-11 18:06:28.486,3,0.63,0.88,0.89,-166.18939999999998,-466.1108,108.3104,175,75
2026-05-11 18:06:28.486,3,0.74,0.86,0.86,-152.34939999999997,-469.8308,110.5004,175,75
2026-05-11 18:06:28.486,3,-1.32,1.62,1.8,-85.5794,-369.5808,175.6304,175,75
2026-05-11 18:06:28.497,3,1.8,-0.28,4.23,-4.7194,-144.89079999999998,71.4804,175,75
2026-05-11 18:06:28.521,3,2.98,-3.54,3.77,-92.7694,-894.4008,34.5904,175,75
2026-05-11 18:06:28.530,3,0.82,-1.21,-1.0,-195.39939999999999,-835.0108,9.590399999999999,175,75
2026-05-11 18:06:28.543,3,-0.18,0.48,-3.84,-26.7994,-159.58079999999998,25.5004,175,75
2026-05-11 18:06:28.565,3,-0.48,0.77,-2.94,32.6506,433.4092,60.9304,175,75
2026-05-11 18:06:28.583,3,-3.45,0.08,0.2,44.6706,685.6591999999999,152.0304,175,75
2026-05-11 18:06:28.584,3,-1.9,-2.67,2.91,139.3006,296.99920000000003,142.2104,175,75
2026-05-11 18:06:28.589,3,-3.07,-3.7,3.11,-131.12939999999998,-26.4708,-89.5596,175,75
2026-05-11 18:06:28.605,3,1.52,-0.71,1.59,-222.89939999999999,-86.8408,-202.7896,175,75
2026-05-11 18:06:28.622,3,1.04,-0.35,0.71,-115.3994,-217.4508,29.220399999999998,175,75
2026-05-11 18:06:28.638,3,0.22,-1.55,0.08,-53.9894,-114.22080000000001,-58.0896,175,75
2026-05-11 18:06:28.650,3,-0.12,-0.69,0.29,55.5806,-93.7308,13.430399999999999,175,75
2026-05-11 18:06:28.690,3,-0.99,-1.98,0.89,33.5706,-176.96079999999998,26.720399999999998,175,75
2026-05-11 18:06:28.704,3,-0.59,-1.74,0.25,37.7806,-199.1608,25.2604,175,75
2026-05-11 18:06:28.723,3,-0.08,-1.71,-0.12,97.6506,-288.4208,32.7004,175,75
2026-05-11 18:06:28.735,3,-0.75,-1.52,0.09,68.4506,-350.6808,142.8804,175,75
2026-05-11 18:06:28.748,3,-0.71,-0.19,2.42,117.9006,-194.83079999999998,194.5304,175,75
2026-05-11 18:06:28.795,3,0.12,-1.04,2.19,45.6406,-346.5308,108.4304,175,75
2026-05-11 18:06:28.808,3,0.04,-0.09,1.29,54.2406,-106.3508,82.0904,175,75
2026-05-11 18:06:28.850,3,0.47,1.0,1.64,52.4706,167.60920000000002,69.4104,175,75
2026-05-11 18:06:28.850,3,0.48,1.31,2.18,30.9506,259.3792,65.4404,175,75
2026-05-11 18:06:28.850,3,0.5,1.21,2.59,23.0806,220.7192,66.9104,175,75
2026-05-11 18:06:28.860,3,0.3,1.33,2.62,-15.329400000000001,109.9892,53.4304,175,75
2026-05-11 18:06:28.881,3,0.4,1.4,2.25,-67.7694,17.6092,51.050399999999996,175,75
2026-05-11 18:06:28.881,3,0.24,1.57,1.77,-97.0994,-18.1808,34.8904,175,75
2026-05-11 18:06:28.891,3,0.48,1.71,1.57,-119.0494,-2.2707999999999977,16.720399999999998,175,75
2026-05-11 18:06:28.902,3,0.65,1.68,1.56,-127.4694,-38.7308,0.2604000000000002,175,75
2026-05-11 18:06:28.925,3,0.48,1.7,1.47,-128.9894,-65.6808,-1.1396,175,75
2026-05-11 18:06:28.947,3,0.44,1.77,1.51,-140.02939999999998,-134.2208,-0.7195999999999998,175,75
2026-05-11 18:06:28.963,3,0.59,1.81,1.53,-132.89939999999999,-173.24079999999998,0.9304000000000001,175,75
2026-05-11 18:06:28.975,3,0.69,1.79,1.44,-117.5294,-194.58079999999998,-2.4796,175,75
2026-05-11 18:06:28.996,3,0.68,1.7,1.25,-105.2094,-186.05079999999998,-4.6196,175,75
2026-05-11 18:06:28.996,3,0.56,1.58,1.1,-88.9894,-137.2008,-5.8995999999999995,175,75
2026-05-11 18:06:29.011,3,0.39,1.37,1.22,-76.9794,-20.2508,-8.0896,175,75
2026-05-11 18:06:29.027,3,0.26,1.26,1.36,-77.0994,-8.8508,-10.4096,175,75
2026-05-11 18:06:29.046,3,0.09,1.26,1.46,-81.85940000000001,-8.060799999999997,-12.3596,175,75
2026-05-11 18:06:29.046,3,-0.04,1.3,1.5,-89.7894,-11.9008,-12.4796,175,75
2026-05-11 18:06:29.102,3,-0.35,1.04,1.39,-137.58939999999998,-42.8108,-17.8496,175,75
2026-05-11 18:06:29.102,3,-0.48,0.94,1.42,-143.86939999999998,-4.640799999999999,-17.7896,175,75
2026-05-11 18:06:29.126,3,-0.45,0.86,1.64,-136.0694,-1.1107999999999993,-19.7996,175,75
2026-05-11 18:06:29.151,3,-0.53,0.45,2.04,-155.02939999999998,-70.38080000000001,-28.0896,175,75
2026-05-11 18:06:29.173,3,-0.45,0.16,2.2,-140.8194,-81.2908,-33.0296,175,75
2026-05-11 18:06:29.186,3,-0.4,0.17,2.37,-130.7594,-86.2908,-17.3596,175,75
2026-05-11 18:06:29.197,3,-0.41,0.17,2.23,-127.03940000000001,-182.5108,-14.0096,175,75
2026-05-11 18:06:29.208,3,-0.74,0.04,2.37,-98.0194,-93.9708,-47.2996,175,75
2026-05-11 18:06:29.219,3,-4.53,1.35,3.75,134.06060000000002,514.7492,114.5304,175,75
2026-05-11 18:06:29.219,3,1.62,-4.45,4.46,420.82059999999996,125.22919999999999,68.8604,175,75
2026-05-11 18:06:29.230,3,2.78,-6.45,0.85,-214.71939999999998,-1099.2808,107.21039999999999,175,75
2026-05-11 18:06:29.265,3,2.28,1.96,-3.68,-90.2094,225.22920000000002,-116.3296,175,75
2026-05-11 18:06:29.276,3,-0.34,-0.13,-0.18,124.9106,454.4392,109.2804,175,75
2026-05-11 18:06:29.289,3,-0.45,-3.22,2.64,33.5106,361.2092,73.1904,175,75
2026-05-11 18:06:29.318,3,-0.38,-1.39,-0.05,16.430600000000002,-112.7508,25.0204,175,75
2026-05-11 18:06:29.351,3,-0.23,0.25,2.46,108.4506,14.689200000000001,36.1704,175,75
2026-05-11 18:06:29.351,3,-0.41,-0.05,2.16,32.9606,-55.8608,23.6104,175,75
2026-05-11 18:06:29.362,3,-0.63,0.27,1.36,21.980600000000003,-44.0908,11.8504,175,75
2026-05-11 18:06:29.405,3,-0.14,0.19,1.74,-16.3094,-8.550799999999999,3.9804,175,75
2026-05-11 18:06:29.416,3,-0.2,0.16,1.69,-26.9194,-0.5007999999999981,1.1104000000000003,175,75
2026-05-11 18:06:29.425,3,-0.4,0.14,1.62,-33.9894,8.039200000000001,-1.8696,175,75
2026-05-11 18:06:29.440,3,-0.35,0.15,1.7,-42.409400000000005,9.749200000000002,-7.179600000000001,175,75
2026-05-11 18:06:29.446,3,-0.24,0.02,1.57,-54.3594,-0.25079999999999814,-7.3596,175,75
2026-05-11 18:06:29.468,3,-0.25,-0.0,1.48,-54.7194,5.719200000000001,-9.0096,175,75
2026-05-11 18:06:29.480,3,-0.32,-0.08,1.5,-53.0794,10.909200000000002,-17.9696,175,75
2026-05-11 18:06:29.492,3,-0.47,-0.01,1.55,-53.1394,19.0792,-26.9296,175,75
2026-05-11 18:06:29.510,3,-0.44,-0.06,1.68,-78.4394,29.6192,-50.9596,175,75
2026-05-11 18:06:29.537,3,-0.54,-0.09,1.63,-111.1894,52.119200000000006,-72.9696,175,75
2026-05-11 18:06:29.537,3,-0.55,-0.07,1.59,-115.0894,52.729200000000006,-75.4696,175,75
