Time,ID,Ax,Ay,Az,Gx,Gy,Gz,Height,Weight
2026-05-09 16:11:49.818,3,0.17,0.18,1.46,1.684000000000001,0.16800000000000015,1.8130000000000024,175,75
2026-05-09 16:11:49.829,3,0.17,0.18,1.46,0.6440000000000019,-5.442,2.4830000000000005,175,75
2026-05-09 16:11:49.841,3,0.15,0.19,1.44,-0.5159999999999982,-10.741999999999999,5.283000000000001,175,75
2026-05-09 16:11:49.863,3,0.14,0.21,1.44,-0.695999999999998,-13.612,7.6030000000000015,175,75
2026-05-09 16:11:49.876,3,0.13,0.19,1.41,-2.4659999999999975,-14.462,9.733,175,75
2026-05-09 16:11:49.887,3,0.12,0.19,1.38,0.15400000000000347,1.8180000000000005,12.843,175,75
2026-05-09 16:11:49.888,3,0.2,0.18,1.5,1.0740000000000016,-5.071999999999999,16.263,175,75
2026-05-09 16:11:49.916,3,0.13,0.12,1.59,-1.0059999999999985,-27.572,20.833000000000002,175,75
2026-05-09 16:11:49.926,3,0.31,0.04,1.6,2.714000000000002,-40.44199999999999,20.773,175,75
2026-05-09 16:11:49.938,3,0.47,0.08,1.01,15.944000000000003,-44.702,13.513000000000002,175,75
2026-05-09 16:11:49.948,3,0.53,0.14,0.83,35.764,-12.081999999999999,13.093,175,75
2026-05-09 16:11:49.973,3,0.72,0.03,0.67,80.644,64.928,19.123,175,75
2026-05-09 16:11:50.002,3,0.5,-0.63,1.76,115.94399999999999,85.16799999999999,45.653000000000006,175,75
2026-05-09 16:11:50.013,3,0.56,-0.84,1.99,97.164,16.698,59.18300000000001,175,75
2026-05-09 16:11:50.016,3,0.34,-0.79,1.7,76.554,-34.092,64.733,175,75
2026-05-09 16:11:50.047,3,0.05,-0.8,1.29,78.514,19.618,62.60300000000001,175,75
2026-05-09 16:11:50.057,3,-0.38,-0.63,1.34,77.774,88.52799999999999,48.88300000000001,175,75
2026-05-09 16:11:50.070,3,-0.56,-0.42,1.5,85.824,129.138,39.063,175,75
2026-05-09 16:11:50.095,3,-0.91,-0.16,1.85,97.654,177.608,30.403000000000002,175,75
2026-05-09 16:11:50.107,3,-0.93,-0.21,2.23,111.194,167.11800000000002,41.563,175,75
2026-05-09 16:11:50.122,3,-0.81,-0.25,2.34,97.224,121.268,24.673,175,75
2026-05-09 16:11:50.122,3,-0.5,-0.1,2.11,73.574,55.298,10.653000000000002,175,75
2026-05-09 16:11:50.146,3,0.34,0.08,1.49,14.724000000000004,-5.502,1.0730000000000004,175,75
2026-05-09 16:11:50.170,3,0.07,0.39,1.01,-29.665999999999997,28.768,-13.186999999999998,175,75
2026-05-09 16:11:50.195,3,0.22,0.58,0.74,-77.346,10.298,-68.187,175,75
2026-05-09 16:11:50.195,3,0.15,0.77,0.62,-94.116,54.498000000000005,-73.987,175,75
2026-05-09 16:11:50.215,3,0.23,0.67,0.7,-102.586,66.328,-88.737,175,75
2026-05-09 16:11:50.226,3,0.31,0.47,0.82,-116.006,55.598,-114.47699999999999,175,75
2026-05-09 16:11:50.244,3,0.38,0.48,0.82,-131.736,66.02799999999999,-132.647,175,75
2026-05-09 16:11:50.256,3,0.5,0.51,0.85,-143.74599999999998,71.63799999999999,-146.847,175,75
2026-05-09 16:11:50.256,3,0.61,0.58,0.89,-153.746,67.548,-161.607,175,75
2026-05-09 16:11:50.302,3,0.59,0.68,1.13,-171.736,63.52799999999999,-181.297,175,75
2026-05-09 16:11:50.319,3,0.36,0.52,1.04,-171.066,47.117999999999995,-173.007,175,75
2026-05-09 16:11:50.330,3,0.27,0.34,0.93,-155.946,72.368,-168.067,175,75
2026-05-09 16:11:50.352,3,0.25,0.27,0.93,-138.076,88.038,-163.617,175,75
2026-05-09 16:11:50.352,3,0.29,0.34,1.02,-123.196,85.658,-157.767,175,75
2026-05-09 16:11:50.374,3,0.55,0.5,1.35,-107.096,50.598,-125.077,175,75
2026-05-09 16:11:50.400,3,-5.47,3.4,3.0,13.934000000000001,333.588,193.09300000000002,175,75
2026-05-09 16:11:50.411,3,1.52,-0.19,4.37,263.514,-183.00199999999998,15.713000000000005,175,75
2026-05-09 16:11:50.454,3,-4.64,0.69,-1.43,-57.166,431.57800000000003,189.00300000000001,175,75
2026-05-09 16:11:50.484,3,1.22,-3.12,2.68,368.754,292.548,-25.326999999999998,175,75
2026-05-09 16:11:50.552,3,0.18,-1.16,1.6,35.154,-123.302,91.683,175,75
2026-05-09 16:11:50.576,3,0.16,-1.69,1.12,51.554,-130.922,68.093,175,75
2026-05-09 16:11:50.589,3,0.41,-1.34,1.08,51.684,-99.402,60.283,175,75
2026-05-09 16:11:50.599,3,0.61,-0.96,0.95,36.494,-69.032,64.793,175,75
2026-05-09 16:11:50.609,3,0.29,-0.71,0.68,22.354,-54.092,56.74300000000001,175,75
2026-05-09 16:11:50.643,3,-0.36,0.41,1.09,49.604,87.66799999999999,42.543000000000006,175,75
2026-05-09 16:11:50.654,3,-0.47,-0.13,1.35,27.774,35.168000000000006,60.10300000000001,175,75
2026-05-09 16:11:50.689,3,0.94,0.27,0.48,-78.566,-84.342,-51.846999999999994,175,75
2026-05-09 16:11:50.709,3,0.37,0.56,0.24,-78.866,-43.001999999999995,-29.537,175,75
2026-05-09 16:11:50.731,3,0.73,0.3,0.53,-80.816,-18.182000000000002,-70.877,175,75
2026-05-09 16:11:50.742,3,0.65,0.64,0.47,-112.646,9.928,-74.837,175,75
2026-05-09 16:11:50.759,3,0.58,0.47,0.53,-119.90599999999999,9.438,-80.817,175,75
2026-05-09 16:11:50.774,3,0.46,0.31,0.45,-122.836,14.748000000000001,-94.597,175,75
2026-05-09 16:11:50.784,3,0.41,0.13,0.51,-106.736,83.098,-96.907,175,75
2026-05-09 16:11:50.799,3,0.42,0.06,0.64,-101.246,90.968,-93.127,175,75
2026-05-09 16:11:50.955,3,0.38,0.06,0.86,-83.986,99.438,-90.267,175,75
2026-05-09 16:11:50.955,3,-0.26,-0.43,0.82,-72.46600000000001,28.408,-76.727,175,75
2026-05-09 16:11:50.955,3,-0.17,0.02,2.33,-30.336,18.338,-30.877,175,75
2026-05-09 16:11:50.956,3,-0.26,-0.07,1.87,-46.556,-36.782,-6.666999999999998,175,75
2026-05-09 16:11:51.160,3,-0.43,0.44,2.43,30.334000000000003,12.368,23.273,175,75
2026-05-09 16:11:51.161,3,-1.14,1.4,2.78,112.964,64.74799999999999,29.793000000000003,175,75
2026-05-09 16:11:51.161,3,-1.3,1.36,1.99,104.424,11.208,58.333,175,75
2026-05-09 16:11:51.162,3,0.19,-0.63,0.97,84.544,254.618,24.063,175,75
2026-05-09 16:11:51.162,3,0.1,-1.2,3.09,60.884,-8.852,-25.326999999999998,175,75
2026-05-09 16:11:51.162,3,-0.11,0.32,1.02,-7.225999999999997,-77.632,-3.4369999999999976,175,75
2026-05-09 16:11:51.162,3,0.05,-0.31,1.64,-3.445999999999998,7.798,-5.2669999999999995,175,75
2026-05-09 16:11:51.283,3,0.23,-0.67,1.84,-17.645999999999997,-57.141999999999996,-3.497,175,75
2026-05-09 16:11:51.283,3,0.27,-1.5,0.87,-33.135999999999996,-140.072,18.153000000000002,175,75
2026-05-09 16:11:51.283,3,0.27,0.17,-0.3,189.184,183.21800000000002,48.703,175,75
2026-05-09 16:11:51.295,3,0.15,1.33,1.25,178.024,294.438,43.02300000000001,175,75
2026-05-09 16:11:51.323,3,1.96,1.41,2.16,-32.775999999999996,-8.062,-107.03699999999999,175,75
2026-05-09 16:11:52.059,3,-2.8,1.63,1.53,-222.646,110.77799999999999,51.44300000000001,175,75
2026-05-09 16:11:52.059,3,-3.92,0.27,3.94,154.724,322.668,300.953,175,75
2026-05-09 16:11:52.059,3,-6.23,1.94,7.45,514.3639999999999,232.918,340.71299999999997,175,75
2026-05-09 16:11:52.059,3,-4.25,0.89,0.77,-550.5160000000001,-532.3919999999999,165.163,175,75
2026-05-09 16:11:52.059,3,0.48,-1.37,2.1,151.074,172.918,-125.50699999999999,175,75
2026-05-09 16:11:52.059,3,0.76,-1.54,-0.66,71.924,-189.462,33.093,175,75
2026-05-09 16:11:52.059,3,0.7,-1.51,-1.38,125.274,-50.312,69.063,175,75
2026-05-09 16:11:52.059,3,0.53,0.25,1.97,133.144,12.978,101.32300000000001,175,75
2026-05-09 16:11:52.059,3,-0.05,-0.02,0.76,-9.665999999999997,-30.802,-1.786999999999999,175,75
2026-05-09 16:11:52.059,3,-0.41,0.77,1.24,-96.486,-6.292,-80.817,175,75
2026-05-09 16:11:52.060,3,0.44,1.89,0.76,-305.576,-86.592,-220.207,175,75
2026-05-09 16:11:52.060,3,-0.18,1.33,1.53,-281.736,60.598,-294.65700000000004,175,75
2026-05-09 16:11:52.060,3,-4.52,1.31,4.38,-60.696,310.108,-1.786999999999999,175,75
2026-05-09 16:11:52.060,3,1.79,2.51,-3.14,-38.566,140.83800000000002,-141.057,175,75
2026-05-09 16:11:52.060,3,-0.37,1.6,-0.52,202.354,347.428,10.463000000000005,175,75
2026-05-09 16:11:52.060,3,-0.01,-2.02,2.04,160.154,271.44800000000004,18.393000000000004,175,75
2026-05-09 16:11:52.060,3,-0.14,-1.05,2.92,57.653999999999996,115.35799999999999,-72.64699999999999,175,75
2026-05-09 16:11:52.060,3,1.76,0.42,2.15,-29.355999999999998,-149.642,-38.437,175,75
2026-05-09 16:11:52.060,3,0.98,0.51,1.02,-35.275999999999996,-222.94199999999998,64.313,175,75
2026-05-09 16:11:52.060,3,0.52,-0.32,-0.25,-1.855999999999998,-101.172,46.013000000000005,175,75
2026-05-09 16:11:52.062,3,0.87,-0.2,-0.35,65.824,-1.2919999999999998,36.503,175,75
2026-05-09 16:11:52.062,3,1.2,-0.07,0.44,129.794,84.258,52.60300000000001,175,75
2026-05-09 16:11:52.062,3,1.3,-0.13,1.29,170.88400000000001,28.098,75.16300000000001,175,75
2026-05-09 16:11:52.062,3,0.66,-0.18,0.68,165.334,-6.231999999999999,100.893,175,75
2026-05-09 16:11:52.062,3,0.46,-0.34,1.02,217.964,84.988,117.963,175,75
2026-05-09 16:11:52.062,3,0.04,-0.54,1.29,214.91400000000002,114.80799999999999,136.073,175,75
2026-05-09 16:11:52.062,3,-0.27,-0.77,1.32,209.304,121.878,131.073,175,75
2026-05-09 16:11:52.179,3,-0.7,-0.32,1.46,153.38400000000001,170.298,-32.157,175,75
2026-05-09 16:11:52.179,3,-0.52,0.06,0.76,-51.006,29.868,-85.567,175,75
2026-05-09 16:11:52.264,3,0.3,0.32,1.28,-233.86599999999999,-110.50200000000001,-171.487,175,75
2026-05-09 16:11:52.264,3,0.46,0.29,0.66,-323.56600000000003,-131.172,-148.377,175,75
2026-05-09 16:11:52.293,3,1.02,0.08,0.84,-328.746,7.668000000000001,-211.90699999999998,175,75
2026-05-09 16:11:52.426,3,-3.93,1.87,2.53,-89.476,502.668,14.492999999999999,175,75
2026-05-09 16:11:52.426,3,0.9,0.53,4.21,141.014,332.728,-73.867,175,75
2026-05-09 16:11:52.426,3,-4.55,2.56,3.38,1.434000000000001,180.538,152.603,175,75
2026-05-09 16:11:52.794,3,-2.29,1.56,4.36,349.544,218.828,125.523,175,75
2026-05-09 16:11:52.794,3,2.63,-2.22,0.63,-86.736,-694.462,216.263,175,75
2026-05-09 16:11:52.794,3,-5.54,0.07,-1.73,-286.366,-60.312,309.433,175,75
2026-05-09 16:11:52.794,3,-0.61,-0.03,-1.75,-1.0659999999999972,391.57800000000003,43.21300000000001,175,75
2026-05-09 16:11:52.794,3,0.9,-0.47,2.16,120.584,389.618,86.563,175,75
2026-05-09 16:11:52.795,3,-0.55,-0.18,1.14,69.124,15.228000000000002,26.933000000000003,175,75
2026-05-09 16:11:52.795,3,-0.39,-0.37,1.74,50.824,32.548,-18.796999999999997,175,75
2026-05-09 16:11:52.795,3,-0.19,-0.38,1.8,28.574000000000005,-6.052,-22.397,175,75
2026-05-09 16:11:52.795,3,-0.03,-0.6,1.0,0.7640000000000029,-50.922,-31.177,175,75
2026-05-09 16:11:52.795,3,0.09,-0.68,0.71,6.924000000000003,-25.682,-33.437,175,75
2026-05-09 16:11:52.795,3,1.0,-0.6,0.69,26.804000000000002,-57.94199999999999,1.5030000000000001,175,75
2026-05-09 16:11:52.795,3,0.96,-0.57,0.34,26.134,-94.64200000000001,9.922999999999998,175,75
2026-05-09 16:11:52.796,3,0.85,-0.45,0.0,36.864000000000004,-95.50200000000001,14.853000000000005,175,75
2026-05-09 16:11:52.796,3,0.64,-0.24,-0.2,70.274,-44.772000000000006,28.023,175,75
2026-05-09 16:11:52.796,3,0.36,-0.15,0.25,142.534,83.828,46.32300000000001,175,75
2026-05-09 16:11:52.796,3,0.49,-0.21,0.57,180.034,143.768,50.223,175,75
2026-05-09 16:11:52.796,3,0.46,-0.12,0.83,211.074,175.77800000000002,53.63300000000001,175,75
2026-05-09 16:11:52.796,3,0.38,0.09,1.17,238.934,205.108,67.423,175,75
2026-05-09 16:11:52.796,3,0.49,0.14,1.42,228.024,196.638,87.173,175,75
2026-05-09 16:11:52.796,3,0.52,0.42,1.61,168.934,94.688,95.10300000000001,175,75
2026-05-09 16:11:52.796,3,0.5,0.42,1.62,148.934,52.668000000000006,102.233,175,75
2026-05-09 16:11:52.796,3,0.23,0.34,1.54,123.51400000000001,-25.982,101.813,175,75
2026-05-09 16:11:52.796,3,-0.16,0.4,1.28,113.57400000000001,-34.462,101.263,175,75
2026-05-09 16:11:52.834,3,-0.06,0.91,1.1,-46.616,-3.242,-6.786999999999999,175,75
2026-05-09 16:11:52.844,3,-0.23,0.9,1.06,-76.556,-33.422,-29.836999999999996,175,75
2026-05-09 16:11:52.854,3,-0.06,0.68,0.71,-170.206,-59.581999999999994,-113.55699999999999,175,75
2026-05-09 16:11:52.866,3,0.06,0.54,0.9,-201.796,-104.342,-163.43699999999998,175,75
2026-05-09 16:11:52.878,3,0.05,0.47,0.93,-238.256,-125.682,-207.097,175,75
2026-05-09 16:11:52.889,3,-0.29,0.68,1.04,-255.146,-73.242,-233.987,175,75
2026-05-09 16:11:52.899,3,-2.32,1.23,1.31,-233.016,111.328,-170.017,175,75
2026-05-09 16:11:52.899,3,-2.8,1.32,2.2,-189.056,224.37800000000001,-88.25699999999999,175,75
2026-05-09 16:11:52.928,3,-0.5,-2.53,7.74,376.98400000000004,135.598,-22.517,175,75
2026-05-09 16:11:52.952,3,3.05,1.85,2.53,-280.51599999999996,-507.202,-47.647,175,75
2026-05-09 16:11:52.978,3,0.01,1.57,-1.75,-173.686,-49.772000000000006,-84.407,175,75
2026-05-09 16:11:52.989,3,0.57,0.39,-0.51,11.014000000000003,51.757999999999996,-19.476999999999997,175,75
2026-05-09 16:11:53.001,3,0.05,-0.39,0.41,-0.945999999999998,153.21800000000002,-39.227,175,75
2026-05-09 16:11:53.014,3,0.57,-0.87,1.41,11.744000000000003,201.87800000000001,-36.607,175,75
2026-05-09 16:11:53.029,3,0.49,-0.82,1.96,9.664000000000001,88.588,-41.727,175,75
2026-05-09 16:11:53.039,3,0.67,-0.26,1.68,-17.956,-21.472,-39.346999999999994,175,75
2026-05-09 16:11:53.065,3,0.59,-0.14,0.47,-24.535999999999998,-79.522,7.293000000000003,175,75
2026-05-09 16:11:53.065,3,0.62,-0.16,-0.04,16.984,-6.351999999999999,12.723000000000003,175,75
2026-05-09 16:11:53.080,3,0.75,-0.17,0.26,66.374,66.938,23.393000000000004,175,75
2026-05-09 16:11:53.090,3,1.02,-0.21,0.8,90.274,62.24799999999999,33.57300000000001,175,75
2026-05-09 16:11:53.102,3,1.1,-0.24,1.01,102.224,35.168000000000006,45.223,175,75
2026-05-09 16:11:53.102,3,1.04,-0.24,0.98,129.124,29.438,52.903000000000006,175,75
2026-05-09 16:11:53.115,3,1.01,-0.21,0.93,150.704,42.488,60.223,175,75
2026-05-09 16:11:53.130,3,0.65,-0.1,0.83,169.66400000000002,60.908,80.403,175,75
2026-05-09 16:11:53.162,3,0.17,-0.15,0.93,186.194,116.878,92.66300000000001,175,75
2026-05-09 16:11:53.190,3,-0.36,-0.4,1.45,190.644,150.418,102.423,175,75
2026-05-09 16:11:53.201,3,-0.38,-0.34,1.46,175.704,113.948,76.263,175,75
2026-05-09 16:11:53.214,3,-0.52,-0.18,1.33,154.604,102.66799999999999,64.063,175,75
2026-05-09 16:11:53.225,3,-0.51,-0.15,1.18,130.154,98.52799999999999,54.373000000000005,175,75
2026-05-09 16:11:53.226,3,-0.4,-0.2,1.05,103.444,68.768,25.163,175,75
2026-05-09 16:11:53.276,3,-0.35,0.06,0.83,24.364000000000004,114.438,-47.887,175,75
2026-05-09 16:11:53.305,3,-0.27,0.17,1.19,-79.96600000000001,41.44799999999999,-121.297,175,75
2026-05-09 16:11:53.316,3,-0.16,0.19,1.23,-120.636,-4.032,-134.837,175,75
2026-05-09 16:11:53.329,3,-0.15,0.18,1.14,-157.346,-31.532,-143.797,175,75
2026-05-09 16:11:53.337,3,-0.07,0.19,1.1,-187.776,-46.232,-156.90699999999998,175,75
2026-05-09 16:11:53.337,3,0.01,0.21,1.16,-210.206,-61.532,-164.65699999999998,175,75
2026-05-09 16:11:53.361,3,0.12,0.22,1.19,-232.166,-87.452,-170.017,175,75
2026-05-09 16:11:53.384,3,0.36,0.14,0.87,-272.406,-88.672,-156.427,175,75
2026-05-09 16:11:53.408,3,0.42,-0.2,0.75,-277.52599999999995,-50.80200000000001,-150.937,175,75
2026-05-09 16:11:53.430,3,0.67,-0.41,0.69,-249.846,-10.382,-196.847,175,75
2026-05-09 16:11:53.441,3,-0.3,0.91,1.44,-203.926,178.098,-126.36699999999999,175,75
2026-05-09 16:11:53.445,3,-0.58,1.29,1.74,-134.236,243.64800000000002,-82.217,175,75
2026-05-09 16:11:53.462,3,0.57,1.04,3.02,-36.306,20.538,-44.346999999999994,175,75
2026-05-09 16:11:53.488,3,-2.65,1.56,3.5,265.644,290.838,123.57300000000001,175,75
2026-05-09 16:11:53.505,3,1.62,-1.23,2.99,288.264,-86.232,72.66300000000001,175,75
2026-05-09 16:11:53.514,3,1.02,-2.09,0.77,-62.836,-487.202,136.87300000000002,175,75
2026-05-09 16:11:53.529,3,-3.71,-0.06,-0.69,-172.646,35.227999999999994,202.84300000000002,175,75
2026-05-09 16:11:53.541,3,1.11,-0.65,-0.27,156.254,75.478,20.463000000000005,175,75
2026-05-09 16:11:53.549,3,1.06,-0.9,1.34,177.774,-12.142,18.453,175,75
2026-05-09 16:11:53.557,3,0.68,0.07,1.28,92.104,140.108,119.983,175,75
2026-05-09 16:11:53.569,3,0.28,-0.46,1.72,125.76400000000001,111.38799999999999,85.653,175,75
2026-05-09 16:11:53.576,3,-0.1,-0.88,2.01,123.084,62.66799999999999,57.783,175,75
2026-05-09 16:11:53.588,3,-0.21,-0.35,1.8,71.684,25.108,43.393,175,75
2026-05-09 16:11:53.617,3,-0.6,0.24,1.46,62.164,35.778000000000006,41.38300000000001,175,75
2026-05-09 16:11:53.628,3,-0.62,0.24,1.62,46.804,37.05800000000001,32.173,175,75
2026-05-09 16:11:53.639,3,-0.52,0.18,1.87,1.3740000000000023,-13.612,-0.3869999999999969,175,75
2026-05-09 16:11:53.659,3,-0.41,0.12,1.73,-18.316,-45.312,-10.206999999999999,175,75
2026-05-09 16:11:53.659,3,-0.35,-0.08,1.54,-30.635999999999996,-56.962,-14.536999999999999,175,75
2026-05-09 16:11:53.670,3,-0.25,-0.37,1.37,-38.016,-58.361999999999995,-20.386999999999997,175,75
2026-05-09 16:11:53.681,3,-0.09,-0.62,1.3,-38.68599999999999,-51.962,-26.846999999999998,175,75
2026-05-09 16:11:53.718,3,0.33,-0.85,1.04,-32.346,-37.94199999999999,-36.427,175,75
2026-05-09 16:11:53.730,3,0.42,-0.88,0.89,-23.136,-14.642,-34.167,175,75
2026-05-09 16:11:53.742,3,0.64,-0.81,0.78,-7.165999999999999,9.748000000000001,-40.997,175,75
2026-05-09 16:11:53.742,3,0.72,-0.7,0.74,5.274000000000001,32.367999999999995,-30.147,175,75
2026-05-09 16:11:53.765,3,0.74,-0.62,0.71,20.704,22.798000000000002,-23.186999999999998,175,75
2026-05-09 16:11:53.765,3,0.92,-0.5,0.52,24.854,-3.792,-15.816999999999998,175,75
2026-05-09 16:11:53.789,3,1.01,-0.47,0.14,31.374000000000002,-32.022,7.783000000000001,175,75
2026-05-09 16:11:53.801,3,0.72,-0.34,-0.13,51.134,-5.382,21.683000000000003,175,75
2026-05-09 16:11:53.822,3,0.17,0.19,0.9,158.204,154.55800000000002,81.99300000000001,175,75
2026-05-09 16:11:53.835,3,0.09,0.09,1.39,202.16400000000002,161.08800000000002,97.483,175,75
2026-05-09 16:11:53.847,3,0.13,0.06,1.78,206.924,150.538,109.673,175,75
2026-05-09 16:11:53.857,3,0.09,0.07,1.97,182.774,115.908,121.38300000000001,175,75
2026-05-09 16:11:53.895,3,-0.1,0.37,1.32,120.82400000000001,-21.962,94.003,175,75
2026-05-09 16:11:53.908,3,0.16,0.31,1.22,106.31400000000001,-64.772,63.82300000000001,175,75
2026-05-09 16:11:53.920,3,0.24,0.51,0.94,89.974,-65.502,41.74300000000001,175,75
2026-05-09 16:11:53.932,3,0.22,0.86,0.66,69.124,-26.472,39.983000000000004,175,75
2026-05-09 16:11:53.942,3,0.27,1.06,0.67,52.474000000000004,-4.032,40.343,175,75
2026-05-09 16:11:53.954,3,0.4,1.07,0.78,26.194000000000003,-33.792,26.993,175,75
2026-05-09 16:11:53.969,3,0.49,1.07,0.78,-5.695999999999998,-67.33200000000001,5.893000000000001,175,75
2026-05-09 16:11:53.978,3,0.37,1.0,0.62,-37.586,-66.72200000000001,-25.936999999999998,175,75
2026-05-09 16:11:54.010,3,0.07,1.13,0.44,-142.836,-108.302,-172.577,175,75
2026-05-09 16:11:54.033,3,-0.02,1.19,0.66,-173.376,-17.201999999999998,-202.887,175,75
2026-05-09 16:11:54.056,3,-2.59,1.69,2.9,-31.796,321.26800000000003,-56.236999999999995,175,75
2026-05-09 16:11:54.056,3,-6.63,2.32,5.88,165.584,524.808,90.403,175,75
2026-05-09 16:11:54.078,3,0.99,-4.34,6.09,225.824,-1166.722,-408.497,175,75
2026-05-09 16:11:54.089,3,0.69,0.53,-0.9,-622.706,-804.092,123.09300000000002,175,75
2026-05-09 16:11:54.099,3,-4.89,3.0,-0.99,-640.0260000000001,471.38800000000003,-51.547,175,75
2026-05-09 16:11:54.105,3,2.59,0.63,-1.16,-82.286,126.38799999999999,-255.207,175,75
2026-05-09 16:11:54.114,3,2.34,-1.04,-0.11,116.744,-259.772,6.263000000000002,175,75
2026-05-09 16:11:54.124,3,-1.46,-0.77,-0.14,50.09400000000001,254.498,43.02300000000001,175,75
2026-05-09 16:11:54.139,3,0.3,-0.63,1.33,46.804,319.498,-85.267,175,75
2026-05-09 16:11:54.159,3,1.44,-0.18,2.42,-53.806,-13.062,-9.346999999999998,175,75
2026-05-09 16:11:54.174,3,0.49,-0.21,1.31,-61.486,-121.47200000000001,-19.406999999999996,175,75
2026-05-09 16:11:54.183,3,1.06,-0.18,0.46,-13.805999999999997,-96.052,-5.506999999999998,175,75
2026-05-09 16:11:54.192,3,0.89,-0.46,0.09,16.924,-63.492000000000004,22.113000000000003,175,75
2026-05-09 16:11:54.223,3,1.04,-0.27,0.58,78.384,97.368,21.993,175,75
2026-05-09 16:11:54.225,3,0.94,-0.28,1.06,98.934,39.928,44.49300000000001,175,75
2026-05-09 16:11:54.240,3,0.85,-0.25,0.98,121.804,6.268000000000001,57.173,175,75
2026-05-09 16:11:54.254,3,0.61,-0.25,0.72,138.754,23.468,75.593,175,75
2026-05-09 16:11:54.266,3,0.49,-0.27,0.68,162.224,62.428,83.57300000000001,175,75
2026-05-09 16:11:54.279,3,0.3,-0.27,0.81,176.804,106.448,93.02300000000001,175,75
2026-05-09 16:11:54.289,3,0.01,-0.34,1.11,185.88400000000001,161.328,111.87300000000002,175,75
2026-05-09 16:11:54.296,3,-0.25,-0.43,1.39,186.074,182.858,124.12300000000002,175,75
2026-05-09 16:11:54.308,3,-0.38,-0.43,1.5,182.044,166.638,119.493,175,75
2026-05-09 16:11:54.318,3,-0.47,-0.34,1.52,169.424,126.26799999999999,99.063,175,75
2026-05-09 16:11:54.329,3,-0.53,-0.24,1.42,156.494,106.818,87.60300000000001,175,75
2026-05-09 16:11:54.351,3,-0.58,-0.19,1.25,139.124,104.688,74.433,175,75
2026-05-09 16:11:54.399,3,-0.16,0.21,1.01,22.654000000000003,98.88799999999999,-39.407,175,75
2026-05-09 16:11:54.411,3,-0.09,0.22,1.04,-3.0159999999999982,59.498000000000005,-74.89699999999999,175,75
2026-05-09 16:11:54.423,3,-0.08,0.41,0.99,-48.016,39.498000000000005,-102.707,175,75
2026-05-09 16:11:54.439,3,0.06,0.45,1.08,-84.90599999999999,3.9480000000000004,-113.92699999999999,175,75
2026-05-09 16:11:54.509,3,0.47,0.34,0.77,-250.756,-107.452,-171.667,175,75
2026-05-09 16:11:54.515,3,0.56,0.32,0.66,-268.256,-79.952,-164.047,175,75
2026-05-09 16:11:54.529,3,0.67,0.16,0.62,-286.736,-50.072,-163.49699999999999,175,75
2026-05-09 16:11:54.540,3,0.78,-0.04,0.75,-292.40599999999995,-57.632000000000005,-175.267,175,75
2026-05-09 16:11:54.551,3,0.63,-0.04,1.0,-295.876,-45.251999999999995,-182.767,175,75
2026-05-09 16:11:54.551,3,-0.4,0.51,1.45,-292.03599999999994,57.367999999999995,-119.407,175,75
2026-05-09 16:11:54.604,3,-2.97,2.12,4.07,70.404,140.83800000000002,120.893,175,75
2026-05-09 16:11:54.614,3,0.87,0.23,4.28,312.96400000000006,23.888,26.323000000000004,175,75
2026-05-09 16:11:54.620,3,4.07,-1.51,2.56,91.744,-381.23199999999997,51.32300000000001,175,75
2026-05-09 16:11:54.643,3,-3.05,0.18,-0.43,-184.846,-379.032,198.333,175,75
2026-05-09 16:11:54.667,3,0.95,-0.91,0.33,213.874,26.638,27.543000000000003,175,75
2026-05-09 16:11:54.680,3,0.13,-0.3,1.94,91.074,111.02799999999999,63.393,175,75
2026-05-09 16:11:54.686,3,0.16,-0.49,2.23,85.274,1.5180000000000002,37.663,175,75
2026-05-09 16:11:54.699,3,-0.18,-0.25,1.64,38.634,-51.962,51.44300000000001,175,75
2026-05-09 16:11:54.709,3,-0.38,-0.29,1.19,37.594,-40.622,39.733000000000004,175,75
2026-05-09 16:11:54.731,3,-0.41,-0.22,1.08,47.774,2.918,26.563,175,75
2026-05-09 16:11:54.744,3,-0.25,0.08,1.58,43.874,32.05800000000001,11.742999999999999,175,75
2026-05-09 16:11:54.744,3,-0.28,0.09,1.71,30.094,21.208000000000002,7.543000000000003,175,75
2026-05-09 16:11:54.767,3,-0.35,0.12,1.78,10.154000000000003,0.7780000000000005,-2.2169999999999987,175,75
2026-05-09 16:11:54.779,3,-0.18,0.04,1.57,-23.075999999999997,-44.522000000000006,-15.206999999999999,175,75
2026-05-09 16:11:54.784,3,-0.21,-0.05,1.39,-34.476,-42.751999999999995,-16.846999999999998,175,75
2026-05-09 16:11:54.799,3,-0.16,-0.15,1.3,-39.596,-38.361999999999995,-22.517,175,75
2026-05-09 16:11:54.809,3,-0.06,-0.29,1.2,-43.566,-40.861999999999995,-27.096999999999998,175,75
2026-05-09 16:11:54.821,3,0.06,-0.41,1.08,-41.556,-40.072,-30.017,175,75
2026-05-09 16:11:54.857,3,0.38,-0.3,1.0,-33.986,-33.732,-21.726999999999997,175,75
2026-05-09 16:11:54.878,3,0.46,-0.19,0.95,-30.756,-38.792,-14.656999999999998,175,75
2026-05-09 16:11:54.889,3,0.45,-0.11,0.88,-27.895999999999997,-45.44199999999999,-7.216999999999999,175,75
2026-05-09 16:11:54.902,3,0.36,-0.02,0.74,-16.555999999999997,-47.812,0.16300000000000026,175,75
2026-05-09 16:11:54.904,3,0.51,0.05,0.62,-1.735999999999997,-49.032,12.353000000000005,175,75
2026-05-09 16:11:54.921,3,0.62,0.07,0.52,10.824000000000002,-45.132000000000005,30.893000000000004,175,75
2026-05-09 16:11:54.932,3,0.65,0.04,0.47,30.154000000000003,-29.282,47.233000000000004,175,75
2026-05-09 16:11:54.944,3,0.61,0.06,0.55,58.384,1.4480000000000004,68.763,175,75
2026-05-09 16:11:54.954,3,0.43,0.07,0.8,86.624,37.918000000000006,96.32300000000001,175,75
2026-05-09 16:11:54.966,3,0.39,0.11,1.1,102.59400000000001,60.048,120.22300000000001,175,75
2026-05-09 16:11:54.972,3,0.32,0.28,1.23,108.754,38.218,147.353,175,75
2026-05-09 16:11:54.997,3,-0.13,0.27,1.45,90.70400000000001,3.468,223.943,175,75
2026-05-09 16:11:55.009,3,-0.36,0.01,1.49,73.574,-8.422,236.87300000000002,175,75
2026-05-09 16:11:55.022,3,-0.57,-0.21,1.51,51.554,-34.702,228.09300000000002,175,75
2026-05-09 16:11:55.034,3,-0.5,-0.21,1.32,27.904000000000003,-88.00200000000001,188.763,175,75
2026-05-09 16:11:55.045,3,-0.51,0.02,1.07,18.634,-106.962,172.483,175,75
2026-05-09 16:11:55.077,3,0.41,0.46,0.42,-79.29599999999999,-136.962,88.333,175,75
2026-05-09 16:11:55.100,3,0.8,0.87,0.66,-152.646,-153.242,7.113000000000003,175,75
2026-05-09 16:11:55.114,3,0.32,0.94,0.18,-242.286,-140.62199999999999,-73.187,175,75
2026-05-09 16:11:55.139,3,-2.48,1.82,1.81,-180.026,268.098,24.733,175,75
2026-05-09 16:11:55.162,3,-4.22,0.44,5.18,4.304000000000002,135.65800000000002,158.213,175,75
2026-05-09 16:11:55.175,3,-1.16,-1.98,6.44,116.19399999999999,-39.581999999999994,44.85300000000001,175,75
2026-05-09 16:11:55.187,3,0.99,-2.49,5.79,1.554000000000002,-662.632,-241.487,175,75
2026-05-09 16:11:55.197,3,4.15,0.35,3.32,-325.14599999999996,-800.442,-79.717,175,75
2026-05-09 16:11:55.220,3,2.42,-0.06,-0.69,-9.905999999999999,-92.69200000000001,-87.217,175,75
2026-05-09 16:11:55.238,3,0.62,-0.4,-0.83,-67.346,-17.881999999999998,2.293000000000003,175,75
2026-05-09 16:11:55.250,3,-0.39,-0.15,-0.01,17.774,307.608,-77.64699999999999,175,75
2026-05-09 16:11:55.279,3,0.05,-0.34,1.93,-26.915999999999997,66.99799999999999,-15.506999999999998,175,75
2026-05-09 16:11:55.287,3,0.38,-0.08,1.83,-43.446,-15.982,-7.576999999999998,175,75
2026-05-09 16:11:55.320,3,0.36,-0.0,0.71,-44.536,-173.242,35.283,175,75
2026-05-09 16:11:55.320,3,0.22,-0.15,0.3,-20.086,-112.812,43.453,175,75
2026-05-09 16:11:55.365,3,0.62,-0.0,1.03,61.804,-24.222,79.923,175,75
2026-05-09 16:11:55.383,3,0.38,0.02,0.93,94.424,4.138,102.543,175,75
2026-05-09 16:11:55.393,3,0.1,-0.11,0.92,101.494,43.888000000000005,114.673,175,75
2026-05-09 16:11:55.408,3,-0.02,-0.25,1.07,104.604,65.538,110.22300000000001,175,75
2026-05-09 16:11:55.414,3,-0.13,-0.23,1.15,101.434,72.188,101.623,175,75
2026-05-09 16:11:55.436,3,-0.41,-0.03,1.4,84.424,99.868,100.16300000000001,175,75
2026-05-09 16:11:55.453,3,-0.48,-0.03,1.57,78.20400000000001,93.648,95.223,175,75
2026-05-09 16:11:55.531,3,-0.38,0.48,1.14,-66.006,0.29800000000000004,-13.986999999999998,175,75
2026-05-09 16:11:55.546,3,-0.22,0.31,1.24,-87.646,-26.291999999999998,-33.617,175,75
2026-05-09 16:11:55.563,3,-0.17,0.23,1.3,-107.706,-66.962,-65.507,175,75
2026-05-09 16:11:55.590,3,0.06,0.29,1.15,-174.536,-137.392,-105.997,175,75
2026-05-09 16:11:55.600,3,0.17,0.26,1.07,-190.576,-148.672,-118.187,175,75
2026-05-09 16:11:55.611,3,0.28,0.25,1.02,-201.856,-153.422,-126.847,175,75
2026-05-09 16:11:55.627,3,0.47,0.25,0.99,-213.016,-159.892,-128.437,175,75
2026-05-09 16:11:55.639,3,0.54,0.08,0.67,-232.096,-184.772,-109.657,175,75
2026-05-09 16:11:55.673,3,-0.2,0.57,1.25,-185.33599999999998,34.138000000000005,-56.057,175,75
2026-05-09 16:11:55.682,3,-1.96,1.31,2.05,-75.146,207.798,46.13300000000001,175,75
2026-05-09 16:11:55.709,3,1.23,-0.56,3.49,115.404,-155.802,-27.647,175,75
2026-05-09 16:11:55.719,3,-0.77,1.33,2.24,33.814,-90.25200000000001,87.173,175,75
2026-05-09 16:11:55.744,3,0.64,-0.42,-0.49,-82.706,-369.032,74.673,175,75
2026-05-09 16:11:55.744,3,-2.45,0.17,-1.05,-55.146,-15.741999999999999,105.833,175,75
2026-05-09 16:11:55.764,3,0.64,-1.27,0.49,143.324,43.528000000000006,51.013000000000005,175,75
2026-05-09 16:11:55.775,3,-0.09,-1.23,1.15,73.264,67.798,50.16300000000001,175,75
2026-05-09 16:11:55.775,3,0.27,-0.38,1.44,78.514,117.30799999999999,28.823000000000004,175,75
2026-05-09 16:11:55.788,3,0.66,-0.42,1.75,83.694,68.158,28.333000000000002,175,75
2026-05-09 16:11:55.812,3,-0.03,-0.24,1.27,46.864000000000004,-1.2919999999999998,50.223,175,75
2026-05-09 16:11:55.821,3,-0.42,-0.24,1.06,55.884,30.108,37.723,175,75
2026-05-09 16:11:55.827,3,-0.33,-0.37,1.4,57.903999999999996,67.488,30.953,175,75
2026-05-09 16:11:55.865,3,-0.4,-0.03,1.84,9.854000000000003,-7.271999999999999,9.433000000000003,175,75
2026-05-09 16:11:55.877,3,-0.27,-0.04,1.68,-10.145999999999997,-40.19199999999999,-3.7369999999999983,175,75
2026-05-09 16:11:55.890,3,-0.32,-0.02,1.46,-21.616,-40.382000000000005,-10.686999999999998,175,75
2026-05-09 16:11:55.890,3,-0.31,-0.04,1.37,-26.555999999999997,-30.802,-19.836999999999996,175,75
2026-05-09 16:11:55.915,3,-0.19,-0.14,1.31,-29.665999999999997,-21.842,-32.217,175,75
2026-05-09 16:11:55.932,3,-0.11,-0.41,1.19,-30.275999999999996,-1.6619999999999997,-49.897,175,75
2026-05-09 16:11:55.943,3,0.07,-0.46,1.22,-31.366,4.138,-52.337,175,75
2026-05-09 16:11:55.970,3,0.46,-0.45,1.36,-37.706,-3.792,-46.236999999999995,175,75
2026-05-09 16:11:55.981,3,0.63,-0.33,1.33,-40.816,-22.201999999999998,-44.537,175,75
2026-05-09 16:11:55.992,3,0.64,-0.24,1.2,-43.745999999999995,-34.221999999999994,-37.647,175,75
2026-05-09 16:11:56.006,3,0.55,-0.21,0.88,-43.986,-39.342,-34.537,175,75
2026-05-09 16:11:56.020,3,0.52,-0.03,0.57,-31.735999999999997,-15.802,-37.457,175,75
2026-05-09 16:11:56.027,3,0.68,0.21,0.5,-4.725999999999997,11.448,-21.427,175,75
2026-05-09 16:11:56.039,3,0.9,0.21,0.53,22.104,-9.832,9.183000000000003,175,75
2026-05-09 16:11:56.044,3,0.72,0.14,0.47,44.484,-14.282,43.57300000000001,175,75
2026-05-09 16:11:56.070,3,-0.05,0.15,0.91,132.654,111.448,111.32300000000001,175,75
2026-05-09 16:11:56.106,3,-0.37,-0.03,1.81,174.91400000000002,24.078,158.703,175,75
2026-05-09 16:11:56.106,3,-0.34,0.26,1.89,168.63400000000001,13.528,190.403,175,75
2026-05-09 16:11:56.133,3,-0.55,0.26,2.18,127.964,-62.081999999999994,219.853,175,75
2026-05-09 16:11:56.150,3,-0.37,0.18,1.89,109.724,-159.16199999999998,179.733,175,75
2026-05-09 16:11:56.156,3,0.06,0.25,1.18,84.184,-203.552,117.113,175,75
2026-05-09 16:11:56.181,3,0.45,0.63,0.56,60.334,-182.512,97.293,175,75
2026-05-09 16:11:56.181,3,0.7,1.04,0.29,42.964,-172.142,73.153,175,75
2026-05-09 16:11:56.200,3,0.8,1.24,0.25,35.944,-143.552,32.113,175,75
2026-05-09 16:11:56.226,3,0.25,1.2,0.05,-111.79599999999999,40.538,-128.557,175,75
2026-05-09 16:11:56.242,3,-2.1,1.92,1.26,-67.036,279.558,-102.94699999999999,175,75
2026-05-09 16:11:56.276,3,-3.75,-0.79,6.92,342.774,461.088,217.78300000000002,175,75
2026-05-09 16:11:56.300,3,1.48,-5.71,5.66,265.58399999999995,-790.562,-261.177,175,75
2026-05-09 16:11:56.300,3,-0.44,-0.4,-0.33,-536.006,-542.692,-121.237,175,75
2026-05-09 16:11:56.312,3,-2.05,1.81,-0.53,-523.626,294.378,24.433000000000003,175,75
2026-05-09 16:11:56.327,3,3.02,-0.33,-0.64,-25.455999999999996,-116.292,-104.717,175,75
2026-05-09 16:11:56.327,3,0.04,-1.32,0.27,91.494,-189.402,-7.576999999999998,175,75
2026-05-09 16:11:56.356,3,0.21,-0.62,1.06,-67.226,223.708,-73.127,175,75
2026-05-09 16:11:56.364,3,0.43,-0.16,1.48,-72.346,-53.492000000000004,-44.047,175,75
2026-05-09 16:11:56.388,3,0.43,-0.1,0.88,-76.73599999999999,-1.2919999999999998,-61.297,175,75
2026-05-09 16:11:56.388,3,0.67,-0.05,0.74,-56.245999999999995,18.468,-47.827,175,75
2026-05-09 16:11:56.406,3,0.33,0.38,0.73,-43.135999999999996,47.05800000000001,-36.547,175,75
2026-05-09 16:11:56.430,3,0.48,0.07,0.67,13.444000000000003,69.55799999999999,-7.7669999999999995,175,75
2026-05-09 16:11:56.449,3,0.61,-0.02,1.48,35.884,67.118,11.933000000000003,175,75
2026-05-09 16:11:56.456,3,0.68,0.02,1.62,37.354,21.088,31.013,175,75
2026-05-09 16:11:56.468,3,0.59,0.06,1.48,40.824000000000005,-14.402,50.223,175,75
2026-05-09 16:11:56.468,3,0.5,0.07,1.27,48.694,-32.452,57.96300000000001,175,75
2026-05-09 16:11:56.500,3,0.49,0.03,0.75,70.70400000000001,-20.442,76.623,175,75
2026-05-09 16:11:56.511,3,0.49,-0.03,0.61,84.48400000000001,15.108,84.313,175,75
2026-05-09 16:11:56.522,3,0.49,-0.09,0.62,98.264,60.418000000000006,93.27300000000001,175,75
2026-05-09 16:11:56.532,3,0.36,-0.1,0.79,108.514,91.448,102.843,175,75
2026-05-09 16:11:56.544,3,0.07,-0.21,1.01,116.13400000000001,130.96800000000002,114.673,175,75
2026-05-09 16:11:56.556,3,-0.22,-0.31,1.24,122.29400000000001,167.30800000000002,115.28300000000002,175,75
2026-05-09 16:11:56.621,3,-0.7,0.04,1.57,63.20400000000001,81.99799999999999,41.74300000000001,175,75
2026-05-09 16:11:56.621,3,-0.8,0.17,1.36,43.024,73.158,47.293000000000006,175,75
2026-05-09 16:11:56.629,3,-0.82,0.19,1.26,31.744,65.16799999999999,24.243,175,75
2026-05-09 16:11:56.633,3,-0.68,0.26,1.33,17.354,47.548,-7.456999999999997,175,75
2026-05-09 16:11:56.643,3,-0.4,0.37,1.36,-9.535999999999998,6.698,-34.957,175,75
2026-05-09 16:11:56.665,3,-0.2,0.65,1.17,-68.92599999999999,-57.812,-61.727000000000004,175,75
2026-05-09 16:11:56.696,3,0.06,0.45,1.04,-123.316,-123.852,-100.207,175,75
2026-05-09 16:11:56.696,3,0.08,0.5,0.91,-156.066,-117.202,-120.077,175,75
2026-05-09 16:11:56.761,3,0.46,0.04,0.76,-224.726,-79.032,-133.557,175,75
2026-05-09 16:11:56.776,3,0.76,-0.2,0.84,-228.016,-65.442,-145.997,175,75
2026-05-09 16:11:56.795,3,0.47,0.32,1.25,-214.786,-30.442,-120.017,175,75
2026-05-09 16:11:56.810,3,-2.27,1.53,2.04,-138.74599999999998,181.818,40.10300000000001,175,75
2026-05-09 16:11:56.823,3,-0.2,0.53,2.91,46.744,70.77799999999999,22.603000000000005,175,75
2026-05-09 16:11:56.831,3,-1.27,0.93,3.49,111.554,33.218,49.18300000000001,175,75
2026-05-09 16:11:56.861,3,-3.15,0.34,-1.24,-158.136,-124.402,156.443,175,75
2026-05-09 16:11:56.877,3,0.75,-1.61,0.43,164.91400000000002,12.428,18.943,175,75
2026-05-09 16:11:56.892,3,-0.15,-0.93,1.29,52.354,120.908,46.813,175,75
2026-05-09 16:11:56.898,3,0.64,-0.33,1.74,76.194,105.718,20.953,175,75
2026-05-09 16:11:56.910,3,0.91,-0.73,1.99,58.994,31.267999999999997,41.503,175,75
2026-05-09 16:11:56.919,3,0.16,-0.51,1.7,37.044000000000004,-8.302,56.13300000000001,175,75
2026-05-09 16:11:56.935,3,-0.24,-0.33,1.32,37.654,-12.572,35.893,175,75
2026-05-09 16:11:56.946,3,-0.35,-0.26,1.17,43.934000000000005,12.428,28.453,175,75
2026-05-09 16:11:56.957,3,-0.38,-0.16,1.46,32.904,40.477999999999994,21.073000000000004,175,75
2026-05-09 16:11:56.973,3,-0.42,0.02,1.77,17.534,22.428,10.463000000000005,175,75
2026-05-09 16:11:56.996,3,-0.28,0.02,1.51,-39.355999999999995,-77.69200000000001,-9.776999999999997,175,75
2026-05-09 16:11:57.021,3,-0.14,-0.27,1.21,-46.676,-48.422,-30.997,175,75
2026-05-09 16:11:57.034,3,-0.12,-0.37,1.15,-45.635999999999996,-36.592,-40.077,175,75
2026-05-09 16:11:57.050,3,0.04,-0.43,1.05,-44.355999999999995,-23.791999999999998,-49.287,175,75
2026-05-09 16:11:57.060,3,0.16,-0.41,1.02,-40.456,-6.4719999999999995,-51.297,175,75
2026-05-09 16:11:57.064,3,0.36,-0.42,1.07,-37.706,8.338000000000001,-50.387,175,75
2026-05-09 16:11:57.072,3,0.49,-0.34,1.1,-34.355999999999995,12.548,-49.167,175,75
2026-05-09 16:11:57.090,3,0.56,-0.23,1.1,-27.775999999999996,17.668,-41.297,175,75
2026-05-09 16:11:57.099,3,0.59,-0.19,1.08,-23.075999999999997,17.918,-36.297,175,75
2026-05-09 16:11:57.111,3,0.64,-0.19,0.99,-25.695999999999998,11.698,-30.567,175,75
2026-05-09 16:11:57.117,3,0.6,-0.06,0.79,-18.445999999999998,10.538,-23.557,175,75
2026-05-09 16:11:57.137,3,0.64,0.09,0.59,-3.195999999999998,19.928,-15.076999999999998,175,75
2026-05-09 16:11:57.149,3,0.79,0.14,0.5,15.524000000000001,10.598,0.5230000000000032,175,75
2026-05-09 16:11:57.157,3,0.73,0.05,0.33,49.604,-9.892,28.633,175,75
2026-05-09 16:11:57.169,3,0.59,-0.02,0.37,91.98400000000001,38.768,49.613,175,75
2026-05-09 16:11:57.190,3,0.55,-0.02,0.62,116.554,81.448,68.153,175,75
2026-05-09 16:11:57.190,3,0.04,0.12,1.14,154.124,116.38799999999999,93.763,175,75
2026-05-09 16:11:57.214,3,-0.27,0.25,1.65,189.124,120.228,118.393,175,75
2026-05-09 16:11:57.239,3,-0.64,-0.1,2.22,154.244,5.048,186.683,175,75
2026-05-09 16:11:57.262,3,-0.46,0.27,1.89,117.834,-115.012,163.763,175,75
2026-05-09 16:11:57.273,3,-0.15,0.3,1.57,98.264,-166.052,146.263,175,75
2026-05-09 16:11:57.273,3,0.34,0.37,0.83,60.884,-203.06199999999998,134.733,175,75
2026-05-09 16:11:57.284,3,0.13,0.49,0.6,52.59400000000001,-200.56199999999998,109.793,175,75
2026-05-09 16:11:57.315,3,0.43,1.17,0.6,11.074000000000002,-129.582,4.553000000000001,175,75
2026-05-09 16:11:57.319,3,0.12,1.78,0.57,-1.855999999999998,-105.922,-5.446999999999999,175,75
2026-05-09 16:11:57.330,3,0.18,1.51,0.41,-35.816,-122.022,-53.257,175,75
2026-05-09 16:11:57.348,3,0.37,1.36,0.48,-71.616,-62.202,-136.547,175,75
2026-05-09 16:11:57.366,3,-1.07,1.61,1.11,-102.226,205.048,-113.067,175,75
2026-05-09 16:11:57.385,3,-3.52,1.72,4.65,63.873999999999995,353.528,-10.756999999999998,175,75
2026-05-09 16:11:57.397,3,-0.27,-1.8,6.15,285.154,92.60799999999999,34.85300000000001,175,75
2026-05-09 16:11:57.410,3,1.83,-3.99,4.6,-36.855999999999995,-600.382,-199.957,175,75
2026-05-09 16:11:57.431,3,0.01,-1.01,0.19,-512.406,-719.462,-54.047,175,75
2026-05-09 16:11:57.431,3,-3.75,1.34,-1.13,-486.30600000000004,110.598,-29.776999999999997,175,75
2026-05-09 16:11:57.443,3,2.23,0.0,-0.9,3.084000000000003,47.367999999999995,-65.757,175,75
2026-05-09 16:11:57.456,3,0.07,-1.26,0.73,20.644000000000005,-9.771999999999998,-14.226999999999999,175,75
2026-05-09 16:11:57.472,3,0.51,-0.38,0.88,-98.01599999999999,173.46800000000002,-62.277,175,75
2026-05-09 16:11:57.490,3,0.55,-0.37,1.38,-78.136,-30.442,-35.447,175,75
2026-05-09 16:11:57.500,3,0.61,-0.26,0.85,-75.146,-40.012,-44.167,175,75
2026-05-09 16:11:57.513,3,0.59,-0.17,0.71,-68.076,-12.331999999999999,-28.927,175,75
2026-05-09 16:11:57.524,3,0.61,0.07,0.75,-48.986,8.408,-28.067,175,75
2026-05-09 16:11:57.524,3,0.89,0.06,0.63,-15.515999999999998,-12.142,-11.296999999999999,175,75
2026-05-09 16:11:57.538,3,0.61,-0.03,0.49,4.364000000000001,10.838000000000001,7.6030000000000015,175,75
2026-05-09 16:11:57.550,3,0.54,-0.04,0.76,26.804000000000002,85.838,8.333000000000002,175,75
2026-05-09 16:11:57.567,3,0.81,-0.07,1.18,42.414,84.928,16.133,175,75
2026-05-09 16:11:57.583,3,0.64,0.13,1.2,70.154,-5.862,43.093,175,75
2026-05-09 16:11:57.593,3,0.46,0.11,1.06,72.294,-53.122,53.21300000000001,175,75
2026-05-09 16:11:57.652,3,0.14,-0.09,1.08,113.32400000000001,80.10799999999999,101.13300000000001,175,75
2026-05-09 16:11:57.652,3,0.09,-0.31,1.32,110.214,77.30799999999999,108.15299999999999,175,75
2026-05-09 16:11:57.672,3,-0.15,-0.47,1.46,101.074,89.008,111.62300000000002,175,75
2026-05-09 16:11:57.692,3,-0.63,-0.43,1.39,88.754,92.548,96.013,175,75
2026-05-09 16:11:57.692,3,-0.75,-0.25,1.43,86.134,93.408,71.32300000000001,175,75
2026-05-09 16:11:57.700,3,-0.74,-0.03,1.57,76.554,94.74799999999999,51.99300000000001,175,75
2026-05-09 16:11:57.711,3,-0.75,0.11,1.64,58.694,92.24799999999999,53.703,175,75
2026-05-09 16:11:57.727,3,-0.74,0.13,1.6,43.324000000000005,72.548,46.13300000000001,175,75
2026-05-09 16:11:57.738,3,-0.72,0.16,1.47,25.584000000000003,43.888000000000005,28.703,175,75
2026-05-09 16:11:57.759,3,-0.28,0.35,1.13,-30.756,1.7580000000000005,-33.986999999999995,175,75
2026-05-09 16:11:57.789,3,-0.09,0.17,1.13,-64.596,-4.6419999999999995,-69.107,175,75
2026-05-09 16:11:57.830,3,0.33,0.21,1.26,-155.33599999999998,-81.902,-132.397,175,75
2026-05-09 16:11:57.842,3,0.41,0.12,1.2,-170.876,-108.852,-148.867,175,75
2026-05-09 16:11:57.855,3,0.58,0.12,1.04,-187.166,-124.64200000000001,-155.447,175,75
2026-05-09 16:11:57.873,3,0.59,0.24,0.77,-206.856,-77.022,-129.477,175,75
2026-05-09 16:11:57.890,3,0.88,0.14,0.63,-214.666,-46.962,-117.517,175,75
2026-05-09 16:11:57.901,3,1.1,0.04,0.52,-202.956,-50.44199999999999,-129.167,175,75
2026-05-09 16:11:57.912,3,0.98,0.3,0.82,-198.446,7.428000000000001,-126.17699999999999,175,75
2026-05-09 16:11:57.917,3,-1.92,2.06,2.39,-93.926,265.718,28.453,175,75
2026-05-09 16:11:57.950,3,0.16,-0.06,3.7,207.964,-83.672,-26.427,175,75
2026-05-09 16:11:57.950,3,-0.53,0.73,2.03,98.574,-49.581999999999994,93.82300000000001,175,75
2026-05-09 16:11:57.977,3,1.14,-0.8,0.31,10.704,-231.78199999999998,48.57300000000001,175,75
2026-05-09 16:11:57.977,3,-2.85,0.38,-0.23,-98.376,33.647999999999996,130.953,175,75
2026-05-09 16:11:57.993,3,-0.46,-0.12,0.04,25.824000000000005,139.43800000000002,77.233,175,75
2026-05-09 16:11:58.007,3,0.19,-1.16,1.14,62.224000000000004,-70.922,31.133,175,75
2026-05-09 16:11:58.007,3,0.21,-0.25,0.93,2.4740000000000038,29.618,61.68300000000001,175,75
2026-05-09 16:11:58.020,3,0.6,-0.55,1.15,47.903999999999996,49.80800000000001,51.99300000000001,175,75
2026-05-09 16:11:58.031,3,0.83,-1.07,1.33,49.724000000000004,37.548,46.13300000000001,175,75
2026-05-09 16:11:58.053,3,0.12,-0.78,1.04,46.374,21.518,44.85300000000001,175,75
2026-05-09 16:11:58.053,3,-0.25,-0.59,0.8,63.634,71.448,23.453,175,75
2026-05-09 16:11:58.068,3,-0.31,-0.6,1.23,66.924,99.198,22.603000000000005,175,75
2026-05-09 16:11:58.083,3,-0.36,-0.41,1.74,55.944,83.038,10.833000000000002,175,75
2026-05-09 16:11:58.099,3,-0.26,-0.22,2.09,38.814,40.298,4.9830000000000005,175,75
2026-05-09 16:11:58.111,3,-0.13,-0.06,2.08,-0.39599999999999724,-57.202,-0.3869999999999969,175,75
2026-05-09 16:11:58.118,3,-0.29,0.07,1.71,-19.785999999999998,-91.72200000000001,-1.666999999999998,175,75
2026-05-09 16:11:58.140,3,-0.37,0.09,1.27,-27.285999999999998,-83.492,-14.286999999999999,175,75
2026-05-09 16:11:58.140,3,-0.35,0.01,1.09,-33.626,-63.971999999999994,-26.427,175,75
2026-05-09 16:11:58.159,3,-0.23,-0.2,1.12,-31.246,-37.141999999999996,-35.757,175,75
2026-05-09 16:11:58.159,3,-0.11,-0.35,1.24,-33.68599999999999,-30.862,-40.997,175,75
2026-05-09 16:11:58.169,3,0.1,-0.43,1.27,-36.736,-32.141999999999996,-47.516999999999996,175,75
2026-05-09 16:11:58.204,3,0.36,-0.48,1.04,-36.066,-34.831999999999994,-46.846999999999994,175,75
2026-05-09 16:11:58.204,3,0.47,-0.53,0.99,-30.695999999999998,-11.782,-45.876999999999995,175,75
2026-05-09 16:11:58.222,3,0.62,-0.42,1.04,-23.805999999999997,-4.2219999999999995,-45.876999999999995,175,75
2026-05-09 16:11:58.226,3,0.58,-0.24,1.04,-22.345999999999997,5.168,-38.557,175,75
2026-05-09 16:11:58.240,3,0.55,-0.15,0.92,-18.375999999999998,11.878,-33.986999999999995,175,75
2026-05-09 16:11:58.255,3,0.55,-0.03,0.7,-9.235999999999997,17.548000000000002,-31.666999999999998,175,75
2026-05-09 16:11:58.266,3,0.67,0.15,0.61,5.334000000000003,34.498000000000005,-23.677,175,75
2026-05-09 16:11:58.277,3,0.71,0.11,0.55,48.024,20.418,14.733,175,75
2026-05-09 16:11:58.288,3,0.51,0.04,0.58,74.664,33.408,38.453,175,75
2026-05-09 16:11:58.300,3,0.35,0.04,0.69,93.514,59.438,54.373000000000005,175,75
2026-05-09 16:11:58.315,3,0.21,0.08,0.95,118.934,91.328,72.233,175,75
2026-05-09 16:11:58.340,3,-0.28,0.1,1.94,188.514,53.528000000000006,128.763,175,75
2026-05-09 16:11:58.349,3,-0.56,-0.02,1.97,175.824,35.778000000000006,153.153,175,75
2026-05-09 16:11:58.365,3,-0.61,-0.11,1.93,147.774,4.688000000000001,152.053,175,75
2026-05-09 16:11:58.390,3,-0.39,0.45,1.82,123.994,-60.251999999999995,140.223,175,75
2026-05-09 16:11:58.402,3,-0.2,0.45,1.58,107.964,-100.132,137.543,175,75
2026-05-09 16:11:58.402,3,-0.14,0.5,1.2,86.074,-102.452,135.403,175,75
2026-05-09 16:11:58.415,3,0.06,0.5,0.98,66.074,-128.422,125.28300000000002,175,75
2026-05-09 16:11:58.430,3,0.03,0.4,0.99,54.42400000000001,-135.012,93.02300000000001,175,75
2026-05-09 16:11:58.445,3,-0.12,1.1,1.17,21.984,-100.072,45.10300000000001,175,75
2026-05-09 16:11:58.500,3,0.24,1.49,-0.15,-125.696,-62.022000000000006,-106.547,175,75
2026-05-09 16:11:58.520,3,-0.96,1.81,0.48,-107.646,166.328,-115.327,175,75
2026-05-09 16:11:58.532,3,-1.06,1.61,1.81,-71.916,283.528,-91.97699999999999,175,75
2026-05-09 16:11:58.545,3,-1.44,0.78,4.98,30.764000000000003,122.85799999999999,-83.617,175,75
2026-05-09 16:11:58.562,3,-1.15,-0.77,5.63,38.634,-112.452,-33.797,175,75
2026-05-09 16:11:58.592,3,0.42,-0.48,0.37,-342.096,-584.5219999999999,-68.737,175,75
2026-05-09 16:11:58.607,3,1.02,-0.82,-0.95,-32.226,160.83800000000002,-20.627,175,75
2026-05-09 16:11:58.618,3,0.5,-0.58,0.38,-89.056,77.60799999999999,-62.217,175,75
2026-05-09 16:11:58.646,3,1.24,-0.85,1.24,-24.176,62.30799999999999,-33.317,175,75
2026-05-09 16:11:58.651,3,0.99,-0.7,1.11,-39.965999999999994,3.8280000000000003,-37.947,175,75
2026-05-09 16:11:58.654,3,0.52,-0.28,0.88,-33.016,-2.8819999999999997,-31.296999999999997,175,75
2026-05-09 16:11:58.668,3,0.92,-0.07,0.8,-17.775999999999996,-31.052,-9.896999999999998,175,75
2026-05-09 16:11:58.680,3,0.74,0.04,0.31,-10.335999999999999,-63.611999999999995,15.593,175,75
2026-05-09 16:11:58.693,3,0.44,0.02,-0.01,30.334000000000003,-5.502,23.153000000000002,175,75
2026-05-09 16:11:58.702,3,0.69,-0.17,0.5,78.444,84.55799999999999,38.703,175,75
2026-05-09 16:11:58.716,3,0.79,-0.18,1.04,101.014,53.408,56.013000000000005,175,75
2026-05-09 16:11:58.730,3,0.66,-0.11,1.14,107.164,34.80800000000001,68.093,175,75
2026-05-09 16:11:58.740,3,0.51,-0.04,1.09,103.874,31.638,86.32300000000001,175,75
2026-05-09 16:11:58.747,3,0.36,-0.02,1.0,106.924,23.768,96.563,175,75
2026-05-09 16:11:58.759,3,0.2,-0.03,0.95,107.654,34.498000000000005,106.38300000000001,175,75
2026-05-09 16:11:58.774,3,0.03,0.01,1.0,115.404,65.048,117.233,175,75
2026-05-09 16:11:58.787,3,-0.12,-0.04,1.27,120.82400000000001,94.688,126.44300000000001,175,75
2026-05-09 16:11:58.795,3,-0.26,-0.11,1.43,117.53399999999999,96.99799999999999,126.44300000000001,175,75
2026-05-09 16:11:58.811,3,-0.42,-0.1,1.55,110.644,75.228,108.63300000000001,175,75
2026-05-09 16:11:58.811,3,-0.49,-0.09,1.58,105.944,55.538,85.283,175,75
2026-05-09 16:11:58.847,3,-0.4,0.21,1.59,78.754,44.80800000000001,57.483000000000004,175,75
2026-05-09 16:11:58.859,3,-0.53,0.26,1.52,70.584,43.038,45.833,175,75
2026-05-09 16:11:58.859,3,-0.56,0.31,1.46,63.873999999999995,53.528000000000006,24.243,175,75
2026-05-09 16:11:58.870,3,-0.51,0.38,1.46,58.574,55.837999999999994,8.153000000000002,175,75
2026-05-09 16:11:58.880,3,-0.46,0.45,1.48,51.434,52.188,-4.106999999999999,175,75
2026-05-09 16:11:58.893,3,-0.38,0.54,1.5,39.664,40.418000000000006,-23.436999999999998,175,75
2026-05-09 16:11:58.904,3,-0.25,0.53,1.45,23.754000000000005,21.268,-46.057,175,75
2026-05-09 16:11:58.939,3,-0.06,0.56,1.23,-5.0859999999999985,10.778,-81.667,175,75
2026-05-09 16:11:58.939,3,-0.01,0.42,1.2,-17.775999999999996,24.808,-93.92699999999999,175,75
2026-05-09 16:11:58.951,3,0.02,0.27,1.27,-26.305999999999997,11.518,-113.61699999999999,175,75
2026-05-09 16:11:58.988,3,0.17,0.22,1.3,-63.745999999999995,7.308,-163.677,175,75
2026-05-09 16:11:58.998,3,0.35,0.21,1.4,-75.51599999999999,15.358,-177.15699999999998,175,75
2026-05-09 16:11:58.998,3,0.44,0.1,1.49,-80.396,4.378,-192.277,175,75
2026-05-09 16:11:59.008,3,0.6,0.03,1.41,-86.366,-7.811999999999999,-210.147,175,75
2026-05-09 16:11:59.020,3,0.66,0.09,1.16,-96.246,-0.3819999999999997,-207.647,175,75
2026-05-09 16:11:59.034,3,0.58,0.12,0.87,-99.786,37.668000000000006,-204.40699999999998,175,75
2026-05-09 16:11:59.040,3,0.61,0.08,0.73,-97.706,69.258,-206.667,175,75
2026-05-09 16:11:59.061,3,0.81,0.02,0.68,-94.116,139.55800000000002,-205.817,175,75
2026-05-09 16:11:59.091,3,-0.32,0.55,1.94,14.364,284.808,-153.37699999999998,175,75
2026-05-09 16:11:59.091,3,-1.44,1.13,2.43,124.244,304.988,-41.667,175,75
2026-05-09 16:11:59.104,3,0.04,0.96,2.26,114.54400000000001,158.888,-54.227,175,75
2026-05-09 16:11:59.120,3,1.06,0.98,0.6,38.574000000000005,-15.072,41.74300000000001,175,75
2026-05-09 16:11:59.137,3,-2.25,0.75,-0.01,-28.506,-35.861999999999995,110.833,175,75
2026-05-09 16:11:59.137,3,-2.0,0.52,0.53,6.624000000000002,98.468,112.90299999999999,175,75
2026-05-09 16:11:59.151,3,0.05,-0.99,1.26,58.324,-108.912,79.063,175,75
2026-05-09 16:11:59.160,3,-0.73,-1.36,1.45,-7.165999999999999,-151.962,102.60300000000001,175,75
2026-05-09 16:11:59.174,3,0.44,-0.51,1.24,-8.745999999999999,-89.522,-2.6469999999999985,175,75
2026-05-09 16:11:59.186,3,1.08,-0.26,1.35,22.774,-86.352,23.093,175,75
2026-05-09 16:11:59.201,3,0.81,-0.46,1.32,17.474000000000004,-29.402,56.99300000000001,175,75
2026-05-09 16:11:59.201,3,0.37,-0.77,1.06,21.984,-7.942,25.223000000000003,175,75
2026-05-09 16:11:59.210,3,0.06,-0.97,0.64,48.324,29.988000000000003,13.213000000000005,175,75
2026-05-09 16:11:59.240,3,-0.62,-0.89,0.89,71.864,129.258,17.663,175,75
2026-05-09 16:11:59.252,3,-0.4,-0.48,1.88,48.444,53.888000000000005,-12.336999999999998,175,75
2026-05-09 16:11:59.265,3,-0.13,-0.51,2.05,31.804000000000002,6.938000000000001,-14.536999999999999,175,75
2026-05-09 16:11:59.306,3,-0.03,-0.49,0.85,22.354,-6.4719999999999995,-41.236999999999995,175,75
2026-05-09 16:11:59.332,3,0.2,-0.44,0.93,30.464,39.55800000000001,-35.207,175,75
2026-05-09 16:11:59.344,3,0.41,-0.51,0.97,33.874,34.318,-33.736999999999995,175,75
2026-05-09 16:11:59.354,3,0.51,-0.41,0.82,31.494,11.148,-29.956999999999997,175,75
2026-05-09 16:11:59.360,3,0.6,-0.39,0.58,41.194,-2.6919999999999997,-19.046999999999997,175,75
2026-05-09 16:11:59.378,3,0.61,-0.5,0.2,62.164,-19.582,-7.2769999999999975,175,75
2026-05-09 16:11:59.400,3,0.56,-0.37,0.12,81.864,-2.812,-1.3669999999999973,175,75
2026-05-09 16:11:59.400,3,0.53,-0.34,0.17,104.854,18.278,1.993000000000002,175,75
2026-05-09 16:11:59.406,3,0.53,-0.39,0.34,130.214,41.028000000000006,1.6830000000000034,175,75
2026-05-09 16:11:59.432,3,0.5,-0.4,0.57,156.744,73.88799999999999,-1.1169999999999973,175,75
2026-05-09 16:11:59.448,3,0.44,-0.35,0.78,190.644,105.35799999999999,-4.8969999999999985,175,75
2026-05-09 16:11:59.461,3,0.43,-0.39,0.91,215.824,124.378,-8.006999999999998,175,75
2026-05-09 16:11:59.471,3,0.32,-0.35,0.87,226.984,136.448,-6.366999999999997,175,75
2026-05-09 16:11:59.472,3,0.14,-0.19,0.85,256.014,187.978,-11.666999999999998,175,75
2026-05-09 16:11:59.483,3,0.11,-0.09,1.26,283.69399999999996,233.33800000000002,-8.126999999999999,175,75
2026-05-09 16:11:59.501,3,0.43,0.16,1.37,234.724,127.308,-17.706999999999997,175,75
2026-05-09 16:11:59.507,3,0.19,0.28,1.11,210.094,117.188,-12.886999999999999,175,75
2026-05-09 16:11:59.525,3,0.13,0.15,0.98,195.464,115.228,-25.326999999999998,175,75
2026-05-09 16:11:59.541,3,-0.42,0.24,0.79,175.404,146.02800000000002,-45.387,175,75
2026-05-09 16:11:59.562,3,-0.26,0.13,0.85,169.604,137.858,-61.17699999999999,175,75
2026-05-09 16:11:59.575,3,-0.48,0.28,0.85,125.584,165.90800000000002,-81.977,175,75
2026-05-09 16:11:59.600,3,-0.43,0.57,1.16,67.224,143.21800000000002,-116.237,175,75
2026-05-09 16:11:59.611,3,-0.62,0.61,1.34,23.144000000000005,86.268,-135.507,175,75
2026-05-09 16:11:59.611,3,-0.62,0.66,1.36,-31.855999999999998,22.608,-165.077,175,75
2026-05-09 16:11:59.623,3,-0.36,0.75,1.45,-77.096,-70.132,-198.12699999999998,175,75
2026-05-09 16:11:59.636,3,-0.2,0.9,1.42,-128.316,-140.982,-218.867,175,75
2026-05-09 16:11:59.646,3,0.28,1.0,1.15,-201.066,-180.982,-225.68699999999998,175,75
2026-05-09 16:11:59.658,3,0.41,0.84,1.03,-251.36599999999999,-295.562,-219.047,175,75
2026-05-09 16:11:59.669,3,0.02,0.42,0.64,-300.576,-236.84199999999998,-248.007,175,75
2026-05-09 16:11:59.684,3,-2.66,1.4,1.2,-270.086,156.87800000000001,-215.62699999999998,175,75
2026-05-09 16:11:59.733,3,-0.92,-2.68,7.72,562.7139999999999,-757.942,-323.987,175,75
2026-05-09 16:11:59.733,3,6.01,-0.25,2.8,-109.29599999999999,-711.592,-346.297,175,75
2026-05-09 16:11:59.748,3,-2.02,2.8,-0.39,-591.306,-258.55199999999996,130.043,175,75
2026-05-09 16:11:59.761,3,1.89,3.78,-1.73,-75.026,63.038,-228.737,175,75
2026-05-09 16:11:59.775,3,0.32,2.13,0.06,113.934,226.758,8.273,175,75
2026-05-09 16:11:59.779,3,-0.34,0.28,0.79,90.824,264.868,-28.127,175,75
2026-05-09 16:11:59.803,3,0.51,-2.61,2.01,120.584,170.538,11.873000000000001,175,75
2026-05-09 16:11:59.818,3,0.04,-0.71,2.12,27.474000000000004,48.158,-120.687,175,75
2026-05-09 16:11:59.833,3,1.43,0.4,1.32,-4.055999999999997,-49.952,-83.617,175,75
2026-05-09 16:11:59.847,3,0.55,-0.18,0.02,59.364000000000004,39.55800000000001,11.873000000000001,175,75
2026-05-09 16:11:59.855,3,0.91,-0.14,0.24,122.594,123.648,6.443000000000001,175,75
2026-05-09 16:11:59.867,3,1.06,-0.17,1.19,153.754,186.99800000000002,36.132999999999996,175,75
2026-05-09 16:11:59.888,3,1.28,-0.2,1.95,169.304,79.49799999999999,58.82300000000001,175,75
2026-05-09 16:11:59.909,3,0.01,-0.39,-0.08,103.634,-44.831999999999994,82.843,175,75
2026-05-09 16:11:59.933,3,-0.06,-0.95,0.76,200.88400000000001,106.268,63.57300000000001,175,75
2026-05-09 16:11:59.948,3,-0.34,-0.89,1.06,199.724,136.578,51.13300000000001,175,75
2026-05-09 16:11:59.955,3,-0.51,-0.65,1.22,203.754,161.208,39.733000000000004,175,75
2026-05-09 16:11:59.963,3,-0.59,-0.51,1.38,209.604,190.168,38.153000000000006,175,75
2026-05-09 16:11:59.981,3,-0.55,-0.43,1.59,200.824,179.68800000000002,34.123000000000005,175,75
2026-05-09 16:11:59.986,3,-0.55,-0.25,1.45,184.124,155.598,17.903000000000002,175,75
2026-05-09 16:12:00.000,3,-0.71,-0.12,1.21,174.364,173.40800000000002,14.062999999999999,175,75
2026-05-09 16:12:00.009,3,-0.8,-0.14,1.19,160.404,201.758,3.3930000000000007,175,75
2026-05-09 16:12:00.032,3,-0.53,0.05,1.54,117.47399999999999,165.71800000000002,-42.277,175,75
2026-05-09 16:12:00.059,3,-0.17,0.09,1.31,17.534,66.208,-72.827,175,75
2026-05-09 16:12:00.067,3,-0.14,0.29,1.11,-24.116,15.168,-103.61699999999999,175,75
2026-05-09 16:12:00.077,3,-0.01,0.46,1.02,-54.056,2.7280000000000006,-114.83699999999999,175,75
2026-05-09 16:12:00.090,3,0.22,0.51,0.99,-90.396,-25.012,-118.86699999999999,175,75
2026-05-09 16:12:00.108,3,0.28,0.44,1.02,-128.446,-60.44199999999999,-130.207,175,75
2026-05-09 16:12:00.120,3,0.37,0.34,1.04,-169.176,-84.032,-148.557,175,75
2026-05-09 16:12:00.120,3,0.46,0.25,1.0,-196.916,-96.532,-157.277,175,75
2026-05-09 16:12:00.137,3,0.55,0.22,0.84,-234.236,-108.00200000000001,-170.567,175,75
2026-05-09 16:12:00.149,3,0.58,0.25,0.65,-265.086,-82.512,-174.40699999999998,175,75
2026-05-09 16:12:00.161,3,0.55,0.18,0.47,-285.63599999999997,-43.852000000000004,-178.867,175,75
2026-05-09 16:12:00.166,3,0.63,0.13,0.42,-288.626,4.928,-182.577,175,75
2026-05-09 16:12:00.182,3,0.75,0.02,0.44,-287.40599999999995,62.05799999999999,-184.107,175,75
2026-05-09 16:12:00.197,3,0.95,-0.12,0.51,-283.866,97.488,-186.787,175,75
2026-05-09 16:12:00.197,3,1.0,-0.22,0.71,-280.876,106.578,-199.957,175,75
2026-05-09 16:12:00.205,3,0.93,0.23,1.15,-268.56600000000003,142.30800000000002,-179.167,175,75
2026-05-09 16:12:00.216,3,-2.35,1.53,2.07,-225.696,274.25800000000004,-33.617,175,75
2026-05-09 16:12:00.237,3,-0.45,0.19,1.98,-135.946,315.968,-103.737,175,75
2026-05-09 16:12:00.237,3,-1.29,-0.25,4.21,104.054,44.138000000000005,-127.94699999999999,175,75
2026-05-09 16:12:00.250,3,-4.32,1.63,4.91,214.424,291.878,96.873,175,75
2026-05-09 16:12:00.264,3,-3.89,1.98,5.17,345.764,238.888,135.653,175,75
2026-05-09 16:12:00.275,3,2.72,-1.42,2.78,231.314,-316.412,-83.797,175,75
2026-05-09 16:12:00.284,3,-1.92,-0.49,-0.18,-249.416,-723.242,230.223,175,75
2026-05-09 16:12:00.297,3,-5.14,1.13,-1.16,-315.27599999999995,126.028,255.16299999999998,175,75
2026-05-09 16:12:00.319,3,-0.03,-0.84,0.99,336.98400000000004,-96.412,-49.287,175,75
2026-05-09 16:12:00.329,3,0.15,-0.29,1.79,136.684,220.83800000000002,65.16300000000001,175,75
2026-05-09 16:12:00.340,3,0.38,-0.11,2.53,86.98400000000001,97.488,56.873000000000005,175,75
2026-05-09 16:12:00.364,3,-0.03,-0.36,1.86,22.534,-60.382000000000005,8.273,175,75
2026-05-09 16:12:00.377,3,-0.58,-0.27,1.18,15.094000000000001,-50.312,25.343,175,75
2026-05-09 16:12:00.387,3,-0.57,-0.52,1.04,31.494,-2.332,2.7830000000000013,175,75
2026-05-09 16:12:00.398,3,-0.05,-0.48,1.53,23.754000000000005,9.868,-17.037,175,75
2026-05-09 16:12:00.408,3,0.2,-0.35,1.77,5.4040000000000035,-17.811999999999998,-5.326999999999998,175,75
2026-05-09 16:12:00.421,3,0.21,-0.44,1.69,-9.055999999999997,-57.141999999999996,0.7730000000000032,175,75
2026-05-09 16:12:00.438,3,0.14,-0.53,1.39,-16.185999999999996,-81.412,-5.506999999999998,175,75
2026-05-09 16:12:00.460,3,0.26,-0.57,0.61,-2.525999999999998,-34.831999999999994,-12.886999999999999,175,75
2026-05-09 16:12:00.481,3,0.61,-0.49,0.51,21.194000000000003,-9.952,-10.076999999999998,175,75
2026-05-09 16:12:00.495,3,0.6,-0.39,0.43,26.314,-11.902,-2.2769999999999975,175,75
2026-05-09 16:12:00.509,3,0.71,-0.37,0.09,64.364,-42.94199999999999,26.013,175,75
2026-05-09 16:12:00.522,3,0.67,-0.34,0.12,86.494,-24.892,34.923,175,75
2026-05-09 16:12:00.533,3,0.68,-0.38,0.29,117.654,1.1480000000000001,42.483000000000004,175,75
2026-05-09 16:12:00.558,3,0.59,-0.45,0.41,148.264,35.048,45.593,175,75
2026-05-09 16:12:00.601,3,0.37,-0.31,0.49,212.354,144.43800000000002,43.703,175,75
2026-05-09 16:12:00.637,3,0.37,0.14,1.77,230.764,195.418,61.68300000000001,175,75
2026-05-09 16:12:00.660,3,0.23,0.44,1.75,175.154,106.99799999999999,64.433,175,75
2026-05-09 16:12:00.715,3,0.14,0.37,1.39,148.574,64.258,64.123,175,75
2026-05-09 16:12:00.728,3,-0.23,0.42,1.21,132.354,26.998,48.763000000000005,175,75
2026-05-09 16:12:00.728,3,-0.72,0.53,0.99,113.57400000000001,41.44799999999999,44.85300000000001,175,75
2026-05-09 16:12:00.754,3,-0.35,0.34,0.83,96.554,53.888000000000005,17.783000000000005,175,75
2026-05-09 16:12:00.754,3,-0.08,0.18,0.8,71.684,43.038,-14.836999999999998,175,75
2026-05-09 16:12:00.766,3,-0.16,0.3,0.73,27.594,52.858000000000004,-33.927,175,75
2026-05-09 16:12:00.777,3,-0.17,0.54,0.82,-11.125999999999998,87.118,-52.766999999999996,175,75
2026-05-09 16:12:00.800,3,-0.01,0.91,1.22,-139.476,-57.572,-132.577,175,75
2026-05-09 16:12:00.813,3,0.11,0.91,1.14,-186.556,-112.202,-155.93699999999998,175,75
2026-05-09 16:12:00.835,3,0.05,1.1,1.37,-288.506,-152.75199999999998,-226.547,175,75
2026-05-09 16:12:00.846,3,-3.28,1.92,2.15,-214.236,186.578,-114.597,175,75
2026-05-09 16:12:00.878,3,-3.63,2.88,-2.18,-768.626,-117.39200000000001,11.263000000000002,175,75
2026-05-09 16:12:00.898,3,-0.42,1.43,0.16,177.044,360.538,145.773,175,75
2026-05-09 16:12:00.907,3,-0.6,-0.29,0.52,226.13400000000001,340.228,-7.456999999999997,175,75
2026-05-09 16:12:00.927,3,0.48,-0.51,4.08,39.664,9.688,-141.117,175,75
2026-05-09 16:12:00.940,3,-0.26,-0.08,0.41,-101.856,-258.67199999999997,69.433,175,75
2026-05-09 16:12:00.961,3,0.99,-0.46,-0.81,61.254000000000005,-17.392,3.6330000000000027,175,75
2026-05-09 16:12:00.971,3,0.79,-0.12,-0.16,93.754,121.818,38.21300000000001,175,75
2026-05-09 16:12:01.023,3,0.3,-0.67,0.88,176.804,76.758,106.203,175,75
2026-05-09 16:12:01.040,3,0.08,-0.8,1.14,189.854,121.268,111.93299999999999,175,75
2026-05-09 16:12:01.040,3,-0.15,-0.8,1.38,190.944,155.228,109.243,175,75
2026-05-09 16:12:01.059,3,-0.21,-0.59,1.52,189.724,160.108,91.503,175,75
2026-05-09 16:12:01.059,3,-0.2,-0.4,1.5,181.684,153.15800000000002,77.293,175,75
2026-05-09 16:12:01.070,3,-0.33,-0.23,1.35,162.104,160.90800000000002,77.483,175,75
2026-05-09 16:12:01.104,3,-0.51,-0.08,1.24,133.63400000000001,144.018,39.43300000000001,175,75
2026-05-09 16:12:01.104,3,-0.46,-0.09,1.24,113.38400000000001,130.71800000000002,18.273,175,75
2026-05-09 16:12:01.126,3,-0.71,0.13,1.36,88.144,138.46800000000002,-0.8169999999999966,175,75
2026-05-09 16:12:01.136,3,-0.55,0.12,1.41,58.084,106.878,-9.406999999999998,175,75
2026-05-09 16:12:01.140,3,-0.28,-0.06,1.48,34.304,33.587999999999994,-36.727,175,75
2026-05-09 16:12:01.164,3,-0.29,-0.0,1.28,-0.27599999999999625,-38.122,-82.217,175,75
2026-05-09 16:12:01.224,3,0.16,0.2,1.01,-137.776,-85.742,-158.867,175,75
2026-05-09 16:12:01.234,3,0.39,0.16,0.94,-173.626,-123.552,-177.947,175,75
2026-05-09 16:12:01.244,3,0.63,0.13,0.77,-211.736,-163.85199999999998,-190.68699999999998,175,75
2026-05-09 16:12:01.256,3,0.74,0.2,0.56,-250.696,-182.81199999999998,-190.68699999999998,175,75
2026-05-09 16:12:01.266,3,0.65,0.2,0.24,-284.66600000000005,-131.41199999999998,-182.15699999999998,175,75
2026-05-09 16:12:01.278,3,0.57,-0.01,0.03,-301.79600000000005,-62.452,-182.827,175,75
2026-05-09 16:12:01.288,3,0.75,-0.35,0.51,-295.39599999999996,48.468,-215.017,175,75
2026-05-09 16:12:01.302,3,0.06,-0.17,1.02,-257.64599999999996,133.768,-193.18699999999998,175,75
2026-05-09 16:12:01.313,3,-2.11,0.86,2.31,-171.066,319.01800000000003,-116.547,175,75
2026-05-09 16:12:01.323,3,-0.79,0.18,1.78,-93.196,369.928,-97.217,175,75
2026-05-09 16:12:01.335,3,-1.12,0.54,4.14,96.98400000000001,209.61800000000002,-98.25699999999999,175,75
2026-05-09 16:12:01.348,3,-4.31,2.12,4.55,130.524,278.708,63.63300000000001,175,75
2026-05-09 16:12:01.384,3,0.63,-0.0,1.65,-216.796,-826.232,243.453,175,75
2026-05-09 16:12:01.384,3,-5.78,1.47,-0.7,-313.986,-327.942,255.10299999999998,175,75
2026-05-09 16:12:01.407,3,0.17,-0.61,0.15,177.964,-127.632,24.373,175,75
2026-05-09 16:12:01.418,3,0.09,-0.82,1.26,137.104,130.478,99.123,175,75
2026-05-09 16:12:01.428,3,0.36,-0.85,1.89,90.09400000000001,125.048,92.543,175,75
2026-05-09 16:12:01.439,3,-0.37,-0.79,2.1,63.324,-29.222,19.123,175,75
2026-05-09 16:12:01.451,3,-0.13,-0.37,1.39,26.254000000000005,-44.402,26.133,175,75
2026-05-09 16:12:01.461,3,-0.35,-0.32,1.09,31.374000000000002,-36.471999999999994,34.063,175,75
2026-05-09 16:12:01.469,3,-0.33,-0.42,1.29,45.584,16.698,12.543000000000003,175,75
2026-05-09 16:12:01.481,3,-0.09,-0.33,1.69,39.054,10.968,-5.816999999999997,175,75
2026-05-09 16:12:01.489,3,-0.07,-0.09,1.86,20.944000000000003,-10.072,-8.496999999999998,175,75
2026-05-09 16:12:01.504,3,-0.13,-0.0,1.8,-3.0759999999999987,-53.30200000000001,-7.2769999999999975,175,75
2026-05-09 16:12:01.529,3,-0.26,-0.25,1.25,-29.535999999999998,-69.342,-8.926999999999998,175,75
2026-05-09 16:12:01.551,3,-0.06,-0.48,1.04,-20.875999999999998,-57.94199999999999,-17.397,175,75
2026-05-09 16:12:01.551,3,0.22,-0.69,0.95,-13.375999999999998,-45.251999999999995,-22.947,175,75
2026-05-09 16:12:01.560,3,0.82,-0.94,0.79,-10.636,-41.352000000000004,-24.166999999999998,175,75
2026-05-09 16:12:01.582,3,1.05,-0.88,0.48,-12.095999999999998,-65.382,-11.236999999999998,175,75
2026-05-09 16:12:01.593,3,1.01,-0.74,0.11,2.834000000000003,-82.14200000000001,-3.0669999999999966,175,75
2026-05-09 16:12:01.594,3,1.03,-0.53,-0.14,27.224000000000004,-56.471999999999994,4.673000000000002,175,75
2026-05-09 16:12:01.604,3,1.09,-0.35,0.02,60.824,-11.661999999999999,34.43300000000001,175,75
2026-05-09 16:12:01.654,3,0.13,-0.51,0.41,191.434,96.818,96.563,175,75
2026-05-09 16:12:01.673,3,-0.1,-0.12,0.67,240.52400000000003,201.448,101.503,175,75
2026-05-09 16:12:01.673,3,0.08,-0.13,1.24,255.884,244.43800000000002,120.523,175,75
2026-05-09 16:12:01.687,3,0.24,-0.01,1.67,225.644,188.52800000000002,121.203,175,75
2026-05-09 16:12:01.698,3,0.22,0.24,1.76,192.16400000000002,139.61800000000002,117.78300000000002,175,75
2026-05-09 16:12:01.704,3,0.29,0.35,1.67,158.444,79.13799999999999,108.63300000000001,175,75
2026-05-09 16:12:01.721,3,-0.25,0.58,1.5,139.364,67.91799999999999,109.243,175,75
2026-05-09 16:12:01.735,3,-0.19,0.48,1.32,116.434,42.918000000000006,104.793,175,75
2026-05-09 16:12:01.749,3,-0.04,0.19,0.99,77.224,-32.812,43.513000000000005,175,75
2026-05-09 16:12:01.768,3,-0.04,0.35,0.59,31.254000000000005,-42.331999999999994,-13.256999999999998,175,75
2026-05-09 16:12:01.786,3,0.11,0.83,0.41,-32.956,11.758000000000001,-66.237,175,75
2026-05-09 16:12:01.786,3,0.21,1.04,0.56,-60.756,12.188,-88.497,175,75
2026-05-09 16:12:01.796,3,0.24,1.13,0.78,-93.926,-9.222,-109.107,175,75
2026-05-09 16:12:01.808,3,0.32,1.04,0.87,-143.986,-42.632000000000005,-142.647,175,75
2026-05-09 16:12:01.843,3,0.11,0.91,0.81,-313.256,-128.002,-233.317,175,75
2026-05-09 16:12:01.855,3,-0.44,1.09,1.41,-309.41600000000005,-28.612,-225.507,175,75
2026-05-09 16:12:01.866,3,-4.0,1.76,2.29,-225.396,346.208,-136.847,175,75
2026-05-09 16:12:01.877,3,-4.53,1.73,4.44,0.7040000000000006,660.538,128.943,175,75
2026-05-09 16:12:01.877,3,-5.92,1.39,8.89,477.164,525.4780000000001,387.78299999999996,175,75
2026-05-09 16:12:01.897,3,-2.24,-2.04,9.01,671.194,-720.922,-156.727,175,75
2026-05-09 16:12:01.913,3,0.66,1.97,-0.75,-711.916,-752.752,203.883,175,75
2026-05-09 16:12:01.935,3,2.91,2.94,-2.48,36.494,168.33800000000002,-182.517,175,75
2026-05-09 16:12:01.948,3,-0.51,1.46,-0.5,170.334,421.57800000000003,120.10300000000001,175,75
2026-05-09 16:12:01.963,3,-0.58,-0.83,0.78,257.534,398.88800000000003,29.853000000000005,175,75
2026-05-09 16:12:01.970,3,-0.14,-3.42,2.07,325.94399999999996,339.07800000000003,57.173,175,75
2026-05-09 16:12:01.980,3,-1.0,-1.39,3.72,164.364,248.58800000000002,-97.517,175,75
2026-05-09 16:12:02.000,3,2.22,0.08,3.08,-30.945999999999998,-134.09199999999998,-188.257,175,75
2026-05-09 16:12:02.013,3,1.09,0.85,1.47,-91.856,-285.80199999999996,89.733,175,75
2026-05-09 16:12:02.028,3,-0.26,-0.73,-0.05,-92.706,-182.94199999999998,56.74300000000001,175,75
2026-05-09 16:12:02.038,3,0.7,-0.68,-1.08,24.544000000000004,-41.532,-8.316999999999998,175,75
2026-05-09 16:12:02.038,3,0.75,-0.19,-0.52,120.76400000000001,116.818,25.773,175,75
2026-05-09 16:12:02.050,3,1.06,-0.14,0.46,138.38400000000001,194.86800000000002,68.88300000000001,175,75
2026-05-09 16:12:02.070,3,1.15,-0.39,1.46,160.824,100.658,80.893,175,75
2026-05-09 16:12:02.084,3,0.62,-0.49,0.93,132.294,-8.422,112.963,175,75
2026-05-09 16:12:02.107,3,0.21,-0.69,0.86,184.66400000000002,107.24799999999999,117.113,175,75
2026-05-09 16:12:02.118,3,-0.02,-0.78,1.38,193.144,156.08800000000002,115.10300000000001,175,75
2026-05-09 16:12:02.123,3,-0.19,-0.65,1.68,186.13400000000001,154.80800000000002,106.87300000000002,175,75
2026-05-09 16:12:02.140,3,-0.3,-0.41,1.81,168.144,118.588,81.07300000000001,175,75
2026-05-09 16:12:02.152,3,-0.35,-0.15,1.61,139.604,106.938,81.623,175,75
2026-05-09 16:12:02.163,3,-0.48,-0.03,1.44,128.264,111.63799999999999,82.843,175,75
2026-05-09 16:12:02.186,3,-0.62,-0.07,1.41,109.724,127.48799999999999,37.96300000000001,175,75
2026-05-09 16:12:02.192,3,-0.46,-0.0,1.46,90.824,114.49799999999999,2.053000000000001,175,75
2026-05-09 16:12:02.208,3,-0.39,0.33,1.56,61.92400000000001,90.598,-16.726999999999997,175,75
2026-05-09 16:12:02.226,3,-0.22,0.45,1.44,28.084000000000003,56.638000000000005,-18.436999999999998,175,75
2026-05-09 16:12:02.236,3,-0.09,0.27,1.04,-36.366,-16.842,-66.667,175,75
2026-05-09 16:12:02.252,3,-0.04,0.4,0.87,-65.026,-11.842,-87.097,175,75
2026-05-09 16:12:02.268,3,0.15,0.43,0.91,-102.226,-26.782,-108.987,175,75
2026-05-09 16:12:02.283,3,0.2,0.41,0.97,-124.476,-39.522000000000006,-123.437,175,75
2026-05-09 16:12:02.298,3,0.24,0.39,1.08,-157.776,-78.122,-143.317,175,75
2026-05-09 16:12:02.310,3,0.41,0.37,1.02,-188.626,-95.562,-160.93699999999998,175,75
2026-05-09 16:12:02.310,3,0.59,0.41,0.97,-220.516,-121.592,-165.68699999999998,175,75
2026-05-09 16:12:02.335,3,0.64,0.36,0.65,-260.756,-140.802,-161.727,175,75
2026-05-09 16:12:02.350,3,0.61,0.12,0.38,-261.486,-46.532,-164.287,175,75
2026-05-09 16:12:02.377,3,0.69,-0.15,0.73,-246.006,27.188,-215.207,175,75
2026-05-09 16:12:02.383,3,-0.06,0.4,1.24,-214.296,143.768,-182.21699999999998,175,75
2026-05-09 16:12:02.405,3,-1.78,1.24,2.32,-167.096,287.368,-59.657,175,75
2026-05-09 16:12:02.405,3,-0.86,0.71,1.82,-91.006,362.188,-29.107,175,75
2026-05-09 16:12:02.419,3,-1.41,0.27,3.98,148.694,68.158,-85.14699999999999,175,75
2026-05-09 16:12:02.429,3,-4.41,2.28,4.17,207.41400000000002,372.118,117.60300000000001,175,75
2026-05-09 16:12:02.441,3,1.14,0.24,4.18,348.024,87.188,29.063,175,75
2026-05-09 16:12:02.457,3,1.81,-0.87,1.41,-44.476,-540.132,92.35300000000001,175,75
2026-05-09 16:12:02.474,3,-1.8,0.44,-0.96,-188.256,266.088,176.013,175,75
2026-05-09 16:12:02.492,3,0.34,-1.78,1.94,182.294,57.30800000000001,4.793000000000003,175,75
2026-05-09 16:12:02.509,3,1.2,-0.51,2.39,35.334,27.308,62.96300000000001,175,75
2026-05-09 16:12:02.524,3,0.02,-0.22,1.92,33.324000000000005,-102.882,74.793,175,75
2026-05-09 16:12:02.533,3,-0.93,-0.13,1.08,15.704,-60.072,72.903,175,75
2026-05-09 16:12:02.565,3,-0.47,-0.13,1.58,34.424,-0.8619999999999997,10.773,175,75
2026-05-09 16:12:02.592,3,-0.49,-0.07,1.72,15.824000000000005,-12.812,-0.01699999999999946,175,75
2026-05-09 16:12:02.610,3,-0.2,-0.0,1.47,-26.485999999999997,-87.512,-18.677,175,75
2026-05-09 16:12:02.630,3,0.1,-0.47,1.14,-28.195999999999998,-49.342,-33.257,175,75
2026-05-09 16:12:02.651,3,0.29,-0.52,1.11,-25.205999999999996,-47.452,-34.836999999999996,175,75
2026-05-09 16:12:02.663,3,0.38,-0.58,1.03,-24.176,-31.532,-33.986999999999995,175,75
2026-05-09 16:12:02.673,3,0.51,-0.6,1.0,-20.516,-21.472,-37.157,175,75
2026-05-09 16:12:02.697,3,0.73,-0.6,0.95,-14.295999999999998,-19.462,-40.327,175,75
2026-05-09 16:12:02.708,3,0.78,-0.54,0.85,-11.425999999999998,-16.902,-36.236999999999995,175,75
2026-05-09 16:12:02.725,3,0.76,-0.41,0.69,-8.685999999999998,-19.092,-35.626999999999995,175,75
2026-05-09 16:12:02.747,3,0.7,0.04,0.3,17.714,-1.1719999999999997,-29.406999999999996,175,75
2026-05-09 16:12:02.747,3,0.7,0.06,0.23,47.834,22.188,-12.516999999999998,175,75
2026-05-09 16:12:02.758,3,0.7,-0.01,0.26,75.70400000000001,44.867999999999995,-5.386999999999997,175,75
2026-05-09 16:12:02.774,3,0.46,0.11,0.78,136.374,147.858,25.593,175,75
2026-05-09 16:12:02.800,3,0.48,0.04,1.03,191.864,173.27800000000002,52.293000000000006,175,75
2026-05-09 16:12:02.829,3,0.36,0.31,1.39,226.554,237.24800000000002,68.453,175,75
2026-05-09 16:12:02.839,3,0.28,0.49,1.77,218.574,201.638,96.07300000000001,175,75
2026-05-09 16:12:02.850,3,0.09,0.48,1.89,201.374,153.52800000000002,110.65299999999999,175,75
2026-05-09 16:12:02.850,3,-0.21,0.33,1.77,180.214,115.718,119.733,175,75
2026-05-09 16:12:02.860,3,-0.33,0.16,1.61,156.624,77.85799999999999,117.113,175,75
2026-05-09 16:12:02.870,3,-0.66,0.21,1.34,129.424,8.528,102.843,175,75
2026-05-09 16:12:02.882,3,-0.29,-0.01,1.21,101.924,-27.272,75.893,175,75
2026-05-09 16:12:02.902,3,-0.18,0.16,0.96,55.464,-61.902,62.483000000000004,175,75
2026-05-09 16:12:02.902,3,-0.12,0.46,0.78,18.574000000000005,-78.552,54.123000000000005,175,75
2026-05-09 16:12:02.913,3,-0.1,0.6,0.66,-2.775999999999998,-87.632,38.632999999999996,175,75
2026-05-09 16:12:02.923,3,-0.07,0.68,0.57,-37.096,-112.14200000000001,15.953,175,75
2026-05-09 16:12:02.955,3,0.01,0.71,0.46,-75.026,-122.94200000000001,-11.846999999999998,175,75
2026-05-09 16:12:02.993,3,0.12,0.5,0.52,-154.906,-175.922,-89.22699999999999,175,75
2026-05-09 16:12:03.016,3,0.18,0.48,0.64,-208.686,-216.47199999999998,-145.817,175,75
2026-05-09 16:12:03.016,3,0.1,0.71,0.59,-269.596,-217.022,-176.427,175,75
2026-05-09 16:12:03.041,3,-3.85,1.96,1.88,-196.246,346.878,-57.456999999999994,175,75
2026-05-09 16:12:03.041,3,-4.04,1.98,4.53,13.514000000000003,516.268,149.183,175,75
2026-05-09 16:12:03.059,3,1.2,-2.94,5.78,108.264,-1048.182,-335.507,175,75
2026-05-09 16:12:03.081,3,-3.8,3.41,-1.84,-674.416,282.248,-123.317,175,75
2026-05-09 16:12:03.086,3,3.42,1.94,-0.91,41.684000000000005,186.328,-162.21699999999998,175,75
2026-05-09 16:12:03.110,3,0.01,-1.76,0.85,56.494,346.028,-69.227,175,75
2026-05-09 16:12:03.120,3,0.28,-1.18,2.32,77.654,345.778,-45.016999999999996,175,75
2026-05-09 16:12:03.120,3,1.06,-0.5,3.18,45.034,122.05799999999999,-84.047,175,75
2026-05-09 16:12:03.131,3,1.29,-0.08,2.29,-58.866,-167.81199999999998,-14.226999999999999,175,75
2026-05-09 16:12:03.141,3,0.23,-0.04,0.68,-46.556,-141.232,3.3930000000000007,175,75
2026-05-09 16:12:03.145,3,0.57,-0.13,0.1,5.094000000000001,-50.682,-0.8169999999999966,175,75
2026-05-09 16:12:03.181,3,0.92,-0.14,0.49,86.31400000000001,114.74799999999999,18.763,175,75
2026-05-09 16:12:03.204,3,0.76,0.16,0.83,138.934,48.528000000000006,66.813,175,75
2026-05-09 16:12:03.228,3,0.45,0.03,0.75,163.024,84.078,93.27300000000001,175,75
2026-05-09 16:12:03.228,3,0.18,-0.01,0.89,181.374,128.46800000000002,110.65299999999999,175,75
2026-05-09 16:12:03.252,3,-0.32,-0.42,1.38,202.044,176.208,150.34300000000002,175,75
2026-05-09 16:12:03.267,3,-0.43,-0.51,1.46,167.834,98.588,104.12300000000002,175,75
2026-05-09 16:12:03.290,3,-0.46,-0.24,1.2,141.744,84.318,86.99300000000001,175,75
2026-05-09 16:12:03.303,3,-0.55,-0.13,1.03,125.274,91.63799999999999,89.733,175,75
2026-05-09 16:12:03.343,3,-0.82,-0.16,1.04,104.364,110.538,65.10300000000001,175,75
2026-05-09 16:12:03.354,3,-0.99,-0.11,1.2,100.274,128.40800000000002,51.263000000000005,175,75
2026-05-09 16:12:03.365,3,-0.62,-0.25,1.4,31.194000000000003,10.228,-34.167,175,75
2026-05-09 16:12:03.405,3,-0.14,0.25,0.97,-108.746,-40.44199999999999,-116.607,175,75
2026-05-09 16:12:03.411,3,-0.04,0.29,1.04,-140.45600000000002,-75.922,-128.797,175,75
2026-05-09 16:12:03.441,3,0.32,0.36,1.03,-214.176,-130.56199999999998,-148.127,175,75
2026-05-09 16:12:03.467,3,0.54,0.32,0.87,-252.226,-164.952,-150.817,175,75
2026-05-09 16:12:03.481,3,0.76,0.33,0.72,-278.506,-185.56199999999998,-153.677,175,75
2026-05-09 16:12:03.508,3,0.9,0.08,0.4,-329.17600000000004,-73.97200000000001,-154.347,175,75
2026-05-09 16:12:03.508,3,0.82,-0.2,0.58,-337.89599999999996,-44.032,-183.067,175,75
2026-05-09 16:12:03.527,3,0.7,-0.2,1.21,-330.456,-6.231999999999999,-198.557,175,75
2026-05-09 16:12:03.550,3,-1.79,0.87,2.14,-278.80600000000004,161.99800000000002,-90.017,175,75
2026-05-09 16:12:03.550,3,-1.84,0.75,0.55,-156.066,403.588,105.043,175,75
2026-05-09 16:12:03.567,3,1.17,-0.21,4.82,249.72400000000002,-3.6119999999999997,-137.217,175,75
2026-05-09 16:12:03.568,3,-3.74,2.75,5.73,219.184,288.708,195.163,175,75
2026-05-09 16:12:03.578,3,5.68,-1.38,4.44,154.364,-369.162,-24.657,175,75
2026-05-09 16:12:03.601,3,-1.7,0.11,0.66,-231.976,-848.612,243.093,175,75
2026-05-09 16:12:03.611,3,-4.03,0.56,-1.47,-229.476,210.83800000000002,90.833,175,75
2026-05-09 16:12:03.643,3,-0.16,-0.77,0.82,136.744,-11.052,81.38300000000001,175,75
2026-05-09 16:12:03.655,3,-0.23,-0.36,1.17,55.153999999999996,126.878,87.903,175,75
2026-05-09 16:12:03.668,3,0.13,-0.63,1.86,101.194,44.80800000000001,29.673,175,75
2026-05-09 16:12:03.668,3,-0.01,-0.44,2.1,40.094,-10.312,40.52300000000001,175,75
2026-05-09 16:12:03.687,3,-0.55,-0.21,0.89,26.744,-27.882,16.743,175,75
2026-05-09 16:12:03.698,3,-0.31,-0.18,1.09,38.934000000000005,24.868,3.0230000000000032,175,75
2026-05-09 16:12:03.717,3,-0.3,-0.12,1.48,25.764000000000003,21.578,4.003,175,75
2026-05-09 16:12:03.717,3,-0.29,-0.14,1.62,14.544,-7.692,-6.427,175,75
2026-05-09 16:12:03.766,3,-0.0,-0.28,1.1,-17.406,-40.501999999999995,-21.976999999999997,175,75
2026-05-09 16:12:03.766,3,0.07,-0.36,1.01,-15.875999999999998,-27.142,-25.386999999999997,175,75
2026-05-09 16:12:03.787,3,0.3,-0.42,1.02,-3.195999999999998,-10.312,-27.156999999999996,175,75
2026-05-09 16:12:03.807,3,0.43,-0.46,1.06,-2.035999999999998,-12.452,-23.866999999999997,175,75
2026-05-09 16:12:03.807,3,0.47,-0.43,1.04,-3.1359999999999975,-14.642,-21.976999999999997,175,75
2026-05-09 16:12:03.818,3,0.52,-0.35,1.0,0.03400000000000247,-13.182,-19.346999999999998,175,75
2026-05-09 16:12:03.818,3,0.56,-0.28,0.97,5.944000000000003,-15.192,-12.276999999999997,175,75
2026-05-09 16:12:03.829,3,0.55,-0.21,0.9,8.574000000000002,-28.122,-6.296999999999997,175,75
2026-05-09 16:12:03.840,3,0.54,-0.13,0.69,10.764000000000003,-51.292,-0.8769999999999989,175,75
2026-05-09 16:12:03.851,3,0.54,-0.05,0.3,27.834000000000003,-48.792,8.513000000000002,175,75
2026-05-09 16:12:03.874,3,0.64,-0.12,0.3,98.444,35.418000000000006,36.563,175,75
2026-05-09 16:12:03.901,3,0.51,-0.17,0.69,146.494,91.818,61.503,175,75
2026-05-09 16:12:03.911,3,0.42,-0.17,0.78,177.41400000000002,123.038,75.403,175,75
2026-05-09 16:12:03.919,3,0.27,-0.0,0.85,201.074,139.018,90.223,175,75
2026-05-09 16:12:03.932,3,0.12,0.22,1.11,220.764,170.65800000000002,106.13300000000001,175,75
2026-05-09 16:12:03.955,3,0.02,0.16,1.81,221.434,148.52800000000002,144.31300000000002,175,75
2026-05-09 16:12:03.966,3,-0.21,-0.01,1.9,200.274,111.99799999999999,145.163,175,75
2026-05-09 16:12:03.966,3,-0.39,-0.04,1.8,178.024,86.448,136.743,175,75
2026-05-09 16:12:03.992,3,-0.56,0.27,1.3,145.334,41.028000000000006,94.613,175,75
2026-05-09 16:12:04.015,3,-0.37,0.39,1.1,124.124,44.257999999999996,87.35300000000001,175,75
2026-05-09 16:12:04.026,3,-0.11,0.36,1.01,94.124,15.538,62.66300000000001,175,75
2026-05-09 16:12:04.036,3,-0.08,0.48,0.76,55.214,9.868,39.983000000000004,175,75
2026-05-09 16:12:04.036,3,0.03,0.77,0.62,20.644000000000005,5.9079999999999995,5.043000000000003,175,75
2026-05-09 16:12:04.064,3,-0.02,0.95,0.66,-44.416,30.477999999999998,-43.257,175,75
2026-05-09 16:12:04.073,3,0.23,0.67,0.77,-117.226,-100.19200000000001,-157.827,175,75
2026-05-09 16:12:04.093,3,0.43,0.65,0.76,-178.076,-119.462,-207.707,175,75
2026-05-09 16:12:04.110,3,0.36,0.78,0.83,-245.146,-154.402,-230.207,175,75
2026-05-09 16:12:04.123,3,-4.4,1.73,1.63,-176.556,409.618,-84.477,175,75
2026-05-09 16:12:04.162,3,0.0,-4.19,7.14,329.244,-1174.462,-397.03700000000003,175,75
2026-05-09 16:12:04.171,3,3.82,0.31,0.09,-615.206,-979.402,94.733,175,75
2026-05-09 16:12:04.183,3,-4.2,2.5,-1.71,-841.856,-183.06199999999998,39.063,175,75
2026-05-09 16:12:04.207,3,-0.17,3.0,-2.15,-379.78599999999994,287.428,-339.71700000000004,175,75
2026-05-09 16:12:04.219,3,-0.06,0.4,-0.57,139.184,224.318,93.94300000000001,175,75
2026-05-09 16:12:04.230,3,-0.95,-0.71,-0.02,152.354,405.228,-60.266999999999996,175,75
2026-05-09 16:12:04.242,3,0.24,-0.69,3.73,153.814,356.938,-34.407,175,75
2026-05-09 16:12:04.255,3,0.81,-0.34,3.15,-66.246,-57.022000000000006,-83.987,175,75
2026-05-09 16:12:04.287,3,-0.25,0.12,0.61,-85.206,-261.05199999999996,20.163,175,75
2026-05-09 16:12:04.299,3,0.23,-0.16,-0.25,-33.016,-107.812,10.343,175,75
2026-05-09 16:12:04.321,3,0.55,0.07,0.14,16.684000000000005,10.228,27.783000000000005,175,75
2026-05-09 16:12:04.321,3,0.67,0.14,0.67,30.584000000000003,30.837999999999997,46.32300000000001,175,75
2026-05-09 16:12:04.332,3,0.7,0.02,0.96,47.354,7.248000000000001,56.563,175,75
2026-05-09 16:12:04.356,3,0.97,-0.37,0.98,124.97399999999999,16.268,81.203,175,75
2026-05-09 16:12:04.384,3,0.92,-0.42,1.22,159.854,39.80800000000001,85.71300000000001,175,75
2026-05-09 16:12:04.384,3,0.57,-0.46,1.22,157.964,51.388000000000005,94.673,175,75
2026-05-09 16:12:04.408,3,0.09,-0.6,1.15,166.864,113.158,100.043,175,75
2026-05-09 16:12:04.432,3,-0.2,-0.44,1.25,168.204,145.77800000000002,101.503,175,75
2026-05-09 16:12:04.433,3,-0.28,-0.29,1.37,161.314,149.258,106.13300000000001,175,75
2026-05-09 16:12:04.442,3,-0.58,-0.17,1.44,147.294,131.93800000000002,105.463,175,75
2026-05-09 16:12:04.443,3,-0.58,-0.18,1.43,127.594,138.828,88.82300000000001,175,75
2026-05-09 16:12:04.459,3,-0.64,-0.09,1.43,105.944,142.24800000000002,75.77300000000001,175,75
2026-05-09 16:12:04.469,3,-0.72,-0.01,1.37,90.824,126.08800000000001,57.293000000000006,175,75
2026-05-09 16:12:04.481,3,-0.67,0.08,1.34,74.184,87.488,14.553,175,75
2026-05-09 16:12:04.491,3,-0.68,0.36,1.37,56.31400000000001,84.688,-8.316999999999998,175,75
2026-05-09 16:12:04.502,3,-0.52,0.41,1.34,29.244,69.988,-9.406999999999998,175,75
2026-05-09 16:12:04.505,3,-0.34,0.33,1.34,3.144000000000002,21.388,-28.557,175,75
2026-05-09 16:12:04.520,3,-0.34,0.4,1.17,-42.406,-48.30200000000001,-67.277,175,75
2026-05-09 16:12:04.533,3,-0.23,0.53,1.03,-74.29599999999999,-81.232,-89.347,175,75
2026-05-09 16:12:04.533,3,-0.03,0.61,0.95,-103.68599999999999,-117.69200000000001,-110.75699999999999,175,75
2026-05-09 16:12:04.578,3,0.52,0.48,0.82,-204.596,-168.182,-156.847,175,75
2026-05-09 16:12:04.591,3,0.3,0.28,1.06,-242.096,-204.952,-208.737,175,75
2026-05-09 16:12:04.600,3,0.47,0.93,1.39,-296.42600000000004,-104.83200000000001,-206.367,175,75
2026-05-09 16:12:04.626,3,-1.61,0.8,1.09,-257.64599999999996,108.098,-108.987,175,75
2026-05-09 16:12:04.637,3,-0.32,0.07,1.95,-183.376,-4.162,-129.657,175,75
2026-05-09 16:12:04.641,3,0.34,-0.85,1.98,-163.316,-181.41199999999998,-205.93699999999998,175,75
2026-05-09 16:12:04.655,3,-0.73,0.4,1.28,-209.536,6.518000000000001,-114.347,175,75
2026-05-09 16:12:04.670,3,-1.46,0.64,2.24,-49.786,333.708,-19.346999999999998,175,75
2026-05-09 16:12:04.684,3,-1.17,0.45,4.16,208.574,297.668,37.35300000000001,175,75
2026-05-09 16:12:04.684,3,2.0,-0.59,3.26,99.724,-252.452,-97.517,175,75
2026-05-09 16:12:04.696,3,1.01,0.96,1.01,-153.86599999999999,-435.132,24.063,175,75
2026-05-09 16:12:04.708,3,0.24,1.51,0.15,32.534,166.448,12.903000000000002,175,75
2026-05-09 16:12:04.719,3,0.45,0.2,1.37,43.694,-33.302,82.903,175,75
2026-05-09 16:12:04.743,3,-0.23,-0.69,1.05,16.434000000000005,-10.682,54.373000000000005,175,75
2026-05-09 16:12:04.771,3,0.25,-0.31,0.8,8.754000000000001,-33.422,19.983,175,75
2026-05-09 16:12:04.784,3,0.12,-0.17,0.67,32.654,46.268,29.923,175,75
2026-05-09 16:12:04.797,3,0.13,-0.3,0.89,48.144000000000005,79.688,22.053,175,75
2026-05-09 16:12:04.808,3,0.08,-0.29,1.14,50.153999999999996,91.328,15.103000000000005,175,75
2026-05-09 16:12:04.821,3,-0.04,-0.27,1.37,45.214,84.80799999999999,19.553,175,75
2026-05-09 16:12:04.828,3,-0.08,-0.38,1.6,39.484,65.048,21.263,175,75
2026-05-09 16:12:04.837,3,-0.03,-0.46,1.76,27.224000000000004,27.248,20.653000000000002,175,75
2026-05-09 16:12:04.848,3,0.03,-0.46,1.78,7.714000000000002,-20.982,16.933000000000003,175,75
2026-05-09 16:12:04.858,3,0.06,-0.34,1.55,-9.725999999999999,-54.342,16.013,175,75
2026-05-09 16:12:04.872,3,0.12,-0.42,1.41,-12.165999999999997,-50.861999999999995,12.113000000000003,175,75
2026-05-09 16:12:04.882,3,0.23,-0.51,1.39,-16.555999999999997,-43.122,7.7230000000000025,175,75
2026-05-09 16:12:04.893,3,0.21,-0.5,1.31,-20.875999999999998,-52.94199999999999,1.3830000000000027,175,75
2026-05-09 16:12:04.904,3,0.01,-0.48,0.92,-23.566,-39.772000000000006,-4.407,175,75
2026-05-09 16:12:04.919,3,-0.01,-0.46,0.78,-17.035999999999998,-25.442,-8.496999999999998,175,75
2026-05-09 16:12:04.934,3,0.19,-0.4,0.82,-8.315999999999997,-15.862,-10.686999999999998,175,75
2026-05-09 16:12:04.941,3,0.49,-0.22,0.92,-6.555999999999997,-36.721999999999994,-6.177,175,75
2026-05-09 16:12:04.955,3,0.59,-0.12,0.9,-6.365999999999998,-65.072,8.633,175,75
2026-05-09 16:12:04.967,3,0.66,-0.19,0.72,-2.6459999999999972,-95.922,21.623,175,75
2026-05-09 16:12:04.979,3,0.65,-0.22,0.46,13.694000000000003,-100.802,28.763,175,75
2026-05-09 16:12:04.991,3,0.67,-0.18,0.39,41.074000000000005,-63.611999999999995,38.393,175,75
2026-05-09 16:12:05.004,3,0.88,-0.2,0.53,74.054,-32.141999999999996,42.723,175,75
2026-05-09 16:12:05.015,3,0.66,-0.16,0.7,107.474,9.198,60.833,175,75
2026-05-09 16:12:05.025,3,0.5,-0.17,0.88,138.934,69.318,77.60300000000001,175,75
2026-05-09 16:12:05.035,3,0.37,-0.2,0.97,167.654,111.578,95.043,175,75
2026-05-09 16:12:05.048,3,0.16,-0.04,1.01,188.874,130.538,111.87300000000002,175,75
2026-05-09 16:12:05.059,3,0.01,0.18,1.29,217.474,167.978,124.00300000000001,175,75
2026-05-09 16:12:05.072,3,0.03,0.24,1.76,225.824,172.11800000000002,148.393,175,75
2026-05-09 16:12:05.088,3,0.07,0.09,2.02,207.594,123.88799999999999,155.103,175,75
2026-05-09 16:12:05.104,3,-0.49,0.05,1.62,158.144,-28.242,97.05300000000001,175,75
2026-05-09 16:12:05.146,3,-0.2,0.4,1.11,81.134,-40.19199999999999,67.483,175,75
2026-05-09 16:12:05.159,3,-0.26,0.72,0.85,45.944,-25.562,40.043000000000006,175,75
2026-05-09 16:12:05.172,3,-0.11,0.82,0.84,22.224000000000004,-35.80200000000001,3.1530000000000022,175,75
2026-05-09 16:12:05.185,3,0.02,0.88,0.82,-9.965999999999998,-54.772000000000006,-35.077,175,75
2026-05-09 16:12:05.195,3,-0.1,1.0,0.69,-63.256,-38.361999999999995,-69.717,175,75
2026-05-09 16:12:05.205,3,0.1,1.05,0.58,-121.126,-45.19199999999999,-125.627,175,75
2026-05-09 16:12:05.215,3,0.71,1.04,0.54,-169.236,-90.312,-176.427,175,75
2026-05-09 16:12:05.231,3,0.6,0.87,0.79,-196.976,-125.992,-188.257,175,75
2026-05-09 16:12:05.231,3,0.59,0.5,1.04,-235.516,-129.222,-225.207,175,75
2026-05-09 16:12:05.243,3,0.63,0.44,1.31,-284.17600000000004,-158.732,-250.817,175,75
2026-05-09 16:12:05.255,3,-1.39,1.41,2.19,-265.336,37.248000000000005,-204.71699999999998,175,75
2026-05-09 16:12:05.268,3,-5.91,2.08,2.86,-184.236,490.658,3.1530000000000022,175,75
2026-05-09 16:12:05.278,3,-2.33,-0.02,6.61,283.81399999999996,399.13800000000003,187.053,175,75
2026-05-09 16:12:05.285,3,-2.71,-2.03,7.65,451.014,-516.232,-87.947,175,75
2026-05-09 16:12:05.321,3,-3.5,2.46,-2.61,-641.306,27.428,-32.457,175,75
2026-05-09 16:12:05.333,3,1.32,2.86,-2.57,-218.196,320.908,-282.767,175,75
2026-05-09 16:12:05.344,3,1.54,2.7,0.67,128.574,389.318,64.733,175,75
2026-05-09 16:12:05.366,3,-0.22,-1.45,2.18,154.794,244.74800000000002,-47.827,175,75
2026-05-09 16:12:05.376,3,0.41,-1.76,3.5,73.20400000000001,166.328,-36.547,175,75
2026-05-09 16:12:05.400,3,0.76,0.28,1.71,-84.90599999999999,-290.74199999999996,17.173,175,75
2026-05-09 16:12:05.412,3,0.32,0.02,-0.16,-75.396,-208.91199999999998,24.923,175,75
2026-05-09 16:12:05.424,3,0.67,-0.11,-0.64,-11.485999999999997,-95.44200000000001,29.063,175,75
2026-05-09 16:12:05.434,3,0.84,-0.28,-0.58,83.20400000000001,91.088,32.35300000000001,175,75
2026-05-09 16:12:05.437,3,1.17,-0.22,0.49,137.41400000000002,182.608,46.873000000000005,175,75
2026-05-09 16:12:05.451,3,1.3,-0.14,1.39,150.764,138.21800000000002,63.093,175,75
2026-05-09 16:12:05.461,3,1.16,-0.05,1.67,142.834,59.867999999999995,80.653,175,75
2026-05-09 16:12:05.492,3,0.27,-0.23,1.05,149.604,16.878,135.523,175,75
2026-05-09 16:12:05.513,3,-0.32,-0.8,1.06,169.184,107.85799999999999,147.293,175,75
2026-05-09 16:12:05.524,3,-0.49,-0.85,1.17,164.854,120.478,119.733,175,75
2026-05-09 16:12:05.551,3,-0.61,-0.26,1.19,134.304,122.548,42.293000000000006,175,75
2026-05-09 16:12:05.580,3,-0.84,0.14,1.2,104.544,120.35799999999999,-13.736999999999998,175,75
2026-05-09 16:12:05.589,3,-0.93,0.45,1.34,93.81400000000001,110.16799999999999,-46.486999999999995,175,75
2026-05-09 16:12:05.616,3,-0.8,0.5,1.48,61.554,83.948,-56.667,175,75
2026-05-09 16:12:05.626,3,-0.65,0.46,1.43,27.834000000000003,36.208,-80.447,175,75
2026-05-09 16:12:05.638,3,-0.67,0.58,1.18,-8.505999999999998,-1.1119999999999997,-105.817,175,75
2026-05-09 16:12:05.665,3,-0.5,0.54,0.99,-69.906,-6.112,-138.987,175,75
2026-05-09 16:12:05.677,3,-0.47,0.46,1.02,-88.806,-29.162,-162.097,175,75
2026-05-09 16:12:05.691,3,-0.34,0.45,1.01,-125.456,-44.772000000000006,-185.267,175,75
2026-05-09 16:12:05.743,3,0.74,0.29,0.84,-271.486,-163.302,-218.43699999999998,175,75
2026-05-09 16:12:05.772,3,-0.06,0.6,-0.33,-289.53599999999994,-18.732,-186.237,175,75
2026-05-09 16:12:05.783,3,-1.02,0.77,0.06,-235.876,272.918,-140.937,175,75
2026-05-09 16:12:05.832,3,-1.66,1.35,6.01,219.544,265.048,42.113,175,75
2026-05-09 16:12:05.843,3,1.5,0.86,5.56,103.024,-293.61199999999997,10.593,175,75
2026-05-09 16:12:05.855,3,-2.74,0.74,-1.25,-193.256,-238.06199999999998,63.093,175,75
2026-05-09 16:12:05.855,3,0.17,0.55,-1.59,-43.566,81.63799999999999,-16.177,175,75
2026-05-09 16:12:05.866,3,0.8,-0.16,-0.35,86.014,40.048,54.063,175,75
2026-05-09 16:12:05.876,3,-0.16,-1.41,0.26,96.434,105.838,81.813,175,75
2026-05-09 16:12:05.901,3,0.32,-0.51,1.52,102.044,177.24800000000002,-11.056999999999999,175,75
2026-05-09 16:12:05.912,3,0.75,-0.46,1.95,64.604,71.63799999999999,27.843,175,75
2026-05-09 16:12:05.923,3,0.2,-0.47,1.59,40.764,-1.4119999999999997,35.403000000000006,175,75
2026-05-09 16:12:05.969,3,0.01,-0.27,1.79,41.804,54.688,-7.216999999999999,175,75
2026-05-09 16:12:05.969,3,-0.03,-0.25,1.84,21.134,21.088,-18.866999999999997,175,75
2026-05-09 16:12:05.994,3,-0.31,-0.13,1.3,-5.945999999999998,-0.2519999999999998,-35.147,175,75
2026-05-09 16:12:06.007,3,-0.31,-0.18,1.14,-10.875999999999998,24.378,-40.937,175,75
2026-05-09 16:12:06.018,3,-0.17,-0.26,1.21,-13.505999999999998,28.408,-47.397,175,75
2026-05-09 16:12:06.035,3,-0.04,-0.29,1.26,-17.706,16.388,-54.777,175,75
2026-05-09 16:12:06.045,3,0.08,-0.29,1.19,-21.246,0.5980000000000003,-59.407,175,75
2026-05-09 16:12:06.057,3,0.15,-0.29,1.02,-26.676,-1.4119999999999997,-61.117000000000004,175,75
2026-05-09 16:12:06.068,3,0.2,-0.24,0.92,-23.505999999999997,15.777999999999999,-59.956999999999994,175,75
2026-05-09 16:12:06.077,3,0.28,-0.22,0.95,-18.625999999999998,26.148,-57.096999999999994,175,75
2026-05-09 16:12:06.091,3,0.34,-0.08,1.01,-13.505999999999998,34.438,-55.447,175,75
2026-05-09 16:12:06.103,3,0.42,0.04,1.04,-8.985999999999997,37.668000000000006,-52.706999999999994,175,75
2026-05-09 16:12:06.103,3,0.42,0.17,1.03,-4.475999999999997,38.038,-43.376999999999995,175,75
2026-05-09 16:12:06.114,3,0.44,0.23,0.98,3.5740000000000016,39.928,-32.157,175,75
2026-05-09 16:12:06.154,3,0.4,0.25,0.82,61.744,28.948,19.793000000000003,175,75
2026-05-09 16:12:06.165,3,0.24,0.38,0.78,80.944,49.688,36.503,175,75
2026-05-09 16:12:06.165,3,0.16,0.4,0.92,111.684,84.318,59.373000000000005,175,75
2026-05-09 16:12:06.219,3,-0.35,0.06,1.82,172.354,54.438,190.34300000000002,175,75
2026-05-09 16:12:06.225,3,-0.45,-0.05,1.98,155.094,-6.662,201.87300000000002,175,75
2026-05-09 16:12:06.235,3,-0.68,0.07,1.89,120.03399999999999,-48.122,206.013,175,75
2026-05-09 16:12:06.258,3,-0.56,0.17,1.19,91.804,-95.312,177.723,175,75
2026-05-09 16:12:06.269,3,-0.48,0.34,0.92,79.304,-81.72200000000001,165.34300000000002,175,75
2026-05-09 16:12:06.283,3,-0.5,0.49,0.71,66.864,-60.072,156.133,175,75
2026-05-09 16:12:06.295,3,-0.47,0.43,0.61,56.684,-47.022000000000006,130.34300000000002,175,75
2026-05-09 16:12:06.307,3,-0.2,0.42,0.56,28.084000000000003,-20.382,100.16300000000001,175,75
2026-05-09 16:12:06.323,3,-0.14,0.46,0.46,-1.9159999999999986,14.078,78.763,175,75
2026-05-09 16:12:06.336,3,0.03,0.64,0.55,-27.465999999999998,35.048,46.07300000000001,175,75
2026-05-09 16:12:06.348,3,0.26,0.89,0.81,-66.186,-7.752,7.4830000000000005,175,75
2026-05-09 16:12:06.358,3,0.61,1.01,0.9,-98.446,-48.361999999999995,-24.287,175,75
2026-05-09 16:12:06.368,3,0.52,1.07,0.92,-145.876,-54.162000000000006,-48.797,175,75
2026-05-09 16:12:06.379,3,-0.76,1.61,1.49,-170.206,57.488,-28.866999999999997,175,75
2026-05-09 16:12:06.390,3,-1.21,1.6,2.18,-171.246,101.99799999999999,-24.776999999999997,175,75
2026-05-09 16:12:06.403,3,-1.74,1.26,3.89,-84.176,83.158,-21.366999999999997,175,75
2026-05-09 16:12:06.413,3,-1.99,0.46,5.63,-0.20599999999999952,-61.05200000000001,22.113000000000003,175,75
2026-05-09 16:12:06.423,3,-0.11,-1.51,5.91,-52.096,-380.132,-33.557,175,75
2026-05-09 16:12:06.423,3,3.09,-2.22,3.01,-314.356,-719.582,-91.607,175,75
2026-05-09 16:12:06.436,3,-0.16,-0.73,0.03,-448.01599999999996,-727.632,-4.837,175,75
2026-05-09 16:12:06.446,3,-1.44,-0.19,-1.84,-346.486,-40.19199999999999,-110.267,175,75
2026-05-09 16:12:06.492,3,-0.02,0.1,0.78,41.434000000000005,424.318,-63.867000000000004,175,75
2026-05-09 16:12:06.504,3,0.26,-0.24,1.83,86.624,269.808,-38.986999999999995,175,75
2026-05-09 16:12:06.551,3,0.45,0.14,1.82,-69.476,-216.78199999999998,-14.896999999999998,175,75
2026-05-09 16:12:06.576,3,0.68,-0.26,0.03,31.684000000000005,-42.022000000000006,38.153000000000006,175,75
2026-05-09 16:12:06.591,3,0.61,-0.27,0.08,56.684,-2.272,51.44300000000001,175,75
2026-05-09 16:12:06.627,3,0.76,-0.65,0.91,106.624,-9.952,99.613,175,75
2026-05-09 16:12:06.638,3,0.35,-0.71,0.86,107.774,-17.512,104.18299999999999,175,75
2026-05-09 16:12:06.670,3,-0.39,-0.46,1.56,122.29400000000001,72.118,56.07300000000001,175,75
2026-05-09 16:12:06.681,3,-0.53,-0.1,1.61,118.63400000000001,91.63799999999999,56.07300000000001,175,75
2026-05-09 16:12:06.702,3,-0.66,0.09,1.65,110.824,102.728,57.483000000000004,175,75
2026-05-09 16:12:06.702,3,-0.73,0.2,1.57,104.424,99.438,41.503,175,75
2026-05-09 16:12:06.712,3,-0.77,0.39,1.38,95.884,107.05799999999999,23.393000000000004,175,75
2026-05-09 16:12:06.757,3,-0.57,1.17,1.23,72.104,162.978,-53.31699999999999,175,75
2026-05-09 16:12:06.784,3,-0.64,1.4,1.27,65.09400000000001,155.298,-66.487,175,75
2026-05-09 16:12:06.828,3,0.06,1.01,1.21,-2.285999999999998,78.338,-147.707,175,75
2026-05-09 16:12:06.841,3,0.09,0.78,1.25,-21.915999999999997,61.208,-183.797,175,75
2026-05-09 16:12:06.850,3,0.29,0.72,1.12,-41.426,54.007999999999996,-194.167,175,75
2026-05-09 16:12:06.884,3,-0.42,1.0,1.18,-64.356,133.21800000000002,-236.847,175,75
2026-05-09 16:12:06.884,3,-1.31,1.32,1.81,-36.006,295.778,-159.957,175,75
2026-05-09 16:12:06.896,3,-0.97,0.82,3.66,100.404,253.768,-113.86699999999999,175,75
2026-05-09 16:12:06.908,3,-1.57,0.32,5.14,196.194,117.118,-79.89699999999999,175,75
2026-05-09 16:12:06.919,3,0.92,-1.59,4.83,143.324,-151.78199999999998,-136.297,175,75
2026-05-09 16:12:06.932,3,2.87,-1.67,1.73,-158.256,-470.80199999999996,-188.987,175,75
2026-05-09 16:12:06.943,3,-2.7,0.27,-1.48,-268.13599999999997,-198.552,-38.927,175,75
2026-05-09 16:12:06.980,3,0.3,-0.02,1.28,21.014000000000003,161.93800000000002,-28.927,175,75
2026-05-09 16:12:07.001,3,0.65,-0.08,1.7,43.384,92.548,-10.756999999999998,175,75
2026-05-09 16:12:07.001,3,0.52,0.05,1.73,13.264000000000003,31.028000000000002,7.053000000000001,175,75
2026-05-09 16:12:07.012,3,0.26,0.19,1.59,6.494000000000003,12.488,3.453000000000003,175,75
2026-05-09 16:12:07.023,3,0.43,0.18,1.65,7.1640000000000015,20.168,8.333000000000002,175,75
2026-05-09 16:12:07.034,3,0.55,0.07,1.63,-1.9759999999999973,-15.072,12.663,175,75
2026-05-09 16:12:07.039,3,0.27,-0.04,1.28,-4.9659999999999975,-33.482,7.4830000000000005,175,75
2026-05-09 16:12:07.062,3,0.09,-0.17,0.84,11.194000000000003,5.1080000000000005,-0.6269999999999989,175,75
2026-05-09 16:12:07.062,3,-0.18,-0.15,0.74,19.054000000000002,54.378,-8.556999999999999,175,75
2026-05-09 16:12:07.076,3,-0.29,-0.1,1.03,24.184000000000005,97.85799999999999,-14.286999999999999,175,75
2026-05-09 16:12:07.102,3,-0.45,-0.31,1.35,0.5840000000000032,36.208,-17.706999999999997,175,75
2026-05-09 16:12:07.113,3,-0.28,-0.38,1.33,-10.575999999999997,9.618,-34.407,175,75
2026-05-09 16:12:07.123,3,-0.06,-0.39,1.31,-18.195999999999998,2.548,-37.157,175,75
2026-05-09 16:12:07.138,3,0.15,-0.48,1.24,-23.016,4.008,-40.077,175,75
2026-05-09 16:12:07.151,3,0.28,-0.54,1.14,-22.465999999999998,17.668,-47.337,175,75
2026-05-09 16:12:07.162,3,0.41,-0.53,1.03,-17.345999999999997,37.188,-52.516999999999996,175,75
2026-05-09 16:12:07.181,3,0.52,-0.44,0.98,-2.9559999999999977,76.448,-51.667,175,75
2026-05-09 16:12:07.203,3,0.59,-0.36,1.14,14.544,85.16799999999999,-44.477,175,75
2026-05-09 16:12:07.243,3,0.6,-0.25,0.54,35.824000000000005,22.608,-19.107,175,75
2026-05-09 16:12:07.255,3,0.71,-0.3,0.57,121.804,90.478,-4.476999999999997,175,75
2026-05-09 16:12:07.269,3,0.54,-0.38,0.65,152.224,120.10799999999999,2.7830000000000013,175,75
2026-05-09 16:12:07.280,3,0.19,-0.39,0.63,188.38400000000001,167.428,14.312999999999999,175,75
2026-05-09 16:12:07.299,3,-0.58,0.22,1.09,283.57399999999996,290.418,35.71300000000001,175,75
2026-05-09 16:12:07.311,3,-0.59,0.53,1.74,303.81399999999996,299.498,63.27300000000001,175,75
2026-05-09 16:12:07.321,3,-0.35,0.41,2.06,286.494,250.90800000000002,75.953,175,75
2026-05-09 16:12:07.332,3,-0.34,0.45,2.18,231.864,166.638,107.963,175,75
2026-05-09 16:12:07.347,3,-0.71,0.69,1.88,197.224,86.508,129.983,175,75
2026-05-09 16:12:07.357,3,-1.03,0.76,1.53,182.714,48.218,140.103,175,75
2026-05-09 16:12:07.370,3,-0.45,0.53,0.88,133.144,-36.471999999999994,97.66300000000001,175,75
2026-05-09 16:12:07.386,3,-0.26,0.62,0.62,103.574,-30.922,84.613,175,75
2026-05-09 16:12:07.403,3,-0.0,0.71,0.49,73.934,-72.572,67.113,175,75
2026-05-09 16:12:07.403,3,0.01,0.75,0.44,48.994,-94.402,38.943,175,75
2026-05-09 16:12:07.414,3,-0.08,0.87,0.24,13.754000000000001,-82.39200000000001,8.633,175,75
2026-05-09 16:12:07.427,3,0.05,1.1,0.03,-20.516,-40.562,-11.666999999999998,175,75
2026-05-09 16:12:07.438,3,-0.14,1.24,0.08,-57.586,8.768,-31.116999999999997,175,75
2026-05-09 16:12:07.448,3,0.09,1.01,0.3,-106.616,-23.242,-94.597,175,75
2026-05-09 16:12:07.461,3,0.28,0.86,0.39,-158.986,-58.732,-164.227,175,75
2026-05-09 16:12:07.471,3,0.47,0.99,0.27,-228.626,-14.642,-163.617,175,75
2026-05-09 16:12:07.481,3,-1.17,1.52,1.31,-217.036,163.40800000000002,-129.407,175,75
2026-05-09 16:12:07.492,3,-4.17,1.98,2.61,-134.906,473.338,13.633,175,75
2026-05-09 16:12:07.504,3,-3.08,1.26,5.84,141.314,436.208,109.613,175,75
2026-05-09 16:12:07.515,3,-1.96,-1.86,8.53,423.93399999999997,-313.30199999999996,-0.5069999999999979,175,75
2026-05-09 16:12:07.527,3,0.75,-3.14,7.09,-39.476,-708.062,-229.777,175,75
2026-05-09 16:12:07.541,3,-1.55,0.78,0.35,-637.956,-755.622,8.023,175,75
2026-05-09 16:12:07.555,3,-3.17,1.64,-1.72,-569.9060000000001,-267.142,-131.427,175,75
2026-05-09 16:12:07.567,3,2.39,0.12,-2.55,-96.676,-10.741999999999999,-169.167,175,75
2026-05-09 16:12:07.592,3,-0.79,-0.95,-0.73,10.334000000000003,438.588,-55.077,175,75
2026-05-09 16:12:07.618,3,0.41,-0.61,2.78,0.15400000000000347,139.078,-64.657,175,75
2026-05-09 16:12:07.628,3,0.94,-0.0,2.18,-82.286,-102.94200000000001,-51.117,175,75
2026-05-09 16:12:07.641,3,0.48,0.07,0.87,-68.98599999999999,-184.892,-9.956999999999999,175,75
2026-05-09 16:12:07.651,3,0.33,-0.03,0.24,-47.775999999999996,-109.64200000000001,2.9030000000000022,175,75
2026-05-09 16:12:07.663,3,0.39,0.03,0.16,-6.615999999999998,-16.232,11.992999999999999,175,75
2026-05-09 16:12:07.677,3,0.68,0.08,0.53,32.834,29.618,28.883,175,75
2026-05-09 16:12:07.687,3,0.7,-0.0,0.84,60.034000000000006,46.268,53.82300000000001,175,75
2026-05-09 16:12:07.700,3,0.72,-0.06,0.97,82.164,58.098,69.85300000000001,175,75
2026-05-09 16:12:07.722,3,0.51,0.0,1.18,106.074,64.318,96.38300000000001,175,75
2026-05-09 16:12:07.732,3,0.55,0.05,1.28,108.694,46.818,102.783,175,75
2026-05-09 16:12:07.743,3,0.57,0.19,1.37,114.124,22.728,119.553,175,75
2026-05-09 16:12:07.755,3,0.57,0.21,1.44,113.024,8.218,136.683,175,75
2026-05-09 16:12:07.755,3,0.39,0.04,1.44,99.794,-15.132,144.793,175,75
2026-05-09 16:12:07.767,3,0.23,-0.1,1.4,96.374,-45.19199999999999,134.923,175,75
2026-05-09 16:12:07.864,3,-0.22,0.35,1.55,11.014000000000003,5.3580000000000005,20.043000000000003,175,75
2026-05-09 16:12:07.875,3,-0.27,0.42,1.41,-4.665999999999999,-22.022,8.883,175,75
2026-05-09 16:12:07.887,3,-0.34,0.47,1.26,-11.305999999999997,-18.061999999999998,-12.646999999999998,175,75
2026-05-09 16:12:07.901,3,-0.41,0.5,1.22,-15.335999999999999,-12.512,-29.476999999999997,175,75
2026-05-09 16:12:07.924,3,-0.28,0.51,1.45,-13.985999999999997,19.808,-56.547,175,75
2026-05-09 16:12:07.948,3,-0.29,0.39,1.44,-15.575999999999997,12.428,-82.577,175,75
2026-05-09 16:12:07.959,3,-0.27,0.41,1.32,-19.116,32.918000000000006,-85.077,175,75
2026-05-09 16:12:07.959,3,-0.27,0.45,1.27,-16.305999999999997,60.298,-84.347,175,75
2026-05-09 16:12:07.969,3,-0.35,0.43,1.26,-10.205999999999998,94.618,-83.127,175,75
2026-05-09 16:12:07.981,3,-0.34,0.36,1.29,-5.275999999999998,118.338,-87.157,175,75
2026-05-09 16:12:08.015,3,-0.38,0.47,1.26,7.594000000000001,170.598,-94.107,175,75
2026-05-09 16:12:08.024,3,-0.35,0.62,1.43,19.184000000000005,171.268,-93.437,175,75
2026-05-09 16:12:08.036,3,-0.42,0.73,1.66,18.024,147.728,-83.92699999999999,175,75
2026-05-09 16:12:08.036,3,-0.29,0.67,1.68,7.2940000000000005,117.24799999999999,-82.157,175,75
2026-05-09 16:12:08.056,3,-0.03,0.6,1.58,-6.975999999999997,60.538,-80.327,175,75
2026-05-09 16:12:08.060,3,0.13,0.55,1.46,-21.066,8.588000000000001,-75.687,175,75
2026-05-09 16:12:08.077,3,-0.04,0.66,1.44,-28.315999999999995,1.2080000000000002,-66.607,175,75
2026-05-09 16:12:08.092,3,0.83,0.47,1.53,-60.336,-74.522,-64.957,175,75
2026-05-09 16:12:08.111,3,0.8,0.7,1.49,-81.79599999999999,-147.94199999999998,-65.207,175,75
2026-05-09 16:12:08.129,3,0.98,-1.2,0.9,-18.316,13.158,-8.126999999999999,175,75
2026-05-09 16:12:08.139,3,1.24,-2.71,0.57,-48.68599999999999,-107.512,-29.717,175,75
2026-05-09 16:12:08.151,3,-1.3,-1.06,0.22,-115.206,47.858000000000004,27.963000000000005,175,75
2026-05-09 16:12:08.171,3,0.57,-0.74,1.44,10.274000000000001,74.688,-45.016999999999996,175,75
2026-05-09 16:12:08.181,3,0.42,-0.69,1.61,-47.836,31.578,-4.536999999999999,175,75
2026-05-09 16:12:08.192,3,-0.38,-0.36,1.41,-46.366,33.337999999999994,-8.796999999999999,175,75
2026-05-09 16:12:08.203,3,0.12,-0.52,1.48,-49.355999999999995,19.928,-40.447,175,75
2026-05-09 16:12:08.216,3,0.05,-0.49,1.34,-68.506,17.918,-14.596999999999998,175,75
2026-05-09 16:12:08.241,3,0.15,-0.96,1.11,-67.646,53.587999999999994,-24.897,175,75
2026-05-09 16:12:08.252,3,0.37,-1.0,1.17,-66.006,50.298,-27.947,175,75
2026-05-09 16:12:08.263,3,0.47,-0.97,1.22,-71.186,30.837999999999997,-26.237,175,75
2026-05-09 16:12:08.279,3,0.85,-0.85,1.28,-83.68599999999999,-19.462,-20.567,175,75
2026-05-09 16:12:08.290,3,1.31,-0.74,1.38,-81.976,-66.47200000000001,-19.656999999999996,175,75
2026-05-09 16:12:08.301,3,1.49,-0.38,1.49,-63.925999999999995,-82.572,-13.926999999999998,175,75
2026-05-09 16:12:08.311,3,1.32,0.02,1.6,-27.465999999999998,-53.912000000000006,-0.5669999999999966,175,75
2026-05-09 16:12:08.328,3,1.21,0.2,1.54,-9.055999999999997,-40.80200000000001,16.013,175,75
2026-05-09 16:12:08.342,3,0.58,0.2,0.72,59.544,51.638000000000005,37.60300000000001,175,75
2026-05-09 16:12:08.368,3,0.19,-0.26,0.86,150.464,142.918,28.703,175,75
2026-05-09 16:12:08.387,3,0.13,-0.05,0.93,164.544,171.02800000000002,45.71300000000001,175,75
2026-05-09 16:12:08.433,3,0.83,0.3,3.25,227.044,-55.132000000000005,94.923,175,75
2026-05-09 16:12:08.450,3,0.83,0.52,2.39,173.264,-243.672,68.57300000000001,175,75
2026-05-09 16:12:08.466,3,0.54,0.44,1.92,172.354,-289.342,54.49300000000001,175,75
2026-05-09 16:12:08.476,3,0.38,0.26,1.48,167.774,-294.522,32.723,175,75
2026-05-09 16:12:08.483,3,0.14,0.18,1.05,149.484,-282.392,-4.046999999999997,175,75
2026-05-09 16:12:08.496,3,0.15,0.27,0.85,142.224,-239.16199999999998,-39.047,175,75
2026-05-09 16:12:08.509,3,0.42,0.33,0.96,126.01400000000001,-210.982,-74.28699999999999,175,75
2026-05-09 16:12:08.520,3,0.38,0.4,1.12,93.994,-212.88199999999998,-93.067,175,75
2026-05-09 16:12:08.556,3,-0.47,0.62,0.85,-70.696,-236.41199999999998,-154.65699999999998,175,75
2026-05-09 16:12:08.568,3,-0.07,0.6,0.95,-94.846,-225.31199999999998,-184.167,175,75
2026-05-09 16:12:08.578,3,0.31,0.58,1.04,-128.86599999999999,-174.03199999999998,-171.487,175,75
2026-05-09 16:12:08.589,3,-0.54,0.43,0.68,-148.506,-86.782,-156.117,175,75
2026-05-09 16:12:08.604,3,-1.1,0.48,0.14,-163.926,54.928,-164.597,175,75
2026-05-09 16:12:08.613,3,-6.56,2.41,2.1,-59.596,693.768,9.312999999999999,175,75
2026-05-09 16:12:08.613,3,-7.18,2.51,5.19,183.754,894.318,440.71299999999997,175,75
2026-05-09 16:12:08.635,3,1.86,-5.05,4.85,674.794,-378.36199999999997,-259.897,175,75
2026-05-09 16:12:08.705,3,1.06,-0.77,1.24,-126.916,-143.552,-4.837,175,75
2026-05-09 16:12:08.714,3,1.05,-0.67,0.66,-109.116,-99.64200000000001,68.703,175,75
2026-05-09 16:12:08.741,3,0.85,-0.84,-0.51,-34.666,68.828,-4.286999999999999,175,75
2026-05-09 16:12:08.751,3,1.0,-0.65,-0.49,28.514000000000003,215.168,-1.296999999999997,175,75
2026-05-09 16:12:08.763,3,0.75,-0.53,0.26,78.994,301.208,-11.236999999999998,175,75
2026-05-09 16:12:08.785,3,1.03,-0.38,1.6,152.294,292.248,9.613000000000003,175,75
2026-05-09 16:12:08.796,3,1.2,-0.45,1.92,169.304,250.71800000000002,9.853000000000005,175,75
2026-05-09 16:12:08.807,3,1.33,-0.47,1.72,168.084,176.758,5.953000000000003,175,75
2026-05-09 16:12:08.817,3,1.09,-0.35,1.11,165.154,170.77800000000002,-0.14699999999999847,175,75
2026-05-09 16:12:08.828,3,0.79,-0.04,1.09,194.124,226.268,-3.9869999999999983,175,75
2026-05-09 16:12:08.840,3,1.05,-0.05,1.59,216.924,258.94800000000004,0.043000000000002814,175,75
2026-05-09 16:12:08.892,3,0.68,0.31,2.65,199.424,18.708000000000002,3.6330000000000027,175,75
2026-05-09 16:12:08.904,3,0.84,-0.25,2.46,167.474,-87.882,-19.656999999999996,175,75
2026-05-09 16:12:08.929,3,0.37,-0.09,0.81,96.194,-85.382,-126.17699999999999,175,75
2026-05-09 16:12:08.939,3,0.32,0.02,0.98,98.20400000000001,-22.022,-142.767,175,75
2026-05-09 16:12:08.956,3,0.09,0.2,1.23,82.59400000000001,-16.352,-165.757,175,75
2026-05-09 16:12:08.989,3,-0.57,0.94,0.64,26.194000000000003,61.507999999999996,-214.287,175,75
2026-05-09 16:12:08.999,3,-0.73,1.08,0.57,18.634,101.148,-215.817,175,75
2026-05-09 16:12:09.042,3,-0.6,0.44,1.4,21.254000000000005,111.99799999999999,-203.257,175,75
2026-05-09 16:12:09.053,3,-0.87,0.07,0.93,-7.285999999999998,76.938,-195.077,175,75
2026-05-09 16:12:09.080,3,-1.07,0.58,0.06,-46.855999999999995,184.80800000000002,-140.817,175,75
2026-05-09 16:12:09.091,3,-1.1,0.9,0.05,-43.07599999999999,213.828,-80.267,175,75
2026-05-09 16:12:09.091,3,-1.08,1.02,0.17,-48.986,142.978,-51.177,175,75
2026-05-09 16:12:09.101,3,-1.23,1.31,0.35,-54.296,93.708,-20.267,175,75
2026-05-09 16:12:09.112,3,-1.14,1.48,0.38,-50.205999999999996,75.598,41.623000000000005,175,75
2026-05-09 16:12:09.126,3,-1.61,1.41,1.39,-34.416,-62.632000000000005,61.99300000000001,175,75
2026-05-09 16:12:09.142,3,-1.64,0.53,1.9,34.544000000000004,106.38799999999999,210.773,175,75
2026-05-09 16:12:09.155,3,-3.54,-1.85,0.35,-250.756,-203.302,218.633,175,75
2026-05-09 16:12:09.166,3,-0.2,-1.03,-0.16,-113.626,296.57800000000003,97.843,175,75
2026-05-09 16:12:09.192,3,-0.45,-0.0,1.56,-19.415999999999997,193.708,98.27300000000001,175,75
2026-05-09 16:12:09.203,3,-0.61,-0.16,1.47,2.9040000000000035,134.928,66.99300000000001,175,75
2026-05-09 16:12:09.214,3,-1.72,-0.09,1.42,-11.305999999999997,117.798,54.43300000000001,175,75
2026-05-09 16:12:09.226,3,-1.27,-0.23,1.62,-15.875999999999998,150.71800000000002,27.353000000000005,175,75
2026-05-09 16:12:09.236,3,-1.07,-0.42,2.09,-26.006,107.66799999999999,5.713000000000001,175,75
2026-05-09 16:12:09.248,3,-0.4,-0.64,2.51,-46.306,95.968,-36.236999999999995,175,75
2026-05-09 16:12:09.260,3,-0.07,-0.74,2.54,-69.666,58.888000000000005,-39.047,175,75
2026-05-09 16:12:09.285,3,0.2,-1.14,2.08,-96.246,57.977999999999994,-33.986999999999995,175,75
2026-05-09 16:12:09.296,3,0.64,-1.22,1.94,-99.356,59.138000000000005,-34.047,175,75
2026-05-09 16:12:09.307,3,1.02,-1.21,1.91,-105.206,53.587999999999994,-23.497,175,75
2026-05-09 16:12:09.317,3,1.5,-1.19,1.83,-112.226,1.9980000000000002,-10.626999999999999,175,75
2026-05-09 16:12:09.331,3,1.74,-1.21,1.85,-108.746,-24.462,-0.9969999999999999,175,75
2026-05-09 16:12:09.351,3,2.36,-0.91,1.27,-81.856,-97.882,-39.227,175,75
2026-05-09 16:12:09.362,3,1.26,-0.16,0.83,-53.925999999999995,16.758,-68.437,175,75
2026-05-09 16:12:09.378,3,0.53,0.57,1.02,31.434000000000005,202.548,-92.39699999999999,175,75
2026-05-09 16:12:09.387,3,1.05,0.22,1.44,125.03399999999999,254.688,-81.297,175,75
2026-05-09 16:12:09.401,3,0.73,-0.16,1.63,154.054,281.148,-49.107,175,75
2026-05-09 16:12:09.408,3,-0.25,0.39,1.86,180.524,315.358,-21.177,175,75
2026-05-09 16:12:09.423,3,0.55,0.38,2.89,257.59400000000005,191.87800000000001,56.44300000000001,175,75
2026-05-09 16:12:09.443,3,1.14,-0.26,3.28,277.96400000000006,23.158,31.993,175,75
2026-05-09 16:12:09.453,3,1.07,-0.32,3.14,235.334,-125.312,14.373000000000001,175,75
2026-05-09 16:12:09.464,3,1.17,0.17,2.18,177.044,-213.97199999999998,-25.386999999999997,175,75
2026-05-09 16:12:09.474,3,1.2,0.44,1.56,176.744,-246.66199999999998,-36.297,175,75
2026-05-09 16:12:09.494,3,0.92,0.31,0.91,165.154,-200.25199999999998,-76.78699999999999,175,75
2026-05-09 16:12:09.507,3,1.1,0.29,0.79,158.63400000000001,-194.892,-110.327,175,75
2026-05-09 16:12:09.507,3,1.07,0.25,0.72,154.484,-186.78199999999998,-119.657,175,75
2026-05-09 16:12:09.525,3,0.84,0.18,0.6,147.714,-145.44199999999998,-136.487,175,75
2026-05-09 16:12:09.536,3,0.63,0.14,0.65,138.38400000000001,-105.072,-155.567,175,75
2026-05-09 16:12:09.548,3,0.42,0.15,0.76,121.554,-64.892,-171.057,175,75
2026-05-09 16:12:09.558,3,0.27,0.1,0.88,104.974,-37.69199999999999,-175.147,175,75
2026-05-09 16:12:09.571,3,0.12,-0.06,1.09,82.904,-28.732,-173.617,175,75
2026-05-09 16:12:09.583,3,-0.05,-0.24,1.35,52.044,-61.352000000000004,-171.977,175,75
2026-05-09 16:12:09.593,3,-0.4,-0.35,1.41,13.754000000000001,-95.86200000000001,-169.287,175,75
2026-05-09 16:12:09.615,3,-0.97,0.26,1.26,-79.116,-117.39200000000001,-183.867,175,75
2026-05-09 16:12:09.633,3,-1.1,0.35,1.39,-120.696,-98.492,-162.947,175,75
2026-05-09 16:12:09.643,3,-1.21,0.12,1.28,-154.666,-137.142,-141.977,175,75
2026-05-09 16:12:09.659,3,-1.71,-0.68,0.24,-181.61599999999999,-86.11200000000001,-109.107,175,75
2026-05-09 16:12:09.671,3,-2.35,-0.27,-0.5,-198.076,68.88799999999999,-84.89699999999999,175,75
2026-05-09 16:12:09.697,3,-5.1,1.84,1.58,2.594000000000001,690.4780000000001,71.38300000000001,175,75
2026-05-09 16:12:09.709,3,-2.23,0.54,4.37,371.07399999999996,656.268,217.483,175,75
2026-05-09 16:12:09.731,3,3.29,-0.37,3.23,-442.28599999999994,-451.05199999999996,114.85300000000001,175,75
2026-05-09 16:12:09.742,3,-2.56,0.57,2.03,-591.556,-308.24199999999996,217.353,175,75
2026-05-09 16:12:09.752,3,0.75,-1.66,-0.22,-301.06600000000003,-355.442,135.043,175,75
2026-05-09 16:12:09.763,3,-0.56,-2.63,-0.94,-81.556,-300.382,85.71300000000001,175,75
2026-05-09 16:12:09.775,3,0.48,-1.74,-1.03,-138.86599999999999,82.728,33.82300000000001,175,75
2026-05-09 16:12:09.775,3,1.19,-1.0,-0.41,-48.376,136.638,27.293000000000003,175,75
2026-05-09 16:12:09.812,3,0.94,-0.99,0.26,-10.145999999999997,194.258,61.93300000000001,175,75
2026-05-09 16:12:09.822,3,1.13,-1.05,0.66,11.684000000000001,199.43800000000002,46.563,175,75
2026-05-09 16:12:09.834,3,1.43,-0.72,0.99,38.144000000000005,117.798,44.923,175,75
2026-05-09 16:12:09.844,3,1.33,-0.77,0.71,72.904,123.648,36.503,175,75
2026-05-09 16:12:09.860,3,1.23,-0.84,0.52,141.434,205.83800000000002,9.733,175,75
2026-05-09 16:12:09.883,3,1.0,-0.57,0.24,216.434,368.76800000000003,-32.217,175,75
2026-05-09 16:12:09.895,3,0.29,0.28,1.18,286.254,531.758,-21.177,175,75
2026-05-09 16:12:09.907,3,0.37,0.41,1.77,298.81399999999996,535.658,-14.106999999999998,175,75
2026-05-09 16:12:09.919,3,0.97,0.38,2.59,281.374,489.498,-17.647,175,75
2026-05-09 16:12:09.956,3,2.69,-0.08,3.79,204.184,-185.982,-48.126999999999995,175,75
2026-05-09 16:12:09.971,3,1.19,-0.29,2.43,135.584,-410.92199999999997,-16.906999999999996,175,75
2026-05-09 16:12:09.982,3,0.42,0.02,0.9,75.944,-333.792,-60.266999999999996,175,75
2026-05-09 16:12:10.007,3,0.99,0.12,0.62,123.874,-100.622,-120.877,175,75
2026-05-09 16:12:10.018,3,0.83,0.04,1.08,140.704,-55.132000000000005,-161.487,175,75
2026-05-09 16:12:10.023,3,0.62,0.08,1.23,137.834,-55.382000000000005,-188.49699999999999,175,75
2026-05-09 16:12:10.063,3,0.0,0.16,0.9,111.864,14.437999999999999,-231.787,175,75
2026-05-09 16:12:10.063,3,-0.3,0.33,0.81,103.024,77.978,-238.317,175,75
2026-05-09 16:12:10.078,3,-0.89,0.4,0.74,91.864,181.518,-228.007,175,75
2026-05-09 16:12:10.101,3,-1.19,0.24,0.65,96.744,210.298,-276.907,175,75
2026-05-09 16:12:10.116,3,-1.11,0.32,1.16,118.814,229.138,-300.447,175,75
2026-05-09 16:12:10.171,3,-1.45,0.17,0.83,-26.186,-80.312,-109.89699999999999,175,75
2026-05-09 16:12:10.181,3,-1.11,0.52,-0.42,-79.596,87.188,-64.227,175,75
2026-05-09 16:12:10.192,3,-0.6,0.94,-0.07,-68.866,120.598,-25.997,175,75
2026-05-09 16:12:10.214,3,0.34,0.98,0.69,-95.876,-16.232,107.72300000000001,175,75
2026-05-09 16:12:10.224,3,0.01,0.84,0.2,-149.596,-117.94200000000001,79.983,175,75
2026-05-09 16:12:10.247,3,-0.14,0.17,3.62,201.014,425.478,210.223,175,75
2026-05-09 16:12:10.263,3,-4.28,-1.21,0.5,-333.56600000000003,-353.972,253.703,175,75
2026-05-09 16:12:10.275,3,-1.46,0.16,-0.5,-230.876,529.198,48.63300000000001,175,75
2026-05-09 16:12:10.289,3,-2.19,-0.86,0.65,57.714,109.078,109.31300000000002,175,75
2026-05-09 16:12:10.302,3,-1.52,-0.23,0.85,-55.205999999999996,320.168,172.173,175,75
2026-05-09 16:12:10.354,3,-0.24,-0.08,1.86,-89.90599999999999,-25.922,-13.436999999999998,175,75
2026-05-09 16:12:10.360,3,-1.12,-0.06,1.01,-98.376,35.658,18.453,175,75
2026-05-09 16:12:10.381,3,-0.6,-1.0,1.76,-48.506,154.61800000000002,-59.227000000000004,175,75
2026-05-09 16:12:10.431,3,1.92,-1.38,2.09,-125.026,5.3580000000000005,-47.157,175,75
2026-05-09 16:12:10.444,3,2.11,-1.17,1.75,-121.486,10.228,-61.17699999999999,175,75
2026-05-09 16:12:10.461,3,2.25,-0.87,1.2,-103.806,26.388,-77.517,175,75
2026-05-09 16:12:10.467,3,1.64,-0.49,0.8,-75.086,94.438,-100.387,175,75
2026-05-09 16:12:10.483,3,0.43,0.65,1.19,75.764,408.218,-142.947,175,75
2026-05-09 16:12:10.493,3,0.95,0.31,1.8,159.854,446.998,-127.517,175,75
2026-05-09 16:12:10.505,3,0.31,0.25,2.15,213.024,447.118,-86.607,175,75
2026-05-09 16:12:10.513,3,-0.42,0.84,2.88,276.924,521.878,-34.777,175,75
2026-05-09 16:12:10.526,3,-0.06,0.93,3.67,363.874,433.468,53.94300000000001,175,75
2026-05-09 16:12:10.550,3,0.41,-0.15,4.29,317.294,-47.751999999999995,99.49300000000001,175,75
2026-05-09 16:12:10.582,3,0.62,0.16,1.66,252.96400000000003,-260.74199999999996,39.373000000000005,175,75
2026-05-09 16:12:10.592,3,0.6,0.13,1.27,283.93399999999997,-257.392,20.653000000000002,175,75
2026-05-09 16:12:10.603,3,0.79,0.07,1.11,299.664,-210.56199999999998,-21.366999999999997,175,75
2026-05-09 16:12:10.616,3,1.06,0.16,1.11,294.664,-203.672,-33.677,175,75
2026-05-09 16:12:10.616,3,0.99,0.22,1.09,284.36400000000003,-197.332,-51.117,175,75
2026-05-09 16:12:10.639,3,0.87,0.37,1.14,244.544,-204.702,-84.597,175,75
2026-05-09 16:12:10.647,3,0.69,0.41,1.12,217.774,-212.082,-90.017,175,75
2026-05-09 16:12:10.672,3,0.29,0.37,0.99,178.38400000000001,-194.892,-99.347,175,75
2026-05-09 16:12:10.672,3,0.08,0.3,0.94,144.124,-174.702,-110.75699999999999,175,75
2026-05-09 16:12:10.701,3,-0.01,0.17,1.03,93.574,-186.232,-125.017,175,75
2026-05-09 16:12:10.726,3,-0.78,0.07,0.86,-64.356,-252.572,-130.997,175,75
2026-05-09 16:12:10.726,3,-1.02,0.18,0.57,-127.956,-263.972,-153.927,175,75
2026-05-09 16:12:10.737,3,-0.82,0.24,0.49,-172.096,-255.13199999999998,-187.337,175,75
2026-05-09 16:12:10.747,3,-0.48,-0.05,0.45,-208.566,-203.242,-192.097,175,75
2026-05-09 16:12:10.759,3,-0.5,-0.29,0.57,-219.966,-177.512,-173.557,175,75
2026-05-09 16:12:10.759,3,-1.21,-0.61,0.64,-233.986,-133.612,-157.097,175,75
2026-05-09 16:12:10.781,3,-1.5,-0.57,0.23,-264.596,-52.391999999999996,-163.797,175,75
2026-05-09 16:12:10.793,3,-4.91,0.98,-0.28,-288.986,518.888,-101.487,175,75
2026-05-09 16:12:10.800,3,-11.38,4.08,4.49,-15.145999999999997,1152.118,572.173,175,75
2026-05-09 16:12:10.826,3,4.48,-5.38,7.66,946.314,443.708,-155.757,175,75
2026-05-09 16:12:10.840,3,6.19,-2.39,4.03,-265.946,-772.882,279.553,175,75
2026-05-09 16:12:10.854,3,-3.23,0.27,1.25,-902.226,31.697999999999997,162.293,175,75
2026-05-09 16:12:10.866,3,0.49,-3.03,-1.62,-443.31600000000003,-415.192,93.88300000000001,175,75
2026-05-09 16:12:10.876,3,-2.17,-2.97,-2.77,-54.175999999999995,-172.63199999999998,123.393,175,75
2026-05-09 16:12:10.876,3,-0.41,-1.7,-1.15,3.8140000000000036,283.278,-83.437,175,75
2026-05-09 16:12:10.899,3,2.02,-1.48,2.27,-10.815999999999999,240.538,137.84300000000002,175,75
2026-05-09 16:12:10.899,3,0.86,-2.09,2.21,15.524000000000001,83.588,58.703,175,75
2026-05-09 16:12:10.911,3,1.56,-2.03,1.59,-32.525999999999996,96.938,4.9830000000000005,175,75
2026-05-09 16:12:10.956,3,1.63,-1.15,-0.06,85.404,202.978,-16.976999999999997,175,75
2026-05-09 16:12:10.971,3,0.43,-0.03,0.67,231.314,451.148,-89.83699999999999,175,75
2026-05-09 16:12:10.979,3,-0.48,0.32,0.85,267.47400000000005,512.9780000000001,-70.267,175,75
2026-05-09 16:12:11.011,3,0.58,0.69,2.19,349.85400000000004,577.058,-69.477,175,75
2026-05-09 16:12:11.022,3,0.31,0.97,3.14,306.98400000000004,342.118,24.433000000000003,175,75
2026-05-09 16:12:11.033,3,-0.07,1.22,4.27,308.44399999999996,176.518,51.99300000000001,175,75
2026-05-09 16:12:11.052,3,0.59,0.99,4.83,231.13400000000001,-15.012,5.833000000000002,175,75
2026-05-09 16:12:11.064,3,1.88,0.1,3.56,200.524,-389.282,-32.947,175,75
2026-05-09 16:12:11.087,3,1.07,0.05,1.63,107.834,-570.922,-66.607,175,75
2026-05-09 16:12:11.109,3,0.83,0.91,-0.12,115.214,-310.132,-130.077,175,75
2026-05-09 16:12:11.283,3,-0.13,-0.44,0.91,-16.005999999999997,157.36800000000002,-254.477,175,75
2026-05-09 16:12:11.310,3,-0.24,-0.37,1.24,7.0440000000000005,224.68800000000002,-261.057,175,75
2026-05-09 16:12:11.330,3,-0.93,0.01,1.92,25.034,215.478,-246.177,175,75
2026-05-09 16:12:11.360,3,-1.45,-0.27,1.03,-85.206,17.428,-171.607,175,75
2026-05-09 16:12:11.392,3,0.12,0.08,1.07,-11.615999999999998,111.148,84.49300000000001,175,75
2026-05-09 16:12:11.403,3,-0.36,-0.18,2.2,-43.256,40.227999999999994,109.37300000000002,175,75
2026-05-09 16:12:11.403,3,0.28,0.74,2.43,-69.786,-197.332,167.84300000000002,175,75
2026-05-09 16:12:11.415,3,1.59,-0.99,0.79,-178.86599999999999,-452.392,112.66300000000001,175,75
2026-05-09 16:12:11.421,3,-0.76,-0.69,-0.3,-148.926,-185.012,160.163,175,75
2026-05-09 16:12:11.433,3,-0.99,-1.05,-0.02,-4.845999999999998,211.208,172.483,175,75
2026-05-09 16:12:11.433,3,0.38,-1.5,0.97,61.744,147.11800000000002,66.74300000000001,175,75
2026-05-09 16:12:11.447,3,-0.48,0.07,1.39,-5.695999999999998,196.818,71.07300000000001,175,75
2026-05-09 16:12:11.447,3,-0.84,0.44,1.54,5.944000000000003,195.108,100.16300000000001,175,75
2026-05-09 16:12:11.460,3,-1.11,0.27,1.84,13.264000000000003,139.68800000000002,88.57300000000001,175,75
2026-05-09 16:12:11.492,3,-1.1,0.37,1.6,-85.876,48.468,59.49300000000001,175,75
2026-05-09 16:12:11.502,3,-0.76,-0.05,1.79,-93.446,53.708,48.21300000000001,175,75
2026-05-09 16:12:11.523,3,-0.27,-0.91,2.29,-86.306,47.548,17.353000000000005,175,75
2026-05-09 16:12:11.526,3,-0.24,-1.0,2.07,-93.68599999999999,38.337999999999994,-6.236999999999998,175,75
2026-05-09 16:12:11.557,3,0.41,-1.27,1.69,-41.306,144.80800000000002,-42.277,175,75
2026-05-09 16:12:11.557,3,0.99,-1.42,2.07,-31.855999999999998,150.96800000000002,-35.016999999999996,175,75
2026-05-09 16:12:11.568,3,1.61,-1.82,2.32,-35.57599999999999,104.55799999999999,-13.986999999999998,175,75
2026-05-09 16:12:11.584,3,2.35,-1.94,1.78,-30.756,-25.192,-38.557,175,75
2026-05-09 16:12:11.594,3,2.02,-1.13,0.94,-22.226,-24.892,-66.237,175,75
2026-05-09 16:12:11.609,3,1.15,-0.4,0.3,-11.915999999999997,59.748000000000005,-91.42699999999999,175,75
2026-05-09 16:12:11.620,3,-0.2,0.94,0.79,107.294,408.098,-107.39699999999999,175,75
2026-05-09 16:12:11.629,3,1.13,0.35,2.14,208.754,394.618,-46.486999999999995,175,75
2026-05-09 16:12:11.655,3,-0.3,0.26,1.96,179.124,243.33800000000002,-25.206999999999997,175,75
2026-05-09 16:12:11.665,3,-0.4,0.72,2.28,206.804,239.80800000000002,-6.366999999999997,175,75
2026-05-09 16:12:11.676,3,0.3,0.89,3.4,238.324,82.66799999999999,40.77300000000001,175,75
2026-05-09 16:12:11.676,3,1.23,0.01,3.53,190.094,-215.802,5.953000000000003,175,75
2026-05-09 16:12:11.712,3,0.63,0.5,0.72,119.124,-270.502,-55.626999999999995,175,75
2026-05-09 16:12:11.716,3,0.97,0.53,0.87,160.88400000000001,-197.332,-58.92699999999999,175,75
2026-05-09 16:12:11.731,3,0.98,0.43,1.12,145.524,-187.88199999999998,-79.657,175,75
2026-05-09 16:12:11.742,3,0.96,0.41,1.08,138.694,-192.69199999999998,-105.877,175,75
2026-05-09 16:12:11.755,3,0.92,0.39,0.93,136.314,-172.94199999999998,-130.077,175,75
2026-05-09 16:12:11.766,3,0.77,0.38,0.99,137.904,-137.082,-146.977,175,75
2026-05-09 16:12:11.804,3,-0.03,0.44,1.14,117.834,-31.052,-193.43699999999998,175,75
2026-05-09 16:12:11.813,3,-0.22,0.3,1.24,98.384,-20.682,-198.007,175,75
2026-05-09 16:12:11.826,3,-0.22,0.19,1.36,64.48400000000001,-56.902,-206.237,175,75
2026-05-09 16:12:11.849,3,-0.67,0.5,1.26,-17.345999999999997,-110.012,-190.447,175,75
2026-05-09 16:12:11.860,3,-0.65,0.74,1.08,-51.245999999999995,-109.402,-210.387,175,75
2026-05-09 16:12:11.900,3,-1.28,0.5,0.56,-105.086,-14.642,-197.397,175,75
2026-05-09 16:12:11.924,3,-6.51,2.53,2.89,-27.525999999999996,835.2280000000001,94.793,175,75
2026-05-09 16:12:11.939,3,-3.29,0.11,6.81,493.874,914.198,278.27299999999997,175,75
2026-05-09 16:12:11.954,3,-2.54,-2.6,0.36,-526.066,-430.312,49.24300000000001,175,75
2026-05-09 16:12:12.028,3,2.1,-1.53,1.22,-75.396,34.688,54.85300000000001,175,75
2026-05-09 16:12:12.041,3,1.26,-1.15,0.41,-70.816,16.388,55.593,175,75
2026-05-09 16:12:12.052,3,1.28,-1.24,0.06,-39.176,80.598,43.02300000000001,175,75
2026-05-09 16:12:12.052,3,1.32,-1.1,0.38,2.774000000000001,173.40800000000002,34.613,175,75
2026-05-09 16:12:12.074,3,1.07,-0.71,1.03,42.474000000000004,223.828,6.073,175,75
2026-05-09 16:12:12.086,3,1.0,-0.47,1.25,86.98400000000001,238.038,-14.596999999999998,175,75
2026-05-09 16:12:12.099,3,0.82,-0.48,1.05,117.04400000000001,253.40800000000002,-30.686999999999998,175,75
2026-05-09 16:12:12.112,3,-0.08,0.27,0.94,176.13400000000001,389.988,-66.367,175,75
2026-05-09 16:12:12.118,3,0.04,0.7,1.38,227.224,454.318,-52.337,175,75
2026-05-09 16:12:12.131,3,0.82,0.42,1.96,246.01399999999998,435.718,-44.287,175,75
2026-05-09 16:12:12.146,3,1.05,0.43,2.46,238.694,360.108,-34.227,175,75
2026-05-09 16:12:12.161,3,0.77,0.75,2.83,230.034,251.93800000000002,-18.557,175,75
2026-05-09 16:12:12.172,3,0.79,0.89,3.23,214.184,157.24800000000002,-13.496999999999998,175,75
2026-05-09 16:12:12.172,3,0.76,0.9,3.56,208.874,-13.672,7.4830000000000005,175,75
2026-05-09 16:12:12.206,3,1.34,0.12,2.89,163.574,-349.832,-39.596999999999994,175,75
2026-05-09 16:12:12.215,3,1.48,0.07,1.58,110.09400000000001,-386.412,-82.707,175,75
2026-05-09 16:12:12.231,3,1.05,0.27,1.01,65.944,-339.892,-109.597,175,75
