Time,ID,Ax,Ay,Az,Gx,Gy,Gz,Height,Weight
2026-05-09 17:05:53.450,3,-0.23,0.02,0.98,-1.4934,-2.3672000000000004,0.3840000000000001,175,75
2026-05-09 17:05:53.460,3,-0.22,0.02,0.99,-1.4334000000000002,-1.9472,0.6240000000000001,175,75
2026-05-09 17:05:53.470,3,-0.23,0.02,0.98,-1.4334000000000002,-2.0672,0.4440000000000002,175,75
2026-05-09 17:05:53.481,3,-0.23,0.02,0.98,-1.6134000000000002,-2.3072,0.6240000000000001,175,75
2026-05-09 17:05:53.490,3,-0.23,0.02,0.98,-1.5534000000000001,-2.1872000000000003,0.31400000000000017,175,75
2026-05-09 17:05:53.510,3,-0.23,0.02,0.98,-1.3634000000000002,-1.9472,0.2540000000000001,175,75
2026-05-09 17:05:53.510,3,-0.23,0.02,0.98,-1.3634000000000002,-2.1872000000000003,0.2540000000000001,175,75
2026-05-09 17:05:53.531,3,-0.23,0.02,0.98,-1.5534000000000001,-2.5472,0.19400000000000017,175,75
2026-05-09 17:05:53.542,3,-0.23,0.02,0.98,-1.4334000000000002,-2.3072,0.5040000000000001,175,75
2026-05-09 17:05:53.542,3,-0.23,0.02,0.98,-1.0034,-1.9472,0.31400000000000017,175,75
2026-05-09 17:05:53.550,3,-0.22,0.02,0.98,-1.3634000000000002,-2.1272,0.6240000000000001,175,75
2026-05-09 17:05:53.577,3,-0.23,0.02,0.98,-1.2434,-1.8172000000000001,0.3840000000000001,175,75
2026-05-09 17:05:53.588,3,-0.22,0.02,0.98,-0.6334000000000002,-1.8772000000000002,0.7440000000000002,175,75
2026-05-09 17:05:53.629,3,-0.23,0.02,0.98,-0.6334000000000002,-2.3072,0.8040000000000002,175,75
2026-05-09 17:05:53.629,3,-0.23,0.02,0.98,-0.5734000000000001,-2.6772,1.054,175,75
2026-05-09 17:05:53.662,3,-0.23,0.02,0.98,-0.5734000000000001,-2.4872,0.8640000000000001,175,75
2026-05-09 17:05:53.674,3,-0.22,0.02,0.99,-0.6334000000000002,-2.4272,0.6840000000000002,175,75
2026-05-09 17:05:53.686,3,-0.22,0.02,0.98,-0.5734000000000001,-2.3672000000000004,0.9240000000000002,175,75
2026-05-09 17:05:53.739,3,-0.23,0.02,0.98,-0.33340000000000014,-2.3672000000000004,0.7440000000000002,175,75
2026-05-09 17:05:53.767,3,-0.23,0.02,0.99,-0.21340000000000003,-2.8572,0.9240000000000002,175,75
2026-05-09 17:05:53.767,3,-0.23,0.02,0.98,-0.21340000000000003,-2.6772,0.9940000000000001,175,75
2026-05-09 17:05:53.787,3,-0.23,0.02,0.98,-0.3934000000000002,-2.6172,0.6240000000000001,175,75
2026-05-09 17:05:53.815,3,-0.23,0.02,0.98,-0.3934000000000002,-2.6772,1.354,175,75
2026-05-09 17:05:53.825,3,-0.22,0.02,0.98,-0.1434000000000002,-2.0072,0.8040000000000002,175,75
2026-05-09 17:05:53.864,3,-0.23,0.02,0.98,-0.08340000000000014,-3.0372000000000003,1.294,175,75
2026-05-09 17:05:53.904,3,-0.22,0.02,0.97,0.0965999999999998,-2.9772000000000003,1.054,175,75
2026-05-09 17:05:53.915,3,-0.23,0.02,0.98,0.7666,-2.3072,0.9240000000000002,175,75
2026-05-09 17:05:53.915,3,-0.23,0.02,0.98,0.5865999999999998,-2.3072,1.4140000000000001,175,75
2026-05-09 17:05:53.920,3,-0.23,0.02,0.98,0.39659999999999984,-1.9472,1.114,175,75
2026-05-09 17:05:53.947,3,-0.22,0.02,0.99,0.4665999999999997,-2.5472,1.1740000000000002,175,75
2026-05-09 17:05:53.959,3,-0.23,0.02,0.99,0.21659999999999968,-2.7972,0.9240000000000002,175,75
2026-05-09 17:05:53.990,3,-0.23,0.03,0.98,0.3365999999999998,-2.3072,0.8040000000000002,175,75
2026-05-09 17:05:53.996,3,-0.22,0.02,1.0,0.3365999999999998,-2.4272,0.8640000000000001,175,75
2026-05-09 17:05:54.009,3,-0.23,0.02,0.99,0.0965999999999998,-3.2872000000000003,1.1740000000000002,175,75
2026-05-09 17:05:54.022,3,-0.23,0.02,0.99,0.21659999999999968,-2.6772,0.9240000000000002,175,75
2026-05-09 17:05:54.040,3,-0.23,0.02,0.99,0.15659999999999985,-2.6172,0.9940000000000001,175,75
2026-05-09 17:05:54.052,3,-0.23,0.02,0.99,-0.2734000000000001,-3.0972,0.7440000000000002,175,75
2026-05-09 17:05:54.073,3,-0.23,0.02,0.99,0.0965999999999998,-2.9172000000000002,0.9240000000000002,175,75
2026-05-09 17:05:54.088,3,-0.23,0.03,0.99,0.15659999999999985,-2.4272,0.9940000000000001,175,75
2026-05-09 17:05:54.113,3,-0.23,0.02,0.99,-0.1434000000000002,-2.4272,0.9940000000000001,175,75
2026-05-09 17:05:54.119,3,-0.23,0.02,0.99,-0.2734000000000001,-2.3672000000000004,0.6840000000000002,175,75
2026-05-09 17:05:54.132,3,-0.22,0.02,0.99,-0.2734000000000001,-2.6772,0.8640000000000001,175,75
2026-05-09 17:05:54.145,3,-0.23,0.02,1.0,-0.5134000000000001,-2.4272,0.6240000000000001,175,75
2026-05-09 17:05:54.156,3,-0.23,0.02,0.99,-0.4534,-2.4272,1.114,175,75
2026-05-09 17:05:54.188,3,-0.23,0.02,0.99,-0.33340000000000014,-2.2472000000000003,0.5640000000000002,175,75
2026-05-09 17:05:54.199,3,-0.23,0.03,0.99,-0.4534,-2.2472000000000003,0.8040000000000002,175,75
2026-05-09 17:05:54.220,3,-0.23,0.02,0.99,-0.5734000000000001,-2.5472,0.8040000000000002,175,75
2026-05-09 17:05:54.236,3,-0.24,0.02,0.99,-0.33340000000000014,-2.0672,0.5040000000000001,175,75
2026-05-09 17:05:54.248,3,-0.23,0.02,0.99,-0.33340000000000014,-2.3072,0.7440000000000002,175,75
2026-05-09 17:05:54.277,3,-0.23,0.02,0.99,-0.21340000000000003,-2.4272,0.5040000000000001,175,75
2026-05-09 17:05:54.331,3,-0.23,0.02,0.99,-0.023400000000000087,-2.1272,0.5640000000000002,175,75
2026-05-09 17:05:54.331,3,-0.23,0.02,0.99,-0.3934000000000002,-2.6172,0.31400000000000017,175,75
2026-05-09 17:05:54.343,3,-0.23,0.02,0.99,-0.1434000000000002,-2.1872000000000003,0.7440000000000002,175,75
2026-05-09 17:05:54.356,3,-0.22,0.02,1.0,-0.33340000000000014,-2.5472,0.31400000000000017,175,75
2026-05-09 17:05:54.356,3,-0.23,0.02,0.99,-0.1434000000000002,-2.5472,0.19400000000000017,175,75
2026-05-09 17:05:54.366,3,-0.23,0.03,0.99,-0.3934000000000002,-2.9772000000000003,0.8040000000000002,175,75
2026-05-09 17:05:54.377,3,-0.22,0.02,0.99,0.27659999999999973,-1.8172000000000001,0.4440000000000002,175,75
2026-05-09 17:05:54.377,3,-0.22,0.02,1.0,0.036599999999999966,-2.5472,0.7440000000000002,175,75
2026-05-09 17:05:54.387,3,-0.23,0.02,0.99,-0.3934000000000002,-2.9172000000000002,0.5040000000000001,175,75
2026-05-09 17:05:54.413,3,-0.23,0.02,1.0,0.6465999999999998,-2.1872000000000003,0.3840000000000001,175,75
2026-05-09 17:05:54.438,3,-0.22,0.02,0.99,0.21659999999999968,-3.2872000000000003,0.4440000000000002,175,75
2026-05-09 17:05:54.473,3,-0.23,0.02,1.0,0.4665999999999997,-2.7972,0.6240000000000001,175,75
2026-05-09 17:05:54.473,3,-0.23,0.02,1.0,0.39659999999999984,-2.7972,0.5040000000000001,175,75
2026-05-09 17:05:54.487,3,-0.23,0.02,0.99,0.0965999999999998,-2.4872,0.9240000000000002,175,75
2026-05-09 17:05:54.498,3,-0.23,0.02,0.99,0.5865999999999998,-2.4872,0.6840000000000002,175,75
2026-05-09 17:05:54.498,3,-0.23,0.02,1.0,0.3365999999999998,-2.4872,0.4440000000000002,175,75
2026-05-09 17:05:54.510,3,-0.22,0.02,1.0,0.3365999999999998,-2.3072,0.6840000000000002,175,75
2026-05-09 17:05:54.510,3,-0.23,0.02,0.99,0.3365999999999998,-2.2472000000000003,0.5640000000000002,175,75
2026-05-09 17:05:54.526,3,-0.22,0.02,1.0,0.5865999999999998,-2.3672000000000004,0.8040000000000002,175,75
2026-05-09 17:05:54.561,3,-0.23,0.02,1.0,0.0965999999999998,-2.5472,0.9240000000000002,175,75
2026-05-09 17:05:54.582,3,-0.22,0.03,1.0,0.15659999999999985,-2.5472,0.9940000000000001,175,75
2026-05-09 17:05:54.605,3,-0.23,0.02,1.0,0.4665999999999997,-2.5472,0.8040000000000002,175,75
2026-05-09 17:05:54.616,3,-0.22,0.02,0.99,0.21659999999999968,-2.5472,0.9240000000000002,175,75
2026-05-09 17:05:54.627,3,-0.22,0.02,1.0,0.27659999999999973,-2.4872,1.054,175,75
2026-05-09 17:05:54.630,3,-0.22,0.02,0.99,0.0965999999999998,-2.7972,0.9940000000000001,175,75
2026-05-09 17:05:54.645,3,-0.22,0.02,0.99,0.5265999999999997,-2.4272,1.114,175,75
2026-05-09 17:05:54.657,3,-0.22,0.02,1.0,0.7065999999999999,-2.1872000000000003,1.4140000000000001,175,75
2026-05-09 17:05:54.668,3,-0.22,0.02,0.99,0.9466000000000001,-2.0672,1.4140000000000001,175,75
2026-05-09 17:05:54.684,3,-0.22,0.02,0.99,1.1966,-2.3672000000000004,1.604,175,75
2026-05-09 17:05:54.694,3,-0.22,0.03,1.0,1.4966,-2.1272,1.604,175,75
2026-05-09 17:05:54.709,3,-0.23,0.03,1.0,1.9266,-2.1272,1.6640000000000001,175,75
2026-05-09 17:05:54.710,3,-0.23,0.03,1.0,1.6766,-2.0672,1.9640000000000002,175,75
2026-05-09 17:05:54.722,3,-0.23,0.02,1.0,2.5366,-2.5472,1.8440000000000003,175,75
2026-05-09 17:05:54.734,3,-0.23,0.03,0.99,3.0866,-2.6172,1.7840000000000003,175,75
2026-05-09 17:05:54.746,3,-0.22,0.03,1.0,4.0565999999999995,-3.0972,2.334,175,75
2026-05-09 17:05:54.762,3,-0.22,0.03,0.99,4.7866,-3.5872,2.6340000000000003,175,75
2026-05-09 17:05:54.773,3,-0.22,0.03,0.98,5.2766,-3.5872,2.694,175,75
2026-05-09 17:05:54.773,3,-0.23,0.03,0.96,6.6166,-2.8572,3.3040000000000003,175,75
2026-05-09 17:05:54.787,3,-0.23,0.02,0.98,8.5066,-1.0872000000000002,3.914,175,75
2026-05-09 17:05:54.819,3,-0.22,0.01,0.99,10.2766,-1.8772000000000002,3.854,175,75
2026-05-09 17:05:54.819,3,-0.22,0.03,0.99,11.746599999999999,-3.1572,4.034000000000001,175,75
2026-05-09 17:05:54.833,3,-0.21,0.02,0.98,13.1466,-3.7672,5.194000000000001,175,75
2026-05-09 17:05:54.896,3,-0.22,0.04,1.04,24.306600000000003,-2.7372,9.774,175,75
2026-05-09 17:05:54.906,3,-0.22,0.05,1.03,25.3966,-3.1572,10.564,175,75
2026-05-09 17:05:54.954,3,-0.24,0.07,0.99,32.476600000000005,-2.7972,13.304,175,75
2026-05-09 17:05:54.993,3,-0.26,0.06,1.06,35.0966,1.4727999999999999,16.724,175,75
2026-05-09 17:05:55.004,3,-0.26,0.08,1.09,34.976600000000005,2.5128,16.964000000000002,175,75
2026-05-09 17:05:55.016,3,-0.22,0.09,1.13,34.726600000000005,2.6927999999999996,17.214000000000002,175,75
2026-05-09 17:05:55.027,3,-0.23,0.08,1.16,28.446599999999997,-2.3072,21.604000000000003,175,75
2026-05-09 17:05:55.047,3,-0.29,0.06,1.12,27.046599999999998,-3.0372000000000003,21.784000000000002,175,75
2026-05-09 17:05:55.058,3,-0.26,0.08,1.12,24.6066,5.4328,20.194000000000003,175,75
2026-05-09 17:05:55.083,3,-0.26,0.08,1.17,21.0066,5.742800000000001,21.174000000000003,175,75
2026-05-09 17:05:55.098,3,-0.29,0.07,1.15,18.5666,5.492800000000001,20.444000000000003,175,75
2026-05-09 17:05:55.098,3,-0.32,0.08,1.14,17.3566,6.3528,19.344,175,75
2026-05-09 17:05:55.109,3,-0.31,0.07,1.13,16.2566,9.2128,17.944000000000003,175,75
2026-05-09 17:05:55.126,3,-0.32,0.06,1.19,15.1566,9.152800000000001,17.024,175,75
2026-05-09 17:05:55.142,3,-0.32,0.03,1.24,13.8766,6.7728,13.674,175,75
2026-05-09 17:05:55.142,3,-0.25,0.04,1.21,11.6766,3.5428,11.414,175,75
2026-05-09 17:05:55.173,3,-0.31,0.11,1.17,9.246599999999999,9.4628,18.364,175,75
2026-05-09 17:05:55.186,3,-0.38,0.07,1.11,7.836600000000001,15.0728,11.474,175,75
2026-05-09 17:05:55.201,3,-0.4,0.12,1.19,11.2566,24.6428,6.534000000000001,175,75
2026-05-09 17:05:55.243,3,-0.4,0.1,1.22,2.8366,18.7328,2.334,175,75
2026-05-09 17:05:55.243,3,-0.36,0.09,1.23,2.5366,20.0128,0.19400000000000017,175,75
2026-05-09 17:05:55.253,3,-0.31,0.08,1.26,1.3165999999999998,20.192800000000002,0.9940000000000001,175,75
2026-05-09 17:05:55.253,3,-0.3,0.09,1.28,-3.5034,16.7128,4.714,175,75
2026-05-09 17:05:55.273,3,-0.32,0.08,1.27,-7.8334,8.482800000000001,6.534000000000001,175,75
2026-05-09 17:05:55.310,3,-0.39,0.05,1.13,-8.3834,4.5228,2.6340000000000003,175,75
2026-05-09 17:05:55.339,3,-0.36,0.07,1.19,-9.1134,3.7327999999999997,-1.3859999999999997,175,75
2026-05-09 17:05:55.344,3,-0.35,0.1,1.19,-10.753400000000001,3.5428,-0.10599999999999987,175,75
2026-05-09 17:05:55.383,3,-0.31,0.12,1.17,-13.3834,5.1328,1.2340000000000002,175,75
2026-05-09 17:05:55.395,3,-0.3,0.09,1.19,-14.6634,-6.2072,2.6340000000000003,175,75
2026-05-09 17:05:55.407,3,-0.36,0.07,1.05,-13.0134,-13.5272,2.7540000000000004,175,75
2026-05-09 17:05:55.427,3,-0.39,0.06,1.0,-8.6234,-11.8172,1.5340000000000003,175,75
2026-05-09 17:05:55.437,3,-0.4,0.06,1.01,-1.4934,-6.8772,-1.8159999999999998,175,75
2026-05-09 17:05:55.460,3,-0.36,0.07,1.07,3.5065999999999997,-6.3972,-5.225999999999999,175,75
2026-05-09 17:05:55.473,3,-0.3,0.04,1.12,7.1066,-12.4272,-5.836,175,75
2026-05-09 17:05:55.504,3,-0.36,0.1,1.04,17.7166,-7.6172,-9.986,175,75
2026-05-09 17:05:55.529,3,-0.33,0.14,1.12,18.3266,-3.4072,-9.376,175,75
2026-05-09 17:05:55.542,3,-0.33,0.13,1.14,16.196599999999997,-8.2272,-10.596,175,75
2026-05-09 17:05:55.577,3,-0.33,0.12,1.14,14.486600000000001,-8.3472,-8.586,175,75
2026-05-09 17:05:55.584,3,-0.31,0.12,1.14,14.6666,-6.4572,-9.006,175,75
2026-05-09 17:05:55.619,3,-0.27,0.1,1.17,14.7266,-4.0172,-5.895999999999999,175,75
2026-05-09 17:05:55.641,3,-0.29,0.08,1.19,16.806600000000003,-7.917199999999999,-5.225999999999999,175,75
2026-05-09 17:05:55.665,3,-0.29,0.08,1.18,17.5366,-11.8172,-2.246,175,75
2026-05-09 17:05:55.675,3,-0.29,0.07,1.18,18.9366,-12.7372,-2.4859999999999998,175,75
2026-05-09 17:05:55.703,3,-0.29,0.1,1.21,21.4966,-11.3972,-2.726,175,75
2026-05-09 17:05:55.728,3,-0.33,0.13,1.16,23.2066,-10.5372,-2.4259999999999997,175,75
2026-05-09 17:05:55.752,3,-0.3,0.13,1.22,25.8866,-9.1972,-3.706,175,75
2026-05-09 17:05:55.763,3,-0.29,0.12,1.26,25.8866,-10.5372,-3.706,175,75
2026-05-09 17:05:55.780,3,-0.3,0.13,1.24,25.096600000000002,-12.5472,-2.3659999999999997,175,75
2026-05-09 17:05:55.780,3,-0.32,0.16,1.21,24.2466,-9.1972,0.6240000000000001,175,75
2026-05-09 17:05:55.813,3,-0.23,0.18,1.19,22.836599999999997,16.352800000000002,12.453999999999999,175,75
2026-05-09 17:05:55.813,3,-0.19,0.15,1.27,29.056600000000003,6.2928,9.344,175,75
2026-05-09 17:05:55.828,3,-0.16,0.12,1.29,30.336600000000004,-9.0172,8.734,175,75
2026-05-09 17:05:55.836,3,-0.16,0.08,1.25,30.276600000000002,-15.5372,13.914,175,75
2026-05-09 17:05:55.868,3,-0.36,0.04,1.19,32.1666,-20.6572,17.944000000000003,175,75
2026-05-09 17:05:55.878,3,-0.41,0.12,1.17,37.7166,-22.307199999999998,10.994,175,75
2026-05-09 17:05:55.889,3,-0.34,0.23,1.19,41.8666,-15.2372,6.534000000000001,175,75
2026-05-09 17:05:55.921,3,-0.29,0.22,1.33,41.3166,-8.4072,13.734,175,75
2026-05-09 17:05:55.921,3,-0.28,0.16,1.38,38.3266,-16.2672,14.033999999999999,175,75
2026-05-09 17:05:55.944,3,-0.25,0.12,1.41,35.8266,-34.3772,15.384,175,75
2026-05-09 17:05:55.950,3,-0.23,0.11,1.35,33.8166,-38.5872,18.064,175,75
2026-05-09 17:05:55.960,3,-0.24,0.09,1.35,36.7466,-38.4072,20.804000000000002,175,75
2026-05-09 17:05:55.967,3,-0.35,0.17,1.38,36.3766,-39.9872,19.034000000000002,175,75
2026-05-09 17:05:55.992,3,-0.18,-0.01,1.5,49.0566,-32.797200000000004,19.344,175,75
2026-05-09 17:05:55.992,3,-0.48,0.34,1.5,30.8866,-48.4672,19.344,175,75
2026-05-09 17:05:56.016,3,-0.48,0.21,1.36,36.4966,-51.3972,13.124,175,75
2026-05-09 17:05:56.039,3,-0.41,0.2,1.38,40.766600000000004,-45.3572,-6.2059999999999995,175,75
2026-05-09 17:05:56.060,3,-0.41,0.32,1.41,38.9966,-47.6172,-13.466000000000001,175,75
2026-05-09 17:05:56.075,3,-0.16,0.23,1.6,30.336600000000004,-31.8772,-8.886000000000001,175,75
2026-05-09 17:05:56.086,3,-0.23,0.23,1.55,21.6766,-39.9272,-8.336,175,75
2026-05-09 17:05:56.099,3,-0.3,0.25,1.42,18.696599999999997,-37.3072,-9.496,175,75
2026-05-09 17:05:56.109,3,-0.24,0.19,1.44,20.0366,-28.4072,-10.476,175,75
2026-05-09 17:05:56.122,3,-0.16,0.17,1.45,17.656599999999997,-29.3172,-7.856,175,75
2026-05-09 17:05:56.130,3,-0.23,0.24,1.48,17.226599999999998,-29.2572,-4.496,175,75
2026-05-09 17:05:56.143,3,-0.21,0.23,1.44,15.396600000000001,-26.5172,-6.2059999999999995,175,75
2026-05-09 17:05:56.147,3,-0.19,0.27,1.45,15.1566,-22.7972,-3.156,175,75
2026-05-09 17:05:56.161,3,-0.21,0.27,1.47,11.8666,-21.4572,-0.8359999999999999,175,75
2026-05-09 17:05:56.189,3,-0.19,0.23,1.44,9.4266,-18.7672,-0.2859999999999998,175,75
2026-05-09 17:05:56.190,3,-0.22,0.26,1.46,8.6366,-16.5772,3.3640000000000003,175,75
2026-05-09 17:05:56.208,3,-0.16,0.22,1.51,7.1066,-18.8972,2.024,175,75
2026-05-09 17:05:56.246,3,-0.2,0.21,1.45,4.8566,-23.4072,7.574,175,75
2026-05-09 17:05:56.270,3,-0.18,0.18,1.46,7.3566,-17.6172,8.304,175,75
2026-05-09 17:05:56.285,3,-0.19,0.24,1.48,7.7766,-15.1172,9.644,175,75
2026-05-09 17:05:56.300,3,-0.16,0.27,1.53,4.3065999999999995,-15.597199999999999,14.524,175,75
2026-05-09 17:05:56.316,3,-0.17,0.27,1.55,2.4765999999999995,-17.3072,15.924,175,75
2026-05-09 17:05:56.331,3,-0.15,0.26,1.54,1.3165999999999998,-19.3172,17.394000000000002,175,75
2026-05-09 17:05:56.369,3,-0.18,0.23,1.53,2.7165999999999997,-17.9772,19.104000000000003,175,75
2026-05-09 17:05:56.390,3,-0.22,0.26,1.51,1.3165999999999998,-20.1172,18.854000000000003,175,75
2026-05-09 17:05:56.390,3,-0.27,0.32,1.47,-1.4334000000000002,-21.4572,20.254,175,75
2026-05-09 17:05:56.435,3,-0.26,0.32,1.48,-3.4434,-17.4272,21.844,175,75
2026-05-09 17:05:56.456,3,-0.19,0.29,1.53,-8.1334,-22.7972,22.024,175,75
2026-05-09 17:05:56.467,3,-0.21,0.27,1.48,-9.3534,-22.4872,21.844,175,75
2026-05-09 17:05:56.503,3,-0.29,0.29,1.46,-10.2734,-8.4072,20.504,175,75
2026-05-09 17:05:56.503,3,-0.29,0.3,1.48,-12.1634,-10.0472,21.534000000000002,175,75
2026-05-09 17:05:56.534,3,-0.28,0.32,1.51,-14.1134,-16.0872,21.784000000000002,175,75
2026-05-09 17:05:56.534,3,-0.28,0.3,1.51,-16.7934,-23.0372,23.064,175,75
2026-05-09 17:05:56.557,3,-0.3,0.27,1.47,-21.1834,-32.3072,23.914,175,75
2026-05-09 17:05:56.569,3,-0.27,0.27,1.46,-22.223399999999998,-36.2672,24.954,175,75
2026-05-09 17:05:56.583,3,-0.26,0.28,1.46,-22.953400000000002,-38.4072,25.624000000000002,175,75
2026-05-09 17:05:56.611,3,-0.21,0.31,1.45,-23.803400000000003,-39.9872,28.364,175,75
2026-05-09 17:05:56.623,3,-0.21,0.3,1.44,-23.623399999999997,-38.4072,29.894000000000002,175,75
2026-05-09 17:05:56.653,3,-0.19,0.29,1.44,-23.443399999999997,-35.9072,30.864,175,75
2026-05-09 17:05:56.655,3,-0.18,0.28,1.47,-21.973399999999998,-35.727199999999996,31.174000000000003,175,75
2026-05-09 17:05:56.671,3,-0.21,0.28,1.45,-22.953400000000002,-34.3172,32.214,175,75
2026-05-09 17:05:56.682,3,-0.2,0.27,1.43,-22.953400000000002,-22.8572,35.444,175,75
2026-05-09 17:05:56.719,3,-0.27,0.3,1.42,-22.583399999999997,-20.8472,35.444,175,75
2026-05-09 17:05:56.756,3,-0.29,0.19,1.48,-27.8934,-38.5272,39.464,175,75
2026-05-09 17:05:56.766,3,-0.28,0.16,1.46,-30.273400000000002,-40.9072,41.784,175,75
2026-05-09 17:05:56.788,3,0.03,-0.08,1.55,-21.4934,-4.0172,33.914,175,75
2026-05-09 17:05:56.797,3,-0.12,0.17,1.46,-23.2534,-0.5372000000000003,34.404,175,75
2026-05-09 17:05:56.835,3,-0.34,0.28,1.37,-14.2934,-10.177200000000001,25.684,175,75
2026-05-09 17:05:56.888,3,-0.23,0.22,1.45,-8.5634,3.3028,17.144000000000002,175,75
2026-05-09 17:05:56.920,3,-0.21,0.18,1.48,-12.1034,-6.027200000000001,19.464000000000002,175,75
2026-05-09 17:05:56.943,3,-0.23,0.13,1.46,-13.7434,-8.8972,21.784000000000002,175,75
2026-05-09 17:05:56.954,3,-0.25,0.13,1.44,-15.753400000000001,-11.7572,23.554000000000002,175,75
2026-05-09 17:05:56.966,3,-0.27,0.21,1.44,-17.523400000000002,-15.357199999999999,26.724,175,75
2026-05-09 17:05:56.976,3,-0.27,0.23,1.43,-20.2134,-18.4072,29.894000000000002,175,75
2026-05-09 17:05:56.976,3,-0.25,0.23,1.44,-21.303400000000003,-19.5072,31.964000000000002,175,75
2026-05-09 17:05:56.981,3,-0.24,0.21,1.46,-23.7434,-22.9172,34.464,175,75
2026-05-09 17:05:57.002,3,-0.28,0.18,1.42,-28.2534,-28.7072,41.054,175,75
2026-05-09 17:05:57.024,3,-0.32,0.17,1.38,-29.7834,-30.0472,41.414,175,75
2026-05-09 17:05:57.024,3,-0.33,0.2,1.38,-29.2934,-27.0072,41.294000000000004,175,75
2026-05-09 17:05:57.039,3,-0.31,0.22,1.42,-29.1734,-26.5772,41.534,175,75
2026-05-09 17:05:57.064,3,-0.33,0.22,1.42,-32.6434,-32.8572,43.494,175,75
2026-05-09 17:05:57.064,3,-0.33,0.2,1.39,-33.1934,-34.687200000000004,44.034,175,75
2026-05-09 17:05:57.068,3,-0.32,0.19,1.39,-32.6434,-33.8972,43.734,175,75
2026-05-09 17:05:57.076,3,-0.32,0.2,1.37,-32.8934,-34.8072,42.514,175,75
2026-05-09 17:05:57.088,3,-0.33,0.21,1.36,-31.303400000000003,-32.8572,41.414,175,75
2026-05-09 17:05:57.112,3,-0.33,0.18,1.38,-29.6034,-30.1172,40.564,175,75
2026-05-09 17:05:57.121,3,-0.37,0.19,1.32,-28.443399999999997,-32.367200000000004,37.274,175,75
2026-05-09 17:05:57.156,3,-0.43,0.2,1.28,-26.7934,-35.6572,36.294000000000004,175,75
2026-05-09 17:05:57.172,3,-0.47,0.18,1.26,-24.3534,-36.0272,33.494,175,75
2026-05-09 17:05:57.181,3,-0.46,0.17,1.26,-22.773400000000002,-32.2472,29.894000000000002,175,75
2026-05-09 17:05:57.181,3,-0.48,0.21,1.25,-22.6434,-35.2372,29.584000000000003,175,75
2026-05-09 17:05:57.202,3,-0.48,0.19,1.25,-20.693399999999997,-21.4572,28.974,175,75
2026-05-09 17:05:57.212,3,-0.37,0.21,1.39,-16.2434,-20.9672,22.084000000000003,175,75
2026-05-09 17:05:57.223,3,-0.29,0.26,1.45,-17.7134,-32.187200000000004,23.304000000000002,175,75
2026-05-09 17:05:57.233,3,-0.29,0.22,1.41,-18.6834,-36.8172,27.084000000000003,175,75
2026-05-09 17:05:57.245,3,-0.37,0.18,1.31,-19.1134,-40.6572,26.294,175,75
2026-05-09 17:05:57.257,3,-0.45,0.18,1.22,-16.8534,-34.077200000000005,24.404,175,75
2026-05-09 17:05:57.268,3,-0.46,0.18,1.22,-13.1334,-23.897199999999998,22.754,175,75
2026-05-09 17:05:57.268,3,-0.41,0.19,1.3,-10.2734,-19.1372,19.584000000000003,175,75
2026-05-09 17:05:57.282,3,-0.37,0.22,1.37,-12.6434,-25.8472,21.664,175,75
2026-05-09 17:05:57.294,3,-0.36,0.25,1.38,-15.0234,-27.5472,26.964000000000002,175,75
2026-05-09 17:05:57.300,3,-0.37,0.24,1.36,-16.8534,-33.8972,29.954,175,75
2026-05-09 17:05:57.312,3,-0.38,0.21,1.31,-16.3034,-35.4172,29.774,175,75
2026-05-09 17:05:57.328,3,-0.39,0.18,1.29,-14.4134,-33.4072,29.164,175,75
2026-05-09 17:05:57.342,3,-0.39,0.15,1.31,-11.6134,-27.9772,26.294,175,75
2026-05-09 17:05:57.353,3,-0.32,0.21,1.41,-10.5734,-28.8372,22.214000000000002,175,75
2026-05-09 17:05:57.376,3,-0.32,0.22,1.37,-9.5334,-30.2972,20.564,175,75
2026-05-09 17:05:57.388,3,-0.33,0.23,1.34,-10.3334,-28.9572,19.524,175,75
2026-05-09 17:05:57.398,3,-0.32,0.2,1.33,-8.5634,-21.5172,18.974,175,75
2026-05-09 17:05:57.400,3,-0.33,0.2,1.36,-6.9134,-14.0772,18.614,175,75
2026-05-09 17:05:57.410,3,-0.3,0.21,1.38,-7.2834,-2.0672,19.104000000000003,175,75
2026-05-09 17:05:57.462,3,-0.23,0.21,1.44,-6.4934,4.5228,18.004,175,75
2026-05-09 17:05:57.473,3,-0.34,0.22,1.35,-7.2834,-8.5872,13.613999999999999,175,75
2026-05-09 17:05:57.487,3,-0.42,0.22,1.3,-4.2934,-0.17720000000000002,10.443999999999999,175,75
2026-05-09 17:05:57.500,3,-0.39,0.19,1.35,-3.6234,2.6927999999999996,6.604000000000001,175,75
2026-05-09 17:05:57.511,3,-0.39,0.21,1.35,-8.3834,14.7028,7.394,175,75
2026-05-09 17:05:57.523,3,-0.36,0.25,1.41,-8.0734,15.4328,6.964,175,75
2026-05-09 17:05:57.523,3,-0.37,0.26,1.42,-12.7734,12.3828,10.134,175,75
2026-05-09 17:05:57.528,3,-0.44,0.29,1.37,-14.4734,17.8728,10.564,175,75
2026-05-09 17:05:57.543,3,-0.26,0.26,1.45,-9.9034,26.5928,2.6340000000000003,175,75
2026-05-09 17:05:57.550,3,-0.21,0.28,1.58,-7.4634,14.582799999999999,-0.10599999999999987,175,75
2026-05-09 17:05:57.577,3,-0.32,0.17,1.48,-10.5134,-5.1172,-0.16599999999999993,175,75
2026-05-09 17:05:57.589,3,-0.35,0.1,1.49,-11.0634,-8.2872,-3.156,175,75
2026-05-09 17:05:57.602,3,-0.44,0.12,1.42,-16.6734,-19.3772,-6.446,175,75
2026-05-09 17:05:57.614,3,-0.51,0.18,1.3,-21.3634,-21.2672,-7.246,175,75
2026-05-09 17:05:57.614,3,-0.49,0.24,1.22,-19.2934,-12.7372,-9.686,175,75
2026-05-09 17:05:57.626,3,-0.43,0.25,1.22,-19.3534,-7.7372,-9.316,175,75
2026-05-09 17:05:57.638,3,-0.49,0.2,1.22,-24.1734,-8.3472,-0.04599999999999982,175,75
2026-05-09 17:05:57.645,3,-0.51,0.07,1.21,-28.443399999999997,-6.4572,2.944,175,75
2026-05-09 17:05:57.660,3,-0.52,0.07,1.25,-25.1434,-0.29720000000000013,-7.116,175,75
2026-05-09 17:05:57.670,3,-0.44,0.17,1.32,-24.7834,1.5327999999999995,-13.396,175,75
2026-05-09 17:05:57.692,3,-0.37,0.21,1.31,-29.5334,-6.8772,-5.715999999999999,175,75
2026-05-09 17:05:57.703,3,-0.39,0.18,1.29,-29.663400000000003,-6.4572,-6.266,175,75
2026-05-09 17:05:57.708,3,-0.41,0.17,1.26,-29.663400000000003,-5.7872,-8.216000000000001,175,75
2026-05-09 17:05:57.719,3,-0.4,0.16,1.26,-28.3834,-2.9772000000000003,-9.556000000000001,175,75
2026-05-09 17:05:57.732,3,-0.37,0.15,1.3,-27.773400000000002,-3.0372000000000003,-10.226,175,75
2026-05-09 17:05:57.745,3,-0.36,0.14,1.3,-29.843400000000003,-8.7672,-10.596,175,75
2026-05-09 17:05:57.772,3,-0.39,0.17,1.27,-27.223399999999998,-3.3472,-11.266,175,75
2026-05-09 17:05:57.789,3,-0.33,0.16,1.3,-27.6434,-10.3572,-13.036,175,75
2026-05-09 17:05:57.807,3,-0.31,0.11,1.27,-27.6434,-14.4472,-10.776,175,75
2026-05-09 17:05:57.820,3,-0.33,0.11,1.21,-27.833399999999997,-13.4072,-8.946,175,75
2026-05-09 17:05:57.843,3,-0.33,0.11,1.17,-27.6434,-10.3572,-8.216000000000001,175,75
2026-05-09 17:05:57.855,3,-0.33,0.1,1.16,-26.8534,-4.8672,-5.286,175,75
2026-05-09 17:05:57.889,3,-0.37,0.1,1.17,-28.3234,-9.7472,-7.056000000000001,175,75
2026-05-09 17:05:57.901,3,-0.3,0.12,1.26,-24.723399999999998,-8.5872,-11.386000000000001,175,75
2026-05-09 17:05:57.923,3,-0.29,0.15,1.29,-28.0734,-14.6272,-7.916,175,75
2026-05-09 17:05:57.923,3,-0.3,0.16,1.26,-28.803400000000003,-14.0772,-3.946,175,75
2026-05-09 17:05:57.936,3,-0.33,0.16,1.24,-28.013399999999997,-11.0272,-3.036,175,75
2026-05-09 17:05:57.947,3,-0.35,0.16,1.21,-27.953400000000002,-8.6472,-3.0959999999999996,175,75
2026-05-09 17:05:57.958,3,-0.3,0.16,1.18,-26.303400000000003,-6.8772,-3.2159999999999997,175,75
2026-05-09 17:05:57.972,3,-0.3,0.14,1.16,-25.2134,-7.857200000000001,-1.0859999999999999,175,75
2026-05-09 17:05:57.977,3,-0.32,0.12,1.15,-24.2934,-4.3772,1.604,175,75
2026-05-09 17:05:57.993,3,-0.32,0.09,1.17,-22.6434,1.0428000000000002,1.604,175,75
2026-05-09 17:05:57.993,3,-0.32,0.08,1.21,-22.403399999999998,2.0828,0.2540000000000001,175,75
2026-05-09 17:05:58.020,3,-0.3,0.08,1.19,-24.5334,-4.5072,0.2540000000000001,175,75
2026-05-09 17:05:58.033,3,-0.34,0.09,1.17,-24.5334,-4.9272,1.7840000000000003,175,75
2026-05-09 17:05:58.056,3,-0.28,0.12,1.19,-21.553400000000003,-2.3672000000000004,-0.8359999999999999,175,75
2026-05-09 17:05:58.072,3,-0.28,0.12,1.2,-22.223399999999998,-5.5972,1.9040000000000001,175,75
2026-05-09 17:05:58.096,3,-0.34,0.06,1.12,-22.583399999999997,-9.4472,4.954000000000001,175,75
2026-05-09 17:05:58.107,3,-0.36,0.05,1.09,-21.123399999999997,-7.857200000000001,2.274,175,75
2026-05-09 17:05:58.107,3,-0.36,0.07,1.1,-18.9934,-6.5771999999999995,0.19400000000000017,175,75
2026-05-09 17:05:58.123,3,-0.33,0.07,1.13,-18.1334,-7.5472,-2.056,175,75
2026-05-09 17:05:58.133,3,-0.33,0.09,1.15,-18.9334,-8.9572,-1.326,175,75
2026-05-09 17:05:58.145,3,-0.33,0.09,1.14,-19.3534,-10.5372,-0.7759999999999998,175,75
2026-05-09 17:05:58.154,3,-0.32,0.09,1.12,-18.5634,-10.4772,-1.876,175,75
2026-05-09 17:05:58.172,3,-0.33,0.1,1.11,-17.4634,-8.3472,0.13400000000000012,175,75
2026-05-09 17:05:58.181,3,-0.32,0.1,1.11,-16.973399999999998,-5.2372,2.084,175,75
2026-05-09 17:05:58.198,3,-0.31,0.1,1.12,-16.6734,-4.9272,3.184,175,75
2026-05-09 17:05:58.219,3,-0.32,0.09,1.11,-15.8234,-4.0772,3.184,175,75
2026-05-09 17:05:58.229,3,-0.36,0.11,1.08,-15.6934,-0.29720000000000013,4.774,175,75
2026-05-09 17:05:58.238,3,-0.31,0.1,1.1,-13.0734,5.6228,3.974,175,75
2026-05-09 17:05:58.252,3,-0.27,0.09,1.16,-12.0334,3.5428,4.104,175,75
2026-05-09 17:05:58.263,3,-0.27,0.06,1.19,-14.0534,-2.1272,6.414,175,75
2026-05-09 17:05:58.275,3,-0.3,0.05,1.18,-15.9434,-5.4772,6.843999999999999,175,75
2026-05-09 17:05:58.288,3,-0.32,0.06,1.12,-16.4934,-9.0772,6.114000000000001,175,75
2026-05-09 17:05:58.289,3,-0.34,0.09,1.07,-15.753400000000001,-7.917199999999999,6.1739999999999995,175,75
2026-05-09 17:05:58.305,3,-0.32,0.11,1.07,-13.5634,-4.7472,5.683999999999999,175,75
2026-05-09 17:05:58.316,3,-0.29,0.11,1.07,-12.6434,-5.7872,6.2940000000000005,175,75
2026-05-09 17:05:58.328,3,-0.32,0.1,1.05,-13.9334,-7.7372,10.744,175,75
2026-05-09 17:05:58.338,3,-0.35,0.05,1.04,-13.0134,-5.7872,11.533999999999999,175,75
2026-05-09 17:05:58.366,3,-0.36,0.07,1.06,-9.9034,2.3828,5.074,175,75
2026-05-09 17:05:58.392,3,-0.3,0.07,1.12,-9.1734,1.2327999999999997,5.014,175,75
2026-05-09 17:05:58.403,3,-0.31,0.08,1.12,-11.5534,-4.6272,7.274000000000001,175,75
2026-05-09 17:05:58.427,3,-0.35,0.07,1.07,-9.8434,-4.1972000000000005,5.744,175,75
2026-05-09 17:05:58.431,3,-0.33,0.08,1.06,-10.5134,-3.9572000000000003,5.864000000000001,175,75
2026-05-09 17:05:58.453,3,-0.37,0.08,1.01,-11.0634,-4.4472000000000005,7.334,175,75
2026-05-09 17:05:58.462,3,-0.4,0.07,1.01,-10.2134,-0.7272000000000003,5.744,175,75
2026-05-09 17:05:58.462,3,-0.37,0.06,1.03,-8.3834,3.1228000000000002,3.734,175,75
2026-05-09 17:05:58.483,3,-0.33,0.06,1.09,-7.9534,2.2628,2.6340000000000003,175,75
2026-05-09 17:05:58.494,3,-0.34,0.06,1.11,-9.0534,-1.3372000000000002,3.494,175,75
2026-05-09 17:05:58.526,3,-0.38,0.07,1.08,-6.9134,0.8028,0.4440000000000002,175,75
2026-05-09 17:05:58.549,3,-0.34,0.09,1.08,-9.6034,-4.687200000000001,0.6240000000000001,175,75
2026-05-09 17:05:58.553,3,-0.36,0.07,1.05,-8.683399999999999,-4.3172,1.294,175,75
2026-05-09 17:05:58.584,3,-0.37,0.05,1.05,-7.7134,-3.4072,-0.8359999999999999,175,75
2026-05-09 17:05:58.595,3,-0.37,0.07,1.06,-7.1034,-2.9172000000000002,-1.996,175,75
2026-05-09 17:05:58.595,3,-0.34,0.08,1.08,-5.8834,-1.9472,-3.2760000000000002,175,75
2026-05-09 17:05:58.616,3,-0.34,0.07,1.09,-6.5534,-3.6472,-2.546,175,75
2026-05-09 17:05:58.630,3,-0.35,0.06,1.07,-8.5034,-4.6272,-1.6959999999999997,175,75
2026-05-09 17:05:58.641,3,-0.36,0.07,1.06,-7.8934,-4.9872,-2.786,175,75
2026-05-09 17:05:58.641,3,-0.35,0.07,1.05,-7.5834,-4.9272,-3.5260000000000002,175,75
2026-05-09 17:05:58.654,3,-0.33,0.07,1.05,-6.9734,-4.9872,-3.4659999999999997,175,75
2026-05-09 17:05:58.656,3,-0.32,0.08,1.05,-6.9734,-6.267200000000001,-2.186,175,75
2026-05-09 17:05:58.682,3,-0.34,0.06,1.04,-7.0334,-6.3372,-1.0859999999999999,175,75
2026-05-09 17:05:58.682,3,-0.34,0.05,1.05,-6.6734,-6.8172,-1.7559999999999998,175,75
2026-05-09 17:05:58.693,3,-0.34,0.06,1.04,-6.7934,-6.6372,-2.4259999999999997,175,75
2026-05-09 17:05:58.705,3,-0.34,0.07,1.02,-6.2434,-5.6572,-1.5059999999999998,175,75
2026-05-09 17:05:58.716,3,-0.33,0.06,1.02,-5.3334,-7.7372,-1.146,175,75
2026-05-09 17:05:58.731,3,-0.34,0.05,1.0,-5.8834,-8.0372,-1.0859999999999999,175,75
2026-05-09 17:05:58.743,3,-0.34,0.05,1.03,-3.3234000000000004,-3.3472,-2.1159999999999997,175,75
2026-05-09 17:05:58.756,3,-0.3,0.06,1.08,-3.5634,-5.0472,-2.246,175,75
2026-05-09 17:05:58.764,3,-0.29,0.07,1.06,-5.513400000000001,-9.5672,-0.22599999999999976,175,75
2026-05-09 17:05:58.776,3,-0.32,0.06,1.02,-5.513400000000001,-10.5372,1.354,175,75
2026-05-09 17:05:58.786,3,-0.34,0.06,1.02,-3.9334000000000002,-8.7672,0.9240000000000002,175,75
2026-05-09 17:05:58.800,3,-0.33,0.06,1.04,-3.1334,-8.0972,0.07400000000000007,175,75
2026-05-09 17:05:58.813,3,-0.32,0.08,1.05,-3.4434,-8.5872,0.9940000000000001,175,75
2026-05-09 17:05:58.825,3,-0.32,0.07,1.04,-3.0734000000000004,-7.917199999999999,1.7840000000000003,175,75
2026-05-09 17:05:58.825,3,-0.33,0.07,1.05,-2.9534000000000002,-7.427200000000001,1.7840000000000003,175,75
2026-05-09 17:05:58.839,3,-0.36,0.08,1.02,-2.4034,-5.2372,2.5140000000000002,175,75
2026-05-09 17:05:58.869,3,-0.33,0.07,1.06,-1.1234000000000002,-3.4072,2.394,175,75
2026-05-09 17:05:58.869,3,-0.34,0.07,1.03,-1.3034000000000001,-2.2472000000000003,3.734,175,75
2026-05-09 17:05:58.881,3,-0.38,0.08,1.02,0.6465999999999998,2.2628,3.494,175,75
2026-05-09 17:05:58.905,3,-0.31,0.07,1.07,5.2166,9.7628,0.2540000000000001,175,75
2026-05-09 17:05:58.943,3,-0.36,0.02,1.02,1.8066,-2.4872,1.604,175,75
2026-05-09 17:05:58.949,3,-0.34,0.05,1.05,2.9665999999999997,-1.2672,-0.16599999999999993,175,75
2026-05-09 17:05:58.963,3,-0.33,0.07,1.06,2.5965999999999996,-1.6972,-0.04599999999999982,175,75
2026-05-09 17:05:58.974,3,-0.32,0.07,1.07,2.3566000000000003,-3.8372,0.3840000000000001,175,75
2026-05-09 17:05:58.985,3,-0.34,0.06,1.04,0.5865999999999998,-4.7472,1.294,175,75
2026-05-09 17:05:58.996,3,-0.35,0.06,1.02,1.0665999999999998,-3.8972,0.9240000000000002,175,75
2026-05-09 17:05:59.014,3,-0.33,0.07,1.07,5.7665999999999995,1.0428000000000002,-1.876,175,75
2026-05-09 17:05:59.047,3,-0.32,0.07,1.05,1.5566,-5.4172,0.6240000000000001,175,75
2026-05-09 17:05:59.047,3,-0.35,0.06,0.99,1.3165999999999998,-5.0472,2.334,175,75
2026-05-09 17:05:59.058,3,-0.37,0.06,0.98,3.3865999999999996,-1.8772000000000002,1.294,175,75
2026-05-09 17:05:59.070,3,-0.34,0.06,1.03,6.316599999999999,1.1628000000000003,-1.996,175,75
2026-05-09 17:05:59.096,3,-0.32,0.06,1.05,5.7665999999999995,0.07279999999999998,-1.996,175,75
2026-05-09 17:05:59.108,3,-0.32,0.07,1.04,3.9366000000000003,-1.2672,-0.35599999999999987,175,75
2026-05-09 17:05:59.124,3,-0.36,0.06,1.02,3.4466,1.3527999999999998,1.354,175,75
2026-05-09 17:05:59.124,3,-0.36,0.05,1.03,3.8766,3.0528,-0.7159999999999997,175,75
2026-05-09 17:05:59.135,3,-0.34,0.07,1.04,2.8366,1.9027999999999996,-1.5059999999999998,175,75
2026-05-09 17:05:59.149,3,-0.33,0.07,1.05,2.3566000000000003,1.7727999999999997,-0.22599999999999976,175,75
2026-05-09 17:05:59.157,3,-0.33,0.06,1.05,1.9865999999999997,1.5327999999999995,0.07400000000000007,175,75
2026-05-09 17:05:59.182,3,-0.31,0.05,1.08,-0.6934,-1.0872000000000002,-1.6959999999999997,175,75
2026-05-09 17:05:59.182,3,-0.31,0.04,1.06,-3.1334,-5.5372,-0.6559999999999999,175,75
2026-05-09 17:05:59.197,3,-0.36,0.06,1.05,-4.353400000000001,-4.3772,0.7440000000000002,175,75
2026-05-09 17:05:59.203,3,-0.37,0.09,1.06,-2.1034,1.7128,0.13400000000000012,175,75
2026-05-09 17:05:59.210,3,-0.33,0.09,1.11,-1.3634000000000002,1.9027999999999996,-1.876,175,75
2026-05-09 17:05:59.231,3,-0.35,0.11,1.06,-5.3334,-0.23720000000000008,0.5040000000000001,175,75
2026-05-09 17:05:59.243,3,-0.35,0.1,1.05,-3.0734000000000004,6.0428,1.4740000000000002,175,75
2026-05-09 17:05:59.253,3,-0.34,0.07,1.07,-2.0334000000000003,9.5828,-0.8359999999999999,175,75
2026-05-09 17:05:59.263,3,-0.32,0.06,1.11,-2.7734,5.742800000000001,-1.4459999999999997,175,75
2026-05-09 17:05:59.279,3,-0.3,0.04,1.13,-2.2834000000000003,1.3527999999999998,-1.0259999999999998,175,75
2026-05-09 17:05:59.279,3,-0.31,0.02,1.13,-4.353400000000001,-3.0372000000000003,-1.3859999999999997,175,75
2026-05-09 17:05:59.291,3,-0.35,0.05,1.09,-5.4534,-5.5372,-1.876,175,75
2026-05-09 17:05:59.302,3,-0.35,0.07,1.07,-4.4734,-3.8372,-3.036,175,75
2026-05-09 17:05:59.313,3,-0.32,0.08,1.06,-3.3834,-2.8572,-3.586,175,75
2026-05-09 17:05:59.320,3,-0.32,0.09,1.04,-3.8634,-4.3772,-1.996,175,75
2026-05-09 17:05:59.342,3,-0.32,0.07,1.05,-2.7734,-3.3472,-0.8959999999999999,175,75
2026-05-09 17:05:59.366,3,-0.33,0.05,1.03,-1.4934,-1.3372000000000002,-1.0859999999999999,175,75
2026-05-09 17:05:59.366,3,-0.31,0.05,1.04,-0.1434000000000002,-0.8472,-1.4459999999999997,175,75
2026-05-09 17:05:59.377,3,-0.31,0.05,1.04,-0.3934000000000002,-0.6572,-0.5959999999999999,175,75
2026-05-09 17:05:59.392,3,-0.31,0.05,1.05,-0.08340000000000014,-0.7272000000000003,0.19400000000000017,175,75
2026-05-09 17:05:59.404,3,-0.32,0.05,1.05,-0.3934000000000002,-2.9172000000000002,0.19400000000000017,175,75
2026-05-09 17:05:59.429,3,-0.32,0.05,1.03,0.9466000000000001,-3.8972,-0.16599999999999993,175,75
2026-05-09 17:05:59.439,3,-0.32,0.05,1.03,0.8866,-4.9272,0.2540000000000001,175,75
2026-05-09 17:05:59.451,3,-0.37,0.06,0.99,-0.7534000000000001,-13.2272,1.2340000000000002,175,75
2026-05-09 17:05:59.464,3,-0.4,0.06,0.98,0.8266,-8.2872,-1.266,175,75
2026-05-09 17:05:59.493,3,-0.33,0.06,1.02,2.4765999999999995,-3.7072000000000003,-2.306,175,75
2026-05-09 17:05:59.547,3,-0.43,0.01,0.96,3.3865999999999996,-2.3672000000000004,-3.3959999999999995,175,75
2026-05-09 17:05:59.574,3,-0.3,0.02,1.13,8.8766,10.4928,-10.166,175,75
2026-05-09 17:05:59.596,3,-0.35,0.09,1.07,-4.2334,-17.2472,-1.0859999999999999,175,75
2026-05-09 17:05:59.596,3,-0.37,0.09,1.02,-2.7134,-11.9472,-4.256,175,75
2026-05-09 17:05:59.610,3,-0.33,0.09,1.04,0.39659999999999984,-3.8972,-6.145999999999999,175,75
2026-05-09 17:05:59.620,3,-0.3,0.09,1.08,-0.023400000000000087,-3.2272000000000003,-5.166,175,75
2026-05-09 17:05:59.630,3,-0.3,0.07,1.09,-1.4334000000000002,-6.3372,-3.5260000000000002,175,75
2026-05-09 17:05:59.641,3,-0.29,0.06,1.08,-1.3034000000000001,-5.4172,-4.986000000000001,175,75
2026-05-09 17:05:59.653,3,-0.3,0.06,1.08,-1.9134000000000002,-5.9072,-4.0760000000000005,175,75
2026-05-09 17:05:59.653,3,-0.29,0.05,1.07,-2.4034,-4.8672,-3.156,175,75
2026-05-09 17:05:59.662,3,-0.3,0.05,1.06,-2.2234000000000003,-4.7472,-2.4259999999999997,175,75
2026-05-09 17:05:59.715,3,-0.28,0.05,1.09,-3.0134,-6.2072,-0.8959999999999999,175,75
2026-05-09 17:05:59.727,3,-0.31,0.05,1.06,-3.6834,-6.0872,0.19400000000000017,175,75
2026-05-09 17:05:59.737,3,-0.31,0.06,1.05,-2.6434,-2.4872,-0.35599999999999987,175,75
2026-05-09 17:05:59.748,3,-0.3,0.07,1.08,-2.3434,-2.1872000000000003,-1.266,175,75
2026-05-09 17:05:59.760,3,-0.28,0.08,1.08,-2.5234,-2.7972,-0.7759999999999998,175,75
2026-05-09 17:05:59.771,3,-0.27,0.08,1.09,-2.1634,-3.4672,-0.4159999999999999,175,75
2026-05-09 17:05:59.783,3,-0.28,0.07,1.07,-1.9134000000000002,-4.1972000000000005,-0.47599999999999976,175,75
2026-05-09 17:05:59.790,3,-0.3,0.07,1.06,-1.8534000000000002,-4.3772,-0.16599999999999993,175,75
2026-05-09 17:05:59.800,3,-0.31,0.05,1.06,-0.8834000000000001,-2.3672000000000004,-0.9659999999999997,175,75
2026-05-09 17:05:59.813,3,-0.3,0.04,1.07,-1.1234000000000002,-2.3672000000000004,-1.326,175,75
2026-05-09 17:05:59.825,3,-0.29,0.05,1.08,-1.6734,-4.2572,-1.266,175,75
2026-05-09 17:05:59.831,3,-0.3,0.06,1.07,-1.6134000000000002,-5.4172,-0.6559999999999999,175,75
2026-05-09 17:05:59.848,3,-0.3,0.06,1.06,-1.0634000000000001,-4.8672,0.014000000000000234,175,75
2026-05-09 17:05:59.848,3,-0.31,0.05,1.05,-1.1234000000000002,-5.4772,0.014000000000000234,175,75
2026-05-09 17:05:59.862,3,-0.32,0.04,1.04,-0.5134000000000001,-4.1972000000000005,-0.9659999999999997,175,75
2026-05-09 17:05:59.887,3,-0.28,0.05,1.07,0.8866,-2.1272,-1.936,175,75
2026-05-09 17:05:59.887,3,-0.27,0.07,1.08,0.6465999999999998,-4.1372,-0.7159999999999997,175,75
2026-05-09 17:05:59.906,3,-0.28,0.07,1.07,0.7666,-5.2372,0.014000000000000234,175,75
2026-05-09 17:05:59.918,3,-0.28,0.06,1.06,2.0465999999999998,-5.7272,0.13400000000000012,175,75
2026-05-09 17:05:59.942,3,-0.28,0.05,1.07,2.5965999999999996,-5.4172,-0.16599999999999993,175,75
2026-05-09 17:05:59.976,3,-0.27,0.05,1.08,4.0565999999999995,-4.7472,0.19400000000000017,175,75
2026-05-09 17:05:59.989,3,-0.31,0.04,1.06,3.7565999999999997,-7.9772,0.7440000000000002,175,75
2026-05-09 17:06:00.045,3,-0.3,0.05,1.05,7.3566,-3.1572,-4.616,175,75
2026-05-09 17:06:00.054,3,-0.28,0.06,1.09,6.4366,-6.7572,-4.316000000000001,175,75
2026-05-09 17:06:00.062,3,-0.31,0.07,1.06,5.3966,-10.9072,-2.306,175,75
2026-05-09 17:06:00.093,3,-0.34,0.06,1.04,6.256600000000001,-9.1372,-2.786,175,75
2026-05-09 17:06:00.103,3,-0.33,0.05,1.04,7.2866,-5.0472,-4.926,175,75
2026-05-09 17:06:00.126,3,-0.28,0.06,1.09,7.5366,-4.5072,-5.416,175,75
2026-05-09 17:06:00.138,3,-0.27,0.06,1.1,6.3766,-6.8772,-4.006,175,75
2026-05-09 17:06:00.160,3,-0.3,0.06,1.06,4.9166,-11.6972,-2.916,175,75
2026-05-09 17:06:00.172,3,-0.29,0.05,1.06,6.9266000000000005,-2.0072,-4.926,175,75
2026-05-09 17:06:00.196,3,-0.28,0.06,1.1,4.3065999999999995,-7.9772,-0.8959999999999999,175,75
2026-05-09 17:06:00.218,3,-0.29,0.06,1.09,4.6666,-5.5972,-2.306,175,75
2026-05-09 17:06:00.218,3,-0.27,0.05,1.1,5.3366,-4.3172,-2.9759999999999995,175,75
2026-05-09 17:06:00.229,3,-0.26,0.06,1.12,4.4866,-5.7872,-2.306,175,75
2026-05-09 17:06:00.239,3,-0.26,0.05,1.1,3.6365999999999996,-6.267200000000001,-0.7759999999999998,175,75
2026-05-09 17:06:00.254,3,-0.35,0.05,1.03,0.3365999999999998,-10.3572,0.014000000000000234,175,75
2026-05-09 17:06:00.276,3,-0.29,0.05,1.08,3.4466,8.6628,-1.8159999999999998,175,75
2026-05-09 17:06:00.287,3,-0.22,0.06,1.16,2.5366,8.1228,-2.306,175,75
2026-05-09 17:06:00.311,3,-0.36,0.06,1.0,-4.0534,9.0928,3.794,175,75
2026-05-09 17:06:00.337,3,-0.32,0.08,1.04,-2.8934,27.3828,3.6140000000000003,175,75
2026-05-09 17:06:00.362,3,-0.25,0.05,1.18,-3.5034,24.4628,6.114000000000001,175,75
2026-05-09 17:06:00.372,3,-0.2,0.03,1.23,-4.9634,13.122800000000002,4.344,175,75
2026-05-09 17:06:00.382,3,-0.16,0.01,1.25,-6.0034,3.7928,2.8840000000000003,175,75
2026-05-09 17:06:00.393,3,-0.17,0.0,1.25,-7.1634,-4.687200000000001,2.144,175,75
2026-05-09 17:06:00.419,3,-0.26,0.02,1.09,-7.7734000000000005,-12.7972,-0.16599999999999993,175,75
2026-05-09 17:06:00.419,3,-0.33,0.04,1.02,-6.4934,-5.9672,-0.8959999999999999,175,75
2026-05-09 17:06:00.435,3,-0.35,0.06,1.02,-5.2134,2.5727999999999995,-0.8959999999999999,175,75
2026-05-09 17:06:00.461,3,-0.28,0.09,1.09,-3.8034,6.7128,-1.146,175,75
2026-05-09 17:06:00.472,3,-0.26,0.11,1.12,-3.5034,3.9728,-0.47599999999999976,175,75
2026-05-09 17:06:00.496,3,-0.26,0.12,1.12,-3.1934,-0.29720000000000013,0.31400000000000017,175,75
2026-05-09 17:06:00.508,3,-0.25,0.1,1.13,-2.7734,-2.0072,0.19400000000000017,175,75
2026-05-09 17:06:00.518,3,-0.23,0.1,1.14,-2.2834000000000003,-4.0172,-0.5959999999999999,175,75
2026-05-09 17:06:00.518,3,-0.24,0.1,1.14,-1.2434,-4.8072,-0.5359999999999998,175,75
2026-05-09 17:06:00.540,3,-0.23,0.1,1.12,-1.8534000000000002,-10.2972,-0.8359999999999999,175,75
2026-05-09 17:06:00.571,3,-0.37,0.06,0.99,-2.7134,-3.8372,2.144,175,75
2026-05-09 17:06:00.589,3,-0.36,0.03,1.02,-0.8234000000000001,4.4628,0.3840000000000001,175,75
2026-05-09 17:06:00.604,3,-0.28,0.03,1.1,-0.5134000000000001,6.232800000000001,-0.5959999999999999,175,75
2026-05-09 17:06:00.618,3,-0.23,0.03,1.15,-2.1634,2.1428,0.13400000000000012,175,75
2026-05-09 17:06:00.629,3,-0.21,0.04,1.17,-4.2334,-4.3772,1.604,175,75
2026-05-09 17:06:00.635,3,-0.23,0.06,1.15,-4.8434,-7.5472,1.6640000000000001,175,75
2026-05-09 17:06:00.648,3,-0.22,0.09,1.14,-3.6834,-6.517200000000001,0.2540000000000001,175,75
2026-05-09 17:06:00.660,3,-0.25,0.17,1.14,-1.1234000000000002,0.9827999999999997,0.8640000000000001,175,75
2026-05-09 17:06:00.660,3,-0.14,0.21,1.19,1.7466,19.3428,2.454,175,75
2026-05-09 17:06:00.690,3,-0.09,0.26,1.29,4.4266,2.8127999999999997,4.644,175,75
2026-05-09 17:06:00.705,3,-0.19,0.1,1.09,-4.1734,-8.4672,15.134,175,75
2026-05-09 17:06:00.705,3,-0.42,-0.11,0.89,-9.0534,-5.0472,24.524,175,75
2026-05-09 17:06:00.742,3,-0.53,-0.22,0.98,4.6066,16.7128,-8.216000000000001,175,75
2026-05-09 17:06:00.772,3,-0.14,0.2,1.2,5.0966,0.6227999999999998,-10.046000000000001,175,75
2026-05-09 17:06:00.786,3,-0.17,0.2,1.18,0.9466000000000001,-10.6572,5.9239999999999995,175,75
2026-05-09 17:06:00.797,3,-0.29,0.09,1.09,-1.9734,-18.287200000000002,5.804,175,75
2026-05-09 17:06:00.809,3,-0.39,0.05,0.96,-1.4334000000000002,-17.7972,-1.4459999999999997,175,75
2026-05-09 17:06:00.819,3,-0.39,0.07,0.93,2.8366,-12.187199999999999,-4.805999999999999,175,75
2026-05-09 17:06:00.819,3,-0.33,0.08,0.95,5.0366,-7.0072,-1.4459999999999997,175,75
2026-05-09 17:06:00.831,3,-0.32,0.06,1.0,5.7066,-3.7672,2.334,175,75
2026-05-09 17:06:00.845,3,-0.32,0.05,1.06,6.6166,-4.9272,1.9040000000000001,175,75
2026-05-09 17:06:00.845,3,-0.31,0.03,1.09,6.5565999999999995,-8.6472,-0.5359999999999998,175,75
2026-05-09 17:06:00.859,3,-0.29,0.04,1.1,5.9466,-11.5772,-2.186,175,75
2026-05-09 17:06:00.870,3,-0.29,0.06,1.04,3.9366000000000003,-10.5372,0.4440000000000002,175,75
2026-05-09 17:06:00.883,3,-0.31,0.06,1.02,5.3966,-5.9072,1.054,175,75
2026-05-09 17:06:00.883,3,-0.31,0.06,1.01,6.9266000000000005,-1.9472,-0.35599999999999987,175,75
2026-05-09 17:06:00.892,3,-0.3,0.07,1.02,7.896599999999999,1.9027999999999996,-0.2859999999999998,175,75
2026-05-09 17:06:00.905,3,-0.3,0.07,1.05,8.8766,4.9528,0.9240000000000002,175,75
2026-05-09 17:06:00.915,3,-0.29,0.07,1.08,8.7566,5.0128,1.054,175,75
2026-05-09 17:06:00.915,3,-0.3,0.07,1.08,8.2066,5.982800000000001,1.5340000000000003,175,75
2026-05-09 17:06:00.935,3,-0.3,0.08,1.05,7.896599999999999,8.6028,1.8440000000000003,175,75
2026-05-09 17:06:00.935,3,-0.3,0.09,1.04,8.3866,12.2628,3.3040000000000003,175,75
2026-05-09 17:06:00.945,3,-0.29,0.07,1.09,10.0366,12.9328,4.464,175,75
2026-05-09 17:06:00.956,3,-0.28,0.05,1.13,9.7266,8.5428,4.644,175,75
2026-05-09 17:06:00.966,3,-0.28,0.04,1.13,8.9366,3.9728,4.524,175,75
2026-05-09 17:06:00.966,3,-0.3,0.04,1.09,8.3866,2.8728000000000002,3.3640000000000003,175,75
2026-05-09 17:06:00.988,3,-0.29,0.05,1.08,10.3966,5.8027999999999995,2.6340000000000003,175,75
2026-05-09 17:06:00.988,3,-0.27,0.06,1.12,12.2266,6.7728,2.814,175,75
2026-05-09 17:06:01.025,3,-0.28,0.07,1.11,12.2266,3.3627999999999996,3.974,175,75
2026-05-09 17:06:01.043,3,-0.3,0.07,1.08,13.7566,5.6228,4.104,175,75
2026-05-09 17:06:01.043,3,-0.3,0.05,1.1,14.246599999999999,5.8628,4.284000000000001,175,75
2026-05-09 17:06:01.057,3,-0.3,0.07,1.11,14.6666,6.0428,3.914,175,75
2026-05-09 17:06:01.069,3,-0.3,0.08,1.11,15.7066,6.652800000000001,4.224,175,75
2026-05-09 17:06:01.114,3,-0.3,0.08,1.14,16.9266,5.1328,4.344,175,75
2026-05-09 17:06:01.125,3,-0.29,0.07,1.17,15.7066,1.5928,3.734,175,75
2026-05-09 17:06:01.135,3,-0.3,0.07,1.16,14.9766,0.2527999999999997,5.014,175,75
2026-05-09 17:06:01.148,3,-0.3,0.07,1.17,14.9166,-1.4572,3.734,175,75
2026-05-09 17:06:01.159,3,-0.29,0.06,1.18,14.9766,-3.5272,2.394,175,75
2026-05-09 17:06:01.166,3,-0.29,0.07,1.17,13.4466,-5.2372,2.944,175,75
2026-05-09 17:06:01.178,3,-0.31,0.09,1.14,12.5966,-7.187200000000001,4.164,175,75
2026-05-09 17:06:01.192,3,-0.33,0.09,1.13,12.9666,-7.187200000000001,4.104,175,75
2026-05-09 17:06:01.205,3,-0.29,0.08,1.14,13.5066,-5.1772,2.144,175,75
2026-05-09 17:06:01.217,3,-0.32,0.08,1.11,12.4166,-6.9472000000000005,4.894,175,75
2026-05-09 17:06:01.249,3,-0.34,0.07,1.15,15.216600000000001,1.3527999999999998,0.8040000000000002,175,75
2026-05-09 17:06:01.261,3,-0.31,0.09,1.18,14.1766,2.4527999999999994,-0.22599999999999976,175,75
2026-05-09 17:06:01.288,3,-0.39,0.09,1.11,10.2166,-3.9572000000000003,2.144,175,75
2026-05-09 17:06:01.304,3,-0.32,0.1,1.25,10.8266,14.0928,-5.475999999999999,175,75
2026-05-09 17:06:01.331,3,-0.3,0.1,1.31,2.9665999999999997,-2.1872000000000003,-3.7659999999999996,175,75
2026-05-09 17:06:01.350,3,-0.31,0.11,1.26,1.4966,-5.9072,-7.306000000000001,175,75
2026-05-09 17:06:01.359,3,-0.32,0.14,1.22,0.7666,-3.6472,-8.216000000000001,175,75
2026-05-09 17:06:01.382,3,-0.32,0.12,1.19,-0.023400000000000087,0.3727999999999998,-9.436,175,75
2026-05-09 17:06:01.389,3,-0.32,0.1,1.17,0.5265999999999997,4.0928,-10.536,175,75
2026-05-09 17:06:01.402,3,-0.32,0.09,1.18,1.5566,7.6928,-12.116,175,75
2026-05-09 17:06:01.438,3,-0.36,0.12,1.15,-3.2534,25.192800000000002,-12.056000000000001,175,75
2026-05-09 17:06:01.451,3,-0.31,0.1,1.18,-3.3834,30.132800000000003,-13.336,175,75
2026-05-09 17:06:01.496,3,-0.28,0.1,1.19,-6.7334000000000005,8.1228,-20.285999999999998,175,75
2026-05-09 17:06:01.507,3,-0.29,0.09,1.18,-8.5034,4.9528,-21.145999999999997,175,75
2026-05-09 17:06:01.516,3,-0.32,0.08,1.15,-10.4534,4.7628,-20.476,175,75
2026-05-09 17:06:01.532,3,-0.32,0.05,1.14,-11.1234,6.472799999999999,-21.506,175,75
2026-05-09 17:06:01.553,3,-0.28,0.06,1.17,-10.6334,13.852800000000002,-23.766,175,75
2026-05-09 17:06:01.553,3,-0.21,0.09,1.23,-9.3534,16.2928,-25.105999999999998,175,75
2026-05-09 17:06:01.564,3,-0.19,0.11,1.25,-14.4734,3.5428,-20.535999999999998,175,75
2026-05-09 17:06:01.575,3,-0.28,0.1,1.17,-19.1734,-0.23720000000000008,-17.246,175,75
2026-05-09 17:06:01.587,3,-0.24,0.05,1.17,-16.1834,10.6228,-21.325999999999997,175,75
2026-05-09 17:06:01.594,3,-0.15,0.08,1.25,-16.3034,7.082800000000001,-22.665999999999997,175,75
2026-05-09 17:06:01.612,3,-0.13,0.09,1.23,-20.693399999999997,1.4128000000000003,-16.756,175,75
2026-05-09 17:06:01.622,3,-0.18,0.06,1.16,-23.1334,2.2027999999999994,-11.086,175,75
2026-05-09 17:06:01.634,3,-0.22,0.03,1.15,-21.1834,7.3828,-11.636000000000001,175,75
2026-05-09 17:06:01.645,3,-0.22,0.03,1.16,-19.9634,7.8728,-13.886000000000001,175,75
2026-05-09 17:06:01.669,3,-0.18,0.01,1.08,-22.583399999999997,3.3028,-8.216000000000001,175,75
2026-05-09 17:06:01.669,3,-0.19,-0.01,1.06,-21.4334,8.4228,-4.006,175,75
2026-05-09 17:06:01.680,3,-0.18,0.01,1.12,-18.9934,9.8228,-1.996,175,75
2026-05-09 17:06:01.692,3,-0.14,0.04,1.16,-19.473399999999998,7.5128,-0.16599999999999993,175,75
2026-05-09 17:06:01.703,3,-0.13,0.07,1.17,-21.6134,-0.17720000000000002,5.504,175,75
2026-05-09 17:06:01.710,3,-0.16,0.08,1.13,-23.803400000000003,-5.1772,10.314,175,75
2026-05-09 17:06:01.728,3,-0.22,0.05,1.09,-20.513399999999997,-0.29720000000000013,13.424,175,75
2026-05-09 17:06:01.739,3,-0.21,0.04,1.12,-19.1134,0.7427999999999999,13.184,175,75
2026-05-09 17:06:01.755,3,-0.15,0.03,1.14,-19.663400000000003,-1.7572,14.344,175,75
2026-05-09 17:06:01.774,3,-0.29,0.04,1.04,-23.1334,-9.7472,20.924000000000003,175,75
2026-05-09 17:06:01.786,3,-0.33,0.02,0.94,-21.6134,-9.6272,17.944000000000003,175,75
2026-05-09 17:06:01.799,3,-0.36,0.07,0.94,-16.5534,-2.3072,15.744,175,75
2026-05-09 17:06:01.810,3,-0.28,0.06,1.05,-11.3034,4.7628,12.814,175,75
2026-05-09 17:06:01.821,3,-0.26,0.04,1.11,-11.8534,-0.9672000000000001,13.794,175,75
2026-05-09 17:06:01.829,3,-0.31,0.02,1.1,-13.9334,-8.3472,14.464,175,75
2026-05-09 17:06:01.848,3,-0.33,0.02,1.08,-13.6234,-10.177200000000001,11.783999999999999,175,75
2026-05-09 17:06:01.858,3,-0.31,0.05,1.07,-12.9534,-12.3672,7.694000000000001,175,75
2026-05-09 17:06:01.874,3,-0.27,0.08,1.08,-12.2234,-11.6972,6.724,175,75
2026-05-09 17:06:01.886,3,-0.24,0.07,1.09,-12.4034,-12.7972,9.104000000000001,175,75
2026-05-09 17:06:01.889,3,-0.26,0.06,1.06,-13.3234,-14.6272,11.113999999999999,175,75
2026-05-09 17:06:01.904,3,-0.3,0.08,1.03,-12.7134,-14.5672,10.684,175,75
2026-05-09 17:06:01.919,3,-0.35,0.04,0.96,-7.7134,-9.1972,9.464,175,75
2026-05-09 17:06:01.940,3,-0.32,0.01,0.99,-5.513400000000001,-2.3072,5.804,175,75
2026-05-09 17:06:01.940,3,-0.29,0.03,1.06,-3.8634,2.0828,5.014,175,75
2026-05-09 17:06:01.951,3,-0.28,0.05,1.08,-4.7834,-2.0072,5.504,175,75
2026-05-09 17:06:01.971,3,-0.28,0.07,1.05,-5.8234,-6.3972,5.994,175,75
2026-05-09 17:06:01.983,3,-0.3,0.05,1.05,-2.8934,-3.6472,4.894,175,75
2026-05-09 17:06:02.011,3,-0.28,0.06,1.08,-3.1334,-2.7972,5.194000000000001,175,75
2026-05-09 17:06:02.016,3,-0.31,0.04,1.03,-4.6634,-7.0672,6.784000000000001,175,75
2026-05-09 17:06:02.032,3,-0.36,0.02,0.99,-3.3834,-4.1972000000000005,5.074,175,75
2026-05-09 17:06:02.061,3,-0.32,0.02,1.01,-0.7534000000000001,-0.9072,1.054,175,75
2026-05-09 17:06:02.086,3,-0.27,0.06,1.06,-0.8234000000000001,-2.6772,1.1740000000000002,175,75
2026-05-09 17:06:02.101,3,-0.29,0.04,1.03,-1.6134000000000002,-4.9272,4.774,175,75
2026-05-09 17:06:02.120,3,-0.32,0.04,1.03,-1.0634000000000001,-3.5872,3.064,175,75
2026-05-09 17:06:02.149,3,-0.32,0.05,1.01,1.2565999999999997,-1.0872000000000002,2.334,175,75
2026-05-09 17:06:02.149,3,-0.31,0.06,1.03,2.6566,0.8628,0.8040000000000002,175,75
2026-05-09 17:06:02.174,3,-0.29,0.05,1.06,3.6966,-0.8472,-0.47599999999999976,175,75
2026-05-09 17:06:02.186,3,-0.31,0.06,1.06,2.6566,-2.7372,-0.9659999999999997,175,75
2026-05-09 17:06:02.208,3,-0.3,0.07,1.04,2.7766,-3.7072000000000003,-1.5059999999999998,175,75
2026-05-09 17:06:02.208,3,-0.3,0.05,1.03,3.3266,-2.8572,-0.6559999999999999,175,75
2026-05-09 17:06:02.231,3,-0.29,0.06,1.06,4.9166,0.2527999999999997,-1.876,175,75
2026-05-09 17:06:02.260,3,-0.29,0.04,1.06,3.4466,-0.9072,1.9640000000000002,175,75
2026-05-09 17:06:02.260,3,-0.29,0.05,1.06,3.6966,-1.7572,1.4140000000000001,175,75
2026-05-09 17:06:02.294,3,-0.32,0.03,1.0,1.6166,-4.5672,3.424,175,75
2026-05-09 17:06:02.305,3,-0.31,0.05,1.03,4.7866,6.162800000000001,1.9640000000000002,175,75
2026-05-09 17:06:02.336,3,-0.29,0.08,1.08,4.4266,4.822799999999999,2.144,175,75
2026-05-09 17:06:02.336,3,-0.29,0.09,1.07,3.0266,1.7128,4.224,175,75
2026-05-09 17:06:02.353,3,-0.32,0.08,1.04,2.4166,-0.6572,4.894,175,75
2026-05-09 17:06:02.353,3,-0.31,0.05,1.03,3.0866,0.07279999999999998,3.854,175,75
2026-05-09 17:06:02.375,3,-0.29,0.02,1.08,4.3666,-1.0872000000000002,3.3640000000000003,175,75
2026-05-09 17:06:02.386,3,-0.3,0.03,1.07,3.2066,-5.4172,4.524,175,75
2026-05-09 17:06:02.398,3,-0.32,0.05,1.07,3.3865999999999996,-4.8072,4.584,175,75
2026-05-09 17:06:02.408,3,-0.31,0.05,1.07,3.2665999999999995,-4.7472,5.074,175,75
2026-05-09 17:06:02.418,3,-0.32,0.05,1.05,2.2866,-5.0472,4.644,175,75
2026-05-09 17:06:02.427,3,-0.33,0.08,1.06,3.2665999999999995,-1.3372000000000002,4.344,175,75
2026-05-09 17:06:02.453,3,-0.27,0.09,1.08,4.1166,0.8628,2.944,175,75
2026-05-09 17:06:02.464,3,-0.29,0.07,1.08,3.6365999999999996,1.9628,5.314,175,75
2026-05-09 17:06:02.493,3,-0.31,0.03,1.08,3.9366000000000003,1.7128,3.124,175,75
2026-05-09 17:06:02.503,3,-0.29,0.04,1.1,4.0565999999999995,2.2628,3.974,175,75
2026-05-09 17:06:02.513,3,-0.28,0.05,1.1,3.6365999999999996,-0.7272000000000003,4.224,175,75
2026-05-09 17:06:02.530,3,-0.3,0.05,1.1,4.0565999999999995,-2.3672000000000004,4.164,175,75
2026-05-09 17:06:02.559,3,-0.34,0.06,1.06,4.1166,2.2628,3.3040000000000003,175,75
2026-05-09 17:06:02.565,3,-0.31,0.05,1.09,4.1166,1.4128000000000003,2.814,175,75
2026-05-09 17:06:02.585,3,-0.31,0.07,1.07,3.0266,-1.8772000000000002,2.334,175,75
2026-05-09 17:06:02.596,3,-0.31,0.09,1.04,4.1766,-1.2072,2.6340000000000003,175,75
2026-05-09 17:06:02.617,3,-0.3,0.07,1.08,7.3566,5.252800000000001,4.104,175,75
2026-05-09 17:06:02.624,3,-0.28,0.09,1.11,8.5666,5.252800000000001,1.8440000000000003,175,75
2026-05-09 17:06:02.635,3,-0.25,0.13,1.15,10.0366,2.5128,1.7840000000000003,175,75
2026-05-09 17:06:02.651,3,-0.25,0.12,1.13,8.3866,-0.9672000000000001,3.494,175,75
2026-05-09 17:06:02.666,3,-0.27,0.05,1.1,8.5666,-0.29720000000000013,4.644,175,75
2026-05-09 17:06:02.686,3,-0.3,0.08,1.08,9.3666,-1.1472000000000002,3.424,175,75
2026-05-09 17:06:02.698,3,-0.3,0.08,1.08,9.9166,2.0828,6.414,175,75
2026-05-09 17:06:02.709,3,-0.27,0.06,1.12,9.3066,3.3627999999999996,8.304,175,75
2026-05-09 17:06:02.709,3,-0.28,0.05,1.13,9.3666,-0.9072,8.614,175,75
2026-05-09 17:06:02.716,3,-0.32,0.07,1.09,7.656599999999999,-3.3472,8.974,175,75
2026-05-09 17:06:02.733,3,-0.36,0.08,1.06,8.2066,-1.0872000000000002,10.924,175,75
2026-05-09 17:06:02.744,3,-0.34,0.08,1.05,8.2666,6.412800000000001,11.783999999999999,175,75
2026-05-09 17:06:02.758,3,-0.3,0.12,1.14,9.246599999999999,7.752800000000001,12.814,175,75
2026-05-09 17:06:02.782,3,-0.27,0.13,1.19,6.4366,-1.2072,13.004,175,75
2026-05-09 17:06:02.793,3,-0.31,0.15,1.16,5.9466,-2.3072,13.004,175,75
2026-05-09 17:06:02.793,3,-0.34,0.18,1.12,6.316599999999999,1.9628,12.514,175,75
2026-05-09 17:06:02.816,3,-0.3,0.21,1.13,7.7766,0.2527999999999997,9.714,175,75
2026-05-09 17:06:02.827,3,-0.3,0.13,1.11,8.5066,2.8728000000000002,13.734,175,75
2026-05-09 17:06:02.839,3,-0.27,-0.02,1.08,7.5966000000000005,5.1328,14.834,175,75
2026-05-09 17:06:02.847,3,-0.38,-0.07,1.08,8.3266,6.5328,17.214000000000002,175,75
2026-05-09 17:06:02.868,3,-0.36,0.03,1.11,8.3266,3.4228,12.024,175,75
2026-05-09 17:06:02.885,3,-0.34,0.09,1.13,9.246599999999999,0.6227999999999998,12.634,175,75
2026-05-09 17:06:02.910,3,-0.38,0.14,1.07,8.996599999999999,9.8828,13.064,175,75
2026-05-09 17:06:02.922,3,-0.35,0.14,1.13,11.0666,13.852800000000002,12.024,175,75
2026-05-09 17:06:02.922,3,-0.34,0.17,1.15,10.8266,13.5428,11.783999999999999,175,75
2026-05-09 17:06:02.932,3,-0.33,0.18,1.17,11.3766,10.0728,11.234,175,75
2026-05-09 17:06:02.954,3,-0.34,0.18,1.15,11.4366,7.4528,11.844,175,75
2026-05-09 17:06:02.954,3,-0.3,0.14,1.17,14.606599999999998,10.7428,11.354,175,75
2026-05-09 17:06:02.966,3,-0.27,0.05,1.17,14.486600000000001,10.2528,13.244,175,75
2026-05-09 17:06:02.976,3,-0.38,-0.07,1.17,10.6466,8.4228,20.194000000000003,175,75
2026-05-09 17:06:03.002,3,-0.45,0.05,1.12,10.5266,-4.7472,9.224,175,75
2026-05-09 17:06:03.010,3,-0.45,0.18,1.01,9.6666,-9.0172,10.134,175,75
2026-05-09 17:06:03.021,3,-0.49,0.21,0.95,10.3966,-7.187200000000001,13.974,175,75
2026-05-09 17:06:03.040,3,-0.42,0.16,1.08,14.1166,6.5928,12.634,175,75
2026-05-09 17:06:03.052,3,-0.32,0.1,1.22,14.306600000000001,7.572800000000001,11.964,175,75
2026-05-09 17:06:03.052,3,-0.3,0.08,1.28,10.4666,-2.6772,12.634,175,75
2026-05-09 17:06:03.058,3,-0.33,0.06,1.25,6.1366,-9.3772,17.024,175,75
2026-05-09 17:06:03.069,3,-0.4,0.03,1.17,3.9366000000000003,-12.3072,19.834000000000003,175,75
2026-05-09 17:06:03.086,3,-0.46,0.05,1.1,3.8766,-12.0072,16.174,175,75
2026-05-09 17:06:03.113,3,-0.37,0.15,1.2,6.0666,-2.4272,13.914,175,75
2026-05-09 17:06:03.131,3,-0.37,0.15,1.22,3.2066,-5.5972,16.664,175,75
2026-05-09 17:06:03.142,3,-0.45,0.14,1.17,-0.8234000000000001,-13.4072,16.414,175,75
2026-05-09 17:06:03.153,3,-0.49,0.14,1.1,-0.8234000000000001,-15.4172,12.884,175,75
2026-05-09 17:06:03.165,3,-0.47,0.13,1.13,1.8666,-6.8772,8.914,175,75
2026-05-09 17:06:03.175,3,-0.47,0.12,1.17,0.15659999999999985,-6.6972000000000005,7.454000000000001,175,75
2026-05-09 17:06:03.186,3,-0.47,0.11,1.19,-1.7934,-9.6872,5.744,175,75
2026-05-09 17:06:03.208,3,-0.52,0.13,1.05,-2.2834000000000003,-16.3972,0.19400000000000017,175,75
2026-05-09 17:06:03.219,3,-0.45,0.14,1.05,-0.5134000000000001,-8.8372,-1.146,175,75
2026-05-09 17:06:03.229,3,-0.42,0.14,1.14,-2.8934,-9.4472,4.644,175,75
2026-05-09 17:06:03.243,3,-0.47,0.15,1.11,-3.8034,-6.267200000000001,5.9239999999999995,175,75
2026-05-09 17:06:03.258,3,-0.4,0.13,1.06,-4.353400000000001,2.3828,3.184,175,75
2026-05-09 17:06:03.283,3,-0.41,0.02,1.11,-3.6834,15.012799999999999,7.084,175,75
2026-05-09 17:06:03.304,3,-0.39,0.07,1.26,-3.9934000000000003,12.7528,0.5640000000000002,175,75
2026-05-09 17:06:03.310,3,-0.37,0.13,1.28,-9.6634,3.6628000000000003,2.334,175,75
2026-05-09 17:06:03.319,3,-0.41,0.15,1.23,-14.0534,-2.4272,5.9239999999999995,175,75
2026-05-09 17:06:03.330,3,-0.47,0.15,1.15,-16.7334,-2.1272,5.864000000000001,175,75
2026-05-09 17:06:03.342,3,-0.47,0.17,1.15,-15.2734,11.5328,3.3640000000000003,175,75
2026-05-09 17:06:03.367,3,-0.3,0.19,1.29,-17.1034,7.812800000000001,3.184,175,75
2026-05-09 17:06:03.382,3,-0.36,0.16,1.26,-18.5634,-0.23720000000000008,5.9239999999999995,175,75
2026-05-09 17:06:03.412,3,-0.41,0.06,1.17,-19.7834,-1.7572,0.8640000000000001,175,75
2026-05-09 17:06:03.423,3,-0.37,0.09,1.2,-19.053400000000003,0.9827999999999997,0.014000000000000234,175,75
2026-05-09 17:06:03.435,3,-0.41,0.16,1.2,-22.0334,-6.6372,2.944,175,75
2026-05-09 17:06:03.477,3,-0.44,0.14,1.07,-22.0334,-2.6172,2.694,175,75
2026-05-09 17:06:03.477,3,-0.42,0.09,1.11,-22.223399999999998,-0.11719999999999997,3.3040000000000003,175,75
2026-05-09 17:06:03.498,3,-0.38,0.03,1.25,-22.833399999999997,-5.7872,0.19400000000000017,175,75
2026-05-09 17:06:03.511,3,-0.39,0.18,1.15,-28.2534,-25.3572,2.814,175,75
2026-05-09 17:06:03.536,3,-0.5,0.07,1.02,-22.523400000000002,-12.4872,0.6240000000000001,175,75
2026-05-09 17:06:03.546,3,-0.42,0.07,1.06,-22.223399999999998,-10.7872,-3.156,175,75
2026-05-09 17:06:03.557,3,-0.42,0.14,1.03,-24.473399999999998,-22.0672,2.694,175,75
2026-05-09 17:06:03.562,3,-0.47,0.14,0.96,-24.053400000000003,-22.8572,4.644,175,75
2026-05-09 17:06:03.568,3,-0.46,0.14,0.95,-18.6834,-6.7572,3.064,175,75
2026-05-09 17:06:03.596,3,-0.4,0.12,1.1,-17.583399999999997,-3.5872,4.644,175,75
2026-05-09 17:06:03.618,3,-0.43,0.09,1.07,-17.0334,-3.5272,2.8840000000000003,175,75
2026-05-09 17:06:03.642,3,-0.38,0.08,1.17,-16.0634,-10.0472,1.1740000000000002,175,75
2026-05-09 17:06:03.653,3,-0.39,0.08,1.18,-17.833399999999997,-15.9672,2.7540000000000004,175,75
2026-05-09 17:06:03.665,3,-0.38,0.1,1.16,-18.6834,-18.3472,1.2340000000000002,175,75
2026-05-09 17:06:03.678,3,-0.4,0.13,1.11,-18.6834,-23.5872,1.114,175,75
2026-05-09 17:06:03.678,3,-0.44,0.14,1.04,-19.843400000000003,-27.1272,2.2140000000000004,175,75
2026-05-09 17:06:03.715,3,-0.54,0.12,0.81,-19.5334,-32.367200000000004,2.5140000000000002,175,75
2026-05-09 17:06:03.728,3,-0.47,0.13,0.85,-8.8034,-6.8172,-1.996,175,75
2026-05-09 17:06:03.728,3,-0.36,0.1,1.04,-6.7934,0.6827999999999999,0.9240000000000002,175,75
2026-05-09 17:06:03.772,3,-0.39,0.03,1.12,-9.3534,-26.0272,0.13400000000000012,175,75
2026-05-09 17:06:03.784,3,-0.39,0.05,1.1,-8.743400000000001,-28.4672,0.07400000000000007,175,75
2026-05-09 17:06:03.784,3,-0.38,0.06,1.1,-6.5534,-28.4672,-0.04599999999999982,175,75
2026-05-09 17:06:03.868,3,-0.43,0.09,1.04,0.9466000000000001,-17.8572,-2.8559999999999994,175,75
2026-05-09 17:06:03.898,3,-0.43,0.1,1.04,0.8266,-19.6872,-2.3659999999999997,175,75
2026-05-09 17:06:03.898,3,-0.45,0.09,1.0,0.27659999999999973,-22.2472,-2.1159999999999997,175,75
2026-05-09 17:06:03.901,3,-0.46,0.09,1.0,1.4365999999999999,-20.8472,-4.496,175,75
2026-05-09 17:06:03.916,3,-0.45,0.09,0.99,2.1666,-23.5872,-6.2059999999999995,175,75
2026-05-09 17:06:03.928,3,-0.46,0.1,0.99,2.7165999999999997,-19.9272,-7.916,175,75
2026-05-09 17:06:03.939,3,-0.42,0.09,1.0,4.3666,-14.1372,-8.766,175,75
2026-05-09 17:06:03.960,3,-0.48,0.12,0.98,3.5065999999999997,-4.9872,-8.886000000000001,175,75
2026-05-09 17:06:03.978,3,-0.41,0.1,1.09,10.3366,2.6328,-13.946,175,75
2026-05-09 17:06:04.018,3,-0.42,0.08,1.05,5.1566,-8.0372,-11.996,175,75
2026-05-09 17:06:04.046,3,-0.39,0.1,1.11,7.166600000000001,-3.7672,-16.386,175,75
2026-05-09 17:06:04.057,3,-0.34,0.11,1.13,7.7166,-3.0972,-16.266,175,75
2026-05-09 17:06:04.068,3,-0.37,0.11,1.11,4.7866,-9.9872,-13.336,175,75
2026-05-09 17:06:04.089,3,-0.39,0.06,1.03,4.1766,-8.4672,-14.866000000000001,175,75
2026-05-09 17:06:04.094,3,-0.39,0.07,1.09,5.4666,-4.1972000000000005,-17.246,175,75
2026-05-09 17:06:04.106,3,-0.33,0.1,1.13,3.6365999999999996,-7.247199999999999,-17.366,175,75
2026-05-09 17:06:04.143,3,-0.38,0.07,1.08,1.6166,-4.2572,-15.596000000000002,175,75
2026-05-09 17:06:04.155,3,-0.34,0.07,1.1,0.9466000000000001,-5.7872,-17.246,175,75
2026-05-09 17:06:04.177,3,-0.32,0.09,1.1,-0.21340000000000003,-6.7572,-15.536,175,75
2026-05-09 17:06:04.189,3,-0.3,0.08,1.15,-1.7334,-9.0172,-13.646,175,75
2026-05-09 17:06:04.210,3,-0.29,0.06,1.15,-2.8334,-13.5872,-13.466000000000001,175,75
2026-05-09 17:06:04.210,3,-0.3,0.06,1.1,-5.3334,-17.127200000000002,-11.756,175,75
2026-05-09 17:06:04.235,3,-0.32,0.05,1.09,-4.5334,-9.927200000000001,-11.756,175,75
2026-05-09 17:06:04.240,3,-0.32,0.07,1.11,-6.3034,-11.2072,-11.996,175,75
2026-05-09 17:06:04.275,3,-0.31,0.11,1.08,-7.5234000000000005,-3.4072,-8.826,175,75
2026-05-09 17:06:04.289,3,-0.3,0.1,1.11,-8.0734,-2.2472000000000003,-6.506,175,75
2026-05-09 17:06:04.302,3,-0.3,0.08,1.1,-8.3834,1.7128,-4.986000000000001,175,75
2026-05-09 17:06:04.312,3,-0.28,0.08,1.13,-7.2834,3.1228000000000002,-5.106,175,75
2026-05-09 17:06:04.343,3,-0.26,0.07,1.12,-9.7834,-1.5772000000000002,0.5640000000000002,175,75
2026-05-09 17:06:04.366,3,-0.29,0.04,1.1,-12.4034,-8.5872,2.024,175,75
2026-05-09 17:06:04.377,3,-0.31,0.06,1.07,-11.3034,-5.1772,2.084,175,75
2026-05-09 17:06:04.388,3,-0.29,0.06,1.06,-8.8034,1.8428,0.6840000000000002,175,75
2026-05-09 17:06:04.398,3,-0.29,0.09,1.08,-8.683399999999999,4.9528,2.694,175,75
2026-05-09 17:06:04.408,3,-0.28,0.09,1.11,-8.1334,7.2628,6.474,175,75
2026-05-09 17:06:04.436,3,-0.3,0.06,1.05,-7.8934,-11.6972,1.114,175,75
2026-05-09 17:06:04.448,3,-0.31,0.06,1.02,-6.2434,-6.8772,2.6340000000000003,175,75
2026-05-09 17:06:04.460,3,-0.31,0.03,1.02,-4.603400000000001,0.4927999999999999,3.914,175,75
2026-05-09 17:06:04.471,3,-0.34,0.02,1.02,-3.1934,2.2027999999999994,0.5040000000000001,175,75
2026-05-09 17:06:04.480,3,-0.32,0.03,1.03,0.39659999999999984,7.572800000000001,-3.156,175,75
2026-05-09 17:06:04.523,3,-0.29,0.04,0.99,3.3266,16.8428,-4.196,175,75
2026-05-09 17:06:04.523,3,-0.27,0.03,0.97,5.7665999999999995,23.3028,-5.166,175,75
2026-05-09 17:06:04.534,3,-0.26,0.01,0.95,7.2866,28.4828,-6.086,175,75
2026-05-09 17:06:04.545,3,-0.31,0.01,1.01,8.1466,32.5728,-4.496,175,75
2026-05-09 17:06:04.583,3,-0.35,0.08,1.05,1.8066,15.6828,-3.946,175,75
2026-05-09 17:06:04.583,3,-0.31,0.1,1.05,-0.21340000000000003,14.0928,-1.146,175,75
2026-05-09 17:06:04.608,3,-0.23,0.01,1.18,-0.1434000000000002,-5.5972,1.294,175,75
2026-05-09 17:06:04.640,3,-0.24,0.01,1.13,-4.7234,-15.1772,0.8640000000000001,175,75
2026-05-09 17:06:04.640,3,-0.27,0.04,1.06,-4.353400000000001,-13.7072,2.454,175,75
2026-05-09 17:06:04.653,3,-0.32,0.07,1.0,0.0965999999999998,-2.8572,2.2140000000000004,175,75
2026-05-09 17:06:04.654,3,-0.34,0.1,0.98,2.1666,4.5228,1.604,175,75
2026-05-09 17:06:04.665,3,-0.35,0.11,0.99,4.7265999999999995,10.8628,1.114,175,75
2026-05-09 17:06:04.673,3,-0.32,0.07,1.03,5.8266,13.602800000000002,1.7840000000000003,175,75
2026-05-09 17:06:04.694,3,-0.31,0.06,1.11,5.1566,12.7528,3.3040000000000003,175,75
2026-05-09 17:06:04.715,3,-0.29,0.07,1.17,3.2066,6.5928,4.464,175,75
2026-05-09 17:06:04.721,3,-0.3,0.08,1.17,-0.2734000000000001,-2.9172000000000002,7.214,175,75
2026-05-09 17:06:04.728,3,-0.36,0.12,1.1,-2.5834,-9.3172,9.464,175,75
2026-05-09 17:06:04.750,3,-0.39,0.09,1.01,-1.5534000000000001,-9.1372,8.184,175,75
2026-05-09 17:06:04.766,3,-0.35,0.02,1.05,-0.33340000000000014,-3.6472,6.054,175,75
2026-05-09 17:06:04.779,3,-0.36,0.05,1.04,0.5265999999999997,-1.6372000000000002,3.914,175,75
2026-05-09 17:06:04.790,3,-0.33,0.08,1.05,1.4365999999999999,1.7128,2.5140000000000002,175,75
2026-05-09 17:06:04.828,3,-0.34,0.06,1.07,1.6766,2.5128,3.494,175,75
2026-05-09 17:06:04.839,3,-0.34,0.06,1.08,2.3566000000000003,3.4228,1.9640000000000002,175,75
2026-05-09 17:06:04.850,3,-0.34,0.06,1.08,1.6166,2.0227999999999997,1.8440000000000003,175,75
2026-05-09 17:06:04.853,3,-0.34,0.05,1.06,1.4966,1.2327999999999997,1.8440000000000003,175,75
2026-05-09 17:06:04.863,3,-0.36,0.06,1.05,1.6766,2.4527999999999994,1.2340000000000002,175,75
2026-05-09 17:06:04.898,3,-0.33,0.08,1.06,4.1766,6.7128,-1.7559999999999998,175,75
2026-05-09 17:06:04.909,3,-0.32,0.07,1.09,5.3966,8.732800000000001,-2.726,175,75
2026-05-09 17:06:04.920,3,-0.35,0.07,1.08,5.8866,9.8228,-2.8559999999999994,175,75
2026-05-09 17:06:04.932,3,-0.37,0.08,1.03,6.256600000000001,13.242799999999999,-2.306,175,75
2026-05-09 17:06:04.952,3,-0.34,0.07,1.02,8.6366,19.8828,-2.306,175,75
2026-05-09 17:06:04.952,3,-0.34,0.06,1.03,10.0366,17.692800000000002,-3.3959999999999995,175,75
2026-05-09 17:06:04.962,3,-0.35,0.05,1.03,11.4366,17.692800000000002,-3.826,175,75
2026-05-09 17:06:04.977,3,-0.38,0.03,1.03,14.3666,20.6828,-6.446,175,75
2026-05-09 17:06:04.995,3,-0.43,0.06,0.96,18.026600000000002,32.8728,-9.196,175,75
2026-05-09 17:06:05.004,3,-0.33,0.06,1.01,24.056600000000003,50.1928,-13.466000000000001,175,75
2026-05-09 17:06:05.010,3,-0.24,0.06,1.14,28.696599999999997,46.9628,-14.006,175,75
2026-05-09 17:06:05.045,3,-0.24,0.02,1.2,25.276600000000002,27.692800000000002,-10.716000000000001,175,75
2026-05-09 17:06:05.045,3,-0.3,-0.0,1.14,22.656599999999997,18.5428,-10.656,175,75
2026-05-09 17:06:05.068,3,-0.34,0.03,1.03,31.0666,18.2428,-21.575999999999997,175,75
2026-05-09 17:06:05.068,3,-0.3,0.07,1.03,33.3866,20.6228,-23.035999999999998,175,75
2026-05-09 17:06:05.077,3,-0.29,0.1,1.01,34.8566,22.0828,-20.535999999999998,175,75
2026-05-09 17:06:05.108,3,-0.32,0.1,1.02,36.4366,25.192800000000002,-18.156,175,75
2026-05-09 17:06:05.118,3,-0.33,0.09,1.07,38.5066,25.0728,-19.375999999999998,175,75
2026-05-09 17:06:05.118,3,-0.33,0.08,1.08,39.6666,20.0128,-19.926,175,75
2026-05-09 17:06:05.152,3,-0.33,0.07,1.11,42.836600000000004,17.9328,-20.285999999999998,175,75
2026-05-09 17:06:05.163,3,-0.32,0.07,1.09,43.6366,14.0928,-21.386,175,75
2026-05-09 17:06:05.174,3,-0.37,0.11,1.03,46.3166,19.8228,-21.936,175,75
2026-05-09 17:06:05.181,3,-0.34,0.12,1.04,50.946600000000004,27.9328,-22.855999999999998,175,75
2026-05-09 17:06:05.192,3,-0.32,0.12,1.09,53.7566,30.622799999999998,-22.605999999999998,175,75
2026-05-09 17:06:05.214,3,-0.33,0.13,1.1,55.2166,34.4028,-21.206,175,75
2026-05-09 17:06:05.244,3,-0.44,0.18,1.01,59.7866,50.8028,-17.855999999999998,175,75
2026-05-09 17:06:05.244,3,-0.47,0.23,0.97,63.5666,66.9028,-15.966,175,75
2026-05-09 17:06:05.266,3,-0.46,0.24,0.97,66.9866,74.4628,-11.386000000000001,175,75
2026-05-09 17:06:05.276,3,-0.41,0.2,1.02,70.94659999999999,77.2028,-8.766,175,75
2026-05-09 17:06:05.288,3,-0.33,0.1,1.12,76.00659999999999,73.9728,-7.666,175,75
2026-05-09 17:06:05.295,3,-0.31,0.05,1.17,76.3166,69.8828,-9.866,175,75
2026-05-09 17:06:05.323,3,-0.28,0.03,1.23,77.3566,66.7128,-10.966000000000001,175,75
2026-05-09 17:06:05.328,3,-0.28,0.07,1.35,75.7066,45.3728,-15.656,175,75
2026-05-09 17:06:05.328,3,-0.32,0.13,1.28,74.30659999999999,36.1028,-15.895999999999999,175,75
2026-05-09 17:06:05.341,3,-0.38,0.16,1.2,76.00659999999999,34.272800000000004,-16.506,175,75
2026-05-09 17:06:05.351,3,-0.38,0.19,1.14,79.4866,46.4128,-16.996,175,75
2026-05-09 17:06:05.371,3,-0.33,0.24,1.28,89.72659999999999,50.5528,-16.636,175,75
2026-05-09 17:06:05.381,3,-0.28,0.3,1.34,92.89659999999999,43.0528,-14.806000000000001,175,75
2026-05-09 17:06:05.396,3,-0.22,0.22,1.38,100.33659999999999,25.8628,-13.526,175,75
2026-05-09 17:06:05.409,3,-0.27,0.1,1.43,105.64659999999999,9.2728,-11.446,175,75
2026-05-09 17:06:05.428,3,-0.15,-0.08,1.62,118.9366,-4.8672,-31.506,175,75
2026-05-09 17:06:05.461,3,-0.25,0.03,1.47,128.3266,-2.0672,-47.056,175,75
2026-05-09 17:06:05.467,3,-0.24,-0.06,1.5,137.0466,13.7928,-51.146,175,75
2026-05-09 17:06:05.478,3,-0.14,-0.2,1.55,142.16660000000002,13.732800000000001,-67.366,175,75
2026-05-09 17:06:05.478,3,-0.15,-0.13,1.55,149.72660000000002,12.3828,-81.696,175,75
2026-05-09 17:06:05.506,3,-0.2,-0.03,1.52,153.44660000000002,12.5128,-89.866,175,75
2026-05-09 17:06:05.519,3,-0.33,0.15,1.37,161.00660000000002,14.4028,-105.836,175,75
2026-05-09 17:06:05.534,3,-0.51,0.33,1.28,166.9266,12.2628,-115.776,175,75
2026-05-09 17:06:05.553,3,-0.56,0.39,1.26,169.1166,16.2328,-117.116,175,75
2026-05-09 17:06:05.600,3,-0.44,0.52,1.5,168.8766,23.4228,-124.196,175,75
2026-05-09 17:06:05.616,3,-0.4,0.55,1.53,170.5266,28.7928,-131.26600000000002,175,75
2026-05-09 17:06:05.637,3,-0.26,0.55,1.59,173.69660000000002,29.882800000000003,-144.496,175,75
2026-05-09 17:06:05.648,3,-0.24,0.6,1.63,175.8266,34.8828,-151.38600000000002,175,75
2026-05-09 17:06:05.660,3,-0.23,0.65,1.63,175.3966,37.9928,-156.816,175,75
2026-05-09 17:06:05.671,3,-0.23,0.69,1.63,177.0466,42.7528,-160.656,175,75
2026-05-09 17:06:05.682,3,-0.25,0.74,1.64,178.38660000000002,45.4928,-165.286,175,75
2026-05-09 17:06:05.692,3,-0.26,0.78,1.62,179.91660000000002,47.6928,-166.63600000000002,175,75
2026-05-09 17:06:05.714,3,-0.3,0.88,1.67,183.8766,46.2328,-169.436,175,75
2026-05-09 17:06:05.725,3,-0.32,0.93,1.65,181.6166,40.8628,-167.85600000000002,175,75
2026-05-09 17:06:05.746,3,-0.39,1.02,1.64,181.31660000000002,32.9328,-161.63600000000002,175,75
2026-05-09 17:06:05.766,3,-0.44,1.19,1.6,177.28660000000002,19.8228,-145.04600000000002,175,75
2026-05-09 17:06:05.778,3,-0.46,1.24,1.6,178.0866,24.0928,-137.246,175,75
2026-05-09 17:06:05.818,3,-0.31,1.29,1.8,164.72660000000002,6.232800000000001,-106.636,175,75
2026-05-09 17:06:05.825,3,-0.29,1.25,1.81,156.8666,0.8628,-98.886,175,75
2026-05-09 17:06:05.850,3,-0.24,1.29,1.78,143.2066,9.4628,-88.216,175,75
2026-05-09 17:06:05.881,3,-0.15,1.33,1.77,137.35660000000001,23.3028,-76.756,175,75
2026-05-09 17:06:05.893,3,-0.09,1.37,1.85,134.97660000000002,39.7028,-67.116,175,75
2026-05-09 17:06:05.904,3,-0.03,1.35,1.93,131.7466,33.0528,-64.496,175,75
2026-05-09 17:06:05.909,3,-0.07,1.39,1.88,123.50659999999999,16.5928,-56.936,175,75
2026-05-09 17:06:05.922,3,-0.14,1.42,1.87,117.89659999999999,12.4528,-53.396,175,75
2026-05-09 17:06:05.937,3,-0.18,1.45,1.81,107.41659999999999,6.1028,-47.546,175,75
2026-05-09 17:06:05.956,3,-0.28,1.53,1.71,93.8166,7.082800000000001,-38.036,175,75
2026-05-09 17:06:05.978,3,-0.21,1.58,1.72,83.8166,8.482800000000001,-26.325999999999997,175,75
2026-05-09 17:06:05.988,3,-0.14,1.57,1.79,77.6566,5.252800000000001,-19.075999999999997,175,75
2026-05-09 17:06:05.988,3,-0.13,1.6,1.85,72.1066,-2.9772000000000003,-11.266,175,75
2026-05-09 17:06:06.002,3,-0.1,1.56,1.82,64.97659999999999,-15.4772,-4.986000000000001,175,75
2026-05-09 17:06:06.020,3,-0.12,1.57,1.64,58.0266,-25.2372,-0.16599999999999993,175,75
2026-05-09 17:06:06.026,3,-0.19,1.6,1.57,55.3966,-20.1172,4.224,175,75
2026-05-09 17:06:06.040,3,-0.22,1.62,1.62,55.946600000000004,-14.017199999999999,6.1739999999999995,175,75
2026-05-09 17:06:06.047,3,0.12,1.68,1.7,44.1766,-4.5672,19.584000000000003,175,75
2026-05-09 17:06:06.066,3,-2.18,1.44,3.58,-23.3234,175.9228,36.294000000000004,175,75
2026-05-09 17:06:06.082,3,0.81,2.4,1.18,-46.8534,-321.7572,40.504000000000005,175,75
2026-05-09 17:06:06.104,3,-0.94,1.89,0.89,11.3166,114.6428,0.8040000000000002,175,75
2026-05-09 17:06:06.115,3,0.2,1.4,2.21,-2.9534000000000002,72.2028,-13.646,175,75
2026-05-09 17:06:06.129,3,0.14,1.68,2.27,-22.1034,-66.8772,4.034000000000001,175,75
2026-05-09 17:06:06.141,3,-0.65,1.7,1.58,-5.6934000000000005,-96.8772,-21.206,175,75
2026-05-09 17:06:06.154,3,-0.56,1.52,1.58,-0.1434000000000002,-7.9772,-43.466,175,75
2026-05-09 17:06:06.164,3,-0.25,1.35,2.15,-19.723399999999998,-14.4472,-41.876,175,75
2026-05-09 17:06:06.174,3,-0.51,1.29,2.11,-29.1134,-72.7972,-54.196,175,75
2026-05-09 17:06:06.193,3,-0.6,1.2,1.89,-43.8634,-43.8372,-65.966,175,75
2026-05-09 17:06:06.195,3,-0.41,1.16,2.08,-57.2234,-17.1872,-69.68599999999999,175,75
2026-05-09 17:06:06.213,3,-0.24,1.21,2.21,-70.5134,-29.5672,-74.926,175,75
2026-05-09 17:06:06.223,3,-0.15,1.22,2.08,-80.88340000000001,-37.7972,-76.696,175,75
2026-05-09 17:06:06.255,3,0.07,1.45,1.8,-87.3434,0.8628,-75.836,175,75
2026-05-09 17:06:06.267,3,0.07,1.5,1.85,-87.8934,0.9228000000000001,-71.446,175,75
2026-05-09 17:06:06.280,3,0.06,1.49,1.83,-90.08340000000001,-6.6972000000000005,-68.766,175,75
2026-05-09 17:06:06.280,3,0.02,1.51,1.8,-92.0334,-13.4072,-67.056,175,75
2026-05-09 17:06:06.295,3,-0.11,1.5,1.65,-95.7534,-23.5272,-61.815999999999995,175,75
2026-05-09 17:06:06.360,3,-0.27,1.41,1.67,-103.8634,-33.9572,-26.575999999999997,175,75
2026-05-09 17:06:06.375,3,-0.27,1.32,1.64,-105.8234,-40.5972,-22.855999999999998,175,75
2026-05-09 17:06:06.386,3,-0.29,1.27,1.62,-106.85340000000001,-37.6772,-17.605999999999998,175,75
2026-05-09 17:06:06.397,3,-0.3,1.17,1.59,-106.3634,-27.1272,-11.266,175,75
2026-05-09 17:06:06.409,3,-0.25,1.08,1.64,-104.96340000000001,-20.8472,-12.246,175,75
2026-05-09 17:06:06.409,3,-0.18,1.02,1.67,-104.72340000000001,-17.9172,-16.206,175,75
2026-05-09 17:06:06.431,3,-0.1,0.99,1.74,-102.2834,-12.6172,-15.656,175,75
2026-05-09 17:06:06.441,3,-0.06,0.94,1.74,-100.4534,-6.8172,-17.246,175,75
2026-05-09 17:06:06.441,3,-0.03,0.86,1.73,-95.4534,4.8828,-20.535999999999998,175,75
2026-05-09 17:06:06.457,3,-0.05,0.82,1.75,-91.6734,17.5128,-26.206,175,75
2026-05-09 17:06:06.457,3,-0.05,0.76,1.76,-87.77340000000001,24.8228,-28.336,175,75
2026-05-09 17:06:06.467,3,-0.17,0.76,1.78,-83.80340000000001,36.1628,-32.786,175,75
2026-05-09 17:06:06.486,3,-0.22,0.77,1.73,-82.83340000000001,43.3628,-37.726,175,75
2026-05-09 17:06:06.497,3,-0.29,0.82,1.71,-80.27340000000001,53.7928,-38.216,175,75
2026-05-09 17:06:06.511,3,-0.26,0.77,1.86,-79.2934,50.1928,-40.775999999999996,175,75
2026-05-09 17:06:06.522,3,-0.21,0.73,1.85,-88.44340000000001,29.7628,-39.686,175,75
2026-05-09 17:06:06.548,3,-0.24,0.74,1.77,-88.5634,31.772800000000004,-40.966,175,75
2026-05-09 17:06:06.559,3,-0.26,0.75,1.75,-89.1134,35.7428,-40.536,175,75
2026-05-09 17:06:06.565,3,-0.26,0.8,1.71,-90.69340000000001,39.522800000000004,-40.775999999999996,175,75
2026-05-09 17:06:06.592,3,-0.34,0.76,1.62,-93.9334,43.8528,-33.096,175,75
2026-05-09 17:06:06.616,3,-0.34,0.61,1.85,-91.1834,46.1628,-39.986,175,75
2026-05-09 17:06:06.626,3,-0.19,0.54,2.0,-96.7334,29.272800000000004,-42.726,175,75
2026-05-09 17:06:06.630,3,-0.09,0.51,2.0,-106.6134,16.352800000000002,-39.556,175,75
2026-05-09 17:06:06.643,3,-0.07,0.51,1.92,-114.2934,10.312800000000001,-36.815999999999995,175,75
2026-05-09 17:06:06.689,3,-0.22,0.45,1.73,-119.41340000000001,31.0428,-26.756,175,75
2026-05-09 17:06:06.702,3,-0.27,0.46,1.79,-131.7934,42.3228,-18.886,175,75
2026-05-09 17:06:06.713,3,-0.25,0.4,1.81,-139.1734,37.6928,-10.656,175,75
2026-05-09 17:06:06.724,3,-0.26,0.27,1.84,-142.64339999999999,30.0728,-1.876,175,75
2026-05-09 17:06:06.746,3,-0.26,0.02,1.8,-149.6634,20.6228,0.8640000000000001,175,75
2026-05-09 17:06:06.746,3,-0.34,-0.11,1.78,-150.4534,5.6828,-0.47599999999999976,175,75
2026-05-09 17:06:06.803,3,-0.37,-0.09,1.32,-138.0734,-56.3372,-13.586,175,75
2026-05-09 17:06:06.809,3,-0.4,0.02,1.19,-130.21339999999998,-57.6172,-15.656,175,75
2026-05-09 17:06:06.851,3,-0.38,0.51,1.14,-91.55340000000001,-24.7472,-36.326,175,75
2026-05-09 17:06:06.861,3,-0.28,0.59,1.17,-77.8934,-19.0772,-29.256,175,75
2026-05-09 17:06:06.861,3,-0.29,0.59,1.16,-72.16340000000001,-16.4572,-23.766,175,75
2026-05-09 17:06:06.884,3,-0.34,0.7,1.11,-38.6834,5.6828,-24.616,175,75
2026-05-09 17:06:06.897,3,-0.36,0.78,1.17,-24.413400000000003,19.1528,-22.485999999999997,175,75
2026-05-09 17:06:06.928,3,-0.37,0.78,1.2,13.6966,36.3528,1.4140000000000001,175,75
2026-05-09 17:06:06.940,3,-0.41,0.78,1.32,24.726599999999998,39.4628,3.5540000000000003,175,75
2026-05-09 17:06:06.949,3,-0.37,0.72,1.42,32.1066,33.3028,5.444000000000001,175,75
2026-05-09 17:06:07.001,3,-0.34,0.07,1.12,46.4366,-13.1572,18.494,175,75
2026-05-09 17:06:07.014,3,-0.37,-0.25,1.07,58.086600000000004,14.032800000000002,21.724,175,75
2026-05-09 17:06:07.024,3,-0.37,-0.51,1.2,69.1766,29.8228,20.864,175,75
2026-05-09 17:06:07.024,3,-0.36,-0.56,1.37,73.3866,27.692800000000002,14.224,175,75
2026-05-09 17:06:07.061,3,-0.11,-0.2,1.29,79.72659999999999,-16.0872,10.504,175,75
2026-05-09 17:06:07.061,3,-0.06,-0.26,1.38,87.9666,-10.9072,36.534,175,75
2026-05-09 17:06:07.093,3,-0.24,-0.81,1.43,77.1066,-39.0772,55.804,175,75
2026-05-09 17:06:07.122,3,-0.18,-0.5,1.7,88.69659999999999,-117.9772,53.424,175,75
2026-05-09 17:06:07.181,3,-0.65,0.18,1.42,63.2066,-103.5872,80.744,175,75
2026-05-09 17:06:07.209,3,-0.07,0.02,0.34,-93.38340000000001,-190.4772,44.954,175,75
2026-05-09 17:06:07.220,3,-0.12,0.3,0.11,-89.5334,-112.1872,48.304,175,75
2026-05-09 17:06:07.279,3,0.07,0.19,0.94,-164.4134,36.0428,12.274,175,75
2026-05-09 17:06:07.279,3,0.07,0.22,1.11,-179.9034,38.1228,8.064,175,75
2026-05-09 17:06:07.291,3,0.06,0.21,1.24,-198.2534,33.2428,6.724,175,75
2026-05-09 17:06:07.348,3,0.02,-0.21,1.6,-302.77340000000004,-37.3072,-1.146,175,75
2026-05-09 17:06:07.359,3,-0.03,-0.29,1.62,-312.34340000000003,-50.5972,-0.5359999999999998,175,75
2026-05-09 17:06:07.384,3,0.01,-0.38,1.6,-326.5534,-58.4672,0.8040000000000002,175,75
2026-05-09 17:06:07.424,3,-0.14,-1.02,1.31,-338.3834,14.642800000000001,15.564,175,75
2026-05-09 17:06:07.424,3,0.19,-1.18,1.68,-294.6634,50.9828,-22.305999999999997,175,75
2026-05-09 17:06:07.448,3,-0.13,-0.74,2.21,-226.55339999999998,21.9028,-65.896,175,75
2026-05-09 17:06:07.459,3,-0.01,-0.64,2.26,-246.9134,24.4028,-88.466,175,75
2026-05-09 17:06:07.469,3,0.07,-0.35,1.98,-265.9434,-5.5372,-63.646,175,75
2026-05-09 17:06:07.482,3,-0.13,-0.41,1.68,-255.27339999999998,-1.0872000000000002,-30.165999999999997,175,75
2026-05-09 17:06:07.482,3,-0.35,-0.58,1.48,-237.9534,37.8128,-21.636,175,75
2026-05-09 17:06:07.512,3,-0.54,-0.4,1.51,-165.7534,103.9128,-67.116,175,75
2026-05-09 17:06:07.519,3,-0.42,0.03,2.16,-86.24340000000001,79.5228,-53.396,175,75
2026-05-09 17:06:07.554,3,-0.27,0.28,2.45,-39.053399999999996,-22.9772,-17.485999999999997,175,75
2026-05-09 17:06:07.646,3,-0.22,0.21,1.42,154.85660000000001,-18.287200000000002,16.174,175,75
2026-05-09 17:06:07.646,3,-0.19,0.19,1.47,162.5966,-20.2372,30.254,175,75
2026-05-09 17:06:07.668,3,-0.15,0.08,1.38,178.63660000000002,-36.1472,30.924000000000003,175,75
2026-05-09 17:06:07.679,3,-0.14,0.1,1.27,184.3066,-30.5372,26.534000000000002,175,75
2026-05-09 17:06:07.679,3,-0.18,0.13,1.16,191.6766,-11.7572,28.004,175,75
2026-05-09 17:06:07.693,3,-0.21,0.12,1.1,201.31660000000002,9.2128,30.444000000000003,175,75
2026-05-09 17:06:07.725,3,-0.18,0.02,1.15,226.6766,47.022800000000004,22.394000000000002,175,75
2026-05-09 17:06:07.755,3,-0.21,0.08,1.06,228.81660000000002,73.8528,30.014000000000003,175,75
2026-05-09 17:06:07.783,3,-0.23,0.12,1.2,228.56660000000002,98.1828,42.694,175,75
2026-05-09 17:06:07.805,3,-0.2,0.23,1.03,203.9966,88.9128,46.354,175,75
2026-05-09 17:06:07.815,3,-0.14,0.28,0.94,184.4866,86.5928,51.604,175,75
2026-05-09 17:06:07.871,3,0.66,-0.67,0.46,90.0966,22.6328,12.754,175,75
2026-05-09 17:06:07.871,3,-0.5,0.5,0.62,67.9666,65.1928,34.524,175,75
2026-05-09 17:06:07.894,3,0.9,-0.31,0.32,16.556600000000003,30.492800000000003,18.914,175,75
2026-05-09 17:06:07.904,3,0.59,-0.25,0.08,-44.5334,-33.8372,19.164,175,75
2026-05-09 17:06:07.928,3,-2.26,-0.38,0.04,-134.3534,-4.3772,142.274,175,75
2026-05-09 17:06:07.935,3,-1.07,-1.97,0.34,-72.46340000000001,230.62279999999998,157.51399999999998,175,75
2026-05-09 17:06:07.958,3,-0.97,-1.37,1.36,22.596600000000002,30.0128,-162.786,175,75
2026-05-09 17:06:07.969,3,0.3,-1.13,1.25,12.6566,56.7128,-193.526,175,75
2026-05-09 17:06:07.996,3,0.68,0.3,2.0,18.266599999999997,9.0928,29.164,175,75
2026-05-09 17:06:07.996,3,-0.2,0.35,1.54,-46.1834,-59.9872,67.274,175,75
2026-05-09 17:06:08.008,3,-0.49,0.36,1.11,-22.223399999999998,-28.3472,35.074,175,75
2026-05-09 17:06:08.022,3,-0.43,0.29,1.13,10.3966,-7.7372,6.724,175,75
2026-05-09 17:06:08.034,3,-0.34,0.32,1.26,10.2766,-11.8772,3.794,175,75
2026-05-09 17:06:08.044,3,-0.4,0.32,1.27,-7.5234000000000005,-4.2572,20.994,175,75
2026-05-09 17:06:08.055,3,-0.46,0.25,1.26,-11.1234,11.3528,24.164,175,75
2026-05-09 17:06:08.069,3,-0.39,0.14,1.33,-6.1834,14.212800000000001,6.114000000000001,175,75
2026-05-09 17:06:08.079,3,-0.35,0.13,1.34,-6.2434,13.422799999999999,-1.206,175,75
2026-05-09 17:06:08.110,3,-0.39,0.09,1.19,0.8266,10.8628,-8.216000000000001,175,75
2026-05-09 17:06:08.145,3,-0.32,0.09,1.33,11.0666,29.7628,-9.436,175,75
2026-05-09 17:06:08.145,3,-0.38,0.12,1.34,12.0466,19.0328,-10.776,175,75
2026-05-09 17:06:08.159,3,-0.44,0.16,1.29,11.1366,12.9328,-12.306000000000001,175,75
2026-05-09 17:06:08.175,3,-0.46,0.16,1.26,9.1166,13.052800000000001,-11.206,175,75
2026-05-09 17:06:08.187,3,-0.45,0.16,1.26,8.0266,16.6528,-12.916,175,75
2026-05-09 17:06:08.212,3,-0.38,0.17,1.35,4.3065999999999995,10.8628,-18.215999999999998,175,75
2026-05-09 17:06:08.221,3,-0.44,0.19,1.32,2.5366,7.812800000000001,-19.686,175,75
2026-05-09 17:06:08.240,3,-0.44,0.15,1.22,1.4365999999999999,16.7728,-27.915999999999997,175,75
2026-05-09 17:06:08.250,3,-0.4,0.13,1.24,2.8966000000000003,23.9128,-30.656,175,75
2026-05-09 17:06:08.284,3,-0.42,0.13,1.26,0.3365999999999998,25.3128,-33.466,175,75
2026-05-09 17:06:08.293,3,-0.4,0.1,1.26,-1.6134000000000002,24.0928,-34.006,175,75
2026-05-09 17:06:08.322,3,-0.33,0.1,1.31,-2.0334000000000003,26.5328,-35.596,175,75
2026-05-09 17:06:08.322,3,-0.32,0.1,1.35,-4.1734,20.1328,-34.495999999999995,175,75
2026-05-09 17:06:08.356,3,-0.3,0.08,1.35,-11.4334,8.5428,-30.476,175,75
2026-05-09 17:06:08.367,3,-0.34,0.1,1.29,-15.8834,-1.0272000000000001,-29.926,175,75
2026-05-09 17:06:08.378,3,-0.34,0.05,1.22,-17.223399999999998,5.1328,-29.436,175,75
2026-05-09 17:06:08.390,3,-0.34,0.01,1.26,-16.3034,5.982800000000001,-31.936,175,75
2026-05-09 17:06:08.401,3,-0.33,0.03,1.28,-17.1634,3.9728,-36.025999999999996,175,75
2026-05-09 17:06:08.411,3,-0.3,0.04,1.26,-17.833399999999997,1.9027999999999996,-37.666,175,75
2026-05-09 17:06:08.424,3,-0.3,0.05,1.23,-17.583399999999997,1.9628,-38.586,175,75
2026-05-09 17:06:08.431,3,-0.27,0.03,1.2,-16.8534,6.0428,-41.446,175,75
2026-05-09 17:06:08.453,3,-0.21,0.01,1.2,-11.003400000000001,22.0828,-47.366,175,75
2026-05-09 17:06:08.471,3,-0.14,0.02,1.24,-5.6934000000000005,29.7628,-53.036,175,75
2026-05-09 17:06:08.482,3,-0.1,0.02,1.23,-3.0134,32.0828,-55.106,175,75
2026-05-09 17:06:08.492,3,-0.11,0.07,1.2,1.4365999999999999,39.3428,-54.495999999999995,175,75
2026-05-09 17:06:08.504,3,-0.13,0.09,1.19,9.0566,39.8828,-54.556,175,75
2026-05-09 17:06:08.517,3,-0.15,0.05,1.15,12.8966,37.1428,-53.885999999999996,175,75
2026-05-09 17:06:08.530,3,-0.2,0.04,1.06,15.1566,35.0128,-52.606,175,75
2026-05-09 17:06:08.530,3,-0.22,0.02,0.97,19.486600000000003,45.1928,-55.286,175,75
2026-05-09 17:06:08.553,3,-0.2,0.06,0.97,30.766600000000004,62.202799999999996,-61.446,175,75
2026-05-09 17:06:08.576,3,-0.07,0.14,1.11,53.9966,81.4128,-74.376,175,75
2026-05-09 17:06:08.576,3,-0.11,0.19,1.11,62.046600000000005,90.4928,-75.966,175,75
2026-05-09 17:06:08.590,3,-0.01,0.13,1.03,74.36659999999999,102.8728,-86.266,175,75
2026-05-09 17:06:08.590,3,-0.07,0.24,1.01,88.6366,122.0828,-92.18599999999999,175,75
2026-05-09 17:06:08.598,3,-0.11,0.26,1.01,100.39659999999999,138.85279999999997,-94.556,175,75
2026-05-09 17:06:08.613,3,-0.08,0.23,1.0,110.94659999999999,154.40279999999998,-100.286,175,75
2026-05-09 17:06:08.624,3,-0.21,0.3,1.05,115.7066,162.38279999999997,-94.68599999999999,175,75
2026-05-09 17:06:08.635,3,-0.33,0.29,1.13,119.97659999999999,169.5828,-90.536,175,75
2026-05-09 17:06:08.646,3,-0.38,0.24,1.25,121.3166,163.91279999999998,-87.246,175,75
2026-05-09 17:06:08.663,3,-0.37,0.17,1.27,117.3566,142.69279999999998,-85.596,175,75
2026-05-09 17:06:08.677,3,-0.38,0.18,1.26,116.55659999999999,126.35279999999999,-84.746,175,75
2026-05-09 17:06:08.677,3,-0.3,0.14,1.29,119.97659999999999,111.7128,-83.526,175,75
2026-05-09 17:06:08.697,3,-0.33,0.02,1.35,117.77659999999999,84.2728,-70.356,175,75
2026-05-09 17:06:08.753,3,-0.87,-0.88,1.26,67.7166,-37.4872,-15.776000000000002,175,75
2026-05-09 17:06:08.775,3,-0.61,-0.48,0.96,102.22659999999999,-41.5772,-46.205999999999996,175,75
2026-05-09 17:06:08.790,3,-0.29,-0.34,1.26,81.25659999999999,-51.8172,-2.3659999999999997,175,75
2026-05-09 17:06:08.800,3,-0.35,-0.27,1.25,71.3766,-60.477199999999996,3.3040000000000003,175,75
2026-05-09 17:06:08.812,3,-0.39,-0.18,1.21,64.2466,-64.5072,-0.7159999999999997,175,75
2026-05-09 17:06:08.823,3,-0.38,0.01,1.25,57.226600000000005,-52.7972,-7.486000000000001,175,75
2026-05-09 17:06:08.823,3,-0.42,0.22,1.3,51.9266,-49.8672,-0.9659999999999997,175,75
2026-05-09 17:06:08.835,3,-0.44,0.37,1.42,39.7866,-52.7372,19.164,175,75
2026-05-09 17:06:08.871,3,0.11,-0.1,0.76,-51.3634,-140.0472,19.104000000000003,175,75
2026-05-09 17:06:08.871,3,0.12,0.06,0.29,-97.0334,-129.68720000000002,6.474,175,75
2026-05-09 17:06:08.899,3,-0.31,0.49,-0.24,-121.24340000000001,-41.4572,35.074,175,75
2026-05-09 17:06:08.899,3,-0.42,0.41,-0.45,-139.5334,67.1428,61.534,175,75
2026-05-09 17:06:08.911,3,-0.41,0.23,-0.26,-147.2834,120.1328,58.554,175,75
2026-05-09 17:06:08.923,3,-0.33,0.06,0.19,-154.7234,158.66279999999998,44.834,175,75
2026-05-09 17:06:08.923,3,-0.22,-0.03,0.58,-169.5334,161.7728,32.274,175,75
2026-05-09 17:06:08.971,3,0.0,-0.23,1.09,-220.8234,86.4728,25.924000000000003,175,75
2026-05-09 17:06:08.971,3,-0.02,-0.34,1.15,-246.9134,51.772800000000004,25.134,175,75
2026-05-09 17:06:08.981,3,-0.01,-0.43,1.15,-272.40340000000003,28.3028,16.784,175,75
2026-05-09 17:06:08.981,3,0.05,-0.46,1.12,-287.28340000000003,13.9728,7.394,175,75
2026-05-09 17:06:09.007,3,0.04,-0.5,0.98,-302.28340000000003,9.7028,-0.7159999999999997,175,75
2026-05-09 17:06:09.017,3,-0.03,-0.61,1.01,-303.9334,24.0928,-1.7559999999999998,175,75
2026-05-09 17:06:09.028,3,-0.11,-0.71,1.1,-303.3834,26.0428,-7.056000000000001,175,75
2026-05-09 17:06:09.038,3,-0.2,-0.79,1.13,-306.4334,22.5128,-11.876,175,75
2026-05-09 17:06:09.051,3,-0.26,-0.84,1.13,-310.21340000000004,22.2028,-14.316,175,75
2026-05-09 17:06:09.051,3,-0.35,-0.84,1.1,-309.2334,26.4128,-15.716,175,75
2026-05-09 17:06:09.062,3,-0.4,-0.85,1.11,-294.4734,33.6028,-16.386,175,75
2026-05-09 17:06:09.073,3,-0.41,-0.84,1.13,-287.89340000000004,42.7528,-20.165999999999997,175,75
2026-05-09 17:06:09.099,3,-0.36,-0.79,1.1,-281.1234,45.9828,-22.785999999999998,175,75
2026-05-09 17:06:09.099,3,-0.36,-0.74,1.02,-268.5034,58.9128,-20.965999999999998,175,75
2026-05-09 17:06:09.111,3,-0.36,-0.71,0.99,-251.7334,85.6828,-17.915999999999997,175,75
2026-05-09 17:06:09.111,3,-0.38,-0.63,1.04,-231.55339999999998,110.6828,-20.596,175,75
2026-05-09 17:06:09.158,3,-0.24,0.11,1.51,-142.83339999999998,65.86280000000001,-21.875999999999998,175,75
2026-05-09 17:06:09.171,3,-0.26,0.21,1.48,-126.1834,39.8228,-1.576,175,75
2026-05-09 17:06:09.182,3,-0.36,0.28,1.38,-102.16340000000001,19.4028,16.054000000000002,175,75
2026-05-09 17:06:09.185,3,-0.38,0.32,1.3,-70.1434,8.9128,15.134,175,75
2026-05-09 17:06:09.202,3,-0.32,0.35,1.27,-45.2134,5.8628,14.164,175,75
2026-05-09 17:06:09.214,3,-0.27,0.41,1.23,-21.4934,6.1028,19.224,175,75
2026-05-09 17:06:09.214,3,-0.26,0.45,1.22,-2.8934,7.992800000000001,25.444000000000003,175,75
2026-05-09 17:06:09.226,3,-0.24,0.44,1.25,20.7066,9.4628,30.994,175,75
2026-05-09 17:06:09.238,3,-0.22,0.41,1.25,33.7566,4.3428,32.574,175,75
2026-05-09 17:06:09.249,3,-0.22,0.41,1.23,43.266600000000004,-1.0872000000000002,34.954,175,75
2026-05-09 17:06:09.258,3,-0.21,0.46,1.19,48.446600000000004,-4.5672,37.394,175,75
2026-05-09 17:06:09.273,3,-0.16,0.51,1.17,48.1466,-16.2672,39.954,175,75
2026-05-09 17:06:09.316,3,-0.13,0.59,0.99,20.2166,-44.9272,45.744,175,75
2026-05-09 17:06:09.327,3,-0.08,0.59,0.99,7.7766,-51.8172,46.474000000000004,175,75
2026-05-09 17:06:09.337,3,-0.07,0.56,1.0,-4.1134,-63.8372,46.354,175,75
2026-05-09 17:06:09.353,3,-0.08,0.46,0.99,-16.4934,-84.3772,44.774,175,75
2026-05-09 17:06:09.386,3,-0.2,0.22,0.93,-0.3934000000000002,-88.3472,43.424,175,75
2026-05-09 17:06:09.400,3,-0.17,0.16,0.94,17.046599999999998,-83.2872,37.024,175,75
2026-05-09 17:06:09.422,3,-0.17,0.14,0.87,43.266600000000004,-75.6572,33.004,175,75
2026-05-09 17:06:09.422,3,-0.19,0.11,0.82,61.6166,-64.6872,34.584,175,75
2026-05-09 17:06:09.459,3,-0.2,-0.04,0.84,132.28660000000002,-17.7972,24.464000000000002,175,75
2026-05-09 17:06:09.469,3,-0.16,-0.09,0.99,157.6566,-9.1372,26.724,175,75
2026-05-09 17:06:09.483,3,-0.23,-0.15,1.1,173.2066,-27.307199999999998,38.424,175,75
2026-05-09 17:06:09.496,3,0.24,-1.45,-1.14,6.9266000000000005,-356.6972,136.474,175,75
2026-05-09 17:06:09.524,3,-5.92,0.66,-4.19,-681.1834,-67.1872,75.994,175,75
2026-05-09 17:06:09.537,3,-0.14,0.72,-2.12,-120.94340000000001,916.7728000000001,-233.526,175,75
2026-05-09 17:06:09.548,3,0.27,1.9,3.09,613.9366,493.5428,-50.476,175,75
2026-05-09 17:06:09.558,3,1.19,-0.15,2.2,511.8066,-167.7972,98.674,175,75
2026-05-09 17:06:09.569,3,-1.36,-1.73,2.28,115.39659999999999,31.162799999999997,99.834,175,75
2026-05-09 17:06:09.577,3,-0.95,-0.88,1.76,-34.2934,262.08279999999996,78.914,175,75
2026-05-09 17:06:09.592,3,0.41,-0.51,0.82,127.5366,-86.2072,-34.806,175,75
2026-05-09 17:06:09.604,3,-0.37,-0.03,-0.01,137.8966,-66.7572,-72.366,175,75
2026-05-09 17:06:09.614,3,-0.79,0.89,0.19,118.8166,121.1028,11.533999999999999,175,75
2026-05-09 17:06:09.627,3,-0.64,0.91,0.83,135.3366,157.9328,61.474000000000004,175,75
2026-05-09 17:06:09.648,3,-0.9,0.27,1.57,108.75659999999999,-8.9572,17.634,175,75
2026-05-09 17:06:09.682,3,-0.06,0.11,1.05,58.696600000000004,-100.5372,0.19400000000000017,175,75
2026-05-09 17:06:09.695,3,-0.19,-0.19,0.82,39.4266,-77.7372,42.394,175,75
2026-05-09 17:06:09.706,3,-0.41,-0.33,0.73,42.5966,-43.7672,31.534000000000002,175,75
2026-05-09 17:06:09.717,3,-0.4,-0.21,0.71,51.8066,-29.2572,-3.0959999999999996,175,75
2026-05-09 17:06:09.726,3,-0.23,0.0,0.68,51.6166,-4.0772,-0.7159999999999997,175,75
2026-05-09 17:06:09.742,3,-0.25,0.07,0.79,53.8766,13.9128,17.024,175,75
2026-05-09 17:06:09.753,3,-0.29,-0.02,0.95,52.3566,11.9628,27.394000000000002,175,75
2026-05-09 17:06:09.777,3,-0.5,0.03,1.07,41.9266,-26.2672,13.613999999999999,175,75
2026-05-09 17:06:09.777,3,-0.57,0.15,0.96,28.266599999999997,-39.4472,8.424,175,75
2026-05-09 17:06:09.802,3,-0.35,0.15,0.91,21.4966,-41.0872,-7.366,175,75
2026-05-09 17:06:09.821,3,-0.28,0.07,0.86,15.766599999999999,-27.7372,8.124,175,75
2026-05-09 17:06:09.838,3,-0.5,-0.02,0.85,17.416600000000003,-0.3572000000000002,3.674,175,75
2026-05-09 17:06:09.848,3,-0.38,0.07,0.9,15.8866,1.6527999999999996,-7.056000000000001,175,75
2026-05-09 17:06:09.876,3,-0.31,0.08,1.04,10.0366,-11.4572,11.783999999999999,175,75
2026-05-09 17:06:09.892,3,-0.43,-0.02,0.98,0.27659999999999973,-42.3072,8.974,175,75
2026-05-09 17:06:09.907,3,-0.45,0.03,0.88,-1.7934,-45.2372,3.244,175,75
2026-05-09 17:06:09.922,3,-0.48,0.11,0.77,3.8166,-28.3472,2.084,175,75
2026-05-09 17:06:09.961,3,-0.41,0.06,0.83,8.5066,-1.0872000000000002,-1.6359999999999997,175,75
2026-05-09 17:06:09.961,3,-0.37,0.05,0.95,10.2766,2.3828,-1.6359999999999997,175,75
2026-05-09 17:06:09.990,3,-0.35,0.07,0.96,-2.1034,-19.3172,3.674,175,75
2026-05-09 17:06:10.002,3,-0.35,0.07,0.96,-3.2534,-18.7072,5.444000000000001,175,75
2026-05-09 17:06:10.010,3,-0.35,0.06,0.96,-5.8234,-22.9172,7.394,175,75
2026-05-09 17:06:10.024,3,-0.39,0.07,0.91,-7.2234,-27.4272,7.814,175,75
2026-05-09 17:06:10.050,3,-0.42,0.09,0.85,-5.513400000000001,-25.7872,6.664,175,75
2026-05-09 17:06:10.075,3,-0.44,0.08,0.83,0.8266,-19.6872,5.074,175,75
2026-05-09 17:06:10.075,3,-0.47,0.06,0.83,3.4466,-13.8372,6.1739999999999995,175,75
2026-05-09 17:06:10.096,3,-0.35,-0.01,0.94,7.0466,-5.5972,3.734,175,75
2026-05-09 17:06:10.096,3,-0.36,0.0,0.99,6.6166,-17.2472,3.854,175,75
2026-05-09 17:06:10.108,3,-0.39,0.03,0.95,4.5466,-24.5072,4.224,175,75
2026-05-09 17:06:10.123,3,-0.45,0.05,0.87,4.7265999999999995,-22.9172,3.854,175,75
2026-05-09 17:06:10.166,3,-0.47,0.05,0.85,6.4366,-17.4272,1.7240000000000002,175,75
2026-05-09 17:06:10.188,3,-0.38,0.05,0.94,10.7066,-24.5072,-0.7759999999999998,175,75
2026-05-09 17:06:10.199,3,-0.39,0.07,0.93,12.1666,-28.5872,-0.7759999999999998,175,75
2026-05-09 17:06:10.210,3,-0.38,0.06,0.93,11.8066,-29.807199999999998,-1.576,175,75
2026-05-09 17:06:10.221,3,-0.37,0.08,0.91,11.6766,-30.9672,-0.9659999999999997,175,75
2026-05-09 17:06:10.240,3,-0.39,0.11,0.95,13.3866,-22.9772,0.6240000000000001,175,75
2026-05-09 17:06:10.264,3,-0.37,0.11,0.97,12.6566,-23.2872,0.13400000000000012,175,75
2026-05-09 17:06:10.264,3,-0.36,0.12,0.96,12.0466,-24.3172,0.7440000000000002,175,75
2026-05-09 17:06:10.285,3,-0.37,0.11,0.93,11.4366,-22.5472,2.144,175,75
2026-05-09 17:06:10.288,3,-0.37,0.1,0.91,12.4766,-18.2272,3.3640000000000003,175,75
2026-05-09 17:06:10.296,3,-0.38,0.09,0.91,14.426599999999999,-12.857199999999999,3.424,175,75
2026-05-09 17:06:10.309,3,-0.38,0.1,0.94,15.766599999999999,-11.0272,3.914,175,75
2026-05-09 17:06:10.329,3,-0.36,0.1,0.95,16.6166,-10.6572,5.864000000000001,175,75
2026-05-09 17:06:10.342,3,-0.35,0.09,0.94,17.166600000000003,-12.3072,8.004,175,75
2026-05-09 17:06:10.342,3,-0.36,0.09,0.92,18.086599999999997,-12.1272,9.644,175,75
2026-05-09 17:06:10.350,3,-0.38,0.1,0.91,19.7866,-8.4672,12.214,175,75
2026-05-09 17:06:10.395,3,-0.34,0.15,0.99,23.6366,-9.3772,15.384,175,75
2026-05-09 17:06:10.395,3,-0.37,0.16,0.97,24.1766,-7.677200000000001,21.234,175,75
2026-05-09 17:06:10.407,3,-0.42,0.09,0.99,26.196599999999997,-6.9472000000000005,24.714000000000002,175,75
2026-05-09 17:06:10.424,3,-0.46,0.07,0.97,26.4966,-10.7272,21.664,175,75
2026-05-09 17:06:10.435,3,-0.47,0.11,0.84,31.986600000000003,-10.2972,16.784,175,75
2026-05-09 17:06:10.446,3,-0.51,0.14,0.81,36.7466,-1.5772000000000002,21.054000000000002,175,75
2026-05-09 17:06:10.470,3,-0.55,0.1,0.91,46.5566,21.9028,15.314,175,75
2026-05-09 17:06:10.495,3,-0.45,0.09,1.12,55.7066,29.882800000000003,3.854,175,75
2026-05-09 17:06:10.507,3,-0.34,0.01,1.27,56.7466,23.7928,0.4440000000000002,175,75
2026-05-09 17:06:10.521,3,-0.28,-0.01,1.36,47.7166,8.1828,2.694,175,75
2026-05-09 17:06:10.533,3,-0.29,0.05,1.32,34.546600000000005,-9.1372,6.2940000000000005,175,75
2026-05-09 17:06:10.533,3,-0.36,0.1,1.19,29.306600000000003,-13.347199999999999,9.164,175,75
2026-05-09 17:06:10.544,3,-0.43,0.11,1.12,27.7166,-10.7872,10.314,175,75
2026-05-09 17:06:10.556,3,-0.47,0.08,1.09,29.726599999999998,0.2527999999999997,6.604000000000001,175,75
2026-05-09 17:06:10.556,3,-0.47,0.11,1.15,31.4366,5.1328,2.7540000000000004,175,75
2026-05-09 17:06:10.565,3,-0.47,0.1,1.19,28.8166,1.2928000000000002,0.8040000000000002,175,75
2026-05-09 17:06:10.578,3,-0.5,0.11,1.18,24.306600000000003,-2.7972,1.114,175,75
2026-05-09 17:06:10.594,3,-0.52,0.08,1.16,19.4266,-3.1572,0.6840000000000002,175,75
2026-05-09 17:06:10.595,3,-0.48,0.08,1.15,18.086599999999997,-0.5372000000000003,-2.8559999999999994,175,75
2026-05-09 17:06:10.612,3,-0.46,0.09,1.17,17.5366,-0.8472,-3.946,175,75
2026-05-09 17:06:10.624,3,-0.43,0.07,1.17,16.4366,-4.4472000000000005,-4.006,175,75
2026-05-09 17:06:10.640,3,-0.47,0.08,1.11,17.596600000000002,-0.9672000000000001,-5.836,175,75
2026-05-09 17:06:10.652,3,-0.43,0.07,1.13,18.2066,1.0428000000000002,-8.276,175,75
2026-05-09 17:06:10.663,3,-0.43,0.09,1.15,16.3166,0.6227999999999998,-7.306000000000001,175,75
2026-05-09 17:06:10.674,3,-0.43,0.1,1.14,15.466600000000001,-0.41720000000000024,-6.756,175,75
2026-05-09 17:06:10.687,3,-0.46,0.08,1.13,13.996599999999999,-5.6572,-5.166,175,75
2026-05-09 17:06:10.703,3,-0.46,0.06,1.11,13.1466,-3.0372000000000003,-3.586,175,75
2026-05-09 17:06:10.709,3,-0.42,0.06,1.17,13.8166,-3.5872,-4.555999999999999,175,75
2026-05-09 17:06:10.746,3,-0.41,0.11,1.19,10.7066,-12.0672,-2.056,175,75
2026-05-09 17:06:10.750,3,-0.41,0.14,1.17,8.5666,-18.5272,-0.2859999999999998,175,75
2026-05-09 17:06:10.766,3,-0.43,0.16,1.17,8.0266,-17.8572,1.294,175,75
2026-05-09 17:06:10.771,3,-0.42,0.17,1.18,7.5966000000000005,-17.6772,1.114,175,75
2026-05-09 17:06:10.800,3,-0.46,0.22,1.18,4.3065999999999995,-14.7472,0.5640000000000002,175,75
2026-05-09 17:06:10.823,3,-0.45,0.22,1.17,3.3865999999999996,-14.9272,0.6840000000000002,175,75
2026-05-09 17:06:10.834,3,-0.46,0.22,1.16,2.4765999999999995,-13.5872,0.4440000000000002,175,75
2026-05-09 17:06:10.859,3,-0.43,0.21,1.16,3.8166,-5.9672,-0.10599999999999987,175,75
2026-05-09 17:06:10.873,3,-0.43,0.23,1.17,3.4466,-4.3772,0.4440000000000002,175,75
2026-05-09 17:06:10.883,3,-0.4,0.22,1.19,3.5666,-3.2272000000000003,1.294,175,75
2026-05-09 17:06:10.894,3,-0.38,0.2,1.23,3.6966,-6.0872,1.8440000000000003,175,75
2026-05-09 17:06:10.913,3,-0.38,0.19,1.23,2.5965999999999996,-10.4772,3.974,175,75
2026-05-09 17:06:10.933,3,-0.38,0.16,1.17,5.9466,-11.6372,3.974,175,75
2026-05-09 17:06:10.937,3,-0.34,0.16,1.12,9.6066,-12.6172,4.164,175,75
2026-05-09 17:06:10.964,3,-0.37,0.18,1.09,13.996599999999999,-12.4872,8.734,175,75
2026-05-09 17:06:10.975,3,-0.41,0.13,1.08,19.1166,-7.677200000000001,13.794,175,75
2026-05-09 17:06:10.986,3,-0.42,0.09,1.12,23.9966,-6.6372,13.613999999999999,175,75
2026-05-09 17:06:10.986,3,-0.42,0.09,1.14,26.376600000000003,-8.2872,12.754,175,75
2026-05-09 17:06:11.008,3,-0.39,0.13,1.14,32.5366,-12.5472,16.844,175,75
2026-05-09 17:06:11.031,3,-0.42,0.12,1.12,38.3866,-13.6472,22.694000000000003,175,75
2026-05-09 17:06:11.038,3,-0.43,0.08,1.14,43.5666,-13.1572,23.424000000000003,175,75
2026-05-09 17:06:11.049,3,-0.46,0.07,1.16,46.1366,-16.2072,23.974,175,75
2026-05-09 17:06:11.070,3,-0.46,0.06,1.17,48.696600000000004,-21.0272,24.584000000000003,175,75
2026-05-09 17:06:11.093,3,-0.49,0.09,1.13,53.2066,-28.2272,26.174000000000003,175,75
2026-05-09 17:06:11.093,3,-0.49,0.1,1.14,56.2566,-25.4772,27.084000000000003,175,75
2026-05-09 17:06:11.104,3,-0.48,0.08,1.16,58.8766,-22.4872,28.974,175,75
2026-05-09 17:06:11.115,3,-0.47,0.05,1.22,62.8966,-21.3372,28.614,175,75
2026-05-09 17:06:11.143,3,-0.47,0.02,1.29,63.6966,-34.6272,27.814,175,75
2026-05-09 17:06:11.163,3,-0.43,-0.03,1.3,62.4766,-48.6472,31.054000000000002,175,75
2026-05-09 17:06:11.176,3,-0.3,-0.16,1.33,66.9866,-50.9072,29.104000000000003,175,75
2026-05-09 17:06:11.188,3,-0.32,-0.3,1.36,72.83659999999999,-62.977199999999996,27.144000000000002,175,75
2026-05-09 17:06:11.210,3,-0.58,-0.33,1.04,72.22659999999999,-69.8672,9.714,175,75
2026-05-09 17:06:11.224,3,-0.31,-0.19,1.1,81.9266,-77.0672,5.254,175,75
2026-05-09 17:06:11.234,3,-0.15,-0.19,1.15,87.22659999999999,-93.2272,12.274,175,75
2026-05-09 17:06:11.246,3,-0.11,-0.3,1.17,89.72659999999999,-111.0272,23.424000000000003,175,75
2026-05-09 17:06:11.260,3,-0.13,-0.53,1.16,92.22659999999999,-131.2072,32.814,175,75
2026-05-09 17:06:11.260,3,-0.22,-0.71,1.1,89.66659999999999,-148.89720000000003,38.304,175,75
2026-05-09 17:06:11.268,3,-0.48,-0.68,0.98,88.5666,-152.67720000000003,43.974000000000004,175,75
2026-05-09 17:06:11.299,3,-0.62,-0.49,0.73,99.4266,-112.8572,40.254000000000005,175,75
2026-05-09 17:06:11.306,3,-0.57,-0.41,0.74,108.8766,-70.1172,46.174,175,75
2026-05-09 17:06:11.319,3,-0.48,-0.42,0.83,113.8766,-44.2572,43.674,175,75
2026-05-09 17:06:11.335,3,-0.5,-0.27,0.97,113.8766,-26.0272,39.224000000000004,175,75
2026-05-09 17:06:11.335,3,-0.39,-0.24,1.04,109.6066,-23.5872,32.214,175,75
2026-05-09 17:06:11.391,3,-0.49,0.17,1.51,108.9366,-18.0972,23.554000000000002,175,75
2026-05-09 17:06:11.403,3,-0.65,0.24,1.66,67.28659999999999,-16.877200000000002,38.244,175,75
2026-05-09 17:06:11.414,3,-0.47,-0.06,1.13,4.4266,-15.1772,38.184000000000005,175,75
2026-05-09 17:06:11.416,3,-0.46,-0.11,0.75,-27.223399999999998,-9.1372,21.114,175,75
2026-05-09 17:06:11.439,3,-0.4,0.21,0.67,-27.523400000000002,113.9728,-31.936,175,75
2026-05-09 17:06:11.492,3,-0.34,0.18,2.46,-146.7934,-57.8572,-15.286,175,75
2026-05-09 17:06:11.503,3,-0.26,0.3,2.32,-158.93339999999998,-78.4072,-13.826,175,75
2026-05-09 17:06:11.515,3,-0.28,0.3,2.3,-161.8534,-66.8172,-1.266,175,75
2026-05-09 17:06:11.526,3,-0.35,0.25,2.36,-160.6334,-54.5072,2.144,175,75
2026-05-09 17:06:11.528,3,-0.43,0.19,2.42,-157.64339999999999,-40.727199999999996,-3.4659999999999997,175,75
2026-05-09 17:06:11.543,3,-0.51,0.18,2.44,-150.8834,-26.6372,-11.696,175,75
2026-05-09 17:06:11.554,3,-0.54,0.14,2.44,-142.3434,-13.4672,-17.366,175,75
2026-05-09 17:06:11.564,3,-0.6,0.13,2.39,-130.5134,11.7128,-22.055999999999997,175,75
2026-05-09 17:06:11.576,3,-0.66,0.15,2.38,-117.58340000000001,31.592799999999997,-23.526,175,75
2026-05-09 17:06:11.587,3,-0.71,0.16,2.43,-98.74340000000001,51.4728,-30.415999999999997,175,75
2026-05-09 17:06:11.632,3,-0.66,0.31,2.46,-61.1234,53.4228,-43.466,175,75
2026-05-09 17:06:11.632,3,-0.64,0.4,2.37,-61.553399999999996,47.9928,-48.036,175,75
2026-05-09 17:06:11.644,3,-0.56,0.47,2.26,-58.5034,46.4128,-50.656,175,75
2026-05-09 17:06:11.648,3,-0.53,0.55,2.16,-56.1234,44.8228,-45.775999999999996,175,75
2026-05-09 17:06:11.671,3,-0.55,0.66,2.07,-55.3334,32.7528,-46.025999999999996,175,75
2026-05-09 17:06:11.689,3,-0.54,0.74,2.04,-53.803399999999996,26.7128,-47.116,175,75
2026-05-09 17:06:11.704,3,-0.53,0.81,1.99,-52.163399999999996,22.1428,-44.986,175,75
2026-05-09 17:06:11.716,3,-0.53,0.86,1.92,-49.6034,21.7128,-40.166,175,75
2026-05-09 17:06:11.767,3,-0.44,1.04,1.71,-7.2234,40.5528,-26.145999999999997,175,75
2026-05-09 17:06:11.794,3,-0.39,1.09,1.61,16.806600000000003,45.0728,-14.926,175,75
2026-05-09 17:06:11.811,3,-0.35,1.14,1.56,30.3966,40.5528,-7.606,175,75
2026-05-09 17:06:11.834,3,-0.3,1.19,1.49,43.3266,35.8628,-1.5059999999999998,175,75
2026-05-09 17:06:11.844,3,-0.22,1.23,1.42,60.3966,28.5428,11.964,175,75
2026-05-09 17:06:11.868,3,-0.11,1.22,1.22,82.83659999999999,5.9228000000000005,34.894,175,75
2026-05-09 17:06:11.884,3,-0.06,1.2,1.12,92.41659999999999,-4.1372,44.404,175,75
2026-05-09 17:06:11.896,3,-0.03,1.15,1.05,99.2466,-11.4572,49.164,175,75
2026-05-09 17:06:11.900,3,-0.0,1.1,0.97,106.1366,-16.3372,54.034,175,75
2026-05-09 17:06:11.907,3,0.01,1.05,0.88,114.05659999999999,-18.467200000000002,57.754000000000005,175,75
2026-05-09 17:06:11.937,3,0.05,0.99,0.78,126.80659999999999,-17.0072,62.814,175,75
2026-05-09 17:06:11.949,3,0.05,1.0,0.77,130.03660000000002,-15.7872,62.754000000000005,175,75
2026-05-09 17:06:11.961,3,0.03,0.99,0.8,133.0266,-15.4772,65.744,175,75
2026-05-09 17:06:11.973,3,0.02,0.97,0.81,130.6466,-12.9772,65.924,175,75
2026-05-09 17:06:11.973,3,0.02,0.96,0.83,127.5366,-14.017199999999999,64.404,175,75
2026-05-09 17:06:11.980,3,-0.01,0.92,0.88,122.7166,-11.6972,62.024,175,75
2026-05-09 17:06:12.000,3,-0.02,0.9,0.95,114.6066,-12.4272,56.724000000000004,175,75
2026-05-09 17:06:12.011,3,-0.02,0.87,1.05,105.1566,-25.7272,49.644,175,75
2026-05-09 17:06:12.040,3,-0.07,0.86,1.11,85.7066,-46.4572,36.964,175,75
2026-05-09 17:06:12.040,3,-0.1,0.86,1.13,76.4966,-55.3572,33.064,175,75
2026-05-09 17:06:12.050,3,-0.13,0.83,1.15,67.77659999999999,-58.0972,28.494,175,75
2026-05-09 17:06:12.064,3,-0.15,0.76,1.2,55.336600000000004,-62.3672,18.304000000000002,175,75
2026-05-09 17:06:12.076,3,-0.15,0.7,1.27,38.8166,-66.5772,5.384,175,75
2026-05-09 17:06:12.076,3,-0.12,0.64,1.3,27.226599999999998,-72.9772,-1.6959999999999997,175,75
2026-05-09 17:06:12.090,3,-0.09,0.54,1.26,8.4466,-84.6272,-10.836,175,75
2026-05-09 17:06:12.145,3,-0.18,0.21,1.14,-66.6734,-66.2072,-47.976,175,75
2026-05-09 17:06:12.173,3,-0.18,-0.02,1.2,-118.0734,-65.9072,-54.556,175,75
2026-05-09 17:06:12.179,3,-0.16,-0.14,1.17,-142.77339999999998,-65.5372,-57.856,175,75
2026-05-09 17:06:12.190,3,-0.13,-0.21,1.12,-160.6334,-65.2372,-61.936,175,75
2026-05-09 17:06:12.201,3,-0.11,-0.25,1.05,-175.6934,-62.7372,-64.556,175,75
2026-05-09 17:06:12.212,3,-0.09,-0.35,1.01,-194.9034,-46.8172,-64.196,175,75
2026-05-09 17:06:12.212,3,-0.1,-0.44,1.04,-211.9734,-32.797200000000004,-59.986,175,75
2026-05-09 17:06:12.223,3,-0.11,-0.56,1.09,-226.7334,-25.0472,-53.156,175,75
2026-05-09 17:06:12.236,3,-0.14,-0.73,1.14,-241.49339999999998,-22.7972,-47.116,175,75
2026-05-09 17:06:12.246,3,-0.18,-0.88,1.15,-257.6434,-25.5972,-41.995999999999995,175,75
2026-05-09 17:06:12.259,3,-0.18,-1.01,1.12,-273.5034,-29.807199999999998,-40.836,175,75
2026-05-09 17:06:12.271,3,-0.15,-1.08,1.01,-288.4434,-30.6572,-40.536,175,75
2026-05-09 17:06:12.282,3,-0.13,-1.06,0.84,-299.1734,-15.4172,-38.036,175,75
2026-05-09 17:06:12.294,3,-0.08,-1.09,0.76,-302.52340000000004,-1.7572,-33.396,175,75
2026-05-09 17:06:12.318,3,-0.11,-1.29,0.67,-310.6334,37.6328,-17.855999999999998,175,75
2026-05-09 17:06:12.321,3,-0.23,-1.32,0.73,-312.58340000000004,56.5928,-21.145999999999997,175,75
2026-05-09 17:06:12.330,3,-0.14,-1.51,0.81,-304.2334,76.5928,-14.926,175,75
2026-05-09 17:06:12.353,3,-0.14,-1.48,0.85,-307.58340000000004,65.9228,-36.506,175,75
2026-05-09 17:06:12.454,3,-0.17,-0.54,0.96,-186.7334,-16.3372,-51.205999999999996,175,75
2026-05-09 17:06:12.464,3,-0.18,-0.45,0.96,-169.05339999999998,-25.8472,-44.686,175,75
2026-05-09 17:06:12.464,3,-0.2,-0.35,0.97,-155.27339999999998,-27.9172,-39.315999999999995,175,75
2026-05-09 17:06:12.479,3,-0.21,-0.22,0.98,-139.7234,-31.0872,-38.646,175,75
2026-05-09 17:06:12.485,3,-0.2,-0.11,0.96,-123.6234,-35.7872,-40.896,175,75
2026-05-09 17:06:12.499,3,-0.19,0.0,0.94,-107.0334,-32.797200000000004,-38.646,175,75
2026-05-09 17:06:12.499,3,-0.16,0.07,0.95,-95.21340000000001,-29.5072,-33.646,175,75
2026-05-09 17:06:12.526,3,-0.17,0.1,0.96,-78.5634,-30.7272,-26.636,175,75
2026-05-09 17:06:12.526,3,-0.18,0.13,0.98,-67.2834,-34.9872,-24.805999999999997,175,75
2026-05-09 17:06:12.540,3,-0.19,0.2,0.97,-56.6134,-41.7572,-26.636,175,75
2026-05-09 17:06:12.560,3,-0.14,0.39,0.94,-39.5334,-55.727199999999996,-17.726,175,75
2026-05-09 17:06:12.598,3,-0.17,0.43,0.9,-35.0834,-57.3072,-12.916,175,75
2026-05-09 17:06:12.605,3,-0.19,0.46,0.88,-24.1734,-53.8972,-11.506,175,75
2026-05-09 17:06:12.617,3,-0.18,0.5,0.89,-18.5634,-51.5772,-10.286,175,75
2026-05-09 17:06:12.629,3,-0.17,0.55,0.91,-12.2234,-47.6772,-8.276,175,75
2026-05-09 17:06:12.640,3,-0.17,0.57,0.93,-8.3234,-46.0272,-6.996,175,75
2026-05-09 17:06:12.641,3,-0.17,0.61,0.94,-4.603400000000001,-46.3372,-5.106,175,75
2026-05-09 17:06:12.660,3,-0.18,0.64,0.93,-2.4634,-47.0672,-3.8859999999999997,175,75
2026-05-09 17:06:12.673,3,-0.19,0.65,0.92,-1.1834000000000002,-47.3072,-1.6359999999999997,175,75
2026-05-09 17:06:12.684,3,-0.2,0.63,0.91,-0.3934000000000002,-47.3072,1.294,175,75
2026-05-09 17:06:12.719,3,-0.23,0.59,0.92,0.5265999999999997,-49.1972,3.5540000000000003,175,75
2026-05-09 17:06:12.731,3,-0.25,0.53,0.94,3.0266,-61.9472,8.244,175,75
2026-05-09 17:06:12.752,3,-0.27,0.5,0.93,6.4366,-67.6772,10.074,175,75
2026-05-09 17:06:12.763,3,-0.26,0.46,0.94,9.3666,-78.4672,12.214,175,75
2026-05-09 17:06:12.777,3,-0.26,0.39,0.92,11.6766,-100.1772,17.334000000000003,175,75
2026-05-09 17:06:12.788,3,-0.25,0.32,0.91,16.0666,-111.3972,18.554000000000002,175,75
2026-05-09 17:06:12.788,3,-0.24,0.24,0.91,20.946599999999997,-117.3072,19.894000000000002,175,75
2026-05-09 17:06:12.835,3,-0.38,-0.0,0.68,94.05659999999999,-79.5072,16.354,175,75
2026-05-09 17:06:12.846,3,-0.4,-0.02,0.77,121.3166,-68.8972,18.794,175,75
2026-05-09 17:06:12.846,3,-0.42,-0.07,0.8,134.5466,-67.4872,22.514000000000003,175,75
2026-05-09 17:06:12.859,3,-0.44,-0.14,0.83,145.94660000000002,-66.8772,29.034000000000002,175,75
2026-05-09 17:06:12.871,3,-0.48,-0.23,0.89,156.4366,-66.5772,33.734,175,75
2026-05-09 17:06:12.882,3,-0.53,-0.27,0.97,166.4966,-63.7672,31.964000000000002,175,75
2026-05-09 17:06:12.894,3,-0.58,-0.24,0.97,168.50660000000002,-86.8172,37.514,175,75
2026-05-09 17:06:12.894,3,-0.08,-1.04,-0.73,26.0066,-390.35720000000003,109.584,175,75
2026-05-09 17:06:12.907,3,1.74,-3.94,-4.3,-417.46340000000004,-1147.9171999999999,147.274,175,75
2026-05-09 17:06:12.944,3,-6.26,0.93,-4.7,-622.5834,-196.7572,16.604,175,75
2026-05-09 17:06:12.944,3,-0.34,1.35,-1.75,-31.2434,986.6528000000001,-139.436,175,75
2026-05-09 17:06:12.955,3,3.63,0.42,0.7,568.0866,337.3228,-5.286,175,75
2026-05-09 17:06:12.966,3,0.31,-0.05,2.39,533.8166,-210.7872,126.414,175,75
2026-05-09 17:06:12.976,3,-1.21,-1.64,2.11,204.4866,-30.4172,107.634,175,75
2026-05-09 17:06:12.987,3,-0.55,-1.05,1.65,-34.3534,197.0828,40.994,175,75
2026-05-09 17:06:13.009,3,-1.23,0.59,0.08,135.5266,5.5527999999999995,-16.386,175,75
2026-05-09 17:06:13.056,3,-0.44,0.2,1.67,128.69660000000002,3.7327999999999997,27.274,175,75
2026-05-09 17:06:13.066,3,-0.31,-0.21,1.88,89.66659999999999,-64.44720000000001,-9.256,175,75
2026-05-09 17:06:13.066,3,-0.13,-0.11,1.62,50.3966,-115.2372,-12.306000000000001,175,75
2026-05-09 17:06:13.094,3,-0.25,-0.04,0.62,17.416600000000003,-113.8372,25.254,175,75
2026-05-09 17:06:13.104,3,-0.46,-0.13,0.31,31.3166,-46.8172,25.864,175,75
2026-05-09 17:06:13.115,3,-0.43,-0.17,0.24,47.046600000000005,15.922799999999999,9.714,175,75
2026-05-09 17:06:13.129,3,-0.42,0.02,0.54,58.446600000000004,62.3828,-1.876,175,75
2026-05-09 17:06:13.129,3,-0.24,0.07,0.88,65.8266,75.4328,-0.2859999999999998,175,75
2026-05-09 17:06:13.141,3,-0.2,0.04,1.18,57.046600000000005,53.7328,11.904,175,75
2026-05-09 17:06:13.161,3,-0.41,0.08,1.16,14.9166,-10.7872,17.514000000000003,175,75
2026-05-09 17:06:13.194,3,-0.39,0.11,0.83,4.3065999999999995,-16.6372,12.453999999999999,175,75
2026-05-09 17:06:13.205,3,-0.39,0.07,0.82,3.6365999999999996,-11.1472,13.734,175,75
2026-05-09 17:06:13.226,3,-0.37,-0.0,0.8,6.316599999999999,-4.8072,12.274,175,75
2026-05-09 17:06:13.238,3,-0.39,0.03,0.76,10.2166,-2.2472000000000003,9.644,175,75
2026-05-09 17:06:13.249,3,-0.42,0.05,0.77,15.766599999999999,9.2128,7.574,175,75
2026-05-09 17:06:13.263,3,-0.41,0.02,0.86,19.4266,12.5728,6.964,175,75
2026-05-09 17:06:13.281,3,-0.36,-0.02,0.95,17.416600000000003,-10.7272,1.604,175,75
2026-05-09 17:06:13.316,3,-0.27,-0.03,0.96,12.4166,-43.4072,3.734,175,75
2026-05-09 17:06:13.328,3,-0.4,0.02,0.79,14.1166,-37.5472,6.964,175,75
2026-05-09 17:06:13.360,3,-0.34,0.05,0.89,19.6066,-19.6872,5.744,175,75
2026-05-09 17:06:13.365,3,-0.36,0.03,0.95,19.3666,-18.4072,5.564,175,75
2026-05-09 17:06:13.382,3,-0.37,0.03,0.96,18.1466,-18.8972,3.674,175,75
2026-05-09 17:06:13.393,3,-0.36,0.03,0.99,16.8666,-16.5172,2.2140000000000004,175,75
2026-05-09 17:06:13.404,3,-0.34,0.01,0.99,14.306600000000001,-19.4472,2.394,175,75
2026-05-09 17:06:13.415,3,-0.39,0.0,0.91,10.8866,-21.6972,3.244,175,75
2026-05-09 17:06:13.429,3,-0.4,0.02,0.88,15.646600000000001,-7.0072,-1.6359999999999997,175,75
2026-05-09 17:06:13.441,3,-0.39,0.04,0.95,14.9766,-4.5072,-2.786,175,75
2026-05-09 17:06:13.452,3,-0.39,0.05,1.01,12.2866,-7.3072,-2.606,175,75
2026-05-09 17:06:13.463,3,-0.37,0.06,1.08,7.7766,-12.4872,-1.996,175,75
2026-05-09 17:06:13.485,3,-0.35,0.05,1.12,1.1966,-21.6972,-2.056,175,75
2026-05-09 17:06:13.506,3,-0.32,0.06,1.12,-10.3934,-32.8572,-1.6959999999999997,175,75
2026-05-09 17:06:13.519,3,-0.44,0.08,0.99,-22.0334,-41.8172,-0.4159999999999999,175,75
2026-05-09 17:06:13.526,3,-0.48,0.09,0.92,-24.663400000000003,-39.3772,-2.9759999999999995,175,75
2026-05-09 17:06:13.548,3,-0.58,0.15,0.91,-28.7434,-42.977199999999996,-0.16599999999999993,175,75
2026-05-09 17:06:13.568,3,-0.46,0.1,1.02,-32.8934,-60.8472,1.5340000000000003,175,75
2026-05-09 17:06:13.579,3,-0.45,0.07,1.0,-40.023399999999995,-90.5372,5.194000000000001,175,75
2026-05-09 17:06:13.579,3,-0.54,0.11,0.93,-46.553399999999996,-113.4672,12.334,175,75
2026-05-09 17:06:13.601,3,-0.55,0.11,0.93,-43.6834,-140.59720000000002,20.314,175,75
2026-05-09 17:06:13.619,3,-0.63,0.19,0.78,-57.0334,-191.5772,33.554,175,75
2026-05-09 17:06:13.629,3,-0.84,0.37,0.71,-56.913399999999996,-213.2272,48.304,175,75
2026-05-09 17:06:13.629,3,-0.95,0.42,0.7,-54.3534,-229.80720000000002,55.014,175,75
2026-05-09 17:06:13.659,3,-0.78,0.44,0.87,-66.55340000000001,-269.8072,55.254000000000005,175,75
2026-05-09 17:06:13.675,3,-0.61,0.45,0.79,-80.69340000000001,-300.9072,59.164,175,75
2026-05-09 17:06:13.695,3,-0.4,0.32,0.77,-80.1434,-256.6972,64.584,175,75
2026-05-09 17:06:13.707,3,0.16,0.07,1.16,-77.83340000000001,-221.2072,48.304,175,75
2026-05-09 17:06:13.726,3,0.81,-0.44,0.85,-69.2334,-139.62720000000002,21.054000000000002,175,75
2026-05-09 17:06:13.776,3,-0.59,-0.16,0.34,10.8866,71.4728,57.634,175,75
2026-05-09 17:06:13.776,3,-0.83,-0.25,0.47,34.7866,93.6628,48.734,175,75
2026-05-09 17:06:13.788,3,-0.82,-0.38,0.69,45.3966,85.1928,25.314,175,75
2026-05-09 17:06:13.799,3,-0.62,-0.33,0.88,44.6666,67.0228,1.9040000000000001,175,75
2026-05-09 17:06:13.804,3,-0.64,0.01,1.02,47.7166,56.1628,-4.316000000000001,175,75
2026-05-09 17:06:13.817,3,-0.67,0.32,1.08,33.696600000000004,26.4128,-5.166,175,75
2026-05-09 17:06:13.828,3,-0.56,0.34,0.97,15.766599999999999,-3.2272000000000003,1.6640000000000001,175,75
2026-05-09 17:06:13.849,3,-0.6,-0.03,0.88,28.3866,-8.8972,11.113999999999999,175,75
2026-05-09 17:06:13.874,3,-0.5,-0.09,0.85,29.4266,-5.8472,-8.156,175,75
2026-05-09 17:06:13.910,3,-0.43,0.2,0.92,35.0366,15.4328,-5.836,175,75
2026-05-09 17:06:13.920,3,-0.47,0.14,1.21,18.876600000000003,-3.0372000000000003,9.344,175,75
2026-05-09 17:06:13.931,3,-0.5,0.06,1.17,15.036599999999998,-6.9472000000000005,4.404,175,75
2026-05-09 17:06:13.961,3,-0.33,0.13,1.13,-2.2834000000000003,-29.9872,-3.3959999999999995,175,75
2026-05-09 17:06:13.985,3,-0.46,0.03,0.96,1.5566,-8.7672,4.104,175,75
2026-05-09 17:06:13.996,3,-0.44,0.03,1.0,4.4866,-8.2272,-2.306,175,75
2026-05-09 17:06:14.009,3,-0.44,0.06,1.0,4.4866,-8.0972,-3.826,175,75
2026-05-09 17:06:14.029,3,-0.45,0.06,1.05,2.4166,-9.1372,1.8440000000000003,175,75
2026-05-09 17:06:14.040,3,-0.47,0.04,1.08,0.9466000000000001,-12.9772,0.3840000000000001,175,75
2026-05-09 17:06:14.054,3,-0.47,0.04,1.1,-1.4334000000000002,-18.7672,-5.286,175,75
2026-05-09 17:06:14.065,3,-0.45,0.06,1.09,-4.353400000000001,-23.0372,-8.096,175,75
2026-05-09 17:06:14.110,3,-0.39,0.1,1.06,-15.2734,-23.5872,-5.536,175,75
2026-05-09 17:06:14.122,3,-0.36,0.1,1.06,-16.3034,-20.9672,-4.316000000000001,175,75
2026-05-09 17:06:14.174,3,-0.42,0.08,1.04,-19.233400000000003,-21.3372,-3.826,175,75
2026-05-09 17:06:14.188,3,-0.39,0.1,1.05,-22.4634,-28.0972,0.2540000000000001,175,75
2026-05-09 17:06:14.216,3,-0.43,0.08,0.96,-22.223399999999998,-30.4772,2.334,175,75
2026-05-09 17:06:14.229,3,-0.44,0.09,0.93,-18.6834,-26.0872,0.9240000000000002,175,75
2026-05-09 17:06:14.248,3,-0.43,0.1,0.93,-15.8234,-20.9672,-0.4159999999999999,175,75
2026-05-09 17:06:14.248,3,-0.41,0.11,0.96,-13.5634,-17.4272,-0.10599999999999987,175,75
2026-05-09 17:06:14.261,3,-0.39,0.12,0.98,-12.1634,-16.6372,-0.16599999999999993,175,75
2026-05-09 17:06:14.272,3,-0.38,0.11,1.01,-11.003400000000001,-19.1972,2.394,175,75
2026-05-09 17:06:14.285,3,-0.38,0.08,1.02,-9.4134,-23.0372,3.914,175,75
2026-05-09 17:06:14.295,3,-0.37,0.08,1.01,-7.9534,-27.7972,4.584,175,75
2026-05-09 17:06:14.307,3,-0.36,0.08,0.98,-6.7334000000000005,-31.5172,6.474,175,75
2026-05-09 17:06:14.329,3,-0.36,0.08,0.97,-4.353400000000001,-34.077200000000005,9.464,175,75
2026-05-09 17:06:14.342,3,-0.34,0.08,0.97,-0.5134000000000001,-36.1472,11.604,175,75
2026-05-09 17:06:14.342,3,-0.33,0.09,0.98,2.3566000000000003,-39.3772,14.033999999999999,175,75
2026-05-09 17:06:14.373,3,-0.38,0.09,0.97,10.6466,-46.1472,22.574,175,75
2026-05-09 17:06:14.397,3,-0.43,0.1,0.96,16.3166,-49.5072,26.114,175,75
2026-05-09 17:06:14.410,3,-0.42,0.15,0.95,18.2066,-48.227199999999996,26.664,175,75
2026-05-09 17:06:14.422,3,-0.45,0.18,0.92,19.3666,-43.3472,31.174000000000003,175,75
2026-05-09 17:06:14.433,3,-0.54,0.18,0.87,23.1466,-30.7872,38.244,175,75
2026-05-09 17:06:14.457,3,-0.54,0.13,0.95,35.2166,-12.9172,29.714000000000002,175,75
2026-05-09 17:06:14.467,3,-0.46,0.13,0.98,38.0266,-10.8472,28.304000000000002,175,75
2026-05-09 17:06:14.479,3,-0.42,0.16,1.03,41.9266,-7.6172,29.284000000000002,175,75
2026-05-09 17:06:14.501,3,-0.38,0.13,1.09,44.0566,-9.4472,35.384,175,75
2026-05-09 17:06:14.501,3,-0.38,0.08,1.12,44.3066,-19.3772,42.144,175,75
2026-05-09 17:06:14.523,3,-0.42,0.06,1.13,45.0366,-27.8572,45.254000000000005,175,75
2026-05-09 17:06:14.524,3,-0.45,0.07,1.15,48.8766,-34.4472,46.354,175,75
2026-05-09 17:06:14.536,3,-0.43,0.07,1.18,50.586600000000004,-40.3572,48.494,175,75
2026-05-09 17:06:14.591,3,-0.32,0.0,1.26,49.546600000000005,-81.0872,63.614000000000004,175,75
2026-05-09 17:06:14.591,3,-0.38,-0.21,1.28,55.156600000000005,-103.5272,74.714,175,75
2026-05-09 17:06:14.614,3,-0.39,-0.74,1.2,66.0666,-127.0072,84.644,175,75
2026-05-09 17:06:14.634,3,-0.7,-0.88,1.17,65.27659999999999,-153.2272,85.014,175,75
2026-05-09 17:06:14.727,3,-0.67,-0.3,1.13,54.3666,-234.0172,153.184,175,75
2026-05-09 17:06:14.766,3,-0.85,-0.38,1.11,55.2166,-233.0372,151.05399999999997,175,75
2026-05-09 17:06:14.776,3,-0.87,-0.35,1.19,57.1066,-222.30720000000002,134.344,175,75
2026-05-09 17:06:14.776,3,-0.74,-0.29,1.31,61.3166,-210.0472,117.394,175,75
2026-05-09 17:06:14.786,3,-0.62,-0.2,1.48,65.0966,-198.40720000000002,114.584,175,75
2026-05-09 17:06:14.786,3,-0.49,-0.19,1.65,64.4266,-192.18720000000002,123.494,175,75
2026-05-09 17:06:14.803,3,-0.41,-0.15,1.77,8.996599999999999,-251.9472,146.23399999999998,175,75
2026-05-09 17:06:14.845,3,-0.26,0.18,2.03,18.086599999999997,-154.3172,137.024,175,75
2026-05-09 17:06:14.865,3,-0.1,-0.02,1.79,-43.0134,-212.12720000000002,126.904,175,75
2026-05-09 17:06:14.892,3,0.09,0.31,1.35,-27.523400000000002,-97.5472,93.364,175,75
2026-05-09 17:06:14.926,3,0.13,0.45,1.85,-6.9734,-18.8372,87.944,175,75
2026-05-09 17:06:14.988,3,-0.09,0.78,2.2,21.0066,45.3128,45.134,175,75
2026-05-09 17:06:15.096,3,-0.35,1.09,2.05,49.8566,65.3128,38.794000000000004,175,75
2026-05-09 17:06:15.129,3,-0.31,1.16,2.06,56.2566,54.7028,40.994,175,75
2026-05-09 17:06:15.140,3,-0.28,1.2,2.06,62.35660000000001,34.5828,45.564,175,75
2026-05-09 17:06:15.140,3,-0.25,1.21,2.01,63.63660000000001,15.192800000000002,49.894,175,75
2026-05-09 17:06:15.164,3,-0.23,1.25,1.83,71.25659999999999,-21.6972,50.314,175,75
2026-05-09 17:06:15.192,3,-0.17,1.29,1.6,78.2666,-46.8772,54.104,175,75
2026-05-09 17:06:15.192,3,-0.15,1.28,1.48,80.52659999999999,-48.0372,57.144,175,75
2026-05-09 17:06:15.203,3,-0.04,1.27,1.15,88.69659999999999,-43.5872,53.064,175,75
2026-05-09 17:06:15.203,3,-0.0,1.26,1.08,91.9266,-40.1172,52.084,175,75
2026-05-09 17:06:15.213,3,0.03,1.24,1.02,91.86659999999999,-30.4772,51.844,175,75
2026-05-09 17:06:15.262,3,0.09,1.19,0.9,78.2066,-24.7472,40.864000000000004,175,75
2026-05-09 17:06:15.262,3,0.1,1.22,0.88,69.66659999999999,-18.2272,36.234,175,75
2026-05-09 17:06:15.308,3,0.1,1.24,0.9,62.2266,-13.6472,32.694,175,75
2026-05-09 17:06:15.353,3,0.0,1.26,0.94,8.2666,-19.5072,11.174,175,75
2026-05-09 17:06:15.373,3,-0.03,1.27,0.95,-7.6434,-17.6172,5.994,175,75
2026-05-09 17:06:15.394,3,-0.04,1.27,1.02,-19.053400000000003,-16.2672,3.0040000000000004,175,75
2026-05-09 17:06:15.436,3,-0.17,0.97,1.28,-110.4534,-25.0472,-16.996,175,75
2026-05-09 17:06:15.449,3,-0.34,0.15,0.96,-179.4134,87.5128,-55.166,175,75
2026-05-09 17:06:15.462,3,-0.39,-0.12,1.16,-185.33339999999998,189.40279999999998,-90.536,175,75
2026-05-09 17:06:15.515,3,-0.53,-0.33,1.39,-226.36339999999998,163.5428,-105.476,175,75
2026-05-09 17:06:15.537,3,0.9,-1.05,8.65,762.7166,51.9028,65.924,175,75
2026-05-09 17:06:15.591,3,0.58,-4.17,4.08,270.7066,-926.9472,-233.88600000000002,175,75
2026-05-09 17:06:15.591,3,0.86,-3.24,0.22,-506.7934,-749.8671999999999,-132.976,175,75
2026-05-09 17:06:15.612,3,-2.96,1.78,0.11,-885.4534,35.8028,16.784,175,75
2026-05-09 17:06:15.697,3,0.41,-0.21,2.74,49.2466,94.7628,-229.616,175,75
