Time,ID,Ax,Ay,Az,Gx,Gy,Gz,Height,Weight
2026-05-09 15:00:54.338,4,0.86,-0.85,-0.33,-82.89020000000001,277.7928,-184.26659999999998,175,75
2026-05-09 15:00:54.436,4,0.25,-0.72,-0.43,-159.23020000000002,442.1828,-177.1966,175,75
2026-05-09 15:00:54.449,4,0.21,-0.81,-0.23,-164.9602,483.5228,-177.2566,175,75
2026-05-09 15:00:54.449,4,0.19,-0.81,-0.13,-165.8202,485.0528,-182.6166,175,75
2026-05-09 15:00:54.461,4,0.19,-0.79,-0.03,-164.48020000000002,475.96279999999996,-193.7166,175,75
2026-05-09 15:00:54.469,4,0.22,-0.79,-0.01,-161.85020000000003,475.59279999999995,-198.2266,175,75
2026-05-09 15:00:54.497,4,0.22,-0.8,-0.02,-159.9602,478.2828,-200.79659999999998,175,75
2026-05-09 15:00:54.508,4,0.17,-0.86,-0.03,-150.3902,501.5728,-197.8066,175,75
2026-05-09 15:00:54.538,4,0.24,-0.98,0.2,-108.8102,526.0228000000001,-184.0866,175,75
2026-05-09 15:00:54.569,4,0.38,-0.96,0.37,-77.6502,439.1328,-204.32659999999998,175,75
2026-05-09 15:00:54.582,4,0.37,-0.93,0.38,-69.0502,387.7928,-218.1066,175,75
2026-05-09 15:00:54.595,4,0.3,-0.88,0.35,-66.2402,353.46279999999996,-229.20659999999998,175,75
2026-05-09 15:00:54.614,4,0.19,-0.66,0.34,-70.7602,329.01279999999997,-232.92659999999998,175,75
2026-05-09 15:00:54.680,4,-0.13,-0.26,0.95,-36.060199999999995,215.6628,-247.6166,175,75
2026-05-09 15:00:54.731,4,-0.48,-0.09,1.12,-20.020200000000003,83.4628,-259.8166,175,75
2026-05-09 15:00:54.767,4,-0.72,0.06,1.63,-28.440200000000004,15.232799999999997,-204.20659999999998,175,75
2026-05-09 15:00:54.794,4,-0.75,0.2,1.71,-42.7702,-5.2572000000000045,-171.2766,175,75
2026-05-09 15:00:54.821,4,-0.66,0.26,1.84,-52.4002,-4.337200000000003,-134.8766,175,75
2026-05-09 15:00:54.833,4,-0.63,0.28,1.89,-56.3702,-8.547200000000004,-119.02660000000002,175,75
2026-05-09 15:00:54.833,4,-0.64,0.32,1.93,-59.5402,-16.537200000000006,-97.1966,175,75
2026-05-09 15:00:54.846,4,-0.62,0.36,1.98,-61.980199999999996,-17.517200000000003,-75.8566,175,75
2026-05-09 15:00:54.858,4,-0.59,0.41,2.01,-62.830200000000005,-17.027200000000008,-51.5866,175,75
2026-05-09 15:00:54.879,4,-0.54,0.4,2.05,-57.28020000000001,-14.947200000000002,-8.7766,175,75
2026-05-09 15:00:54.891,4,-0.53,0.36,2.07,-53.1302,-10.867200000000004,10.673399999999999,175,75
2026-05-09 15:00:54.898,4,-0.52,0.31,2.11,-46.310199999999995,-7.087200000000003,29.5734,175,75
2026-05-09 15:00:54.966,4,-1.18,-0.12,2.54,41.7398,-27.087200000000003,187.3834,175,75
2026-05-09 15:00:54.996,4,-1.11,-0.69,2.7,89.2398,-122.1472,240.6134,175,75
2026-05-09 15:00:54.996,4,-1.29,-0.83,2.68,126.3198,-155.2572,267.4434,175,75
2026-05-09 15:00:55.011,4,-1.52,-0.92,3.11,261.9298,-136.4772,342.1334,175,75
2026-05-09 15:00:55.061,4,-1.25,-1.2,2.86,357.40979999999996,-267.0272,382.5034,175,75
2026-05-09 15:00:55.072,4,-0.88,-1.41,2.33,378.0198,-246.8372,388.3534,175,75
2026-05-09 15:00:55.084,4,-0.41,-1.66,1.61,389.4898,-192.0872,396.7734,175,75
2026-05-09 15:00:55.084,4,0.03,-1.91,1.19,380.8898,-110.19720000000001,421.1634,175,75
2026-05-09 15:00:55.120,4,0.63,-1.93,1.36,265.39979999999997,-4.527200000000008,412.3134,175,75
2026-05-09 15:00:55.146,4,0.54,-0.99,1.31,190.64979999999997,-92.69720000000001,328.7234,175,75
2026-05-09 15:00:55.162,4,0.55,-0.7,1.33,154.7298,-57.6972,312.6234,175,75
2026-05-09 15:00:55.175,4,0.75,-0.4,1.21,122.1698,-15.747200000000007,281.8334,175,75
2026-05-09 15:00:55.196,4,0.57,-0.34,1.22,113.1498,25.722799999999992,272.6234,175,75
2026-05-09 15:00:55.218,4,0.37,-0.22,1.81,91.9898,121.3328,269.1434,175,75
2026-05-09 15:00:55.232,4,0.32,-0.17,2.23,82.2298,68.3428,241.8934,175,75
2026-05-09 15:00:55.243,4,0.12,0.12,2.32,67.1098,-70.25720000000001,188.7834,175,75
2026-05-09 15:00:55.258,4,0.07,0.25,2.17,61.7398,-103.0572,176.2234,175,75
2026-05-09 15:00:55.292,4,-0.04,0.32,1.8,56.1298,-26.537200000000006,186.1634,175,75
2026-05-09 15:00:55.306,4,0.02,0.34,1.88,55.519800000000004,-1.6572000000000031,192.3834,175,75
2026-05-09 15:00:55.306,4,0.1,0.31,1.96,52.7198,7.242800000000003,191.10340000000002,175,75
2026-05-09 15:00:55.332,4,0.11,0.3,2.03,48.99979999999999,5.352800000000002,187.7434,175,75
2026-05-09 15:00:55.377,4,0.02,0.34,2.08,37.3498,-12.937200000000004,180.85340000000002,175,75
2026-05-09 15:00:55.413,4,0.05,0.39,2.12,30.5198,-9.947200000000002,173.5334,175,75
2026-05-09 15:00:55.459,4,0.03,0.37,2.24,26.1298,-34.1572,151.4034,175,75
2026-05-09 15:00:55.513,4,0.08,0.47,1.96,25.0398,-14.217200000000005,144.3334,175,75
2026-05-09 15:00:55.545,4,0.08,0.45,2.17,19.6098,-19.0972,132.2534,175,75
2026-05-09 15:00:55.556,4,0.07,0.48,2.13,16.0698,-30.317200000000003,126.1034,175,75
2026-05-09 15:00:55.567,4,0.04,0.51,2.07,13.389799999999997,-30.377200000000006,124.2734,175,75
2026-05-09 15:00:55.577,4,0.02,0.5,2.07,13.079799999999999,-20.8072,124.8834,175,75
2026-05-09 15:00:55.577,4,0.04,0.47,2.13,11.189799999999998,-15.317200000000007,122.9934,175,75
2026-05-09 15:00:55.589,4,0.07,0.48,2.18,6.559799999999999,-24.887200000000007,115.4934,175,75
2026-05-09 15:00:55.617,4,0.05,0.55,2.12,5.5198,-36.9072,107.4434,175,75
2026-05-09 15:00:55.633,4,0.01,0.56,2.11,5.0398,-29.097200000000004,108.1734,175,75
2026-05-09 15:00:55.650,4,0.0,0.57,2.15,3.819799999999997,-15.687200000000004,110.12339999999999,175,75
2026-05-09 15:00:55.662,4,0.04,0.52,2.24,5.159799999999997,-16.1672,106.7734,175,75
2026-05-09 15:00:55.676,4,0.08,0.53,2.24,4.369799999999998,-26.4172,102.01339999999999,175,75
2026-05-09 15:00:55.691,4,0.07,0.56,2.19,4.549799999999998,-35.257200000000005,98.1734,175,75
2026-05-09 15:00:55.702,4,0.04,0.58,2.15,6.559799999999999,-29.217200000000005,98.9634,175,75
2026-05-09 15:00:55.712,4,0.02,0.58,2.16,8.6298,-15.807200000000002,101.2834,175,75
2026-05-09 15:00:55.723,4,0.02,0.57,2.22,10.829799999999999,-15.017200000000003,100.73339999999999,175,75
2026-05-09 15:00:55.733,4,0.04,0.57,2.25,12.1098,-24.037200000000006,97.4434,175,75
2026-05-09 15:00:55.745,4,0.06,0.57,2.2,11.319799999999997,-36.537200000000006,91.8334,175,75
2026-05-09 15:00:55.756,4,0.09,0.59,2.09,6.869799999999998,-42.0872,87.01339999999999,175,75
2026-05-09 15:00:55.767,4,0.06,0.62,2.02,4.369799999999998,-29.217200000000005,88.1134,175,75
2026-05-09 15:00:55.767,4,0.06,0.63,2.02,4.4298,-10.557200000000002,92.01339999999999,175,75
2026-05-09 15:00:55.805,4,0.05,0.58,2.22,-2.2201999999999984,-11.477200000000003,81.2834,175,75
2026-05-09 15:00:55.821,4,0.05,0.57,2.18,-5.020200000000003,-21.047200000000004,73.3534,175,75
2026-05-09 15:00:55.835,4,0.04,0.61,2.12,-8.9302,-22.937200000000004,69.4534,175,75
2026-05-09 15:00:55.846,4,0.02,0.64,2.09,-10.2102,-17.577200000000005,69.8134,175,75
2026-05-09 15:00:55.859,4,0.0,0.65,2.1,-10.700200000000002,-0.25720000000000454,73.4134,175,75
2026-05-09 15:00:55.859,4,0.0,0.64,2.16,-10.450200000000002,10.9028,75.5534,175,75
2026-05-09 15:00:55.882,4,0.03,0.6,2.27,-11.4302,10.232799999999997,72.4434,175,75
2026-05-09 15:00:55.910,4,-0.01,0.62,2.28,-13.870200000000004,-16.537200000000006,61.0334,175,75
2026-05-09 15:00:55.910,4,-0.02,0.64,2.27,-12.8902,-15.197200000000002,60.3634,175,75
2026-05-09 15:00:55.933,4,-0.04,0.66,2.29,-12.2802,-11.357200000000006,61.5234,175,75
2026-05-09 15:00:55.942,4,-0.03,0.65,2.3,-10.880200000000002,-10.137200000000007,62.1334,175,75
2026-05-09 15:00:55.967,4,0.03,0.6,2.31,-9.9602,-24.707200000000007,55.5534,175,75
2026-05-09 15:00:55.979,4,0.05,0.63,2.27,-11.120200000000004,-33.187200000000004,50.0634,175,75
2026-05-09 15:00:55.991,4,0.03,0.66,2.18,-11.550200000000004,-30.687200000000004,47.6834,175,75
2026-05-09 15:00:56.014,4,0.06,0.67,2.18,-10.330200000000005,-21.837200000000003,47.9934,175,75
2026-05-09 15:00:56.024,4,0.06,0.68,2.21,-9.720199999999998,-21.477200000000003,47.193400000000004,175,75
2026-05-09 15:00:56.036,4,0.09,0.69,2.22,-8.200200000000002,-24.827200000000005,45.0634,175,75
2026-05-09 15:00:56.047,4,0.08,0.69,2.22,-7.4602,-29.097200000000004,41.2834,175,75
2026-05-09 15:00:56.071,4,0.12,0.74,2.16,-6.430199999999999,-33.05720000000001,33.233399999999996,175,75
2026-05-09 15:00:56.084,4,0.11,0.73,2.09,-5.880200000000002,-35.257200000000005,30.303399999999996,175,75
2026-05-09 15:00:56.095,4,0.11,0.73,2.05,-4.170200000000001,-25.8072,32.803399999999996,175,75
2026-05-09 15:00:56.114,4,0.13,0.75,2.05,-0.8201999999999998,-12.267200000000003,36.7734,175,75
2026-05-09 15:00:56.130,4,0.18,0.75,2.12,-0.4502000000000024,0.41279999999999717,36.2234,175,75
2026-05-09 15:00:56.141,4,0.19,0.75,2.16,0.03979999999999961,-1.4772000000000034,32.4434,175,75
2026-05-09 15:00:56.141,4,0.17,0.76,2.18,1.0097999999999985,-9.947200000000002,27.3834,175,75
2026-05-09 15:00:56.152,4,0.13,0.77,2.15,1.3797999999999995,-19.157200000000003,22.8634,175,75
2026-05-09 15:00:56.179,4,0.09,0.75,2.03,5.159799999999997,-9.707200000000007,24.203400000000002,175,75
2026-05-09 15:00:56.193,4,0.12,0.72,2.01,7.409799999999997,3.892799999999994,26.7734,175,75
2026-05-09 15:00:56.234,4,0.05,0.73,2.1,-1.1801999999999992,-15.687200000000004,8.9634,175,75
2026-05-09 15:00:56.241,4,0.04,0.76,2.08,-1.7901999999999987,-17.267200000000003,8.843399999999999,175,75
2026-05-09 15:00:56.254,4,0.01,0.73,2.05,-1.7901999999999987,-14.0972,9.3934,175,75
2026-05-09 15:00:56.278,4,0.03,0.64,2.07,-6.430199999999999,-5.317200000000007,5.423399999999999,175,75
2026-05-09 15:00:56.292,4,0.04,0.64,2.1,-8.5002,-13.547200000000004,-1.7066,175,75
2026-05-09 15:00:56.302,4,0.04,0.66,2.09,-11.980200000000004,-21.107200000000006,-6.4666000000000015,175,75
2026-05-09 15:00:56.329,4,-0.04,0.66,2.05,-17.400199999999998,-17.517200000000003,-10.606600000000002,175,75
2026-05-09 15:00:56.344,4,-0.05,0.64,2.06,-20.760200000000005,-22.447200000000002,-14.576600000000001,175,75
2026-05-09 15:00:56.365,4,-0.05,0.65,2.02,-28.130200000000002,-26.1672,-18.656599999999997,175,75
2026-05-09 15:00:56.365,4,-0.04,0.66,1.94,-34.480199999999996,-20.317200000000007,-22.1366,175,75
2026-05-09 15:00:56.382,4,-0.01,0.67,1.87,-38.9902,-6.227200000000003,-22.6166,175,75
2026-05-09 15:00:56.397,4,-0.01,0.61,1.88,-51.730199999999996,31.88279999999999,-27.806599999999996,175,75
2026-05-09 15:00:56.407,4,-0.1,0.64,1.97,-56.92020000000001,35.172799999999995,-30.546599999999998,175,75
2026-05-09 15:00:56.418,4,-0.11,0.68,2.03,-59.9602,39.0128,-29.2066,175,75
2026-05-09 15:00:56.418,4,-0.09,0.68,2.03,-61.980199999999996,34.562799999999996,-30.7866,175,75
2026-05-09 15:00:56.427,4,-0.05,0.64,1.98,-65.7602,28.83279999999999,-31.766599999999997,175,75
2026-05-09 15:00:56.463,4,0.06,0.47,1.91,-77.7102,50.72279999999999,-43.166599999999995,175,75
2026-05-09 15:00:56.486,4,0.06,0.41,1.84,-92.53020000000001,43.642799999999994,-59.996599999999994,175,75
2026-05-09 15:00:56.496,4,0.01,0.42,1.79,-103.38019999999999,47.1228,-66.0366,175,75
2026-05-09 15:00:56.509,4,-0.06,0.45,1.77,-111.1802,63.16279999999999,-67.8666,175,75
2026-05-09 15:00:56.534,4,0.03,0.34,1.91,-130.3302,79.5628,-75.6066,175,75
2026-05-09 15:00:56.544,4,0.06,0.26,1.91,-140.2102,69.7428,-87.6166,175,75
2026-05-09 15:00:56.549,4,0.06,0.22,1.91,-145.5702,62.61279999999999,-94.5066,175,75
2026-05-09 15:00:56.565,4,0.05,0.19,1.89,-153.6202,51.392799999999994,-107.8666,175,75
2026-05-09 15:00:56.596,4,0.04,0.16,1.87,-164.78019999999998,70.9028,-113.4766,175,75
2026-05-09 15:00:56.613,4,0.09,0.08,1.94,-164.11020000000002,81.69279999999999,-117.68660000000001,175,75
2026-05-09 15:00:56.625,4,0.09,0.0,2.0,-165.5102,72.91279999999999,-126.46660000000001,175,75
2026-05-09 15:00:56.626,4,0.06,-0.06,2.05,-170.09019999999998,56.812799999999996,-136.5866,175,75
2026-05-09 15:00:56.638,4,0.01,-0.09,2.03,-176.79020000000003,42.672799999999995,-147.7466,175,75
2026-05-09 15:00:56.651,4,0.03,-0.1,2.01,-182.7702,33.83279999999999,-155.2466,175,75
2026-05-09 15:00:56.672,4,0.03,-0.11,1.9,-190.8202,28.952799999999996,-163.89659999999998,175,75
2026-05-09 15:00:56.703,4,0.1,-0.23,1.93,-191.61020000000002,41.202799999999996,-167.8066,175,75
2026-05-09 15:00:56.714,4,0.02,-0.27,1.94,-195.03019999999998,37.422799999999995,-174.14659999999998,175,75
2026-05-09 15:00:56.736,4,0.02,-0.27,1.92,-201.73020000000002,32.672799999999995,-180.2466,175,75
2026-05-09 15:00:56.736,4,0.02,-0.23,1.86,-205.9402,26.88279999999999,-180.54659999999998,175,75
2026-05-09 15:00:56.747,4,-0.02,-0.21,1.8,-208.8102,31.452799999999996,-177.2566,175,75
2026-05-09 15:00:56.774,4,-0.0,-0.24,1.74,-209.05020000000002,54.80279999999999,-173.2266,175,75
2026-05-09 15:00:56.791,4,0.01,-0.27,1.75,-207.7102,74.01279999999998,-168.1066,175,75
2026-05-09 15:00:56.804,4,0.03,-0.28,1.87,-197.28019999999998,89.01279999999998,-161.8866,175,75
2026-05-09 15:00:56.804,4,-0.02,-0.24,1.91,-192.10020000000003,85.8428,-161.0966,175,75
2026-05-09 15:00:56.815,4,-0.08,-0.21,1.86,-189.90019999999998,92.73279999999998,-158.6566,175,75
2026-05-09 15:00:56.827,4,-0.11,-0.18,1.81,-187.40019999999998,107.0028,-149.6966,175,75
2026-05-09 15:00:56.838,4,-0.13,-0.17,1.81,-178.4402,132.12279999999998,-137.4966,175,75
2026-05-09 15:00:56.849,4,-0.06,-0.22,1.84,-165.7602,147.3028,-130.42659999999998,175,75
2026-05-09 15:00:56.879,4,-0.02,-0.25,1.86,-154.35020000000003,153.77280000000002,-122.74660000000002,175,75
2026-05-09 15:00:56.879,4,-0.02,-0.28,1.92,-134.54020000000003,156.81279999999998,-117.9266,175,75
2026-05-09 15:00:56.879,4,-0.13,-0.26,1.8,-128.99020000000002,160.7828,-110.9766,175,75
2026-05-09 15:00:56.903,4,-0.15,-0.21,2.24,-113.38019999999999,134.62279999999998,-89.26660000000001,175,75
2026-05-09 15:00:56.914,4,-0.34,-0.2,2.34,-84.78020000000001,113.64280000000001,-77.68660000000001,175,75
2026-05-09 15:00:56.914,4,0.01,-0.29,2.76,-71.67020000000001,42.97279999999999,-74.4466,175,75
2026-05-09 15:00:56.946,4,-1.07,-0.95,2.02,64.7298,40.172799999999995,-64.7566,175,75
2026-05-09 15:00:56.961,4,0.83,-0.61,1.25,-14.720199999999998,23.282799999999995,-80.18660000000001,175,75
2026-05-09 15:00:56.985,4,0.82,-0.0,0.81,-36.4302,-11.047200000000004,-80.9166,175,75
2026-05-09 15:00:57.005,4,0.3,0.27,1.13,6.499799999999997,163.89280000000002,7.0733999999999995,175,75
2026-05-09 15:00:57.018,4,0.38,0.05,1.52,-14.290199999999999,150.5928,-3.3566000000000003,175,75
2026-05-09 15:00:57.035,4,0.4,0.01,1.7,-40.1502,87.5528,-34.0266,175,75
2026-05-09 15:00:57.035,4,0.33,0.14,1.72,-56.4302,62.7928,-43.9666,175,75
2026-05-09 15:00:57.091,4,-0.17,0.29,1.8,-47.590199999999996,124.8028,-5.606600000000002,175,75
2026-05-09 15:00:57.114,4,0.01,0.23,2.09,-41.8502,101.63279999999999,1.2833999999999985,175,75
2026-05-09 15:00:57.128,4,-0.1,0.27,2.08,-44.6002,70.9628,2.923399999999999,175,75
2026-05-09 15:00:57.128,4,-0.24,0.28,2.07,-39.17020000000001,61.33279999999999,7.8034,175,75
2026-05-09 15:00:57.140,4,-0.25,0.2,2.14,-35.6302,46.08279999999999,20.6734,175,75
2026-05-09 15:00:57.154,4,-0.28,0.09,2.09,-29.1102,17.30279999999999,26.403399999999998,175,75
2026-05-09 15:00:57.165,4,-0.16,0.03,1.83,-33.1302,-9.0972,25.1834,175,75
2026-05-09 15:00:57.181,4,0.06,0.02,1.62,-41.4302,-10.807200000000002,25.1834,175,75
2026-05-09 15:00:57.205,4,0.27,0.11,1.48,-35.940200000000004,17.91279999999999,35.0634,175,75
2026-05-09 15:00:57.232,4,0.05,0.13,1.82,-27.830200000000005,-2.4472000000000023,21.703400000000002,175,75
2026-05-09 15:00:57.253,4,-0.01,0.19,1.79,-24.230200000000004,-4.217200000000005,18.9634,175,75
2026-05-09 15:00:57.265,4,0.03,0.17,1.76,-16.550200000000004,-3.7972000000000037,20.2434,175,75
2026-05-09 15:00:57.316,4,0.06,0.11,1.68,-1.9802000000000035,11.752799999999993,18.6034,175,75
2026-05-09 15:00:57.348,4,0.03,0.06,1.74,2.779799999999998,5.962800000000001,15.183399999999999,175,75
2026-05-09 15:00:57.369,4,0.03,-0.0,1.65,4.549799999999998,3.092799999999997,9.513399999999999,175,75
2026-05-09 15:00:57.393,4,-0.01,0.02,1.64,2.779799999999998,2.7327999999999975,11.6434,175,75
2026-05-09 15:00:57.408,4,-0.02,0.03,1.7,2.0497999999999976,4.862799999999993,12.6234,175,75
2026-05-09 15:00:57.419,4,-0.01,0.05,1.78,0.8897999999999975,1.5127999999999986,11.8334,175,75
2026-05-09 15:00:57.446,4,0.0,0.1,1.79,1.7997999999999976,-8.667200000000001,8.4734,175,75
2026-05-09 15:00:57.458,4,0.01,0.12,1.76,2.899799999999999,-9.277200000000008,9.3934,175,75
2026-05-09 15:00:57.472,4,0.01,0.1,1.71,3.689799999999998,-7.637200000000007,9.3934,175,75
2026-05-09 15:00:57.487,4,-0.02,0.1,1.72,4.669799999999999,2.7927999999999926,12.683399999999999,175,75
2026-05-09 15:00:57.514,4,-0.02,0.07,1.78,4.849799999999998,2.2427999999999955,13.2334,175,75
2026-05-09 15:00:57.524,4,-0.03,0.11,1.79,5.219799999999999,0.17279999999999518,15.0034,175,75
2026-05-09 15:00:57.534,4,-0.04,0.12,1.83,5.8897999999999975,3.5227999999999966,15.9734,175,75
2026-05-09 15:00:57.548,4,-0.0,0.13,1.85,3.3897999999999975,3.7027999999999963,17.013399999999997,175,75
2026-05-09 15:00:57.562,4,0.03,0.13,1.83,2.3497999999999983,4.562799999999996,20.0634,175,75
2026-05-09 15:00:57.595,4,0.02,0.11,1.82,0.5797999999999988,4.442799999999991,19.083399999999997,175,75
2026-05-09 15:00:57.620,4,0.03,0.11,1.79,-0.7002000000000024,8.952799999999996,19.2034,175,75
2026-05-09 15:00:57.658,4,0.02,0.04,1.79,-3.9301999999999992,14.742800000000003,17.8634,175,75
2026-05-09 15:00:57.668,4,-0.01,0.04,1.8,-6.430199999999999,14.742800000000003,14.6334,175,75
2026-05-09 15:00:57.679,4,-0.02,0.06,1.81,-6.180199999999999,15.66279999999999,12.6234,175,75
2026-05-09 15:00:57.693,4,-0.07,0.07,1.81,-6.920200000000001,13.282799999999995,7.993399999999999,175,75
2026-05-09 15:00:57.702,4,-0.12,0.1,1.79,-7.340200000000003,14.622799999999998,7.3134,175,75
2026-05-09 15:00:57.704,4,-0.14,0.1,1.78,-6.670200000000001,15.232799999999997,7.623399999999999,175,75
2026-05-09 15:00:57.726,4,-0.18,0.08,1.82,-5.020200000000003,14.742800000000003,8.2334,175,75
2026-05-09 15:00:57.736,4,-0.17,0.07,1.83,-5.090200000000003,9.742800000000003,7.623399999999999,175,75
2026-05-09 15:00:57.758,4,-0.17,0.07,1.78,-5.450200000000002,5.172799999999995,8.6634,175,75
2026-05-09 15:00:57.758,4,-0.15,0.07,1.79,-6.0001999999999995,4.072800000000001,10.853399999999999,175,75
2026-05-09 15:00:57.786,4,-0.15,0.05,1.82,-5.270200000000003,2.362799999999993,13.353399999999999,175,75
2026-05-09 15:00:57.798,4,-0.13,0.05,1.81,-7.650199999999998,0.1127999999999929,12.3834,175,75
2026-05-09 15:00:57.820,4,-0.12,0.05,1.81,-9.230200000000004,-3.367200000000004,12.683399999999999,175,75
2026-05-09 15:00:57.873,4,-0.13,0.05,1.81,-11.4302,-0.5572000000000017,11.033399999999999,175,75
2026-05-09 15:00:57.873,4,-0.12,0.05,1.79,-12.950200000000002,-0.9872000000000014,9.6334,175,75
2026-05-09 15:00:57.891,4,-0.14,0.06,1.78,-12.770200000000003,-0.9872000000000014,9.943399999999999,175,75
2026-05-09 15:00:57.926,4,-0.15,0.04,1.77,-11.980200000000004,2.182799999999993,8.293399999999998,175,75
2026-05-09 15:00:57.943,4,-0.13,0.03,1.78,-11.4302,1.2027999999999963,6.343399999999999,175,75
2026-05-09 15:00:57.953,4,-0.17,0.03,1.75,-11.060200000000002,2.122799999999998,3.7234,175,75
2026-05-09 15:00:57.965,4,-0.17,0.02,1.74,-9.900199999999998,3.092799999999997,3.173399999999999,175,75
2026-05-09 15:00:57.978,4,-0.16,0.01,1.73,-9.660200000000003,3.0327999999999946,2.6234,175,75
2026-05-09 15:00:57.993,4,-0.13,0.02,1.76,-8.5002,2.7327999999999975,1.2833999999999985,175,75
2026-05-09 15:00:58.015,4,-0.08,0.06,1.78,-8.380200000000002,-0.9872000000000014,-3.2266000000000012,175,75
2026-05-09 15:00:58.048,4,-0.14,0.05,1.77,-4.540199999999999,3.402799999999999,-3.3566000000000003,175,75
2026-05-09 15:00:58.072,4,-0.18,0.03,1.77,-5.270200000000003,2.672799999999995,-3.656600000000001,175,75
2026-05-09 15:00:58.072,4,-0.18,0.03,1.76,-5.700200000000002,2.9727999999999923,-3.1666000000000007,175,75
2026-05-09 15:00:58.083,4,-0.2,0.03,1.76,-5.760200000000005,3.4627999999999943,-2.6866000000000003,175,75
2026-05-09 15:00:58.105,4,-0.17,0.02,1.77,-5.630200000000002,3.4627999999999943,-1.6466000000000012,175,75
2026-05-09 15:00:58.154,4,-0.2,0.03,1.78,-6.790199999999999,-0.9272000000000062,0.06339999999999968,175,75
2026-05-09 15:00:58.180,4,-0.22,0.06,1.81,-6.180199999999999,-1.9072000000000031,2.5633999999999997,175,75
2026-05-09 15:00:58.203,4,-0.25,0.06,1.79,-8.440200000000004,-8.187200000000004,4.2734,175,75
2026-05-09 15:00:58.224,4,-0.23,0.08,1.8,-7.340200000000003,-4.527200000000008,8.7834,175,75
2026-05-09 15:00:58.237,4,-0.21,0.05,1.84,-8.200200000000002,-7.877200000000002,8.603399999999999,175,75
2026-05-09 15:00:58.264,4,-0.15,0.04,1.77,-9.110199999999999,-8.057200000000002,7.133399999999999,175,75
2026-05-09 15:00:58.283,4,-0.16,0.04,1.76,-8.9302,-6.657200000000003,6.953399999999999,175,75
2026-05-09 15:00:58.340,4,-0.14,0.07,1.78,-10.330200000000005,-5.867200000000004,1.6433999999999997,175,75
2026-05-09 15:00:58.354,4,-0.14,0.08,1.8,-8.5002,-3.857200000000006,1.2833999999999985,175,75
2026-05-09 15:00:58.365,4,-0.14,0.06,1.82,-9.350200000000001,-2.9972000000000065,-0.11660000000000004,175,75
2026-05-09 15:00:58.379,4,-0.12,0.05,1.8,-9.170200000000001,-3.7972000000000037,-3.9666000000000015,175,75
2026-05-09 15:00:58.387,4,-0.11,0.06,1.8,-9.110199999999999,-3.2472000000000065,-4.506600000000001,175,75
2026-05-09 15:00:58.401,4,-0.13,0.07,1.78,-8.6802,-0.43720000000000425,-5.306600000000001,175,75
2026-05-09 15:00:58.411,4,-0.14,0.06,1.8,-7.7102,2.0027999999999935,-5.3666,175,75
2026-05-09 15:00:58.443,4,-0.15,0.05,1.82,-8.5002,0.9627999999999943,-7.376600000000002,175,75
2026-05-09 15:00:58.443,4,-0.15,0.06,1.79,-9.050200000000004,0.8427999999999969,-7.196600000000002,175,75
2026-05-09 15:00:58.455,4,-0.15,0.07,1.79,-8.560200000000002,2.5527999999999977,-6.2166000000000015,175,75
2026-05-09 15:00:58.473,4,-0.15,0.05,1.81,-7.4602,3.642799999999994,-5.3666,175,75
2026-05-09 15:00:58.484,4,-0.14,0.03,1.82,-7.7102,3.8327999999999918,-5.916600000000001,175,75
2026-05-09 15:00:58.495,4,-0.13,0.02,1.81,-7.650199999999998,3.0327999999999946,-7.316599999999999,175,75
2026-05-09 15:00:58.505,4,-0.15,0.03,1.77,-7.830200000000005,2.852799999999995,-8.1666,175,75
2026-05-09 15:00:58.544,4,-0.17,0.02,1.75,-10.450200000000002,4.012799999999999,-7.6866,175,75
2026-05-09 15:00:58.558,4,-0.19,0.04,1.74,-10.330200000000005,3.4627999999999943,-5.7265999999999995,175,75
2026-05-09 15:00:58.570,4,-0.19,0.03,1.74,-10.700200000000002,3.9527999999999963,-4.6366,175,75
2026-05-09 15:00:58.570,4,-0.19,0.02,1.77,-10.700200000000002,4.802799999999991,-4.146600000000001,175,75
2026-05-09 15:00:58.602,4,-0.16,0.03,1.79,-8.380200000000002,3.8327999999999918,-4.086600000000001,175,75
2026-05-09 15:00:58.615,4,-0.16,0.03,1.82,-6.4902000000000015,4.192799999999991,-3.2965999999999998,175,75
2026-05-09 15:00:58.655,4,-0.22,0.04,1.72,-6.180199999999999,3.5827999999999918,-1.9466,175,75
2026-05-09 15:00:58.683,4,-0.22,0.05,1.77,-8.380200000000002,-2.6972000000000023,-0.056600000000001316,175,75
2026-05-09 15:00:58.701,4,-0.21,0.05,1.78,-6.180199999999999,-1.2972000000000037,1.4033999999999995,175,75
2026-05-09 15:00:58.723,4,-0.21,0.05,1.8,-4.900199999999998,-0.9872000000000014,1.2833999999999985,175,75
2026-05-09 15:00:58.734,4,-0.2,0.04,1.81,-3.9301999999999992,-2.2672000000000025,1.4033999999999995,175,75
2026-05-09 15:00:58.753,4,-0.2,0.03,1.78,-5.880200000000002,-4.097200000000001,1.0333999999999985,175,75
2026-05-09 15:00:58.777,4,-0.19,0.04,1.79,-4.600200000000001,-2.817200000000007,1.9534000000000002,175,75
2026-05-09 15:00:58.791,4,-0.19,0.04,1.8,-5.090200000000003,-2.327200000000005,1.8933999999999997,175,75
2026-05-09 15:00:58.803,4,-0.19,0.05,1.79,-5.700200000000002,-2.637200000000007,1.4634,175,75
2026-05-09 15:00:58.803,4,-0.19,0.05,1.78,-6.310200000000002,-2.2072000000000074,1.5233999999999988,175,75
2026-05-09 15:00:58.813,4,-0.2,0.06,1.78,-6.2402000000000015,-2.0272000000000077,2.5633999999999997,175,75
2026-05-09 15:00:58.833,4,-0.22,0.07,1.8,-5.2102,-0.3172000000000068,3.2934,175,75
2026-05-09 15:00:58.843,4,-0.21,0.06,1.82,-6.060200000000002,-0.5572000000000017,2.683399999999999,175,75
2026-05-09 15:00:58.855,4,-0.21,0.05,1.81,-6.9802000000000035,-2.9372000000000043,2.1334,175,75
2026-05-09 15:00:58.865,4,-0.23,0.06,1.8,-6.310200000000002,-0.867200000000004,2.6234,175,75
2026-05-09 15:00:58.883,4,-0.2,0.05,1.79,-8.990200000000002,-2.327200000000005,1.1033999999999988,175,75
2026-05-09 15:00:58.896,4,-0.19,0.07,1.78,-8.990200000000002,0.05279999999999774,2.8034,175,75
2026-05-09 15:00:58.910,4,-0.21,0.03,1.81,-7.100200000000001,-0.07720000000000482,2.9933999999999994,175,75
2026-05-09 15:00:58.929,4,-0.2,0.04,1.81,-8.010200000000005,-0.7472000000000065,3.0534,175,75
2026-05-09 15:00:58.967,4,-0.22,0.04,1.8,-9.170200000000001,-0.1372000000000071,2.9933999999999994,175,75
2026-05-09 15:00:58.977,4,-0.21,0.04,1.81,-9.840200000000003,0.3527999999999949,3.1133999999999986,175,75
2026-05-09 15:00:58.991,4,-0.22,0.05,1.81,-9.290199999999999,0.9627999999999943,3.9033999999999995,175,75
2026-05-09 15:00:59.002,4,-0.27,0.07,1.81,-8.010200000000005,3.4627999999999943,6.343399999999999,175,75
2026-05-09 15:00:59.036,4,-0.28,0.09,1.85,-7.220199999999998,0.17279999999999518,6.283399999999999,175,75
2026-05-09 15:00:59.052,4,-0.22,0.08,1.77,-7.770200000000003,2.3027999999999977,4.453399999999999,175,75
2026-05-09 15:00:59.074,4,-0.19,-0.01,1.89,-4.840200000000003,7.0027999999999935,2.923399999999999,175,75
2026-05-09 15:00:59.098,4,-0.21,0.09,1.85,-10.8202,0.23279999999999745,1.7733999999999988,175,75
2026-05-09 15:00:59.114,4,-0.23,0.06,1.77,-11.370200000000004,8.282799999999995,4.513399999999999,175,75
2026-05-09 15:00:59.125,4,-0.19,0.03,1.79,-11.730200000000004,10.722799999999992,2.683399999999999,175,75
2026-05-09 15:00:59.138,4,-0.2,0.05,1.81,-11.980200000000004,9.132799999999989,3.4133999999999993,175,75
2026-05-09 15:00:59.152,4,-0.24,0.02,1.8,-9.050200000000004,10.66279999999999,3.173399999999999,175,75
2026-05-09 15:00:59.163,4,-0.18,0.01,1.8,-13.6802,8.222799999999992,-1.7666000000000004,175,75
2026-05-09 15:00:59.187,4,-0.2,0.04,1.77,-16.4302,7.362799999999993,-1.8866000000000014,175,75
2026-05-09 15:00:59.201,4,-0.23,-0.01,1.87,-16.8502,8.092799999999997,-2.986600000000001,175,75
2026-05-09 15:00:59.215,4,-0.36,0.05,1.82,-17.400199999999998,12.422799999999995,1.1633999999999993,175,75
2026-05-09 15:00:59.231,4,-0.39,0.06,1.83,-13.260200000000005,24.13279999999999,7.503399999999999,175,75
2026-05-09 15:00:59.243,4,-0.43,0.07,1.89,-9.050200000000004,33.702799999999996,14.273399999999999,175,75
2026-05-09 15:00:59.254,4,-0.45,0.08,1.98,-3.7402000000000015,36.392799999999994,19.943399999999997,175,75
2026-05-09 15:00:59.264,4,-0.45,0.07,2.09,3.149799999999999,31.142799999999994,24.3934,175,75
2026-05-09 15:00:59.280,4,-0.46,0.08,2.18,15.2198,22.672799999999995,28.233399999999996,175,75
2026-05-09 15:00:59.291,4,-0.5,0.05,2.24,27.779799999999998,16.88279999999999,33.4734,175,75
2026-05-09 15:00:59.303,4,-0.55,0.06,2.26,41.6198,10.112799999999993,38.9634,175,75
2026-05-09 15:00:59.308,4,-0.54,0.17,2.21,52.2298,7.7327999999999975,47.623400000000004,175,75
2026-05-09 15:00:59.322,4,-0.57,0.21,2.19,64.4898,3.092799999999997,56.9534,175,75
2026-05-09 15:00:59.332,4,-0.54,0.2,2.14,74.6698,13.642799999999994,65.1234,175,75
2026-05-09 15:00:59.393,4,-0.25,0.35,2.12,112.7798,-5.0172000000000025,93.6034,175,75
2026-05-09 15:00:59.437,4,0.35,0.07,2.42,152.8398,-119.7672,37.5034,175,75
2026-05-09 15:00:59.497,4,0.01,0.12,2.16,139.0598,-139.8872,-14.326600000000001,175,75
2026-05-09 15:00:59.524,4,0.0,0.02,2.11,124.7298,-165.74720000000002,-41.2166,175,75
2026-05-09 15:00:59.605,4,0.19,-0.06,1.88,25.0998,74.7428,-99.5766,175,75
2026-05-09 15:00:59.625,4,0.07,-0.2,2.21,13.389799999999997,50.66279999999999,-138.04659999999998,175,75
2026-05-09 15:00:59.641,4,0.0,-0.23,2.31,0.7698,7.122799999999998,-172.4966,175,75
2026-05-09 15:00:59.641,4,0.0,-0.23,2.32,-7.950200000000002,-20.927200000000006,-193.5366,175,75
2026-05-09 15:00:59.660,4,0.0,-0.24,2.31,-11.610199999999999,-49.9472,-215.54659999999998,175,75
2026-05-09 15:00:59.673,4,-0.0,-0.26,2.34,-11.1802,-69.2172,-229.8766,175,75
2026-05-09 15:00:59.704,4,-0.18,-0.2,2.32,-26.6102,-133.8572,-270.8566,175,75
2026-05-09 15:00:59.728,4,-0.11,0.05,2.15,-36.67020000000001,-134.7072,-276.3966,175,75
2026-05-09 15:00:59.741,4,-0.07,0.06,2.11,-40.8202,-122.5172,-274.7566,175,75
2026-05-09 15:00:59.771,4,-0.15,0.22,2.19,-47.4002,-99.6472,-254.26659999999998,175,75
2026-05-09 15:00:59.801,4,-0.14,0.29,2.17,-54.17020000000001,-97.3872,-248.89659999999998,175,75
2026-05-09 15:00:59.801,4,-0.1,0.36,2.16,-51.92020000000001,-96.9672,-242.5566,175,75
2026-05-09 15:00:59.813,4,-0.06,0.43,2.13,-49.78020000000001,-91.41720000000001,-235.3666,175,75
2026-05-09 15:00:59.825,4,0.0,0.46,2.09,-50.940200000000004,-81.2972,-227.8666,175,75
2026-05-09 15:00:59.846,4,0.03,0.48,2.06,-51.8502,-71.3572,-222.1966,175,75
2026-05-09 15:00:59.846,4,0.03,0.54,2.04,-51.1202,-56.8372,-212.8066,175,75
2026-05-09 15:00:59.865,4,0.0,0.6,2.0,-48.0702,-37.0872,-201.5266,175,75
2026-05-09 15:00:59.877,4,-0.05,0.68,2.03,-42.4002,-14.037200000000006,-181.0366,175,75
2026-05-09 15:00:59.889,4,-0.01,0.68,2.05,-40.090199999999996,-12.817200000000007,-177.8666,175,75
2026-05-09 15:00:59.907,4,0.05,0.68,2.05,-40.7602,-16.5972,-174.0866,175,75
2026-05-09 15:00:59.926,4,0.15,0.85,1.98,-39.9002,-11.167200000000001,-152.2566,175,75
2026-05-09 15:00:59.947,4,0.15,0.88,1.95,-38.2602,-6.657200000000003,-144.3866,175,75
2026-05-09 15:00:59.952,4,0.07,0.91,1.96,-35.8202,-0.1372000000000071,-134.8166,175,75
2026-05-09 15:00:59.985,4,0.1,1.0,1.98,-36.8502,-15.927200000000006,-124.3266,175,75
2026-05-09 15:00:59.999,4,0.14,1.04,1.96,-35.940200000000004,-15.377200000000002,-118.83660000000002,175,75
2026-05-09 15:01:00.015,4,0.15,1.06,1.92,-36.00020000000001,-12.207200000000007,-113.7166,175,75
2026-05-09 15:01:00.026,4,0.14,1.07,1.89,-35.330200000000005,-13.367200000000004,-109.4466,175,75
2026-05-09 15:01:00.036,4,0.18,1.1,1.89,-34.5402,-10.137200000000007,-107.0766,175,75
2026-05-09 15:01:00.062,4,0.13,1.17,1.93,-33.6802,-1.107200000000006,-93.7766,175,75
2026-05-09 15:01:00.096,4,0.14,1.17,2.0,-36.730199999999996,-13.667200000000001,-89.93660000000001,175,75
2026-05-09 15:01:00.109,4,0.17,1.21,1.99,-36.2402,-15.077200000000005,-86.15660000000001,175,75
2026-05-09 15:01:00.146,4,0.08,1.27,2.15,-26.0002,-27.937200000000004,-67.68660000000001,175,75
2026-05-09 15:01:00.170,4,-0.21,1.3,2.24,-20.020200000000003,-45.49720000000001,-48.6566,175,75
2026-05-09 15:01:00.177,4,-0.19,1.24,2.38,-3.620200000000004,-27.877200000000002,-39.6366,175,75
2026-05-09 15:01:00.202,4,0.42,1.2,2.2,-18.560200000000002,-83.72720000000001,-60.546600000000005,175,75
2026-05-09 15:01:00.217,4,0.13,1.35,1.96,-11.670200000000001,-85.8672,-46.8266,175,75
2026-05-09 15:01:00.229,4,-0.27,1.39,1.94,21.799799999999998,-4.587200000000003,-15.606600000000002,175,75
2026-05-09 15:01:00.246,4,0.17,1.33,2.03,14.729799999999997,89.7428,10.613399999999999,175,75
2026-05-09 15:01:00.258,4,0.33,1.38,2.08,11.5598,22.972799999999992,7.1934,175,75
2026-05-09 15:01:00.274,4,0.25,1.33,2.03,17.8998,-1.7172000000000054,2.1933999999999987,175,75
2026-05-09 15:01:00.290,4,0.39,1.25,2.0,7.779799999999998,12.482799999999997,2.1334,175,75
2026-05-09 15:01:00.323,4,0.27,1.28,2.05,8.149799999999999,-6.907200000000003,-5.306600000000001,175,75
2026-05-09 15:01:00.334,4,0.24,1.3,2.02,3.3897999999999975,0.2927999999999926,-5.7265999999999995,175,75
2026-05-09 15:01:00.357,4,0.26,1.29,1.96,9.4298,15.722799999999992,-1.156600000000001,175,75
2026-05-09 15:01:00.357,4,0.2,1.3,1.95,12.899799999999999,24.44279999999999,5.123399999999999,175,75
2026-05-09 15:01:00.370,4,0.16,1.32,1.98,11.069799999999997,37.4828,9.203399999999998,175,75
2026-05-09 15:01:00.385,4,0.16,1.35,2.02,7.5398,47.062799999999996,15.613399999999999,175,75
2026-05-09 15:01:00.411,4,0.21,1.33,2.07,7.2898,43.702799999999996,16.7034,175,75
2026-05-09 15:01:00.411,4,0.24,1.28,2.08,4.059799999999999,33.4628,16.1034,175,75
2026-05-09 15:01:00.422,4,0.26,1.25,2.03,1.0697999999999972,21.88279999999999,11.6434,175,75
2026-05-09 15:01:00.464,4,0.25,1.28,1.97,0.8897999999999975,20.842799999999997,13.113399999999999,175,75
2026-05-09 15:01:00.475,4,0.25,1.27,1.98,0.8297999999999988,22.732799999999997,14.3334,175,75
2026-05-09 15:01:00.475,4,0.22,1.28,2.01,0.27979999999999805,22.482799999999997,15.793399999999998,175,75
2026-05-09 15:01:00.492,4,0.21,1.26,2.03,-0.7602000000000046,22.852800000000002,13.5334,175,75
2026-05-09 15:01:00.506,4,0.24,1.27,2.04,-2.8902,22.122799999999998,13.353399999999999,175,75
2026-05-09 15:01:00.549,4,0.19,1.23,2.04,-0.7602000000000046,25.842799999999997,14.6934,175,75
2026-05-09 15:01:00.563,4,0.18,1.24,2.04,-0.8201999999999998,25.172799999999995,16.0334,175,75
2026-05-09 15:01:00.576,4,0.19,1.25,2.06,-0.3902000000000001,25.9028,18.6034,175,75
2026-05-09 15:01:00.589,4,0.2,1.24,2.07,-1.120200000000004,23.952799999999996,19.8834,175,75
2026-05-09 15:01:00.603,4,0.2,1.22,2.06,-1.4301999999999992,19.562799999999996,17.6834,175,75
2026-05-09 15:01:00.611,4,0.21,1.21,2.04,-2.0401999999999987,16.94279999999999,16.4634,175,75
2026-05-09 15:01:00.624,4,0.19,1.22,2.03,-2.400199999999998,18.282799999999995,19.333399999999997,175,75
2026-05-09 15:01:00.624,4,0.17,1.24,2.04,-2.0401999999999987,20.842799999999997,21.1634,175,75
2026-05-09 15:01:00.635,4,0.15,1.25,2.07,-1.7302000000000035,20.05279999999999,23.6034,175,75
2026-05-09 15:01:00.670,4,0.13,1.2,2.05,-1.3102000000000018,2.122799999999998,22.6234,175,75
2026-05-09 15:01:00.679,4,0.14,1.19,2.02,-1.9802000000000035,0.23279999999999745,25.4934,175,75
2026-05-09 15:01:00.695,4,0.11,1.21,2.02,-0.27020000000000266,1.9427999999999983,27.7434,175,75
2026-05-09 15:01:00.706,4,0.09,1.21,2.08,1.3197999999999972,-2.2672000000000025,31.833399999999997,175,75
2026-05-09 15:01:00.717,4,0.04,1.2,2.09,2.5997999999999983,-8.857200000000006,32.1934,175,75
2026-05-09 15:01:00.729,4,0.03,1.17,2.08,5.219799999999999,-17.817200000000007,28.723399999999998,175,75
2026-05-09 15:01:00.742,4,0.03,1.11,2.02,6.619799999999998,-29.707200000000004,23.903399999999998,175,75
2026-05-09 15:01:00.752,4,0.03,1.1,2.01,5.9498,-35.3772,23.903399999999998,175,75
2026-05-09 15:01:00.773,4,0.01,1.13,2.0,7.349799999999998,-35.80720000000001,23.9634,175,75
2026-05-09 15:01:00.777,4,0.06,1.19,1.99,8.509799999999998,-36.107200000000006,22.0734,175,75
2026-05-09 15:01:00.806,4,0.06,1.26,1.89,10.2198,-30.437200000000004,24.203400000000002,175,75
2026-05-09 15:01:00.821,4,-0.01,1.28,1.91,13.0198,-11.777200000000008,31.4634,175,75
2026-05-09 15:01:00.831,4,0.01,1.26,1.98,17.959799999999998,9.862799999999993,42.1934,175,75
2026-05-09 15:01:00.843,4,-0.0,1.23,2.1,19.1798,4.6828,47.8034,175,75
2026-05-09 15:01:00.855,4,-0.06,1.22,2.16,21.3198,-24.277200000000008,43.7834,175,75
2026-05-09 15:01:00.865,4,-0.13,1.27,2.13,20.709799999999998,-36.9072,45.123400000000004,175,75
2026-05-09 15:01:00.890,4,-0.13,1.34,2.03,23.819799999999997,-6.537200000000006,62.0734,175,75
2026-05-09 15:01:00.904,4,-0.1,1.36,2.08,33.3898,16.33279999999999,81.7734,175,75
2026-05-09 15:01:00.915,4,-0.16,1.27,2.31,46.6198,30.352800000000002,103.90339999999999,175,75
2026-05-09 15:01:00.927,4,-0.18,1.27,2.41,45.7098,18.83279999999999,111.2834,175,75
2026-05-09 15:01:00.956,4,-0.2,1.35,2.37,44.2398,-1.7772000000000077,121.2834,175,75
2026-05-09 15:01:00.958,4,-0.19,1.35,2.33,44.669799999999995,-8.117200000000004,130.7334,175,75
2026-05-09 15:01:00.977,4,-0.18,1.33,2.3,44.2998,-17.267200000000003,146.70340000000002,175,75
2026-05-09 15:01:00.991,4,-0.11,1.3,2.28,40.8298,-24.647200000000005,151.2834,175,75
2026-05-09 15:01:01.008,4,-0.03,1.32,2.22,36.559799999999996,-36.77720000000001,154.3334,175,75
2026-05-09 15:01:01.057,4,0.14,1.18,2.02,29.8498,-60.5572,176.4634,175,75
2026-05-09 15:01:01.078,4,0.19,1.14,1.94,29.0598,-68.4872,179.20340000000002,175,75
2026-05-09 15:01:01.100,4,0.24,1.08,1.76,28.389799999999997,-81.47720000000001,193.8434,175,75
2026-05-09 15:01:01.111,4,0.22,1.0,1.71,28.4498,-87.3272,197.4434,175,75
2026-05-09 15:01:01.132,4,0.29,0.82,1.6,29.1798,-61.717200000000005,212.4434,175,75
2026-05-09 15:01:01.144,4,0.3,0.75,1.53,36.129799999999996,-48.857200000000006,217.1934,175,75
2026-05-09 15:01:01.155,4,0.3,0.65,1.46,42.4098,-29.587200000000003,221.4634,175,75
2026-05-09 15:01:01.157,4,0.33,0.53,1.4,43.2098,-5.0172000000000025,228.9034,175,75
2026-05-09 15:01:01.177,4,0.39,0.42,1.37,44.3698,17.612799999999993,234.2734,175,75
2026-05-09 15:01:01.216,4,0.32,0.18,1.41,44.2998,55.782799999999995,231.5234,175,75
2026-05-09 15:01:01.227,4,0.23,0.15,1.39,47.1098,53.892799999999994,227.4434,175,75
2026-05-09 15:01:01.239,4,0.23,0.05,1.35,51.0698,59.80279999999999,219.6334,175,75
2026-05-09 15:01:01.239,4,0.29,-0.02,1.3,51.6798,66.88279999999999,219.8834,175,75
2026-05-09 15:01:01.250,4,0.32,-0.09,1.26,54.669799999999995,72.36280000000001,218.7234,175,75
2026-05-09 15:01:01.265,4,0.38,-0.2,1.3,57.6598,79.8028,218.1134,175,75
2026-05-09 15:01:01.275,4,0.32,-0.28,1.45,59.2398,84.07279999999999,215.3034,175,75
2026-05-09 15:01:01.302,4,0.21,-0.33,1.77,54.059799999999996,-18.3072,164.45340000000002,175,75
2026-05-09 15:01:01.317,4,0.01,-0.23,1.75,26.869799999999998,-218.11720000000003,107.5034,175,75
2026-05-09 15:01:01.348,4,-0.16,-0.03,1.76,-3.0102000000000046,-361.53720000000004,75.6734,175,75
2026-05-09 15:01:01.348,4,-0.16,-0.02,1.72,-11.670200000000001,-411.7772,57.8034,175,75
2026-05-09 15:01:01.362,4,-0.06,-0.06,1.58,-16.7902,-450.3172,44.2134,175,75
2026-05-09 15:01:01.372,4,-0.02,-0.1,1.4,-20.2102,-478.91720000000004,36.0334,175,75
2026-05-09 15:01:01.393,4,-0.01,-0.06,1.22,-25.510200000000005,-485.98720000000003,40.2434,175,75
2026-05-09 15:01:01.397,4,-0.04,0.02,1.08,-26.4902,-446.7172,59.2734,175,75
2026-05-09 15:01:01.414,4,0.02,0.05,1.02,-23.010200000000005,-380.8072,76.6434,175,75
2026-05-09 15:01:01.424,4,0.25,0.02,1.02,-20.510200000000005,-304.0372,95.6734,175,75
2026-05-09 15:01:01.434,4,0.44,-0.05,1.08,-16.7902,-260.8072,112.4434,175,75
2026-05-09 15:01:01.446,4,0.41,-0.14,1.17,-13.0702,-254.7672,116.5834,175,75
2026-05-09 15:01:01.456,4,0.31,-0.2,1.22,-16.9202,-254.5872,113.3534,175,75
2026-05-09 15:01:01.466,4,0.25,-0.2,1.16,-21.730200000000004,-244.9472,100.5534,175,75
2026-05-09 15:01:01.481,4,0.39,-0.13,1.08,-23.9902,-222.0272,96.2834,175,75
2026-05-09 15:01:01.495,4,0.6,-0.06,0.98,-22.650199999999998,-191.9672,101.8934,175,75
2026-05-09 15:01:01.533,4,0.47,-0.12,0.94,-24.050200000000004,-113.4872,96.70339999999999,175,75
2026-05-09 15:01:01.557,4,0.53,-0.13,0.97,-22.770200000000003,-92.2072,90.2434,175,75
2026-05-09 15:01:01.567,4,0.56,-0.17,0.94,-22.950200000000002,-79.52720000000001,82.07339999999999,175,75
2026-05-09 15:01:01.581,4,0.6,-0.14,0.9,-24.5402,-74.1572,77.62339999999999,175,75
2026-05-09 15:01:01.614,4,0.44,-0.05,0.85,-21.4302,-51.8372,77.07339999999999,175,75
2026-05-09 15:01:01.614,4,0.42,-0.04,0.89,-22.2802,-40.077200000000005,77.07339999999999,175,75
2026-05-09 15:01:01.627,4,0.43,-0.04,0.95,-23.9902,-33.4272,73.9634,175,75
2026-05-09 15:01:01.643,4,0.45,-0.06,0.97,-25.700200000000002,-46.5972,64.2734,175,75
2026-05-09 15:01:01.656,4,0.47,-0.08,0.91,-24.840200000000003,-68.2472,54.083400000000005,175,75
2026-05-09 15:01:01.667,4,0.43,-0.06,0.83,-27.4602,-78.1872,49.8134,175,75
2026-05-09 15:01:01.697,4,0.34,-0.02,0.72,-32.53020000000001,-55.687200000000004,43.233399999999996,175,75
2026-05-09 15:01:01.707,4,0.37,-0.03,0.74,-30.090200000000003,-54.88720000000001,41.6434,175,75
2026-05-09 15:01:01.707,4,0.39,-0.04,0.75,-31.7902,-62.6972,39.8134,175,75
2026-05-09 15:01:01.749,4,0.3,-0.09,0.87,-39.2902,-113.5472,29.333399999999997,175,75
2026-05-09 15:01:01.765,4,0.28,-0.26,0.5,-67.3402,-164.0972,-8.1666,175,75
2026-05-09 15:01:01.792,4,0.11,-0.16,0.38,-61.7902,12.7928,25.0634,175,75
2026-05-09 15:01:01.807,4,0.55,-0.1,0.7,-61.1202,43.16279999999999,48.7834,175,75
2026-05-09 15:01:01.807,4,0.56,-0.16,0.91,-57.4602,24.922799999999995,40.4934,175,75
2026-05-09 15:01:01.833,4,0.39,-0.35,1.13,-61.4902,5.472799999999992,18.1734,175,75
2026-05-09 15:01:01.852,4,0.34,-0.3,1.14,-74.6002,-51.537200000000006,-6.7066,175,75
2026-05-09 15:01:01.864,4,0.25,-0.17,0.96,-86.1802,-56.537200000000006,-13.286600000000002,175,75
2026-05-09 15:01:01.880,4,0.19,0.05,0.84,-84.2302,-34.827200000000005,3.353399999999999,175,75
2026-05-09 15:01:01.897,4,0.23,-0.1,0.89,-83.3802,-55.49720000000001,-4.506600000000001,175,75
2026-05-09 15:01:01.908,4,0.22,-0.16,0.86,-96.79020000000001,-108.4272,-15.486600000000001,175,75
2026-05-09 15:01:01.924,4,0.06,-0.03,0.7,-103.8102,-138.9172,-16.946600000000004,175,75
2026-05-09 15:01:01.933,4,-0.13,0.09,0.51,-106.98020000000001,-152.6972,-8.7766,175,75
2026-05-09 15:01:01.949,4,-0.36,0.18,0.28,-113.01020000000001,-174.2172,-1.156600000000001,175,75
2026-05-09 15:01:01.968,4,-0.5,0.02,0.09,-127.4602,-89.0972,10.9734,175,75
2026-05-09 15:01:02.009,4,-0.07,0.11,0.21,-162.40019999999998,27.732799999999997,21.223399999999998,175,75
2026-05-09 15:01:02.034,4,0.06,0.04,0.51,-165.4502,59.312799999999996,24.2734,175,75
2026-05-09 15:01:02.036,4,0.17,0.01,0.69,-176.73020000000002,29.862799999999993,15.0634,175,75
2026-05-09 15:01:02.051,4,0.13,0.07,0.75,-182.7102,-37.757200000000005,3.6033999999999997,175,75
2026-05-09 15:01:02.077,4,-0.03,0.19,0.68,-176.0602,-93.1172,1.9534000000000002,175,75
2026-05-09 15:01:02.104,4,-0.12,0.21,0.24,-177.28019999999998,-101.0472,12.863399999999999,175,75
2026-05-09 15:01:02.146,4,-0.31,0.29,0.44,-173.74020000000002,-53.0572,22.3834,175,75
2026-05-09 15:01:02.157,4,-0.38,0.39,0.5,-166.85020000000003,-68.1872,24.7534,175,75
2026-05-09 15:01:02.169,4,-0.41,0.47,0.52,-162.22019999999998,-69.4072,31.343400000000003,175,75
2026-05-09 15:01:02.177,4,-0.39,0.53,0.53,-159.35020000000003,-72.5172,39.9434,175,75
2026-05-09 15:01:02.196,4,-0.31,0.55,0.55,-155.7602,-80.25720000000001,41.5834,175,75
2026-05-09 15:01:02.206,4,0.25,0.51,0.9,-130.09019999999998,-82.5772,16.8934,175,75
2026-05-09 15:01:02.218,4,0.38,0.66,1.15,-115.88019999999999,-116.9672,33.053399999999996,175,75
2026-05-09 15:01:02.229,4,0.55,0.75,1.55,-80.3302,-207.1472,8.4134,175,75
2026-05-09 15:01:02.238,4,-0.68,0.51,0.69,-138.2002,-454.3372,-11.8866,175,75
2026-05-09 15:01:02.252,4,-1.17,0.49,0.03,-156.98020000000002,-355.6172,0.6733999999999991,175,75
2026-05-09 15:01:02.262,4,-1.0,0.46,-0.33,-151.49020000000002,-210.74720000000002,-12.2566,175,75
2026-05-09 15:01:02.276,4,-0.61,0.84,-0.15,-113.8102,-92.2672,14.203399999999998,175,75
2026-05-09 15:01:02.293,4,-0.9,1.0,0.15,-69.17020000000001,-23.547200000000004,40.0034,175,75
2026-05-09 15:01:02.305,4,-1.15,0.92,0.08,-64.1102,33.642799999999994,49.2734,175,75
2026-05-09 15:01:02.306,4,-1.01,0.87,-0.27,-71.1802,128.2828,42.3834,175,75
2026-05-09 15:01:02.331,4,-0.87,0.96,0.05,-65.4502,275.4728,92.4434,175,75
2026-05-09 15:01:02.353,4,-0.74,0.87,0.76,-35.5102,319.1928,89.81339999999999,175,75
2026-05-09 15:01:02.353,4,0.05,0.69,0.96,-40.700199999999995,231.02279999999996,62.8634,175,75
2026-05-09 15:01:02.365,4,0.72,0.69,1.1,-73.8102,96.94279999999999,4.753399999999999,175,75
2026-05-09 15:01:02.389,4,0.13,0.79,0.66,-86.5502,18.282799999999995,3.2934,175,75
2026-05-09 15:01:02.389,4,-0.14,0.78,0.42,-73.9302,-14.827200000000005,-24.026600000000002,175,75
2026-05-09 15:01:02.398,4,-0.35,0.94,0.41,-63.0102,17.002799999999993,-13.836599999999999,175,75
2026-05-09 15:01:02.411,4,-0.68,1.13,0.31,-54.050200000000004,71.51279999999998,0.5533999999999999,175,75
2026-05-09 15:01:02.432,4,-0.56,1.24,0.19,-11.670200000000001,201.27279999999996,40.9134,175,75
2026-05-09 15:01:02.453,4,-0.23,0.9,0.33,23.819799999999997,298.1628,65.3634,175,75
2026-05-09 15:01:02.511,4,-0.2,0.8,0.49,28.3298,323.09279999999995,63.7234,175,75
2026-05-09 15:01:02.511,4,-0.2,0.84,0.56,30.6498,337.3028,64.7534,175,75
2026-05-09 15:01:02.521,4,-0.18,1.0,0.57,37.9598,353.89279999999997,70.18339999999999,175,75
2026-05-09 15:01:02.532,4,0.01,1.02,0.55,46.9898,389.6828,77.2534,175,75
2026-05-09 15:01:02.543,4,0.34,0.99,0.51,48.8798,397.9728,73.90339999999999,175,75
2026-05-09 15:01:02.554,4,0.34,1.01,0.51,42.8998,393.34279999999995,79.81339999999999,175,75
2026-05-09 15:01:02.554,4,0.24,1.03,0.64,49.2398,386.33279999999996,82.8034,175,75
2026-05-09 15:01:02.564,4,0.43,0.96,1.0,64.7898,343.83279999999996,73.8434,175,75
2026-05-09 15:01:02.574,4,0.38,0.9,0.93,54.8498,317.8528,64.8834,175,75
2026-05-09 15:01:02.606,4,0.27,0.82,0.5,42.4698,369.8628,71.40339999999999,175,75
2026-05-09 15:01:02.616,4,0.32,0.86,0.39,21.0698,437.6128,101.2234,175,75
2026-05-09 15:01:02.618,4,0.35,0.89,0.43,7.2898,492.36279999999994,128.8434,175,75
2026-05-09 15:01:02.643,4,0.41,0.88,0.57,2.779799999999998,545.4728,163.5334,175,75
2026-05-09 15:01:02.643,4,0.46,0.79,0.78,3.3897999999999975,546.6328000000001,180.3634,175,75
2026-05-09 15:01:02.681,4,0.86,0.38,1.61,-74.6602,270.7828,104.57339999999999,175,75
2026-05-09 15:01:02.704,4,0.67,0.47,1.65,-91.3702,156.39280000000002,69.1434,175,75
2026-05-09 15:01:02.704,4,0.59,0.52,1.46,-92.4002,136.02280000000002,47.0734,175,75
2026-05-09 15:01:02.755,4,0.5,0.6,1.25,-73.0702,137.3628,55.5534,175,75
2026-05-09 15:01:02.765,4,0.54,0.51,1.22,-71.4902,112.0628,46.6434,175,75
2026-05-09 15:01:02.794,4,0.66,0.55,1.33,-82.89020000000001,101.45279999999998,15.7334,175,75
2026-05-09 15:01:02.806,4,0.79,0.61,1.41,-72.1002,97.85279999999999,14.6334,175,75
2026-05-09 15:01:02.817,4,0.67,0.63,1.6,-48.0702,111.8128,20.973399999999998,175,75
2026-05-09 15:01:02.845,4,0.46,0.45,1.85,-11.790199999999999,97.36280000000001,-2.1366000000000014,175,75
2026-05-09 15:01:02.862,4,0.57,0.51,1.79,-9.230200000000004,89.6228,-28.416599999999995,175,75
2026-05-09 15:01:02.875,4,0.53,0.59,1.79,2.409799999999997,103.7728,-26.7066,175,75
2026-05-09 15:01:02.886,4,0.56,0.64,1.84,14.979799999999997,128.2828,-16.336599999999997,175,75
2026-05-09 15:01:02.898,4,0.43,0.62,1.94,31.6798,142.5528,-6.036600000000002,175,75
2026-05-09 15:01:02.913,4,0.51,0.5,2.07,49.9098,124.01279999999998,-14.2066,175,75
2026-05-09 15:01:02.923,4,0.54,0.49,2.1,44.9698,76.88279999999999,-25.916599999999995,175,75
2026-05-09 15:01:02.935,4,0.47,0.59,1.79,21.129799999999996,-37.02720000000001,-62.686600000000006,175,75
2026-05-09 15:01:02.951,4,0.42,0.62,1.52,11.869799999999998,-42.327200000000005,-73.2266,175,75
2026-05-09 15:01:02.983,4,0.39,0.6,1.81,29.9698,80.9028,-16.8866,175,75
2026-05-09 15:01:03.000,4,0.49,0.53,1.9,24.1798,45.9028,-27.0066,175,75
2026-05-09 15:01:03.028,4,0.31,0.55,1.71,21.2598,-36.9072,-54.8166,175,75
2026-05-09 15:01:03.051,4,0.49,0.7,1.58,5.579799999999999,-21.4172,-51.0366,175,75
2026-05-09 15:01:03.058,4,0.42,0.74,1.72,21.7398,34.25279999999999,-29.876599999999996,175,75
2026-05-09 15:01:03.093,4,0.39,0.61,2.02,46.559799999999996,73.2828,-18.836599999999997,175,75
2026-05-09 15:01:03.097,4,0.45,0.58,2.04,42.2898,16.5728,-36.3366,175,75
2026-05-09 15:01:03.118,4,0.44,0.63,1.92,32.7198,-47.327200000000005,-56.276599999999995,175,75
2026-05-09 15:01:03.149,4,0.42,0.77,1.66,34.9098,21.812799999999996,-34.876599999999996,175,75
2026-05-09 15:01:03.162,4,0.5,0.76,1.87,42.2298,34.19279999999999,-26.8866,175,75
2026-05-09 15:01:03.189,4,0.52,0.69,1.91,39.669799999999995,-4.037200000000006,-40.1866,175,75
2026-05-09 15:01:03.190,4,0.52,0.68,1.87,37.2898,-13.797200000000004,-45.9766,175,75
2026-05-09 15:01:03.203,4,0.51,0.72,1.82,34.489799999999995,-8.427200000000006,-47.0066,175,75
2026-05-09 15:01:03.217,4,0.52,0.76,1.83,34.8498,1.5727999999999938,-43.8966,175,75
2026-05-09 15:01:03.243,4,0.58,0.75,1.85,35.6498,5.41279999999999,-50.486599999999996,175,75
2026-05-09 15:01:03.280,4,0.51,0.79,1.85,37.5398,-0.9872000000000014,-54.57659999999999,175,75
2026-05-09 15:01:03.280,4,0.5,0.81,1.82,37.5998,1.882799999999996,-57.746599999999994,175,75
2026-05-09 15:01:03.321,4,0.43,0.9,1.77,33.449799999999996,6.692799999999991,-58.2266,175,75
2026-05-09 15:01:03.339,4,0.43,0.91,1.79,33.5098,1.8127999999999957,-57.136599999999994,175,75
2026-05-09 15:01:03.358,4,0.36,0.89,1.8,36.4998,-12.697200000000002,-56.21659999999999,175,75
2026-05-09 15:01:03.390,4,0.35,0.93,1.72,33.3298,-28.607200000000006,-58.416599999999995,175,75
2026-05-09 15:01:03.421,4,0.27,1.01,1.61,33.8198,-4.587200000000003,-38.2266,175,75
2026-05-09 15:01:03.432,4,0.29,0.99,1.68,39.669799999999995,10.232799999999997,-26.4666,175,75
2026-05-09 15:01:03.475,4,0.42,0.94,1.87,37.5998,-68.30720000000001,-32.556599999999996,175,75
2026-05-09 15:01:03.478,4,0.37,0.98,1.82,34.9098,-98.2472,-34.5066,175,75
2026-05-09 15:01:03.493,4,0.37,0.99,1.81,35.7098,-113.3072,-32.556599999999996,175,75
2026-05-09 15:01:03.503,4,0.35,1.0,1.81,35.949799999999996,-134.8872,-29.026600000000002,175,75
2026-05-09 15:01:03.533,4,0.47,1.0,1.81,25.8298,-258.9772,-52.1366,175,75
2026-05-09 15:01:03.560,4,0.54,1.17,1.46,29.6698,-222.2072,-53.2266,175,75
2026-05-09 15:01:03.588,4,0.79,1.02,1.22,33.3898,-170.43720000000002,-45.5466,175,75
2026-05-09 15:01:03.599,4,0.79,1.03,1.21,21.0698,-164.3372,-37.6866,175,75
2026-05-09 15:01:03.611,4,0.86,1.11,1.32,20.519799999999996,-144.7672,-46.7666,175,75
2026-05-09 15:01:03.623,4,0.98,1.2,1.48,11.9298,-162.6372,-42.4966,175,75
2026-05-09 15:01:03.639,4,0.76,1.22,1.51,16.9898,-177.3272,-44.5066,175,75
2026-05-09 15:01:03.648,4,0.82,1.04,1.46,17.3498,-195.68720000000002,-61.7066,175,75
2026-05-09 15:01:03.665,4,0.81,1.04,1.33,3.2097999999999978,-209.2772,-70.6066,175,75
2026-05-09 15:01:03.702,4,0.6,1.17,0.89,-6.120200000000004,-164.6472,-73.4766,175,75
2026-05-09 15:01:03.717,4,0.69,1.28,0.85,-7.280200000000001,-2.637200000000007,-16.586599999999997,175,75
2026-05-09 15:01:03.732,4,0.73,1.27,0.97,-4.4802000000000035,29.562799999999996,2.8633999999999986,175,75
2026-05-09 15:01:03.742,4,0.7,1.2,1.11,0.15979999999999706,59.562799999999996,20.3634,175,75
2026-05-09 15:01:03.758,4,0.74,1.1,1.22,-1.9202000000000012,78.5828,30.0034,175,75
2026-05-09 15:01:03.771,4,0.81,1.04,1.26,-9.050200000000004,90.11280000000001,35.1834,175,75
2026-05-09 15:01:03.835,4,0.45,1.15,1.49,13.999799999999997,170.5328,98.23339999999999,175,75
2026-05-09 15:01:03.850,4,0.49,1.13,1.54,14.299799999999998,159.44279999999998,105.12339999999999,175,75
2026-05-09 15:01:03.850,4,0.5,1.13,1.6,8.0198,127.0028,110.3634,175,75
2026-05-09 15:01:03.860,4,0.38,1.18,1.63,13.509799999999998,82.0028,116.5234,175,75
2026-05-09 15:01:03.874,4,0.28,1.16,1.56,22.5998,55.05279999999999,119.6934,175,75
2026-05-09 15:01:03.887,4,0.16,1.1,1.41,21.9898,50.3528,119.0834,175,75
2026-05-09 15:01:03.899,4,0.2,1.0,1.25,18.879799999999996,67.79279999999999,120.2434,175,75
2026-05-09 15:01:03.922,4,0.47,0.92,1.11,33.879799999999996,132.6728,138.9034,175,75
2026-05-09 15:01:03.933,4,0.64,0.85,1.28,45.4598,153.0928,141.4634,175,75
2026-05-09 15:01:03.949,4,0.72,0.8,1.49,50.949799999999996,150.8428,129.3934,175,75
2026-05-09 15:01:03.962,4,0.84,0.78,1.67,55.889799999999994,124.38279999999999,112.31339999999999,175,75
2026-05-09 15:01:03.966,4,0.86,0.78,1.84,66.6798,56.392799999999994,84.57339999999999,175,75
2026-05-09 15:01:03.976,4,0.66,0.78,1.83,77.65979999999999,-9.767200000000003,49.6334,175,75
2026-05-09 15:01:04.003,4,0.74,0.75,1.52,89.3698,-87.02720000000001,-14.5066,175,75
2026-05-09 15:01:04.037,4,0.62,0.87,1.0,106.3798,-115.4372,-59.636599999999994,175,75
2026-05-09 15:01:04.086,4,0.59,0.93,0.97,97.4098,-48.9772,-70.1166,175,75
2026-05-09 15:01:04.100,4,0.44,0.92,0.99,85.7698,-45.437200000000004,-76.70660000000001,175,75
2026-05-09 15:01:04.114,4,0.38,0.94,1.0,78.8198,-45.5572,-83.7166,175,75
2026-05-09 15:01:04.117,4,0.37,0.99,1.0,72.4798,-42.38720000000001,-84.7566,175,75
2026-05-09 15:01:04.169,4,0.02,1.07,0.94,62.6598,-3.7972000000000037,-21.156599999999997,175,75
2026-05-09 15:01:04.180,4,0.02,1.06,0.97,55.0398,1.0227999999999966,-5.856600000000002,175,75
2026-05-09 15:01:04.191,4,0.05,1.07,1.0,43.629799999999996,-2.147200000000005,17.0734,175,75
2026-05-09 15:01:04.220,4,-0.03,1.03,1.07,25.2198,-25.257200000000005,87.07339999999999,175,75
2026-05-09 15:01:04.238,4,0.06,0.93,1.11,18.5698,8.642799999999994,114.81339999999999,175,75
2026-05-09 15:01:04.260,4,0.19,0.84,1.24,17.1098,45.172799999999995,152.07340000000002,175,75
2026-05-09 15:01:04.260,4,0.27,0.75,1.35,20.159799999999997,57.7328,171.1634,175,75
2026-05-09 15:01:04.284,4,0.36,0.6,1.53,9.7898,45.2928,195.5534,175,75
2026-05-09 15:01:04.294,4,0.43,0.54,1.54,-2.7102000000000004,48.22279999999999,197.6834,175,75
2026-05-09 15:01:04.322,4,1.04,0.55,1.34,-33.8702,16.5728,195.0034,175,75
2026-05-09 15:01:04.322,4,1.04,0.66,1.36,-36.92020000000001,-37.44720000000001,199.2734,175,75
2026-05-09 15:01:04.331,4,0.68,0.88,1.47,-40.940200000000004,-69.52720000000001,210.2434,175,75
2026-05-09 15:01:04.355,4,0.58,0.96,1.46,-52.950199999999995,-53.797200000000004,213.29340000000002,175,75
2026-05-09 15:01:04.355,4,8.25,0.17,2.6,14.909799999999997,335.90279999999996,-132.4366,175,75
2026-05-09 15:01:04.387,4,-0.04,1.87,1.55,-53.9302,-304.8272,-49.7566,175,75
2026-05-09 15:01:04.389,4,-1.06,1.51,1.32,68.38980000000001,-6.597200000000001,42.7434,175,75
2026-05-09 15:01:04.402,4,-0.24,0.9,1.59,77.8998,234.9228,78.23339999999999,175,75
2026-05-09 15:01:04.429,4,0.42,0.61,1.6,-132.65019999999998,-174.1572,-3.5966000000000005,175,75
2026-05-09 15:01:04.453,4,0.17,0.82,0.44,-127.2802,14.922799999999995,28.6034,175,75
2026-05-09 15:01:04.464,4,0.97,1.01,0.47,-110.3302,178.64280000000002,96.70339999999999,175,75
2026-05-09 15:01:04.476,4,0.9,1.01,1.09,-83.0702,268.52279999999996,170.73340000000002,175,75
2026-05-09 15:01:04.487,4,0.65,0.69,1.76,-42.4602,300.2928,189.0834,175,75
2026-05-09 15:01:04.498,4,0.67,0.32,2.24,-42.0402,252.8528,152.07340000000002,175,75
2026-05-09 15:01:04.543,4,0.67,0.85,1.62,-145.4502,-81.0472,46.7134,175,75
2026-05-09 15:01:04.559,4,0.71,0.94,1.34,-140.03019999999998,-61.2272,54.8134,175,75
2026-05-09 15:01:04.584,4,0.47,0.83,0.77,-132.10020000000003,60.11279999999999,105.3634,175,75
2026-05-09 15:01:04.605,4,0.45,0.8,0.9,-145.4502,170.1128,123.1734,175,75
2026-05-09 15:01:04.611,4,0.51,0.8,1.06,-144.23020000000002,181.94279999999998,124.51339999999999,175,75
2026-05-09 15:01:04.650,4,0.49,0.73,1.4,-128.99020000000002,82.91279999999999,95.18339999999999,175,75
2026-05-09 15:01:04.694,4,0.29,0.37,0.97,-94.42020000000001,11.882799999999989,69.0234,175,75
2026-05-09 15:01:04.743,4,0.17,-0.16,0.74,-68.5002,-16.4172,67.8034,175,75
2026-05-09 15:01:04.753,4,0.24,0.05,0.95,-67.5902,22.972799999999992,71.2234,175,75
2026-05-09 15:01:04.764,4,0.39,0.31,1.11,-70.4502,37.91279999999999,66.5834,175,75
2026-05-09 15:01:04.775,4,0.52,0.52,1.21,-68.6202,27.732799999999997,57.1334,175,75
2026-05-09 15:01:04.787,4,0.6,0.55,1.08,-61.4302,15.232799999999997,43.1734,175,75
2026-05-09 15:01:04.810,4,0.68,0.4,0.86,-56.980199999999996,19.742800000000003,30.913400000000003,175,75
2026-05-09 15:01:04.821,4,0.67,0.27,0.73,-54.5402,35.2928,28.3534,175,75
2026-05-09 15:01:04.821,4,0.59,0.2,0.71,-52.7102,57.8528,27.3834,175,75
2026-05-09 15:01:04.835,4,0.56,0.24,0.8,-55.39020000000001,70.9028,24.453400000000002,175,75
2026-05-09 15:01:04.835,4,0.53,0.31,0.83,-58.810199999999995,76.14280000000001,16.6434,175,75
2026-05-09 15:01:04.860,4,0.44,0.48,0.67,-66.2402,74.3128,2.3834,175,75
2026-05-09 15:01:04.890,4,0.21,0.41,0.64,-61.92020000000001,124.9928,22.7434,175,75
2026-05-09 15:01:04.901,4,0.2,0.3,0.76,-63.6802,145.96280000000002,23.1134,175,75
2026-05-09 15:01:04.910,4,0.29,0.26,0.88,-65.5102,140.4128,19.333399999999997,175,75
2026-05-09 15:01:04.934,4,0.43,0.25,0.93,-64.6002,102.91279999999999,6.2234,175,75
2026-05-09 15:01:04.934,4,0.46,0.26,0.89,-61.3702,66.1428,-1.6466000000000012,175,75
2026-05-09 15:01:04.963,4,0.26,0.32,0.77,-75.7002,20.592799999999997,-8.356600000000002,175,75
2026-05-09 15:01:04.997,4,0.27,0.23,0.5,-97.2802,30.172799999999995,-7.926600000000002,175,75
2026-05-09 15:01:05.048,4,0.1,0.12,0.58,-102.5902,99.92280000000001,43.8434,175,75
2026-05-09 15:01:05.048,4,0.05,0.05,0.68,-105.76020000000001,98.0328,48.1734,175,75
2026-05-09 15:01:05.061,4,0.03,-0.05,0.69,-111.3702,97.0028,43.233399999999996,175,75
2026-05-09 15:01:05.075,4,0.04,-0.13,0.56,-127.95020000000001,96.14280000000001,32.5034,175,75
2026-05-09 15:01:05.099,4,0.14,-0.06,0.55,-133.4402,159.07279999999997,45.7934,175,75
2026-05-09 15:01:05.134,4,0.11,-0.13,0.89,-123.01020000000001,202.5528,53.4134,175,75
2026-05-09 15:01:05.175,4,0.04,-0.1,1.14,-115.2102,165.7828,41.5834,175,75
2026-05-09 15:01:05.188,4,0.01,-0.08,1.06,-112.16019999999999,158.2228,40.3634,175,75
2026-05-09 15:01:05.209,4,0.01,-0.03,0.95,-103.32020000000001,177.5528,46.2234,175,75
2026-05-09 15:01:05.227,4,0.06,-0.02,0.93,-98.5602,216.69279999999998,57.8634,175,75
2026-05-09 15:01:05.252,4,0.06,-0.03,1.07,-86.5502,288.64279999999997,89.6334,175,75
2026-05-09 15:01:05.288,4,0.19,-0.25,1.31,-63.1302,249.31279999999998,63.4134,175,75
2026-05-09 15:01:05.299,4,0.33,-0.28,1.25,-59.17020000000001,226.02279999999996,45.1834,175,75
2026-05-09 15:01:05.299,4,0.46,-0.3,1.2,-54.5402,205.96279999999996,37.0734,175,75
2026-05-09 15:01:05.322,4,0.49,-0.32,1.14,-47.950199999999995,180.2328,32.5634,175,75
2026-05-09 15:01:05.332,4,0.45,-0.38,1.06,-41.92020000000001,163.3428,22.9234,175,75
2026-05-09 15:01:05.382,4,0.28,-0.74,1.04,-57.340199999999996,312.0028,30.973399999999998,175,75
2026-05-09 15:01:05.395,4,0.44,-1.01,1.25,-53.3202,358.83279999999996,29.8834,175,75
2026-05-09 15:01:05.418,4,0.46,-1.19,1.71,-42.1002,235.3528,-30.726599999999998,175,75
2026-05-09 15:01:05.430,4,0.29,-1.06,1.76,-25.5702,162.9728,-77.8066,175,75
2026-05-09 15:01:05.438,4,0.23,-0.95,1.78,-21.120200000000004,130.96280000000002,-100.3066,175,75
2026-05-09 15:01:05.454,4,0.2,-0.81,1.73,-23.440200000000004,107.79279999999999,-114.6966,175,75
2026-05-09 15:01:05.465,4,0.09,-0.53,1.64,-28.010200000000005,68.4028,-136.64659999999998,175,75
2026-05-09 15:01:05.492,4,-0.0,-0.29,1.55,-32.6502,55.47279999999999,-148.8366,175,75
2026-05-09 15:01:05.515,4,0.04,-0.2,1.45,-32.2202,69.92280000000001,-136.9466,175,75
2026-05-09 15:01:05.515,4,0.04,-0.19,1.45,-28.5002,77.1828,-130.0566,175,75
2026-05-09 15:01:05.558,4,0.04,-0.17,1.47,-10.760200000000005,70.72279999999999,-110.2466,175,75
2026-05-09 15:01:05.591,4,0.15,-0.13,1.4,4.6098,93.5828,-91.9466,175,75
2026-05-09 15:01:05.672,4,0.03,-0.11,1.45,41.6198,29.862799999999993,-77.4966,175,75
2026-05-09 15:01:05.683,4,0.0,-0.06,1.41,44.669799999999995,23.4628,-71.9466,175,75
2026-05-09 15:01:05.706,4,-0.0,0.02,1.42,44.4898,32.8528,-52.556599999999996,175,75
2026-05-09 15:01:05.706,4,0.01,0.02,1.45,45.0398,34.13279999999999,-43.8966,175,75
2026-05-09 15:01:05.730,4,0.0,0.01,1.5,46.0698,33.58279999999999,-35.4266,175,75
2026-05-09 15:01:05.742,4,0.04,0.01,1.56,43.8198,35.9628,-27.986599999999996,175,75
2026-05-09 15:01:05.759,4,0.11,0.03,1.61,37.4698,21.202799999999996,-16.7066,175,75
2026-05-09 15:01:05.792,4,0.09,0.05,1.57,33.449799999999996,28.4628,1.8933999999999997,175,75
2026-05-09 15:01:05.805,4,0.13,0.04,1.63,31.9898,43.892799999999994,25.4934,175,75
2026-05-09 15:01:05.818,4,0.1,0.03,1.68,31.619799999999998,42.55279999999999,32.1934,175,75
2026-05-09 15:01:05.851,4,0.07,0.03,1.76,22.959799999999998,42.30279999999999,47.7434,175,75
2026-05-09 15:01:05.863,4,0.1,0.02,1.76,19.909799999999997,41.202799999999996,56.5234,175,75
2026-05-09 15:01:05.880,4,0.06,0.0,1.74,15.2198,37.7928,68.3534,175,75
2026-05-09 15:01:05.894,4,0.06,0.04,1.76,11.799799999999998,38.52279999999999,76.40339999999999,175,75
2026-05-09 15:01:05.894,4,0.06,0.08,1.75,10.709799999999998,36.69279999999999,83.7234,175,75
2026-05-09 15:01:05.915,4,0.05,0.09,1.75,11.1298,34.86279999999999,89.2734,175,75
2026-05-09 15:01:05.936,4,0.07,0.08,1.77,10.099799999999998,34.80279999999999,104.20339999999999,175,75
2026-05-09 15:01:05.946,4,0.07,0.09,1.78,10.5198,25.722799999999992,106.95339999999999,175,75
2026-05-09 15:01:05.961,4,0.05,0.1,1.77,12.169799999999999,13.702799999999996,108.6034,175,75
2026-05-09 15:01:05.976,4,0.02,0.12,1.75,13.209799999999998,1.2727999999999966,110.3034,175,75
2026-05-09 15:01:05.980,4,-0.0,0.15,1.74,14.849799999999998,-12.877200000000002,111.7734,175,75
2026-05-09 15:01:05.987,4,-0.01,0.18,1.71,16.4998,-24.527200000000008,113.6634,175,75
2026-05-09 15:01:05.998,4,-0.04,0.23,1.65,20.769799999999996,-39.7672,117.5034,175,75
2026-05-09 15:01:06.025,4,-0.09,0.23,1.53,28.8798,-53.187200000000004,127.62339999999999,175,75
2026-05-09 15:01:06.036,4,-0.1,0.23,1.48,31.2598,-52.81720000000001,133.3534,175,75
2026-05-09 15:01:06.049,4,-0.11,0.23,1.45,33.1498,-53.427200000000006,137.8034,175,75
2026-05-09 15:01:06.049,4,-0.14,0.25,1.46,35.8898,-56.41720000000001,143.23340000000002,175,75
2026-05-09 15:01:06.072,4,-0.19,0.27,1.53,43.9398,-73.8572,149.7534,175,75
2026-05-09 15:01:06.092,4,-0.18,0.25,1.53,43.5698,-90.19720000000001,147.5634,175,75
2026-05-09 15:01:06.104,4,-0.18,0.2,1.46,45.7698,-112.5172,143.35340000000002,175,75
2026-05-09 15:01:06.115,4,-0.21,0.15,1.37,50.1598,-129.5872,140.67340000000002,175,75
2026-05-09 15:01:06.115,4,-0.28,0.16,1.32,53.9398,-136.9672,138.9034,175,75
2026-05-09 15:01:06.127,4,-0.31,0.21,1.27,56.1298,-138.8572,137.8034,175,75
2026-05-09 15:01:06.144,4,-0.32,0.24,1.27,56.7398,-137.6372,138.3534,175,75
2026-05-09 15:01:06.150,4,-0.31,0.23,1.24,59.8498,-140.1372,141.5834,175,75
2026-05-09 15:01:06.167,4,-0.31,0.18,1.23,64.0598,-144.7672,143.1134,175,75
2026-05-09 15:01:06.178,4,-0.32,0.14,1.2,66.0098,-148.5472,143.5334,175,75
2026-05-09 15:01:06.192,4,-0.33,0.11,1.18,65.0998,-152.3872,142.8634,175,75
2026-05-09 15:01:06.213,4,-0.33,0.07,1.16,64.2398,-153.7272,149.0834,175,75
2026-05-09 15:01:06.244,4,-0.35,-0.05,1.2,64.3698,-205.49720000000002,139.3334,175,75
2026-05-09 15:01:06.274,4,-0.38,0.03,1.06,61.7398,-241.10719999999998,136.2834,175,75
2026-05-09 15:01:06.299,4,-0.4,0.01,0.92,68.7598,-275.5572,152.5634,175,75
2026-05-09 15:01:06.357,4,-0.43,-0.26,0.83,80.8298,-317.0272,166.6434,175,75
2026-05-09 15:01:06.372,4,-0.45,-0.28,0.65,77.5398,-284.2172,163.1134,175,75
2026-05-09 15:01:06.405,4,-0.37,-0.26,0.49,61.9298,-148.7972,227.6234,175,75
2026-05-09 15:01:06.416,4,-0.32,-0.34,0.56,46.7398,-116.0472,245.5534,175,75
2026-05-09 15:01:06.453,4,0.01,-0.73,0.7,-16.7902,-65.6172,241.8334,175,75
2026-05-09 15:01:06.463,4,0.09,-0.78,0.68,-36.1202,-40.687200000000004,237.3134,175,75
2026-05-09 15:01:06.479,4,0.07,-0.75,0.7,-64.6602,-9.947200000000002,237.7434,175,75
2026-05-09 15:01:06.492,4,0.01,-0.73,0.7,-94.17020000000001,11.142799999999994,228.6634,175,75
2026-05-09 15:01:06.524,4,-0.09,-0.7,0.65,-172.16019999999997,64.5028,199.57340000000002,175,75
2026-05-09 15:01:06.547,4,-0.02,-0.88,0.7,-223.6202,128.0328,182.1334,175,75
2026-05-09 15:01:06.565,4,0.01,-0.94,0.79,-241.4302,136.20279999999997,168.23340000000002,175,75
2026-05-09 15:01:06.580,4,0.03,-0.98,1.0,-271.9802,126.63279999999999,132.7434,175,75
2026-05-09 15:01:06.590,4,0.0,-0.97,1.07,-282.16020000000003,111.45279999999998,108.23339999999999,175,75
2026-05-09 15:01:06.625,4,0.1,-0.94,1.15,-297.34020000000004,69.7428,46.7734,175,75
2026-05-09 15:01:06.638,4,0.12,-0.91,1.16,-298.4402,50.782799999999995,27.7434,175,75
2026-05-09 15:01:06.652,4,0.04,-0.77,1.11,-293.0702,14.622799999999998,-10.9766,175,75
2026-05-09 15:01:06.667,4,0.03,-0.7,1.06,-289.72020000000003,12.732799999999997,-24.876599999999996,175,75
2026-05-09 15:01:06.692,4,0.04,-0.7,0.95,-281.2402,21.5728,-47.376599999999996,175,75
2026-05-09 15:01:06.703,4,0.02,-0.7,0.93,-277.59020000000004,24.982799999999997,-57.806599999999996,175,75
2026-05-09 15:01:06.738,4,-0.01,-0.6,1.04,-258.3802,36.142799999999994,-88.2266,175,75
2026-05-09 15:01:06.750,4,-0.04,-0.53,1.01,-249.60020000000003,23.892799999999994,-111.6466,175,75
2026-05-09 15:01:06.787,4,0.04,-0.33,1.03,-220.5702,13.952799999999996,-134.32659999999998,175,75
2026-05-09 15:01:06.800,4,0.01,-0.29,1.03,-212.22019999999998,0.05279999999999774,-140.6666,175,75
2026-05-09 15:01:06.830,4,-0.0,-0.25,0.89,-194.17020000000002,-12.267200000000003,-151.3366,175,75
2026-05-09 15:01:06.840,4,-0.03,-0.22,0.85,-186.67020000000002,-10.557200000000002,-151.64659999999998,175,75
2026-05-09 15:01:06.858,4,-0.03,-0.19,0.86,-176.49020000000002,-4.827200000000005,-153.7166,175,75
2026-05-09 15:01:06.871,4,-0.02,-0.19,0.87,-168.99020000000002,-6.717200000000005,-154.0866,175,75
2026-05-09 15:01:06.883,4,-0.08,-0.2,0.86,-152.65019999999998,-22.577200000000005,-163.5366,175,75
2026-05-09 15:01:06.894,4,-0.1,-0.2,0.79,-147.53019999999998,-27.937200000000004,-171.8866,175,75
2026-05-09 15:01:06.904,4,-0.11,-0.17,0.71,-141.3102,-34.27720000000001,-174.14659999999998,175,75
2026-05-09 15:01:06.916,4,-0.14,-0.13,0.68,-131.3702,-29.587200000000003,-173.4766,175,75
2026-05-09 15:01:06.926,4,-0.16,-0.07,0.7,-122.95020000000001,-25.9872,-166.5866,175,75
2026-05-09 15:01:06.949,4,-0.15,-0.01,0.78,-102.2802,-41.107200000000006,-162.7466,175,75
2026-05-09 15:01:06.962,4,-0.16,0.01,0.8,-93.7402,-58.3072,-164.20659999999998,175,75
2026-05-09 15:01:06.985,4,-0.2,0.06,0.66,-84.17020000000001,-87.75720000000001,-167.5566,175,75
2026-05-09 15:01:06.995,4,-0.23,0.16,0.62,-79.6002,-93.2472,-161.2766,175,75
2026-05-09 15:01:07.005,4,-0.26,0.23,0.59,-73.8702,-94.8872,-154.32659999999998,175,75
2026-05-09 15:01:07.016,4,-0.35,0.31,0.58,-67.53020000000001,-85.9272,-138.2266,175,75
2026-05-09 15:01:07.025,4,-0.37,0.32,0.52,-60.940200000000004,-61.4772,-129.8766,175,75
2026-05-09 15:01:07.049,4,-0.22,0.34,0.47,-52.950199999999995,-33.24720000000001,-109.3266,175,75
2026-05-09 15:01:07.089,4,-0.25,0.36,0.47,-37.340199999999996,-11.837200000000003,-79.7566,175,75
2026-05-09 15:01:07.113,4,-0.3,0.48,0.4,-31.0002,-2.5172000000000025,-59.936600000000006,175,75
2026-05-09 15:01:07.137,4,-0.28,0.53,0.37,-18.620200000000004,16.02279999999999,-38.5366,175,75
2026-05-09 15:01:07.194,4,-0.23,0.52,0.26,-10.5702,64.80279999999999,32.7434,175,75
2026-05-09 15:01:07.204,4,-0.26,0.53,0.37,-5.5702,67.85279999999999,42.1334,175,75
2026-05-09 15:01:07.220,4,-0.22,0.58,0.48,3.7597999999999985,49.6828,51.3434,175,75
2026-05-09 15:01:07.245,4,-0.13,0.63,0.4,6.869799999999998,28.952799999999996,51.6434,175,75
2026-05-09 15:01:07.245,4,-0.03,0.66,0.3,12.049799999999998,27.612799999999993,56.583400000000005,175,75
2026-05-09 15:01:07.257,4,0.02,0.69,0.28,15.0398,37.1828,64.4534,175,75
2026-05-09 15:01:07.270,4,0.04,0.74,0.31,21.7398,54.19279999999999,74.1434,175,75
2026-05-09 15:01:07.282,4,0.06,0.74,0.35,28.209799999999998,61.392799999999994,78.4134,175,75
2026-05-09 15:01:07.293,4,0.09,0.71,0.37,32.7798,57.062799999999996,76.2834,175,75
2026-05-09 15:01:07.304,4,0.11,0.71,0.35,35.7698,50.2928,70.79339999999999,175,75
2026-05-09 15:01:07.315,4,0.12,0.76,0.26,40.4598,48.83279999999999,68.29339999999999,175,75
2026-05-09 15:01:07.335,4,0.09,0.86,0.2,47.2298,72.5528,73.29339999999999,175,75
2026-05-09 15:01:07.346,4,0.06,0.89,0.21,49.9098,92.61280000000001,81.5234,175,75
2026-05-09 15:01:07.346,4,0.07,0.89,0.26,55.5798,110.17280000000001,89.6334,175,75
2026-05-09 15:01:07.378,4,0.08,0.83,0.27,53.5698,94.2528,90.6134,175,75
2026-05-09 15:01:07.393,4,0.05,0.87,0.2,51.4398,99.19279999999999,89.3334,175,75
2026-05-09 15:01:07.415,4,0.09,0.93,0.17,52.9598,113.95279999999998,96.8334,175,75
2026-05-09 15:01:07.415,4,0.08,0.95,0.17,55.3998,123.2828,103.3534,175,75
2026-05-09 15:01:07.427,4,0.08,0.92,0.17,56.7998,132.1828,105.3634,175,75
2026-05-09 15:01:07.443,4,0.06,0.9,0.19,55.5798,137.9128,107.62339999999999,175,75
2026-05-09 15:01:07.453,4,0.05,0.89,0.22,54.2398,145.3528,107.1334,175,75
2026-05-09 15:01:07.453,4,0.11,0.9,0.25,55.279799999999994,159.6828,106.6434,175,75
2026-05-09 15:01:07.464,4,0.22,0.89,0.31,57.0498,175.7228,109.3934,175,75
2026-05-09 15:01:07.474,4,0.26,0.87,0.4,59.8498,164.31279999999998,109.51339999999999,175,75
2026-05-09 15:01:07.485,4,0.15,0.85,0.48,66.0098,128.58280000000002,101.2834,175,75
2026-05-09 15:01:07.499,4,0.11,0.83,0.51,70.9498,111.0828,96.1034,175,75
2026-05-09 15:01:07.521,4,0.28,0.63,0.32,82.71979999999999,76.57279999999999,72.0134,175,75
2026-05-09 15:01:07.545,4,0.27,0.54,0.07,79.90979999999999,40.2928,45.2434,175,75
2026-05-09 15:01:07.558,4,0.05,0.6,-0.32,58.1498,41.5728,20.3034,175,75
2026-05-09 15:01:07.571,4,-0.17,0.69,-0.4,53.8798,83.70279999999998,18.473399999999998,175,75
2026-05-09 15:01:07.586,4,-0.09,0.65,-0.27,46.0098,218.0328,30.973399999999998,175,75
2026-05-09 15:01:07.598,4,0.13,0.49,-0.06,41.9898,254.19279999999998,23.5334,175,75
2026-05-09 15:01:07.611,4,0.26,0.36,0.15,38.629799999999996,245.96279999999996,4.6934,175,75
2026-05-09 15:01:07.620,4,0.11,0.32,0.37,33.879799999999996,187.2428,-19.8166,175,75
2026-05-09 15:01:07.633,4,-0.07,0.34,0.44,27.839799999999997,156.88279999999997,-39.0266,175,75
2026-05-09 15:01:07.662,4,0.03,0.34,0.33,24.1798,177.9728,-64.0266,175,75
2026-05-09 15:01:07.685,4,0.08,0.31,0.37,27.659799999999997,197.4828,-72.43660000000001,175,75
2026-05-09 15:01:07.706,4,0.11,0.27,0.53,31.1298,222.5528,-91.76660000000001,175,75
2026-05-09 15:01:07.732,4,0.15,0.24,0.69,39.1198,223.70279999999997,-109.20660000000001,175,75
2026-05-09 15:01:07.792,4,0.09,0.25,1.19,102.8398,231.27279999999996,-117.31660000000001,175,75
2026-05-09 15:01:07.815,4,0.12,0.22,1.27,115.8898,222.3628,-109.81660000000001,175,75
2026-05-09 15:01:07.825,4,0.09,0.18,1.32,132.5398,205.3528,-100.3666,175,75
2026-05-09 15:01:07.828,4,0.04,0.16,1.37,149.1198,194.56279999999998,-89.1466,175,75
2026-05-09 15:01:07.844,4,0.03,0.17,1.41,160.0398,195.6628,-75.0566,175,75
2026-05-09 15:01:07.874,4,0.15,0.22,1.58,180.76979999999998,204.56279999999998,-41.6466,175,75
2026-05-09 15:01:07.874,4,0.2,0.23,1.65,191.3798,201.75279999999998,-28.416599999999995,175,75
2026-05-09 15:01:07.904,4,0.28,0.19,1.86,216.00979999999998,176.39280000000002,0.4233999999999991,175,75
2026-05-09 15:01:07.913,4,0.31,0.14,1.94,225.82979999999998,158.2228,10.7934,175,75
2026-05-09 15:01:07.926,4,0.36,0.11,2.07,230.88979999999998,136.75279999999998,26.2834,175,75
2026-05-09 15:01:07.943,4,0.38,0.1,2.14,233.07979999999998,109.92280000000001,40.733399999999996,175,75
2026-05-09 15:01:07.955,4,0.41,0.11,2.12,231.5598,92.0028,49.2734,175,75
2026-05-09 15:01:07.968,4,0.41,0.14,2.02,230.45979999999997,82.36280000000001,73.9634,175,75
2026-05-09 15:01:07.978,4,0.4,0.15,2.02,234.1198,86.63279999999999,88.1134,175,75
2026-05-09 15:01:07.992,4,0.39,0.15,2.03,234.7298,93.0328,99.6934,175,75
2026-05-09 15:01:08.002,4,0.4,0.16,2.01,230.0398,105.11280000000001,115.3034,175,75
2026-05-09 15:01:08.036,4,0.43,0.23,1.99,215.76979999999998,134.38279999999997,139.9434,175,75
2026-05-09 15:01:08.036,4,0.45,0.26,2.07,209.7898,148.2228,155.85340000000002,175,75
2026-05-09 15:01:08.047,4,0.44,0.27,2.17,205.76979999999998,152.6728,168.17340000000002,175,75
2026-05-09 15:01:08.058,4,0.43,0.23,2.24,200.94979999999998,149.01279999999997,172.3834,175,75
2026-05-09 15:01:08.089,4,0.4,0.19,2.28,183.75979999999998,93.89280000000001,167.1334,175,75
2026-05-09 15:01:08.100,4,0.41,0.19,2.26,179.96980000000002,77.91279999999999,162.9934,175,75
2026-05-09 15:01:08.113,4,0.43,0.22,2.26,169.6098,45.66279999999999,154.3934,175,75
2026-05-09 15:01:08.139,4,0.42,0.22,2.26,168.9998,23.952799999999996,140.3634,175,75
2026-05-09 15:01:08.160,4,0.44,0.34,2.19,162.40980000000002,-13.917200000000001,114.20339999999999,175,75
2026-05-09 15:01:08.171,4,0.44,0.4,2.17,160.21980000000002,-22.517200000000003,106.34339999999999,175,75
2026-05-09 15:01:08.195,4,0.42,0.48,2.04,155.4598,-49.3372,80.4234,175,75
2026-05-09 15:01:08.233,4,0.35,0.75,1.9,140.88979999999998,-64.52720000000001,49.7534,175,75
2026-05-09 15:01:08.263,4,0.33,0.87,1.81,130.5198,-47.38720000000001,43.053399999999996,175,75
2026-05-09 15:01:08.288,4,0.35,0.93,1.79,121.3198,-42.8772,36.5234,175,75
2026-05-09 15:01:08.289,4,0.34,0.98,1.78,117.6598,-42.2672,33.6634,175,75
2026-05-09 15:01:08.312,4,0.34,1.04,1.76,115.3398,-38.797200000000004,31.833399999999997,175,75
2026-05-09 15:01:08.350,4,0.35,1.05,1.69,99.9098,-7.9972000000000065,25.6134,175,75
2026-05-09 15:01:08.360,4,0.3,1.1,1.74,95.8898,3.2827999999999946,24.513399999999997,175,75
2026-05-09 15:01:08.373,4,0.32,1.12,1.77,90.7698,1.4527999999999963,18.5334,175,75
2026-05-09 15:01:08.393,4,0.33,1.13,1.78,84.4298,-15.987200000000001,10.853399999999999,175,75
2026-05-09 15:01:08.415,4,0.31,1.13,1.77,77.8998,-27.877200000000002,0.4933999999999994,175,75
2026-05-09 15:01:08.428,4,0.3,1.14,1.76,74.4298,-31.167200000000005,-3.4166000000000007,175,75
2026-05-09 15:01:08.458,4,0.27,1.17,1.72,67.0498,-48.66720000000001,-17.1366,175,75
2026-05-09 15:01:08.473,4,0.26,1.22,1.63,57.0498,-62.147200000000005,-25.3666,175,75
2026-05-09 15:01:08.484,4,0.25,1.26,1.62,54.3698,-54.5872,-25.056599999999996,175,75
2026-05-09 15:01:08.494,4,0.26,1.3,1.61,51.3198,-43.4272,-22.8666,175,75
2026-05-09 15:01:08.515,4,0.25,1.3,1.61,48.0798,-39.5872,-22.196599999999997,175,75
2026-05-09 15:01:08.527,4,0.22,1.27,1.58,43.6898,-36.41720000000001,-23.5366,175,75
2026-05-09 15:01:08.542,4,0.24,1.27,1.54,37.7198,-34.217200000000005,-22.9266,175,75
2026-05-09 15:01:08.553,4,0.23,1.31,1.53,33.8198,-31.837200000000003,-19.5066,175,75
2026-05-09 15:01:08.567,4,0.25,1.38,1.55,27.779799999999998,-11.5972,-13.4766,175,75
2026-05-09 15:01:08.576,4,0.27,1.4,1.54,24.6698,-7.027200000000008,-11.0966,175,75
2026-05-09 15:01:08.605,4,0.12,1.4,1.55,22.7198,-0.9272000000000062,-2.076600000000001,175,75
2026-05-09 15:01:08.628,4,0.11,1.47,1.6,15.829799999999999,9.442799999999991,5.8534,175,75
2026-05-09 15:01:08.638,4,0.04,1.57,1.66,18.3898,-9.587200000000003,22.6234,175,75
2026-05-09 15:01:08.712,4,-1.42,1.55,1.01,77.2298,33.3428,-67.8666,175,75
2026-05-09 15:01:08.728,4,2.27,1.1,1.48,-52.1602,107.61280000000001,63.4734,175,75
2026-05-09 15:01:08.740,4,1.39,1.77,2.49,22.839799999999997,69.2528,18.903399999999998,175,75
2026-05-09 15:01:08.751,4,0.35,0.92,2.16,92.65979999999999,-210.0772,-27.986599999999996,175,75
2026-05-09 15:01:08.781,4,0.43,1.77,1.36,-2.9502000000000024,-118.2472,-53.416599999999995,175,75
2026-05-09 15:01:08.790,4,1.02,1.69,1.21,32.8998,-56.8372,-28.8966,175,75
2026-05-09 15:01:08.820,4,0.38,1.56,1.75,52.5398,107.3028,25.6734,175,75
2026-05-09 15:01:08.842,4,0.48,1.56,1.99,34.8498,104.86280000000001,26.6434,175,75
2026-05-09 15:01:08.862,4,0.46,1.49,2.05,21.0098,29.252799999999993,13.5334,175,75
2026-05-09 15:01:08.874,4,0.42,1.46,1.96,16.4998,5.902799999999999,9.203399999999998,175,75
2026-05-09 15:01:08.947,4,0.49,1.27,1.93,25.339799999999997,-28.727200000000003,2.3834,175,75
2026-05-09 15:01:08.969,4,0.46,1.27,1.89,23.7598,-37.38720000000001,-5.786600000000002,175,75
2026-05-09 15:01:08.969,4,0.5,1.3,1.76,20.279799999999998,-37.99720000000001,-13.1666,175,75
2026-05-09 15:01:09.018,4,0.36,1.33,1.66,23.209799999999998,-57.20720000000001,-26.3966,175,75
2026-05-09 15:01:09.070,4,0.43,1.41,1.59,22.4698,-1.8372000000000028,-9.6366,175,75
2026-05-09 15:01:09.085,4,0.44,1.43,1.66,19.4298,-7.327200000000005,-7.006600000000001,175,75
2026-05-09 15:01:09.097,4,0.42,1.41,1.64,14.979799999999997,-9.407200000000003,-8.106600000000002,175,75
2026-05-09 15:01:09.108,4,0.44,1.42,1.61,10.829799999999999,-2.7572000000000045,-5.426600000000002,175,75
2026-05-09 15:01:09.147,4,0.47,1.47,1.64,4.119799999999998,7.062799999999996,2.013399999999999,175,75
2026-05-09 15:01:09.158,4,0.44,1.45,1.6,-0.09020000000000294,20.172799999999995,5.1834,175,75
2026-05-09 15:01:09.171,4,0.45,1.43,1.61,-1.0602000000000018,31.5728,6.833399999999999,175,75
2026-05-09 15:01:09.182,4,0.48,1.41,1.62,-1.3102000000000018,41.75279999999999,9.023399999999999,175,75
2026-05-09 15:01:09.195,4,0.49,1.4,1.67,-1.4902000000000015,46.5728,9.943399999999999,175,75
2026-05-09 15:01:09.204,4,0.49,1.39,1.72,-1.9202000000000012,44.38279999999999,8.0534,175,75
2026-05-09 15:01:09.222,4,0.5,1.37,1.75,-2.590200000000003,35.47279999999999,4.753399999999999,175,75
2026-05-09 15:01:09.235,4,0.46,1.35,1.75,-3.2002000000000024,27.91279999999999,0.6733999999999991,175,75
2026-05-09 15:01:09.235,4,0.46,1.32,1.74,-4.170200000000001,25.352800000000002,-2.4366000000000003,175,75
2026-05-09 15:01:09.249,4,0.44,1.31,1.72,-5.510200000000005,24.13279999999999,-5.5466,175,75
2026-05-09 15:01:09.262,4,0.41,1.31,1.72,-6.850200000000001,21.63279999999999,-6.646600000000001,175,75
2026-05-09 15:01:09.274,4,0.37,1.31,1.71,-5.8202,22.122799999999998,-7.926600000000002,175,75
2026-05-09 15:01:09.274,4,0.37,1.3,1.71,-4.900199999999998,24.80279999999999,-8.716600000000001,175,75
2026-05-09 15:01:09.302,4,0.36,1.3,1.75,-2.650199999999998,21.88279999999999,-9.9366,175,75
2026-05-09 15:01:09.314,4,0.35,1.29,1.77,-3.130200000000002,14.312799999999996,-12.4366,175,75
2026-05-09 15:01:09.327,4,0.34,1.31,1.75,-4.290199999999999,7.062799999999996,-13.4766,175,75
2026-05-09 15:01:09.338,4,0.33,1.32,1.71,-4.170200000000001,4.192799999999991,-13.896600000000001,175,75
2026-05-09 15:01:09.338,4,0.33,1.32,1.68,-2.5202000000000027,10.41279999999999,-11.7066,175,75
2026-05-09 15:01:09.373,4,0.27,1.28,1.66,4.549799999999998,24.80279999999999,-6.036600000000002,175,75
2026-05-09 15:01:09.385,4,0.23,1.26,1.71,5.9498,22.30279999999999,-5.426600000000002,175,75
2026-05-09 15:01:09.419,4,0.23,1.33,1.64,4.239799999999999,3.892799999999994,-1.9466,175,75
2026-05-09 15:01:09.449,4,0.21,1.32,1.6,3.0797999999999988,26.812799999999996,8.603399999999999,175,75
2026-05-09 15:01:09.467,4,0.29,1.31,1.68,2.2897999999999996,34.6228,14.3334,175,75
2026-05-09 15:01:09.480,4,0.32,1.3,1.7,2.4797999999999973,21.88279999999999,11.9534,175,75
2026-05-09 15:01:09.491,4,0.32,1.32,1.7,1.7997999999999976,6.7527999999999935,10.0634,175,75
2026-05-09 15:01:09.553,4,0.41,1.4,1.59,-0.27020000000000266,24.312799999999996,18.4134,175,75
2026-05-09 15:01:09.563,4,0.42,1.39,1.58,0.8897999999999975,22.852800000000002,20.3634,175,75
2026-05-09 15:01:09.573,4,0.38,1.38,1.58,3.569799999999997,29.312799999999996,23.2334,175,75
2026-05-09 15:01:09.595,4,0.42,1.37,1.73,-0.5701999999999998,72.5528,28.473399999999998,175,75
2026-05-09 15:01:09.609,4,0.48,1.39,1.81,-2.8902,64.19279999999999,26.223399999999998,175,75
2026-05-09 15:01:09.635,4,0.49,1.45,1.87,-10.150199999999998,23.4628,17.1934,175,75
2026-05-09 15:01:09.647,4,0.47,1.45,1.82,-8.990200000000002,12.972799999999992,16.4634,175,75
2026-05-09 15:01:09.701,4,0.56,1.45,1.79,10.889799999999997,1.0827999999999989,18.9634,175,75
2026-05-09 15:01:09.708,4,0.53,1.47,1.74,11.5598,6.082799999999992,19.8134,175,75
2026-05-09 15:01:09.735,4,0.5,1.45,1.76,12.5398,24.6828,24.083399999999997,175,75
2026-05-09 15:01:09.756,4,0.54,1.39,1.81,15.339799999999997,24.502799999999993,22.9934,175,75
2026-05-09 15:01:09.769,4,0.54,1.37,1.79,16.0698,14.192799999999991,19.2734,175,75
2026-05-09 15:01:09.801,4,0.5,1.37,1.75,21.3198,19.19279999999999,15.0634,175,75
2026-05-09 15:01:09.831,4,0.45,1.41,1.79,20.3998,5.172799999999995,7.8633999999999995,175,75
2026-05-09 15:01:09.842,4,0.44,1.42,1.76,20.5798,2.7927999999999926,7.8633999999999995,175,75
2026-05-09 15:01:09.860,4,0.43,1.43,1.73,23.269799999999996,6.2727999999999895,10.423399999999999,175,75
2026-05-09 15:01:09.883,4,0.42,1.37,1.71,24.7898,25.232799999999997,14.6934,175,75
2026-05-09 15:01:09.898,4,0.42,1.37,1.75,26.439799999999998,24.622799999999998,16.223399999999998,175,75
2026-05-09 15:01:09.931,4,0.41,1.37,1.74,25.0398,14.922799999999995,15.2434,175,75
2026-05-09 15:01:09.942,4,0.36,1.36,1.73,25.339799999999997,20.842799999999997,16.7034,175,75
2026-05-09 15:01:09.975,4,0.4,1.32,1.78,28.209799999999998,29.312799999999996,19.5734,175,75
2026-05-09 15:01:09.996,4,0.37,1.3,1.81,29.0598,15.9028,12.8034,175,75
2026-05-09 15:01:10.016,4,0.44,1.31,1.69,26.319799999999997,-5.987200000000001,5.423399999999999,175,75
2026-05-09 15:01:10.028,4,0.42,1.31,1.66,23.939799999999998,5.722799999999992,6.4033999999999995,175,75
2026-05-09 15:01:10.061,4,0.38,1.36,1.72,20.709799999999998,20.9028,7.623399999999999,175,75
2026-05-09 15:01:10.093,4,0.31,1.36,1.64,10.829799999999999,-2.5172000000000025,2.8034,175,75
2026-05-09 15:01:10.093,4,0.34,1.36,1.58,10.279799999999998,5.172799999999995,-0.9166000000000007,175,75
2026-05-09 15:01:10.123,4,0.49,1.33,1.56,12.5398,37.00279999999999,7.3134,175,75
2026-05-09 15:01:10.134,4,0.44,1.34,1.64,12.959799999999998,38.16279999999999,8.7234,175,75
2026-05-09 15:01:10.146,4,0.4,1.37,1.68,13.079799999999999,38.702799999999996,8.113399999999999,175,75
2026-05-09 15:01:10.162,4,0.39,1.38,1.69,10.0398,32.7928,5.9734,175,75
2026-05-09 15:01:10.185,4,0.4,1.38,1.68,8.389799999999997,27.30279999999999,4.633399999999999,175,75
2026-05-09 15:01:10.185,4,0.4,1.41,1.67,8.8798,28.952799999999996,6.343399999999999,175,75
2026-05-09 15:01:10.220,4,0.43,1.42,1.67,10.459799999999998,33.032799999999995,9.6334,175,75
2026-05-09 15:01:10.233,4,0.36,1.46,1.72,15.459799999999998,33.83279999999999,17.013399999999997,175,75
2026-05-09 15:01:10.245,4,0.28,1.51,1.8,20.339799999999997,31.94279999999999,24.513399999999997,175,75
2026-05-09 15:01:10.256,4,0.31,1.46,1.81,16.4998,20.842799999999997,25.0634,175,75
2026-05-09 15:01:10.287,4,0.37,1.21,1.74,19.2398,-50.74720000000001,8.2334,175,75
2026-05-09 15:01:10.302,4,0.56,1.19,1.69,13.569799999999997,-38.607200000000006,-3.5966000000000005,175,75
2026-05-09 15:01:10.315,4,-1.58,1.95,1.97,-3.5001999999999995,-307.4472,49.7534,175,75
2026-05-09 15:01:10.326,4,0.74,1.01,0.7,28.269799999999996,-85.4972,-191.64659999999998,175,75
2026-05-09 15:01:10.373,4,0.5,0.82,2.51,4.119799999999998,-137.4472,-93.29660000000001,175,75
2026-05-09 15:01:10.399,4,0.48,1.83,1.82,8.759799999999998,-144.6472,-89.9966,175,75
2026-05-09 15:01:10.399,4,0.32,2.01,1.66,9.909799999999997,-116.41720000000001,-68.8366,175,75
2026-05-09 15:01:10.440,4,0.11,1.48,1.12,-0.5701999999999998,3.162799999999997,-16.766600000000004,175,75
2026-05-09 15:01:10.452,4,0.06,1.3,1.26,26.5598,83.5828,7.1934,175,75
2026-05-09 15:01:10.452,4,0.12,1.22,1.47,43.0798,148.89280000000002,23.2334,175,75
2026-05-09 15:01:10.464,4,0.31,1.14,1.76,44.7898,164.56279999999998,18.1734,175,75
2026-05-09 15:01:10.511,4,0.3,1.44,2.01,15.829799999999999,-57.99720000000001,-31.156599999999997,175,75
2026-05-09 15:01:10.541,4,0.2,1.39,1.66,18.3298,1.392799999999994,-11.946600000000002,175,75
2026-05-09 15:01:10.553,4,0.21,1.35,1.75,28.1498,40.532799999999995,0.6133999999999986,175,75
2026-05-09 15:01:10.563,4,0.31,1.29,1.92,31.9898,39.562799999999996,-0.18660000000000032,175,75
2026-05-09 15:01:10.571,4,0.38,1.28,2.02,31.0098,0.47279999999999234,-9.6366,175,75
2026-05-09 15:01:10.610,4,0.33,1.32,1.81,22.839799999999997,-106.8372,-37.0766,175,75
2026-05-09 15:01:10.645,4,0.31,1.5,1.56,21.129799999999996,-54.7672,-26.3966,175,75
2026-05-09 15:01:10.706,4,0.38,1.59,1.62,12.349799999999998,2.422799999999995,3.6033999999999997,175,75
2026-05-09 15:01:10.718,4,0.4,1.58,1.58,10.9498,11.332799999999992,7.3134,175,75
2026-05-09 15:01:10.729,4,0.42,1.58,1.55,8.999799999999997,28.58279999999999,13.113399999999999,175,75
2026-05-09 15:01:10.742,4,0.42,1.58,1.53,7.049799999999998,47.4828,18.3534,175,75
2026-05-09 15:01:10.769,4,0.43,1.54,1.62,9.979799999999997,96.69279999999999,29.3934,175,75
2026-05-09 15:01:10.817,4,0.42,1.56,1.75,11.799799999999998,88.89280000000001,25.0034,175,75
2026-05-09 15:01:10.817,4,0.41,1.55,1.71,12.169799999999999,87.73279999999998,24.1434,175,75
2026-05-09 15:01:10.856,4,0.39,1.55,1.77,23.209799999999998,104.6228,23.903399999999998,175,75
2026-05-09 15:01:10.889,4,0.33,1.48,1.79,32.4698,48.032799999999995,9.203399999999998,175,75
2026-05-09 15:01:10.928,4,0.26,1.56,1.6,33.879799999999996,21.63279999999999,-1.4666000000000015,175,75
2026-05-09 15:01:10.974,4,0.2,1.55,1.55,34.1198,18.83279999999999,2.013399999999999,175,75
2026-05-09 15:01:10.975,4,0.19,1.56,1.57,31.499799999999997,18.892799999999994,2.3834,175,75
2026-05-09 15:01:10.996,4,0.2,1.57,1.58,27.049799999999998,11.27279999999999,2.253399999999999,175,75
2026-05-09 15:01:11.004,4,0.21,1.57,1.56,23.689799999999998,0.9027999999999992,1.7034000000000002,175,75
2026-05-09 15:01:11.054,4,0.18,1.5,1.52,18.689799999999998,-6.107200000000006,3.963399999999999,175,75
2026-05-09 15:01:11.066,4,0.21,1.49,1.51,13.0198,-10.377200000000002,3.843399999999999,175,75
2026-05-09 15:01:11.098,4,0.21,1.47,1.52,10.5198,-11.537200000000006,2.7433999999999994,175,75
2026-05-09 15:01:11.115,4,0.24,1.43,1.53,6.069799999999997,-11.907200000000003,0.12340000000000018,175,75
2026-05-09 15:01:11.126,4,0.27,1.39,1.52,4.119799999999998,-10.257200000000005,-1.2166000000000015,175,75
2026-05-09 15:01:11.137,4,0.28,1.37,1.51,3.3897999999999975,-8.547200000000004,-3.4166000000000007,175,75
2026-05-09 15:01:11.172,4,0.27,1.42,1.55,-2.8902,-18.547200000000004,-14.0266,175,75
2026-05-09 15:01:11.182,4,0.25,1.46,1.55,-5.760200000000005,-24.0972,-14.9366,175,75
2026-05-09 15:01:11.195,4,0.22,1.49,1.54,-6.370200000000004,-25.747200000000007,-13.7766,175,75
2026-05-09 15:01:11.231,4,0.23,1.52,1.5,-15.760200000000005,14.012799999999999,-8.1666,175,75
2026-05-09 15:01:11.268,4,0.19,1.6,1.65,-15.450200000000002,28.642799999999994,-0.6066000000000003,175,75
2026-05-09 15:01:11.280,4,0.21,1.63,1.69,-16.310200000000002,27.242800000000003,2.0733999999999995,175,75
2026-05-09 15:01:11.292,4,0.19,1.62,1.68,-19.050200000000004,11.812799999999996,5.123399999999999,175,75
2026-05-09 15:01:11.328,4,0.27,1.58,1.64,-26.7902,39.6228,10.7934,175,75
2026-05-09 15:01:11.328,4,0.32,1.6,1.67,-23.9902,42.1228,14.3934,175,75
2026-05-09 15:01:11.353,4,0.36,1.57,1.77,-17.2802,36.5128,16.3434,175,75
2026-05-09 15:01:11.366,4,0.36,1.55,1.81,-16.980200000000004,32.00279999999999,15.0034,175,75
2026-05-09 15:01:11.376,4,0.38,1.55,1.83,-15.940200000000004,26.27279999999999,12.683399999999999,175,75
2026-05-09 15:01:11.419,4,0.36,1.54,1.84,-11.920200000000001,2.182799999999993,6.6434,175,75
2026-05-09 15:01:11.430,4,0.34,1.55,1.82,-10.150199999999998,-3.7272000000000034,6.343399999999999,175,75
2026-05-09 15:01:11.430,4,0.33,1.58,1.8,-9.050200000000004,-8.977200000000003,6.1034,175,75
2026-05-09 15:01:11.436,4,0.33,1.6,1.78,-8.560200000000002,-12.087200000000003,7.1934,175,75
2026-05-09 15:01:11.450,4,0.34,1.62,1.74,-7.280200000000001,-10.137200000000007,8.9034,175,75
2026-05-09 15:01:11.461,4,0.35,1.62,1.7,-6.180199999999999,-1.7772000000000077,14.0834,175,75
2026-05-09 15:01:11.472,4,0.32,1.61,1.71,-5.700200000000002,7.362799999999993,18.2334,175,75
2026-05-09 15:01:11.487,4,0.33,1.55,1.72,-5.090200000000003,22.362799999999993,19.7534,175,75
2026-05-09 15:01:11.489,4,0.39,1.53,1.73,-5.760200000000005,26.94279999999999,20.1234,175,75
2026-05-09 15:01:11.539,4,0.44,1.43,1.72,-3.870200000000004,23.83279999999999,15.9734,175,75
2026-05-09 15:01:11.552,4,0.42,1.4,1.69,-4.290199999999999,25.172799999999995,14.3334,175,75
2026-05-09 15:01:11.563,4,0.42,1.37,1.68,-2.7102000000000004,29.6828,13.173399999999999,175,75
2026-05-09 15:01:11.580,4,0.38,1.35,1.75,-3.3202,34.922799999999995,9.453399999999998,175,75
2026-05-09 15:01:11.593,4,0.36,1.37,1.79,-4.600200000000001,24.252799999999993,7.0733999999999995,175,75
2026-05-09 15:01:11.627,4,0.12,1.37,1.71,-11.0002,-15.867200000000004,-6.766600000000002,175,75
2026-05-09 15:01:11.644,4,0.31,1.42,1.66,-14.540199999999999,3.892799999999994,-7.1366,175,75
2026-05-09 15:01:11.683,4,0.26,1.4,1.62,-12.100200000000001,13.462800000000001,-5.426600000000002,175,75
2026-05-09 15:01:11.695,4,0.38,1.41,1.65,-17.160200000000003,15.112799999999993,-5.3666,175,75
2026-05-09 15:01:11.704,4,0.34,1.46,1.67,-17.2202,5.722799999999992,-2.8666,175,75
2026-05-09 15:01:11.731,4,0.35,1.44,1.63,-15.700200000000002,15.41279999999999,-6.2166000000000015,175,75
2026-05-09 15:01:11.742,4,0.34,1.5,1.65,-13.130200000000002,9.442799999999991,-2.986600000000001,175,75
2026-05-09 15:01:11.770,4,0.28,1.52,1.67,-10.150199999999998,12.672799999999995,1.8933999999999997,175,75
2026-05-09 15:01:11.770,4,0.29,1.51,1.64,-11.730200000000004,17.122799999999998,3.4133999999999993,175,75
2026-05-09 15:01:11.777,4,0.29,1.49,1.65,-11.730200000000004,12.362799999999993,4.633399999999999,175,75
2026-05-09 15:01:11.788,4,0.27,1.46,1.65,-6.4902000000000015,16.452799999999996,2.6234,175,75
2026-05-09 15:01:11.797,4,0.36,1.43,1.66,-7.7102,17.732799999999997,3.7234,175,75
2026-05-09 15:01:11.808,4,0.31,1.49,1.72,-6.120200000000004,11.692799999999991,5.0634,175,75
2026-05-09 15:01:11.848,4,0.29,1.42,1.66,-6.310200000000002,-10.687200000000004,-5.9765999999999995,175,75
2026-05-09 15:01:11.857,4,0.28,1.45,1.65,-1.6702000000000012,-5.617200000000004,-5.306600000000001,175,75
2026-05-09 15:01:11.857,4,0.31,1.42,1.68,3.7597999999999985,4.012799999999999,-3.8366000000000007,175,75
2026-05-09 15:01:11.880,4,0.3,1.41,1.67,1.5597999999999992,-1.8372000000000028,-6.0966000000000005,175,75
2026-05-09 15:01:11.880,4,0.25,1.41,1.69,3.689799999999998,-7.387200000000007,-8.0466,175,75
2026-05-09 15:01:11.898,4,0.25,1.4,1.71,6.069799999999997,-6.777200000000008,-9.0266,175,75
2026-05-09 15:01:11.913,4,0.29,1.42,1.76,4.489799999999999,-7.577200000000005,-8.106600000000002,175,75
2026-05-09 15:01:11.923,4,0.26,1.49,1.8,3.7597999999999985,-23.6672,-7.196600000000002,175,75
2026-05-09 15:01:11.935,4,0.22,1.52,1.82,5.9498,-47.8772,-7.926600000000002,175,75
2026-05-09 15:01:11.958,4,0.19,1.51,1.75,4.489799999999999,-97.02720000000001,-2.2566000000000006,175,75
2026-05-09 15:01:11.974,4,0.25,1.48,1.63,3.3897999999999975,-118.3672,-15.6666,175,75
2026-05-09 15:01:11.985,4,0.23,1.57,1.56,8.4498,-107.5772,-8.716600000000001,175,75
2026-05-09 15:01:11.995,4,0.37,1.54,1.45,11.739799999999999,-78.1172,-10.1866,175,75
2026-05-09 15:01:12.017,4,0.38,1.73,1.39,20.0398,-54.217200000000005,-1.5266000000000002,175,75
2026-05-09 15:01:12.035,4,0.05,1.78,1.48,26.2598,-39.7672,20.7934,175,75
2026-05-09 15:01:12.054,4,0.4,1.54,0.68,39.6098,36.88279999999999,-90.6666,175,75
2026-05-09 15:01:12.064,4,2.12,1.4,0.96,-63.2602,248.64279999999997,85.5534,175,75
2026-05-09 15:01:12.074,4,0.6,1.95,2.2,87.0498,337.9728,164.8834,175,75
2026-05-09 15:01:12.086,4,1.47,1.34,2.93,136.6798,163.1628,106.34339999999999,175,75
2026-05-09 15:01:12.097,4,1.08,0.78,2.73,83.3298,-82.9972,13.4734,175,75
2026-05-09 15:01:12.108,4,0.51,0.99,2.15,-12.100200000000001,-166.9672,-65.79660000000001,175,75
2026-05-09 15:01:12.122,4,0.64,1.87,1.68,-21.6102,-117.2672,-49.9966,175,75
2026-05-09 15:01:12.127,4,0.88,2.09,1.43,37.0498,-69.1572,-15.1866,175,75
2026-05-09 15:01:12.171,4,0.55,1.49,1.86,48.019800000000004,84.8028,23.473399999999998,175,75
2026-05-09 15:01:12.185,4,0.5,1.57,1.93,31.189799999999998,53.77279999999999,16.7734,175,75
2026-05-09 15:01:12.198,4,0.42,1.63,1.84,17.1098,10.05279999999999,11.033399999999999,175,75
2026-05-09 15:01:12.223,4,0.37,1.48,1.63,21.7398,-37.327200000000005,4.333399999999999,175,75
2026-05-09 15:01:12.236,4,0.29,1.41,1.67,27.1698,-15.927200000000006,6.703399999999999,175,75
2026-05-09 15:01:12.236,4,0.35,1.32,1.69,28.8798,7.302799999999991,4.883399999999999,175,75
2026-05-09 15:01:12.251,4,0.47,1.27,1.75,28.9998,1.142799999999994,0.6133999999999986,175,75
2026-05-09 15:01:12.273,4,0.39,1.28,1.72,22.959799999999998,-49.5872,-18.1066,175,75
2026-05-09 15:01:12.308,4,0.32,1.33,1.57,18.689799999999998,-40.19720000000001,-16.7066,175,75
2026-05-09 15:01:12.322,4,0.34,1.36,1.56,12.779799999999998,-13.427200000000006,-11.7066,175,75
2026-05-09 15:01:12.374,4,0.43,1.47,1.63,-10.940200000000004,-2.577200000000005,3.0534,175,75
2026-05-09 15:01:12.393,4,0.47,1.46,1.64,-12.2802,4.562799999999996,6.953399999999999,175,75
2026-05-09 15:01:12.404,4,0.51,1.43,1.65,-12.2802,12.30279999999999,10.2434,175,75
2026-05-09 15:01:12.427,4,0.61,1.37,1.71,-13.810200000000002,14.502799999999993,7.683399999999999,175,75
2026-05-09 15:01:12.495,4,0.67,1.32,1.75,-11.1802,36.94279999999999,-3.9666000000000015,175,75
2026-05-09 15:01:12.495,4,0.69,1.34,1.77,-11.610199999999999,32.062799999999996,-5.916600000000001,175,75
2026-05-09 15:01:12.513,4,0.64,1.36,1.77,-10.270200000000003,28.092799999999997,-7.316599999999999,175,75
2026-05-09 15:01:12.521,4,0.62,1.36,1.76,-8.560200000000002,31.69279999999999,-9.326600000000001,175,75
2026-05-09 15:01:12.527,4,0.6,1.38,1.77,-8.620200000000004,31.5728,-10.246599999999999,175,75
2026-05-09 15:01:12.543,4,0.55,1.42,1.76,-7.830200000000005,25.472799999999992,-12.376600000000002,175,75
2026-05-09 15:01:12.553,4,0.52,1.42,1.75,-7.340200000000003,22.55279999999999,-11.336599999999999,175,75
2026-05-09 15:01:12.593,4,0.49,1.36,1.65,-5.150199999999998,45.172799999999995,1.8333999999999993,175,75
2026-05-09 15:01:12.615,4,0.45,1.31,1.66,-5.3902,60.5928,3.963399999999999,175,75
2026-05-09 15:01:12.626,4,0.42,1.28,1.69,-6.0001999999999995,64.3128,3.1133999999999986,175,75
2026-05-09 15:01:12.639,4,0.36,1.28,1.73,-8.3202,56.94279999999999,-0.056600000000001316,175,75
2026-05-09 15:01:12.651,4,0.32,1.29,1.76,-9.840200000000003,55.47279999999999,-0.18660000000000032,175,75
2026-05-09 15:01:12.687,4,0.27,1.26,1.77,-9.9602,48.22279999999999,-0.056600000000001316,175,75
2026-05-09 15:01:12.687,4,0.26,1.23,1.78,-11.670200000000001,42.91279999999999,0.1833999999999989,175,75
2026-05-09 15:01:12.697,4,0.2,1.21,1.78,-13.5002,38.4628,0.9133999999999993,175,75
2026-05-09 15:01:12.723,4,0.17,1.17,1.76,-11.310200000000002,35.172799999999995,2.3133999999999997,175,75
2026-05-09 15:01:12.747,4,-0.12,1.21,1.81,-8.380200000000002,26.752799999999993,15.5534,175,75
2026-05-09 15:01:12.758,4,-0.3,1.25,1.83,-9.600200000000001,27.422799999999995,22.8634,175,75
2026-05-09 15:01:12.791,4,-0.44,1.27,1.57,-15.330200000000005,37.55279999999999,21.3434,175,75
2026-05-09 15:01:12.795,4,0.84,0.89,1.45,-13.130200000000002,48.702799999999996,24.3934,175,75
2026-05-09 15:01:12.810,4,1.2,0.85,1.54,15.099799999999998,61.202799999999996,-0.9166000000000007,175,75
2026-05-09 15:01:12.810,4,0.74,0.88,1.79,20.159799999999997,98.2828,43.7234,175,75
2026-05-09 15:01:12.833,4,-0.41,1.19,1.95,14.909799999999997,81.45279999999998,62.2534,175,75
2026-05-09 15:01:12.844,4,-2.19,1.95,1.73,0.09979999999999833,-70.9272,72.5034,175,75
2026-05-09 15:01:12.855,4,1.74,0.77,1.64,-11.120200000000004,162.6128,-80.3666,175,75
2026-05-09 15:01:12.866,4,1.86,1.12,1.95,-74.1102,152.6728,27.8634,175,75
2026-05-09 15:01:12.888,4,0.08,0.73,2.26,35.3398,-68.8572,-46.8266,175,75
2026-05-09 15:01:12.902,4,0.23,1.06,2.11,-43.6802,-65.25720000000001,-48.2866,175,75
2026-05-09 15:01:12.911,4,0.28,1.63,1.91,-51.3702,-62.147200000000005,-50.486599999999996,175,75
2026-05-09 15:01:12.928,4,0.63,1.78,1.75,3.3297999999999988,-22.267200000000003,-29.026600000000002,175,75
2026-05-09 15:01:12.928,4,0.69,1.67,1.63,16.7398,35.41279999999999,2.8633999999999986,175,75
2026-05-09 15:01:12.973,4,0.43,1.47,2.04,34.7898,220.7828,68.5334,175,75
2026-05-09 15:01:12.983,4,0.3,1.49,2.31,33.7598,175.7228,65.3034,175,75
2026-05-09 15:01:12.994,4,0.16,1.47,2.55,30.889799999999997,91.3328,46.833400000000005,175,75
2026-05-09 15:01:13.004,4,0.2,1.41,2.65,29.1798,13.4028,30.913400000000003,175,75
2026-05-09 15:01:13.016,4,0.21,1.41,2.63,32.5398,-50.8072,21.2834,175,75
2026-05-09 15:01:13.027,4,0.27,1.4,2.49,40.3398,-112.8772,7.1934,175,75
2026-05-09 15:01:13.037,4,0.33,1.37,2.29,43.449799999999996,-140.43720000000002,3.2333999999999996,175,75
2026-05-09 15:01:13.051,4,0.31,1.39,1.98,66.3198,-135.80720000000002,8.9034,175,75
2026-05-09 15:01:13.063,4,0.32,1.4,1.89,75.88980000000001,-92.2672,15.9734,175,75
2026-05-09 15:01:13.085,4,0.39,1.37,1.8,78.62979999999999,-51.5972,24.083399999999997,175,75
2026-05-09 15:01:13.086,4,0.42,1.33,1.78,82.2898,-35.49720000000001,26.403399999999998,175,75
2026-05-09 15:01:13.112,4,0.41,1.21,1.78,92.65979999999999,-12.517200000000003,31.8934,175,75
2026-05-09 15:01:13.125,4,0.43,1.17,1.77,94.1198,-10.927200000000006,30.1834,175,75
2026-05-09 15:01:13.136,4,0.42,1.16,1.76,97.46979999999999,-13.117200000000004,27.013399999999997,175,75
2026-05-09 15:01:13.158,4,0.43,1.17,1.67,100.8898,-14.647200000000005,20.6734,175,75
2026-05-09 15:01:13.182,4,0.38,1.25,1.55,102.46979999999999,22.002799999999993,26.1634,175,75
2026-05-09 15:01:13.215,4,0.39,1.25,1.57,102.1698,47.2428,34.6934,175,75
2026-05-09 15:01:13.226,4,0.39,1.26,1.57,97.10979999999999,46.63279999999999,33.9634,175,75
2026-05-09 15:01:13.248,4,0.41,1.29,1.57,92.9598,45.41279999999999,35.0034,175,75
2026-05-09 15:01:13.263,4,0.4,1.34,1.57,91.43979999999999,47.422799999999995,37.5634,175,75
2026-05-09 15:01:13.263,4,0.41,1.36,1.55,91.6798,50.3528,39.7534,175,75
2026-05-09 15:01:13.273,4,0.42,1.36,1.52,91.5598,57.2428,43.9034,175,75
2026-05-09 15:01:13.295,4,0.43,1.35,1.51,90.5198,65.66279999999999,48.8434,175,75
2026-05-09 15:01:13.329,4,0.47,1.34,1.62,86.4998,103.95279999999998,61.2834,175,75
2026-05-09 15:01:13.339,4,0.52,1.33,1.67,87.0498,100.7828,62.6834,175,75
2026-05-09 15:01:13.350,4,0.53,1.29,1.69,87.0498,90.66279999999999,61.0334,175,75
2026-05-09 15:01:13.363,4,0.52,1.22,1.67,84.7898,82.3028,57.2534,175,75
2026-05-09 15:01:13.382,4,0.5,1.16,1.66,79.6698,84.6828,51.4634,175,75
2026-05-09 15:01:13.403,4,0.52,1.18,1.69,76.6198,82.36280000000001,47.8034,175,75
2026-05-09 15:01:13.403,4,0.52,1.19,1.7,75.2798,79.5028,45.9134,175,75
2026-05-09 15:01:13.428,4,0.52,1.18,1.72,73.9998,70.72279999999999,42.8634,175,75
2026-05-09 15:01:13.428,4,0.47,1.18,1.71,71.6798,66.69279999999999,41.9534,175,75
2026-05-09 15:01:13.450,4,0.45,1.18,1.72,68.9998,65.1128,39.0234,175,75
2026-05-09 15:01:13.461,4,0.5,1.18,1.69,65.9498,65.7828,38.3534,175,75
2026-05-09 15:01:13.483,4,0.5,1.17,1.68,65.7698,67.67280000000001,39.9434,175,75
2026-05-09 15:01:13.488,4,0.46,1.16,1.68,65.15979999999999,70.5928,40.7934,175,75
2026-05-09 15:01:13.506,4,0.46,1.16,1.68,65.0398,73.4028,41.3434,175,75
2026-05-09 15:01:13.516,4,0.44,1.16,1.69,64.6698,72.79279999999999,42.3834,175,75
2026-05-09 15:01:13.527,4,0.41,1.17,1.7,65.21979999999999,73.2828,43.1734,175,75
2026-05-09 15:01:13.530,4,0.38,1.19,1.71,66.6798,72.97279999999999,48.6634,175,75
2026-05-09 15:01:13.542,4,0.25,1.22,1.73,69.6098,79.01279999999998,57.9934,175,75
2026-05-09 15:01:13.567,4,0.17,1.21,1.7,73.87979999999999,90.11280000000001,62.3834,175,75
2026-05-09 15:01:13.567,4,0.26,1.2,1.71,75.3998,90.5328,68.8434,175,75
2026-05-09 15:01:13.580,4,0.27,1.23,1.73,77.40979999999999,89.6828,80.3034,175,75
2026-05-09 15:01:13.605,4,0.53,1.11,1.68,92.9598,82.85279999999999,72.3134,175,75
2026-05-09 15:01:13.626,4,1.24,0.98,2.04,89.90979999999999,96.7528,109.20339999999999,175,75
2026-05-09 15:01:13.626,4,0.29,1.15,1.91,123.2098,94.01279999999998,94.0234,175,75
2026-05-09 15:01:13.641,4,0.31,1.24,2.33,109.7898,5.532799999999995,100.9734,175,75
2026-05-09 15:01:13.651,4,-1.0,1.6,2.16,60.3998,-223.24720000000002,146.0334,175,75
2026-05-09 15:01:13.662,4,-0.45,0.89,0.46,116.3798,-38.797200000000004,-148.4766,175,75
2026-05-09 15:01:13.676,4,2.01,0.65,0.67,22.409799999999997,89.3128,89.8834,175,75
2026-05-09 15:01:13.689,4,0.98,1.35,1.48,133.2698,256.27279999999996,163.23340000000002,175,75
2026-05-09 15:01:13.715,4,1.1,0.79,2.15,141.9898,179.9928,118.90339999999999,175,75
2026-05-09 15:01:13.759,4,1.09,1.07,1.65,141.4998,33.77279999999999,65.4234,175,75
2026-05-09 15:01:13.774,4,0.77,1.07,1.64,156.8698,51.75279999999999,75.0034,175,75
2026-05-09 15:01:13.774,4,0.64,1.07,1.66,155.82979999999998,68.64280000000001,80.3034,175,75
2026-05-09 15:01:13.784,4,0.55,1.18,1.69,139.9698,61.5128,83.7834,175,75
2026-05-09 15:01:13.796,4,0.48,1.32,1.72,133.38979999999998,20.782799999999995,84.3934,175,75
2026-05-09 15:01:13.821,4,0.39,1.32,1.76,137.1698,-16.107200000000006,84.6934,175,75
2026-05-09 15:01:13.844,4,0.58,1.02,1.51,145.09980000000002,1.4527999999999963,96.6434,175,75
2026-05-09 15:01:13.863,4,0.65,0.94,1.41,162.89979999999997,21.02279999999999,105.73339999999999,175,75
2026-05-09 15:01:13.863,4,0.67,0.91,1.43,173.9998,45.8428,109.7534,175,75
2026-05-09 15:01:13.878,4,0.66,0.87,1.54,179.96980000000002,75.72279999999999,118.7234,175,75
2026-05-09 15:01:13.888,4,0.76,0.84,1.57,178.38979999999998,75.9028,115.6734,175,75
2026-05-09 15:01:13.904,4,0.85,0.78,1.62,183.8798,54.9828,107.2534,175,75
2026-05-09 15:01:13.957,4,0.75,0.88,1.16,136.0698,-42.8172,24.7534,175,75
2026-05-09 15:01:13.972,4,0.69,1.0,1.13,124.1798,-29.407200000000003,20.0634,175,75
2026-05-09 15:01:13.982,4,0.65,1.08,1.1,112.10979999999999,-12.877200000000002,17.6834,175,75
2026-05-09 15:01:13.993,4,0.62,1.1,1.08,100.1598,1.2027999999999963,16.3434,175,75
2026-05-09 15:01:14.006,4,0.58,1.09,1.08,93.62979999999999,12.852800000000002,16.2834,175,75
2026-05-09 15:01:14.006,4,0.56,1.09,1.09,89.4898,23.702799999999996,17.013399999999997,175,75
2026-05-09 15:01:14.026,4,0.55,1.11,1.2,82.1698,22.1828,16.1634,175,75
2026-05-09 15:01:14.037,4,0.56,1.15,1.25,77.1098,4.622799999999998,10.9134,175,75
2026-05-09 15:01:14.058,4,0.59,1.27,1.2,62.4098,-58.0572,-7.196600000000002,175,75
2026-05-09 15:01:14.080,4,0.57,1.25,1.04,55.2198,-67.3272,-10.1866,175,75
2026-05-09 15:01:14.091,4,0.52,1.24,0.92,48.0798,-56.047200000000004,-9.266600000000002,175,75
2026-05-09 15:01:14.091,4,0.51,1.27,0.88,42.169799999999995,-32.327200000000005,-6.766600000000002,175,75
2026-05-09 15:01:14.113,4,0.54,1.31,0.9,35.8298,-1.5372000000000057,-1.8866000000000014,175,75
2026-05-09 15:01:14.134,4,0.61,1.3,0.93,30.709799999999998,20.2928,2.253399999999999,175,75
2026-05-09 15:01:14.134,4,0.62,1.27,0.98,29.8498,24.922799999999995,2.923399999999999,175,75
2026-05-09 15:01:14.156,4,0.58,1.33,1.07,24.4898,10.722799999999992,-3.8366000000000007,175,75
2026-05-09 15:01:14.179,4,0.54,1.44,1.06,14.4298,-17.517200000000003,-10.5466,175,75
2026-05-09 15:01:14.180,4,0.51,1.47,1.02,8.8798,-23.727200000000003,-10.056600000000001,175,75
2026-05-09 15:01:14.203,4,0.48,1.49,0.93,2.1697999999999986,-13.607200000000006,-4.876600000000002,175,75
2026-05-09 15:01:14.223,4,0.48,1.51,0.9,-1.7901999999999987,14.6828,4.8134,175,75
2026-05-09 15:01:14.234,4,0.52,1.49,0.92,-4.540199999999999,46.08279999999999,14.8134,175,75
2026-05-09 15:01:14.264,4,0.59,1.41,1.12,-10.020200000000003,64.2528,25.2434,175,75
2026-05-09 15:01:14.264,4,0.64,1.38,1.21,-14.720199999999998,45.05279999999999,20.7334,175,75
2026-05-09 15:01:14.276,4,0.67,1.37,1.25,-21.4902,18.952799999999996,13.173399999999999,175,75
2026-05-09 15:01:14.309,4,0.66,1.36,1.1,-40.2102,-19.947200000000002,1.2833999999999985,175,75
2026-05-09 15:01:14.309,4,0.67,1.36,1.08,-43.440200000000004,-6.657200000000003,1.8933999999999997,175,75
2026-05-09 15:01:14.333,4,0.74,1.32,1.14,-52.220200000000006,8.52279999999999,1.7733999999999988,175,75
2026-05-09 15:01:14.345,4,0.75,1.29,1.19,-54.110200000000006,3.2227999999999923,-0.42660000000000053,175,75
2026-05-09 15:01:14.363,4,0.68,1.24,1.24,-60.8802,-13.797200000000004,-7.926600000000002,175,75
2026-05-09 15:01:14.387,4,0.67,1.23,1.25,-64.0502,-19.827200000000005,-13.106600000000002,175,75
2026-05-09 15:01:14.387,4,0.67,1.22,1.24,-65.5102,-26.357200000000006,-16.3966,175,75
2026-05-09 15:01:14.399,4,0.64,1.21,1.22,-66.7902,-31.227200000000003,-17.986600000000003,175,75
2026-05-09 15:01:14.412,4,0.6,1.22,1.2,-68.8102,-34.4072,-19.7566,175,75
2026-05-09 15:01:14.423,4,0.54,1.23,1.17,-71.1202,-31.777200000000004,-19.5066,175,75
2026-05-09 15:01:14.435,4,0.43,1.24,1.14,-74.5402,-19.827200000000005,-15.426600000000002,175,75
2026-05-09 15:01:14.449,4,0.3,1.24,1.12,-77.5902,6.332799999999992,-10.1166,175,75
2026-05-09 15:01:14.449,4,0.3,1.22,1.1,-78.8702,29.862799999999993,-7.1366,175,75
2026-05-09 15:01:14.462,4,0.34,1.21,1.11,-79.6602,48.952799999999996,0.0033999999999991815,175,75
2026-05-09 15:01:14.478,4,0.34,1.2,1.19,-79.78020000000001,56.202799999999996,9.3934,175,75
2026-05-09 15:01:14.490,4,0.29,1.2,1.28,-79.5402,53.4628,14.0834,175,75
2026-05-09 15:01:14.500,4,0.32,1.14,1.39,-83.5002,48.16279999999999,2.503399999999999,175,75
2026-05-09 15:01:14.515,4,1.06,0.76,1.37,-73.1302,100.5928,-63.5366,175,75
2026-05-09 15:01:14.526,4,2.11,0.63,1.64,-127.22019999999999,-42.38720000000001,-23.656599999999997,175,75
2026-05-09 15:01:14.534,4,1.32,0.91,1.51,-103.6802,-162.4472,-107.7466,175,75
2026-05-09 15:01:14.556,4,0.7,1.29,1.53,-155.5102,-165.1972,-87.92660000000001,175,75
2026-05-09 15:01:14.578,4,-1.2,1.06,0.09,-170.3902,-231.29720000000003,-194.4466,175,75
2026-05-09 15:01:14.592,4,2.09,1.01,-0.35,-241.92020000000002,-28.247200000000007,-88.65660000000001,175,75
2026-05-09 15:01:14.606,4,0.32,1.59,1.34,-79.3502,279.6228,47.0734,175,75
2026-05-09 15:01:14.629,4,1.44,0.93,2.19,-98.6202,229.62279999999998,-10.786600000000002,175,75
2026-05-09 15:01:14.640,4,1.48,0.62,2.4,-176.79020000000003,-79.6472,-97.1366,175,75
2026-05-09 15:01:14.653,4,0.48,0.76,1.66,-209.42020000000002,-289.8272,-195.8566,175,75
2026-05-09 15:01:14.674,4,0.6,1.4,0.9,-192.34019999999998,-135.86720000000003,-106.0366,175,75
2026-05-09 15:01:14.688,4,0.39,1.5,0.85,-174.54020000000003,-23.4872,-50.5466,175,75
2026-05-09 15:01:14.699,4,0.35,1.28,0.99,-163.0702,123.2828,-23.776600000000002,175,75
2026-05-09 15:01:14.699,4,0.59,1.07,1.18,-166.85020000000003,202.9128,-19.446600000000004,175,75
2026-05-09 15:01:14.713,4,0.96,0.94,1.52,-166.79020000000003,196.39279999999997,-28.5366,175,75
2026-05-09 15:01:14.728,4,1.07,0.86,1.72,-160.3302,119.92280000000001,-48.5366,175,75
2026-05-09 15:01:14.745,4,0.65,0.78,1.78,-166.73020000000002,-63.0572,-100.18660000000001,175,75
2026-05-09 15:01:14.756,4,0.48,0.87,1.67,-184.54020000000003,-87.3872,-111.2166,175,75
2026-05-09 15:01:14.779,4,0.64,1.01,1.48,-195.03019999999998,-93.4272,-113.7766,175,75
2026-05-09 15:01:14.791,4,0.66,0.96,1.41,-190.8802,-81.9672,-115.79660000000001,175,75
2026-05-09 15:01:14.811,4,0.8,0.89,1.38,-179.23020000000002,-33.547200000000004,-112.8666,175,75
2026-05-09 15:01:14.827,4,0.86,0.85,1.53,-165.7002,-15.257200000000005,-118.0466,175,75
2026-05-09 15:01:14.852,4,0.96,0.85,1.76,-155.8802,-62.327200000000005,-145.6666,175,75
2026-05-09 15:01:14.863,4,0.89,0.85,1.79,-146.85020000000003,-103.3072,-161.8866,175,75
2026-05-09 15:01:14.884,4,0.75,0.82,1.78,-145.03019999999998,-159.0972,-182.4966,175,75
2026-05-09 15:01:14.899,4,0.69,0.86,1.78,-146.92020000000002,-180.61720000000003,-185.79659999999998,175,75
2026-05-09 15:01:14.906,4,0.61,0.95,1.85,-143.6202,-205.98720000000003,-180.3066,175,75
2026-05-09 15:01:14.918,4,0.51,1.06,1.99,-135.7602,-234.2772,-171.2766,175,75
2026-05-09 15:01:14.931,4,0.43,1.2,2.12,-130.03019999999998,-270.4372,-162.8066,175,75
2026-05-09 15:01:14.940,4,0.39,1.3,2.17,-127.5902,-298.79720000000003,-155.48659999999998,175,75
2026-05-09 15:01:14.956,4,0.37,1.42,2.16,-122.04020000000001,-343.66720000000004,-144.20659999999998,175,75
2026-05-09 15:01:14.967,4,0.38,1.47,2.09,-117.2802,-385.2572,-131.64659999999998,175,75
2026-05-09 15:01:14.979,4,0.34,1.48,1.94,-112.2802,-427.9372,-117.9266,175,75
2026-05-09 15:01:15.015,4,0.43,1.41,1.33,-101.3702,-474.8272,-82.0066,175,75
2026-05-09 15:01:15.032,4,0.42,1.4,1.22,-98.32020000000001,-475.8072,-69.9966,175,75
2026-05-09 15:01:15.037,4,0.44,1.39,1.04,-95.1502,-455.4372,-61.6466,175,75
2026-05-09 15:01:15.050,4,0.43,1.4,0.89,-90.8802,-419.4672,-51.2166,175,75
2026-05-09 15:01:15.060,4,0.44,1.41,0.79,-87.5902,-379.8272,-41.1566,175,75
2026-05-09 15:01:15.069,4,0.43,1.39,0.74,-80.7602,-317.9372,-32.4366,175,75
2026-05-09 15:01:15.082,4,0.45,1.37,0.8,-72.28020000000001,-260.8672,-24.9966,175,75
2026-05-09 15:01:15.104,4,0.46,1.36,0.92,-63.7402,-218.79720000000003,-19.876600000000003,175,75
2026-05-09 15:01:15.124,4,0.48,1.37,1.24,-43.440200000000004,-191.22719999999998,-19.026600000000002,175,75
2026-05-09 15:01:15.145,4,0.37,1.3,1.38,-29.7202,-255.86720000000003,-27.4366,175,75
2026-05-09 15:01:15.166,4,0.14,1.3,1.22,-15.020200000000003,-309.2172,-34.876599999999996,175,75
2026-05-09 15:01:15.177,4,0.05,1.32,1.12,-13.5002,-312.9372,-35.1166,175,75
2026-05-09 15:01:15.189,4,-0.01,1.34,1.02,-13.9302,-306.29720000000003,-35.7266,175,75
2026-05-09 15:01:15.199,4,-0.03,1.36,0.93,-9.480200000000004,-298.7272,-34.8166,175,75
2026-05-09 15:01:15.214,4,-0.07,1.38,0.83,0.09979999999999833,-282.1472,-29.446599999999997,175,75
2026-05-09 15:01:15.245,4,-0.09,1.37,0.76,7.049799999999998,-264.5872,-25.056599999999996,175,75
2026-05-09 15:01:15.245,4,-0.08,1.37,0.7,10.339799999999997,-247.3872,-22.2566,175,75
2026-05-09 15:01:15.280,4,-0.09,1.43,0.61,21.5598,-159.7072,-24.3266,175,75
2026-05-09 15:01:15.280,4,-0.11,1.41,0.62,26.2598,-135.68720000000002,-24.266599999999997,175,75
2026-05-09 15:01:15.290,4,-0.12,1.39,0.62,30.0998,-114.27720000000001,-23.046599999999998,175,75
2026-05-09 15:01:15.302,4,-0.14,1.39,0.6,33.879799999999996,-96.0472,-21.156599999999997,175,75
2026-05-09 15:01:15.316,4,-0.19,1.43,0.6,38.449799999999996,-73.97720000000001,-19.026600000000002,175,75
2026-05-09 15:01:15.327,4,-0.21,1.47,0.59,41.2598,-56.4772,-16.946600000000004,175,75
2026-05-09 15:01:15.327,4,-0.23,1.48,0.58,46.1898,-37.63720000000001,-13.4166,175,75
2026-05-09 15:01:15.349,4,-0.35,1.48,0.58,50.889799999999994,-15.377200000000002,-2.8666,175,75
2026-05-09 15:01:15.349,4,-0.49,1.47,0.57,51.3798,3.162799999999997,8.0534,175,75
2026-05-09 15:01:15.360,4,-0.58,1.5,0.54,51.2598,19.982799999999997,17.4434,175,75
2026-05-09 15:01:15.382,4,-0.03,1.47,0.56,73.9998,62.97279999999999,22.2534,175,75
2026-05-09 15:01:15.397,4,0.08,1.31,0.68,81.5598,67.73279999999998,21.3434,175,75
2026-05-09 15:01:15.408,4,0.55,1.03,0.93,109.5498,75.72279999999999,-21.3966,175,75
2026-05-09 15:01:15.420,4,0.19,0.99,0.97,83.0198,27.672799999999995,-7.556600000000001,175,75
2026-05-09 15:01:15.434,4,-0.57,1.1,0.87,64.4898,-126.9072,-22.196599999999997,175,75
2026-05-09 15:01:15.460,4,0.47,1.06,0.5,62.6598,-258.2472,-90.6066,175,75
2026-05-09 15:01:15.471,4,0.29,1.26,0.62,88.4498,-197.5772,-88.4166,175,75
2026-05-09 15:01:15.490,4,-0.15,1.05,0.52,92.71979999999999,-141.9072,-84.9966,175,75
2026-05-09 15:01:15.502,4,-0.26,1.01,0.3,85.2798,-125.3172,-96.2766,175,75
2026-05-09 15:01:15.513,4,-0.44,1.27,0.25,71.6798,-92.69720000000001,-95.54660000000001,175,75
2026-05-09 15:01:15.526,4,-0.39,1.49,-0.03,67.5998,-68.2472,-87.7466,175,75
2026-05-09 15:01:15.555,4,-0.46,1.26,-0.09,81.9898,-83.7972,-80.79660000000001,175,75
2026-05-09 15:01:15.565,4,-0.58,1.19,-0.01,67.2898,-74.6472,-77.7466,175,75
2026-05-09 15:01:15.578,4,-0.65,1.35,0.12,37.779799999999994,-117.2672,-66.15660000000001,175,75
2026-05-09 15:01:15.595,4,-0.82,1.53,0.03,26.439799999999998,-138.24720000000002,-51.1566,175,75
2026-05-09 15:01:15.607,4,-0.89,1.54,-0.12,20.0398,-114.7072,-31.2166,175,75
2026-05-09 15:01:15.638,4,-0.71,1.31,-0.12,12.5398,-15.437200000000004,7.8034,175,75
2026-05-09 15:01:15.649,4,-0.69,1.28,-0.08,6.9298,-12.877200000000002,12.5634,175,75
2026-05-09 15:01:15.673,4,-0.77,1.37,-0.03,-5.090200000000003,-8.667200000000001,18.903399999999998,175,75
2026-05-09 15:01:15.691,4,-0.68,1.39,-0.03,-7.220199999999998,-6.967200000000005,18.3534,175,75
2026-05-09 15:01:15.714,4,-0.71,1.32,-0.01,-12.400199999999998,-13.057200000000002,18.8434,175,75
2026-05-09 15:01:15.718,4,-0.7,1.32,-0.01,-16.120200000000004,-12.757200000000005,18.0534,175,75
2026-05-09 15:01:15.739,4,-0.73,1.38,-0.01,-21.550200000000004,-14.767200000000003,16.7734,175,75
2026-05-09 15:01:15.739,4,-0.77,1.45,-0.04,-24.9602,-15.017200000000003,17.8634,175,75
2026-05-09 15:01:15.756,4,-0.83,1.47,-0.09,-27.2202,-13.247200000000007,21.4634,175,75
2026-05-09 15:01:15.767,4,-0.88,1.45,-0.14,-33.8702,-7.327200000000005,27.8634,175,75
2026-05-09 15:01:15.778,4,-0.85,1.44,-0.18,-40.2702,2.4827999999999975,34.3934,175,75
2026-05-09 15:01:15.785,4,-0.78,1.42,-0.2,-45.090199999999996,14.192799999999991,41.0334,175,75
2026-05-09 15:01:15.798,4,-0.75,1.43,-0.21,-50.2702,25.532799999999995,48.1134,175,75
2026-05-09 15:01:15.810,4,-0.8,1.45,-0.2,-56.310199999999995,39.6228,53.7234,175,75
2026-05-09 15:01:15.833,4,-0.8,1.44,-0.28,-67.3402,90.72279999999999,64.3934,175,75
2026-05-09 15:01:15.846,4,-0.71,1.4,-0.34,-73.7402,144.50279999999998,73.6034,175,75
2026-05-09 15:01:15.846,4,-0.65,1.37,-0.3,-83.0102,184.6828,83.6034,175,75
2026-05-09 15:01:15.857,4,-0.6,1.37,-0.2,-94.8402,215.0528,92.9234,175,75
2026-05-09 15:01:15.892,4,-0.39,1.29,0.05,-125.88019999999999,249.44279999999998,102.9234,175,75
2026-05-09 15:01:15.904,4,-0.32,1.24,0.07,-137.8302,266.14279999999997,100.6134,175,75
2026-05-09 15:01:15.929,4,-0.22,1.2,0.11,-174.05020000000002,317.3628,99.2734,175,75
2026-05-09 15:01:15.949,4,-0.21,1.2,0.16,-185.03019999999998,335.59279999999995,101.8934,175,75
2026-05-09 15:01:15.949,4,-0.23,1.16,0.3,-198.8702,368.1628,107.1934,175,75
2026-05-09 15:01:15.972,4,-0.24,1.06,0.47,-214.35020000000003,394.9828,106.4634,175,75
2026-05-09 15:01:15.985,4,-0.23,0.98,0.62,-231.4302,410.2928,101.40339999999999,175,75
2026-05-09 15:01:15.995,4,-0.16,0.93,0.76,-245.7002,414.01279999999997,91.34339999999999,175,75
2026-05-09 15:01:16.043,4,-0.15,0.78,1.12,-274.5402,345.2328,48.6034,175,75
2026-05-09 15:01:16.054,4,-0.2,0.76,1.19,-282.16020000000003,346.9428,42.7434,175,75
2026-05-09 15:01:16.078,4,-0.31,0.7,1.49,-293.7402,322.8528,16.223399999999998,175,75
2026-05-09 15:01:16.092,4,-0.26,0.68,1.58,-299.78020000000004,302.2428,7.503399999999999,175,75
2026-05-09 15:01:16.132,4,-0.24,0.49,1.63,-314.90020000000004,219.01279999999997,-29.9966,175,75
2026-05-09 15:01:16.154,4,-0.29,0.45,1.64,-327.7702,159.8628,-46.7066,175,75
2026-05-09 15:01:16.154,4,-0.28,0.44,1.64,-332.59020000000004,143.4028,-55.4866,175,75
2026-05-09 15:01:16.165,4,-0.2,0.43,1.66,-338.4402,125.11280000000001,-63.776599999999995,175,75
2026-05-09 15:01:16.176,4,-0.15,0.43,1.66,-343.2602,103.5228,-69.81660000000001,175,75
2026-05-09 15:01:16.190,4,-0.14,0.43,1.68,-346.4302,69.86280000000001,-77.1366,175,75
2026-05-09 15:01:16.220,4,-0.19,0.41,1.67,-352.8302,36.33279999999999,-84.0866,175,75
2026-05-09 15:01:16.242,4,-0.25,0.35,1.64,-369.90020000000004,21.69279999999999,-90.6066,175,75
2026-05-09 15:01:16.252,4,-0.25,0.31,1.61,-376.6702,26.69279999999999,-92.4966,175,75
2026-05-09 15:01:16.262,4,-0.2,0.26,1.6,-385.9402,32.55279999999999,-96.3366,175,75
2026-05-09 15:01:16.273,4,-0.16,0.21,1.61,-392.0402,41.69279999999999,-95.79660000000001,175,75
2026-05-09 15:01:16.286,4,-0.14,0.16,1.66,-391.4302,54.7428,-94.20660000000001,175,75
2026-05-09 15:01:16.297,4,-0.11,0.07,1.78,-390.3302,72.5528,-88.8966,175,75
2026-05-09 15:01:16.312,4,-0.11,-0.02,2.0,-389.1102,70.41279999999999,-81.8266,175,75
2026-05-09 15:01:16.322,4,-0.2,-0.1,2.11,-384.5402,39.25279999999999,-84.3266,175,75
2026-05-09 15:01:16.341,4,-0.14,-0.42,2.39,-379.4802,13.342799999999997,-105.6066,175,75
2026-05-09 15:01:16.360,4,0.13,-0.7,2.6,-364.35020000000003,-7.027200000000008,-121.15660000000001,175,75
2026-05-09 15:01:16.372,4,0.08,-0.71,2.68,-350.7002,-27.937200000000004,-121.7066,175,75
2026-05-09 15:01:16.392,4,-0.15,-0.58,2.82,-317.10020000000003,-59.037200000000006,-116.7666,175,75
2026-05-09 15:01:16.403,4,-0.25,-0.52,3.04,-285.2702,-62.8772,-117.49660000000002,175,75
2026-05-09 15:01:16.403,4,-0.06,-0.52,3.28,-254.48020000000002,-58.117200000000004,-120.9166,175,75
2026-05-09 15:01:16.428,4,0.31,-0.54,3.41,-219.35020000000003,-104.7072,-120.5466,175,75
2026-05-09 15:01:16.438,4,0.22,-0.5,3.21,-173.8702,-171.3572,-119.02660000000002,175,75
2026-05-09 15:01:16.450,4,0.06,-0.15,2.67,-85.4502,-159.5272,-104.6966,175,75
2026-05-09 15:01:16.462,4,0.1,-0.04,2.57,-51.2402,-146.9072,-86.15660000000001,175,75
2026-05-09 15:01:16.472,4,0.02,-0.04,2.43,0.7698,-119.2172,-53.8966,175,75
2026-05-09 15:01:16.494,4,0.05,-0.16,2.39,35.2798,-90.9272,-34.7566,175,75
2026-05-09 15:01:16.505,4,0.11,-0.26,2.33,63.5698,-81.1072,-19.5766,175,75
2026-05-09 15:01:16.518,4,0.07,-0.21,2.25,83.2098,-80.3772,-7.4366,175,75
2026-05-09 15:01:16.549,4,-0.13,-0.02,2.13,161.0698,-17.447200000000002,72.9234,175,75
2026-05-09 15:01:16.549,4,-0.2,-0.08,2.14,174.6698,-12.517200000000003,94.0834,175,75
2026-05-09 15:01:16.579,4,-0.27,-0.15,2.13,186.6198,-16.357200000000006,113.1734,175,75
2026-05-09 15:01:16.587,4,-0.32,-0.2,2.1,195.82979999999998,-24.827200000000005,127.9234,175,75
2026-05-09 15:01:16.602,4,-0.31,-0.24,2.04,206.4998,-36.297200000000004,144.3334,175,75
2026-05-09 15:01:16.602,4,-0.29,-0.26,1.98,211.4398,-53.607200000000006,159.20340000000002,175,75
2026-05-09 15:01:16.613,4,-0.3,-0.26,1.86,211.6198,-72.5772,174.20340000000002,175,75
2026-05-09 15:01:16.647,4,-0.25,-0.2,1.62,207.34980000000002,-55.5572,205.73340000000002,175,75
2026-05-09 15:01:16.668,4,-0.14,-0.19,1.58,194.2998,-47.99720000000001,222.6234,175,75
2026-05-09 15:01:16.679,4,-0.14,-0.2,1.63,196.25979999999998,-53.7272,223.0534,175,75
2026-05-09 15:01:16.706,4,-0.23,-0.17,1.57,207.5398,-140.74720000000002,221.8934,175,75
2026-05-09 15:01:16.717,4,-0.33,-0.1,1.5,201.6798,-163.6672,213.23340000000002,175,75
2026-05-09 15:01:16.728,4,-0.38,-0.03,1.42,192.89979999999997,-164.5872,205.6134,175,75
2026-05-09 15:01:16.745,4,-0.3,0.03,1.32,186.1898,-149.7072,205.5534,175,75
2026-05-09 15:01:16.755,4,-0.24,0.05,1.24,181.7398,-136.4772,214.45340000000002,175,75
2026-05-09 15:01:16.765,4,-0.22,0.04,1.18,176.6198,-127.02720000000001,224.3334,175,75
2026-05-09 15:01:16.777,4,-0.24,-0.04,1.15,162.34980000000002,-106.8372,233.0534,175,75
2026-05-09 15:01:16.788,4,-0.21,-0.07,1.21,137.8398,-83.7972,240.0034,175,75
2026-05-09 15:01:16.802,4,-0.09,-0.02,1.29,111.4998,-84.6472,241.8334,175,75
2026-05-09 15:01:16.814,4,0.07,0.01,1.37,99.2998,-113.2472,235.1234,175,75
2026-05-09 15:01:16.826,4,0.2,0.01,1.37,91.8698,-152.99720000000002,224.1434,175,75
2026-05-09 15:01:16.833,4,0.18,0.02,1.24,77.71979999999999,-194.1572,214.3934,175,75
2026-05-09 15:01:16.858,4,0.08,0.07,0.99,51.3198,-196.53719999999998,204.0234,175,75
2026-05-09 15:01:16.858,4,0.08,0.12,0.95,36.6198,-175.1372,205.1234,175,75
2026-05-09 15:01:16.871,4,0.15,0.16,1.0,24.369799999999998,-141.1072,208.9034,175,75
2026-05-09 15:01:16.883,4,0.27,0.18,1.11,22.2898,-131.1072,211.6434,175,75
2026-05-09 15:01:16.896,4,0.37,0.16,1.25,25.5798,-151.7772,209.3934,175,75
2026-05-09 15:01:16.903,4,0.4,0.11,1.47,30.9498,-234.03719999999998,189.8134,175,75
2026-05-09 15:01:16.915,4,0.34,0.11,1.57,33.0198,-311.7172,166.2234,175,75
2026-05-09 15:01:16.926,4,0.24,0.16,1.56,33.6898,-376.8372,147.2534,175,75
2026-05-09 15:01:16.939,4,0.14,0.23,1.43,33.0798,-414.5872,132.3134,175,75
2026-05-09 15:01:16.960,4,0.05,0.34,0.76,8.389799999999997,-429.7072,106.0334,175,75
2026-05-09 15:01:16.973,4,0.16,0.4,0.39,-2.650199999999998,-394.8872,105.6134,175,75
2026-05-09 15:01:16.984,4,0.2,0.48,0.09,10.9498,-311.1072,134.3934,175,75
2026-05-09 15:01:16.996,4,0.14,0.47,0.03,36.7998,-171.7172,181.0334,175,75
2026-05-09 15:01:17.013,4,0.1,0.37,0.19,44.6098,-22.817200000000007,226.7734,175,75
2026-05-09 15:01:17.023,4,0.24,0.19,0.52,31.6798,78.5828,252.01340000000002,175,75
2026-05-09 15:01:17.034,4,0.52,-0.0,0.94,2.7197999999999993,92.3028,255.73340000000002,175,75
2026-05-09 15:01:17.042,4,0.68,-0.09,1.18,-19.050200000000004,20.352800000000002,237.7434,175,75
2026-05-09 15:01:17.067,4,0.46,-0.11,1.09,-38.3802,-167.1472,182.5634,175,75
2026-05-09 15:01:17.082,4,0.43,-0.1,0.82,-26.9202,-153.6072,184.2734,175,75
2026-05-09 15:01:17.082,4,0.46,-0.13,0.7,-21.4902,-120.4972,190.6134,175,75
2026-05-09 15:01:17.106,4,0.55,-0.19,0.68,-26.4902,-59.1572,204.0234,175,75
2026-05-09 15:01:17.106,4,0.58,-0.24,0.73,-37.7702,-14.277200000000008,212.7434,175,75
2026-05-09 15:01:17.119,4,0.68,-0.33,0.79,-49.720200000000006,24.0128,214.51340000000002,175,75
2026-05-09 15:01:17.129,4,0.81,-0.44,0.9,-61.1802,48.4028,210.2434,175,75
2026-05-09 15:01:17.141,4,0.86,-0.5,1.02,-67.7702,49.7428,198.35340000000002,175,75
2026-05-09 15:01:17.151,4,0.8,-0.56,1.13,-68.1302,48.0928,184.1434,175,75
2026-05-09 15:01:17.162,4,0.79,-0.62,1.21,-67.7102,52.8528,170.73340000000002,175,75
2026-05-09 15:01:17.173,4,0.84,-0.7,1.29,-72.9502,57.61279999999999,152.6234,175,75
2026-05-09 15:01:17.187,4,0.87,-0.7,1.38,-93.8702,57.422799999999995,122.4434,175,75
2026-05-09 15:01:17.197,4,0.9,-0.58,1.44,-118.7402,51.202799999999996,95.18339999999999,175,75
2026-05-09 15:01:17.214,4,0.92,-0.41,1.46,-142.7702,44.25279999999999,67.8634,175,75
2026-05-09 15:01:17.224,4,0.87,-0.39,1.41,-144.90019999999998,41.5128,52.7434,175,75
2026-05-09 15:01:17.236,4,0.8,-0.55,1.37,-136.61020000000002,44.922799999999995,38.4134,175,75
