Time,ID,Ax,Ay,Az,Gx,Gy,Gz,Height,Weight
2026-05-07 18:27:57.831,4,-0.09,0.4,1.8,-16.2788,-90.4284,34.4964,175,75
2026-05-07 18:27:57.842,4,-0.07,0.41,1.72,-16.768800000000002,-80.1884,34.9864,175,75
2026-05-07 18:27:57.852,4,-0.07,0.4,1.66,-19.3288,-32.748400000000004,42.666399999999996,175,75
2026-05-07 18:27:57.883,4,-0.09,0.4,1.72,-22.9888,0.12160000000000082,46.9964,175,75
2026-05-07 18:27:57.922,4,-0.03,0.36,1.77,-31.8288,4.811600000000002,37.7264,175,75
2026-05-07 18:27:57.922,4,-0.04,0.36,1.75,-34.6888,7.011600000000001,34.376400000000004,175,75
2026-05-07 18:27:57.950,4,-0.04,0.36,1.73,-38.8988,18.2316,34.0664,175,75
2026-05-07 18:27:57.960,4,-0.01,0.32,1.74,-41.8888,26.091600000000003,34.0064,175,75
2026-05-07 18:27:57.990,4,-0.0,0.26,1.76,-49.6288,22.131600000000002,22.726399999999998,175,75
2026-05-07 18:27:58.038,4,-0.04,0.22,1.76,-49.3888,23.9616,6.3264,175,75
2026-05-07 18:27:58.062,4,-0.05,0.18,1.75,-51.1588,22.801599999999997,1.2063999999999986,175,75
2026-05-07 18:27:58.062,4,-0.08,0.15,1.73,-55.7288,18.7116,-6.1736,175,75
2026-05-07 18:27:58.073,4,-0.07,0.15,1.72,-59.8788,14.9316,-12.273600000000002,175,75
2026-05-07 18:27:58.077,4,-0.07,0.15,1.69,-62.498799999999996,12.4316,-15.8036,175,75
2026-05-07 18:27:58.104,4,-0.11,0.18,1.67,-67.9888,13.101600000000001,-19.713600000000003,175,75
2026-05-07 18:27:58.128,4,-0.14,0.23,1.77,-72.1288,10.1216,-19.5236,175,75
2026-05-07 18:27:58.138,4,-0.09,0.19,1.79,-69.80879999999999,-8.238399999999999,-22.9436,175,75
2026-05-07 18:27:58.161,4,-0.01,0.12,1.67,-74.5088,-25.3084,-31.963600000000003,175,75
2026-05-07 18:27:58.186,4,-0.05,0.1,1.6,-79.2688,-18.7184,-32.753600000000006,175,75
2026-05-07 18:27:58.197,4,-0.16,0.07,1.58,-83.58879999999999,-3.298399999999999,-29.3436,175,75
2026-05-07 18:27:58.199,4,-0.16,0.04,1.62,-88.0488,16.401600000000002,-23.9736,175,75
2026-05-07 18:27:58.210,4,-0.13,0.0,1.67,-92.30879999999999,27.131600000000002,-22.213600000000003,175,75
2026-05-07 18:27:58.221,4,-0.13,-0.04,1.72,-95.7888,26.6416,-22.393600000000003,175,75
2026-05-07 18:27:58.249,4,-0.14,-0.04,1.68,-104.2688,-2.2584,-29.5236,175,75
2026-05-07 18:27:58.260,4,-0.15,-0.06,1.62,-106.02879999999999,-1.5884,-29.6536,175,75
2026-05-07 18:27:58.276,4,-0.19,-0.12,1.57,-107.24879999999999,18.7816,-25.133599999999998,175,75
2026-05-07 18:27:58.298,4,-0.2,-0.14,1.62,-105.4888,40.30159999999999,-20.8636,175,75
2026-05-07 18:27:58.308,4,-0.19,-0.18,1.69,-103.9588,50.001599999999996,-19.2236,175,75
2026-05-07 18:27:58.319,4,-0.14,-0.25,1.75,-102.0088,42.6816,-23.433600000000002,175,75
2026-05-07 18:27:58.332,4,-0.15,-0.3,1.74,-100.2988,25.0016,-30.383599999999998,175,75
2026-05-07 18:27:58.343,4,-0.17,-0.3,1.73,-97.4388,20.911600000000004,-33.7936,175,75
2026-05-07 18:27:58.360,4,-0.14,-0.28,1.6,-90.7888,41.821600000000004,-44.343599999999995,175,75
2026-05-07 18:27:58.372,4,-0.21,-0.28,1.55,-84.6288,74.3916,-42.5736,175,75
2026-05-07 18:27:58.409,4,-0.36,-0.24,1.75,-77.24879999999999,187.98160000000001,-14.223600000000001,175,75
2026-05-07 18:27:58.423,4,-0.33,-0.25,1.85,-74.5688,185.00160000000002,-13.003600000000002,175,75
2026-05-07 18:27:58.435,4,-0.26,-0.26,1.96,-69.07879999999999,164.26160000000002,-15.1936,175,75
2026-05-07 18:27:58.441,4,-0.19,-0.31,2.01,-63.8388,120.24159999999999,-24.3436,175,75
2026-05-07 18:27:58.482,4,-0.29,-0.2,1.8,-50.1188,-11.0384,-48.063599999999994,175,75
2026-05-07 18:27:58.513,4,-0.25,-0.22,1.59,-49.1988,-1.9583999999999993,-45.623599999999996,175,75
2026-05-07 18:27:58.517,4,-0.22,-0.2,1.52,-49.3288,28.5316,-36.4136,175,75
2026-05-07 18:27:58.531,4,-0.25,-0.16,1.52,-48.4088,59.081599999999995,-27.3336,175,75
2026-05-07 18:27:58.542,4,-0.28,-0.13,1.59,-46.5788,94.3216,-15.133599999999998,175,75
2026-05-07 18:27:58.552,4,-0.31,-0.11,1.69,-47.0088,114.3916,-6.3536,175,75
2026-05-07 18:27:58.566,4,-0.36,-0.1,1.8,-46.2188,114.63159999999999,-1.2335999999999991,175,75
2026-05-07 18:27:58.567,4,-0.4,-0.11,1.89,-44.4488,94.5116,-2.273600000000002,175,75
2026-05-07 18:27:58.618,4,-0.4,-0.05,1.63,-45.1788,-11.0984,-14.713600000000003,175,75
2026-05-07 18:27:58.635,4,-0.45,-0.02,1.53,-51.3988,43.961600000000004,6.026399999999999,175,75
2026-05-07 18:27:58.646,4,-0.48,-0.03,1.56,-52.6788,67.5616,15.046399999999998,175,75
2026-05-07 18:27:58.656,4,-0.47,-0.04,1.6,-53.0488,77.9216,19.066399999999998,175,75
2026-05-07 18:27:58.679,4,-0.44,-0.09,1.74,-50.7888,56.9516,14.3764,175,75
2026-05-07 18:27:58.690,4,-0.46,-0.12,1.75,-45.1788,25.731600000000004,5.596399999999999,175,75
2026-05-07 18:27:58.715,4,-0.43,-0.09,1.47,-37.0688,-2.0784000000000002,-5.683600000000002,175,75
2026-05-07 18:27:58.738,4,-0.42,-0.09,1.44,-40.1188,11.8216,-0.4436,175,75
2026-05-07 18:27:58.738,4,-0.54,-0.07,1.54,-38.4088,42.501599999999996,8.4564,175,75
2026-05-07 18:27:58.769,4,-0.55,-0.07,1.93,-22.0688,31.8216,8.526399999999999,175,75
2026-05-07 18:27:58.785,4,-0.58,-0.13,1.89,-12.128799999999998,-11.0984,-1.1736000000000004,175,75
2026-05-07 18:27:58.793,4,-0.56,-0.1,1.75,-7.8588,-13.6584,-1.0535999999999994,175,75
2026-05-07 18:27:58.810,4,-0.55,-0.05,1.71,-1.5187999999999997,-3.5984,5.346399999999999,175,75
2026-05-07 18:27:58.818,4,-0.5,-0.07,1.72,4.3911999999999995,6.3416,8.6464,175,75
2026-05-07 18:27:58.832,4,-0.49,-0.07,1.69,8.1112,5.6716000000000015,7.3664000000000005,175,75
2026-05-07 18:27:58.850,4,-0.5,-0.01,1.53,11.6512,4.1416,6.2064,175,75
2026-05-07 18:27:58.878,4,-0.51,0.02,1.46,9.391200000000001,5.7316,11.3264,175,75
2026-05-07 18:27:58.878,4,-0.46,-0.01,1.45,5.1212,-0.6783999999999999,10.4164,175,75
2026-05-07 18:27:58.895,4,-0.38,-0.05,1.44,2.6212,-13.8484,6.3864,175,75
2026-05-07 18:27:58.924,4,-0.3,-0.08,1.36,-0.8487999999999998,-25.7384,-3.8536,175,75
2026-05-07 18:27:58.934,4,-0.25,-0.26,1.29,-6.8288,20.6716,0.47639999999999816,175,75
2026-05-07 18:27:58.934,4,-0.33,-0.31,1.28,-10.418800000000001,36.6416,-4.2836,175,75
2026-05-07 18:27:58.957,4,-0.41,-0.23,1.32,-14.6888,63.8416,5.2864,175,75
2026-05-07 18:27:58.970,4,-0.49,-0.19,1.35,-18.7788,68.6516,6.5664,175,75
2026-05-07 18:27:58.992,4,-0.69,-0.27,1.77,-16.2788,84.7516,32.8464,175,75
2026-05-07 18:27:59.029,4,-0.58,-0.57,1.82,21.2812,-92.4384,-8.433600000000002,175,75
2026-05-07 18:27:59.031,4,-0.32,-0.35,1.4,24.821199999999997,-88.78840000000001,-10.683600000000002,175,75
2026-05-07 18:27:59.063,4,-0.28,-0.3,1.28,14.581199999999999,-9.5184,15.5964,175,75
2026-05-07 18:27:59.077,4,-0.22,-0.32,1.53,12.621200000000002,-10.548399999999999,11.9964,175,75
2026-05-07 18:27:59.091,4,-0.18,-0.35,1.65,15.731200000000001,-34.3284,3.3964,175,75
2026-05-07 18:27:59.112,4,-0.22,-0.32,1.52,12.011199999999999,-26.2884,-1.4736000000000011,175,75
2026-05-07 18:27:59.121,4,-0.21,-0.27,1.49,16.0412,-4.5184,1.0864000000000011,175,75
2026-05-07 18:27:59.138,4,-0.3,-0.27,1.61,17.8712,14.7516,4.1364,175,75
2026-05-07 18:27:59.144,4,-0.35,-0.26,1.59,10.0612,9.4516,0.7763999999999989,175,75
2026-05-07 18:27:59.192,4,-0.44,-0.12,1.54,-4.0188,-11.5884,-1.8435999999999986,175,75
2026-05-07 18:27:59.230,4,-0.39,-0.08,1.53,-13.5288,-15.308399999999999,0.5963999999999992,175,75
2026-05-07 18:27:59.237,4,-0.4,-0.09,1.53,-13.2288,-7.868399999999999,2.846399999999999,175,75
2026-05-07 18:27:59.250,4,-0.39,-0.11,1.57,-12.2488,-1.7083999999999993,6.756399999999999,175,75
2026-05-07 18:27:59.270,4,-0.41,-0.19,1.61,-10.668800000000001,-10.1284,9.3764,175,75
2026-05-07 18:27:59.295,4,-0.45,-0.24,1.52,-8.9588,-19.578400000000002,11.8764,175,75
2026-05-07 18:27:59.306,4,-0.44,-0.27,1.44,-5.1788,-16.348399999999998,16.3264,175,75
2026-05-07 18:27:59.328,4,-0.42,-0.3,1.44,-1.8887999999999998,-15.738399999999999,17.3064,175,75
2026-05-07 18:27:59.351,4,-0.37,-0.3,1.45,2.0812,-20.3684,15.9564,175,75
2026-05-07 18:27:59.351,4,-0.37,-0.3,1.46,3.3612,-20.1884,15.3464,175,75
2026-05-07 18:27:59.364,4,-0.37,-0.29,1.46,5.1212,-21.0384,14.676400000000001,175,75
2026-05-07 18:27:59.374,4,-0.39,-0.28,1.46,6.9512,-23.7184,13.1564,175,75
2026-05-07 18:27:59.385,4,-0.44,-0.24,1.45,7.0112000000000005,-22.6284,12.116399999999999,175,75
2026-05-07 18:27:59.398,4,-0.42,-0.2,1.47,6.591200000000001,-18.5384,11.7564,175,75
2026-05-07 18:27:59.414,4,-0.43,-0.2,1.49,6.2812,-19.9984,12.2464,175,75
2026-05-07 18:27:59.414,4,-0.44,-0.2,1.49,5.8012,-22.8084,12.426400000000001,175,75
2026-05-07 18:27:59.425,4,-0.46,-0.19,1.48,3.4812000000000003,-25.6784,12.0564,175,75
2026-05-07 18:27:59.436,4,-0.44,-0.18,1.49,-0.9687999999999999,-28.1084,12.2464,175,75
2026-05-07 18:27:59.457,4,-0.43,-0.2,1.48,-3.8388,-31.7084,13.276399999999999,175,75
2026-05-07 18:27:59.457,4,-0.43,-0.22,1.47,-7.1888,-35.8584,14.1364,175,75
2026-05-07 18:27:59.473,4,-0.44,-0.22,1.44,-9.9988,-39.8184,14.9864,175,75
2026-05-07 18:27:59.486,4,-0.47,-0.23,1.42,-13.5988,-37.6284,17.7864,175,75
2026-05-07 18:27:59.509,4,-0.46,-0.24,1.45,-19.9988,-32.8084,21.3264,175,75
2026-05-07 18:27:59.520,4,-0.45,-0.25,1.46,-21.1588,-33.3584,22.8464,175,75
2026-05-07 18:27:59.520,4,-0.44,-0.27,1.47,-21.2788,-33.5984,23.9464,175,75
2026-05-07 18:27:59.532,4,-0.42,-0.28,1.44,-20.7288,-32.9884,24.6764,175,75
2026-05-07 18:27:59.549,4,-0.41,-0.29,1.41,-18.5288,-32.928399999999996,25.7164,175,75
2026-05-07 18:27:59.560,4,-0.4,-0.3,1.38,-16.518800000000002,-29.8784,24.6164,175,75
2026-05-07 18:27:59.610,4,-0.4,-0.32,1.41,-6.8288,-24.2684,23.0964,175,75
2026-05-07 18:27:59.620,4,-0.4,-0.32,1.41,-6.0988,-24.328400000000002,22.3664,175,75
2026-05-07 18:27:59.624,4,-0.37,-0.3,1.41,-5.4188,-20.4884,22.8464,175,75
2026-05-07 18:27:59.661,4,-0.39,-0.26,1.43,-1.2787999999999995,-8.968399999999999,26.6964,175,75
2026-05-07 18:27:59.673,4,-0.4,-0.24,1.43,-0.8487999999999998,-8.4784,27.6064,175,75
2026-05-07 18:27:59.684,4,-0.42,-0.24,1.42,-1.3388,-8.1784,28.0964,175,75
2026-05-07 18:27:59.697,4,-0.42,-0.23,1.42,-1.7687999999999997,-7.8084,28.0964,175,75
2026-05-07 18:27:59.709,4,-0.43,-0.23,1.42,-1.4588,-7.5684,27.1764,175,75
2026-05-07 18:27:59.723,4,-0.44,-0.24,1.4,-3.0488,-8.9084,25.2864,175,75
2026-05-07 18:27:59.746,4,-0.4,-0.28,1.36,-3.8388,-11.1584,20.226399999999998,175,75
2026-05-07 18:27:59.763,4,-0.38,-0.29,1.36,-2.6788,-8.7884,17.0564,175,75
2026-05-07 18:27:59.764,4,-0.39,-0.28,1.36,-1.8288000000000002,-6.7684,13.706399999999999,175,75
2026-05-07 18:27:59.778,4,-0.4,-0.3,1.35,-1.0287999999999995,-2.9284,12.546399999999998,175,75
2026-05-07 18:27:59.814,4,-0.43,-0.29,1.37,2.5612,0.30160000000000053,11.2064,175,75
2026-05-07 18:27:59.814,4,-0.45,-0.28,1.36,4.2112,0.36160000000000103,11.3264,175,75
2026-05-07 18:27:59.828,4,-0.47,-0.28,1.38,4.6411999999999995,-0.06840000000000046,11.4464,175,75
2026-05-07 18:27:59.838,4,-0.47,-0.28,1.37,5.0012,-1.7683999999999997,10.2264,175,75
2026-05-07 18:27:59.858,4,-0.45,-0.29,1.37,4.9412,-1.4084000000000003,9.0064,175,75
2026-05-07 18:27:59.858,4,-0.44,-0.29,1.34,5.9812,-0.5483999999999991,8.3964,175,75
2026-05-07 18:27:59.879,4,-0.43,-0.32,1.33,10.4312,2.191600000000001,6.3864,175,75
2026-05-07 18:27:59.889,4,-0.42,-0.35,1.34,13.301200000000001,4.7516,4.436399999999999,175,75
2026-05-07 18:27:59.908,4,-0.42,-0.38,1.31,17.7512,6.581600000000002,-0.9936000000000007,175,75
2026-05-07 18:27:59.918,4,-0.43,-0.37,1.29,21.4012,7.2516,-2.8836000000000013,175,75
2026-05-07 18:27:59.929,4,-0.45,-0.37,1.32,25.121199999999998,9.511600000000001,-3.063600000000001,175,75
2026-05-07 18:27:59.941,4,-0.46,-0.35,1.36,26.3412,10.9116,-2.9436,175,75
2026-05-07 18:27:59.947,4,-0.48,-0.32,1.38,27.2012,10.851600000000001,-2.6936,175,75
2026-05-07 18:27:59.979,4,-0.51,-0.29,1.43,26.9512,8.171600000000002,-1.7835999999999999,175,75
2026-05-07 18:27:59.991,4,-0.52,-0.26,1.46,21.6512,3.4116,-2.7535999999999987,175,75
2026-05-07 18:28:00.014,4,-0.47,-0.22,1.44,12.5612,-0.6783999999999999,-1.0535999999999994,175,75
2026-05-07 18:28:00.029,4,-0.47,-0.21,1.45,10.2512,0.24160000000000004,-0.6235999999999997,175,75
2026-05-07 18:28:00.040,4,-0.46,-0.22,1.47,6.6512,1.8216,-0.323599999999999,175,75
2026-05-07 18:28:00.050,4,-0.47,-0.21,1.47,4.6411999999999995,3.4716000000000005,0.7763999999999989,175,75
2026-05-07 18:28:00.061,4,-0.45,-0.23,1.46,4.5812,5.9116,0.9563999999999986,175,75
2026-05-07 18:28:00.083,4,-0.52,-0.26,1.44,1.5312000000000001,8.901600000000002,3.0364000000000004,175,75
2026-05-07 18:28:00.096,4,-0.53,-0.27,1.45,-0.29879999999999995,6.211600000000001,2.976399999999998,175,75
2026-05-07 18:28:00.107,4,-0.53,-0.26,1.45,-1.0987999999999998,1.031600000000001,2.2464000000000013,175,75
2026-05-07 18:28:00.118,4,-0.52,-0.27,1.45,-0.9088000000000003,0.06160000000000032,2.2464000000000013,175,75
2026-05-07 18:28:00.122,4,-0.53,-0.29,1.45,-0.6688000000000001,-1.468399999999999,2.9163999999999994,175,75
2026-05-07 18:28:00.140,4,-0.52,-0.31,1.43,-1.5788000000000002,-2.808399999999999,2.1163999999999987,175,75
2026-05-07 18:28:00.162,4,-0.47,-0.28,1.39,-0.17879999999999985,-3.5984,1.936399999999999,175,75
2026-05-07 18:28:00.184,4,-0.47,-0.33,1.44,1.1612,-0.5483999999999991,1.3263999999999996,175,75
2026-05-07 18:28:00.197,4,-0.48,-0.31,1.42,-0.1187999999999998,-0.6083999999999996,-0.2535999999999987,175,75
2026-05-07 18:28:00.221,4,-0.5,-0.29,1.4,2.2012,-0.7983999999999991,0.22639999999999816,175,75
2026-05-07 18:28:00.237,4,-0.51,-0.28,1.43,0.9812000000000003,-3.4783999999999997,0.7164000000000001,175,75
2026-05-07 18:28:00.237,4,-0.51,-0.26,1.41,0.0011999999999998678,-5.4284,1.2664000000000009,175,75
2026-05-07 18:28:00.248,4,-0.5,-0.26,1.41,-0.29879999999999995,-5.128399999999999,1.816399999999998,175,75
2026-05-07 18:28:00.256,4,-0.47,-0.26,1.42,0.12119999999999997,-3.298399999999999,2.3663999999999987,175,75
2026-05-07 18:28:00.268,4,-0.44,-0.26,1.42,0.6112000000000002,-1.7083999999999993,2.176400000000001,175,75
2026-05-07 18:28:00.299,4,-0.43,-0.29,1.38,2.9912,5.121600000000001,0.47639999999999816,175,75
2026-05-07 18:28:00.309,4,-0.44,-0.29,1.4,5.0012,8.471599999999999,0.22639999999999816,175,75
2026-05-07 18:28:00.324,4,-0.49,-0.3,1.46,10.4312,13.471599999999999,-1.1736000000000004,175,75
2026-05-07 18:28:00.352,4,-0.48,-0.26,1.47,16.2812,19.2616,-2.273600000000002,175,75
2026-05-07 18:28:00.365,4,-0.45,-0.25,1.46,19.1512,30.9716,-2.0836000000000006,175,75
2026-05-07 18:28:00.380,4,-0.42,-0.26,1.47,21.1612,38.351600000000005,-1.7835999999999999,175,75
2026-05-07 18:28:00.391,4,-0.39,-0.26,1.49,24.2712,48.1716,-2.023600000000002,175,75
2026-05-07 18:28:00.402,4,-0.38,-0.29,1.49,27.0812,59.1416,-2.6336000000000013,175,75
2026-05-07 18:28:00.419,4,-0.36,-0.32,1.51,33.0512,80.3016,-5.1936,175,75
2026-05-07 18:28:00.447,4,-0.39,-0.29,1.52,38.0512,85.24159999999999,-5.803599999999999,175,75
2026-05-07 18:28:00.447,4,-0.46,-0.27,1.52,39.3912,85.1216,-5.133600000000001,175,75
2026-05-07 18:28:00.488,4,-0.56,-0.29,1.65,29.821199999999997,71.3416,-0.073599999999999,175,75
2026-05-07 18:28:00.500,4,-0.52,-0.24,1.72,29.211199999999998,79.0816,6.086399999999999,175,75
2026-05-07 18:28:00.514,4,-0.61,-0.12,1.84,34.7612,94.5116,19.3764,175,75
2026-05-07 18:28:00.528,4,-0.62,-0.13,1.97,45.3112,95.5416,29.0664,175,75
2026-05-07 18:28:00.538,4,-0.72,-0.13,2.01,48.721199999999996,99.1416,41.2064,175,75
2026-05-07 18:28:00.549,4,-0.76,-0.1,1.99,48.4812,110.7316,51.996399999999994,175,75
2026-05-07 18:28:00.563,4,-0.74,-0.11,1.95,48.3612,114.2616,61.386399999999995,175,75
2026-05-07 18:28:00.579,4,-0.81,-0.04,1.87,40.6712,111.3416,66.8764,175,75
2026-05-07 18:28:00.584,4,-0.97,0.1,1.86,41.7712,104.5116,77.5464,175,75
2026-05-07 18:28:00.597,4,-1.01,0.16,2.07,45.1912,91.5816,97.2364,175,75
2026-05-07 18:28:00.612,4,-0.99,0.07,2.11,52.2012,46.461600000000004,100.16640000000001,175,75
2026-05-07 18:28:00.624,4,-0.92,-0.04,2.15,59.5812,-0.5483999999999991,89.6764,175,75
2026-05-07 18:28:00.655,4,-0.53,-0.2,2.41,105.00120000000001,-177.86839999999998,48.3964,175,75
2026-05-07 18:28:00.676,4,-0.36,-0.55,2.07,133.5412,-306.76840000000004,-22.3336,175,75
2026-05-07 18:28:00.688,4,-0.45,-0.51,1.85,131.0412,-360.9784,-44.7736,175,75
2026-05-07 18:28:00.701,4,-0.6,-0.4,1.63,131.1612,-343.71840000000003,-55.9936,175,75
2026-05-07 18:28:00.714,4,-0.52,-0.33,1.48,119.64120000000001,-282.4384,-55.2636,175,75
2026-05-07 18:28:00.725,4,-0.24,-0.36,1.29,95.3112,-227.6284,-58.7936,175,75
2026-05-07 18:28:00.746,4,0.01,-0.45,1.05,73.6012,-196.1584,-87.1536,175,75
2026-05-07 18:28:00.772,4,0.18,-0.45,1.08,50.3712,-116.28840000000001,-111.7836,175,75
2026-05-07 18:28:00.781,4,0.21,-0.45,1.16,24.5112,-92.6284,-128.1236,175,75
2026-05-07 18:28:00.826,4,0.15,-0.37,1.33,-35.9688,-106.5284,-186.5436,175,75
2026-05-07 18:28:00.852,4,0.04,-0.34,1.26,-67.7388,-90.9184,-194.71359999999999,175,75
2026-05-07 18:28:00.863,4,0.02,-0.29,1.29,-80.66879999999999,-69.8784,-191.3536,175,75
2026-05-07 18:28:00.875,4,0.01,-0.24,1.35,-92.91879999999999,-46.7084,-184.7736,175,75
2026-05-07 18:28:00.898,4,-0.02,-0.24,1.43,-106.21879999999999,-20.2484,-172.15359999999998,175,75
2026-05-07 18:28:00.911,4,-0.05,-0.23,1.45,-112.24879999999999,-5.128399999999999,-163.2436,175,75
2026-05-07 18:28:00.923,4,-0.05,-0.21,1.52,-114.0188,14.631599999999999,-154.1036,175,75
2026-05-07 18:28:00.932,4,-0.01,-0.21,1.59,-114.0188,18.9616,-148.0036,175,75
2026-05-07 18:28:00.944,4,-0.05,-0.21,1.63,-110.96879999999999,11.401600000000002,-143.8536,175,75
2026-05-07 18:28:00.959,4,-0.06,-0.19,1.64,-105.9088,8.101600000000001,-140.0736,175,75
2026-05-07 18:28:00.971,4,-0.12,-0.15,1.62,-100.8488,5.4816,-131.96359999999999,175,75
2026-05-07 18:28:00.982,4,-0.15,-0.13,1.56,-95.96879999999999,8.101600000000001,-126.2936,175,75
2026-05-07 18:28:01.000,4,-0.21,-0.12,1.47,-85.35879999999999,35.1216,-108.1836,175,75
2026-05-07 18:28:01.020,4,-0.22,-0.12,1.47,-82.24879999999999,49.2016,-101.9636,175,75
2026-05-07 18:28:01.031,4,-0.2,-0.1,1.59,-72.3788,62.6216,-91.3536,175,75
2026-05-07 18:28:01.063,4,-0.18,-0.06,1.62,-50.4888,30.301599999999997,-86.47359999999999,175,75
2026-05-07 18:28:01.086,4,-0.28,-0.05,1.49,-33.2888,33.0416,-78.8536,175,75
2026-05-07 18:28:01.094,4,-0.32,-0.01,1.49,-25.9088,47.4316,-73.36359999999999,175,75
2026-05-07 18:28:01.104,4,-0.32,0.04,1.53,-19.5688,54.5116,-65.9336,175,75
2026-05-07 18:28:01.133,4,-0.25,0.13,1.55,-9.018799999999999,52.9816,-55.623599999999996,175,75
2026-05-07 18:28:01.148,4,-0.27,0.2,1.56,-6.2787999999999995,49.02160000000001,-48.4936,175,75
2026-05-07 18:28:01.159,4,-0.24,0.3,1.58,-1.5788000000000002,42.4316,-38.5536,175,75
2026-05-07 18:28:01.174,4,-0.23,0.36,1.57,4.8212,27.131600000000002,-30.743599999999997,175,75
2026-05-07 18:28:01.185,4,-0.24,0.38,1.55,10.6112,21.091600000000003,-24.2236,175,75
2026-05-07 18:28:01.195,4,-0.24,0.39,1.51,15.4912,19.5716,-18.1236,175,75
2026-05-07 18:28:01.214,4,-0.25,0.46,1.45,19.1512,39.5116,-4.403600000000001,175,75
2026-05-07 18:28:01.228,4,-0.25,0.53,1.51,19.5812,49.321600000000004,6.756399999999999,175,75
2026-05-07 18:28:01.240,4,-0.24,0.56,1.6,19.821199999999997,47.6816,15.1664,175,75
2026-05-07 18:28:01.291,4,-0.06,0.54,1.58,17.5612,-31.7084,18.6464,175,75
2026-05-07 18:28:01.302,4,-0.08,0.57,1.52,16.8312,-20.5484,20.4164,175,75
2026-05-07 18:28:01.318,4,-0.13,0.61,1.56,15.801200000000001,16.3416,29.8664,175,75
2026-05-07 18:28:01.328,4,-0.14,0.59,1.65,15.801200000000001,23.411600000000004,32.916399999999996,175,75
2026-05-07 18:28:01.340,4,-0.13,0.55,1.74,15.801200000000001,19.1416,32.6064,175,75
2026-05-07 18:28:01.350,4,-0.1,0.49,1.78,16.5912,-2.808399999999999,27.4864,175,75
2026-05-07 18:28:01.361,4,-0.12,0.44,1.75,17.5612,-31.0384,17.8464,175,75
2026-05-07 18:28:01.448,4,0.09,0.33,1.58,4.2712,2.621600000000001,20.226399999999998,175,75
2026-05-07 18:28:01.470,4,0.06,0.44,1.68,-0.2387999999999999,10.851600000000001,16.6364,175,75
2026-05-07 18:28:01.494,4,0.01,0.48,1.64,0.25119999999999987,5.1815999999999995,17.4264,175,75
2026-05-07 18:28:01.504,4,-0.05,0.48,1.58,-0.9088000000000003,12.921600000000002,19.4964,175,75
2026-05-07 18:28:01.512,4,-0.02,0.46,1.59,-1.7687999999999997,33.351600000000005,22.4864,175,75
2026-05-07 18:28:01.528,4,0.07,0.4,1.68,-2.2488,43.961600000000004,21.6364,175,75
2026-05-07 18:28:01.553,4,0.0,0.35,1.73,-4.808800000000001,28.231600000000004,6.9963999999999995,175,75
2026-05-07 18:28:01.575,4,-0.05,0.37,1.72,-4.878799999999999,27.0716,3.276399999999999,175,75
2026-05-07 18:28:01.590,4,-0.03,0.33,1.78,-3.2888,19.8716,0.8963999999999999,175,75
2026-05-07 18:28:01.601,4,-0.02,0.3,1.79,-3.8388,6.701599999999999,-3.2436000000000007,175,75
2026-05-07 18:28:01.628,4,-0.02,0.31,1.65,-3.9588,-1.1584000000000003,-11.723600000000001,175,75
2026-05-07 18:28:01.656,4,-0.09,0.34,1.62,1.5312000000000001,19.1416,-11.2336,175,75
2026-05-07 18:28:01.656,4,-0.13,0.35,1.66,2.2012,29.511599999999998,-8.8536,175,75
2026-05-07 18:28:01.687,4,-0.14,0.36,1.75,1.8312000000000002,21.8916,-5.6236,175,75
2026-05-07 18:28:01.716,4,-0.06,0.31,1.73,6.0412,11.3416,-4.2836,175,75
2026-05-07 18:28:01.716,4,-0.07,0.32,1.74,7.1411999999999995,12.3716,-4.893599999999999,175,75
2026-05-07 18:28:01.728,4,-0.08,0.34,1.75,7.3812,13.041599999999999,-4.893599999999999,175,75
2026-05-07 18:28:01.739,4,-0.11,0.36,1.76,7.8712,10.9116,-5.133600000000001,175,75
2026-05-07 18:28:01.749,4,-0.13,0.38,1.77,8.0512,8.471599999999999,-3.433600000000002,175,75
2026-05-07 18:28:01.758,4,-0.17,0.42,1.74,6.1012,3.5915999999999997,-0.933600000000002,175,75
2026-05-07 18:28:01.776,4,-0.19,0.45,1.69,0.7312000000000003,3.1016000000000012,1.0263999999999989,175,75
2026-05-07 18:28:01.784,4,-0.15,0.48,1.61,-5.1788,3.2316000000000003,3.766399999999999,175,75
2026-05-07 18:28:01.813,4,-0.14,0.45,1.55,-11.698799999999999,10.0016,9.9264,175,75
2026-05-07 18:28:01.848,4,-0.02,0.35,1.75,-26.768800000000002,-41.4084,-6.233599999999999,175,75
2026-05-07 18:28:01.855,4,-0.08,0.33,1.7,-27.7388,-47.3784,-9.343599999999999,175,75
2026-05-07 18:28:01.874,4,-0.07,0.31,1.7,-28.6588,-40.248400000000004,-11.113600000000002,175,75
2026-05-07 18:28:01.874,4,-0.0,0.29,1.73,-27.9188,-43.1084,-13.853600000000004,175,75
2026-05-07 18:28:01.896,4,0.01,0.26,1.73,-27.4988,-50.4884,-17.883599999999998,175,75
2026-05-07 18:28:01.909,4,-0.03,0.24,1.67,-25.7288,-44.5784,-18.1236,175,75
2026-05-07 18:28:01.921,4,-0.07,0.25,1.66,-21.2188,-31.4084,-17.3336,175,75
2026-05-07 18:28:01.921,4,-0.06,0.25,1.67,-14.6888,-13.4184,-15.4436,175,75
2026-05-07 18:28:01.929,4,-0.01,0.23,1.72,-7.0688,-0.4884000000000004,-13.063599999999997,175,75
2026-05-07 18:28:01.943,4,-0.04,0.19,1.75,2.5612,10.4816,-8.1236,175,75
2026-05-07 18:28:01.958,4,-0.06,0.17,1.74,7.5012,15.7316,-6.9636,175,75
2026-05-07 18:28:01.969,4,-0.06,0.21,1.73,11.891200000000001,25.6716,-2.6936,175,75
2026-05-07 18:28:01.988,4,-0.01,0.26,1.7,19.4512,25.6716,5.166399999999999,175,75
2026-05-07 18:28:02.008,4,0.01,0.28,1.7,22.0112,18.651600000000002,7.7864,175,75
2026-05-07 18:28:02.020,4,0.05,0.28,1.67,24.2712,14.511600000000001,7.666399999999999,175,75
2026-05-07 18:28:02.031,4,0.09,0.29,1.59,24.7612,13.4116,5.6564,175,75
2026-05-07 18:28:02.046,4,0.09,0.3,1.53,23.8412,20.6716,3.6464,175,75
2026-05-07 18:28:02.055,4,0.09,0.34,1.55,18.4812,41.461600000000004,1.566399999999998,175,75
2026-05-07 18:28:02.066,4,0.07,0.36,1.61,15.801200000000001,41.581599999999995,-0.3836000000000013,175,75
2026-05-07 18:28:02.093,4,0.02,0.37,1.66,14.031199999999998,40.30159999999999,-1.2335999999999991,175,75
2026-05-07 18:28:02.112,4,-0.03,0.41,1.74,8.231200000000001,19.811600000000002,-4.833600000000001,175,75
2026-05-07 18:28:02.127,4,-0.03,0.4,1.74,8.1112,16.8916,-4.773600000000002,175,75
2026-05-07 18:28:02.151,4,-0.08,0.36,1.79,10.1212,22.4316,-1.2936000000000014,175,75
2026-05-07 18:28:02.172,4,-0.13,0.4,1.76,8.9712,35.5416,1.3863999999999983,175,75
2026-05-07 18:28:02.183,4,-0.14,0.4,1.8,9.9412,36.2816,4.4963999999999995,175,75
2026-05-07 18:28:02.198,4,-0.16,0.4,1.81,9.4512,33.6516,5.346399999999999,175,75
2026-05-07 18:28:02.210,4,-0.18,0.39,1.85,6.6512,27.6816,5.776399999999999,175,75
2026-05-07 18:28:02.222,4,-0.15,0.39,1.87,4.9412,15.671600000000002,4.3164,175,75
2026-05-07 18:28:02.222,4,-0.14,0.39,1.86,3.4212000000000002,-0.18839999999999968,2.3064,175,75
2026-05-07 18:28:02.234,4,-0.13,0.4,1.82,2.7512,-13.048399999999999,-0.683600000000002,175,75
2026-05-07 18:28:02.256,4,-0.12,0.41,1.78,2.4412000000000003,-16.4684,-1.7835999999999999,175,75
2026-05-07 18:28:02.267,4,-0.15,0.37,1.7,1.2812000000000001,-10.0684,-4.2836,175,75
2026-05-07 18:28:02.282,4,-0.14,0.38,1.72,0.8012000000000001,-2.5684000000000005,-5.073599999999999,175,75
2026-05-07 18:28:02.298,4,-0.15,0.38,1.75,0.19120000000000026,1.3415999999999997,-5.253599999999999,175,75
2026-05-07 18:28:02.306,4,-0.16,0.38,1.74,-1.1588000000000003,3.6516,-6.473600000000001,175,75
2026-05-07 18:28:02.321,4,-0.14,0.37,1.73,-1.8288000000000002,0.24160000000000004,-8.5536,175,75
2026-05-07 18:28:02.345,4,-0.14,0.39,1.76,-3.5987999999999998,-3.5383999999999993,-11.7836,175,75
2026-05-07 18:28:02.353,4,-0.12,0.38,1.79,-4.9388,-10.978399999999999,-13.433600000000002,175,75
2026-05-07 18:28:02.369,4,-0.15,0.37,1.76,-6.7688,-19.8184,-16.8436,175,75
2026-05-07 18:28:02.394,4,-0.19,0.43,1.67,-11.338799999999999,-9.398399999999999,-21.963600000000003,175,75
2026-05-07 18:28:02.402,4,-0.23,0.44,1.65,-10.788799999999998,6.701599999999999,-22.6936,175,75
2026-05-07 18:28:02.412,4,-0.26,0.43,1.64,-10.788799999999998,22.011599999999998,-23.003600000000002,175,75
2026-05-07 18:28:02.424,4,-0.28,0.43,1.66,-11.8888,39.081599999999995,-22.1536,175,75
2026-05-07 18:28:02.438,4,-0.32,0.41,1.83,-14.268800000000002,54.8716,-21.4736,175,75
2026-05-07 18:28:02.462,4,-0.36,0.42,1.91,-14.9388,49.691599999999994,-21.0536,175,75
2026-05-07 18:28:02.480,4,-0.4,0.46,1.94,-13.9588,41.0316,-18.183600000000002,175,75
2026-05-07 18:28:02.491,4,-0.41,0.47,1.92,-11.948799999999999,42.5616,-16.783600000000003,175,75
2026-05-07 18:28:02.501,4,-0.43,0.48,1.93,-7.6788,50.1816,-11.2336,175,75
2026-05-07 18:28:02.513,4,-0.45,0.49,1.94,-4.0788,59.751599999999996,-7.573599999999999,175,75
2026-05-07 18:28:02.546,4,-0.54,0.45,2.17,9.761199999999999,70.1216,10.9564,175,75
2026-05-07 18:28:02.570,4,-0.56,0.46,2.26,18.0512,50.1816,13.276399999999999,175,75
2026-05-07 18:28:02.581,4,-0.57,0.47,2.25,22.871199999999998,27.621599999999997,15.7164,175,75
2026-05-07 18:28:02.594,4,-0.58,0.46,2.18,27.5612,12.6816,18.4564,175,75
2026-05-07 18:28:02.594,4,-0.59,0.46,2.15,33.111200000000004,10.1816,22.1764,175,75
2026-05-07 18:28:02.611,4,-0.6,0.48,2.14,38.6012,15.1216,27.7864,175,75
2026-05-07 18:28:02.632,4,-0.66,0.58,2.24,41.471199999999996,3.9016,34.0664,175,75
2026-05-07 18:28:02.651,4,-0.67,0.64,2.26,46.5912,-22.078400000000002,33.0364,175,75
2026-05-07 18:28:02.706,4,-0.62,0.78,1.93,66.0412,-65.7984,44.9864,175,75
2026-05-07 18:28:02.765,4,-0.57,0.84,1.84,69.33120000000001,-83.2384,49.8664,175,75
2026-05-07 18:28:02.765,4,-0.53,0.84,1.74,73.36120000000001,-103.0484,47.0564,175,75
2026-05-07 18:28:02.765,4,-0.46,0.82,1.63,78.42120000000001,-136.4084,38.8264,175,75
2026-05-07 18:28:02.791,4,-0.4,0.75,1.46,86.16120000000001,-172.86839999999998,53.276399999999995,175,75
2026-05-07 18:28:02.808,4,-0.4,0.65,1.32,87.9312,-155.5484,75.9564,175,75
2026-05-07 18:28:02.819,4,-0.29,0.55,1.27,83.05120000000001,-134.9384,86.1464,175,75
2026-05-07 18:28:02.839,4,-0.18,0.49,1.23,84.58120000000001,-149.26839999999999,82.7264,175,75
2026-05-07 18:28:02.851,4,-0.1,0.39,1.17,96.5912,-203.9084,77.9764,175,75
2026-05-07 18:28:02.891,4,-0.1,0.29,1.02,101.53120000000001,-209.8184,80.4164,175,75
2026-05-07 18:28:02.901,4,-0.04,0.24,0.96,102.69120000000001,-205.48839999999998,80.4164,175,75
2026-05-07 18:28:02.901,4,0.05,0.18,0.93,107.2012,-208.0484,81.5064,175,75
2026-05-07 18:28:02.916,4,0.15,0.08,0.93,111.3412,-217.98839999999998,77.2464,175,75
2026-05-07 18:28:02.916,4,0.25,-0.03,0.93,106.89120000000001,-238.9084,69.2564,175,75
2026-05-07 18:28:02.934,4,0.25,-0.13,0.9,102.8112,-285.3084,41.876400000000004,175,75
2026-05-07 18:28:02.977,4,-0.53,0.05,0.88,96.89120000000001,-282.8084,47.3664,175,75
2026-05-07 18:28:03.020,4,-0.46,0.0,0.75,93.17120000000001,-266.15840000000003,45.416399999999996,175,75
2026-05-07 18:28:03.032,4,-0.22,-0.2,0.57,95.1212,-217.80839999999998,83.5864,175,75
2026-05-07 18:28:03.032,4,-0.14,-0.28,0.56,83.05120000000001,-213.8484,87.4864,175,75
2026-05-07 18:28:03.044,4,-0.16,-0.31,0.56,75.4912,-217.3784,90.16640000000001,175,75
2026-05-07 18:28:03.056,4,-0.21,-0.31,0.58,70.4312,-213.8484,96.1464,175,75
2026-05-07 18:28:03.096,4,-0.2,-0.3,0.6,62.2612,-207.01839999999999,102.1164,175,75
2026-05-07 18:28:03.096,4,-0.17,-0.28,0.62,52.8112,-196.2184,105.2264,175,75
2026-05-07 18:28:03.108,4,-0.04,-0.33,0.56,52.5012,-168.6584,115.2264,175,75
2026-05-07 18:28:03.162,4,0.02,-0.34,0.46,37.0112,-53.2384,130.5964,175,75
2026-05-07 18:28:03.190,4,0.06,-0.41,0.54,33.2312,-32.748400000000004,131.5664,175,75
2026-05-07 18:28:03.234,4,0.15,-0.36,0.45,26.5912,-94.75840000000001,94.6164,175,75
2026-05-07 18:28:03.245,4,0.03,-0.36,0.41,27.5012,-93.2384,96.63640000000001,175,75
2026-05-07 18:28:03.259,4,-0.15,-0.38,0.45,29.7612,-58.2384,104.7364,175,75
2026-05-07 18:28:03.259,4,-0.15,-0.44,0.45,32.4412,-28.7184,104.7364,175,75
2026-05-07 18:28:03.259,4,-0.01,-0.53,0.51,36.7712,-14.7584,101.8164,175,75
2026-05-07 18:28:03.316,4,0.03,-0.55,0.49,30.801199999999998,-49.69840000000001,80.9564,175,75
2026-05-07 18:28:03.326,4,0.06,-0.42,0.36,14.331199999999999,-75.0684,69.4364,175,75
2026-05-07 18:28:03.331,4,-0.01,-0.43,0.27,10.0612,-79.14840000000001,67.9764,175,75
2026-05-07 18:28:03.376,4,-0.05,-0.51,0.28,0.0011999999999998678,-26.528399999999998,64.6164,175,75
2026-05-07 18:28:03.387,4,-0.01,-0.52,0.34,3.3012,-26.2884,58.7064,175,75
2026-05-07 18:28:03.410,4,0.01,-0.62,0.18,11.281199999999998,12.0716,43.156400000000005,175,75
2026-05-07 18:28:03.418,4,0.28,-0.57,0.25,-8.0488,-10.978399999999999,51.7564,175,75
2026-05-07 18:28:03.434,4,-0.02,-0.52,0.21,-14.198800000000002,5.971599999999999,37.4264,175,75
2026-05-07 18:28:03.444,4,0.09,-0.46,0.29,-11.2788,24.631600000000002,44.0664,175,75
2026-05-07 18:28:03.478,4,-0.02,-0.51,0.35,-7.1888,4.811600000000002,37.1164,175,75
2026-05-07 18:28:03.488,4,0.0,-0.48,0.35,-9.7488,13.781600000000001,36.1464,175,75
2026-05-07 18:28:03.569,4,0.05,-0.37,0.43,-12.738800000000001,38.5316,30.1064,175,75
2026-05-07 18:28:03.584,4,0.03,-0.35,0.93,21.1612,134.75160000000002,37.1164,175,75
2026-05-07 18:28:03.606,4,0.38,-0.44,1.7,68.4812,166.7016,42.3064,175,75
2026-05-07 18:28:03.621,4,0.54,-0.63,1.49,28.4212,-158.9684,-50.563599999999994,175,75
2026-05-07 18:28:03.740,4,0.16,-0.21,0.48,-23.4088,101.21159999999999,-55.8036,175,75
2026-05-07 18:28:03.769,4,-0.07,-0.26,0.4,-30.668799999999997,122.1316,-62.0236,175,75
2026-05-07 18:28:03.784,4,-0.05,-0.36,0.41,-25.178800000000003,152.01160000000002,-67.33359999999999,175,75
2026-05-07 18:28:03.796,4,-0.0,-0.41,0.44,-21.3388,155.4216,-75.9336,175,75
2026-05-07 18:28:03.840,4,0.15,-0.27,0.67,-29.8788,143.29160000000002,-96.8436,175,75
2026-05-07 18:28:03.936,4,0.2,-0.22,0.8,-27.4388,45.30159999999999,-130.3836,175,75
2026-05-07 18:28:03.947,4,0.1,-0.22,0.79,-27.858800000000002,11.0916,-141.4136,175,75
2026-05-07 18:28:03.947,4,-0.09,-0.05,0.57,-26.698800000000002,-19.6984,-156.6636,175,75
2026-05-07 18:28:03.959,4,-0.19,0.01,0.6,-30.358800000000002,-0.8583999999999996,-149.46359999999999,175,75
2026-05-07 18:28:03.959,4,-0.22,0.04,0.67,-35.3588,9.2016,-146.3536,175,75
2026-05-07 18:28:03.991,4,0.02,0.17,0.8,-33.4088,-59.2084,-146.4136,175,75
2026-05-07 18:28:04.037,4,-0.35,0.4,0.41,-80.7888,-108.2384,-139.1036,175,75
2026-05-07 18:28:04.037,4,-0.19,0.49,0.35,-89.38879999999999,-84.8184,-136.8436,175,75
2026-05-07 18:28:04.065,4,0.16,0.49,0.14,-97.49879999999999,-58.9684,-131.1736,175,75
2026-05-07 18:28:04.077,4,-0.23,0.67,0.5,-83.8988,58.8416,-92.2136,175,75
2026-05-07 18:28:04.111,4,0.28,0.33,0.97,-94.8788,-15.4284,-112.8836,175,75
2026-05-07 18:28:04.203,4,-0.22,0.9,0.16,-173.1688,-380.4284,-146.96359999999999,175,75
2026-05-07 18:28:04.203,4,-0.44,1.02,0.02,-183.0488,-390.6084,-143.8536,175,75
2026-05-07 18:28:04.235,4,-1.17,1.19,-0.03,-158.3488,-244.7584,-60.6836,175,75
2026-05-07 18:28:04.257,4,-0.78,1.07,0.16,-160.4888,-136.8984,22.1164,175,75
2026-05-07 18:28:04.257,4,-0.59,0.98,0.12,-165.96880000000002,-143.3584,24.4364,175,75
2026-05-07 18:28:04.275,4,-0.54,0.95,0.14,-164.6288,-131.5284,30.1064,175,75
2026-05-07 18:28:04.299,4,-0.45,0.91,0.37,-141.5788,35.7316,61.2064,175,75
2026-05-07 18:28:04.321,4,-0.11,0.73,0.7,-127.0688,54.1416,42.5464,175,75
2026-05-07 18:28:04.321,4,0.05,0.65,1.03,-116.7688,-26.6484,24.5564,175,75
2026-05-07 18:28:04.333,4,-0.12,0.62,1.23,-110.2388,-132.98839999999998,12.6064,175,75
2026-05-07 18:28:04.360,4,-0.07,0.85,0.91,-120.66879999999999,-223.9084,-1.4135999999999989,175,75
2026-05-07 18:28:04.370,4,-0.24,1.01,0.6,-106.1588,-224.39839999999998,-0.1936,175,75
2026-05-07 18:28:04.409,4,0.29,0.65,0.43,-59.6288,-50.5484,0.34639999999999915,175,75
2026-05-07 18:28:04.409,4,-0.07,0.84,0.46,-62.0088,-15.9784,-0.3836000000000013,175,75
2026-05-07 18:28:04.420,4,-0.39,1.13,0.68,1.8312000000000002,106.1516,30.8964,175,75
2026-05-07 18:28:04.441,4,-0.24,0.91,0.87,24.641199999999998,101.1516,44.2564,175,75
2026-05-07 18:28:04.450,4,-0.19,0.77,0.97,38.4812,72.3716,56.026399999999995,175,75
2026-05-07 18:28:04.484,4,-0.13,0.78,0.97,52.2612,55.6716,68.0964,175,75
2026-05-07 18:28:04.485,4,-0.13,0.84,0.91,65.4312,44.631600000000006,84.8664,175,75
2026-05-07 18:28:04.494,4,-0.13,0.83,0.83,82.0112,50.601600000000005,99.6764,175,75
2026-05-07 18:28:04.505,4,-0.22,0.78,0.69,124.39120000000001,105.24159999999999,140.2864,175,75
2026-05-07 18:28:04.523,4,-0.04,0.81,0.81,173.4212,175.60160000000002,186.9364,175,75
2026-05-07 18:28:04.576,4,-0.02,0.33,0.6,278.8412,199.4516,274.6764,175,75
2026-05-07 18:28:04.629,4,0.12,-0.02,0.52,306.0412,384.2016,327.4264,175,75
2026-05-07 18:28:04.629,4,0.22,-0.17,0.71,299.5112,413.41159999999996,328.1564,175,75
2026-05-07 18:28:04.679,4,0.5,-0.32,0.31,138.9012,270.91159999999996,256.9964,175,75
2026-05-07 18:28:04.721,4,-0.49,-0.28,1.06,116.28120000000001,313.41159999999996,298.0364,175,75
2026-05-07 18:28:04.736,4,0.01,-0.72,1.09,98.6012,264.2616,282.1764,175,75
2026-05-07 18:28:04.736,4,0.11,-1.03,1.06,109.7612,166.9516,226.3864,175,75
2026-05-07 18:28:04.758,4,0.28,-1.47,0.64,62.2612,142.3716,144.3764,175,75
2026-05-07 18:28:04.794,4,0.1,-1.14,0.59,-41.458800000000004,262.1916,74.0664,175,75
2026-05-07 18:28:04.811,4,0.19,-0.88,0.89,-57.9188,343.29159999999996,68.8264,175,75
2026-05-07 18:28:04.811,4,0.29,-0.69,1.21,-62.498799999999996,392.5016,87.3064,175,75
2026-05-07 18:28:04.826,4,0.3,-0.66,1.99,-43.1688,247.25160000000002,89.49640000000001,175,75
2026-05-07 18:28:04.838,4,0.25,-0.68,2.07,-31.0888,132.01160000000002,60.71639999999999,175,75
2026-05-07 18:28:04.913,4,0.15,0.1,1.14,-14.5088,21.4016,30.7764,175,75
2026-05-07 18:28:04.913,4,0.08,0.2,1.22,-9.9988,85.24159999999999,52.3064,175,75
2026-05-07 18:28:04.959,4,-0.15,0.12,1.69,1.8912,166.1516,105.6564,175,75
2026-05-07 18:28:05.003,4,-0.11,0.09,1.49,25.731199999999998,-276.64840000000004,-44.1636,175,75
2026-05-07 18:28:05.012,4,-0.21,0.2,1.14,16.6512,-300.4884,-50.2636,175,75
2026-05-07 18:28:05.065,4,-0.32,0.46,0.76,-11.2788,66.1516,46.9364,175,75
2026-05-07 18:28:05.073,4,-0.25,0.33,1.02,-30.2988,165.97160000000002,69.5564,175,75
2026-05-07 18:28:05.112,4,-0.06,0.07,1.42,-42.7988,220.79160000000002,69.2564,175,75
2026-05-07 18:28:05.123,4,0.01,0.02,1.55,-46.8888,175.1216,53.276399999999995,175,75
2026-05-07 18:28:05.134,4,-0.24,0.0,1.54,-38.958800000000004,128.41160000000002,22.0564,175,75
2026-05-07 18:28:05.137,4,-0.3,0.11,1.55,-43.7188,122.9216,12.0564,175,75
2026-05-07 18:28:05.155,4,-0.34,0.16,1.62,-44.9988,123.2916,9.9264,175,75
2026-05-07 18:28:05.155,4,-0.46,0.12,1.65,-34.4488,122.50160000000001,10.2264,175,75
2026-05-07 18:28:05.188,4,-0.78,-0.01,1.78,-17.9888,86.52159999999999,8.1564,175,75
2026-05-07 18:28:05.242,4,-0.58,-0.27,1.6,-1.1588000000000003,-11.5884,11.3264,175,75
2026-05-07 18:28:05.262,4,-0.53,-0.39,1.54,13.3612,40.91160000000001,28.456400000000002,175,75
2026-05-07 18:28:05.274,4,-0.39,-0.49,1.52,12.261199999999999,62.861599999999996,28.2164,175,75
2026-05-07 18:28:05.348,4,-0.47,-0.27,1.25,9.4512,20.5416,-9.773600000000002,175,75
2026-05-07 18:28:05.374,4,-0.55,-0.26,1.23,2.8712,58.2316,-1.1736000000000004,175,75
2026-05-07 18:28:05.374,4,-0.52,-0.28,1.27,-7.558800000000001,84.3916,7.7264,175,75
2026-05-07 18:28:05.424,4,-0.63,-0.32,1.54,-24.1388,37.9216,16.3264,175,75
2026-05-07 18:28:05.440,4,-0.61,-0.32,1.54,-23.6588,36.52160000000001,18.8264,175,75
2026-05-07 18:28:05.440,4,-0.57,-0.31,1.53,-22.5588,39.5116,22.1764,175,75
2026-05-07 18:28:05.453,4,-0.5,-0.29,1.51,-20.788800000000002,45.361599999999996,23.9464,175,75
2026-05-07 18:28:05.453,4,-0.47,-0.24,1.47,-18.7188,50.91160000000001,24.9264,175,75
2026-05-07 18:28:05.559,4,-0.67,-0.25,1.58,-14.628800000000002,26.701600000000003,15.4764,175,75
2026-05-07 18:28:05.679,4,-0.46,-0.2,1.59,-4.9988,43.351600000000005,-14.713600000000003,175,75
2026-05-07 18:28:05.685,4,-0.49,-0.22,1.77,5.921200000000001,73.71159999999999,-22.633599999999998,175,75
2026-05-07 18:28:05.712,4,-0.5,-0.2,1.84,9.511199999999999,75.5416,-27.573600000000003,175,75
2026-05-07 18:28:05.727,4,-0.51,-0.17,1.86,12.441199999999998,73.2316,-36.6636,175,75
2026-05-07 18:28:05.735,4,-0.63,0.03,1.8,0.6712000000000002,100.3616,-46.11359999999999,175,75
2026-05-07 18:28:05.765,4,-0.64,0.14,2.0,-22.6188,86.7616,-56.9036,175,75
2026-05-07 18:28:05.767,4,-0.52,0.08,1.79,-45.5488,52.4316,-79.6536,175,75
2026-05-07 18:28:05.888,4,0.02,-0.07,1.38,-107.91879999999999,14.5716,-63.4336,175,75
2026-05-07 18:28:05.899,4,0.12,-0.07,1.34,-114.2688,22.311600000000002,-61.11359999999999,175,75
2026-05-07 18:28:05.910,4,0.17,-0.02,1.28,-115.5488,33.6516,-55.623599999999996,175,75
2026-05-07 18:28:05.910,4,0.18,0.01,1.24,-114.99879999999999,39.751599999999996,-52.1536,175,75
2026-05-07 18:28:06.053,4,0.3,-0.11,0.42,-86.33879999999999,51.821600000000004,-23.003600000000002,175,75
2026-05-07 18:28:06.073,4,0.42,-0.17,0.51,-101.3988,100.85159999999999,5.596399999999999,175,75
2026-05-07 18:28:06.087,4,0.53,-0.18,0.41,-99.2688,82.3716,0.16639999999999944,175,75
2026-05-07 18:28:06.149,4,0.29,0.09,0.36,-100.05879999999999,82.3116,-3.2436000000000007,175,75
2026-05-07 18:28:06.180,4,0.1,0.16,0.18,-101.08879999999999,87.5016,21.5664,175,75
2026-05-07 18:28:06.186,4,0.12,0.03,0.1,-104.32879999999999,125.9116,41.8164,175,75
2026-05-07 18:28:06.208,4,0.11,0.04,0.06,-103.58879999999999,125.8516,46.266400000000004,175,75
2026-05-07 18:28:06.240,4,0.1,0.06,0.04,-103.4088,124.02159999999999,44.6164,175,75
2026-05-07 18:28:06.253,4,-0.09,0.08,-0.13,-102.85879999999999,109.02159999999999,37.6064,175,75
2026-05-07 18:28:06.279,4,-0.29,0.19,-0.23,-109.13879999999999,185.73160000000001,52.666399999999996,175,75
2026-05-07 18:28:06.285,4,-0.38,0.18,-0.08,-98.9588,225.79160000000002,62.0564,175,75
2026-05-07 18:28:06.320,4,-0.38,0.16,-0.1,-95.96879999999999,211.0916,57.3064,175,75
2026-05-07 18:28:06.332,4,-0.61,0.19,-0.09,-90.4888,208.47160000000002,61.386399999999995,175,75
2026-05-07 18:28:06.359,4,-0.61,-0.06,-0.12,-92.9888,215.54160000000002,61.936400000000006,175,75
2026-05-07 18:28:06.373,4,-0.7,-0.09,-0.09,-94.5688,212.6216,59.5564,175,75
2026-05-07 18:28:06.384,4,-0.7,-0.07,-0.06,-109.5688,210.60160000000002,51.5064,175,75
2026-05-07 18:28:06.384,4,-0.78,-0.05,-0.06,-112.49879999999999,203.9616,51.996399999999994,175,75
2026-05-07 18:28:06.394,4,-0.87,-0.06,-0.06,-109.6888,213.9016,57.606399999999994,175,75
2026-05-07 18:28:06.411,4,-0.82,-0.15,-0.08,-113.0488,214.0216,55.8364,175,75
2026-05-07 18:28:06.422,4,-0.8,-0.25,-0.09,-114.38879999999999,212.6216,56.636399999999995,175,75
2026-05-07 18:28:06.432,4,-0.79,-0.29,-0.1,-110.5488,216.2816,59.5564,175,75
2026-05-07 18:28:06.448,4,-0.81,-0.33,-0.1,-103.46879999999999,222.8016,63.6464,175,75
2026-05-07 18:28:06.460,4,-0.91,-0.37,-0.08,-97.6788,224.75160000000002,67.7864,175,75
2026-05-07 18:28:06.460,4,-0.98,-0.39,-0.01,-92.6788,230.6716,72.1764,175,75
2026-05-07 18:28:06.498,4,-1.03,-0.48,0.04,-79.80879999999999,226.7016,77.7864,175,75
2026-05-07 18:28:06.509,4,-1.02,-0.56,0.08,-72.49879999999999,229.32160000000002,80.1664,175,75
2026-05-07 18:28:06.525,4,-1.1,-0.65,0.22,-61.15880000000001,221.8916,81.0264,175,75
2026-05-07 18:28:06.525,4,-1.1,-0.7,0.3,-54.8788,209.1416,80.8964,175,75
2026-05-07 18:28:06.539,4,-1.18,-0.77,0.38,-49.1988,183.8416,80.6564,175,75
2026-05-07 18:28:06.562,4,-1.12,-0.98,0.35,-52.3088,116.5816,68.7064,175,75
2026-05-07 18:28:06.586,4,-1.03,-1.08,0.27,-54.1388,110.60159999999999,72.6664,175,75
2026-05-07 18:28:06.659,4,-1.47,-1.42,0.28,-34.5088,74.5716,24.4364,175,75
2026-05-07 18:28:06.661,4,-1.29,-1.59,0.61,34.5112,178.35160000000002,97.3664,175,75
2026-05-07 18:28:06.679,4,-0.57,-1.65,0.77,-4.6888,11.7016,44.0064,175,75
2026-05-07 18:28:06.691,4,-0.42,-1.47,0.77,-71.3988,-160.7984,-36.6636,175,75
2026-05-07 18:28:06.752,4,-0.48,-0.74,0.0,-36.028800000000004,-46.58839999999999,-22.453599999999998,175,75
2026-05-07 18:28:06.773,4,-0.56,-0.6,0.6,-23.4688,105.91159999999999,27.6064,175,75
2026-05-07 18:28:06.773,4,-0.4,-0.6,0.89,-24.0788,95.5416,28.0364,175,75
2026-05-07 18:28:06.785,4,-0.47,-0.63,1.12,-13.838799999999999,60.30159999999999,23.8264,175,75
2026-05-07 18:28:06.812,4,-0.47,-0.86,1.09,29.1512,-83.1784,-10.9936,175,75
2026-05-07 18:28:06.843,4,-0.6,-0.82,0.61,42.3212,-233.17839999999998,-33.8536,175,75
2026-05-07 18:28:06.857,4,-0.68,-0.81,0.5,52.2012,-244.6384,-36.5436,175,75
2026-05-07 18:28:06.869,4,-0.81,-0.76,0.43,62.1412,-228.9684,-33.7936,175,75
2026-05-07 18:28:06.883,4,-0.89,-0.68,0.37,60.0612,-204.5784,-24.6536,175,75
2026-05-07 18:28:06.896,4,-0.94,-0.61,0.24,46.7712,-178.3584,-8.2436,175,75
2026-05-07 18:28:06.909,4,-1.0,-0.58,0.24,44.7012,-151.0984,9.3164,175,75
2026-05-07 18:28:06.920,4,-0.91,-0.56,0.5,56.1012,-138.5384,38.2164,175,75
2026-05-07 18:28:06.938,4,-0.76,-0.61,0.74,59.5812,-167.49839999999998,42.4864,175,75
2026-05-07 18:28:06.961,4,-0.69,-0.68,0.72,76.9512,-251.1584,19.7464,175,75
2026-05-07 18:28:06.973,4,-0.79,-0.61,0.59,89.0912,-235.36839999999998,21.4464,175,75
2026-05-07 18:28:06.984,4,-0.87,-0.55,0.44,93.30120000000001,-190.73839999999998,32.2464,175,75
2026-05-07 18:28:07.001,4,-0.87,-0.55,0.32,96.7112,-50.678399999999996,64.3164,175,75
2026-05-07 18:28:07.028,4,-0.83,-0.6,0.44,99.0912,-4.458399999999999,79.0064,175,75
2026-05-07 18:28:07.028,4,-0.8,-0.63,0.59,95.67120000000001,4.871600000000001,85.71640000000001,175,75
2026-05-07 18:28:07.064,4,-0.8,-0.71,0.75,98.66120000000001,-91.64840000000001,65.8964,175,75
2026-05-07 18:28:07.076,4,-0.81,-0.7,0.71,102.3812,-128.23839999999998,52.7264,175,75
2026-05-07 18:28:07.084,4,-0.85,-0.64,0.64,103.2312,-144.7584,45.3464,175,75
2026-05-07 18:28:07.100,4,-0.88,-0.54,0.55,101.6512,-143.4184,39.4364,175,75
2026-05-07 18:28:07.123,4,-0.92,-0.49,0.54,100.61120000000001,-137.2584,38.7064,175,75
2026-05-07 18:28:07.123,4,-0.96,-0.42,0.56,98.4812,-132.8084,38.766400000000004,175,75
2026-05-07 18:28:07.134,4,-0.95,-0.36,0.58,95.3112,-129.9384,37.4864,175,75
2026-05-07 18:28:07.142,4,-0.95,-0.31,0.61,90.80120000000001,-127.9284,36.2064,175,75
2026-05-07 18:28:07.166,4,-1.0,-0.25,0.62,87.14120000000001,-130.1284,35.656400000000005,175,75
2026-05-07 18:28:07.179,4,-1.03,-0.16,0.63,84.94120000000001,-128.7884,36.9964,175,75
2026-05-07 18:28:07.179,4,-1.02,-0.09,0.62,82.3812,-126.64840000000001,38.886399999999995,175,75
2026-05-07 18:28:07.212,4,-1.02,0.04,0.62,75.7312,-119.2684,41.9364,175,75
2026-05-07 18:28:07.212,4,-1.02,0.08,0.62,72.08120000000001,-114.2084,44.0664,175,75
2026-05-07 18:28:07.227,4,-1.04,0.1,0.63,66.9512,-109.2684,45.7164,175,75
2026-05-07 18:28:07.246,4,-1.07,0.12,0.64,64.33120000000001,-104.8184,48.766400000000004,175,75
2026-05-07 18:28:07.254,4,-1.19,0.21,0.64,59.0312,-120.6084,56.996399999999994,175,75
2026-05-07 18:28:07.266,4,-1.26,0.25,0.65,58.971199999999996,-126.4684,62.9764,175,75
2026-05-07 18:28:07.279,4,-1.26,0.3,0.63,56.8312,-135.3084,69.3764,175,75
2026-05-07 18:28:07.294,4,-1.23,0.34,0.57,51.5312,-142.1384,75.9564,175,75
2026-05-07 18:28:07.307,4,-1.24,0.37,0.5,47.9312,-144.45839999999998,79.8664,175,75
2026-05-07 18:28:07.307,4,-1.28,0.38,0.4,44.9412,-139.26839999999999,84.6164,175,75
2026-05-07 18:28:07.316,4,-1.4,0.38,0.32,43.971199999999996,-115.3084,98.5864,175,75
2026-05-07 18:28:07.345,4,-1.47,0.36,0.29,39.2712,-81.1584,114.3164,175,75
2026-05-07 18:28:07.349,4,-1.57,0.27,0.3,30.371199999999998,-70.0684,131.3864,175,75
2026-05-07 18:28:07.377,4,-1.87,0.27,0.33,27.6912,-132.98839999999998,154.6164,175,75
2026-05-07 18:28:07.387,4,-1.81,0.33,0.32,19.7012,-151.0384,170.7164,175,75
2026-05-07 18:28:07.387,4,-1.6,0.34,0.23,9.1512,-166.8284,184.06640000000002,175,75
2026-05-07 18:28:07.395,4,-1.43,0.22,0.12,7.0812,-172.80839999999998,196.9364,175,75
2026-05-07 18:28:07.417,4,-1.41,0.1,0.03,4.8812,-151.2884,211.6364,175,75
2026-05-07 18:28:07.452,4,-1.17,-0.15,0.19,-28.4088,-18.9684,236.3264,175,75
2026-05-07 18:28:07.458,4,-1.11,-0.25,0.29,-34.5688,-6.3484,233.03640000000001,175,75
2026-05-07 18:28:07.496,4,-1.02,-0.46,0.45,-52.7388,-23.848399999999998,207.84640000000002,175,75
2026-05-07 18:28:07.541,4,-0.82,-0.47,0.62,-96.5188,-13.298399999999999,155.9564,175,75
2026-05-07 18:28:07.541,4,-0.75,-0.47,0.67,-106.69879999999999,-20.7984,133.5264,175,75
2026-05-07 18:28:07.559,4,-0.73,-0.5,0.72,-114.80879999999999,-37.6884,110.8364,175,75
2026-05-07 18:28:07.559,4,-0.74,-0.53,0.79,-127.4988,-64.2084,85.9564,175,75
2026-05-07 18:28:07.580,4,-0.76,-0.53,0.81,-139.1988,-87.25840000000001,66.9964,175,75
2026-05-07 18:28:07.580,4,-0.77,-0.53,0.83,-150.2388,-110.6784,46.9964,175,75
2026-05-07 18:28:07.580,4,-0.79,-0.52,0.85,-158.77880000000002,-141.52839999999998,27.3664,175,75
2026-05-07 18:28:07.610,4,-0.9,-0.48,0.88,-163.71880000000002,-163.6584,14.4964,175,75
2026-05-07 18:28:07.610,4,-0.95,-0.4,0.91,-172.9188,-179.9384,2.4863999999999997,175,75
2026-05-07 18:28:07.610,4,-0.93,-0.31,0.9,-188.1688,-191.95839999999998,-10.0136,175,75
2026-05-07 18:28:07.619,4,-0.91,-0.28,0.82,-193.9588,-190.1884,-18.673599999999997,175,75
2026-05-07 18:28:07.633,4,-0.85,-0.34,0.74,-193.2888,-194.08839999999998,-30.503600000000002,175,75
2026-05-07 18:28:07.650,4,-0.87,-0.41,0.69,-198.9588,-193.2984,-38.3036,175,75
2026-05-07 18:28:07.660,4,-0.9,-0.47,0.66,-208.52880000000002,-181.52839999999998,-45.0136,175,75
2026-05-07 18:28:07.670,4,-0.89,-0.49,0.63,-218.5988,-177.49839999999998,-52.6936,175,75
2026-05-07 18:28:07.683,4,-0.9,-0.47,0.66,-221.1588,-163.7884,-54.4636,175,75
2026-05-07 18:28:07.694,4,-0.82,-0.51,0.68,-223.5988,-167.5684,-61.47359999999999,175,75
2026-05-07 18:28:07.705,4,-0.83,-0.56,0.67,-228.3488,-169.6984,-69.1636,175,75
2026-05-07 18:28:07.730,4,-0.96,-0.61,0.63,-239.4488,-163.17839999999998,-74.4636,175,75
2026-05-07 18:28:07.777,4,-0.93,-0.66,0.6,-257.2488,-126.4084,-75.8036,175,75
2026-05-07 18:28:07.777,4,-0.85,-0.68,0.62,-265.9088,-113.6584,-76.72359999999999,175,75
2026-05-07 18:28:07.802,4,-0.82,-0.75,0.6,-277.3788,-106.2184,-86.47359999999999,175,75
2026-05-07 18:28:07.802,4,-0.86,-0.82,0.58,-277.1888,-113.5984,-91.0536,175,75
2026-05-07 18:28:07.828,4,-0.85,-0.89,0.55,-276.3388,-115.36840000000001,-93.61359999999999,175,75
2026-05-07 18:28:07.839,4,-0.76,-0.9,0.52,-274.8788,-114.8784,-99.5236,175,75
2026-05-07 18:28:07.839,4,-0.67,-0.8,0.46,-269.5088,-127.9284,-110.93359999999998,175,75
2026-05-07 18:28:07.839,4,-0.72,-0.73,0.45,-261.0288,-130.6084,-112.39359999999999,175,75
2026-05-07 18:28:07.869,4,-0.59,-0.75,0.46,-257.4388,-110.97840000000001,-118.6736,175,75
2026-05-07 18:28:07.869,4,-0.48,-0.76,0.46,-262.1288,-114.9384,-131.1136,175,75
2026-05-07 18:28:07.890,4,-0.29,-0.74,0.41,-260.60880000000003,-130.0684,-150.2536,175,75
2026-05-07 18:28:07.890,4,-0.13,-0.68,0.35,-251.8888,-153.9084,-170.9936,175,75
2026-05-07 18:28:07.910,4,-0.21,-0.6,0.27,-242.7988,-172.1384,-180.7436,175,75
2026-05-07 18:28:07.923,4,-0.34,-0.6,0.16,-230.11880000000002,-166.1584,-190.6236,175,75
2026-05-07 18:28:07.938,4,-0.42,-0.54,0.12,-212.6788,-117.4384,-190.9936,175,75
2026-05-07 18:28:07.951,4,-0.38,-0.46,0.16,-204.3888,-85.8584,-182.2736,175,75
2026-05-07 18:28:07.966,4,-0.29,-0.37,0.28,-187.9188,-46.9584,-168.1236,175,75
2026-05-07 18:28:07.966,4,-0.24,-0.36,0.38,-174.93880000000001,-39.6984,-155.8036,175,75
2026-05-07 18:28:07.977,4,-0.2,-0.4,0.45,-161.7688,-41.648399999999995,-148.3636,175,75
2026-05-07 18:28:08.032,4,-0.13,-0.45,0.5,-152.7988,-57.748400000000004,-142.6336,175,75
2026-05-07 18:28:08.032,4,-0.12,-0.51,0.52,-144.5088,-79.39840000000001,-138.9136,175,75
2026-05-07 18:28:08.032,4,-0.13,-0.54,0.51,-139.6288,-97.4984,-134.1636,175,75
2026-05-07 18:28:08.050,4,-0.16,-0.56,0.47,-134.93880000000001,-99.6384,-130.4436,175,75
2026-05-07 18:28:08.050,4,-0.21,-0.57,0.41,-130.6088,-79.3284,-120.2536,175,75
2026-05-07 18:28:08.065,4,-0.38,-0.62,0.41,-121.57879999999999,12.191600000000001,-88.36359999999999,175,75
2026-05-07 18:28:08.100,4,-0.38,-0.64,0.48,-118.16879999999999,39.02160000000001,-76.3536,175,75
2026-05-07 18:28:08.139,4,-0.26,-0.68,0.56,-101.5188,34.2616,-74.89359999999999,175,75
2026-05-07 18:28:08.151,4,-0.3,-0.66,0.58,-91.27879999999999,14.7516,-76.9036,175,75
2026-05-07 18:28:08.151,4,-0.34,-0.6,0.6,-77.6188,-15.308399999999999,-80.3236,175,75
2026-05-07 18:28:08.244,4,-0.47,0.03,0.43,-82.0688,-17.6284,15.5964,175,75
2026-05-07 18:28:08.262,4,-0.45,0.11,0.45,-83.83879999999999,-24.578400000000002,36.2064,175,75
2026-05-07 18:28:08.272,4,-0.47,0.12,0.44,-83.3488,-29.2084,45.2264,175,75
2026-05-07 18:28:08.299,4,-0.47,0.16,0.44,-84.99879999999999,-21.528399999999998,57.3664,175,75
2026-05-07 18:28:08.299,4,-0.42,0.22,0.47,-83.2888,-6.158399999999999,68.3964,175,75
2026-05-07 18:28:08.299,4,-0.38,0.26,0.47,-79.0188,-1.8284000000000002,75.7164,175,75
2026-05-07 18:28:08.318,4,-0.39,0.26,0.51,-72.1288,-1.0383999999999993,81.3264,175,75
2026-05-07 18:28:08.349,4,-0.39,0.23,0.54,-44.8088,-45.7984,92.9764,175,75
2026-05-07 18:28:08.360,4,-0.3,0.21,0.49,-31.638800000000003,-58.47839999999999,96.4464,175,75
2026-05-07 18:28:08.382,4,-0.12,0.05,0.31,-11.8888,-111.58840000000001,96.3264,175,75
2026-05-07 18:28:08.395,4,-0.12,0.05,0.14,-11.4588,-165.9184,95.5364,175,75
2026-05-07 18:28:08.405,4,-0.13,0.14,-0.07,-17.3088,-199.39839999999998,92.8464,175,75
2026-05-07 18:28:08.416,4,-0.18,0.21,-0.52,-21.3988,-218.4184,90.2864,175,75
2026-05-07 18:28:08.427,4,-0.57,0.08,-0.88,-6.218800000000001,-200.24839999999998,90.41640000000001,175,75
2026-05-07 18:28:08.438,4,-1.12,-0.05,-1.12,11.9512,-102.0184,101.2664,175,75
2026-05-07 18:28:08.460,4,-1.45,0.02,-1.08,21.4712,17.3716,113.9464,175,75
2026-05-07 18:28:08.488,4,-1.54,0.36,-0.68,26.4712,112.9216,152.3064,175,75
2026-05-07 18:28:08.526,4,-1.44,0.35,-0.27,42.5612,69.3216,207.4264,175,75
2026-05-07 18:28:08.526,4,-1.45,0.31,-0.16,44.2112,28.591600000000003,225.1664,175,75
2026-05-07 18:28:08.526,4,-1.42,0.41,-0.1,39.9412,15.9116,237.84640000000002,175,75
2026-05-07 18:28:08.537,4,-1.28,0.61,-0.07,37.2012,10.3616,248.8264,175,75
2026-05-07 18:28:08.548,4,-1.15,0.81,-0.02,45.6712,9.8716,258.8264,175,75
2026-05-07 18:28:08.578,4,-1.02,0.94,0.04,69.27120000000001,10.601600000000001,268.39639999999997,175,75
2026-05-07 18:28:08.591,4,-0.96,0.96,0.07,85.19120000000001,9.3916,271.14639999999997,175,75
2026-05-07 18:28:08.591,4,-0.88,0.95,0.09,97.14120000000001,12.131599999999999,268.58639999999997,175,75
2026-05-07 18:28:08.604,4,-0.66,0.89,0.03,111.41120000000001,18.7816,249.1964,175,75
2026-05-07 18:28:08.618,4,-0.68,0.89,0.02,119.8812,20.4216,235.7164,175,75
2026-05-07 18:28:08.629,4,-0.73,0.93,0.08,127.50120000000001,51.7616,218.2164,175,75
2026-05-07 18:28:08.655,4,-0.67,0.88,0.08,140.00119999999998,-0.9184000000000001,182.1764,175,75
2026-05-07 18:28:08.665,4,-0.81,0.87,-0.0,142.56119999999999,-17.4384,170.8964,175,75
2026-05-07 18:28:08.676,4,-0.98,0.92,-0.08,146.28119999999998,-10.4884,160.1064,175,75
2026-05-07 18:28:08.682,4,-1.14,1.02,-0.1,146.3412,10.0016,153.8864,175,75
2026-05-07 18:28:08.701,4,-1.31,1.05,-0.09,145.9212,22.4316,151.1464,175,75
2026-05-07 18:28:08.706,4,-1.36,1.03,-0.04,149.4512,35.851600000000005,157.5464,175,75
2026-05-07 18:28:08.775,4,-1.46,0.94,-0.07,149.7012,17.0116,138.1564,175,75
2026-05-07 18:28:08.785,4,-1.47,0.89,-0.1,143.1112,52.0116,127.3064,175,75
2026-05-07 18:28:08.785,4,-1.53,0.88,-0.09,140.9812,55.1816,120.2864,175,75
2026-05-07 18:28:08.808,4,-1.63,0.86,-0.05,140.3712,67.13159999999999,119.13640000000001,175,75
2026-05-07 18:28:08.842,4,-1.67,0.82,0.02,140.7312,95.4216,121.38640000000001,175,75
2026-05-07 18:28:08.853,4,-1.57,0.73,0.09,141.22119999999998,125.8516,125.77640000000001,175,75
2026-05-07 18:28:08.853,4,-1.48,0.66,0.17,140.6112,137.50160000000002,124.9264,175,75
2026-05-07 18:28:08.853,4,-1.38,0.59,0.26,138.3612,137.3116,118.1564,175,75
2026-05-07 18:28:08.868,4,-1.23,0.58,0.39,133.4812,97.2516,88.7664,175,75
2026-05-07 18:28:08.868,4,-1.3,0.56,0.38,131.9512,55.1216,66.8764,175,75
2026-05-07 18:28:08.882,4,-1.39,0.55,0.33,130.9812,38.6516,55.3464,175,75
2026-05-07 18:28:08.893,4,-1.43,0.55,0.25,126.3412,35.6716,49.136399999999995,175,75
2026-05-07 18:28:08.893,4,-1.47,0.54,0.16,120.9812,40.851600000000005,46.266400000000004,175,75
2026-05-07 18:28:08.957,4,-1.44,0.53,0.03,111.1012,135.91160000000002,55.8364,175,75
2026-05-07 18:28:08.957,4,-1.38,0.52,0.13,104.0912,162.01160000000002,65.5364,175,75
2026-05-07 18:28:08.967,4,-1.3,0.46,0.22,96.22120000000001,173.7816,70.2264,175,75
2026-05-07 18:28:08.967,4,-1.21,0.41,0.3,88.2312,160.60160000000002,66.0264,175,75
2026-05-07 18:28:08.988,4,-1.16,0.37,0.29,83.78120000000001,130.91160000000002,56.6964,175,75
2026-05-07 18:28:08.999,4,-1.17,0.32,0.27,83.4812,109.5116,47.4864,175,75
2026-05-07 18:28:09.010,4,-1.17,0.27,0.22,83.72120000000001,103.5316,42.3064,175,75
2026-05-07 18:28:09.017,4,-1.14,0.2,0.13,81.16120000000001,103.96159999999999,35.416399999999996,175,75
2026-05-07 18:28:09.028,4,-1.14,0.15,0.09,77.14120000000001,106.2816,28.0364,175,75
2026-05-07 18:28:09.039,4,-1.14,0.08,0.06,72.6212,116.8916,21.2664,175,75
2026-05-07 18:28:09.061,4,-1.25,0.03,0.23,70.80120000000001,138.1716,4.006399999999999,175,75
2026-05-07 18:28:09.108,4,-1.17,-0.03,0.51,76.83120000000001,110.24159999999999,-7.6936,175,75
2026-05-07 18:28:09.120,4,-1.05,-0.05,0.49,75.67120000000001,59.2016,-21.0536,175,75
2026-05-07 18:28:09.120,4,-0.97,-0.06,0.31,69.5112,18.5916,-36.9636,175,75
2026-05-07 18:28:09.133,4,-1.02,-0.02,0.08,60.3712,-10.548399999999999,-52.2136,175,75
2026-05-07 18:28:09.147,4,-1.24,0.0,-0.03,56.2812,11.031600000000001,-55.6836,175,75
2026-05-07 18:28:09.169,4,-1.2,-0.01,0.28,54.3912,153.29160000000002,-26.783600000000003,175,75
2026-05-07 18:28:09.177,4,-0.93,-0.08,0.59,55.6712,110.0016,-38.4336,175,75
2026-05-07 18:28:09.183,4,-0.9,-0.09,0.64,60.6712,66.1516,-49.7736,175,75
2026-05-07 18:28:09.199,4,-0.94,-0.1,0.66,69.4512,33.5316,-59.953599999999994,175,75
2026-05-07 18:28:09.207,4,-0.91,-0.15,0.58,77.69120000000001,27.131600000000002,-70.1336,175,75
2026-05-07 18:28:09.239,4,-0.68,-0.36,0.42,99.8212,57.071600000000004,-104.0436,175,75
2026-05-07 18:28:09.263,4,-0.43,-0.49,0.31,112.5612,90.24159999999999,-132.8236,175,75
2026-05-07 18:28:09.304,4,-0.33,-0.68,0.25,124.27120000000001,150.85160000000002,-167.6936,175,75
2026-05-07 18:28:09.317,4,-0.69,-1.04,0.73,157.9312,191.76160000000002,-187.21359999999999,175,75
2026-05-07 18:28:09.327,4,-0.89,-1.07,0.95,166.8912,153.10160000000002,-175.2536,175,75
2026-05-07 18:28:09.343,4,-1.19,-1.03,1.11,179.03119999999998,102.0116,-155.5636,175,75
2026-05-07 18:28:09.357,4,-1.34,-1.02,1.18,190.1212,56.21159999999999,-143.7936,175,75
2026-05-07 18:28:09.385,4,-0.95,-1.07,0.71,223.0512,11.5216,-173.7936,175,75
2026-05-07 18:28:09.397,4,-0.39,-1.06,0.52,237.75119999999998,44.3916,-214.5836,175,75
2026-05-07 18:28:09.411,4,0.84,-0.72,0.72,235.5512,44.02160000000001,-167.9436,175,75
2026-05-07 18:28:09.428,4,0.54,-0.3,0.74,214.8212,69.7516,-51.17359999999999,175,75
2026-05-07 18:28:09.460,4,0.08,-0.39,0.87,249.4512,184.51160000000002,-59.89359999999999,175,75
2026-05-07 18:28:09.470,4,0.29,-0.61,1.3,282.3212,230.3016,-63.4936,175,75
2026-05-07 18:28:09.499,4,0.03,-0.77,1.71,294.7612,144.63160000000002,-27.573600000000003,175,75
2026-05-07 18:28:09.510,4,-0.3,-0.55,1.18,317.3812,94.9316,-23.493599999999997,175,75
2026-05-07 18:28:09.521,4,-0.23,-0.43,1.06,318.6012,131.8916,0.47639999999999816,175,75
2026-05-07 18:28:09.541,4,-0.21,-0.4,1.1,327.0112,181.5816,23.4564,175,75
2026-05-07 18:28:09.547,4,-0.12,-0.41,1.28,332.8712,228.5916,48.6464,175,75
2026-05-07 18:28:09.570,4,-0.08,-0.44,1.42,325.3712,236.5816,62.916399999999996,175,75
2026-05-07 18:28:09.570,4,-0.09,-0.44,1.53,313.8412,221.82160000000002,69.0664,175,75
2026-05-07 18:28:09.582,4,-0.17,-0.39,1.58,306.7112,187.5616,69.8064,175,75
2026-05-07 18:28:09.593,4,-0.23,-0.34,1.6,308.6012,162.6816,68.8264,175,75
2026-05-07 18:28:09.603,4,-0.28,-0.26,1.6,310.1212,124.3916,73.2164,175,75
2026-05-07 18:28:09.616,4,-0.29,-0.23,1.6,306.7112,97.9216,73.3364,175,75
2026-05-07 18:28:09.638,4,-0.37,-0.13,1.64,284.8812,26.0316,75.7764,175,75
2026-05-07 18:28:09.641,4,-0.37,-0.08,1.65,280.4312,-7.6884,64.5564,175,75
2026-05-07 18:28:09.658,4,-0.26,-0.02,1.69,272.9912,-49.2684,60.416399999999996,175,75
2026-05-07 18:28:09.658,4,-0.25,0.02,1.65,265.0612,-93.9684,53.3364,175,75
2026-05-07 18:28:09.681,4,-0.29,0.06,1.59,259.1512,-132.1384,32.3064,175,75
2026-05-07 18:28:09.692,4,-0.22,0.12,1.5,250.9212,-151.0384,16.3264,175,75
2026-05-07 18:28:09.704,4,-0.36,0.35,1.35,226.3412,-142.80839999999998,6.3864,175,75
2026-05-07 18:28:09.718,4,-0.32,0.48,1.3,212.9312,-118.53840000000001,9.5564,175,75
2026-05-07 18:28:09.730,4,-0.28,0.59,1.24,200.9812,-80.8584,13.6464,175,75
2026-05-07 18:28:09.740,4,-0.19,0.61,1.23,195.6712,-55.6084,16.0264,175,75
2026-05-07 18:28:09.750,4,-0.19,0.6,1.22,186.47119999999998,-23.4184,20.0464,175,75
2026-05-07 18:28:09.765,4,-0.25,0.62,1.25,179.5812,-1.7083999999999993,18.7664,175,75
2026-05-07 18:28:09.788,4,-0.23,0.82,1.41,158.97119999999998,49.691599999999994,34.8064,175,75
2026-05-07 18:28:09.794,4,-0.18,0.82,1.41,154.2712,38.7816,35.166399999999996,175,75
2026-05-07 18:28:09.801,4,-0.18,0.79,1.4,151.5912,22.011599999999998,32.3664,175,75
2026-05-07 18:28:09.812,4,-0.21,0.75,1.38,145.31119999999999,12.8016,28.586399999999998,175,75
2026-05-07 18:28:09.832,4,-0.22,0.83,1.4,128.6012,16.2116,25.836399999999998,175,75
2026-05-07 18:28:09.842,4,-0.21,0.94,1.38,116.0412,15.4816,25.3464,175,75
2026-05-07 18:28:09.853,4,-0.24,0.98,1.37,111.53120000000001,10.791599999999999,29.5564,175,75
2026-05-07 18:28:09.864,4,-0.31,0.96,1.37,107.69120000000001,16.5816,33.2164,175,75
2026-05-07 18:28:09.876,4,-0.26,0.95,1.36,99.1512,18.0416,33.0364,175,75
2026-05-07 18:28:09.890,4,-0.26,0.95,1.34,87.69120000000001,13.291599999999999,29.0664,175,75
2026-05-07 18:28:09.900,4,-0.31,1.01,1.37,86.7112,25.911600000000004,28.5264,175,75
2026-05-07 18:28:09.912,4,-0.24,1.08,1.4,83.66120000000001,40.7916,32.3064,175,75
2026-05-07 18:28:09.923,4,-0.17,1.06,1.46,81.1012,44.8716,30.5364,175,75
2026-05-07 18:28:09.935,4,-0.27,1.08,1.57,76.7112,36.0916,27.4264,175,75
2026-05-07 18:28:09.948,4,-0.23,1.19,1.63,71.16120000000001,14.2016,26.5064,175,75
2026-05-07 18:28:09.959,4,-0.19,1.15,1.59,69.4512,-20.3084,22.6064,175,75
2026-05-07 18:28:09.970,4,-0.22,1.05,1.48,70.67120000000001,-49.8784,16.0864,175,75
2026-05-07 18:28:09.992,4,-0.21,1.05,1.35,53.3012,-36.5884,7.606399999999999,175,75
2026-05-07 18:28:10.003,4,-0.15,1.15,1.33,45.8012,-23.2384,6.1464,175,75
2026-05-07 18:28:10.003,4,-0.19,1.22,1.3,42.1412,-8.5984,8.276399999999999,175,75
2026-05-07 18:28:10.012,4,-0.19,1.21,1.29,40.1212,7.561600000000002,10.776399999999999,175,75
2026-05-07 18:28:10.025,4,-0.11,1.21,1.29,33.4812,18.1716,10.2264,175,75
2026-05-07 18:28:10.036,4,-0.07,1.27,1.4,22.871199999999998,30.6016,15.5964,175,75
2026-05-07 18:28:10.049,4,-0.19,1.3,1.5,20.6712,30.3616,24.3164,175,75
2026-05-07 18:28:10.062,4,-0.38,1.19,1.56,21.8312,-66.7084,2.176400000000001,175,75
2026-05-07 18:28:10.085,4,0.03,1.22,1.35,16.8912,-90.8584,-12.1536,175,75
2026-05-07 18:28:10.089,4,-0.58,1.54,1.32,25.1912,-27.9884,9.3164,175,75
2026-05-07 18:28:10.103,4,-0.43,1.37,1.18,25.551199999999998,65.0016,48.9464,175,75
2026-05-07 18:28:10.123,4,-1.24,1.25,1.26,6.591200000000001,35.851600000000005,103.5864,175,75
2026-05-07 18:28:10.123,4,-3.51,1.0,0.92,118.66120000000001,186.4016,66.6364,175,75
2026-05-07 18:28:10.137,4,1.49,2.07,3.04,-11.828800000000001,694.5716,400.7164,175,75
2026-05-07 18:28:10.149,4,2.07,-0.47,3.57,57.3212,-801.4083999999999,-171.1736,175,75
2026-05-07 18:28:10.152,4,0.95,1.48,2.59,-1.3388,-735.6084,-266.0536,175,75
2026-05-07 18:28:10.169,4,-2.24,2.28,1.66,-27.0688,-377.9284,-108.61359999999999,175,75
2026-05-07 18:28:10.176,4,-0.98,2.41,1.18,18.3012,-73.2984,-10.563600000000001,175,75
2026-05-07 18:28:10.186,4,0.72,1.14,0.95,25.801199999999998,-36.038399999999996,-13.183600000000002,175,75
2026-05-07 18:28:10.206,4,0.14,0.83,1.43,34.0912,-62.4384,-4.223600000000001,175,75
2026-05-07 18:28:10.218,4,0.05,1.42,1.72,-11.578800000000001,57.9816,30.956400000000002,175,75
2026-05-07 18:28:10.271,4,0.31,1.0,1.94,2.1412,235.85160000000002,62.7264,175,75
2026-05-07 18:28:10.271,4,0.18,1.0,2.06,5.7312,218.9616,55.776399999999995,175,75
2026-05-07 18:28:10.292,4,0.08,0.96,2.13,13.9012,172.8016,46.9364,175,75
2026-05-07 18:28:10.302,4,-0.13,0.88,2.1,24.5812,101.46159999999999,30.1064,175,75
2026-05-07 18:28:10.313,4,-0.25,0.82,2.04,27.3812,43.6516,11.6364,175,75
2026-05-07 18:28:10.325,4,-0.27,0.88,1.86,21.711199999999998,-57.138400000000004,-16.4736,175,75
2026-05-07 18:28:10.342,4,-0.26,0.93,1.82,24.1512,-86.5284,-22.393600000000003,175,75
2026-05-07 18:28:10.359,4,-0.27,0.98,1.82,29.0912,-111.03840000000001,-24.953599999999998,175,75
2026-05-07 18:28:10.359,4,-0.3,0.98,1.84,31.5312,-121.0984,-22.633599999999998,175,75
2026-05-07 18:28:10.376,4,-0.29,0.97,1.85,31.9512,-131.2884,-25.133599999999998,175,75
2026-05-07 18:28:10.376,4,-0.24,0.94,1.87,31.3412,-143.0484,-28.7336,175,75
2026-05-07 18:28:10.391,4,-0.21,0.91,1.82,30.9212,-158.5984,-34.0436,175,75
2026-05-07 18:28:10.402,4,-0.18,0.9,1.73,27.6912,-169.6984,-41.78360000000001,175,75
2026-05-07 18:28:10.413,4,-0.18,0.89,1.64,23.481199999999998,-164.51839999999999,-44.28360000000001,175,75
2026-05-07 18:28:10.438,4,-0.31,0.99,1.51,9.391200000000001,-110.9184,-35.6836,175,75
2026-05-07 18:28:10.461,4,-0.23,1.1,1.51,-8.468800000000002,13.9616,-11.473600000000001,175,75
2026-05-07 18:28:10.471,4,-0.16,1.07,1.54,-8.4088,46.8916,-5.503599999999999,175,75
2026-05-07 18:28:10.471,4,-0.11,0.99,1.6,-4.6288,65.4216,-0.3836000000000013,175,75
2026-05-07 18:28:10.484,4,-0.11,0.91,1.7,-3.4088000000000003,70.5416,1.936399999999999,175,75
2026-05-07 18:28:10.499,4,-0.18,0.89,1.81,-3.7188,63.6516,1.2664000000000009,175,75
2026-05-07 18:28:10.529,4,-0.22,0.89,1.97,11.1012,-48.9684,-20.933600000000002,175,75
2026-05-07 18:28:10.540,4,-0.18,0.9,1.89,17.3812,-107.9284,-38.1836,175,75
2026-05-07 18:28:10.556,4,-0.14,0.95,1.76,21.7712,-158.17839999999998,-52.1536,175,75
2026-05-07 18:28:10.556,4,-0.15,1.02,1.58,23.7212,-181.64839999999998,-56.843599999999995,175,75
2026-05-07 18:28:10.565,4,-0.17,1.05,1.44,23.6012,-174.6984,-55.2636,175,75
2026-05-07 18:28:10.580,4,-0.19,1.1,1.31,18.7812,-130.3684,-45.623599999999996,175,75
2026-05-07 18:28:10.591,4,-0.2,1.14,1.27,12.261199999999999,-75.5484,-31.353600000000004,175,75
2026-05-07 18:28:10.602,4,-0.23,1.18,1.3,10.0012,-12.1984,-13.5536,175,75
2026-05-07 18:28:10.612,4,-0.21,1.18,1.44,12.7512,40.6716,5.7164,175,75
2026-05-07 18:28:10.640,4,-0.09,1.12,1.65,14.2712,41.581599999999995,13.276399999999999,175,75
2026-05-07 18:28:10.660,4,-0.01,1.09,1.68,12.691199999999998,-2.808399999999999,2.1163999999999987,175,75
2026-05-07 18:28:10.670,4,-0.01,1.07,1.63,12.8112,-48.9084,-9.4036,175,75
2026-05-07 18:28:10.676,4,-0.08,1.08,1.55,12.011199999999999,-78.8484,-17.213600000000003,175,75
2026-05-07 18:28:10.698,4,-0.16,1.15,1.38,3.9012000000000002,-53.8484,-10.9936,175,75
2026-05-07 18:28:10.709,4,-0.17,1.14,1.33,3.8412,-15.1884,-1.4736000000000011,175,75
2026-05-07 18:28:10.720,4,-0.14,1.11,1.35,3.4212000000000002,21.951600000000003,7.3664000000000005,175,75
2026-05-07 18:28:10.730,4,-0.16,1.11,1.42,0.6112000000000002,43.6516,12.176400000000001,175,75
2026-05-07 18:28:10.744,4,-0.16,1.1,1.49,-2.7988,54.2616,13.526399999999999,175,75
2026-05-07 18:28:10.759,4,-0.13,1.1,1.56,-6.1588,46.581599999999995,10.5364,175,75
2026-05-07 18:28:10.773,4,-0.16,1.09,1.59,-7.618799999999999,-3.2384000000000004,0.5364000000000004,175,75
2026-05-07 18:28:10.784,4,-0.2,1.13,1.61,-7.9188,-18.3584,-3.7936000000000014,175,75
2026-05-07 18:28:10.820,4,-0.2,1.13,1.57,-8.718800000000002,-25.6784,3.7064000000000004,175,75
2026-05-07 18:28:10.830,4,-0.18,1.08,1.54,-6.1588,-23.4184,4.8064,175,75
2026-05-07 18:28:10.874,4,-0.1,0.91,1.43,-2.5587999999999997,0.18159999999999954,7.916399999999999,175,75
2026-05-07 18:28:10.895,4,-0.19,0.91,1.47,-4.3888,30.1816,9.8064,175,75
2026-05-07 18:28:10.907,4,-0.21,0.97,1.51,-4.5687999999999995,37.9216,11.026399999999999,175,75
2026-05-07 18:28:10.925,4,-0.21,1.06,1.6,0.5512000000000001,40.241600000000005,17.2464,175,75
2026-05-07 18:28:10.933,4,-0.22,1.08,1.63,4.7012,33.2316,20.8964,175,75
2026-05-07 18:28:10.950,4,-0.17,1.07,1.66,5.4912,16.4616,18.3364,175,75
2026-05-07 18:28:10.964,4,-0.12,1.04,1.6,5.3111999999999995,-0.12839999999999918,14.9864,175,75
2026-05-07 18:28:10.964,4,-0.13,1.02,1.52,4.9412,-10.0684,12.4864,175,75
2026-05-07 18:28:10.974,4,-0.17,1.01,1.49,4.5812,-1.7083999999999993,13.6464,175,75
2026-05-07 18:28:10.988,4,-0.23,1.06,1.47,-0.3588,32.071600000000004,18.4564,175,75
2026-05-07 18:28:11.002,4,-0.34,1.18,1.54,-3.8388,76.9516,33.2164,175,75
2026-05-07 18:28:11.015,4,-0.42,1.24,1.63,-1.9488000000000003,111.0916,47.2464,175,75
2026-05-07 18:28:11.026,4,-0.34,1.24,1.74,0.12119999999999997,127.37159999999999,59.9264,175,75
2026-05-07 18:28:11.049,4,-0.3,1.15,1.69,3.7812,95.9716,60.3464,175,75
2026-05-07 18:28:11.061,4,-0.32,1.12,1.61,7.0812,105.3016,62.246399999999994,175,75
2026-05-07 18:28:11.071,4,-0.32,1.12,1.64,7.6912,135.85160000000002,72.9764,175,75
2026-05-07 18:28:11.081,4,-0.31,1.12,1.74,4.6411999999999995,181.4616,92.60640000000001,175,75
2026-05-07 18:28:11.094,4,-0.26,1.14,1.88,6.7712,195.73160000000001,104.0664,175,75
2026-05-07 18:28:11.105,4,-0.07,1.11,2.08,12.261199999999999,182.50160000000002,113.3364,175,75
2026-05-07 18:28:11.109,4,0.17,0.95,2.23,21.711199999999998,113.5316,96.8164,175,75
2026-05-07 18:28:11.128,4,0.25,0.86,2.23,29.0312,37.071600000000004,69.5564,175,75
2026-05-07 18:28:11.140,4,0.26,0.87,2.19,32.0112,-40.8584,34.376400000000004,175,75
2026-05-07 18:28:11.151,4,0.24,0.97,2.1,27.9912,-77.4384,20.2864,175,75
2026-05-07 18:28:11.156,4,0.2,1.06,1.89,26.6512,-86.7684,9.8664,175,75
2026-05-07 18:28:11.171,4,0.22,1.1,1.72,28.9012,-58.47839999999999,16.9364,175,75
2026-05-07 18:28:11.188,4,0.22,1.09,1.58,25.0612,18.0416,31.386400000000002,175,75
2026-05-07 18:28:11.194,4,0.16,1.08,1.58,22.6912,61.46159999999999,40.4764,175,75
2026-05-07 18:28:11.208,4,0.08,1.09,1.66,20.801199999999998,105.0016,50.3464,175,75
2026-05-07 18:28:11.221,4,0.04,1.09,1.76,19.2712,131.0916,57.546400000000006,175,75
2026-05-07 18:28:11.233,4,0.08,1.03,1.86,22.0112,133.8416,56.636399999999995,175,75
2026-05-07 18:28:11.244,4,0.06,0.95,1.94,24.2712,107.6816,46.6964,175,75
2026-05-07 18:28:11.255,4,0.05,0.94,1.99,24.821199999999997,78.6516,33.3964,175,75
2026-05-07 18:28:11.265,4,0.06,0.94,1.99,23.481199999999998,45.241600000000005,19.5564,175,75
2026-05-07 18:28:11.283,4,0.01,1.0,1.96,24.5112,-2.4984,0.7763999999999989,175,75
2026-05-07 18:28:11.283,4,-0.02,1.06,1.92,24.9412,-24.458399999999997,-7.633600000000001,175,75
2026-05-07 18:28:11.298,4,-0.03,1.08,1.83,25.4312,-33.0484,-10.1936,175,75
2026-05-07 18:28:11.308,4,-0.03,1.04,1.71,27.5612,-33.2384,-11.2336,175,75
2026-05-07 18:28:11.321,4,-0.1,1.06,1.69,26.3412,-28.9684,-10.4436,175,75
2026-05-07 18:28:11.322,4,-0.11,1.1,1.7,24.0312,-17.3784,-5.073599999999999,175,75
2026-05-07 18:28:11.336,4,-0.1,1.05,1.7,27.621199999999998,-18.5384,-4.4636,175,75
2026-05-07 18:28:11.365,4,-0.1,1.05,1.69,29.5812,-31.9584,-10.253599999999999,175,75
2026-05-07 18:28:11.365,4,-0.06,1.06,1.64,28.8412,-35.9784,-13.973600000000001,175,75
2026-05-07 18:28:11.376,4,-0.13,1.07,1.55,32.2012,-34.028400000000005,-14.5836,175,75
2026-05-07 18:28:11.399,4,-0.16,1.05,1.46,27.321199999999997,-8.7884,-11.413599999999999,175,75
2026-05-07 18:28:11.410,4,-0.17,1.02,1.46,26.4012,7.011600000000001,-8.613600000000002,175,75
2026-05-07 18:28:11.410,4,-0.18,1.04,1.51,25.8612,12.3716,-7.153600000000001,175,75
2026-05-07 18:28:11.428,4,-0.2,1.09,1.56,22.141199999999998,7.6815999999999995,-7.573599999999999,175,75
2026-05-07 18:28:11.430,4,-0.19,1.1,1.58,20.2512,-4.208399999999999,-9.523600000000002,175,75
2026-05-07 18:28:11.474,4,-0.36,1.08,1.54,21.1012,-27.8684,-14.463600000000003,175,75
2026-05-07 18:28:11.479,4,-0.4,1.1,1.47,18.1712,-24.578400000000002,-12.573600000000003,175,75
2026-05-07 18:28:11.497,4,-0.43,1.15,1.46,16.5912,-21.8984,-7.5136,175,75
2026-05-07 18:28:11.497,4,-0.39,1.18,1.48,14.821200000000001,-16.1584,-1.6635999999999989,175,75
2026-05-07 18:28:11.515,4,-0.34,1.16,1.47,12.9912,-19.458399999999997,1.7563999999999993,175,75
2026-05-07 18:28:11.524,4,-0.3,1.12,1.47,12.9312,-27.4984,0.10640000000000072,175,75
2026-05-07 18:28:11.549,4,-0.26,1.11,1.4,13.3612,-13.968399999999999,1.3863999999999983,175,75
2026-05-07 18:28:11.573,4,-0.32,1.09,1.38,7.0112000000000005,25.3616,11.026399999999999,175,75
2026-05-07 18:28:11.589,4,-0.29,1.11,1.42,2.5612,42.741600000000005,20.8964,175,75
2026-05-07 18:28:11.640,4,-0.12,1.17,1.56,0.6712000000000002,-9.148399999999999,8.7064,175,75
2026-05-07 18:28:11.652,4,-0.14,1.2,1.47,-1.0987999999999998,-2.9884000000000004,9.1964,175,75
2026-05-07 18:28:11.662,4,-0.2,1.23,1.46,-3.7188,20.5416,15.5364,175,75
2026-05-07 18:28:11.678,4,-0.19,1.25,1.52,-5.788799999999999,55.24159999999999,29.8064,175,75
2026-05-07 18:28:11.725,4,-0.16,1.4,1.77,4.8212,31.701600000000003,34.6164,175,75
2026-05-07 18:28:11.725,4,-0.14,1.3,1.64,11.2212,15.4816,38.4564,175,75
2026-05-07 18:28:11.760,4,-0.37,1.41,1.37,9.1512,62.3116,47.4264,175,75
2026-05-07 18:28:11.787,4,-0.42,1.21,1.45,-0.5488,264.5116,120.16640000000001,175,75
2026-05-07 18:28:11.810,4,-3.97,0.59,0.22,100.3712,258.29159999999996,34.7464,175,75
2026-05-07 18:28:11.825,4,1.57,2.18,3.18,9.581199999999999,790.6716,386.6364,175,75
2026-05-07 18:28:11.836,4,2.46,-0.18,2.46,-64.0188,1087.9216,385.4764,175,75
2026-05-07 18:28:11.852,4,-2.0,0.46,4.65,90.92120000000001,-315.5484,-126.1736,175,75
2026-05-07 18:28:11.863,4,-0.84,1.38,2.78,20.0012,-226.8284,-64.3436,175,75
2026-05-07 18:28:11.863,4,-0.03,1.7,1.93,-29.4488,-360.5484,-114.0436,175,75
2026-05-07 18:28:11.877,4,-0.31,1.69,1.59,-17.5588,-335.6784,-62.8836,175,75
2026-05-07 18:28:11.889,4,-0.56,1.2,1.0,43.1112,-207.1984,-12.023600000000002,175,75
2026-05-07 18:28:11.899,4,-0.47,0.98,1.02,52.6212,-19.638399999999997,36.876400000000004,175,75
2026-05-07 18:28:11.915,4,-0.21,0.79,1.45,-0.7288000000000001,329.6916,101.1464,175,75
2026-05-07 18:28:11.933,4,-0.17,0.69,2.5,16.7712,301.28159999999997,122.66640000000001,175,75
2026-05-07 18:28:11.957,4,-0.39,0.66,2.71,52.2612,-161.0384,-18.243599999999997,175,75
2026-05-07 18:28:11.966,4,-0.4,0.8,2.41,61.9512,-314.51840000000004,-66.4136,175,75
2026-05-07 18:28:11.986,4,-0.43,0.92,2.15,60.3112,-361.95840000000004,-80.3836,175,75
2026-05-07 18:28:11.986,4,-0.45,1.04,1.85,53.4212,-365.6084,-77.39359999999999,175,75
2026-05-07 18:28:11.998,4,-0.51,1.15,1.53,41.9512,-316.82840000000004,-66.2336,175,75
2026-05-07 18:28:12.009,4,-0.44,1.22,1.23,25.551199999999998,-202.0784,-40.4436,175,75
2026-05-07 18:28:12.022,4,-0.38,1.23,1.07,15.191199999999998,-81.58840000000001,-9.1036,175,75
2026-05-07 18:28:12.032,4,-0.32,1.17,1.08,12.621200000000002,62.0116,26.7564,175,75
2026-05-07 18:28:12.043,4,-0.29,1.09,1.38,8.231200000000001,188.8416,59.8064,175,75
2026-05-07 18:28:12.053,4,-0.24,1.02,1.76,-0.4887999999999999,251.5216,75.0464,175,75
2026-05-07 18:28:12.065,4,-0.16,1.0,2.01,-3.8388,239.8116,73.0964,175,75
2026-05-07 18:28:12.074,4,-0.09,0.96,2.22,2.3212,156.76160000000002,51.2064,175,75
2026-05-07 18:28:12.093,4,-0.12,0.94,2.28,10.8012,50.30159999999999,18.7664,175,75
2026-05-07 18:28:12.093,4,-0.14,0.93,2.26,16.2812,-29.1484,-8.363600000000002,175,75
2026-05-07 18:28:12.104,4,-0.21,0.96,2.07,18.7812,-104.39840000000001,-34.4636,175,75
2026-05-07 18:28:12.116,4,-0.26,1.0,1.92,16.2812,-124.6984,-42.333600000000004,175,75
2026-05-07 18:28:12.133,4,-0.34,1.04,1.82,11.9512,-118.53840000000001,-41.4136,175,75
2026-05-07 18:28:12.133,4,-0.37,1.05,1.73,8.481200000000001,-87.25840000000001,-32.333600000000004,175,75
2026-05-07 18:28:12.144,4,-0.38,1.05,1.69,8.3012,-51.8284,-20.6236,175,75
2026-05-07 18:28:12.160,4,-0.39,1.06,1.71,9.821200000000001,-18.2984,-9.4036,175,75
2026-05-07 18:28:12.160,4,-0.34,1.06,1.74,10.731200000000001,5.971599999999999,-1.2936000000000014,175,75
2026-05-07 18:28:12.215,4,-0.23,1.03,1.76,15.191199999999998,-40.9184,-20.0136,175,75
2026-05-07 18:28:12.229,4,-0.32,1.09,1.68,10.8612,-34.0884,-20.683600000000002,175,75
2026-05-07 18:28:12.249,4,-0.38,1.16,1.71,9.821200000000001,-11.9584,-7.823599999999999,175,75
2026-05-07 18:28:12.272,4,-0.33,1.14,1.74,12.261199999999999,-7.628399999999999,-1.8435999999999986,175,75
2026-05-07 18:28:12.272,4,-0.29,1.1,1.74,14.211200000000002,-11.7684,0.04639999999999844,175,75
2026-05-07 18:28:12.286,4,-0.26,1.05,1.7,16.0412,-29.8784,-5.133600000000001,175,75
2026-05-07 18:28:12.399,4,-0.28,1.12,1.69,-1.9488000000000003,-2.1983999999999995,-0.8636000000000017,175,75
2026-05-07 18:28:12.414,4,-0.35,1.12,1.62,-1.5788000000000002,-20.6084,-2.8836000000000013,175,75
2026-05-07 18:28:12.429,4,-0.33,1.09,1.59,-3.3487999999999998,-12.8684,0.34639999999999915,175,75
2026-05-07 18:28:12.460,4,-0.26,1.04,1.69,-3.2287999999999997,-5.248399999999999,4.7463999999999995,175,75
2026-05-07 18:28:12.473,4,-0.24,1.03,1.72,-4.2688,-25.4284,-0.8636000000000017,175,75
2026-05-07 18:28:12.473,4,-0.22,1.04,1.71,-4.1988,-45.5484,-6.1736,175,75
2026-05-07 18:28:12.489,4,-0.22,1.06,1.67,-3.4688,-68.5984,-11.293600000000001,175,75
2026-05-07 18:28:12.530,4,-0.22,1.11,1.6,-3.8388,-58.178399999999996,-11.543600000000001,175,75
2026-05-07 18:28:12.541,4,-0.18,1.11,1.57,-4.2688,-54.4584,-9.4036,175,75
2026-05-07 18:28:12.595,4,-0.25,1.12,1.52,-9.9388,-6.828399999999999,0.34639999999999915,175,75
2026-05-07 18:28:12.606,4,-0.26,1.11,1.54,-10.238800000000001,13.8416,6.506399999999999,175,75
2026-05-07 18:28:12.617,4,-0.21,1.06,1.66,-11.8888,47.5616,16.5064,175,75
2026-05-07 18:28:12.662,4,-0.16,1.02,1.79,-5.548799999999999,21.1516,7.176399999999999,175,75
2026-05-07 18:28:12.692,4,-0.23,1.06,1.77,-0.17879999999999985,12.011600000000001,7.7264,175,75
2026-05-07 18:28:12.705,4,-0.23,1.05,1.76,3.0512,17.561600000000002,11.0864,175,75
2026-05-07 18:28:12.720,4,-0.24,1.06,1.79,5.3111999999999995,21.4016,13.9464,175,75
2026-05-07 18:28:12.729,4,-0.23,1.13,1.81,4.2712,16.0316,15.1064,175,75
2026-05-07 18:28:12.742,4,-0.23,1.13,1.81,5.4312000000000005,14.5716,16.2664,175,75
2026-05-07 18:28:12.777,4,-0.2,1.12,1.81,7.4412,15.3016,18.2164,175,75
2026-05-07 18:28:12.777,4,-0.17,1.09,1.81,6.6512,15.061600000000002,17.9164,175,75
2026-05-07 18:28:12.787,4,-0.18,1.08,1.81,3.4212000000000002,14.3916,17.976399999999998,175,75
2026-05-07 18:28:12.807,4,-0.23,1.1,1.86,2.3812,25.121599999999997,26.6964,175,75
2026-05-07 18:28:12.822,4,-0.16,1.08,1.86,2.0812,23.2916,24.6764,175,75
2026-05-07 18:28:12.889,4,-0.11,1.07,1.85,10.8612,35.4816,28.336399999999998,175,75
2026-05-07 18:28:12.889,4,-0.11,1.07,1.89,12.5012,32.191599999999994,27.3064,175,75
2026-05-07 18:28:12.926,4,-0.05,1.09,1.89,15.731200000000001,-8.5384,17.8464,175,75
2026-05-07 18:28:12.948,4,-0.09,1.09,1.7,20.731199999999998,-37.258399999999995,6.936399999999999,175,75
2026-05-07 18:28:12.959,4,-0.12,1.1,1.67,21.7712,-21.4084,11.5064,175,75
2026-05-07 18:28:12.975,4,-0.13,1.08,1.63,22.2612,5.4816,18.7064,175,75
2026-05-07 18:28:13.010,4,-0.1,1.03,1.65,24.7012,21.091600000000003,18.3964,175,75
2026-05-07 18:28:13.020,4,-0.09,1.01,1.65,24.641199999999998,9.081600000000002,13.7664,175,75
2026-05-07 18:28:13.048,4,-0.14,1.05,1.62,25.4912,-24.8784,3.5863999999999994,175,75
2026-05-07 18:28:13.087,4,-0.21,1.06,1.55,23.481199999999998,-52.258399999999995,-6.293600000000001,175,75
2026-05-07 18:28:13.104,4,-0.22,1.06,1.53,22.621199999999998,-56.7084,-9.8936,175,75
2026-05-07 18:28:13.116,4,-0.25,1.1,1.49,20.9212,-66.7084,-15.323600000000003,175,75
2026-05-07 18:28:13.126,4,-0.28,1.14,1.35,18.6612,-58.2384,-13.673599999999997,175,75
2026-05-07 18:28:13.138,4,-0.28,1.16,1.31,13.171199999999999,-33.1084,-6.903600000000001,175,75
2026-05-07 18:28:13.147,4,-0.25,1.16,1.29,10.2512,-2.0784000000000002,1.1463999999999999,175,75
2026-05-07 18:28:13.160,4,-0.25,1.14,1.36,6.6512,25.9716,9.9864,175,75
2026-05-07 18:28:13.187,4,-0.2,1.09,1.53,0.6112000000000002,28.9616,10.776399999999999,175,75
2026-05-07 18:28:13.206,4,-0.17,1.1,1.59,0.12119999999999997,5.7316,5.346399999999999,175,75
2026-05-07 18:28:13.206,4,-0.16,1.12,1.6,0.06119999999999992,-31.4084,-3.3035999999999994,175,75
2026-05-07 18:28:13.225,4,-0.22,1.14,1.44,2.5612,-58.0484,-6.723600000000001,175,75
2026-05-07 18:28:13.238,4,-0.22,1.16,1.39,0.5512000000000001,-38.1084,-1.2936000000000014,175,75
2026-05-07 18:28:13.275,4,-0.14,1.16,1.33,-4.2688,41.3416,16.9364,175,75
2026-05-07 18:28:13.290,4,-0.12,1.14,1.51,-5.6688,81.1516,27.4264,175,75
2026-05-07 18:28:13.290,4,-0.11,1.11,1.6,-5.6688,80.9716,27.4864,175,75
2026-05-07 18:28:13.310,4,-0.11,1.09,1.69,-6.3988000000000005,65.1816,22.7864,175,75
2026-05-07 18:28:13.325,4,-0.09,1.1,1.7,-4.4488,9.631599999999999,5.106399999999999,175,75
2026-05-07 18:28:13.360,4,-0.12,1.19,1.62,-0.9687999999999999,-4.7584,3.0364000000000004,175,75
2026-05-07 18:28:13.378,4,-0.07,1.23,1.58,0.8612000000000002,7.9816,7.426399999999999,175,75
2026-05-07 18:28:13.382,4,0.03,1.29,1.56,4.2712,24.511599999999998,15.2264,175,75
2026-05-07 18:28:13.407,4,-0.15,1.3,1.71,13.5412,64.8116,29.6164,175,75
2026-05-07 18:28:13.427,4,-0.08,0.99,1.63,20.731199999999998,24.201600000000003,5.2864,175,75
2026-05-07 18:28:13.432,4,0.0,1.21,1.71,12.5612,2.1316000000000006,14.7464,175,75
2026-05-07 18:28:13.457,4,-0.24,1.25,1.65,22.141199999999998,55.85159999999999,44.4364,175,75
2026-05-07 18:28:13.462,4,-0.23,1.15,1.67,24.3312,67.5016,50.0464,175,75
2026-05-07 18:28:13.471,4,-3.93,0.95,0.67,95.1212,-17.9884,-52.5736,175,75
2026-05-07 18:28:13.483,4,1.85,2.33,2.39,1.5312000000000001,421.5816,289.2564,175,75
2026-05-07 18:28:13.494,4,1.41,0.44,1.67,-14.9988,721.5216,266.5664,175,75
2026-05-07 18:28:13.508,4,1.69,0.0,3.71,36.7112,-233.2984,-0.7436000000000007,175,75
2026-05-07 18:28:13.524,4,-0.14,1.14,1.81,23.4212,-472.9284,-120.1936,175,75
2026-05-07 18:28:13.536,4,-0.03,1.4,1.45,7.0812,-520.6084,-114.71359999999999,175,75
2026-05-07 18:28:13.552,4,-0.42,1.54,0.82,31.6512,-342.4384,-26.783600000000003,175,75
2026-05-07 18:28:13.600,4,0.26,1.03,1.73,7.6912,505.91159999999996,162.9764,175,75
2026-05-07 18:28:13.633,4,-0.04,0.58,2.75,24.5812,153.04160000000002,58.4564,175,75
2026-05-07 18:28:13.642,4,-0.22,0.66,2.76,44.3312,-39.638400000000004,-2.0836000000000006,175,75
2026-05-07 18:28:13.658,4,-0.32,0.77,2.6,50.1912,-204.51839999999999,-51.9036,175,75
2026-05-07 18:28:13.662,4,-0.4,0.86,2.4,51.471199999999996,-292.4984,-73.3036,175,75
2026-05-07 18:28:13.719,4,-0.13,1.12,1.56,48.9112,-266.0384,-55.50359999999999,175,75
2026-05-07 18:28:13.808,4,-0.08,1.0,1.7,29.391199999999998,95.7916,24.6764,175,75
2026-05-07 18:28:13.848,4,-0.08,0.92,1.76,23.7812,15.1816,2.0564,175,75
2026-05-07 18:28:13.861,4,-0.06,0.96,1.74,19.641199999999998,-19.7584,-10.6236,175,75
2026-05-07 18:28:13.876,4,-0.04,1.0,1.69,15.0012,-52.5684,-19.8336,175,75
2026-05-07 18:28:13.891,4,-0.0,1.03,1.64,12.081199999999999,-70.0684,-23.243599999999997,175,75
2026-05-07 18:28:13.902,4,-0.01,1.04,1.58,9.331199999999999,-75.5484,-25.683600000000002,175,75
2026-05-07 18:28:13.918,4,0.04,1.02,1.49,9.511199999999999,-62.258399999999995,-26.4736,175,75
2026-05-07 18:28:13.936,4,0.04,1.01,1.45,6.1012,-48.0484,-26.8436,175,75
2026-05-07 18:28:13.936,4,-0.05,1.03,1.46,3.5412,-28.9684,-22.883599999999998,175,75
2026-05-07 18:28:13.959,4,-0.11,1.07,1.48,2.0812,-2.3184000000000005,-17.0236,175,75
2026-05-07 18:28:13.972,4,-0.09,1.05,1.55,-0.1187999999999998,22.621599999999997,-9.773600000000002,175,75
2026-05-07 18:28:13.998,4,-0.1,1.01,1.54,2.4412000000000003,16.401600000000002,-9.8336,175,75
2026-05-07 18:28:14.028,4,-0.21,1.11,1.64,0.9812000000000003,18.1716,-5.133600000000001,175,75
2026-05-07 18:28:14.039,4,-0.21,1.14,1.66,1.4712,15.851600000000001,-0.8636000000000017,175,75
2026-05-07 18:28:14.039,4,-0.2,1.15,1.69,2.7512,9.7516,1.6964000000000006,175,75
2026-05-07 18:28:14.053,4,-0.17,1.16,1.7,2.6912000000000003,-1.2883999999999993,2.6064000000000007,175,75
2026-05-07 18:28:14.070,4,-0.14,1.16,1.64,3.7812,-21.6484,3.766399999999999,175,75
2026-05-07 18:28:14.082,4,-0.14,1.13,1.58,4.2712,-24.8784,4.6164000000000005,175,75
2026-05-07 18:28:14.101,4,-0.2,1.1,1.54,3.9712,-19.0884,7.916399999999999,175,75
2026-05-07 18:28:14.122,4,-0.22,1.12,1.52,4.0912,0.6016000000000012,14.2564,175,75
2026-05-07 18:28:14.148,4,-0.28,0.94,1.5,11.161200000000001,40.7916,30.7164,175,75
2026-05-07 18:28:14.180,4,-0.25,0.89,1.56,17.0112,51.2816,33.9464,175,75
2026-05-07 18:28:14.213,4,-0.21,0.81,1.53,27.0112,28.411600000000004,28.2764,175,75
2026-05-07 18:28:14.213,4,-0.24,0.73,1.4,36.3412,15.0016,21.7564,175,75
2026-05-07 18:28:14.236,4,-0.38,0.7,1.32,42.3212,55.971599999999995,24.2564,175,75
2026-05-07 18:28:14.257,4,-0.37,0.82,1.49,46.8312,101.8216,35.166399999999996,175,75
2026-05-07 18:28:14.268,4,-0.38,0.95,1.59,47.9312,87.0116,36.636399999999995,175,75
2026-05-07 18:28:14.278,4,-0.48,1.06,1.64,49.6412,64.0816,38.0964,175,75
2026-05-07 18:28:14.285,4,-0.55,1.09,1.66,45.7312,52.6816,40.4764,175,75
2026-05-07 18:28:14.337,4,-0.37,1.25,1.67,31.1012,103.2916,79.4964,175,75
2026-05-07 18:28:14.348,4,-0.34,1.21,1.8,28.9012,124.75160000000001,94.49640000000001,175,75
2026-05-07 18:28:14.360,4,-0.35,1.12,1.93,21.0412,132.4316,103.0364,175,75
2026-05-07 18:28:14.386,4,-0.15,0.82,2.07,18.7212,120.6016,117.5464,175,75
2026-05-07 18:28:14.389,4,0.01,0.7,2.1,22.321199999999997,106.0916,114.6764,175,75
2026-05-07 18:28:14.403,4,0.1,0.69,2.12,20.801199999999998,96.7616,109.9264,175,75
2026-05-07 18:28:14.431,4,0.05,0.87,2.19,19.3312,127.0116,116.2664,175,75
2026-05-07 18:28:14.446,4,0.02,0.88,2.25,20.1912,147.6216,122.0564,175,75
2026-05-07 18:28:14.464,4,-0.03,0.84,2.41,26.9512,170.73160000000001,128.0364,175,75
2026-05-07 18:28:14.488,4,0.07,0.73,2.51,44.5112,154.8716,126.38640000000001,175,75
2026-05-07 18:28:14.502,4,0.05,0.68,2.54,59.0312,127.31159999999998,122.4264,175,75
2026-05-07 18:28:14.543,4,-0.06,0.65,2.47,94.33120000000001,-23.0484,81.5664,175,75
2026-05-07 18:28:14.587,4,0.08,0.73,1.79,109.94120000000001,-65.7384,49.3164,175,75
2026-05-07 18:28:14.627,4,0.08,0.75,1.62,93.5412,42.131600000000006,59.2564,175,75
2026-05-07 18:28:14.643,4,0.02,0.8,1.61,83.97120000000001,56.9516,52.9764,175,75
2026-05-07 18:28:14.664,4,-0.02,0.86,1.61,76.3412,67.4316,53.4564,175,75
2026-05-07 18:28:14.698,4,-0.04,0.92,1.65,74.39120000000001,55.7916,52.4864,175,75
2026-05-07 18:28:14.708,4,-0.01,0.9,1.58,75.86120000000001,34.3916,48.526399999999995,175,75
2026-05-07 18:28:14.731,4,-0.09,0.91,1.46,78.30120000000001,41.9516,52.0564,175,75
2026-05-07 18:28:14.740,4,-0.11,0.91,1.4,78.42120000000001,53.35159999999999,54.9864,175,75
2026-05-07 18:28:14.761,4,-0.15,0.97,1.41,72.44120000000001,92.4316,70.5964,175,75
2026-05-07 18:28:14.809,4,-0.17,0.89,1.55,66.2812,91.1516,83.8264,175,75
2026-05-07 18:28:14.832,4,-0.15,0.92,1.57,61.5312,60.85159999999999,72.6064,175,75
2026-05-07 18:28:14.855,4,-0.19,0.93,1.47,57.2612,63.96159999999999,71.3864,175,75
2026-05-07 18:28:14.865,4,-0.19,0.91,1.45,53.7812,80.3616,75.2864,175,75
2026-05-07 18:28:14.892,4,-0.2,0.92,1.56,52.0812,92.8616,81.6964,175,75
2026-05-07 18:28:14.912,4,-0.18,0.94,1.64,52.4412,63.2916,75.6564,175,75
2026-05-07 18:28:14.924,4,-0.18,0.93,1.61,53.7812,44.8116,70.5964,175,75
2026-05-07 18:28:14.938,4,-0.19,0.94,1.56,52.9912,35.91160000000001,69.1964,175,75
2026-05-07 18:28:14.948,4,-0.2,0.94,1.52,52.3212,35.5416,68.2764,175,75
2026-05-07 18:28:14.959,4,-0.19,0.95,1.46,51.1012,41.3416,70.1064,175,75
2026-05-07 18:28:14.959,4,-0.16,0.91,1.44,50.7312,55.4216,74.8664,175,75
2026-05-07 18:28:15.000,4,-0.11,0.84,1.52,52.7512,90.60159999999999,84.5564,175,75
2026-05-07 18:28:15.049,4,-0.25,1.05,1.7,60.2512,19.8716,60.046400000000006,175,75
2026-05-07 18:28:15.049,4,-0.25,1.12,1.69,58.721199999999996,3.5915999999999997,58.3364,175,75
2026-05-07 18:28:15.062,4,-0.26,1.2,1.66,56.1012,-13.1784,53.3964,175,75
2026-05-07 18:28:15.072,4,-0.22,1.26,1.61,54.8212,-19.208399999999997,53.4564,175,75
2026-05-07 18:28:15.083,4,-0.24,1.32,1.61,54.4512,-2.9284,61.1464,175,75
2026-05-07 18:28:15.096,4,-0.25,1.37,1.62,52.8112,12.0716,69.0664,175,75
2026-05-07 18:28:15.116,4,-0.15,1.4,1.72,56.651199999999996,59.5116,97.3664,175,75
2026-05-07 18:28:15.139,4,-0.09,1.31,1.76,62.0812,84.4516,111.38640000000001,175,75
2026-05-07 18:28:15.150,4,-0.2,1.34,1.96,67.9912,126.7016,139.6764,175,75
2026-05-07 18:28:15.162,4,-0.39,1.29,2.01,68.66120000000001,169.57160000000002,163.2164,175,75
2026-05-07 18:28:15.163,4,-0.31,1.08,1.97,66.2812,187.07160000000002,177.3064,175,75
2026-05-07 18:28:15.197,4,-0.29,0.96,2.06,66.0412,216.1516,188.1564,175,75
2026-05-07 18:28:15.209,4,-1.66,0.78,1.73,60.0612,146.5816,223.8864,175,75
2026-05-07 18:28:15.240,4,0.26,0.23,3.38,-11.218800000000002,813.4116,471.6964,175,75
2026-05-07 18:28:15.240,4,1.52,-0.9,5.06,59.8212,-531.6483999999999,16.0864,175,75
2026-05-07 18:28:15.263,4,0.03,0.56,2.62,103.6012,-370.6084,-25.503600000000002,175,75
2026-05-07 18:28:15.270,4,0.21,1.49,1.67,51.5912,-429.26840000000004,-49.28359999999999,175,75
2026-05-07 18:28:15.292,4,-0.26,0.92,0.5,125.7312,132.07160000000002,121.8764,175,75
2026-05-07 18:28:15.315,4,0.18,0.52,2.13,43.971199999999996,566.8916,248.3964,175,75
2026-05-07 18:28:15.327,4,0.12,0.49,2.76,46.3412,470.2416,248.3364,175,75
2026-05-07 18:28:15.338,4,0.06,0.35,2.98,72.8112,321.7016,216.6964,175,75
2026-05-07 18:28:15.352,4,-0.22,0.31,3.01,109.58120000000001,66.0316,138.0964,175,75
2026-05-07 18:28:15.382,4,-0.28,0.68,1.99,124.33120000000001,-278.65840000000003,13.706399999999999,175,75
2026-05-07 18:28:15.394,4,-0.2,0.74,1.64,125.0612,-265.7984,16.5664,175,75
2026-05-07 18:28:15.409,4,-0.17,0.74,1.36,122.6212,-228.5384,23.0964,175,75
2026-05-07 18:28:15.420,4,-0.18,0.78,1.13,112.69120000000001,-148.9684,29.4964,175,75
2026-05-07 18:28:15.432,4,-0.1,0.9,1.05,96.89120000000001,-35.4884,50.416399999999996,175,75
2026-05-07 18:28:15.443,4,-0.07,1.03,1.11,85.7312,68.6516,72.3664,175,75
2026-05-07 18:28:15.505,4,-0.01,0.91,1.73,82.9912,51.461600000000004,75.1064,175,75
2026-05-07 18:28:15.513,4,-0.08,0.94,1.66,83.36120000000001,-2.628399999999999,59.746399999999994,175,75
2026-05-07 18:28:15.532,4,-0.11,0.95,1.54,86.16120000000001,-34.0884,50.0464,175,75
2026-05-07 18:28:15.592,4,0.03,1.15,1.12,54.0312,-32.5684,17.0564,175,75
2026-05-07 18:28:15.608,4,0.01,1.19,1.09,47.6912,-17.6884,13.9464,175,75
2026-05-07 18:28:15.633,4,-0.07,1.26,1.09,37.0812,8.2316,14.2564,175,75
2026-05-07 18:28:15.643,4,-0.01,1.26,1.1,29.5112,19.0216,15.046399999999998,175,75
2026-05-07 18:28:15.645,4,0.02,1.24,1.1,20.8612,26.341600000000003,12.2464,175,75
2026-05-07 18:28:15.661,4,0.0,1.23,1.14,14.581199999999999,29.261599999999998,9.0064,175,75
2026-05-07 18:28:15.672,4,-0.05,1.26,1.18,8.421199999999999,26.6416,4.436399999999999,175,75
2026-05-07 18:28:15.693,4,-0.08,1.31,1.22,5.4912,17.1316,1.2063999999999986,175,75
2026-05-07 18:28:15.715,4,-0.12,1.28,1.25,-1.9488000000000003,5.121600000000001,-3.0035999999999987,175,75
2026-05-07 18:28:15.740,4,-0.09,1.25,1.24,-16.5788,-2.628399999999999,-11.2336,175,75
2026-05-07 18:28:15.759,4,-0.07,1.26,1.26,-21.768800000000002,-3.9684,-13.973600000000001,175,75
2026-05-07 18:28:15.763,4,-0.06,1.25,1.26,-25.4888,-9.398399999999999,-16.5436,175,75
2026-05-07 18:28:15.785,4,-0.06,1.27,1.26,-34.0188,-11.9584,-19.7736,175,75
2026-05-07 18:28:15.816,4,-0.07,1.29,1.3,-37.6188,-4.458399999999999,-16.5436,175,75
2026-05-07 18:28:15.836,4,-0.02,1.27,1.29,-42.3788,-20.7384,-23.433600000000002,175,75
2026-05-07 18:28:15.859,4,0.04,1.3,1.23,-45.9088,-22.1984,-26.2936,175,75
2026-05-07 18:28:15.881,4,0.05,1.18,1.23,-41.8888,16.0316,-19.893600000000003,175,75
2026-05-07 18:28:15.885,4,0.16,1.14,1.36,-47.3088,42.5616,-21.7236,175,75
2026-05-07 18:28:15.923,4,0.03,1.11,1.26,-57.5588,-63.2984,-73.0636,175,75
2026-05-07 18:28:15.939,4,0.0,1.12,1.13,-64.8788,-51.58839999999999,-65.5636,175,75
2026-05-07 18:28:15.951,4,0.08,1.04,1.11,-84.80879999999999,-7.8084,-67.08359999999999,175,75
2026-05-07 18:28:15.976,4,-2.49,1.21,0.79,-117.3788,-261.0384,-41.17359999999999,175,75
2026-05-07 18:28:15.996,4,0.53,1.46,1.84,-134.3888,638.5316,202.84640000000002,175,75
2026-05-07 18:28:16.026,4,0.6,0.99,1.38,-111.1588,-544.2084,-240.99360000000001,175,75
2026-05-07 18:28:16.038,4,0.39,1.29,0.54,-158.8988,-521.6484,-251.17360000000002,175,75
2026-05-07 18:28:16.049,4,-0.75,1.34,0.0,-168.83880000000002,-263.0484,-165.0136,175,75
2026-05-07 18:28:16.100,4,1.14,0.22,2.67,-163.4088,240.3616,-65.3236,175,75
2026-05-07 18:28:16.114,4,0.03,0.19,2.76,-106.4588,-241.70839999999998,-195.3236,175,75
2026-05-07 18:28:16.138,4,0.24,0.77,1.65,-139.5088,-182.49839999999998,-181.1136,175,75
2026-05-07 18:28:16.149,4,0.14,0.87,1.68,-117.9888,-112.9284,-147.4536,175,75
2026-05-07 18:28:16.171,4,0.08,0.71,2.06,-119.32879999999999,31.8916,-103.4936,175,75
2026-05-07 18:28:16.203,4,0.27,0.61,2.52,-104.0188,-82.3184,-132.15359999999998,175,75
2026-05-07 18:28:16.225,4,0.29,0.65,2.1,-94.32879999999999,-130.9184,-144.2236,175,75
2026-05-07 18:28:16.254,4,0.11,0.77,2.1,-84.44879999999999,-77.6284,-121.2936,175,75
2026-05-07 18:28:16.269,4,0.11,0.77,2.15,-80.05879999999999,-64.0884,-115.74359999999999,175,75
2026-05-07 18:28:16.284,4,0.06,0.77,2.14,-69.9388,-75.4284,-116.2336,175,75
2026-05-07 18:28:16.295,4,0.0,0.75,2.06,-60.5488,-122.6884,-119.0436,175,75
2026-05-07 18:28:16.331,4,0.05,0.69,2.04,-53.4088,-159.02839999999998,-122.8836,175,75
2026-05-07 18:28:16.331,4,-0.17,0.79,2.1,-55.5488,-182.86839999999998,-124.83359999999999,175,75
2026-05-07 18:28:16.347,4,-0.15,0.85,2.09,-49.8788,-210.9784,-127.6936,175,75
2026-05-07 18:28:16.367,4,-0.26,0.88,1.8,-34.5688,-279.6384,-126.11359999999999,175,75
2026-05-07 18:28:16.380,4,-0.29,0.9,1.61,-33.8988,-285.8584,-120.99359999999999,175,75
2026-05-07 18:28:16.391,4,-0.38,0.94,1.37,-29.808799999999998,-252.80839999999998,-102.8236,175,75
2026-05-07 18:28:16.403,4,-0.32,0.93,1.21,-22.378800000000002,-180.42839999999998,-84.4636,175,75
2026-05-07 18:28:16.419,4,-0.28,0.88,1.18,-19.018800000000002,-110.6084,-65.4436,175,75
2026-05-07 18:28:16.431,4,-0.32,0.84,1.25,-18.8988,-57.748400000000004,-51.0536,175,75
2026-05-07 18:28:16.443,4,-0.44,0.85,1.44,-16.3988,-11.898399999999999,-36.2936,175,75
2026-05-07 18:28:16.478,4,-0.46,0.85,1.72,-0.6688000000000001,-231.64839999999998,-60.50359999999999,175,75
2026-05-07 18:28:16.499,4,-0.42,1.02,1.33,-3.8388,-280.3684,-62.0236,175,75
2026-05-07 18:28:16.522,4,-0.39,0.94,0.97,2.1412,-195.5484,-32.5136,175,75
2026-05-07 18:28:16.522,4,-0.49,0.93,0.97,1.4012,-120.6784,-9.953600000000002,175,75
2026-05-07 18:28:16.546,4,-0.37,0.96,1.2,-11.578800000000001,-18.3584,18.3964,175,75
2026-05-07 18:28:16.558,4,-0.27,0.95,1.31,-9.6888,-32.6884,19.8064,175,75
2026-05-07 18:28:16.571,4,-0.19,1.03,1.39,-7.9188,-82.86840000000001,12.426400000000001,175,75
2026-05-07 18:28:16.582,4,-0.17,1.07,1.33,-6.5788,-108.47840000000001,9.8664,175,75
2026-05-07 18:28:16.603,4,-0.28,0.97,1.14,1.9512,-91.58840000000001,20.7764,175,75
2026-05-07 18:28:16.613,4,-0.28,0.98,1.1,-2.0687999999999995,-59.2684,30.2864,175,75
2026-05-07 18:28:16.636,4,-0.11,0.97,1.27,-5.298799999999999,-19.578400000000002,36.636399999999995,175,75
2026-05-07 18:28:16.664,4,-0.05,1.01,1.34,-4.808800000000001,-71.0384,28.706400000000002,175,75
2026-05-07 18:28:16.675,4,-0.06,0.97,1.29,-0.8487999999999998,-99.2684,23.7664,175,75
2026-05-07 18:28:16.679,4,-0.04,0.98,1.22,-3.8388,-117.1384,17.8464,175,75
2026-05-07 18:28:16.706,4,0.14,1.17,0.99,-2.4387999999999996,-98.53840000000001,25.656399999999998,175,75
2026-05-07 18:28:16.749,4,0.21,1.05,0.91,2.8112,-82.8084,19.9264,175,75
2026-05-07 18:28:16.767,4,-0.04,1.18,0.67,11.6512,10.3616,59.0064,175,75
2026-05-07 18:28:16.776,4,-0.13,1.09,0.78,18.6012,73.7816,80.1664,175,75
2026-05-07 18:28:16.785,4,-0.05,1.05,0.97,14.4512,118.1016,89.9864,175,75
2026-05-07 18:28:16.794,4,0.2,1.06,1.15,5.1212,130.48160000000001,96.02640000000001,175,75
2026-05-07 18:28:16.805,4,-0.54,1.21,1.09,-2.6188000000000002,22.621599999999997,110.2264,175,75
2026-05-07 18:28:16.858,4,0.19,1.72,1.66,4.7012,-413.0484,-32.0236,175,75
2026-05-07 18:28:16.892,4,0.13,1.02,-0.52,55.7312,-271.15840000000003,-0.6235999999999997,175,75
2026-05-07 18:28:16.903,4,-0.31,1.07,-0.75,34.4512,51.3416,55.046400000000006,175,75
2026-05-07 18:28:16.918,4,0.53,1.09,0.5,-9.9988,490.42159999999996,137.2364,175,75
2026-05-07 18:28:16.926,4,1.07,0.94,1.25,-11.398800000000001,420.73159999999996,135.4164,175,75
2026-05-07 18:28:16.956,4,0.96,0.67,1.83,-2.6788,65.0616,53.276399999999995,175,75
2026-05-07 18:28:16.966,4,0.61,0.69,1.71,-9.018799999999999,-86.03840000000001,-0.683600000000002,175,75
2026-05-07 18:28:16.994,4,0.72,1.07,0.97,-57.2488,-166.70839999999998,-27.883599999999998,175,75
2026-05-07 18:28:17.011,4,0.8,1.02,0.79,-55.7288,-94.9984,-10.133600000000001,175,75
2026-05-07 18:28:17.020,4,0.88,0.91,0.76,-58.8988,-2.4984,-0.9936000000000007,175,75
2026-05-07 18:28:17.045,4,0.8,0.8,0.99,-57.9188,100.7916,5.9564,175,75
2026-05-07 18:28:17.066,4,0.68,0.78,1.28,-49.0188,132.6216,4.9864,175,75
2026-05-07 18:28:17.076,4,0.65,0.81,1.4,-48.8988,130.6716,-1.9635999999999996,175,75
2026-05-07 18:28:17.080,4,0.65,0.84,1.48,-49.3888,113.41159999999999,-13.183600000000002,175,75
2026-05-07 18:28:17.091,4,0.7,0.77,1.46,-50.3588,68.71159999999999,-34.0436,175,75
2026-05-07 18:28:17.115,4,0.63,0.71,1.38,-59.7488,19.3916,-60.1936,175,75
2026-05-07 18:28:17.125,4,0.58,0.79,1.4,-68.22879999999999,19.2016,-65.6236,175,75
2026-05-07 18:28:17.138,4,0.58,0.78,1.38,-70.2388,20.731600000000004,-69.1636,175,75
2026-05-07 18:28:17.152,4,0.6,0.72,1.37,-71.82879999999999,13.5916,-74.6536,175,75
2026-05-07 18:28:17.175,4,0.46,0.59,1.33,-77.85879999999999,-9.8184,-89.4036,175,75
2026-05-07 18:28:17.185,4,0.44,0.59,1.28,-86.63879999999999,-7.628399999999999,-98.2436,175,75
2026-05-07 18:28:17.211,4,0.33,0.65,1.15,-103.10879999999999,21.8216,-105.4436,175,75
2026-05-07 18:28:17.221,4,0.22,0.66,1.17,-110.9088,67.8616,-102.1536,175,75
2026-05-07 18:28:17.232,4,0.16,0.65,1.26,-120.1188,104.5116,-98.1236,175,75
2026-05-07 18:28:17.253,4,0.16,0.52,1.45,-132.43880000000001,138.9016,-103.36359999999999,175,75
2026-05-07 18:28:17.295,4,0.05,0.41,1.6,-155.05880000000002,-7.2584,-185.7436,175,75
2026-05-07 18:28:17.305,4,-0.02,0.4,1.52,-163.8988,-38.2984,-197.15359999999998,175,75
2026-05-07 18:28:17.328,4,-0.24,0.33,1.24,-192.0688,-46.3484,-201.7836,175,75
2026-05-07 18:28:17.338,4,-0.37,0.27,1.18,-210.6688,-7.2584,-196.6036,175,75
2026-05-07 18:28:17.354,4,-0.42,0.22,1.19,-227.3788,30.6016,-193.4936,175,75
2026-05-07 18:28:17.406,4,-0.39,0.05,1.43,-276.1588,50.001599999999996,-205.3836,175,75
2026-05-07 18:28:17.406,4,-0.45,-0.04,1.45,-283.5888,17.1316,-210.93359999999998,175,75
2026-05-07 18:28:17.416,4,-0.49,-0.08,1.44,-294.1988,-7.4984,-214.0436,175,75
2026-05-07 18:28:17.431,4,-0.52,-0.09,1.41,-309.9388,-26.528399999999998,-218.4936,175,75
2026-05-07 18:28:17.442,4,-0.56,-0.05,1.41,-320.60880000000003,-25.1284,-210.9936,175,75
2026-05-07 18:28:17.454,4,-0.66,-0.0,1.44,-325.2988,-11.1584,-194.2836,175,75
2026-05-07 18:28:17.469,4,-0.82,0.02,1.55,-329.6288,6.151600000000002,-178.2436,175,75
2026-05-07 18:28:17.481,4,-0.95,0.05,1.69,-333.5288,22.9216,-161.96359999999999,175,75
2026-05-07 18:28:17.482,4,-1.0,0.07,1.8,-337.2488,44.631600000000006,-148.7336,175,75
2026-05-07 18:28:17.495,4,-0.82,0.06,1.88,-339.0788,45.5416,-144.7736,175,75
2026-05-07 18:28:17.508,4,-0.59,-0.01,1.87,-337.7388,-2.5684000000000005,-153.7336,175,75
2026-05-07 18:28:17.519,4,-0.47,-0.12,1.8,-335.2388,-85.0684,-166.5436,175,75
2026-05-07 18:28:17.530,4,-0.76,-0.17,1.75,-332.85880000000003,-131.2184,-156.90359999999998,175,75
2026-05-07 18:28:17.548,4,-0.93,-0.18,1.71,-328.9588,-80.9184,-137.15359999999998,175,75
2026-05-07 18:28:17.559,4,-0.88,-0.16,1.7,-331.5788,3.8415999999999997,-117.7536,175,75
2026-05-07 18:28:17.570,4,-0.66,-0.17,1.72,-331.7688,51.3416,-110.0136,175,75
2026-05-07 18:28:17.595,4,-0.64,-0.36,1.67,-295.1188,54.8716,-111.3536,175,75
2026-05-07 18:28:17.608,4,-0.72,-0.48,1.61,-277.7988,76.8216,-107.8236,175,75
2026-05-07 18:28:17.619,4,-0.76,-0.55,1.62,-269.5688,104.3916,-105.1936,175,75
2026-05-07 18:28:17.622,4,-0.77,-0.61,1.71,-269.1988,129.57160000000002,-103.7336,175,75
2026-05-07 18:28:17.655,4,-0.66,-0.55,2.21,-242.18880000000001,52.4316,-121.4136,175,75
2026-05-07 18:28:17.673,4,-0.75,-0.54,2.27,-229.93880000000001,-14.4584,-123.7336,175,75
2026-05-07 18:28:17.678,4,-0.77,-0.53,2.19,-224.0188,-39.5184,-121.6636,175,75
2026-05-07 18:28:17.690,4,-0.69,-0.5,2.07,-216.0988,-48.2984,-119.34360000000001,175,75
2026-05-07 18:28:17.705,4,-0.55,-0.46,2.0,-199.99880000000002,-39.998400000000004,-111.7236,175,75
2026-05-07 18:28:17.716,4,-0.45,-0.43,1.98,-180.9088,-22.6884,-95.9336,175,75
2026-05-07 18:28:17.763,4,-0.3,-0.33,2.2,-106.21879999999999,26.521600000000003,-56.17359999999999,175,75
2026-05-07 18:28:17.769,4,-0.32,-0.28,2.25,-86.69879999999999,16.2116,-50.0736,175,75
2026-05-07 18:28:17.791,4,-0.34,-0.15,2.22,-43.528800000000004,-9.148399999999999,-36.843599999999995,175,75
2026-05-07 18:28:17.804,4,-0.33,-0.1,2.16,-24.3888,-21.4684,-26.173599999999997,175,75
2026-05-07 18:28:17.815,4,-0.33,-0.07,2.12,-9.018799999999999,-31.8284,-18.3636,175,75
2026-05-07 18:28:17.815,4,-0.33,-0.04,2.06,9.2112,-42.0184,-8.063600000000001,175,75
2026-05-07 18:28:17.837,4,-0.32,-0.02,1.97,31.6512,-48.3584,4.436399999999999,175,75
2026-05-07 18:28:17.847,4,-0.35,-0.03,1.92,49.8212,-42.928399999999996,12.7264,175,75
2026-05-07 18:28:17.868,4,-0.37,-0.04,1.89,67.8112,-25.5484,21.2064,175,75
2026-05-07 18:28:17.880,4,-0.37,-0.04,1.9,80.3112,-4.878399999999999,30.956400000000002,175,75
2026-05-07 18:28:17.896,4,-0.43,-0.12,2.01,105.3112,37.9216,51.876400000000004,175,75
2026-05-07 18:28:17.918,4,-0.54,-0.29,2.25,130.4312,39.9316,67.9764,175,75
2026-05-07 18:28:17.932,4,-0.54,-0.36,2.39,141.7712,26.2116,76.2664,175,75
2026-05-07 18:28:17.944,4,-0.55,-0.43,2.46,154.2712,3.8415999999999997,81.6364,175,75
2026-05-07 18:28:17.962,4,-0.54,-0.44,2.5,170.31119999999999,-9.0884,92.0564,175,75
2026-05-07 18:28:17.964,4,-0.54,-0.45,2.49,184.1512,-15.1884,100.41640000000001,175,75
2026-05-07 18:28:17.977,4,-0.59,-0.47,2.42,197.9912,-18.1084,112.1164,175,75
2026-05-07 18:28:17.998,4,-0.74,-0.48,2.45,228.1112,-13.5384,147.5464,175,75
2026-05-07 18:28:18.007,4,-0.8,-0.5,2.43,239.0912,-13.6584,164.06640000000002,175,75
2026-05-07 18:28:18.019,4,-0.81,-0.5,2.29,243.8412,-9.6984,183.5864,175,75
2026-05-07 18:28:18.043,4,-0.71,-0.45,2.09,245.31119999999999,-5.5484,206.3264,175,75
2026-05-07 18:28:18.053,4,-0.67,-0.39,2.04,245.06119999999999,-7.078399999999999,214.4964,175,75
2026-05-07 18:28:18.068,4,-0.66,-0.34,1.98,242.9912,-13.5984,222.4864,175,75
2026-05-07 18:28:18.079,4,-0.69,-0.3,1.91,241.6512,-21.348399999999998,226.6964,175,75
2026-05-07 18:28:18.085,4,-0.73,-0.24,1.9,243.1112,-27.7484,229.9264,175,75
2026-05-07 18:28:18.101,4,-0.77,-0.2,1.89,242.6212,-47.6884,233.1564,175,75
2026-05-07 18:28:18.124,4,-0.91,-0.11,1.66,241.4012,-67.0184,226.2064,175,75
2026-05-07 18:28:18.133,4,-0.83,-0.08,1.45,242.56119999999999,-62.3184,218.7064,175,75
2026-05-07 18:28:18.148,4,-0.7,-0.05,1.24,244.3312,-49.148399999999995,211.6364,175,75
2026-05-07 18:28:18.159,4,-0.73,0.0,1.12,241.7112,-22.9284,214.5564,175,75
2026-05-07 18:28:18.170,4,-0.78,0.07,1.08,232.44119999999998,34.691599999999994,230.34640000000002,175,75
2026-05-07 18:28:18.181,4,-0.81,0.24,1.05,176.53119999999998,212.50160000000002,295.6564,175,75
2026-05-07 18:28:18.238,4,-0.75,0.06,1.66,75.3712,286.03159999999997,374.1364,175,75
2026-05-07 18:28:18.238,4,-0.73,-0.02,1.78,52.7512,230.48160000000001,370.5964,175,75
2026-05-07 18:28:18.270,4,-0.8,-0.03,2.02,26.1612,73.0416,343.1564,175,75
2026-05-07 18:28:18.270,4,-0.69,-0.06,2.0,21.7712,-9.8784,321.9964,175,75
2026-05-07 18:28:18.281,4,-0.63,-0.11,1.9,25.801199999999998,-76.5284,301.5064,175,75
2026-05-07 18:28:18.304,4,-0.49,-0.16,1.61,36.4112,-129.7584,280.1664,175,75
2026-05-07 18:28:18.316,4,-0.58,-0.18,1.49,39.5812,-115.7984,280.7164,175,75
2026-05-07 18:28:18.316,4,-0.71,-0.16,1.45,43.7812,-74.4584,287.4264,175,75
2026-05-07 18:28:18.326,4,-0.74,-0.11,1.51,42.3212,-12.6884,302.7264,175,75
2026-05-07 18:28:18.337,4,-0.57,-0.19,1.58,34.0312,23.6516,313.9464,175,75
2026-05-07 18:28:18.350,4,-0.49,-0.32,1.67,25.731199999999998,34.081599999999995,310.5964,175,75
2026-05-07 18:28:18.379,4,-0.33,-0.24,1.84,5.0012,26.1516,283.0964,175,75
2026-05-07 18:28:18.383,4,-0.4,-0.09,1.92,3.7812,11.9516,266.8764,175,75
2026-05-07 18:28:18.398,4,-0.42,-0.01,1.97,5.3111999999999995,-4.3984,252.9164,175,75
2026-05-07 18:28:18.418,4,-0.43,0.02,1.98,4.3911999999999995,-17.9884,238.09640000000002,175,75
2026-05-07 18:28:18.442,4,-0.33,0.22,1.93,10.1212,-74.4584,203.8864,175,75
2026-05-07 18:28:18.463,4,-0.27,0.24,1.85,15.981200000000001,-82.4984,194.9264,175,75
2026-05-07 18:28:18.463,4,-0.25,0.22,1.78,19.391199999999998,-86.5284,189.1364,175,75
2026-05-07 18:28:18.490,4,-0.36,0.27,1.75,20.6712,-88.5984,183.9464,175,75
2026-05-07 18:28:18.500,4,-0.34,0.26,1.74,20.4912,-105.5484,181.8764,175,75
2026-05-07 18:28:18.511,4,-0.37,0.27,1.73,18.6012,-142.01839999999999,179.5564,175,75
2026-05-07 18:28:18.516,4,-0.38,0.3,1.7,16.2812,-165.42839999999998,179.5564,175,75
2026-05-07 18:28:18.532,4,-0.24,0.36,1.64,9.511199999999999,-187.49839999999998,176.6964,175,75
2026-05-07 18:28:18.552,4,-0.16,0.36,1.54,4.1512,-195.30839999999998,175.59640000000002,175,75
2026-05-07 18:28:18.552,4,-0.13,0.31,1.42,6.1012,-192.4384,176.56640000000002,175,75
2026-05-07 18:28:18.561,4,-0.13,0.2,1.32,8.231200000000001,-181.89839999999998,181.3264,175,75
2026-05-07 18:28:18.572,4,-0.2,0.06,1.3,0.4912000000000001,-161.89839999999998,187.1764,175,75
2026-05-07 18:28:18.584,4,-0.22,-0.01,1.32,-12.7988,-131.2184,192.1764,175,75
2026-05-07 18:28:18.598,4,-0.14,0.07,1.46,-35.7288,-105.0684,190.7164,175,75
2026-05-07 18:28:18.613,4,0.06,0.43,1.55,-62.79880000000001,-177.6284,168.7064,175,75
2026-05-07 18:28:18.658,4,-0.03,-0.02,1.09,-85.7888,-51.528400000000005,172.1164,175,75
2026-05-07 18:28:18.669,4,-0.02,-0.05,1.12,-101.88879999999999,24.631600000000002,177.3664,175,75
2026-05-07 18:28:18.680,4,-0.01,-0.1,1.3,-111.57879999999999,65.6716,179.8064,175,75
2026-05-07 18:28:18.695,4,0.1,-0.04,1.57,-128.46880000000002,79.02159999999999,171.2664,175,75
2026-05-07 18:28:18.695,4,0.14,-0.03,1.69,-131.6388,38.961600000000004,151.3264,175,75
2026-05-07 18:28:18.758,4,0.09,-0.37,1.26,-130.11880000000002,-140.1884,106.99640000000001,175,75
2026-05-07 18:28:18.766,4,0.19,-0.37,1.19,-134.80880000000002,-131.4084,108.9464,175,75
2026-05-07 18:28:18.781,4,0.27,-0.41,1.18,-139.74880000000002,-89.0284,114.9864,175,75
2026-05-07 18:28:18.792,4,0.3,-0.45,1.24,-148.0488,-46.4684,112.91640000000001,175,75
2026-05-07 18:28:18.798,4,0.36,-0.4,1.54,-168.1688,-18.4784,103.7064,175,75
2026-05-07 18:28:18.810,4,0.51,-0.33,1.75,-185.7288,-1.8284000000000002,91.0864,175,75
2026-05-07 18:28:18.823,4,0.6,-0.31,1.82,-177.9188,-29.2084,73.9464,175,75
2026-05-07 18:28:18.840,4,0.52,-0.41,1.7,-149.0788,-99.39840000000001,48.526399999999995,175,75
2026-05-07 18:28:18.846,4,0.31,-0.43,1.49,-133.6588,-161.89839999999998,33.7664,175,75
2026-05-07 18:28:18.855,4,0.34,-0.44,1.35,-137.43880000000001,-143.4784,37.1764,175,75
2026-05-07 18:28:18.885,4,0.78,-0.49,1.39,-168.1088,75.3616,47.1164,175,75
2026-05-07 18:28:18.908,4,0.82,-0.46,1.69,-182.61880000000002,137.8616,29.0064,175,75
2026-05-07 18:28:18.934,4,0.54,-0.59,1.91,-159.99880000000002,98.41159999999999,-29.2236,175,75
2026-05-07 18:28:18.956,4,0.44,-0.91,1.84,-150.7888,140.91160000000002,-60.563599999999994,175,75
2026-05-07 18:28:18.969,4,0.47,-1.03,1.96,-152.9888,182.25160000000002,-74.1036,175,75
2026-05-07 18:28:18.978,4,0.5,-1.08,2.18,-160.1788,200.97160000000002,-104.28359999999999,175,75
2026-05-07 18:28:18.988,4,0.5,-1.07,2.3,-160.6688,185.73160000000001,-135.7436,175,75
2026-05-07 18:28:19.019,4,0.34,-1.02,2.26,-140.7288,106.6416,-206.7236,175,75
2026-05-07 18:28:19.031,4,0.09,-1.04,2.02,-131.27880000000002,93.41159999999999,-225.68359999999998,175,75
2026-05-07 18:28:19.045,4,-0.04,-1.03,1.95,-129.5688,106.7616,-222.4536,175,75
2026-05-07 18:28:19.055,4,-0.15,-0.99,1.95,-125.9088,115.1816,-214.8336,175,75
2026-05-07 18:28:19.067,4,-0.28,-0.86,2.04,-117.7388,116.3416,-199.7736,175,75
2026-05-07 18:28:19.115,4,-0.34,-0.32,2.06,-76.5188,-102.7484,-180.93359999999998,175,75
2026-05-07 18:28:19.131,4,-0.35,-0.29,1.83,-72.1288,-146.95839999999998,-177.2736,175,75
2026-05-07 18:28:19.143,4,-0.32,-0.25,1.62,-69.6888,-167.3184,-169.71359999999999,175,75
2026-05-07 18:28:19.157,4,-0.38,-0.12,1.11,-64.44879999999999,-153.17839999999998,-129.5836,175,75
2026-05-07 18:28:19.170,4,-0.48,-0.06,1.0,-60.7888,-118.3584,-111.96359999999999,175,75
2026-05-07 18:28:19.175,4,-0.6,0.05,0.95,-54.2688,-56.4684,-88.6736,175,75
2026-05-07 18:28:19.192,4,-0.6,0.14,0.96,-48.1088,3.3516000000000012,-68.7336,175,75
2026-05-07 18:28:19.213,4,-0.55,0.28,1.14,-28.5288,78.7816,-30.683600000000002,175,75
2026-05-07 18:28:19.230,4,-0.56,0.3,1.22,-13.108800000000002,62.9816,-24.7736,175,75
2026-05-07 18:28:19.240,4,-0.57,0.3,1.26,1.0412,28.7816,-25.0136,175,75
2026-05-07 18:28:19.262,4,-0.61,0.39,1.16,15.0612,-39.5184,-30.253600000000002,175,75
2026-05-07 18:28:19.273,4,-0.66,0.43,1.08,20.371199999999998,-50.918400000000005,-27.393600000000003,175,75
2026-05-07 18:28:19.297,4,-0.73,0.53,0.93,26.711199999999998,-35.1284,-11.6036,175,75
2026-05-07 18:28:19.310,4,-0.73,0.55,0.89,27.8112,-12.9284,-0.7436000000000007,175,75
2026-05-07 18:28:19.310,4,-0.74,0.56,0.88,29.0312,6.701599999999999,8.1564,175,75
2026-05-07 18:28:19.323,4,-0.75,0.55,0.88,32.0112,25.1816,15.4764,175,75
2026-05-07 18:28:19.334,4,-0.72,0.51,0.91,35.9212,41.2816,24.8064,175,75
2026-05-07 18:28:19.393,4,-0.64,0.28,1.03,58.0512,-17.9884,44.4364,175,75
2026-05-07 18:28:19.408,4,-0.63,0.2,1.0,68.11120000000001,-48.7184,48.886399999999995,175,75
2026-05-07 18:28:19.408,4,-0.64,0.11,0.97,77.3812,-69.2684,56.876400000000004,175,75
2026-05-07 18:28:19.440,4,-0.64,-0.1,0.91,94.39120000000001,-94.2684,76.2064,175,75
2026-05-07 18:28:19.452,4,-0.57,-0.24,0.89,102.14120000000001,-100.3084,87.60640000000001,175,75
2026-05-07 18:28:19.452,4,-0.49,-0.31,0.89,105.0612,-106.89840000000001,101.1464,175,75
2026-05-07 18:28:19.463,4,-0.45,-0.38,0.88,108.78120000000001,-114.9384,111.3264,175,75
2026-05-07 18:28:19.481,4,-0.43,-0.47,0.87,116.7112,-129.26839999999999,119.7364,175,75
2026-05-07 18:28:19.491,4,-0.44,-0.58,0.87,127.3212,-148.7884,129.4964,175,75
2026-05-07 18:28:19.504,4,-0.49,-0.7,0.87,140.3712,-173.3584,144.25639999999999,175,75
2026-05-07 18:28:19.519,4,-0.54,-0.82,0.88,155.06119999999999,-202.0784,161.8764,175,75
2026-05-07 18:28:19.519,4,-0.56,-0.9,0.87,165.8012,-222.98839999999998,171.6964,175,75
2026-05-07 18:28:19.530,4,-0.53,-0.97,0.85,180.00119999999998,-248.1084,180.8964,175,75
2026-05-07 18:28:19.554,4,-0.38,-1.06,0.82,196.8912,-268.2984,192.4864,175,75
2026-05-07 18:28:19.581,4,-0.18,-1.13,0.72,194.88119999999998,-267.4384,199.31640000000002,175,75
2026-05-07 18:28:19.592,4,-0.15,-1.23,0.65,196.6512,-254.39839999999998,190.7164,175,75
2026-05-07 18:28:19.605,4,-0.18,-1.34,0.63,194.1512,-225.0684,178.4564,175,75
2026-05-07 18:28:19.619,4,-0.32,-1.31,0.74,160.6112,-147.4384,164.6164,175,75
2026-05-07 18:28:19.641,4,-0.45,-1.06,0.99,119.1512,-61.4684,169.8064,175,75
2026-05-07 18:28:19.671,4,-0.57,-1.1,1.22,106.7112,-66.5884,195.2264,175,75
2026-05-07 18:28:19.674,4,-0.52,-1.24,1.25,100.00120000000001,-79.9384,190.8364,175,75
2026-05-07 18:28:19.699,4,-0.36,-1.36,1.18,84.7612,-81.4084,171.9364,175,75
2026-05-07 18:28:19.712,4,-0.32,-1.2,1.16,81.5912,-56.0984,167.1164,175,75
2026-05-07 18:28:19.734,4,-0.32,-0.92,1.26,71.5912,-9.4584,169.0064,175,75
2026-05-07 18:28:19.751,4,-0.33,-0.86,1.32,65.80120000000001,-7.1384,166.1464,175,75
2026-05-07 18:28:19.773,4,-0.43,-0.67,1.43,74.8812,-83.1784,131.5664,175,75
2026-05-07 18:28:19.784,4,-0.43,-0.6,1.44,79.33120000000001,-107.1384,123.3964,175,75
2026-05-07 18:28:19.804,4,-0.53,-0.45,1.36,84.58120000000001,-162.98839999999998,102.8464,175,75
2026-05-07 18:28:19.822,4,-0.57,-0.4,1.28,89.2112,-170.6084,94.2564,175,75
2026-05-07 18:28:19.856,4,-0.69,-0.41,1.04,96.47120000000001,-129.9984,86.5664,175,75
2026-05-07 18:28:19.872,4,-0.6,-0.45,1.01,96.6512,-93.7184,90.41640000000001,175,75
2026-05-07 18:28:19.893,4,-0.52,-0.48,1.04,93.36120000000001,-79.5184,84.49640000000001,175,75
2026-05-07 18:28:19.905,4,-0.53,-0.46,1.06,87.9312,-80.9184,79.6164,175,75
2026-05-07 18:28:19.920,4,-0.56,-0.38,1.08,82.2612,-82.25840000000001,77.1764,175,75
2026-05-07 18:28:19.931,4,-0.51,-0.33,1.08,81.5912,-80.6084,76.5064,175,75
2026-05-07 18:28:19.946,4,-0.46,-0.31,1.05,82.50120000000001,-87.0184,74.3764,175,75
2026-05-07 18:28:19.968,4,-0.49,-0.29,1.01,78.78120000000001,-99.8184,64.7464,175,75
2026-05-07 18:28:19.978,4,-0.47,-0.28,0.98,74.2112,-99.2684,61.266400000000004,175,75
2026-05-07 18:28:19.991,4,-0.47,-0.24,0.9,67.9912,-103.5984,54.6164,175,75
2026-05-07 18:28:19.991,4,-0.47,-0.23,0.89,67.3212,-97.1384,55.2264,175,75
2026-05-07 18:28:20.009,4,-0.47,-0.22,0.89,66.16120000000001,-76.4084,56.32640000000001,175,75
2026-05-07 18:28:20.026,4,-0.42,-0.21,0.93,61.8912,-63.0484,52.3664,175,75
2026-05-07 18:28:20.040,4,-0.41,-0.19,1.0,54.7012,-64.9984,46.026399999999995,175,75
2026-05-07 18:28:20.051,4,-0.43,-0.16,1.07,48.1112,-72.8084,40.1064,175,75
2026-05-07 18:28:20.066,4,-0.42,-0.11,1.11,42.4412,-88.47840000000001,32.2464,175,75
2026-05-07 18:28:20.069,4,-0.39,-0.04,1.13,36.5912,-116.64840000000001,21.0264,175,75
2026-05-07 18:28:20.101,4,-0.38,0.05,1.08,28.6012,-156.70839999999998,7.9764,175,75
2026-05-07 18:28:20.107,4,-0.45,0.13,1.01,19.391199999999998,-174.3284,1.4464000000000006,175,75
2026-05-07 18:28:20.119,4,-0.44,0.2,0.91,13.421199999999999,-157.6884,1.3263999999999996,175,75
2026-05-07 18:28:20.119,4,-0.41,0.22,0.85,9.761199999999999,-137.3184,3.766399999999999,175,75
2026-05-07 18:28:20.145,4,-0.41,0.16,0.79,2.1412,-76.58840000000001,7.846399999999999,175,75
2026-05-07 18:28:20.160,4,-0.38,0.03,0.88,-8.898800000000001,-26.828400000000002,12.4864,175,75
2026-05-07 18:28:20.193,4,-0.31,-0.09,0.98,-22.128800000000002,-30.6084,9.1964,175,75
2026-05-07 18:28:20.193,4,-0.34,-0.21,0.97,-26.6388,-41.288399999999996,6.936399999999999,175,75
2026-05-07 18:28:20.215,4,-0.34,-0.29,0.96,-34.5688,-48.418400000000005,5.106399999999999,175,75
2026-05-07 18:28:20.215,4,-0.32,-0.33,0.94,-41.8888,-48.2984,5.346399999999999,175,75
2026-05-07 18:28:20.276,4,-0.26,-0.55,0.92,-66.21879999999999,1.1516000000000002,6.5664,175,75
2026-05-07 18:28:20.290,4,-0.27,-0.61,0.95,-73.71879999999999,10.971599999999999,7.2463999999999995,175,75
2026-05-07 18:28:20.290,4,-0.21,-0.69,0.93,-76.88879999999999,19.0816,6.3264,175,75
2026-05-07 18:28:20.300,4,-0.19,-0.78,0.94,-79.5688,26.2816,4.256399999999999,175,75
2026-05-07 18:28:20.308,4,-0.23,-0.84,1.0,-81.88879999999999,51.821600000000004,6.8164,175,75
2026-05-07 18:28:20.342,4,-0.31,-0.83,1.37,-93.22879999999999,114.02159999999999,12.426400000000001,175,75
2026-05-07 18:28:20.365,4,-0.21,-0.79,1.63,-87.9888,51.2816,0.22639999999999816,175,75
2026-05-07 18:28:20.390,4,0.1,-1.03,1.51,-69.13879999999999,-68.9084,-50.9336,175,75
2026-05-07 18:28:20.402,4,0.21,-1.02,1.36,-83.58879999999999,-74.4584,-70.3836,175,75
2026-05-07 18:28:20.402,4,0.15,-0.94,1.3,-97.85879999999999,-45.248400000000004,-75.9936,175,75
2026-05-07 18:28:20.417,4,-0.04,-0.82,1.32,-115.35879999999999,22.741600000000002,-76.6636,175,75
2026-05-07 18:28:20.442,4,-0.13,-0.9,1.56,-131.8288,133.8416,-78.5536,175,75
2026-05-07 18:28:20.453,4,-0.15,-0.98,1.7,-132.9888,142.98160000000001,-93.7936,175,75
2026-05-07 18:28:20.464,4,-0.14,-1.05,1.7,-120.60879999999999,114.5116,-115.68359999999998,175,75
2026-05-07 18:28:20.488,4,-0.19,-1.2,1.61,-103.0488,67.5016,-157.0236,175,75
2026-05-07 18:28:20.502,4,-0.22,-1.22,1.53,-110.4888,66.6416,-168.9736,175,75
2026-05-07 18:28:20.514,4,-0.26,-1.23,1.47,-116.21879999999999,73.2916,-178.18359999999998,175,75
2026-05-07 18:28:20.514,4,-0.27,-1.27,1.41,-119.9388,83.8416,-188.0036,175,75
2026-05-07 18:28:20.525,4,-0.3,-1.35,1.37,-123.6588,95.4216,-196.7836,175,75
2026-05-07 18:28:20.536,4,-0.37,-1.39,1.39,-123.3488,113.5916,-197.7536,175,75
2026-05-07 18:28:20.584,4,-0.42,-1.5,1.38,-126.69879999999999,96.4016,-241.47359999999998,175,75
2026-05-07 18:28:20.602,4,-0.42,-1.44,1.33,-128.3488,82.3116,-256.6636,175,75
2026-05-07 18:28:20.611,4,-0.39,-1.34,1.31,-129.99880000000002,74.6916,-266.9636,175,75
2026-05-07 18:28:20.611,4,-0.36,-1.21,1.28,-131.1588,68.71159999999999,-269.7736,175,75
2026-05-07 18:28:20.624,4,-0.36,-1.05,1.25,-129.8788,66.5816,-264.7736,175,75
2026-05-07 18:28:20.635,4,-0.36,-0.97,1.23,-125.48879999999998,61.7616,-261.9036,175,75
2026-05-07 18:28:20.699,4,-0.49,-0.73,1.15,-108.10879999999999,-8.4184,-249.65359999999998,175,75
2026-05-07 18:28:20.714,4,-0.53,-0.58,1.1,-106.21879999999999,-38.6584,-239.10359999999997,175,75
2026-05-07 18:28:20.721,4,-0.6,-0.32,1.0,-112.30879999999999,-60.8584,-204.1636,175,75
2026-05-07 18:28:20.721,4,-0.61,-0.21,0.93,-117.3788,-53.9684,-179.40359999999998,175,75
2026-05-07 18:28:20.733,4,-0.62,-0.14,0.86,-118.10879999999999,-42.8084,-160.8636,175,75
2026-05-07 18:28:20.743,4,-0.63,-0.08,0.79,-112.85879999999999,-20.4884,-137.2736,175,75
2026-05-07 18:28:20.759,4,-0.65,-0.05,0.75,-106.08879999999999,6.8916,-115.0136,175,75
2026-05-07 18:28:20.770,4,-0.69,-0.03,0.76,-101.27879999999999,35.6716,-93.5536,175,75
2026-05-07 18:28:20.781,4,-0.72,0.01,0.77,-96.63879999999999,58.1716,-73.7336,175,75
2026-05-07 18:28:20.795,4,-0.73,0.06,0.79,-89.74879999999999,75.85159999999999,-56.9636,175,75
2026-05-07 18:28:20.806,4,-0.71,0.1,0.81,-79.19879999999999,89.4516,-39.0436,175,75
2026-05-07 18:28:20.813,4,-0.7,0.13,0.84,-71.5188,95.91159999999999,-26.603600000000004,175,75
2026-05-07 18:28:20.829,4,-0.68,0.17,0.86,-62.6188,99.0816,-12.6936,175,75
2026-05-07 18:28:20.860,4,-0.7,0.25,0.88,-49.3888,97.8016,3.276399999999999,175,75
2026-05-07 18:28:20.893,4,-0.73,0.38,0.93,-24.448800000000002,90.91159999999999,31.9964,175,75
2026-05-07 18:28:20.904,4,-0.75,0.39,0.94,-17.3088,87.6216,42.5464,175,75
2026-05-07 18:28:20.915,4,-0.76,0.39,0.95,-8.468800000000002,83.8416,51.2064,175,75
2026-05-07 18:28:20.933,4,-0.74,0.4,0.99,2.0812,73.10159999999999,62.3664,175,75
2026-05-07 18:28:20.945,4,-0.73,0.4,1.01,5.921200000000001,63.96159999999999,67.9164,175,75
2026-05-07 18:28:20.955,4,-0.73,0.4,1.02,9.2112,57.191599999999994,70.4164,175,75
2026-05-07 18:28:20.961,4,-0.72,0.39,1.02,13.301200000000001,47.191599999999994,73.6464,175,75
2026-05-07 18:28:20.987,4,-0.72,0.4,1.05,18.7812,22.5016,76.5664,175,75
2026-05-07 18:28:20.987,4,-0.7,0.4,1.05,22.5012,9.0216,76.6964,175,75
2026-05-07 18:28:20.999,4,-0.7,0.39,1.04,28.3612,-6.288399999999999,78.1564,175,75
2026-05-07 18:28:21.010,4,-0.69,0.36,1.02,38.0512,-24.5184,80.4764,175,75
2026-05-07 18:28:21.030,4,-0.68,0.32,1.0,46.7112,-38.3584,81.8164,175,75
2026-05-07 18:28:21.044,4,-0.67,0.22,0.94,61.5312,-63.47839999999999,89.4364,175,75
2026-05-07 18:28:21.085,4,-0.63,0.08,0.91,90.92120000000001,-89.5784,108.52640000000001,175,75
2026-05-07 18:28:21.096,4,-0.61,0.01,0.9,99.58120000000001,-102.1984,113.3964,175,75
2026-05-07 18:28:21.096,4,-0.59,-0.08,0.9,108.91120000000001,-114.8784,117.3664,175,75
2026-05-07 18:28:21.116,4,-0.56,-0.21,0.87,123.4812,-133.3584,122.66640000000001,175,75
2026-05-07 18:28:21.116,4,-0.55,-0.34,0.84,137.1412,-151.89839999999998,130.47639999999998,175,75
2026-05-07 18:28:21.136,4,-0.55,-0.49,0.81,153.0512,-165.9184,138.3364,175,75
2026-05-07 18:28:21.149,4,-0.54,-0.65,0.79,167.1412,-172.3184,149.1364,175,75
2026-05-07 18:28:21.164,4,-0.52,-0.82,0.78,179.1512,-173.6584,160.4164,175,75
2026-05-07 18:28:21.176,4,-0.5,-0.98,0.78,189.7612,-177.6884,173.4564,175,75
2026-05-07 18:28:21.176,4,-0.47,-1.19,0.82,200.3712,-193.17839999999998,195.1064,175,75
2026-05-07 18:28:21.187,4,-0.45,-1.41,0.82,209.4512,-218.4184,219.1364,175,75
2026-05-07 18:28:21.226,4,-0.53,-1.74,0.78,231.28119999999998,-312.6284,252.9164,175,75
2026-05-07 18:28:21.256,4,-0.41,-2.03,0.74,238.3012,-352.8684,261.14639999999997,175,75
2026-05-07 18:28:21.279,4,-0.08,-2.06,0.55,198.0512,-237.1384,185.7164,175,75
2026-05-07 18:28:21.279,4,0.14,-1.95,0.52,191.4012,-179.8784,153.3964,175,75
2026-05-07 18:28:21.299,4,0.54,-1.65,0.58,175.31119999999999,-105.1884,162.0564,175,75
2026-05-07 18:28:21.299,4,0.44,-1.31,0.62,143.3612,-36.8284,186.81640000000002,175,75
2026-05-07 18:28:21.320,4,0.12,-1.13,0.65,109.58120000000001,33.2916,182.6064,175,75
2026-05-07 18:28:21.330,4,-0.2,-0.98,0.74,70.4312,122.31159999999998,165.59640000000002,175,75
2026-05-07 18:28:21.330,4,-0.42,-0.81,0.89,31.5312,184.9316,166.9964,175,75
2026-05-07 18:28:21.345,4,-0.65,-0.66,1.08,-1.3388,235.85160000000002,172.6664,175,75
2026-05-07 18:28:21.358,4,-0.79,-0.56,1.3,-24.8088,272.0116,179.6164,175,75
2026-05-07 18:28:21.369,4,-0.76,-0.55,1.48,-31.278800000000004,274.6316,176.81640000000002,175,75
2026-05-07 18:28:21.379,4,-0.72,-0.54,1.64,-32.4388,254.69160000000002,174.4964,175,75
2026-05-07 18:28:21.390,4,-0.65,-0.49,1.79,-30.7288,207.9216,166.2064,175,75
2026-05-07 18:28:21.403,4,-0.57,-0.43,1.88,-25.9688,121.40159999999999,143.2764,175,75
2026-05-07 18:28:21.413,4,-0.62,-0.38,1.95,-15.7288,5.061600000000002,109.4364,175,75
2026-05-07 18:28:21.429,4,-0.8,-0.33,1.88,11.1012,-135.8584,71.7564,175,75
2026-05-07 18:28:21.440,4,-0.81,-0.34,1.77,23.7212,-181.2184,61.386399999999995,175,75
2026-05-07 18:28:21.451,4,-0.81,-0.34,1.57,37.7512,-238.5384,47.3064,175,75
2026-05-07 18:28:21.463,4,-0.85,-0.33,1.38,49.0912,-267.4984,36.386399999999995,175,75
2026-05-07 18:28:21.469,4,-0.82,-0.29,1.18,60.2512,-243.3584,28.156399999999998,175,75
2026-05-07 18:28:21.496,4,-0.74,-0.22,1.09,65.0612,-198.9084,35.166399999999996,175,75
2026-05-07 18:28:21.516,4,-0.62,-0.16,1.01,66.5312,-146.4084,54.436400000000006,175,75
2026-05-07 18:28:21.516,4,-0.53,-0.3,0.97,72.2612,-74.1484,54.0664,175,75
2026-05-07 18:28:21.523,4,-0.45,-0.4,1.1,69.8812,-31.4684,49.9864,175,75
2026-05-07 18:28:21.536,4,-0.29,-0.45,1.21,65.80120000000001,-7.1983999999999995,50.4764,175,75
2026-05-07 18:28:21.550,4,-0.21,-0.45,1.28,64.8212,-37.498400000000004,33.7064,175,75
2026-05-07 18:28:21.576,4,-0.31,-0.42,1.26,66.2212,-79.14840000000001,11.8164,175,75
2026-05-07 18:28:21.576,4,-0.52,-0.35,1.17,65.0612,-94.9384,0.7164000000000001,175,75
2026-05-07 18:28:21.622,4,-0.88,-0.2,1.24,57.2012,39.2616,35.776399999999995,175,75
