Time,ID,Ax,Ay,Az,Gx,Gy,Gz,Height,Weight
2026-05-09 16:04:24.864,4,0.34,0.44,1.32,-27.788,105.27700000000002,-5.742400000000001,175,75
2026-05-09 16:04:24.912,4,0.81,-0.69,1.52,-20.348,125.827,-10.1324,175,75
2026-05-09 16:04:24.924,4,0.8,-0.76,1.63,-26.817999999999998,123.99700000000001,-22.0224,175,75
2026-05-09 16:04:24.934,4,0.81,-0.75,1.8,-43.528,107.40700000000001,-31.5424,175,75
2026-05-09 16:04:24.980,4,0.76,-0.86,1.83,-46.147999999999996,56.677,-13.672400000000001,175,75
2026-05-09 16:04:25.029,4,0.89,-0.36,1.73,-60.598,6.376999999999995,7.487599999999999,175,75
2026-05-09 16:04:25.049,4,0.58,0.04,1.85,-57.608000000000004,-9.053000000000004,0.9575999999999993,175,75
2026-05-09 16:04:25.078,4,0.58,0.3,1.88,-58.528000000000006,-25.763000000000005,-15.9924,175,75
2026-05-09 16:04:25.078,4,0.63,0.55,1.81,-58.528000000000006,-49.173,-14.6524,175,75
2026-05-09 16:04:25.089,4,0.56,0.68,1.66,-51.147999999999996,-60.273,-3.4924000000000017,175,75
2026-05-09 16:04:25.089,4,0.4,0.66,1.49,-37.178,-46.613,8.527599999999998,175,75
2026-05-09 16:04:25.113,4,0.11,0.56,1.55,-37.238,28.32699999999999,23.647599999999997,175,75
2026-05-09 16:04:25.134,4,0.3,0.83,1.82,-42.488,42.836999999999996,5.897599999999999,175,75
2026-05-09 16:04:25.144,4,0.36,0.94,1.9,-31.818,9.236999999999995,-0.07240000000000002,175,75
2026-05-09 16:04:25.151,4,0.3,0.9,1.87,-10.108,-38.443000000000005,-7.272400000000001,175,75
2026-05-09 16:04:25.174,4,0.19,0.61,1.72,12.762,-70.093,-9.8324,175,75
2026-05-09 16:04:25.174,4,0.11,0.39,1.59,23.362,-78.93299999999999,-9.9524,175,75
2026-05-09 16:04:25.200,4,-0.01,0.07,1.33,31.232000000000003,-72.713,-17.5124,175,75
2026-05-09 16:04:25.249,4,0.3,0.3,1.45,8.431999999999999,48.877,-42.5124,175,75
2026-05-09 16:04:25.249,4,0.62,0.42,1.78,5.562000000000001,107.537,-39.7124,175,75
2026-05-09 16:04:25.261,4,0.62,0.25,1.9,9.772000000000002,114.977,-46.9624,175,75
2026-05-09 16:04:25.274,4,0.63,0.01,1.92,12.882000000000001,133.507,-47.882400000000004,175,75
2026-05-09 16:04:25.285,4,0.78,-0.5,1.92,23.302000000000003,149.727,-45.562400000000004,175,75
2026-05-09 16:04:25.296,4,0.82,-0.85,2.02,33.732,146.737,-40.5024,175,75
2026-05-09 16:04:25.307,4,0.7,-1.03,2.21,47.882000000000005,129.237,-42.452400000000004,175,75
2026-05-09 16:04:25.392,4,0.11,0.06,1.54,93.61200000000001,-94.72300000000001,1.9975999999999985,175,75
2026-05-09 16:04:25.408,4,-0.08,0.32,1.35,72.272,-113.38300000000001,1.6975999999999996,175,75
2026-05-09 16:04:25.464,4,-0.11,0.8,0.78,39.772000000000006,-30.573000000000004,32.6676,175,75
2026-05-09 16:04:25.476,4,-0.17,0.68,0.83,16.542,77.59700000000001,35.7176,175,75
2026-05-09 16:04:25.489,4,-0.11,0.62,0.83,5.862000000000002,116.37700000000001,31.6376,175,75
2026-05-09 16:04:25.489,4,-0.03,0.55,0.83,-0.47799999999999976,147.83700000000002,22.427599999999998,175,75
2026-05-09 16:04:25.504,4,0.07,0.48,0.86,-3.097999999999999,179.907,12.487599999999999,175,75
2026-05-09 16:04:25.532,4,0.32,0.56,1.16,-6.207999999999999,240.58700000000002,-4.522400000000001,175,75
2026-05-09 16:04:25.542,4,0.54,0.46,1.47,-1.2080000000000002,246.617,-9.0424,175,75
2026-05-09 16:04:25.554,4,0.56,0.24,1.6,6.902000000000001,223.99699999999999,-12.082400000000002,175,75
2026-05-09 16:04:25.564,4,0.57,0.02,1.73,6.052,208.937,-22.1524,175,75
2026-05-09 16:04:25.576,4,0.67,-0.18,1.91,-2.7880000000000003,198.017,-26.0524,175,75
2026-05-09 16:04:25.593,4,0.76,-0.32,2.09,-9.068,168.997,-28.1224,175,75
2026-05-09 16:04:25.615,4,0.91,-0.39,2.47,-14.437999999999999,110.517,-48.7924,175,75
2026-05-09 16:04:25.685,4,0.33,-0.93,2.14,41.602000000000004,-118.19300000000001,-56.9024,175,75
2026-05-09 16:04:25.719,4,0.42,-0.33,2.22,-13.398,-106.983,-14.2224,175,75
2026-05-09 16:04:25.740,4,0.15,-0.31,2.15,-8.648,-227.403,-28.1224,175,75
2026-05-09 16:04:25.754,4,0.06,-0.17,1.94,-14.258,-285.943,-38.9724,175,75
2026-05-09 16:04:25.779,4,-0.19,0.22,1.11,-15.597999999999999,-292.403,-48.062400000000004,175,75
2026-05-09 16:04:25.791,4,-0.26,0.35,0.97,-13.888,-247.713,-43.1224,175,75
2026-05-09 16:04:25.795,4,-0.32,0.51,0.97,-17.238,-181.003,-23.7324,175,75
2026-05-09 16:04:25.848,4,-0.2,0.88,1.21,-23.887999999999998,-56.793000000000006,-3.9124000000000017,175,75
2026-05-09 16:04:25.870,4,-0.13,1.12,1.14,-36.448,-24.723000000000003,-11.7224,175,75
2026-05-09 16:04:25.881,4,-0.11,1.17,1.14,-33.338,9.177,-0.8624000000000009,175,75
2026-05-09 16:04:25.892,4,-0.15,0.97,1.24,-26.028,55.457,15.957599999999998,175,75
2026-05-09 16:04:25.908,4,-0.15,0.85,1.37,-28.038,77.71699999999998,15.6576,175,75
2026-05-09 16:04:25.919,4,-0.1,0.79,1.48,-32.308,89.84700000000001,11.2676,175,75
2026-05-09 16:04:25.930,4,-0.01,0.78,1.62,-37.178,97.107,2.4875999999999987,175,75
2026-05-09 16:04:25.944,4,0.23,0.76,1.79,-37.848,85.707,-6.662400000000001,175,75
2026-05-09 16:04:25.969,4,0.61,0.54,2.02,-21.817999999999998,15.396999999999998,-37.452400000000004,175,75
2026-05-09 16:04:25.982,4,0.67,0.33,1.96,-5.287999999999999,-24.603,-56.5424,175,75
2026-05-09 16:04:26.035,4,0.25,-0.59,1.44,-6.327999999999999,-96.553,-7.692400000000001,175,75
2026-05-09 16:04:26.059,4,0.3,-0.74,1.34,-6.148,-23.873000000000005,-3.9724000000000004,175,75
2026-05-09 16:04:26.081,4,1.04,-0.88,1.85,-13.458,76.80699999999999,42.6676,175,75
2026-05-09 16:04:26.088,4,1.18,-0.98,2.02,-14.868,81.37700000000001,59.92759999999999,175,75
2026-05-09 16:04:26.100,4,1.33,-1.09,2.18,-11.508,61.806999999999995,67.6076,175,75
2026-05-09 16:04:26.100,4,1.34,-1.11,2.27,-8.828,9.177,58.03759999999999,175,75
2026-05-09 16:04:26.120,4,1.24,-0.98,2.25,-13.278,-14.413000000000004,42.4276,175,75
2026-05-09 16:04:26.138,4,0.9,-0.22,2.1,-19.497999999999998,-70.69300000000001,40.7776,175,75
2026-05-09 16:04:26.186,4,0.66,0.31,1.89,-6.028,-149.413,-2.5724,175,75
2026-05-09 16:04:26.188,4,0.61,0.49,1.66,3.0020000000000007,-175.453,-8.672400000000001,175,75
2026-05-09 16:04:26.202,4,0.54,0.57,1.44,9.282,-179.72299999999998,-10.072400000000002,175,75
2026-05-09 16:04:26.219,4,0.42,0.58,1.23,9.341999999999999,-159.663,-3.852400000000001,175,75
2026-05-09 16:04:26.280,4,0.48,0.63,1.61,2.8819999999999997,23.326999999999998,18.647599999999997,175,75
2026-05-09 16:04:26.280,4,0.41,0.5,1.62,7.942,-21.373000000000005,5.347599999999998,175,75
2026-05-09 16:04:26.301,4,0.26,0.38,1.54,7.332000000000001,-52.043000000000006,-10.3824,175,75
2026-05-09 16:04:26.308,4,0.2,0.35,1.41,2.3320000000000007,-57.283,-25.742400000000004,175,75
2026-05-09 16:04:26.327,4,0.18,0.44,1.35,-1.267999999999999,-29.113000000000003,-36.1724,175,75
2026-05-09 16:04:26.345,4,0.2,0.49,1.42,-0.16799999999999926,1.9869999999999948,-36.2324,175,75
2026-05-09 16:04:26.345,4,0.27,0.53,1.49,0.7420000000000009,28.696999999999996,-39.1624,175,75
2026-05-09 16:04:26.371,4,0.5,0.61,1.81,1.232000000000001,45.82699999999999,-56.7824,175,75
2026-05-09 16:04:26.404,4,0.71,0.32,1.95,24.772000000000002,31.067,-82.7524,175,75
2026-05-09 16:04:26.412,4,0.61,0.1,1.85,35.44200000000001,11.006999999999998,-80.5624,175,75
2026-05-09 16:04:26.423,4,0.48,-0.23,1.64,42.572,7.4069999999999965,-74.1024,175,75
2026-05-09 16:04:26.434,4,0.4,-0.52,1.46,43.242000000000004,30.517000000000003,-61.9624,175,75
2026-05-09 16:04:26.456,4,0.27,-0.78,1.48,33.122,112.537,-11.2924,175,75
2026-05-09 16:04:26.471,4,0.34,-0.52,1.79,21.541999999999998,131.737,-24.5824,175,75
2026-05-09 16:04:26.509,4,0.58,-0.23,2.2,14.402000000000001,-27.103,40.2876,175,75
2026-05-09 16:04:26.509,4,0.33,-0.47,2.09,15.382000000000001,-104.233,49.3176,175,75
2026-05-09 16:04:26.524,4,0.09,-0.62,1.95,3.492000000000001,-177.343,42.977599999999995,175,75
2026-05-09 16:04:26.536,4,-0.13,-0.47,1.74,-21.328,-263.32300000000004,19.7376,175,75
2026-05-09 16:04:26.547,4,-0.17,-0.2,1.46,-31.387999999999998,-310.57300000000004,-5.3824000000000005,175,75
2026-05-09 16:04:26.558,4,-0.03,0.06,1.13,-17.918,-295.023,-19.4024,175,75
2026-05-09 16:04:26.579,4,0.42,0.47,0.89,2.3320000000000007,-185.883,16.2076,175,75
2026-05-09 16:04:26.620,4,0.34,1.28,1.32,-20.108,-17.773000000000003,15.597599999999998,175,75
2026-05-09 16:04:26.631,4,0.19,1.35,1.44,-10.658,-18.073000000000004,7.977600000000001,175,75
2026-05-09 16:04:26.641,4,0.07,1.22,1.48,-12.058,-7.403000000000002,-2.0824000000000016,175,75
2026-05-09 16:04:26.653,4,0.05,0.98,1.5,-19.868,28.086999999999996,-15.012400000000001,175,75
2026-05-09 16:04:26.666,4,0.17,0.87,1.53,-24.258,52.657000000000004,-23.4324,175,75
2026-05-09 16:04:26.678,4,0.36,0.8,1.6,-23.887999999999998,58.267,-34.0424,175,75
2026-05-09 16:04:26.690,4,0.48,0.72,1.64,-19.378,43.817,-42.7624,175,75
2026-05-09 16:04:26.717,4,0.69,0.13,1.45,3.3019999999999996,67.537,-31.2324,175,75
2026-05-09 16:04:26.764,4,0.87,-0.68,1.42,25.742,123.14699999999999,0.8375999999999983,175,75
2026-05-09 16:04:26.785,4,1.34,-0.17,1.97,6.661999999999999,116.92699999999999,-36.6024,175,75
2026-05-09 16:04:26.795,4,1.28,-0.22,1.93,18.972,96.197,-20.5024,175,75
2026-05-09 16:04:26.809,4,1.09,-0.46,1.81,33.55200000000001,74.727,-5.932400000000001,175,75
2026-05-09 16:04:26.819,4,0.78,-0.84,1.66,34.952,54.60699999999999,5.8376,175,75
2026-05-09 16:04:26.829,4,0.6,-1.04,1.61,16.602,46.737,3.7075999999999993,175,75
2026-05-09 16:04:26.851,4,0.56,-1.01,1.65,6.112000000000002,33.757,-5.322400000000001,175,75
2026-05-09 16:04:26.851,4,0.56,-0.83,1.74,5.1320000000000014,-5.693000000000005,-16.602400000000003,175,75
2026-05-09 16:04:26.919,4,0.34,-0.01,1.27,-12.847999999999999,-125.213,-17.5124,175,75
2026-05-09 16:04:26.982,4,-0.07,0.59,1.38,-28.768,-78.803,-8.612400000000001,175,75
2026-05-09 16:04:26.982,4,-0.11,0.68,1.46,-29.558,-81.123,-12.4524,175,75
2026-05-09 16:04:27.011,4,-0.16,0.78,1.55,-29.558,-92.593,-21.962400000000002,175,75
2026-05-09 16:04:27.051,4,-0.26,0.79,1.54,-26.758,-148.56300000000002,-46.052400000000006,175,75
2026-05-09 16:04:27.051,4,-0.31,0.73,1.48,-25.538,-153.073,-49.2824,175,75
2026-05-09 16:04:27.092,4,-0.27,0.7,1.38,-27.058,-119.483,-52.452400000000004,175,75
2026-05-09 16:04:27.184,4,0.61,-0.51,1.51,28.432,77.71699999999998,-0.8024000000000004,175,75
2026-05-09 16:04:27.197,4,0.78,-0.61,1.49,34.772000000000006,92.77700000000002,4.257599999999998,175,75
2026-05-09 16:04:27.220,4,0.93,-0.68,1.58,36.602000000000004,89.607,23.157599999999995,175,75
2026-05-09 16:04:27.220,4,0.89,-0.76,1.72,31.662000000000003,70.39699999999999,49.3176,175,75
2026-05-09 16:04:27.241,4,0.86,-0.9,1.81,28.552000000000003,51.617,66.3876,175,75
2026-05-09 16:04:27.252,4,1.0,-1.11,1.82,28.732000000000003,21.006999999999998,66.3876,175,75
2026-05-09 16:04:27.252,4,1.13,-1.21,1.78,27.572,-17.223000000000003,57.0576,175,75
2026-05-09 16:04:27.301,4,1.26,-0.61,1.85,-5.167999999999999,-23.263000000000005,42.3076,175,75
2026-05-09 16:04:27.301,4,1.24,-0.32,1.97,-12.118,-32.343,42.727599999999995,175,75
2026-05-09 16:04:27.328,4,0.89,0.14,1.98,-1.7579999999999991,-107.28300000000002,10.347599999999998,175,75
2026-05-09 16:04:27.371,4,0.52,0.67,1.55,16.842,-160.763,-1.8424000000000014,175,75
2026-05-09 16:04:27.371,4,0.35,0.6,1.37,32.94200000000001,-160.273,12.487599999999999,175,75
2026-05-09 16:04:27.383,4,0.2,0.41,1.21,42.391999999999996,-141.793,22.2476,175,75
2026-05-09 16:04:27.422,4,0.35,0.73,1.23,7.5120000000000005,-39.963,0.2875999999999994,175,75
2026-05-09 16:04:27.472,4,0.0,0.46,1.44,26.352,-62.523,-16.1124,175,75
2026-05-09 16:04:27.472,4,-0.05,0.32,1.38,17.572,-67.953,-31.2924,175,75
2026-05-09 16:04:27.483,4,-0.07,0.29,1.34,10.322,-75.94300000000001,-44.5824,175,75
2026-05-09 16:04:27.496,4,-0.09,0.4,1.38,4.462,-75.453,-55.4424,175,75
2026-05-09 16:04:27.538,4,0.28,0.64,1.51,-16.028,-48.07300000000001,-95.9324,175,75
2026-05-09 16:04:27.586,4,0.6,-0.45,1.19,5.622,-6.8530000000000015,-25.992400000000004,175,75
2026-05-09 16:04:27.604,4,0.82,-0.93,1.2,-9.558,28.817,-8.002400000000002,175,75
2026-05-09 16:04:27.635,4,1.11,0.04,1.46,-27.368000000000002,22.596999999999994,-20.5024,175,75
2026-05-09 16:04:27.692,4,0.65,-0.34,1.27,19.401999999999997,27.537,74.4376,175,75
2026-05-09 16:04:27.702,4,0.42,-0.25,1.15,7.212,13.756999999999998,72.6076,175,75
2026-05-09 16:04:27.713,4,0.37,-0.02,1.14,6.052,19.486999999999995,63.5276,175,75
2026-05-09 16:04:27.732,4,0.4,0.36,1.32,-7.848,74.667,62.2476,175,75
2026-05-09 16:04:27.759,4,0.41,0.53,1.46,-17.178,93.447,56.4476,175,75
2026-05-09 16:04:27.783,4,-0.45,1.24,2.03,-4.678,-147.833,-18.1824,175,75
2026-05-09 16:04:27.794,4,-0.68,1.03,1.81,-4.928,-195.333,-34.1624,175,75
2026-05-09 16:04:27.805,4,-0.72,0.83,1.58,-6.997999999999999,-196.553,-39.4024,175,75
2026-05-09 16:04:27.845,4,-0.4,0.68,1.24,-19.008,-88.44300000000001,-29.462400000000002,175,75
2026-05-09 16:04:27.845,4,-0.12,0.51,1.16,-22.788,-54.353,-19.8324,175,75
2026-05-09 16:04:27.857,4,0.18,0.26,1.08,-27.058,-28.683000000000003,-16.352400000000003,175,75
2026-05-09 16:04:27.936,4,1.56,-0.66,1.63,-8.398,198.207,15.777599999999998,175,75
2026-05-09 16:04:27.983,4,1.43,-0.57,1.73,13.612000000000002,126.61699999999999,-9.102400000000001,175,75
2026-05-09 16:04:28.006,4,0.93,-1.01,1.45,26.052000000000003,67.65700000000001,8.277599999999998,175,75
2026-05-09 16:04:28.068,4,0.64,-0.54,1.5,-8.708,58.147,-26.2324,175,75
2026-05-09 16:04:28.103,4,0.01,-0.11,1.86,-5.537999999999999,-145.273,-40.1924,175,75
2026-05-09 16:04:28.161,4,-0.21,0.7,1.02,-10.478,-73.803,-15.1324,175,75
2026-05-09 16:04:28.202,4,-0.27,0.94,1.66,-8.888,-29.903000000000002,-32.3924,175,75
2026-05-09 16:04:28.202,4,-0.35,0.96,1.7,-10.108,-67.71300000000001,-41.0524,175,75
2026-05-09 16:04:28.207,4,-0.48,0.93,1.71,-11.328,-104.78300000000002,-46.7224,175,75
2026-05-09 16:04:28.239,4,-0.68,0.87,1.54,-10.898,-102.833,-52.882400000000004,175,75
2026-05-09 16:04:28.261,4,-0.49,0.87,1.47,-12.668,-46.063,-40.382400000000004,175,75
2026-05-09 16:04:28.261,4,-0.24,0.83,1.44,-9.437999999999999,12.476999999999997,-28.912399999999998,175,75
2026-05-09 16:04:28.283,4,0.21,0.65,1.47,0.9320000000000004,79.11699999999999,-2.0824000000000016,175,75
2026-05-09 16:04:28.314,4,0.44,0.06,1.44,10.802,-5.273000000000003,14.867599999999998,175,75
2026-05-09 16:04:28.348,4,1.39,-0.98,1.47,13.672,202.227,89.4976,175,75
2026-05-09 16:04:28.372,4,1.41,-0.9,1.97,-21.878,152.537,51.5676,175,75
2026-05-09 16:04:28.385,4,1.3,-0.8,2.11,-30.108,77.40700000000001,35.4176,175,75
2026-05-09 16:04:28.395,4,1.17,-0.88,1.97,-11.208,16.497,39.1376,175,75
2026-05-09 16:04:28.441,4,1.0,-0.95,1.83,-26.938,-59.293000000000006,10.167599999999998,175,75
2026-05-09 16:04:28.444,4,0.88,-0.57,1.97,-27.978,-120.333,-6.662400000000001,175,75
2026-05-09 16:04:28.475,4,0.65,0.04,1.74,-18.768,-225.573,-60.3224,175,75
2026-05-09 16:04:28.486,4,0.59,0.4,1.49,-22.918,-258.933,-85.19239999999999,175,75
2026-05-09 16:04:28.569,4,0.16,1.01,1.37,-6.327999999999999,52.10699999999999,7.727600000000001,175,75
2026-05-09 16:04:28.637,4,0.48,0.34,1.39,-5.898,43.38699999999999,-45.6824,175,75
2026-05-09 16:04:28.638,4,0.66,0.33,1.42,-1.9379999999999988,66.007,-44.1024,175,75
2026-05-09 16:04:28.659,4,0.7,0.09,1.57,16.172,54.977,-43.9124,175,75
2026-05-09 16:04:28.695,4,0.27,-0.73,1.3,19.772000000000002,-25.823000000000004,-38.1224,175,75
2026-05-09 16:04:28.717,4,0.2,-1.0,1.11,9.712,-61.793000000000006,-27.6324,175,75
2026-05-09 16:04:28.760,4,0.6,-0.11,1.27,-36.088,-41.243,-80.74239999999999,175,75
2026-05-09 16:04:28.760,4,0.76,0.09,1.28,-32.428,-24.483000000000004,-8.3024,175,75
2026-05-09 16:04:28.772,4,0.46,-0.08,1.16,-13.097999999999999,-0.5730000000000004,53.45759999999999,175,75
2026-05-09 16:04:28.784,4,0.22,-0.37,1.18,-10.538,29.306999999999995,66.6376,175,75
2026-05-09 16:04:28.796,4,0.15,-0.45,1.29,-24.378,54.787,62.17759999999999,175,75
2026-05-09 16:04:28.810,4,0.68,0.18,1.72,-44.498000000000005,79.547,39.3176,175,75
2026-05-09 16:04:28.835,4,0.75,0.95,1.9,-29.988,62.287,36.9976,175,75
2026-05-09 16:04:28.846,4,0.62,1.24,1.91,-20.478,46.737,18.7076,175,75
2026-05-09 16:04:28.852,4,0.49,1.34,1.89,-11.088,17.287,12.1776,175,75
2026-05-09 16:04:28.863,4,0.27,1.23,1.78,3.362000000000002,-24.723000000000003,10.8376,175,75
2026-05-09 16:04:28.884,4,0.05,0.92,1.57,16.842,-62.593,4.4976,175,75
2026-05-09 16:04:28.895,4,-0.12,0.61,1.36,13.362000000000002,-64.783,-16.962400000000002,175,75
2026-05-09 16:04:28.906,4,-0.11,0.55,1.26,0.32200000000000095,-39.053000000000004,-35.6224,175,75
2026-05-09 16:04:28.910,4,0.14,0.75,1.24,-18.588,30.82699999999999,-45.9924,175,75
2026-05-09 16:04:28.941,4,0.45,0.89,1.38,-1.6980000000000004,108.207,-29.8324,175,75
2026-05-09 16:04:28.952,4,0.45,0.62,1.45,4.462,116.67699999999999,-22.6924,175,75
2026-05-09 16:04:28.984,4,0.57,-0.22,1.45,10.802,149.907,-16.782400000000003,175,75
2026-05-09 16:04:28.997,4,0.64,-0.49,1.41,18.672,148.627,-8.3024,175,75
2026-05-09 16:04:29.007,4,0.69,-0.68,1.39,24.712,150.097,-2.8824000000000005,175,75
2026-05-09 16:04:29.007,4,0.77,-0.79,1.43,25.562,159.727,-5.932400000000001,175,75
2026-05-09 16:04:29.019,4,0.94,-0.77,1.57,21.112,173.327,-18.4324,175,75
2026-05-09 16:04:29.031,4,1.2,-0.64,1.8,15.012,172.897,-32.1524,175,75
2026-05-09 16:04:29.040,4,1.35,-0.46,2.03,14.832,148.757,-34.4024,175,75
2026-05-09 16:04:29.168,4,0.11,-0.14,1.44,-3.708,-112.28300000000002,-20.742400000000004,175,75
2026-05-09 16:04:29.168,4,0.09,-0.04,1.43,-8.218,-134.663,-25.0124,175,75
2026-05-09 16:04:29.203,4,-0.05,0.57,1.34,-24.137999999999998,-173.683,-29.8324,175,75
2026-05-09 16:04:29.235,4,-0.03,0.72,1.2,-20.108,-159.233,-14.6524,175,75
2026-05-09 16:04:29.245,4,-0.01,0.69,1.16,-19.198,-145.153,-6.602400000000001,175,75
2026-05-09 16:04:29.248,4,0.01,0.66,1.16,-20.778,-131.853,-4.652400000000001,175,75
2026-05-09 16:04:29.265,4,0.04,0.69,1.21,-27.488,-119.113,-11.7224,175,75
2026-05-09 16:04:29.274,4,0.08,0.77,1.26,-31.998,-96.793,-20.8024,175,75
2026-05-09 16:04:29.289,4,0.13,0.81,1.28,-31.328,-76.613,-25.2624,175,75
2026-05-09 16:04:29.304,4,0.2,0.82,1.29,-27.368000000000002,-54.543000000000006,-27.3324,175,75
2026-05-09 16:04:29.315,4,0.18,0.75,1.34,-23.398,-40.453,-33.1824,175,75
2026-05-09 16:04:29.346,4,0.13,0.73,1.45,-30.418,-44.173,-59.522400000000005,175,75
2026-05-09 16:04:29.346,4,0.18,0.75,1.44,-32.788,-41.493,-73.1224,175,75
2026-05-09 16:04:29.358,4,0.3,0.79,1.38,-35.958,-16.983000000000004,-81.66239999999999,175,75
2026-05-09 16:04:29.382,4,0.61,0.72,1.33,-30.168,97.227,-54.952400000000004,175,75
2026-05-09 16:04:29.396,4,0.62,0.51,1.46,-11.998,114.237,-39.7724,175,75
2026-05-09 16:04:29.407,4,0.56,0.29,1.63,-2.308,92.65700000000001,-34.5224,175,75
2026-05-09 16:04:29.424,4,0.27,-0.16,1.71,-16.028,12.776999999999994,-37.452400000000004,175,75
2026-05-09 16:04:29.446,4,0.3,-0.33,1.51,-15.228,-0.6330000000000027,-26.352400000000003,175,75
2026-05-09 16:04:29.457,4,0.4,-0.46,1.32,-3.6479999999999997,16.126999999999995,-12.4524,175,75
2026-05-09 16:04:29.457,4,0.51,-0.54,1.26,2.152000000000001,44.117,1.6975999999999996,175,75
2026-05-09 16:04:29.465,4,0.68,-0.6,1.35,0.8620000000000001,76.737,23.337599999999995,175,75
2026-05-09 16:04:29.496,4,1.13,-0.75,1.86,-11.328,76.49699999999999,75.5976,175,75
2026-05-09 16:04:29.507,4,1.22,-0.85,1.96,-6.388,22.836999999999996,72.11760000000001,175,75
2026-05-09 16:04:29.527,4,1.2,-0.7,1.72,-1.7579999999999991,-37.283,51.9976,175,75
2026-05-09 16:04:29.540,4,1.23,-0.51,1.64,-9.068,-21.123000000000005,56.3876,175,75
2026-05-09 16:04:29.561,4,0.96,-0.13,1.83,-15.288,-15.153000000000002,71.69760000000001,175,75
2026-05-09 16:04:29.572,4,0.76,0.0,1.94,-17.428,-36.61300000000001,57.9176,175,75
2026-05-09 16:04:29.598,4,0.46,0.3,1.92,-17.238,-81.373,21.3876,175,75
2026-05-09 16:04:29.609,4,0.43,0.41,1.83,-11.448,-94.113,14.617599999999998,175,75
2026-05-09 16:04:29.620,4,0.39,0.46,1.67,-0.10800000000000054,-105.63300000000001,16.6976,175,75
2026-05-09 16:04:29.620,4,0.31,0.45,1.57,8.732,-111.673,18.587600000000002,175,75
2026-05-09 16:04:29.630,4,0.23,0.44,1.52,10.992,-113.19300000000001,14.3176,175,75
2026-05-09 16:04:29.642,4,0.16,0.49,1.5,7.5120000000000005,-111.243,6.937599999999998,175,75
2026-05-09 16:04:29.652,4,0.15,0.63,1.51,3.0020000000000007,-98.563,-6.722400000000001,175,75
2026-05-09 16:04:29.673,4,0.27,0.8,1.53,5.992000000000001,-88.93299999999999,-17.8824,175,75
2026-05-09 16:04:29.686,4,0.33,0.94,1.54,11.112000000000002,-84.66300000000001,-23.672400000000003,175,75
2026-05-09 16:04:29.686,4,0.32,0.96,1.52,15.382000000000001,-81.91300000000001,-26.4124,175,75
2026-05-09 16:04:29.704,4,0.3,0.84,1.48,19.651999999999997,-69.843,-33.2424,175,75
2026-05-09 16:04:29.729,4,0.43,0.64,1.39,12.882000000000001,-22.833000000000006,-44.4024,175,75
2026-05-09 16:04:29.729,4,0.58,0.63,1.36,8.062000000000001,9.306999999999995,-50.0724,175,75
2026-05-09 16:04:29.765,4,0.75,0.62,1.5,13.181999999999999,71.92699999999999,-46.052400000000006,175,75
2026-05-09 16:04:29.773,4,0.7,0.43,1.59,20.261999999999997,88.87700000000001,-41.4724,175,75
2026-05-09 16:04:29.785,4,0.64,0.09,1.64,27.022000000000002,92.59700000000001,-31.5424,175,75
2026-05-09 16:04:29.817,4,0.39,-0.43,1.48,25.622000000000003,69.667,-4.952400000000001,175,75
2026-05-09 16:04:29.829,4,0.32,-0.44,1.48,16.352,73.62700000000001,-2.8224,175,75
2026-05-09 16:04:29.839,4,0.38,-0.34,1.56,8.732,83.327,-4.042400000000001,175,75
2026-05-09 16:04:29.851,4,0.52,-0.18,1.7,4.282,89.787,-1.5424000000000007,175,75
2026-05-09 16:04:29.851,4,0.68,-0.08,1.8,3.911999999999999,91.55699999999999,10.2876,175,75
2026-05-09 16:04:29.862,4,0.78,-0.09,1.86,7.692,79.727,32.4876,175,75
2026-05-09 16:04:29.873,4,0.65,-0.28,1.78,13.972000000000001,40.946999999999996,54.4976,175,75
2026-05-09 16:04:29.900,4,0.42,-0.46,1.59,8.431999999999999,10.216999999999999,55.4776,175,75
2026-05-09 16:04:29.925,4,0.72,-0.16,1.22,-12.788,65.037,27.607599999999998,175,75
2026-05-09 16:04:29.935,4,0.94,-0.02,1.13,-16.758,108.08700000000002,41.5676,175,75
2026-05-09 16:04:29.941,4,1.04,0.07,1.08,-24.198,169.177,53.157599999999995,175,75
2026-05-09 16:04:29.960,4,0.99,0.21,1.3,-39.867999999999995,198.207,36.6376,175,75
2026-05-09 16:04:29.968,4,0.76,0.49,1.74,-51.268,173.387,16.6376,175,75
2026-05-09 16:04:29.995,4,0.1,0.82,2.25,-21.328,68.267,-20.9324,175,75
2026-05-09 16:04:30.008,4,-0.07,0.7,2.33,-4.678,-18.133000000000003,-44.162400000000005,175,75
2026-05-09 16:04:30.019,4,-0.21,0.47,2.15,1.2919999999999998,-120.09299999999999,-68.4324,175,75
2026-05-09 16:04:30.032,4,-0.31,0.35,1.88,0.19200000000000017,-177.043,-95.3224,175,75
2026-05-09 16:04:30.032,4,-0.35,0.39,1.65,-4.138,-190.333,-120.99239999999999,175,75
2026-05-09 16:04:30.043,4,-0.26,0.59,1.5,-13.218,-166.183,-128.6724,175,75
2026-05-09 16:04:30.058,4,-0.24,0.75,1.45,-19.928,-136.553,-109.6524,175,75
2026-05-09 16:04:30.084,4,-0.32,0.52,1.43,-11.937999999999999,-49.723,-62.882400000000004,175,75
2026-05-09 16:04:30.105,4,0.02,0.12,1.45,-28.098,17.406999999999996,-46.5424,175,75
2026-05-09 16:04:30.117,4,0.26,0.02,1.46,-39.257999999999996,27.897,-49.952400000000004,175,75
2026-05-09 16:04:30.146,4,0.54,-0.03,1.42,-36.028,74.547,-46.1724,175,75
2026-05-09 16:04:30.146,4,0.75,-0.03,1.45,-23.528,153.817,-33.4924,175,75
2026-05-09 16:04:30.160,4,0.97,-0.07,1.5,-10.898,232.167,-21.0524,175,75
2026-05-09 16:04:30.173,4,1.1,-0.19,1.52,7.082000000000001,308.50699999999995,1.1475999999999988,175,75
2026-05-09 16:04:30.173,4,0.97,-0.31,1.55,21.412000000000003,343.017,23.8876,175,75
2026-05-09 16:04:30.192,4,0.49,-0.5,1.69,34.652,406.00699999999995,52.2476,175,75
2026-05-09 16:04:30.205,4,0.45,-0.59,1.94,29.342000000000002,426.197,56.267599999999995,175,75
2026-05-09 16:04:30.223,4,0.5,-0.65,2.25,21.232000000000003,398.267,57.17759999999999,175,75
2026-05-09 16:04:30.234,4,0.45,-0.68,2.47,14.582,311.98699999999997,53.2176,175,75
2026-05-09 16:04:30.242,4,0.28,-0.65,2.53,12.152000000000001,221.737,38.0976,175,75
2026-05-09 16:04:30.257,4,0.17,-0.57,2.55,6.902000000000001,159.727,20.1676,175,75
2026-05-09 16:04:30.263,4,0.12,-0.41,2.55,-4.497999999999999,82.83699999999999,1.9975999999999985,175,75
2026-05-09 16:04:30.274,4,0.05,-0.18,2.5,-13.708,-7.7130000000000045,2.4875999999999987,175,75
2026-05-09 16:04:30.297,4,-0.1,-0.04,2.31,-8.277999999999999,-126.37299999999999,13.647599999999999,175,75
2026-05-09 16:04:30.308,4,-0.11,-0.01,2.2,-5.957999999999999,-190.94299999999998,11.3876,175,75
2026-05-09 16:04:30.331,4,-0.04,0.19,1.85,-9.498,-328.44300000000004,-0.3224,175,75
2026-05-09 16:04:30.345,4,-0.0,0.26,1.69,-7.367999999999999,-362.95300000000003,-5.8024000000000004,175,75
2026-05-09 16:04:30.355,4,0.04,0.3,1.52,-3.708,-382.163,-10.862400000000001,175,75
2026-05-09 16:04:30.375,4,0.2,0.51,1.32,-0.28800000000000026,-369.173,-22.2724,175,75
2026-05-09 16:04:30.386,4,0.28,0.7,1.31,-1.388,-346.853,-27.392400000000002,175,75
2026-05-09 16:04:30.399,4,0.3,0.88,1.35,-1.388,-336.06300000000005,-27.0224,175,75
2026-05-09 16:04:30.446,4,0.05,0.92,1.43,10.681999999999999,-253.503,-42.2124,175,75
2026-05-09 16:04:30.457,4,0.11,0.85,1.42,7.7620000000000005,-224.72299999999998,-48.1824,175,75
2026-05-09 16:04:30.475,4,0.16,0.81,1.44,7.821999999999999,-205.94299999999998,-54.1024,175,75
2026-05-09 16:04:30.486,4,0.17,0.76,1.45,8.062000000000001,-189.113,-60.6824,175,75
2026-05-09 16:04:30.505,4,0.32,0.73,1.42,-0.6579999999999995,-141.853,-80.6224,175,75
2026-05-09 16:04:30.518,4,0.35,0.66,1.37,4.522000000000002,-128.933,-68.6724,175,75
2026-05-09 16:04:30.534,4,0.29,0.46,1.3,17.452,-121.18299999999999,-46.7824,175,75
2026-05-09 16:04:30.569,4,0.34,-0.6,0.82,19.892,19.546999999999997,40.657599999999995,175,75
2026-05-09 16:04:30.586,4,0.46,-0.73,0.83,19.102,75.15700000000001,51.877599999999994,175,75
2026-05-09 16:04:30.603,4,0.68,-0.79,1.01,16.962,130.157,59.8676,175,75
2026-05-09 16:04:30.615,4,1.39,-1.04,1.9,2.572000000000001,97.107,78.1576,175,75
2026-05-09 16:04:30.626,4,1.48,-1.23,1.88,-7.787999999999999,-2.463000000000001,67.30760000000001,175,75
2026-05-09 16:04:30.636,4,1.31,-1.25,1.66,-25.048000000000002,-62.953,48.2176,175,75
2026-05-09 16:04:30.646,4,1.22,-1.01,1.48,-46.69799999999999,-48.873000000000005,25.897599999999997,175,75
2026-05-09 16:04:30.670,4,1.34,-0.32,1.58,-68.158,-3.193000000000005,26.8176,175,75
2026-05-09 16:04:30.670,4,1.16,-0.11,1.66,-74.678,-11.913000000000004,28.947599999999994,175,75
2026-05-09 16:04:30.694,4,0.83,0.14,1.74,-74.008,-25.573000000000004,-3.5524000000000004,175,75
2026-05-09 16:04:30.709,4,0.8,0.28,1.8,-65.658,-48.743,-15.442400000000001,175,75
2026-05-09 16:04:30.721,4,0.73,0.39,1.83,-51.328,-86.18299999999999,-18.7924,175,75
2026-05-09 16:04:30.721,4,0.64,0.41,1.8,-36.938,-117.22300000000001,-20.8624,175,75
2026-05-09 16:04:30.732,4,0.53,0.39,1.72,-23.398,-143.803,-25.322400000000002,175,75
2026-05-09 16:04:30.745,4,0.4,0.38,1.63,-11.328,-167.22299999999998,-31.9024,175,75
2026-05-09 16:04:30.755,4,0.25,0.43,1.55,-6.148,-177.773,-39.952400000000004,175,75
2026-05-09 16:04:30.792,4,0.32,0.91,1.31,-11.268,-130.513,-68.1224,175,75
2026-05-09 16:04:30.803,4,0.29,0.97,1.19,-8.158,-105.88300000000001,-68.6724,175,75
2026-05-09 16:04:30.817,4,0.21,0.93,1.13,-4.7379999999999995,-81.983,-67.94239999999999,175,75
2026-05-09 16:04:30.821,4,0.09,0.82,1.09,-3.767999999999999,-30.573000000000004,-65.0124,175,75
2026-05-09 16:04:30.835,4,0.05,0.74,1.1,-5.287999999999999,23.506999999999998,-58.732400000000005,175,75
2026-05-09 16:04:30.849,4,0.11,0.63,1.17,-4.007999999999999,97.107,-49.522400000000005,175,75
2026-05-09 16:04:30.872,4,0.36,0.51,1.36,0.8019999999999996,159.177,-51.662400000000005,175,75
2026-05-09 16:04:30.892,4,0.47,0.48,1.48,2.3320000000000007,165.517,-49.522400000000005,175,75
2026-05-09 16:04:30.904,4,0.48,0.35,1.47,11.782,171.497,-32.7624,175,75
2026-05-09 16:04:30.938,4,0.31,-0.23,1.57,33.242000000000004,196.197,33.4576,175,75
2026-05-09 16:04:30.955,4,0.29,-0.3,1.71,25.382,201.067,35.1676,175,75
2026-05-09 16:04:30.955,4,0.39,-0.23,1.86,12.512,196.987,26.5676,175,75
2026-05-09 16:04:31.010,4,0.58,-0.52,1.55,17.212,21.317,87.8476,175,75
2026-05-09 16:04:31.026,4,0.31,-0.67,1.49,4.161999999999999,13.086999999999996,94.3176,175,75
2026-05-09 16:04:31.054,4,0.32,-0.41,1.58,-22.308,-24.603,53.8876,175,75
2026-05-09 16:04:31.064,4,0.47,-0.07,1.6,-37.058,-53.07300000000001,22.977599999999995,175,75
2026-05-09 16:04:31.074,4,0.62,0.27,1.58,-54.138000000000005,-46.063,-0.5024000000000015,175,75
2026-05-09 16:04:31.096,4,0.78,0.67,1.49,-75.228,-13.933000000000003,-25.992400000000004,175,75
2026-05-09 16:04:31.096,4,0.88,1.17,1.36,-97.788,22.717,-39.4024,175,75
2026-05-09 16:04:31.113,4,0.63,1.44,1.29,-94.13799999999999,35.707,-29.6524,175,75
2026-05-09 16:04:31.121,4,0.24,1.18,1.29,-57.727999999999994,70.037,-10.012400000000001,175,75
2026-05-09 16:04:31.135,4,-0.04,0.63,1.37,-35.048,135.947,0.16759999999999842,175,75
2026-05-09 16:04:31.148,4,-0.05,0.37,1.51,-43.647999999999996,180.457,-10.6224,175,75
2026-05-09 16:04:31.159,4,0.09,0.29,1.73,-61.818,205.517,-40.9924,175,75
2026-05-09 16:04:31.207,4,0.11,0.3,1.9,14.772000000000002,-1.0030000000000001,-61.4724,175,75
2026-05-09 16:04:31.219,4,0.02,0.03,1.72,20.261999999999997,-18.193000000000005,-53.8524,175,75
2026-05-09 16:04:31.230,4,0.02,-0.19,1.54,24.041999999999998,-0.09300000000000352,-42.5724,175,75
2026-05-09 16:04:31.230,4,0.1,-0.28,1.46,26.901999999999997,24.306999999999995,-30.8024,175,75
2026-05-09 16:04:31.254,4,0.23,-0.31,1.44,26.782,51.987,-24.2224,175,75
2026-05-09 16:04:31.265,4,0.76,-0.21,1.82,18.002,131.257,-14.9524,175,75
2026-05-09 16:04:31.286,4,1.0,-0.13,2.02,16.112000000000002,131.987,-6.722400000000001,175,75
2026-05-09 16:04:31.296,4,1.02,-0.12,2.11,17.332,104.607,-1.9624000000000006,175,75
2026-05-09 16:04:31.297,4,0.84,-0.23,2.07,22.081999999999997,70.15700000000001,4.377599999999999,175,75
2026-05-09 16:04:31.319,4,0.63,-0.43,2.02,22.212,38.567,23.767599999999995,175,75
2026-05-09 16:04:31.329,4,0.43,-0.58,2.06,16.292,-0.5130000000000052,42.8476,175,75
2026-05-09 16:04:31.340,4,0.25,-0.72,2.13,11.722000000000001,-44.843,54.8676,175,75
2026-05-09 16:04:31.352,4,0.12,-0.82,2.19,11.232,-111.243,52.84759999999999,175,75
2026-05-09 16:04:31.376,4,0.17,-0.68,2.05,10.501999999999999,-284.233,21.697599999999994,175,75
2026-05-09 16:04:31.391,4,0.15,-0.22,1.58,1.9619999999999997,-436.18300000000005,11.327599999999999,175,75
2026-05-09 16:04:31.405,4,0.06,-0.1,1.4,0.26200000000000045,-465.45300000000003,5.897599999999999,175,75
2026-05-09 16:04:31.415,4,-0.02,-0.0,1.26,-2.2379999999999995,-466.913,-1.7824000000000009,175,75
2026-05-09 16:04:31.427,4,-0.06,0.11,1.11,-6.088,-443.13300000000004,-12.082400000000002,175,75
2026-05-09 16:04:31.441,4,-0.0,0.25,1.01,-12.368,-384.963,-14.522400000000001,175,75
2026-05-09 16:04:31.456,4,0.14,0.4,0.87,-18.648,-291.063,-4.162400000000001,175,75
2026-05-09 16:04:31.467,4,0.27,0.48,0.79,-22.978,-224.053,4.867599999999998,175,75
2026-05-09 16:04:31.467,4,0.39,0.6,0.76,-28.528,-151.793,16.2076,175,75
2026-05-09 16:04:31.496,4,0.29,0.84,0.94,-33.218,-15.513000000000002,12.917599999999998,175,75
2026-05-09 16:04:31.507,4,0.29,0.93,1.08,-34.558,30.586999999999996,12.6076,175,75
2026-05-09 16:04:31.518,4,0.28,1.03,1.29,-33.528,71.49699999999999,13.647599999999999,175,75
2026-05-09 16:04:31.532,4,0.25,1.05,1.41,-29.068,86.197,9.257599999999998,175,75
2026-05-09 16:04:31.545,4,0.25,0.97,1.57,-20.348,86.197,-6.412400000000001,175,75
2026-05-09 16:04:31.557,4,0.31,0.9,1.68,-13.338,61.987,-23.672400000000003,175,75
2026-05-09 16:04:31.570,4,0.37,0.92,1.71,-8.828,6.196999999999996,-57.3324,175,75
2026-05-09 16:04:31.582,4,0.45,0.91,1.67,-3.3979999999999997,15.276999999999994,-61.412400000000005,175,75
2026-05-09 16:04:31.591,4,0.52,0.81,1.63,4.161999999999999,28.386999999999993,-56.1124,175,75
2026-05-09 16:04:31.605,4,0.5,0.68,1.63,11.112000000000002,32.657000000000004,-51.2924,175,75
2026-05-09 16:04:31.616,4,0.45,0.5,1.64,18.182,30.097,-50.3224,175,75
2026-05-09 16:04:31.627,4,0.48,0.16,1.61,32.391999999999996,28.017000000000003,-48.122400000000006,175,75
2026-05-09 16:04:31.637,4,0.6,-0.17,1.55,45.19200000000001,19.486999999999995,-41.2924,175,75
2026-05-09 16:04:31.640,4,0.66,-0.4,1.49,50.992000000000004,3.997,-35.6224,175,75
2026-05-09 16:04:31.655,4,0.61,-0.61,1.48,48.122,-8.933000000000003,-30.072400000000002,175,75
2026-05-09 16:04:31.663,4,0.63,-0.69,1.55,36.782,-10.763000000000002,-28.912399999999998,175,75
2026-05-09 16:04:31.688,4,0.69,-0.64,1.65,12.082,-29.963000000000005,-31.7224,175,75
2026-05-09 16:04:31.688,4,0.68,-0.46,1.67,-12.488,-60.633,-31.5424,175,75
2026-05-09 16:04:31.726,4,0.77,-0.76,1.18,7.272000000000002,-41.793000000000006,19.677599999999998,175,75
2026-05-09 16:04:31.776,4,0.85,-0.5,1.61,-35.168,-1.7930000000000064,16.147599999999997,175,75
2026-05-09 16:04:31.776,4,0.89,-0.23,1.67,-38.338,-32.523,28.827599999999997,175,75
2026-05-09 16:04:31.789,4,0.78,-0.02,1.63,-37.178,-60.093,44.2576,175,75
2026-05-09 16:04:31.808,4,0.58,0.14,1.52,-31.328,-76.673,35.657599999999995,175,75
2026-05-09 16:04:31.835,4,0.38,0.52,1.38,-32.788,-44.053000000000004,19.257599999999996,175,75
2026-05-09 16:04:31.848,4,0.32,0.57,1.42,-19.438,-16.613000000000003,29.3176,175,75
2026-05-09 16:04:31.870,4,0.27,0.57,1.48,-10.347999999999999,-10.153000000000002,30.1676,175,75
2026-05-09 16:04:31.870,4,0.25,0.56,1.54,-7.667999999999999,-15.153000000000002,23.037599999999998,175,75
2026-05-09 16:04:31.879,4,0.28,0.65,1.53,-11.088,-26.983000000000004,7.667599999999998,175,75
2026-05-09 16:04:31.892,4,0.35,0.79,1.49,-14.498,-28.013000000000005,-3.4924000000000017,175,75
2026-05-09 16:04:31.902,4,0.36,1.01,1.47,-19.868,-14.053000000000004,-7.692400000000001,175,75
2026-05-09 16:04:31.922,4,0.29,1.11,1.49,-20.478,13.567,-5.252400000000001,175,75
2026-05-09 16:04:31.922,4,0.24,1.12,1.54,-11.818,56.257,-0.5624000000000002,175,75
2026-05-09 16:04:31.949,4,0.43,0.66,1.73,15.622,98.08700000000002,5.6576,175,75
2026-05-09 16:04:31.965,4,0.62,0.29,1.82,23.971999999999998,54.977,-29.102400000000003,175,75
2026-05-09 16:04:31.982,4,0.64,0.31,1.83,23.492,39.60699999999999,-49.6524,175,75
2026-05-09 16:04:31.994,4,0.69,0.43,1.76,21.052000000000003,31.927,-73.0024,175,75
2026-05-09 16:04:32.036,4,0.49,-0.48,1.36,55.932,100.707,-20.3824,175,75
2026-05-09 16:04:32.072,4,0.32,-0.75,1.85,6.052,12.656999999999996,-34.0424,175,75
2026-05-09 16:04:32.086,4,0.29,-0.53,1.83,-12.608,-44.723,-41.9624,175,75
2026-05-09 16:04:32.101,4,0.34,-0.39,1.67,-25.898,-85.513,-27.3324,175,75
2026-05-09 16:04:32.107,4,0.26,-0.39,1.43,-25.838,-109.66300000000001,4.007599999999998,175,75
2026-05-09 16:04:32.118,4,0.11,-0.47,1.27,-19.198,-111.91300000000001,26.877599999999994,175,75
2026-05-09 16:04:32.132,4,0.01,-0.52,1.2,-16.938,-99.293,35.7776,175,75
2026-05-09 16:04:32.154,4,-0.03,-0.52,1.17,-18.648,-81.673,38.157599999999995,175,75
2026-05-09 16:04:32.160,4,0.04,-0.4,1.18,-25.838,-53.873000000000005,34.9876,175,75
2026-05-09 16:04:32.172,4,0.17,-0.16,1.26,-36.507999999999996,-32.163000000000004,34.9276,175,75
2026-05-09 16:04:32.197,4,0.38,0.66,1.46,-59.007999999999996,18.997,53.5876,175,75
2026-05-09 16:04:32.197,4,0.33,1.08,1.53,-50.658,44.177,45.4176,175,75
2026-05-09 16:04:32.211,4,0.26,1.23,1.59,-23.038,42.537,42.547599999999996,175,75
2026-05-09 16:04:32.228,4,0.13,1.01,1.57,14.042000000000002,31.677,45.1676,175,75
2026-05-09 16:04:32.278,4,0.3,0.9,1.64,0.5020000000000007,89.977,-2.5124000000000013,175,75
2026-05-09 16:04:32.278,4,0.39,0.88,1.7,8.302,103.447,-1.2324000000000002,175,75
2026-05-09 16:04:32.289,4,0.47,0.65,1.72,17.212,101.92699999999999,-4.772400000000001,175,75
2026-05-09 16:04:32.300,4,0.51,0.38,1.74,23.302000000000003,88.327,-12.8824,175,75
2026-05-09 16:04:32.311,4,0.54,0.15,1.74,28.122000000000003,72.40700000000001,-20.072400000000002,175,75
2026-05-09 16:04:32.324,4,0.56,-0.01,1.74,34.102000000000004,59.666999999999994,-24.282400000000003,175,75
2026-05-09 16:04:32.336,4,0.63,-0.2,1.73,41.111999999999995,48.507,-25.0124,175,75
2026-05-09 16:04:32.340,4,0.72,-0.38,1.74,47.152,39.367,-22.0824,175,75
2026-05-09 16:04:32.351,4,0.74,-0.49,1.77,45.932,30.82699999999999,-21.7224,175,75
2026-05-09 16:04:32.366,4,0.72,-0.56,1.79,32.762,14.726999999999997,-29.282400000000003,175,75
2026-05-09 16:04:32.381,4,0.71,-0.51,1.79,15.622,3.326999999999998,-42.0224,175,75
2026-05-09 16:04:32.392,4,0.72,-0.39,1.74,8.612000000000002,-2.2830000000000013,-50.132400000000004,175,75
2026-05-09 16:04:32.417,4,0.67,-0.44,1.66,19.522000000000002,-1.6130000000000067,-35.6824,175,75
2026-05-09 16:04:32.417,4,0.63,-0.61,1.63,24.401999999999997,-0.7630000000000052,-23.1224,175,75
2026-05-09 16:04:32.428,4,0.57,-0.82,1.6,25.132,-6.613000000000003,-12.942400000000001,175,75
2026-05-09 16:04:32.439,4,0.5,-0.99,1.59,21.172,-18.133000000000003,-5.622400000000001,175,75
2026-05-09 16:04:32.452,4,0.41,-1.1,1.61,13.062000000000001,-35.883,-4.832400000000001,175,75
2026-05-09 16:04:32.463,4,0.34,-1.09,1.66,3.242000000000001,-52.46300000000001,-14.8924,175,75
2026-05-09 16:04:32.476,4,0.31,-0.95,1.67,-4.867999999999999,-71.983,-27.1524,175,75
2026-05-09 16:04:32.476,4,0.29,-0.71,1.67,-11.998,-96.613,-34.4024,175,75
2026-05-09 16:04:32.486,4,0.26,-0.4,1.6,-18.458,-124.233,-25.1924,175,75
2026-05-09 16:04:32.524,4,0.08,0.05,1.34,-22.848,-141.983,-0.9924000000000017,175,75
2026-05-09 16:04:32.597,4,0.1,0.64,1.26,-12.058,-95.57300000000001,20.1676,175,75
2026-05-09 16:04:32.597,4,0.07,0.65,1.29,-10.347999999999999,-80.82300000000001,17.0576,175,75
2026-05-09 16:04:32.607,4,0.05,0.69,1.35,-14.378,-73.743,8.8876,175,75
2026-05-09 16:04:32.607,4,0.06,0.77,1.38,-20.838,-69.173,-4.772400000000001,175,75
2026-05-09 16:04:32.627,4,0.11,0.88,1.4,-24.927999999999997,-65.513,-16.9024,175,75
2026-05-09 16:04:32.638,4,0.13,0.97,1.37,-20.168,-53.743,-20.992400000000004,175,75
2026-05-09 16:04:32.649,4,0.09,0.9,1.39,-15.108,-39.543000000000006,-23.0624,175,75
2026-05-09 16:04:32.660,4,0.07,0.85,1.45,-15.718,-23.323000000000004,-29.712400000000002,175,75
2026-05-09 16:04:32.675,4,0.14,0.85,1.5,-17.728,-14.173000000000002,-42.2724,175,75
2026-05-09 16:04:32.686,4,0.21,0.87,1.52,-18.098,-12.593000000000004,-49.5824,175,75
2026-05-09 16:04:32.697,4,0.32,0.85,1.53,-14.927999999999999,-4.293000000000003,-52.7524,175,75
2026-05-09 16:04:32.709,4,0.4,0.76,1.49,-10.958,9.236999999999995,-52.0824,175,75
2026-05-09 16:04:32.719,4,0.42,0.59,1.48,-6.508,29.847,-47.3324,175,75
2026-05-09 16:04:32.806,4,0.58,-0.66,1.58,5.802,110.707,0.7775999999999996,175,75
2026-05-09 16:04:32.823,4,0.74,-0.7,1.91,-17.058,85.037,-20.992400000000004,175,75
2026-05-09 16:04:32.844,4,0.79,-0.7,1.94,-23.948,55.157000000000004,-15.3824,175,75
2026-05-09 16:04:32.856,4,0.76,-0.78,1.86,-25.778,25.946999999999996,5.227600000000001,175,75
2026-05-09 16:04:32.859,4,0.69,-0.93,1.73,-22.308,8.696999999999996,25.4176,175,75
2026-05-09 16:04:32.903,4,0.58,-1.19,1.6,-17.668,2.536999999999999,44.5576,175,75
2026-05-09 16:04:32.903,4,0.54,-1.35,1.59,-20.898,6.126999999999995,47.6076,175,75
2026-05-09 16:04:32.989,4,0.59,-0.01,1.85,-60.778000000000006,-24.413000000000004,29.7476,175,75
2026-05-09 16:04:33.011,4,0.44,0.22,1.8,-35.958,-31.063000000000002,24.5576,175,75
2026-05-09 16:04:33.027,4,0.33,0.24,1.75,-24.497999999999998,-41.493,22.6676,175,75
2026-05-09 16:04:33.060,4,0.07,0.99,1.84,-17.978,-97.043,-41.6024,175,75
2026-05-09 16:04:33.060,4,0.05,1.14,1.78,-13.528,-112.65299999999999,-47.632400000000004,175,75
2026-05-09 16:04:33.072,4,0.02,1.08,1.66,-2.427999999999999,-116.493,-39.5824,175,75
2026-05-09 16:04:33.082,4,-0.0,0.87,1.53,12.272000000000002,-97.10300000000001,-28.912399999999998,175,75
2026-05-09 16:04:33.082,4,0.05,0.64,1.43,19.401999999999997,-61.243,-27.0824,175,75
2026-05-09 16:04:33.093,4,0.16,0.52,1.42,17.272000000000002,-31.063000000000002,-30.6824,175,75
2026-05-09 16:04:33.095,4,0.33,0.46,1.44,13.792000000000002,-0.3330000000000055,-34.7124,175,75
2026-05-09 16:04:33.121,4,0.55,0.27,1.71,19.772000000000002,42.836999999999996,-56.6024,175,75
2026-05-09 16:04:33.133,4,0.51,0.13,1.68,22.942000000000004,38.267,-58.8524,175,75
2026-05-09 16:04:33.144,4,0.54,-0.09,1.58,32.512,38.93699999999999,-51.1124,175,75
2026-05-09 16:04:33.144,4,0.6,-0.3,1.49,40.012,43.817,-43.9124,175,75
2026-05-09 16:04:33.195,4,0.64,-0.24,1.8,-28.588,81.43699999999998,-25.072400000000002,175,75
2026-05-09 16:04:33.206,4,0.6,-0.18,1.82,-30.898,56.617,-10.1324,175,75
2026-05-09 16:04:33.218,4,0.56,-0.22,1.78,-21.088,24.726999999999997,0.7175999999999991,175,75
2026-05-09 16:04:33.232,4,0.46,-0.36,1.64,-7.728,-17.463000000000005,8.527599999999998,175,75
2026-05-09 16:04:33.248,4,0.23,-0.37,1.39,-14.868,-40.943000000000005,14.3176,175,75
2026-05-09 16:04:33.272,4,0.09,-0.04,1.43,-30.288,-7.2230000000000025,26.447599999999994,175,75
2026-05-09 16:04:33.285,4,0.18,0.17,1.53,-42.238,16.806999999999995,33.8276,175,75
2026-05-09 16:04:33.300,4,0.28,0.36,1.6,-53.888000000000005,35.647,37.7876,175,75
2026-05-09 16:04:33.300,4,0.32,0.49,1.63,-55.477999999999994,50.767,36.6376,175,75
2026-05-09 16:04:33.310,4,0.31,0.64,1.7,-46.388000000000005,63.267,30.7776,175,75
2026-05-09 16:04:33.321,4,0.19,0.78,1.79,-34.198,56.49699999999999,21.8176,175,75
2026-05-09 16:04:33.332,4,0.02,0.89,1.84,-21.567999999999998,36.196999999999996,10.347599999999998,175,75
2026-05-09 16:04:33.341,4,-0.06,0.89,1.8,-6.4479999999999995,3.567,-7.512400000000001,175,75
2026-05-09 16:04:33.354,4,0.02,0.85,1.7,0.13199999999999967,-16.373000000000005,-22.822400000000002,175,75
2026-05-09 16:04:33.391,4,0.23,0.98,1.52,-19.198,10.516999999999996,-35.4424,175,75
2026-05-09 16:04:33.391,4,0.2,1.08,1.58,-24.137999999999998,57.287,-28.7924,175,75
2026-05-09 16:04:33.402,4,0.24,1.07,1.72,-16.997999999999998,94.547,-20.0124,175,75
2026-05-09 16:04:33.426,4,0.73,0.34,1.91,12.512,19.546999999999997,-30.992400000000004,175,75
2026-05-09 16:04:33.437,4,0.9,0.11,1.75,16.902,-30.693000000000005,-54.4624,175,75
2026-05-09 16:04:33.468,4,1.11,0.19,1.36,-5.348,70.58699999999999,-46.7224,175,75
2026-05-09 16:04:33.496,4,1.04,0.17,1.71,-13.708,128.997,-29.0424,175,75
2026-05-09 16:04:33.500,4,1.25,-0.24,2.3,-11.208,65.15700000000001,-51.232400000000005,175,75
2026-05-09 16:04:33.545,4,1.07,-1.07,1.45,36.962,-49.543000000000006,-51.6024,175,75
2026-05-09 16:04:33.545,4,1.02,-1.46,1.19,44.891999999999996,-16.243000000000002,-24.462400000000002,175,75
2026-05-09 16:04:33.555,4,0.98,-1.55,1.44,9.102,19.486999999999995,-6.112400000000001,175,75
2026-05-09 16:04:33.578,4,0.61,-0.36,2.17,-81.508,-47.653000000000006,-45.8624,175,75
2026-05-09 16:04:33.595,4,0.57,0.15,2.15,-69.738,-117.10300000000001,-50.3224,175,75
2026-05-09 16:04:33.617,4,0.19,0.15,1.42,7.571999999999999,-263.743,-23.9124,175,75
2026-05-09 16:04:33.640,4,-0.31,0.03,0.71,-11.388,-158.193,-21.172400000000003,175,75
2026-05-09 16:04:33.660,4,-0.3,0.32,0.92,-44.988,13.506999999999998,33.6476,175,75
2026-05-09 16:04:33.670,4,-0.26,0.37,1.14,-47.918000000000006,66.49699999999999,51.267599999999995,175,75
2026-05-09 16:04:33.682,4,-0.21,0.4,1.35,-46.757999999999996,70.707,48.7076,175,75
2026-05-09 16:04:33.706,4,-0.19,0.47,1.52,-49.378,47.287,34.5576,175,75
2026-05-09 16:04:33.716,4,-0.17,0.64,1.67,-58.038,9.486999999999995,15.4776,175,75
2026-05-09 16:04:33.731,4,-0.16,0.88,1.71,-65.108,-20.883000000000003,1.5675999999999988,175,75
2026-05-09 16:04:33.731,4,-0.14,1.08,1.69,-66.148,-37.833000000000006,-6.542400000000001,175,75
2026-05-09 16:04:33.740,4,-0.13,1.2,1.61,-59.438,-48.503,-9.162400000000002,175,75
2026-05-09 16:04:33.755,4,-0.13,1.18,1.51,-48.768,-41.983000000000004,-3.1224000000000007,175,75
2026-05-09 16:04:33.774,4,-0.09,0.9,1.34,-32.238,16.806999999999995,10.8376,175,75
2026-05-09 16:04:33.800,4,0.19,0.87,1.51,-39.198,149.30700000000002,7.367599999999998,175,75
2026-05-09 16:04:33.812,4,0.35,0.95,1.72,-35.227999999999994,177.657,7.977600000000001,175,75
2026-05-09 16:04:33.825,4,0.44,0.92,1.89,-26.088,174.787,3.3375999999999983,175,75
2026-05-09 16:04:33.825,4,0.47,0.8,2.01,-18.338,150.037,-10.252400000000002,175,75
2026-05-09 16:04:33.845,4,0.49,0.57,2.07,-8.097999999999999,97.83700000000002,-30.562400000000004,175,75
2026-05-09 16:04:33.857,4,0.51,0.28,1.96,1.7219999999999995,43.696999999999996,-39.8324,175,75
2026-05-09 16:04:33.868,4,0.59,-0.15,1.71,15.442,25.647,-42.7624,175,75
2026-05-09 16:04:33.880,4,0.71,-0.56,1.48,24.772000000000002,42.477,-31.602400000000003,175,75
2026-05-09 16:04:33.904,4,0.78,-1.17,1.6,10.262,108.697,0.8375999999999983,175,75
2026-05-09 16:04:33.915,4,0.79,-1.2,1.95,-12.918,112.40700000000001,-9.9524,175,75
2026-05-09 16:04:33.926,4,0.88,-1.04,2.35,-46.44799999999999,63.086999999999996,-38.9124,175,75
2026-05-09 16:04:33.939,4,1.04,-0.85,2.32,-59.438,-25.453000000000003,-46.662400000000005,175,75
2026-05-09 16:04:33.947,4,1.08,-0.87,1.94,-45.418000000000006,-84.233,-30.992400000000004,175,75
2026-05-09 16:04:33.961,4,0.88,-1.15,1.28,-21.088,-73.013,2.547599999999999,175,75
2026-05-09 16:04:33.991,4,0.89,-0.94,1.56,-72.668,88.507,20.897599999999997,175,75
2026-05-09 16:04:33.991,4,1.08,-0.65,1.89,-90.41799999999999,110.27700000000002,29.0676,175,75
2026-05-09 16:04:34.009,4,1.02,-0.32,2.1,-82.91799999999999,60.88699999999999,33.6476,175,75
2026-05-09 16:04:34.020,4,0.81,-0.07,2.08,-63.888000000000005,12.956999999999994,25.3476,175,75
2026-05-09 16:04:34.040,4,0.71,0.11,1.96,-54.007999999999996,-11.793000000000003,13.9476,175,75
2026-05-09 16:04:34.051,4,0.68,0.29,1.8,-52.488,-20.453000000000003,6.147599999999999,175,75
2026-05-09 16:04:34.063,4,0.56,0.68,1.52,-52.117999999999995,-5.2130000000000045,10.2876,175,75
2026-05-09 16:04:34.075,4,0.43,0.81,1.43,-41.698,32.227,23.0976,175,75
2026-05-09 16:04:34.097,4,0.28,0.75,1.55,-28.528,97.167,38.157599999999995,175,75
2026-05-09 16:04:34.117,4,0.24,0.79,1.72,-39.138,103.757,23.7076,175,75
2026-05-09 16:04:34.120,4,0.23,0.85,1.82,-44.80799999999999,86.06700000000001,10.597599999999998,175,75
2026-05-09 16:04:34.141,4,0.2,0.81,1.83,-34.198,44.727,4.3176000000000005,175,75
2026-05-09 16:04:34.151,4,0.14,0.58,1.74,-12.978,5.6469999999999985,4.007599999999998,175,75
2026-05-09 16:04:34.151,4,0.08,0.25,1.62,5.931999999999999,-23.623000000000005,1.0875999999999983,175,75
2026-05-09 16:04:34.163,4,0.03,0.03,1.53,10.442,-40.823,-5.862400000000001,175,75
2026-05-09 16:04:34.174,4,-0.02,-0.09,1.47,8.362000000000002,-54.053000000000004,-17.212400000000002,175,75
2026-05-09 16:04:34.191,4,-0.05,-0.09,1.43,2.2720000000000002,-58.013000000000005,-39.0424,175,75
2026-05-09 16:04:34.196,4,-0.02,0.09,1.48,-9.558,-58.743,-61.7224,175,75
2026-05-09 16:04:34.212,4,0.03,0.4,1.58,-26.028,-58.013000000000005,-70.44239999999999,175,75
2026-05-09 16:04:34.223,4,-0.02,0.69,1.68,-40.168,-50.513000000000005,-62.9424,175,75
2026-05-09 16:04:34.223,4,-0.15,0.93,1.77,-44.198,-33.93300000000001,-53.6124,175,75
2026-05-09 16:04:34.245,4,-0.01,0.96,1.86,-29.988,3.6969999999999956,-56.842400000000005,175,75
2026-05-09 16:04:34.251,4,0.38,0.84,1.96,-19.808,36.677,-53.1824,175,75
2026-05-09 16:04:34.264,4,0.58,0.48,1.93,-3.9480000000000004,36.127,-50.0124,175,75
2026-05-09 16:04:34.295,4,0.4,-0.46,1.64,68.492,-1.243000000000002,-20.6224,175,75
2026-05-09 16:04:34.306,4,0.41,-0.8,1.54,85.50200000000001,21.067,-19.1624,175,75
2026-05-09 16:04:34.316,4,0.63,-1.03,1.49,83.492,41.196999999999996,-26.7224,175,75
2026-05-09 16:04:34.328,4,0.8,-1.05,1.53,62.69200000000001,35.946999999999996,-27.6324,175,75
2026-05-09 16:04:34.329,4,0.77,-0.84,1.55,22.331999999999997,31.737000000000002,-25.8624,175,75
2026-05-09 16:04:34.340,4,0.73,-0.5,1.56,-13.768,51.127,-29.952400000000004,175,75
2026-05-09 16:04:34.363,4,0.76,-0.24,1.55,-28.588,63.757,-20.0124,175,75
2026-05-09 16:04:34.363,4,0.68,-0.27,1.54,-18.158,56.377,0.5375999999999994,175,75
2026-05-09 16:04:34.385,4,0.26,-0.6,1.6,0.6820000000000004,-13.013000000000002,19.3176,175,75
2026-05-09 16:04:34.407,4,0.05,-0.52,1.53,-16.088,-55.273,-6.292400000000001,175,75
2026-05-09 16:04:34.425,4,0.65,0.07,1.34,-39.867999999999995,-33.383,-14.8924,175,75
2026-05-09 16:04:34.429,4,0.79,0.36,1.28,-51.568,-10.453000000000003,16.147599999999997,175,75
2026-05-09 16:04:34.440,4,0.56,0.58,1.16,-54.257999999999996,19.116999999999997,20.227599999999995,175,75
2026-05-09 16:04:34.452,4,0.34,0.7,1.19,-50.897999999999996,46.43699999999999,9.557599999999999,175,75
2026-05-09 16:04:34.463,4,0.18,0.89,1.3,-54.19799999999999,92.65700000000001,5.227600000000001,175,75
2026-05-09 16:04:34.475,4,0.2,1.01,1.39,-56.208,139.547,1.7575999999999983,175,75
2026-05-09 16:04:34.531,4,0.54,0.66,1.89,-9.927999999999999,60.707,-88.24239999999999,175,75
2026-05-09 16:04:34.566,4,0.5,0.04,1.35,14.522000000000002,59.306999999999995,-83.0024,175,75
2026-05-09 16:04:34.583,4,0.43,-0.21,1.34,9.772000000000002,73.017,-69.6524,175,75
2026-05-09 16:04:34.598,4,0.39,-0.42,1.36,8.181999999999999,70.887,-58.1824,175,75
2026-05-09 16:04:34.609,4,0.47,-0.66,1.44,1.782,59.306999999999995,-48.2424,175,75
2026-05-09 16:04:34.621,4,0.57,-0.67,1.51,-20.538,35.336999999999996,-49.952400000000004,175,75
2026-05-09 16:04:34.632,4,0.6,-0.5,1.53,-45.288,21.067,-63.1824,175,75
2026-05-09 16:04:34.645,4,0.64,-0.11,1.48,-74.318,23.206999999999994,-70.44239999999999,175,75
2026-05-09 16:04:34.655,4,0.62,0.01,1.34,-68.888,32.897,-49.4624,175,75
2026-05-09 16:04:34.666,4,0.5,-0.2,1.18,-35.838,44.727,-15.012400000000001,175,75
2026-05-09 16:04:34.676,4,0.33,-0.62,1.15,-5.048,59.117,15.1076,175,75
2026-05-09 16:04:34.685,4,0.26,-0.94,1.28,-5.167999999999999,77.537,26.697599999999994,175,75
2026-05-09 16:04:34.691,4,0.33,-1.1,1.46,-24.988,88.207,21.147599999999997,175,75
2026-05-09 16:04:34.715,4,0.48,-0.6,1.73,-88.648,5.826999999999998,-16.0524,175,75
2026-05-09 16:04:34.742,4,0.18,-0.09,1.44,-74.678,-42.223000000000006,-14.342400000000001,175,75
2026-05-09 16:04:34.756,4,0.0,-0.01,1.34,-62.848,-30.093000000000004,-6.112400000000001,175,75
2026-05-09 16:04:34.767,4,-0.17,0.03,1.38,-61.268,-3.683,1.6975999999999996,175,75
2026-05-09 16:04:34.773,4,-0.24,0.15,1.52,-64.258,16.497,3.0976,175,75
2026-05-09 16:04:34.788,4,-0.16,0.33,1.64,-65.598,9.486999999999995,-6.472400000000001,175,75
2026-05-09 16:04:34.801,4,-0.02,0.88,1.77,-66.758,-68.013,-26.0524,175,75
2026-05-09 16:04:34.825,4,-0.06,1.07,1.63,-62.30799999999999,-107.65299999999999,-29.712400000000002,175,75
2026-05-09 16:04:34.838,4,-0.2,1.01,1.34,-45.227999999999994,-100.153,-25.2624,175,75
2026-05-09 16:04:34.849,4,-0.25,0.88,1.27,-43.098,-39.903000000000006,-15.8024,175,75
2026-05-09 16:04:34.870,4,-0.21,0.79,1.32,-50.348,33.93699999999999,-8.9724,175,75
2026-05-09 16:04:34.878,4,-0.04,0.77,1.44,-57.608000000000004,74.36699999999999,-9.772400000000001,175,75
2026-05-09 16:04:34.894,4,0.13,0.77,1.59,-55.348,78.447,-16.1724,175,75
2026-05-09 16:04:34.906,4,0.18,0.81,1.72,-51.507999999999996,61.49699999999999,-22.822400000000002,175,75
2026-05-09 16:04:34.911,4,0.17,0.85,1.8,-50.477999999999994,50.946999999999996,-32.0824,175,75
2026-05-09 16:04:34.925,4,0.23,0.86,1.85,-49.867999999999995,55.097,-42.2724,175,75
2026-05-09 16:04:34.936,4,0.43,0.52,1.77,-31.328,66.987,-38.7324,175,75
2026-05-09 16:04:34.946,4,0.49,0.22,1.69,-13.038,47.957,-35.1924,175,75
2026-05-09 16:04:34.959,4,0.49,-0.18,1.58,4.042000000000002,23.696999999999996,-33.5524,175,75
2026-05-09 16:04:34.970,4,0.54,-0.51,1.48,8.001999999999999,39.237,-29.8324,175,75
2026-05-09 16:04:34.983,4,0.72,-0.74,1.43,3.0020000000000007,73.327,-23.492400000000004,175,75
2026-05-09 16:04:34.999,4,0.96,-0.91,1.51,-15.838,107.537,-16.352400000000003,175,75
2026-05-09 16:04:34.999,4,1.03,-0.95,1.64,-36.328,123.99700000000001,-15.9924,175,75
2026-05-09 16:04:35.012,4,1.04,-0.97,1.77,-59.738,135.647,-20.6224,175,75
2026-05-09 16:04:35.021,4,1.07,-1.0,1.8,-61.69799999999999,131.377,-25.5024,175,75
2026-05-09 16:04:35.034,4,1.06,-1.08,1.78,-43.828,118.14699999999999,-23.4324,175,75
2026-05-09 16:04:35.047,4,0.99,-1.22,1.8,-21.567999999999998,98.99700000000001,-12.332400000000002,175,75
2026-05-09 16:04:35.059,4,0.9,-1.35,1.88,-14.808,84.667,-5.3824000000000005,175,75
2026-05-09 16:04:35.070,4,0.86,-1.4,2.07,-22.427999999999997,68.08699999999999,-12.752400000000002,175,75
2026-05-09 16:04:35.081,4,0.92,-1.25,2.28,-45.718,34.847,-32.0824,175,75
2026-05-09 16:04:35.092,4,0.99,-0.94,2.35,-66.568,-2.463000000000001,-39.8924,175,75
2026-05-09 16:04:35.102,4,0.92,-0.51,2.26,-73.158,-44.053000000000004,-42.5124,175,75
2026-05-09 16:04:35.116,4,0.76,-0.18,2.12,-67.728,-74.233,-47.272400000000005,175,75
2026-05-09 16:04:35.130,4,0.59,0.24,1.96,-54.928,-91.673,-54.952400000000004,175,75
2026-05-09 16:04:35.163,4,0.55,0.54,1.86,-47.488,-94.233,-56.4724,175,75
2026-05-09 16:04:35.175,4,0.53,0.85,1.72,-40.958,-92.523,-51.3524,175,75
2026-05-09 16:04:35.189,4,0.45,1.04,1.59,-34.257999999999996,-83.44300000000001,-43.1224,175,75
2026-05-09 16:04:35.200,4,0.39,1.06,1.48,-27.788,-63.383,-34.0424,175,75
2026-05-09 16:04:35.200,4,0.27,0.94,1.37,-22.058,-15.153000000000002,-16.2924,175,75
2026-05-09 16:04:35.214,4,0.22,0.79,1.34,-22.788,32.04699999999999,-5.622400000000001,175,75
2026-05-09 16:04:35.225,4,0.25,0.7,1.37,-25.598,70.037,-1.7224000000000004,175,75
2026-05-09 16:04:35.225,4,0.33,0.64,1.45,-27.427999999999997,95.037,0.6575999999999986,175,75
2026-05-09 16:04:35.237,4,0.36,0.58,1.45,-20.228,90.09700000000001,0.4775999999999989,175,75
2026-05-09 16:04:35.237,4,0.32,0.47,1.4,-6.268,77.59700000000001,1.3275999999999986,175,75
2026-05-09 16:04:35.261,4,0.18,0.3,1.32,12.272000000000002,73.757,1.5675999999999988,175,75
2026-05-09 16:04:35.261,4,0.05,0.21,1.28,20.442000000000004,82.167,-1.7224000000000004,175,75
2026-05-09 16:04:35.272,4,-0.05,0.18,1.28,20.072,94.237,-7.692400000000001,175,75
2026-05-09 16:04:35.292,4,-0.15,0.49,1.55,3.8520000000000003,102.83700000000002,-23.852400000000003,175,75
2026-05-09 16:04:35.292,4,-0.12,0.67,1.67,-1.388,85.827,-32.632400000000004,175,75
2026-05-09 16:04:35.312,4,0.03,0.74,1.72,2.0220000000000002,52.537,-41.9624,175,75
2026-05-09 16:04:35.322,4,0.14,0.68,1.73,7.3919999999999995,28.017000000000003,-49.0424,175,75
2026-05-09 16:04:35.322,4,0.19,0.53,1.68,9.042000000000002,13.206999999999994,-57.452400000000004,175,75
2026-05-09 16:04:35.347,4,0.21,0.31,1.6,9.042000000000002,9.906999999999996,-65.8624,175,75
2026-05-09 16:04:35.347,4,0.23,0.11,1.5,11.411999999999999,18.997,-68.0024,175,75
2026-05-09 16:04:35.371,4,0.41,-0.42,1.3,24.712,70.15700000000001,-56.9624,175,75
2026-05-09 16:04:35.386,4,0.48,-0.58,1.35,24.401999999999997,101.987,-46.4724,175,75
2026-05-09 16:04:35.390,4,0.56,-0.71,1.53,13.181999999999999,132.897,-33.8524,175,75
2026-05-09 16:04:35.412,4,0.57,-0.66,1.92,-22.668,116.007,-33.6724,175,75
2026-05-09 16:04:35.433,4,0.59,-0.16,2.17,-43.948,45.336999999999996,-51.9624,175,75
2026-05-09 16:04:35.437,4,0.66,0.1,2.12,-46.998000000000005,13.997,-51.4724,175,75
2026-05-09 16:04:35.454,4,0.59,0.2,1.9,-37.488,-22.653000000000006,-36.1724,175,75
2026-05-09 16:04:35.464,4,0.41,0.03,1.65,-14.068,-35.333000000000006,-14.2824,175,75
2026-05-09 16:04:35.475,4,0.15,-0.19,1.55,0.6219999999999999,-33.873000000000005,5.6576,175,75
2026-05-09 16:04:35.485,4,-0.02,-0.2,1.64,-14.378,-35.273,5.717599999999999,175,75
2026-05-09 16:04:35.507,4,-0.03,0.04,1.77,-42.238,-62.773,-1.4724000000000004,175,75
2026-05-09 16:04:35.507,4,0.05,0.28,1.77,-53.708,-99.41300000000001,-1.4724000000000004,175,75
2026-05-09 16:04:35.518,4,0.15,0.53,1.63,-58.158,-149.723,5.167599999999998,175,75
2026-05-09 16:04:35.539,4,0.17,0.66,1.43,-56.818,-175.573,9.4976,175,75
2026-05-09 16:04:35.549,4,0.12,0.74,1.15,-52.178,-167.833,11.757599999999998,175,75
2026-05-09 16:04:35.562,4,0.0,0.75,0.93,-48.397999999999996,-116.733,9.3776,175,75
2026-05-09 16:04:35.581,4,-0.14,0.78,0.83,-50.227999999999994,-18.993000000000002,6.027599999999998,175,75
2026-05-09 16:04:35.607,4,-0.22,0.86,0.93,-55.658,84.237,9.437599999999998,175,75
2026-05-09 16:04:35.611,4,-0.16,0.83,1.08,-47.727999999999994,171.927,11.8776,175,75
2026-05-09 16:04:35.623,4,-0.01,0.66,1.29,-37.058,208.627,5.957599999999998,175,75
2026-05-09 16:04:35.645,4,-0.02,0.51,1.44,-51.878,145.887,-39.2224,175,75
2026-05-09 16:04:35.645,4,0.1,0.45,1.37,-61.328,145.707,-44.4024,175,75
2026-05-09 16:04:35.655,4,0.29,0.37,1.34,-67.788,184.847,-27.0224,175,75
2026-05-09 16:04:35.675,4,0.6,0.09,1.38,-72.788,273.99699999999996,6.387600000000001,175,75
2026-05-09 16:04:35.686,4,0.99,-0.55,1.83,-61.147999999999996,340.097,35.7776,175,75
2026-05-09 16:04:35.686,4,1.1,-0.78,2.15,-55.718,313.50699999999995,36.5076,175,75
2026-05-09 16:04:35.710,4,1.0,-0.87,2.51,-56.328,240.70700000000002,9.867599999999998,175,75
2026-05-09 16:04:35.721,4,0.92,-0.67,2.75,-63.828,191.737,-34.5824,175,75
2026-05-09 16:04:35.731,4,1.11,-0.27,2.91,-72.488,162.717,-65.2524,175,75
2026-05-09 16:04:35.731,4,1.13,-0.2,2.77,-55.718,123.387,-56.1724,175,75
2026-05-09 16:04:35.742,4,0.91,-0.61,2.47,-15.418,89.607,-41.3524,175,75
2026-05-09 16:04:35.765,4,0.59,-1.21,2.28,14.952000000000002,67.957,-31.2324,175,75
2026-05-09 16:04:35.778,4,0.4,-1.58,2.57,-2.548,42.287,-54.952400000000004,175,75
2026-05-09 16:04:35.791,4,0.45,-1.37,2.82,-21.878,-4.783000000000005,-89.4024,175,75
2026-05-09 16:04:35.809,4,0.57,-0.42,2.62,-50.048,-142.043,-98.6724,175,75
2026-05-09 16:04:35.823,4,0.38,-0.2,2.23,-39.378,-190.213,-85.80239999999999,175,75
2026-05-09 16:04:35.835,4,0.15,-0.13,1.81,-12.488,-214.483,-80.2524,175,75
2026-05-09 16:04:35.846,4,-0.01,-0.11,1.58,7.082000000000001,-219.173,-79.52239999999999,175,75
2026-05-09 16:04:35.863,4,-0.12,-0.04,1.47,11.352,-220.393,-79.6524,175,75
2026-05-09 16:04:35.863,4,-0.22,0.15,1.44,4.222000000000001,-223.623,-83.49239999999999,175,75
2026-05-09 16:04:35.884,4,-0.28,0.67,1.3,-21.268,-246.553,-89.6524,175,75
2026-05-09 16:04:35.904,4,-0.44,1.04,1.03,-29.678,-230.823,-72.5124,175,75
2026-05-09 16:04:35.933,4,-0.78,1.14,0.83,0.3819999999999997,3.6269999999999953,4.987599999999999,175,75
2026-05-09 16:04:35.971,4,-0.4,0.96,1.05,11.542000000000002,222.95700000000002,61.507600000000004,175,75
2026-05-09 16:04:35.986,4,-0.28,0.86,1.17,15.992,246.557,72.4876,175,75
2026-05-09 16:04:35.991,4,-0.15,0.72,1.33,17.942,261.61699999999996,76.3276,175,75
2026-05-09 16:04:36.011,4,-0.07,0.64,1.5,13.122,248.01700000000002,70.1076,175,75
2026-05-09 16:04:36.022,4,-0.02,0.61,1.67,3.9720000000000013,216.80700000000002,51.0276,175,75
2026-05-09 16:04:36.034,4,0.06,0.62,1.86,-8.097999999999999,169.05700000000002,15.897599999999999,175,75
2026-05-09 16:04:36.046,4,0.17,0.64,2.04,-16.448,134.30700000000002,-0.5024000000000015,175,75
2026-05-09 16:04:36.056,4,0.31,0.52,2.12,-19.618,89.90700000000001,-8.2424,175,75
2026-05-09 16:04:36.070,4,0.33,0.31,2.02,-15.777999999999999,35.276999999999994,-10.442400000000001,175,75
2026-05-09 16:04:36.112,4,0.26,-0.65,1.6,-14.258,32.166999999999994,20.837599999999995,175,75
2026-05-09 16:04:36.112,4,0.32,-0.99,1.58,-9.558,66.06700000000001,42.2476,175,75
2026-05-09 16:04:36.140,4,0.47,-1.34,1.73,-6.4479999999999995,100.58700000000002,46.3876,175,75
2026-05-09 16:04:36.140,4,0.66,-1.51,2.09,-17.548000000000002,83.327,12.057599999999999,175,75
2026-05-09 16:04:36.164,4,0.86,-1.28,2.3,-58.098,60.767,-28.062400000000004,175,75
2026-05-09 16:04:36.174,4,0.93,-1.32,2.26,-67.238,47.776999999999994,-4.892400000000001,175,75
2026-05-09 16:04:36.183,4,0.69,-1.54,2.19,-69.678,32.597,4.987599999999999,175,75
2026-05-09 16:04:36.210,4,0.58,-1.61,2.23,-69.258,20.096999999999994,-4.102400000000001,175,75
2026-05-09 16:04:36.234,4,0.49,-1.46,2.33,-61.028000000000006,-18.503000000000004,-23.1824,175,75
2026-05-09 16:04:36.234,4,0.44,-1.1,2.39,-66.568,-55.633,-45.802400000000006,175,75
2026-05-09 16:04:36.246,4,0.45,-0.72,2.35,-78.098,-85.093,-58.2424,175,75
2026-05-09 16:04:36.246,4,0.49,-0.28,2.24,-86.63799999999999,-112.953,-61.9024,175,75
2026-05-09 16:04:36.257,4,0.51,0.43,1.99,-72.548,-142.953,-71.2324,175,75
2026-05-09 16:04:36.265,4,0.51,0.71,1.9,-63.397999999999996,-153.803,-75.3824,175,75
2026-05-09 16:04:36.280,4,0.46,0.98,1.78,-58.647999999999996,-161.00300000000001,-71.4124,175,75
2026-05-09 16:04:36.290,4,0.37,1.11,1.64,-55.778000000000006,-152.523,-61.052400000000006,175,75
2026-05-09 16:04:36.302,4,0.23,1.02,1.48,-46.998000000000005,-119.483,-39.7124,175,75
2026-05-09 16:04:36.302,4,0.05,0.69,1.35,-27.238,-53.563,-9.0424,175,75
2026-05-09 16:04:36.312,4,-0.04,0.44,1.4,-24.137999999999998,11.927,-0.9924000000000017,175,75
2026-05-09 16:04:36.324,4,0.04,0.36,1.56,-35.658,41.377,-12.1524,175,75
2026-05-09 16:04:36.334,4,0.14,0.38,1.66,-40.838,33.507,-24.102400000000003,175,75
2026-05-09 16:04:36.357,4,0.05,0.43,1.66,-23.218,-57.043000000000006,-39.5824,175,75
2026-05-09 16:04:36.375,4,-0.07,0.37,1.59,-19.137999999999998,-66.85300000000001,-40.1924,175,75
2026-05-09 16:04:36.386,4,-0.13,0.35,1.54,-24.008,-54.663000000000004,-42.7624,175,75
2026-05-09 16:04:36.398,4,-0.1,0.41,1.56,-26.387999999999998,-37.223000000000006,-47.6924,175,75
2026-05-09 16:04:36.409,4,0.02,0.48,1.63,-22.238,-30.693000000000005,-55.0124,175,75
2026-05-09 16:04:36.420,4,0.14,0.54,1.7,-18.458,-36.493,-62.8224,175,75
2026-05-09 16:04:36.438,4,0.31,0.64,1.8,-11.568,-35.883,-76.5424,175,75
2026-05-09 16:04:36.464,4,0.4,0.22,1.66,12.572,-3.3230000000000004,-71.3524,175,75
2026-05-09 16:04:36.475,4,0.37,-0.15,1.55,25.072,15.096999999999994,-56.9024,175,75
2026-05-09 16:04:36.486,4,0.35,-0.6,1.43,35.501999999999995,58.32699999999999,-32.882400000000004,175,75
2026-05-09 16:04:36.493,4,0.31,-0.88,1.41,39.221999999999994,90.767,-15.502400000000002,175,75
2026-05-09 16:04:36.541,4,0.3,-1.18,1.46,39.162000000000006,117.047,-7.082400000000001,175,75
2026-05-09 16:04:36.541,4,0.29,-1.22,1.61,35.742000000000004,111.67699999999999,-20.072400000000002,175,75
2026-05-09 16:04:36.551,4,0.24,-1.06,1.81,32.212,98.507,-56.7224,175,75
2026-05-09 16:04:36.572,4,0.66,-0.51,1.97,-5.598,69.487,-48.302400000000006,175,75
2026-05-09 16:04:36.604,4,-0.02,-0.74,1.6,-21.387999999999998,-5.763000000000002,40.7776,175,75
2026-05-09 16:04:36.604,4,-0.15,-0.69,1.51,-25.228,-11.243000000000002,18.8876,175,75
2026-05-09 16:04:36.636,4,-0.17,-0.48,1.48,-30.418,-5.2130000000000045,-14.342400000000001,175,75
2026-05-09 16:04:36.671,4,0.36,0.87,1.81,-58.038,7.536999999999999,-0.19240000000000101,175,75
2026-05-09 16:04:36.671,4,0.24,1.14,1.8,-48.647999999999996,2.6569999999999965,4.9276,175,75
2026-05-09 16:04:36.741,4,0.28,0.77,1.55,0.5620000000000012,-23.873000000000005,-26.7224,175,75
2026-05-09 16:04:36.763,4,0.33,0.67,1.45,-1.5079999999999991,1.1269999999999953,-41.1724,175,75
2026-05-09 16:04:36.811,4,0.73,0.6,1.76,35.742000000000004,85.947,-68.9724,175,75
2026-05-09 16:04:36.823,4,0.77,0.21,1.71,48.912000000000006,65.33699999999999,-70.3824,175,75
2026-05-09 16:04:36.877,4,0.77,-0.38,1.57,54.522000000000006,22.476999999999997,-77.69239999999999,175,75
2026-05-09 16:04:36.901,4,0.68,-0.59,1.48,45.072,-0.45300000000000296,-82.08239999999999,175,75
2026-05-09 16:04:36.912,4,0.62,-0.71,1.42,31.291999999999998,-11.433000000000003,-85.6224,175,75
2026-05-09 16:04:36.944,4,0.59,-0.28,1.47,-21.268,6.866999999999997,-114.10239999999999,175,75
2026-05-09 16:04:36.970,4,0.74,0.03,1.52,-44.438,46.257,-92.63239999999999,175,75
2026-05-09 16:04:36.995,4,0.04,-1.03,1.7,-23.768,-56.673,-17.212400000000002,175,75
2026-05-09 16:04:37.007,4,-0.03,-0.82,1.69,-37.788,-71.003,-44.8924,175,75
2026-05-09 16:04:37.044,4,-0.15,0.01,1.57,-40.418,-60.273,35.3476,175,75
2026-05-09 16:04:37.056,4,-0.04,0.13,1.58,-43.588,-89.783,15.6576,175,75
2026-05-09 16:04:37.071,4,0.08,0.43,1.48,-37.238,-131.613,-3.0024000000000015,175,75
2026-05-09 16:04:37.093,4,-0.01,0.69,1.36,-44.007999999999996,-93.993,-0.6224000000000007,175,75
2026-05-09 16:04:37.093,4,-0.11,0.78,1.36,-47.848,-62.283,0.7175999999999991,175,75
2026-05-09 16:04:37.114,4,-0.2,0.86,1.48,-45.227999999999994,-6.793000000000003,4.0676000000000005,175,75
2026-05-09 16:04:37.114,4,-0.19,0.89,1.58,-42.788,1.4969999999999999,2.6075999999999997,175,75
2026-05-09 16:04:37.125,4,-0.19,0.91,1.69,-41.568,-8.933000000000003,-5.012400000000001,175,75
2026-05-09 16:04:37.136,4,-0.12,0.93,1.78,-42.117999999999995,-30.823000000000004,-16.8424,175,75
2026-05-09 16:04:37.150,4,0.01,0.93,1.78,-42.608000000000004,-55.513000000000005,-29.162399999999998,175,75
2026-05-09 16:04:37.150,4,0.15,0.9,1.75,-42.788,-68.32300000000001,-37.2724,175,75
2026-05-09 16:04:37.174,4,0.31,0.8,1.68,-38.588,-34.353,-44.952400000000004,175,75
2026-05-09 16:04:37.198,4,0.82,0.53,1.83,-15.597999999999999,79.30699999999999,-31.7224,175,75
2026-05-09 16:04:37.208,4,0.82,0.3,1.84,3.7920000000000016,61.007,-26.172400000000003,175,75
2026-05-09 16:04:37.220,4,0.69,-0.03,1.82,24.162000000000003,36.737,-20.6824,175,75
2026-05-09 16:04:37.231,4,0.83,-0.71,1.77,39.772000000000006,51.43699999999999,-7.752400000000001,175,75
2026-05-09 16:04:37.252,4,1.02,-1.14,1.88,17.392,17.107,7.367599999999998,175,75
2026-05-09 16:04:37.274,4,1.02,-1.19,1.76,-20.898,-10.453000000000003,23.7076,175,75
2026-05-09 16:04:37.292,4,1.19,-1.09,1.55,-24.497999999999998,-1.243000000000002,34.197599999999994,175,75
2026-05-09 16:04:37.303,4,1.16,-1.04,1.54,-25.538,22.346999999999994,41.877599999999994,175,75
2026-05-09 16:04:37.316,4,1.14,-0.92,1.65,-32.428,59.977,45.477599999999995,175,75
2026-05-09 16:04:37.338,4,0.94,-0.49,2.07,-41.818,56.987,33.2776,175,75
2026-05-09 16:04:37.355,4,0.68,-0.21,2.19,-32.428,15.156999999999996,20.657599999999995,175,75
2026-05-09 16:04:37.411,4,0.27,1.0,1.3,-1.267999999999999,-157.653,-25.3824,175,75
2026-05-09 16:04:37.440,4,-0.03,0.83,1.13,6.722000000000001,19.236999999999995,16.147599999999997,175,75
2026-05-09 16:04:37.457,4,-0.02,0.72,1.3,1.4719999999999995,107.107,31.087599999999995,175,75
2026-05-09 16:04:37.457,4,0.03,0.64,1.45,-3.337999999999999,136.55700000000002,31.9976,175,75
2026-05-09 16:04:37.470,4,0.09,0.58,1.62,-4.558,127.107,25.227599999999995,175,75
2026-05-09 16:04:37.531,4,0.1,0.4,1.72,14.341999999999999,-17.893000000000004,-13.362400000000001,175,75
2026-05-09 16:04:37.554,4,0.18,0.4,1.61,13.431999999999999,-31.003000000000004,-26.7224,175,75
2026-05-09 16:04:37.575,4,0.65,0.69,1.54,-1.5079999999999991,184.487,-41.4724,175,75
2026-05-09 16:04:37.586,4,0.79,0.73,1.77,-1.6980000000000004,277.717,-37.2724,175,75
2026-05-09 16:04:37.586,4,0.69,0.53,2.03,23.242,316.12699999999995,-16.9024,175,75
2026-05-09 16:04:37.597,4,0.52,0.14,2.15,56.412000000000006,311.43699999999995,-9.4624,175,75
2026-05-09 16:04:37.610,4,0.38,-0.34,2.27,87.762,281.06699999999995,-0.012400000000001299,175,75
2026-05-09 16:04:37.622,4,0.22,-0.77,2.43,109.462,225.097,1.8175999999999988,175,75
2026-05-09 16:04:37.622,4,0.13,-0.97,2.52,120.80199999999999,168.627,-10.6224,175,75
2026-05-09 16:04:37.636,4,0.12,-1.03,2.6,126.47200000000001,93.87700000000001,-35.0724,175,75
2026-05-09 16:04:37.636,4,0.28,-0.96,2.62,115.56200000000001,37.04699999999999,-55.0724,175,75
2026-05-09 16:04:37.666,4,0.54,-0.68,2.54,81.172,-50.153000000000006,-64.3424,175,75
2026-05-09 16:04:37.691,4,0.41,-0.4,1.96,38.062,-196.063,-34.7124,175,75
2026-05-09 16:04:37.712,4,-0.1,-0.58,1.48,12.152000000000001,-278.32300000000004,-4.652400000000001,175,75
2026-05-09 16:04:37.744,4,-0.2,-0.16,1.16,-73.948,-241.733,-46.1124,175,75
2026-05-09 16:04:37.744,4,0.16,0.22,1.03,-86.38799999999999,-225.153,-38.7324,175,75
2026-05-09 16:04:37.754,4,0.36,0.58,0.89,-94.928,-207.653,-14.2824,175,75
2026-05-09 16:04:37.767,4,0.28,0.91,0.54,-92.30799999999999,-85.88300000000001,9.257599999999998,175,75
2026-05-09 16:04:37.784,4,0.25,0.88,0.49,-80.228,4.427,27.9176,175,75
2026-05-09 16:04:37.799,4,0.17,0.81,0.58,-68.948,118.81700000000001,52.17759999999999,175,75
2026-05-09 16:04:37.830,4,0.08,0.71,1.1,-82.05799999999999,257.717,52.3676,175,75
2026-05-09 16:04:37.841,4,0.2,0.67,1.36,-81.448,250.27700000000002,32.2476,175,75
2026-05-09 16:04:37.855,4,0.39,0.54,1.67,-67.178,127.537,-17.8824,175,75
2026-05-09 16:04:37.954,4,0.65,0.34,1.73,-65.778,151.007,-48.552400000000006,175,75
2026-05-09 16:04:37.965,4,0.64,-0.05,1.92,-49.007999999999996,144.907,-49.342400000000005,175,75
2026-05-09 16:04:37.968,4,0.66,-0.39,2.05,-40.227999999999994,115.21700000000001,-55.0124,175,75
2026-05-09 16:04:37.982,4,0.69,-0.69,2.1,-35.348,66.987,-66.4724,175,75
2026-05-09 16:04:37.982,4,0.68,-0.84,2.05,-32.367999999999995,20.706999999999994,-80.19239999999999,175,75
2026-05-09 16:04:37.992,4,0.67,-0.86,1.88,-33.708,-11.373000000000005,-107.02239999999999,175,75
2026-05-09 16:04:38.003,4,0.75,-0.67,1.83,-41.638,10.766999999999996,-119.52239999999999,175,75
2026-05-09 16:04:38.015,4,0.82,-0.48,1.84,-46.268,31.256999999999998,-115.6824,175,75
2026-05-09 16:04:38.059,4,0.77,-0.43,1.84,-45.227999999999994,43.696999999999996,-89.52239999999999,175,75
2026-05-09 16:04:38.059,4,0.57,-0.57,1.79,-37.977999999999994,40.88699999999999,-54.4624,175,75
2026-05-09 16:04:38.071,4,0.38,-0.73,1.77,-34.138,31.377000000000002,-33.4324,175,75
2026-05-09 16:04:38.071,4,0.21,-0.88,1.78,-35.897999999999996,18.266999999999996,-25.072400000000002,175,75
2026-05-09 16:04:38.082,4,0.12,-0.92,1.82,-38.158,2.836999999999996,-33.7924,175,75
2026-05-09 16:04:38.105,4,0.31,-0.25,1.86,-36.448,-74.053,-38.4924,175,75
2026-05-09 16:04:38.116,4,0.26,-0.1,1.85,-36.208,-98.623,-21.4124,175,75
2026-05-09 16:04:38.116,4,0.14,0.02,1.82,-34.928,-130.943,-12.4524,175,75
2026-05-09 16:04:38.142,4,-0.01,0.32,1.8,-35.048,-195.153,-24.0424,175,75
2026-05-09 16:04:38.161,4,-0.07,0.61,1.67,-28.458,-219.843,-25.2624,175,75
2026-05-09 16:04:38.182,4,-0.1,0.68,1.54,-21.148,-220.513,-21.2924,175,75
2026-05-09 16:04:38.193,4,-0.14,0.71,1.39,-16.698,-190.513,-16.4124,175,75
2026-05-09 16:04:38.206,4,-0.16,0.86,1.37,-22.177999999999997,-141.00300000000001,-14.6524,175,75
2026-05-09 16:04:38.232,4,-0.04,0.99,1.45,-20.838,-69.113,-5.992400000000001,175,75
2026-05-09 16:04:38.232,4,0.01,0.98,1.46,-17.728,-38.68300000000001,0.1075999999999997,175,75
2026-05-09 16:04:38.243,4,0.06,0.91,1.48,-15.478,-5.883000000000003,1.8775999999999993,175,75
2026-05-09 16:04:38.263,4,0.36,0.72,1.55,-16.208,80.39699999999999,-6.542400000000001,175,75
2026-05-09 16:04:38.278,4,0.6,0.67,1.61,-11.148,103.017,-18.3624,175,75
2026-05-09 16:04:38.312,4,0.67,0.64,1.64,1.6020000000000003,106.737,-21.5424,175,75
2026-05-09 16:04:38.371,4,0.52,-0.19,1.47,48.182,144.05700000000002,3.8275999999999986,175,75
2026-05-09 16:04:38.371,4,0.54,-0.51,1.45,51.232,164.237,19.4976,175,75
2026-05-09 16:04:38.392,4,0.77,-1.02,1.97,39.581999999999994,141.377,24.0676,175,75
2026-05-09 16:04:38.403,4,0.9,-0.87,2.35,5.071999999999999,6.986999999999995,-6.412400000000001,175,75
2026-05-09 16:04:38.422,4,1.0,-0.85,2.19,-4.378,-45.633,2.1776,175,75
2026-05-09 16:04:38.443,4,0.97,-0.87,1.85,-6.818,-89.233,15.7176,175,75
2026-05-09 16:04:38.476,4,0.76,-0.83,1.42,-15.958,-70.093,19.617599999999996,175,75
2026-05-09 16:04:38.512,4,0.42,0.15,1.77,-33.278,-51.373000000000005,15.2276,175,75
2026-05-09 16:04:38.522,4,0.39,0.4,1.75,-32.548,-64.293,3.7676,175,75
2026-05-09 16:04:38.522,4,0.35,0.63,1.7,-32.727999999999994,-75.57300000000001,3.7075999999999993,175,75
2026-05-09 16:04:38.544,4,0.2,0.82,1.55,-14.008,-71.243,21.8176,175,75
2026-05-09 16:04:38.557,4,0.1,0.75,1.49,-2.058,-56.733000000000004,28.337599999999995,175,75
2026-05-09 16:04:38.616,4,0.07,0.93,1.68,-16.387999999999998,4.306999999999995,9.737599999999999,175,75
2026-05-09 16:04:38.627,4,0.09,0.96,1.74,-6.508,-15.393000000000004,8.277599999999998,175,75
2026-05-09 16:04:38.627,4,0.09,0.8,1.72,6.411999999999999,-36.553000000000004,7.727600000000001,175,75
2026-05-09 16:04:38.680,4,0.11,0.55,1.64,11.112000000000002,-46.123000000000005,5.167599999999998,175,75
2026-05-09 16:04:38.759,4,0.22,0.38,1.48,6.782,-21.123000000000005,-14.9524,175,75
2026-05-09 16:04:38.790,4,0.35,0.47,1.49,2.2720000000000002,26.616999999999997,-25.8024,175,75
2026-05-09 16:04:38.847,4,0.73,0.65,1.7,-4.558,120.39699999999999,-30.6824,175,75
2026-05-09 16:04:38.858,4,0.78,0.6,1.88,3.8520000000000003,135.097,-32.7624,175,75
2026-05-09 16:04:38.858,4,0.65,0.4,1.98,17.152,121.67699999999999,-41.4724,175,75
2026-05-09 16:04:38.974,4,0.49,0.03,1.36,-41.448,-40.573,40.5976,175,75
2026-05-09 16:04:38.999,4,0.47,0.2,1.36,-44.438,-10.273000000000003,45.5376,175,75
2026-05-09 16:04:39.009,4,0.5,0.33,1.39,-45.227999999999994,26.556999999999995,39.617599999999996,175,75
2026-05-09 16:04:39.009,4,0.54,0.61,1.57,-46.268,65.517,19.0676,175,75
2026-05-09 16:04:39.086,4,0.02,0.86,1.81,-9.138,-79.843,-63.7924,175,75
2026-05-09 16:04:39.109,4,0.13,0.54,1.27,-19.928,-63.993,-101.9624,175,75
2026-05-09 16:04:39.122,4,0.61,0.56,1.17,-25.108,69.30699999999999,-60.0124,175,75
2026-05-09 16:04:39.157,4,0.97,-0.31,1.44,-49.257999999999996,-100.213,-127.88239999999999,175,75
2026-05-09 16:04:39.169,4,0.99,-0.11,1.22,-60.658,-80.453,-130.6824,175,75
2026-05-09 16:04:39.205,4,0.94,-0.02,1.01,-65.288,-24.903000000000006,-95.8624,175,75
2026-05-09 16:04:39.226,4,0.75,-0.17,0.93,-52.608000000000004,35.586999999999996,-51.1724,175,75
2026-05-09 16:04:39.237,4,0.54,-0.46,1.01,-39.498000000000005,94.607,-12.332400000000002,175,75
2026-05-09 16:04:39.249,4,0.43,-0.7,1.21,-42.548,129.667,6.637600000000001,175,75
2026-05-09 16:04:39.267,4,0.34,-0.63,1.64,-62.367999999999995,93.207,-12.1524,175,75
2026-05-09 16:04:39.306,4,0.09,0.3,1.72,-47.548,-39.053000000000004,18.2776,175,75
2026-05-09 16:04:39.319,4,0.03,0.35,1.72,-33.828,-56.983000000000004,16.087600000000002,175,75
2026-05-09 16:04:39.330,4,0.02,0.39,1.68,-26.328,-88.263,16.087600000000002,175,75
2026-05-09 16:04:39.373,4,-0.07,0.43,1.45,-20.478,-121.37299999999999,12.117599999999998,175,75
2026-05-09 16:04:39.394,4,-0.13,0.47,1.36,-19.618,-107.10300000000001,12.307599999999999,175,75
2026-05-09 16:04:39.415,4,-0.17,0.62,1.39,-24.317999999999998,-25.273000000000003,22.8476,175,75
2026-05-09 16:04:39.425,4,-0.08,0.71,1.5,-25.048000000000002,19.116999999999997,28.4576,175,75
2026-05-09 16:04:39.425,4,0.0,0.77,1.63,-22.427999999999997,26.556999999999995,25.5976,175,75
2026-05-09 16:04:39.461,4,0.09,0.91,1.86,-6.938,-30.093000000000004,-13.4924,175,75
2026-05-09 16:04:39.461,4,0.13,0.9,1.84,-2.3680000000000003,-46.003,-22.392400000000002,175,75
2026-05-09 16:04:39.506,4,0.51,0.06,1.29,34.102000000000004,1.006999999999998,-13.362400000000001,175,75
2026-05-09 16:04:39.526,4,0.97,-0.69,1.3,24.712,119.90700000000001,11.8176,175,75
2026-05-09 16:04:39.540,4,1.09,-0.82,1.45,14.222000000000001,133.697,13.527599999999998,175,75
2026-05-09 16:04:39.574,4,1.0,-0.82,1.73,-24.198,28.207,-3.2424000000000017,175,75
2026-05-09 16:04:39.594,4,0.91,-1.01,1.57,-12.847999999999999,3.266999999999996,6.9976,175,75
2026-05-09 16:04:39.598,4,0.78,-1.03,1.54,-27.608,21.256999999999998,-0.07240000000000002,175,75
2026-05-09 16:04:39.610,4,0.88,-0.79,1.71,-50.837999999999994,42.166999999999994,-12.6324,175,75
2026-05-09 16:04:39.626,4,0.95,-0.48,1.88,-61.938,33.446999999999996,-3.4924000000000017,175,75
2026-05-09 16:04:39.677,4,0.48,-0.01,1.93,-51.507999999999996,-49.963,-6.292400000000001,175,75
2026-05-09 16:04:39.677,4,0.4,0.3,1.9,-52.788,-74.483,-20.742400000000004,175,75
2026-05-09 16:04:39.690,4,0.39,0.69,1.84,-57.668000000000006,-90.513,-26.2324,175,75
2026-05-09 16:04:39.702,4,0.21,0.97,1.42,-24.868000000000002,-68.803,-0.3824000000000005,175,75
2026-05-09 16:04:39.762,4,0.15,0.65,1.57,-25.838,91.12700000000001,20.7776,175,75
2026-05-09 16:04:39.798,4,0.21,0.23,1.78,-0.41799999999999926,-3.3230000000000004,5.597599999999998,175,75
2026-05-09 16:04:39.808,4,0.15,0.22,1.74,1.232000000000001,-38.073,-12.512400000000001,175,75
2026-05-09 16:04:39.818,4,0.24,0.32,1.65,0.9320000000000004,-54.603,-35.6824,175,75
2026-05-09 16:04:39.859,4,0.46,0.7,1.43,-23.648,17.226999999999997,-56.3524,175,75
2026-05-09 16:04:39.885,4,0.62,0.61,1.57,-18.038,138.017,-47.0824,175,75
2026-05-09 16:04:39.908,4,0.53,-0.35,1.68,21.112,146.867,-47.5124,175,75
2026-05-09 16:04:39.919,4,0.52,-0.59,1.62,24.952,168.567,-49.7124,175,75
2026-05-09 16:04:39.919,4,0.51,-0.65,1.64,24.282,185.517,-50.4424,175,75
2026-05-09 16:04:39.919,4,0.47,-0.57,1.79,16.962,197.77700000000002,-46.3524,175,75
2026-05-09 16:04:39.933,4,0.36,-0.35,2.02,5.442,188.447,-36.2324,175,75
2026-05-09 16:04:39.954,4,0.35,-0.05,2.25,-3.3979999999999997,119.17699999999999,-24.2224,175,75
2026-05-09 16:04:40.005,4,0.4,-0.15,2.01,-4.378,-28.563000000000002,0.1075999999999997,175,75
2026-05-09 16:04:40.016,4,0.3,-0.23,1.82,-7.117999999999999,-64.35300000000001,9.257599999999998,175,75
2026-05-09 16:04:40.054,4,0.17,-0.27,1.51,-36.208,-32.593,52.3076,175,75
2026-05-09 16:04:40.109,4,0.25,0.68,1.92,-36.878,-118.87299999999999,18.5276,175,75
2026-05-09 16:04:40.123,4,0.21,0.79,1.84,-14.068,-170.393,2.547599999999999,175,75
2026-05-09 16:04:40.144,4,0.22,0.64,1.41,12.332,-202.713,-19.4024,175,75
2026-05-09 16:04:40.144,4,0.24,0.58,1.15,14.652000000000001,-170.513,-34.4024,175,75
2026-05-09 16:04:40.208,4,0.88,0.56,1.19,-2.308,192.227,-9.342400000000001,175,75
2026-05-09 16:04:40.255,4,1.01,0.15,1.74,19.102,213.147,-2.3924000000000003,175,75
2026-05-09 16:04:40.267,4,1.22,-0.2,2.41,23.852,146.007,-61.9624,175,75
2026-05-09 16:04:40.280,4,1.25,-0.02,2.38,29.342000000000002,60.517,-109.7124,175,75
2026-05-09 16:04:40.291,4,1.26,0.06,2.26,29.221999999999998,55.21699999999999,-122.7524,175,75
2026-05-09 16:04:40.303,4,1.11,-0.09,2.01,42.452,64.487,-113.0624,175,75
2026-05-09 16:04:40.314,4,0.86,-0.3,1.94,51.542,70.27699999999999,-101.9624,175,75
2026-05-09 16:04:40.314,4,0.57,-0.5,1.96,51.72200000000001,67.71699999999998,-94.10239999999999,175,75
2026-05-09 16:04:40.324,4,0.36,-0.61,1.99,42.632000000000005,47.897,-94.7124,175,75
2026-05-09 16:04:40.324,4,0.27,-0.62,2.03,35.382000000000005,18.876999999999995,-97.7524,175,75
2026-05-09 16:04:40.338,4,0.21,-0.57,2.09,28.612,-19.413000000000004,-100.44239999999999,175,75
2026-05-09 16:04:40.338,4,0.11,-0.37,2.15,16.472,-91.673,-100.3224,175,75
2026-05-09 16:04:40.355,4,0.08,-0.2,2.14,0.6820000000000004,-156.673,-102.4524,175,75
2026-05-09 16:04:40.366,4,0.06,-0.05,2.04,-16.997999999999998,-223.263,-100.13239999999999,175,75
2026-05-09 16:04:40.366,4,-0.09,0.14,1.77,-32.178,-302.163,-86.1124,175,75
2026-05-09 16:04:40.389,4,-0.45,0.39,1.06,-23.887999999999998,-373.19300000000004,-65.8024,175,75
2026-05-09 16:04:40.399,4,-0.5,0.46,0.85,-24.497999999999998,-352.463,-51.412400000000005,175,75
2026-05-09 16:04:40.421,4,-0.59,0.48,0.64,-21.508,-281.853,-21.0524,175,75
2026-05-09 16:04:40.453,4,-0.66,0.46,0.51,-18.098,-210.213,6.147599999999999,175,75
2026-05-09 16:04:40.481,4,-0.69,0.44,0.45,-20.958,-99.233,40.047599999999996,175,75
2026-05-09 16:04:40.494,4,-0.66,0.5,0.56,-34.378,11.677,71.9376,175,75
2026-05-09 16:04:40.500,4,-0.39,0.69,1.05,-50.168000000000006,182.477,121.20760000000001,175,75
2026-05-09 16:04:40.524,4,-0.08,0.78,1.57,-62.428,179.367,112.1776,175,75
2026-05-09 16:04:40.536,4,0.05,0.79,1.72,-69.928,149.547,92.1776,175,75
2026-05-09 16:04:40.548,4,0.34,0.8,1.86,-76.698,106.43700000000001,57.84759999999999,175,75
2026-05-09 16:04:40.654,4,0.98,-0.56,1.65,-26.328,109.607,19.677599999999998,175,75
2026-05-09 16:04:40.675,4,1.22,-1.16,2.16,-37.788,101.37700000000001,15.2276,175,75
2026-05-09 16:04:40.708,4,1.0,-0.99,1.68,-48.158,25.946999999999996,23.397599999999997,175,75
2026-05-09 16:04:40.720,4,0.89,-1.04,1.89,-60.048,101.987,20.9576,175,75
2026-05-09 16:04:40.732,4,0.85,-0.78,2.19,-70.658,89.30699999999999,4.617599999999998,175,75
2026-05-09 16:04:40.755,4,0.47,0.19,2.36,-62.05799999999999,-56.983000000000004,-34.4024,175,75
2026-05-09 16:04:40.772,4,0.22,0.91,2.05,-54.438,-177.283,-35.8624,175,75
2026-05-09 16:04:40.786,4,0.23,1.09,1.76,-37.238,-183.44299999999998,-29.462400000000002,175,75
2026-05-09 16:04:40.797,4,0.23,1.01,1.49,-12.608,-147.463,-6.472400000000001,175,75
2026-05-09 16:04:40.797,4,0.15,0.89,1.36,4.582000000000001,-100.023,7.117599999999998,175,75
2026-05-09 16:04:40.808,4,0.02,0.74,1.36,9.522000000000002,-14.723000000000003,11.6976,175,75
2026-05-09 16:04:40.838,4,0.1,0.73,1.56,-2.4879999999999995,73.757,11.8776,175,75
2026-05-09 16:04:40.884,4,0.22,0.25,1.57,15.072,18.506999999999998,-23.7924,175,75
2026-05-09 16:04:40.904,4,0.39,0.31,1.55,5.0120000000000005,21.927,-42.0224,175,75
2026-05-09 16:04:40.904,4,0.51,0.42,1.57,-4.198,27.776999999999994,-55.7424,175,75
2026-05-09 16:04:40.915,4,0.6,0.56,1.6,-15.538,49.487,-66.2924,175,75
2026-05-09 16:04:40.926,4,0.67,0.65,1.61,-27.668,77.047,-76.1724,175,75
2026-05-09 16:04:40.936,4,0.66,0.5,1.6,-21.328,93.99700000000001,-75.9924,175,75
2026-05-09 16:04:40.952,4,0.58,-0.08,1.59,7.022000000000002,100.21700000000001,-66.7824,175,75
2026-05-09 16:04:40.969,4,0.57,-0.44,1.61,16.842,106.257,-68.0624,175,75
2026-05-09 16:04:40.998,4,0.75,-0.77,1.73,13.242,56.617,-71.8424,175,75
2026-05-09 16:04:41.010,4,0.65,-0.41,1.83,-16.028,-48.873000000000005,-69.7124,175,75
2026-05-09 16:04:41.020,4,0.62,-0.28,1.69,-28.278,-82.713,-54.2224,175,75
2026-05-09 16:04:41.035,4,0.57,-0.25,1.45,-27.308,-113.07300000000001,-32.5724,175,75
2026-05-09 16:04:41.046,4,0.45,-0.3,1.25,-21.208,-123.56300000000002,-15.252400000000002,175,75
2026-05-09 16:04:41.058,4,0.37,-0.32,1.14,-23.158,-105.763,-0.9324000000000012,175,75
2026-05-09 16:04:41.069,4,0.36,-0.29,1.11,-32.117999999999995,-72.043,12.7876,175,75
2026-05-09 16:04:41.086,4,0.45,0.0,1.24,-59.928,-7.833000000000002,36.6376,175,75
2026-05-09 16:04:41.109,4,0.33,0.39,1.49,-73.888,1.9269999999999996,30.837599999999995,175,75
2026-05-09 16:04:41.120,4,0.22,0.63,1.55,-76.818,-12.163000000000004,13.7676,175,75
2026-05-09 16:04:41.142,4,0.2,0.87,1.56,-78.458,-20.153000000000002,-2.8224,175,75
2026-05-09 16:04:41.142,4,0.16,1.06,1.53,-76.148,-24.353,-10.3824,175,75
2026-05-09 16:04:41.158,4,0.05,1.08,1.44,-59.867999999999995,-21.733000000000004,-11.172400000000001,175,75
2026-05-09 16:04:41.169,4,0.01,0.9,1.38,-43.218,-1.983000000000004,-8.9724,175,75
2026-05-09 16:04:41.179,4,0.03,0.72,1.36,-36.638,29.976999999999997,-9.6524,175,75
2026-05-09 16:04:41.192,4,0.2,0.55,1.43,-45.477999999999994,76.67699999999999,-18.9124,175,75
2026-05-09 16:04:41.223,4,0.43,0.62,1.7,-60.418000000000006,60.586999999999996,-59.4024,175,75
2026-05-09 16:04:41.252,4,0.48,0.32,1.54,-41.208,14.786999999999999,-68.3024,175,75
2026-05-09 16:04:41.273,4,0.7,-0.15,1.35,-16.328,35.946999999999996,-42.2724,175,75
2026-05-09 16:04:41.273,4,0.79,-0.33,1.37,-9.868,53.696999999999996,-27.9424,175,75
2026-05-09 16:04:41.301,4,0.88,-0.44,1.42,-10.538,71.06700000000001,-19.8324,175,75
2026-05-09 16:04:41.315,4,1.06,-0.43,1.52,-39.318,85.767,-19.8324,175,75
2026-05-09 16:04:41.332,4,0.85,-0.25,1.47,-25.288,105.39699999999999,-16.4124,175,75
2026-05-09 16:04:41.401,4,0.62,-0.38,1.82,-43.338,20.276999999999994,2.7875999999999994,175,75
2026-05-09 16:04:41.424,4,0.47,-0.08,1.62,-48.708,-67.46300000000001,0.4175999999999984,175,75
2026-05-09 16:04:41.448,4,0.25,0.15,1.33,-44.867999999999995,-96.673,-3.852400000000001,175,75
2026-05-09 16:04:41.448,4,0.16,0.3,1.23,-46.087999999999994,-82.653,-2.6324000000000005,175,75
2026-05-09 16:04:41.458,4,0.11,0.43,1.2,-48.528000000000006,-56.303000000000004,3.3375999999999983,175,75
2026-05-09 16:04:41.473,4,-0.01,0.54,1.24,-40.227999999999994,19.177,27.427599999999998,175,75
2026-05-09 16:04:41.523,4,-0.03,0.44,1.54,-51.147999999999996,-19.963000000000005,-3.9724000000000004,175,75
2026-05-09 16:04:41.531,4,-0.02,0.53,1.51,-49.928,-31.183000000000003,-10.7424,175,75
2026-05-09 16:04:41.542,4,0.0,0.62,1.46,-47.117999999999995,-38.563,-14.7124,175,75
2026-05-09 16:04:41.555,4,-0.01,0.7,1.44,-44.138,-34.353,-19.8324,175,75
2026-05-09 16:04:41.582,4,-0.03,0.82,1.48,-42.977999999999994,-6.303000000000004,-34.0424,175,75
2026-05-09 16:04:41.589,4,0.03,0.87,1.49,-43.458,7.536999999999999,-43.3024,175,75
2026-05-09 16:04:41.616,4,0.16,0.87,1.49,-44.738,46.617,-45.0124,175,75
2026-05-09 16:04:41.626,4,0.19,0.82,1.53,-44.498000000000005,80.707,-43.3624,175,75
2026-05-09 16:04:41.637,4,0.26,0.71,1.66,-39.988,127.167,-40.382400000000004,175,75
2026-05-09 16:04:41.650,4,0.43,0.29,1.87,-22.848,127.71700000000001,-43.5524,175,75
2026-05-09 16:04:41.665,4,0.48,0.05,1.93,-10.108,80.457,-48.7924,175,75
2026-05-09 16:04:41.682,4,0.5,-0.37,1.84,3.242000000000001,8.326999999999998,-49.2824,175,75
2026-05-09 16:04:41.711,4,0.62,-0.7,1.63,-9.498,-19.053000000000004,-31.5424,175,75
2026-05-09 16:04:41.728,4,0.66,-0.63,1.64,-38.588,-6.983000000000004,-5.3824000000000005,175,75
2026-05-09 16:04:41.794,4,0.75,-1.13,1.6,-62.488,88.757,60.53759999999999,175,75
2026-05-09 16:04:41.806,4,0.74,-0.88,1.81,-79.008,83.93699999999998,50.227599999999995,175,75
2026-05-09 16:04:41.817,4,0.66,-0.65,1.97,-87.118,57.657000000000004,41.7576,175,75
2026-05-09 16:04:41.839,4,0.42,-0.1,2.05,-84.55799999999999,-33.073,10.1076,175,75
2026-05-09 16:04:41.839,4,0.43,0.13,1.98,-83.948,-63.803000000000004,-4.892400000000001,175,75
2026-05-09 16:04:41.850,4,0.46,0.35,1.87,-84.678,-85.093,-10.442400000000001,175,75
2026-05-09 16:04:41.860,4,0.43,0.51,1.69,-79.55799999999999,-88.013,-7.392400000000001,175,75
2026-05-09 16:04:41.874,4,0.34,0.55,1.52,-59.138000000000005,-54.783,5.417599999999998,175,75
2026-05-09 16:04:41.927,4,0.22,0.57,1.7,-49.80799999999999,31.677,-5.012400000000001,175,75
2026-05-09 16:04:41.951,4,0.19,1.05,1.73,-47.977999999999994,17.537,-29.342399999999998,175,75
2026-05-09 16:04:41.963,4,0.13,0.94,1.69,-30.658,26.677,-30.992400000000004,175,75
2026-05-09 16:04:41.963,4,0.11,0.74,1.69,-14.677999999999999,41.987,-32.3324,175,75
2026-05-09 16:04:41.975,4,0.16,0.55,1.72,-7.428,52.10699999999999,-39.1624,175,75
2026-05-09 16:04:41.985,4,0.32,0.41,1.78,-5.598,42.537,-54.2224,175,75
2026-05-09 16:04:41.996,4,0.45,0.36,1.78,-3.708,26.317,-64.4624,175,75
2026-05-09 16:04:42.009,4,0.51,0.33,1.72,-0.5380000000000003,15.886999999999993,-72.33239999999999,175,75
2026-05-09 16:04:42.026,4,0.47,0.28,1.65,-0.9580000000000002,14.786999999999999,-76.9024,175,75
2026-05-09 16:04:42.026,4,0.4,0.19,1.57,-0.22799999999999976,19.486999999999995,-78.49239999999999,175,75
2026-05-09 16:04:42.041,4,0.35,0.08,1.5,3.242000000000001,27.836999999999996,-77.1524,175,75
2026-05-09 16:04:42.052,4,0.34,-0.09,1.46,9.102,36.556999999999995,-74.3424,175,75
2026-05-09 16:04:42.065,4,0.42,-0.27,1.47,11.472000000000001,37.836999999999996,-69.4024,175,75
2026-05-09 16:04:42.075,4,0.49,-0.41,1.53,1.7219999999999995,22.956999999999994,-66.0524,175,75
2026-05-09 16:04:42.093,4,0.44,-0.37,1.52,-41.268,-44.173,-67.7524,175,75
2026-05-09 16:04:42.115,4,0.38,-0.33,1.4,-53.397999999999996,-67.953,-61.6024,175,75
2026-05-09 16:04:42.126,4,0.33,-0.32,1.33,-54.007999999999996,-81.85300000000001,-49.2224,175,75
2026-05-09 16:04:42.136,4,0.28,-0.36,1.3,-49.617999999999995,-94.483,-30.8024,175,75
2026-05-09 16:04:42.140,4,0.23,-0.43,1.37,-47.488,-110.63300000000001,-6.602400000000001,175,75
2026-05-09 16:04:42.154,4,0.22,-0.46,1.44,-49.007999999999996,-136.793,10.2276,175,75
2026-05-09 16:04:42.171,4,0.19,-0.38,1.5,-54.617999999999995,-183.44299999999998,22.177599999999998,175,75
2026-05-09 16:04:42.173,4,0.18,-0.18,1.5,-59.867999999999995,-216.493,28.4576,175,75
2026-05-09 16:04:42.190,4,0.26,0.13,1.47,-70.538,-218.383,41.447599999999994,175,75
2026-05-09 16:04:42.208,4,0.4,0.45,1.47,-83.338,-169.053,67.1776,175,75
2026-05-09 16:04:42.219,4,0.54,0.65,1.53,-83.338,-92.893,88.5276,175,75
2026-05-09 16:04:42.232,4,0.8,0.71,1.72,-66.818,0.7069999999999936,104.86760000000001,175,75
2026-05-09 16:04:42.255,4,1.31,0.79,2.39,-37.367999999999995,139.727,91.6376,175,75
2026-05-09 16:04:42.267,4,1.6,0.84,2.74,-27.488,200.27700000000002,73.8276,175,75
2026-05-09 16:04:42.278,4,1.66,0.81,2.96,-5.838,218.627,57.2476,175,75
2026-05-09 16:04:42.278,4,1.52,0.59,3.17,39.102000000000004,216.197,29.257599999999996,175,75
2026-05-09 16:04:42.350,4,1.63,-0.66,3.01,172.632,295.767,-99.9524,175,75
2026-05-09 16:04:42.360,4,1.51,-1.07,3.02,205.442,289.54699999999997,-112.5724,175,75
2026-05-09 16:04:42.372,4,1.42,-1.57,3.01,244.342,267.657,-125.13239999999999,175,75
2026-05-09 16:04:42.392,4,1.32,-2.32,3.06,266.11199999999997,143.147,-136.7824,175,75
2026-05-09 16:04:42.405,4,1.16,-2.36,2.91,259.582,69.11699999999999,-150.3824,175,75
2026-05-09 16:04:42.423,4,0.98,-1.79,2.37,227.022,-21.303000000000004,-201.8424,175,75
2026-05-09 16:04:42.464,4,0.78,-1.58,1.6,256.842,-36.063,-159.6524,175,75
2026-05-09 16:04:42.474,4,0.64,-1.6,1.49,255.862,-30.573000000000004,-148.4924,175,75
2026-05-09 16:04:42.486,4,0.47,-1.53,1.41,246.722,-21.373000000000005,-143.9124,175,75
2026-05-09 16:04:42.486,4,0.31,-1.35,1.36,237.632,-8.993000000000002,-149.7124,175,75
2026-05-09 16:04:42.504,4,0.12,-0.94,1.32,229.522,-34.663000000000004,-164.7124,175,75
2026-05-09 16:04:42.515,4,-0.15,-0.46,1.39,224.342,-117.59299999999999,-175.5624,175,75
2026-05-09 16:04:42.610,4,-0.8,0.8,1.17,145.382,-153.623,-91.7824,175,75
2026-05-09 16:04:42.621,4,-0.82,0.57,1.11,152.452,-146.613,-76.05239999999999,175,75
2026-05-09 16:04:42.631,4,-0.71,0.23,1.06,148.552,-125.393,-71.1124,175,75
2026-05-09 16:04:42.631,4,-0.5,0.05,1.05,122.632,-123.68299999999999,-82.63239999999999,175,75
2026-05-09 16:04:42.671,4,-0.28,0.36,0.99,75.622,-209.053,-134.9524,175,75
2026-05-09 16:04:42.687,4,-0.34,0.48,0.96,59.712,-204.41299999999998,-134.2224,175,75
2026-05-09 16:04:42.698,4,-0.39,0.54,0.95,37.94200000000001,-175.633,-128.79240000000001,175,75
2026-05-09 16:04:42.708,4,-0.34,0.6,0.96,15.382000000000001,-134.053,-126.9024,175,75
2026-05-09 16:04:42.720,4,-0.03,0.85,1.07,-16.938,-94.173,-128.1224,175,75
2026-05-09 16:04:42.738,4,0.1,0.97,1.12,-23.398,-89.35300000000001,-125.0724,175,75
2026-05-09 16:04:42.785,4,0.74,1.12,1.15,-8.828,7.716999999999999,-117.63239999999999,175,75
2026-05-09 16:04:42.808,4,-0.0,2.4,1.75,3.5519999999999996,-88.993,-138.4924,175,75
2026-05-09 16:04:42.823,4,0.03,2.83,1.68,-15.777999999999999,-121.983,-123.9724,175,75
2026-05-09 16:04:42.834,4,0.1,2.99,1.48,-19.317999999999998,-124.41300000000001,-99.16239999999999,175,75
2026-05-09 16:04:42.840,4,0.09,3.05,1.3,-6.568,-95.453,-75.19239999999999,175,75
2026-05-09 16:04:42.865,4,0.1,2.97,1.24,7.3919999999999995,9.236999999999995,-36.3524,175,75
2026-05-09 16:04:42.873,4,0.19,3.03,1.3,2.5120000000000005,62.657000000000004,-16.6624,175,75
2026-05-09 16:04:42.886,4,0.27,3.1,1.39,2.8819999999999997,67.59700000000001,0.16759999999999842,175,75
2026-05-09 16:04:42.911,4,0.1,2.79,1.45,-8.888,12.046999999999997,32.1776,175,75
2026-05-09 16:04:42.926,4,0.06,2.42,1.34,-27.848,37.227,58.157599999999995,175,75
2026-05-09 16:04:42.935,4,0.12,2.21,1.26,-40.168,87.167,74.55760000000001,175,75
2026-05-09 16:04:42.951,4,0.43,1.64,1.19,-51.638000000000005,248.99699999999999,100.89760000000001,175,75
2026-05-09 16:04:42.988,4,0.59,0.9,2.2,-30.658,283.56699999999995,84.0676,175,75
2026-05-09 16:04:43.022,4,0.32,1.12,2.44,-56.938,31.377000000000002,1.6975999999999996,175,75
2026-05-09 16:04:43.022,4,0.3,1.11,2.22,-54.007999999999996,-29.783,-9.4024,175,75
2026-05-09 16:04:43.062,4,-0.01,0.5,1.58,-25.598,-8.623000000000005,5.417599999999998,175,75
2026-05-09 16:04:43.095,4,0.21,0.54,1.85,-41.698,4.236999999999995,-22.0824,175,75
2026-05-09 16:04:43.116,4,0.33,1.03,1.84,-67.05799999999999,-98.993,-63.122400000000006,175,75
2026-05-09 16:04:43.129,4,0.41,0.93,1.65,-70.898,-88.93299999999999,-72.8824,175,75
2026-05-09 16:04:43.155,4,0.46,0.82,1.57,-74.258,-59.843,-76.35239999999999,175,75
2026-05-09 16:04:43.170,4,0.41,0.77,1.72,-66.758,6.067,-65.9324,175,75
2026-05-09 16:04:43.177,4,0.49,0.79,1.9,-51.69799999999999,28.017000000000003,-68.5524,175,75
2026-05-09 16:04:43.204,4,0.37,1.79,2.21,-31.148,-62.523,-110.6224,175,75
2026-05-09 16:04:43.223,4,0.15,2.45,2.22,-22.728,-100.093,-105.0724,175,75
2026-05-09 16:04:43.229,4,0.1,2.83,2.12,-12.177999999999999,-126.553,-82.27239999999999,175,75
2026-05-09 16:04:43.256,4,0.2,2.44,1.65,3.492000000000001,-105.15299999999999,-34.952400000000004,175,75
2026-05-09 16:04:43.280,4,0.22,2.32,1.56,-6.6979999999999995,-38.013000000000005,-16.9024,175,75
2026-05-09 16:04:43.280,4,0.21,2.42,1.67,-18.887999999999998,8.506999999999998,-2.5724,175,75
2026-05-09 16:04:43.301,4,0.23,2.4,1.79,-19.988,10.336999999999996,6.4475999999999996,175,75
2026-05-09 16:04:43.315,4,0.02,2.03,1.84,-25.958,-90.093,12.7276,175,75
2026-05-09 16:04:43.336,4,-0.05,1.59,1.64,-50.837999999999994,-123.87299999999999,14.867599999999998,175,75
2026-05-09 16:04:43.348,4,0.02,1.38,1.49,-62.788,-105.94300000000001,25.717599999999997,175,75
2026-05-09 16:04:43.390,4,1.27,0.24,1.81,-67.978,78.017,32.117599999999996,175,75
2026-05-09 16:04:43.417,4,0.47,-0.13,2.03,-22.668,-126.43299999999999,-61.052400000000006,175,75
2026-05-09 16:04:43.439,4,0.23,0.3,1.9,-24.677999999999997,-169.963,-104.10239999999999,175,75
2026-05-09 16:04:43.450,4,0.92,2.21,1.56,-94.988,-229.543,-130.8024,175,75
2026-05-09 16:04:43.546,4,1.72,2.08,2.57,-141.388,-19.353,-83.6124,175,75
2026-05-09 16:04:43.546,4,1.45,2.13,2.28,-102.368,-46.43300000000001,-88.0624,175,75
2026-05-09 16:04:43.546,4,1.15,1.68,1.97,-56.44799999999999,21.006999999999998,-65.1324,175,75
2026-05-09 16:04:43.603,4,0.43,1.6,2.66,-46.44799999999999,-20.823000000000004,-40.132400000000004,175,75
2026-05-09 16:04:43.636,4,0.25,1.19,2.49,-51.147999999999996,-75.763,-46.5424,175,75
2026-05-09 16:04:43.646,4,0.14,1.23,2.33,-46.638000000000005,-116.00300000000001,-55.562400000000004,175,75
2026-05-09 16:04:43.659,4,0.11,1.2,2.04,-40.658,-129.053,-57.022400000000005,175,75
2026-05-09 16:04:43.669,4,0.08,1.08,1.83,-34.738,-125.57300000000001,-52.0824,175,75
2026-05-09 16:04:43.680,4,-0.01,0.91,1.62,-29.808,-102.523,-45.8624,175,75
2026-05-09 16:04:43.705,4,-0.14,0.48,1.41,-29.738,22.596999999999994,-27.6324,175,75
2026-05-09 16:04:43.716,4,-0.13,0.33,1.44,-28.768,66.737,-17.2724,175,75
2026-05-09 16:04:43.750,4,-0.19,0.48,1.82,-34.558,-6.613000000000003,-59.342400000000005,175,75
2026-05-09 16:04:43.764,4,-0.15,0.8,1.76,-43.888,-92.283,-89.2224,175,75
2026-05-09 16:04:43.777,4,-0.14,0.91,1.64,-43.218,-130.023,-88.0024,175,75
2026-05-09 16:04:43.794,4,-0.17,0.97,1.49,-39.928,-161.303,-84.3424,175,75
2026-05-09 16:04:43.794,4,-0.22,1.02,1.36,-39.558,-163.263,-83.1224,175,75
2026-05-09 16:04:43.829,4,0.13,1.36,1.31,-58.038,37.287,-33.5524,175,75
2026-05-09 16:04:43.847,4,0.26,1.3,1.43,-43.458,113.62700000000001,-2.942400000000001,175,75
2026-05-09 16:04:43.863,4,0.92,0.93,2.24,-25.598,180.827,4.0676000000000005,175,75
2026-05-09 16:04:43.876,4,0.97,1.06,2.59,-27.668,78.507,-27.3324,175,75
2026-05-09 16:04:43.887,4,0.51,1.73,2.73,-16.208,-48.263000000000005,-66.4124,175,75
2026-05-09 16:04:43.901,4,0.23,2.41,2.74,-6.028,-111.91300000000001,-89.7124,175,75
2026-05-09 16:04:43.911,4,0.24,3.08,2.7,-6.758,-165.453,-100.13239999999999,175,75
2026-05-09 16:04:43.911,4,0.47,3.17,2.44,-18.588,-203.623,-86.7824,175,75
2026-05-09 16:04:43.932,4,0.73,2.54,1.86,-4.678,-168.683,-48.7924,175,75
2026-05-09 16:04:43.944,4,0.18,2.92,1.97,16.052,-39.113,-24.5224,175,75
2026-05-09 16:04:43.954,4,0.27,3.16,2.2,-8.457999999999998,-10.213000000000005,-13.4924,175,75
2026-05-09 16:04:43.967,4,0.58,3.02,2.22,-20.288,2.046999999999997,4.617599999999998,175,75
2026-05-09 16:04:44.013,4,1.04,2.02,2.4,-58.768,22.046999999999997,1.637599999999999,175,75
2026-05-09 16:04:44.022,4,1.2,1.62,2.41,-54.378,12.896999999999998,5.717599999999999,175,75
2026-05-09 16:04:44.035,4,1.07,1.23,2.4,-53.587999999999994,-4.173000000000002,0.5375999999999994,175,75
2026-05-09 16:04:44.046,4,0.85,0.93,2.41,-60.108000000000004,-5.763000000000002,-8.002400000000002,175,75
2026-05-09 16:04:44.057,4,0.58,0.9,2.46,-72.728,-2.7730000000000032,-26.172400000000003,175,75
2026-05-09 16:04:44.071,4,0.42,1.22,2.5,-74.988,-24.663000000000004,-50.0124,175,75
2026-05-09 16:04:44.104,4,0.33,1.22,1.87,-37.608000000000004,-42.833000000000006,-29.712400000000002,175,75
2026-05-09 16:04:44.115,4,0.26,1.09,1.79,-37.058,13.876999999999995,-12.692400000000001,175,75
2026-05-09 16:04:44.122,4,0.16,1.07,1.87,-40.958,51.127,-4.832400000000001,175,75
2026-05-09 16:04:44.130,4,0.13,1.09,2.07,-46.757999999999996,58.817,-3.4924000000000017,175,75
2026-05-09 16:04:44.140,4,0.09,1.03,2.16,-43.158,12.406999999999996,-5.322400000000001,175,75
2026-05-09 16:04:44.164,4,0.02,0.88,2.13,-36.208,-38.68300000000001,-17.0824,175,75
2026-05-09 16:04:44.170,4,0.04,0.68,1.92,-37.238,-92.10300000000001,-39.6524,175,75
2026-05-09 16:04:44.191,4,0.08,0.66,1.76,-36.878,-101.243,-49.6524,175,75
2026-05-09 16:04:44.203,4,0.11,0.65,1.7,-33.218,-93.07300000000001,-55.132400000000004,175,75
2026-05-09 16:04:44.207,4,0.12,0.66,1.63,-30.898,-80.82300000000001,-57.5124,175,75
2026-05-09 16:04:44.226,4,0.02,0.74,1.61,-33.708,-83.503,-62.7524,175,75
2026-05-09 16:04:44.231,4,-0.09,0.84,1.64,-38.888,-91.673,-71.1724,175,75
2026-05-09 16:04:44.247,4,-0.1,1.01,1.67,-46.69799999999999,-89.483,-78.6124,175,75
2026-05-09 16:04:44.258,4,0.14,1.12,1.65,-49.257999999999996,-77.953,-73.9724,175,75
2026-05-09 16:04:44.281,4,0.27,0.99,1.57,-35.658,-50.093,-59.6524,175,75
2026-05-09 16:04:44.293,4,0.29,0.93,1.62,-30.658,-14.963000000000005,-56.1124,175,75
2026-05-09 16:04:44.305,4,0.44,0.97,1.77,-27.058,29.847,-54.8324,175,75
2026-05-09 16:04:44.326,4,0.73,1.4,2.12,0.8019999999999996,22.656999999999996,-69.58239999999999,175,75
2026-05-09 16:04:44.331,4,0.28,1.96,2.19,20.322,-54.783,-94.4624,175,75
2026-05-09 16:04:44.345,4,0.01,2.53,2.23,24.892,-108.87299999999999,-105.80239999999999,175,75
2026-05-09 16:04:44.365,4,0.25,2.88,1.86,19.162,-166.183,-65.44239999999999,175,75
2026-05-09 16:04:44.375,4,0.2,2.57,1.57,20.932,-164.353,-41.5424,175,75
2026-05-09 16:04:44.390,4,-0.0,2.45,1.47,2.8819999999999997,-136.123,-27.1524,175,75
2026-05-09 16:04:44.401,4,0.01,2.55,1.43,-32.918,-85.69300000000001,-13.672400000000001,175,75
2026-05-09 16:04:44.401,4,0.1,2.52,1.37,-41.568,-50.333000000000006,5.347599999999998,175,75
2026-05-09 16:04:44.412,4,0.06,2.3,1.34,-37.668,-35.153000000000006,10.347599999999998,175,75
2026-05-09 16:04:44.446,4,0.1,1.54,1.52,-68.338,33.817,27.8476,175,75
2026-05-09 16:04:44.462,4,0.48,0.81,1.87,-82.91799999999999,62.957,34.8076,175,75
2026-05-09 16:04:44.473,4,0.49,0.56,2.02,-80.658,41.617,27.0576,175,75
2026-05-09 16:04:44.484,4,0.46,0.29,2.15,-74.198,14.607,11.5676,175,75
2026-05-09 16:04:44.499,4,0.47,0.15,2.27,-66.088,-7.953000000000003,-12.572400000000002,175,75
2026-05-09 16:04:44.513,4,0.52,0.19,2.38,-59.738,-41.613,-41.1124,175,75
2026-05-09 16:04:44.548,4,0.49,0.44,2.43,-53.218,-89.783,-71.1124,175,75
2026-05-09 16:04:44.548,4,0.37,0.82,2.41,-50.348,-133.933,-94.6524,175,75
2026-05-09 16:04:44.584,4,0.52,1.6,1.93,-49.138000000000005,-142.163,-95.5024,175,75
2026-05-09 16:04:44.596,4,0.54,1.63,1.68,-30.718,-75.94300000000001,-70.1324,175,75
2026-05-09 16:04:44.608,4,0.58,1.32,1.7,6.962,0.6469999999999985,-38.0024,175,75
2026-05-09 16:04:44.608,4,0.62,1.14,1.94,23.002,13.446999999999996,-30.4424,175,75
2026-05-09 16:04:44.619,4,0.73,1.16,2.25,14.222000000000001,-35.513000000000005,-48.6124,175,75
2026-05-09 16:04:44.620,4,0.78,1.47,2.31,-17.238,-124.66300000000001,-82.7524,175,75
2026-05-09 16:04:44.633,4,0.91,1.84,2.01,-51.878,-159.843,-98.85239999999999,175,75
2026-05-09 16:04:44.664,4,0.8,2.09,1.39,-62.668000000000006,-33.263000000000005,-66.4124,175,75
2026-05-09 16:04:44.706,4,0.93,1.71,2.61,-38.458,73.327,-32.452400000000004,175,75
2026-05-09 16:04:44.716,4,0.51,2.0,2.72,-42.058,-68.93299999999999,-62.8224,175,75
2026-05-09 16:04:44.716,4,0.4,2.18,2.47,-55.288,-142.223,-66.2324,175,75
2026-05-09 16:04:44.727,4,0.36,2.15,2.1,-71.698,-168.743,-54.522400000000005,175,75
2026-05-09 16:04:44.738,4,0.37,1.92,1.78,-80.348,-109.41300000000001,-27.392400000000002,175,75
2026-05-09 16:04:44.749,4,0.43,1.62,1.66,-78.27799999999999,1.256999999999998,5.537599999999999,175,75
2026-05-09 16:04:44.760,4,0.45,1.41,1.78,-69.498,59.487,21.6376,175,75
2026-05-09 16:04:44.772,4,0.41,1.22,2.03,-60.108000000000004,79.84700000000001,27.787599999999998,175,75
2026-05-09 16:04:44.772,4,0.26,1.07,2.27,-55.778000000000006,48.567,21.2076,175,75
2026-05-09 16:04:44.783,4,0.14,0.97,2.3,-51.818,7.8969999999999985,10.047599999999997,175,75
2026-05-09 16:04:44.794,4,0.12,0.8,2.23,-44.138,-45.57300000000001,-3.7924000000000007,175,75
2026-05-09 16:04:44.812,4,0.15,0.66,2.09,-38.038,-73.07300000000001,-10.072400000000002,175,75
2026-05-09 16:04:44.831,4,0.12,0.53,1.81,-31.758,-76.003,-22.2724,175,75
2026-05-09 16:04:44.855,4,0.15,0.6,1.73,-33.158,-69.233,-37.882400000000004,175,75
2026-05-09 16:04:44.866,4,0.14,0.64,1.71,-31.637999999999998,-75.453,-43.7324,175,75
2026-05-09 16:04:44.881,4,0.09,0.67,1.68,-30.538,-82.953,-51.3524,175,75
2026-05-09 16:04:44.881,4,0.04,0.68,1.65,-31.328,-83.873,-57.5124,175,75
2026-05-09 16:04:44.895,4,0.02,0.7,1.64,-32.668,-77.523,-61.7224,175,75
2026-05-09 16:04:44.906,4,0.02,0.74,1.64,-33.768,-67.593,-62.632400000000004,175,75
2026-05-09 16:04:44.919,4,0.03,0.81,1.67,-34.068,-61.303000000000004,-63.0024,175,75
2026-05-09 16:04:44.929,4,0.06,0.89,1.73,-31.998,-59.663000000000004,-64.4624,175,75
2026-05-09 16:04:44.949,4,0.09,0.96,1.78,-30.477999999999998,-59.413000000000004,-66.2924,175,75
2026-05-09 16:04:44.972,4,0.14,1.0,1.81,-28.158,-66.123,-68.1224,175,75
2026-05-09 16:04:44.989,4,0.14,1.06,1.83,-23.038,-87.833,-71.3524,175,75
2026-05-09 16:04:45.001,4,0.13,1.09,1.85,-17.978,-94.60300000000001,-71.7224,175,75
2026-05-09 16:04:45.012,4,0.26,1.07,1.84,-11.638,-82.953,-65.44239999999999,175,75
2026-05-09 16:04:45.019,4,0.43,1.0,1.81,-8.097999999999999,-60.153000000000006,-59.952400000000004,175,75
2026-05-09 16:04:45.029,4,0.68,0.92,1.78,-4.257999999999999,-25.153000000000006,-61.1124,175,75
2026-05-09 16:04:45.069,4,0.26,2.02,2.25,3.492000000000001,-58.68300000000001,-92.02239999999999,175,75
2026-05-09 16:04:45.084,4,-0.04,2.9,2.49,-1.3279999999999994,-92.773,-102.4524,175,75
2026-05-09 16:04:45.095,4,0.11,3.37,2.46,-6.758,-123.32300000000001,-92.5724,175,75
2026-05-09 16:04:45.097,4,0.45,3.12,2.13,-0.718,-148.803,-68.2424,175,75
2026-05-09 16:04:45.108,4,0.52,2.54,1.68,20.862,-144.723,-47.3924,175,75
2026-05-09 16:04:45.118,4,0.33,2.4,1.6,19.162,-105.82300000000001,-43.9124,175,75
2026-05-09 16:04:45.130,4,0.21,2.64,1.73,-5.478,-30.453000000000003,-38.4924,175,75
2026-05-09 16:04:45.130,4,0.31,2.99,1.88,-21.387999999999998,26.866999999999997,-21.782400000000003,175,75
2026-05-09 16:04:45.141,4,0.54,3.12,1.98,-13.828,32.836999999999996,4.807599999999999,175,75
2026-05-09 16:04:45.165,4,0.83,2.11,1.85,-67.30799999999999,19.427,26.877599999999994,175,75
2026-05-09 16:04:45.187,4,0.95,1.95,1.81,-78.828,78.327,29.927599999999998,175,75
2026-05-09 16:04:45.199,4,0.72,1.12,2.06,-39.988,108.757,44.437599999999996,175,75
2026-05-09 16:04:45.211,4,0.46,0.97,2.16,-36.938,42.597,27.607599999999998,175,75
2026-05-09 16:04:45.222,4,0.3,1.1,2.11,-51.757999999999996,-35.573,1.8175999999999988,175,75
2026-05-09 16:04:45.245,4,0.5,1.21,1.83,-73.338,-46.913000000000004,-2.942400000000001,175,75
2026-05-09 16:04:45.248,4,0.57,1.05,1.62,-75.718,0.6469999999999985,8.3376,175,75
2026-05-09 16:04:45.260,4,0.48,0.83,1.6,-76.99799999999999,65.15700000000001,14.867599999999998,175,75
2026-05-09 16:04:45.281,4,0.34,0.75,1.86,-79.80799999999999,111.43700000000001,16.8776,175,75
2026-05-09 16:04:45.281,4,0.29,0.78,2.11,-75.228,105.64699999999999,12.367599999999998,175,75
2026-05-09 16:04:45.294,4,0.22,0.85,2.38,-62.788,48.507,0.4775999999999989,175,75
2026-05-09 16:04:45.305,4,0.19,0.87,2.53,-46.568,-39.293000000000006,-21.962400000000002,175,75
2026-05-09 16:04:45.323,4,0.31,0.82,2.35,-35.897999999999996,-141.433,-53.552400000000006,175,75
2026-05-09 16:04:45.356,4,0.23,0.8,1.84,-18.828,-187.283,-72.2724,175,75
2026-05-09 16:04:45.368,4,0.08,0.8,1.64,-7.117999999999999,-182.653,-71.6024,175,75
2026-05-09 16:04:45.378,4,-0.0,0.8,1.52,-3.1579999999999995,-151.793,-68.1224,175,75
2026-05-09 16:04:45.386,4,-0.02,0.81,1.49,-4.198,-111.983,-64.3424,175,75
2026-05-09 16:04:45.398,4,0.03,0.87,1.49,-10.108,-67.46300000000001,-59.8924,175,75
2026-05-09 16:04:45.412,4,0.13,0.96,1.56,-20.838,-29.723000000000003,-60.1924,175,75
2026-05-09 16:04:45.412,4,0.27,1.04,1.65,-26.698,0.39699999999999847,-61.412400000000005,175,75
2026-05-09 16:04:45.422,4,0.49,1.12,1.76,-26.387999999999998,31.43699999999999,-59.342400000000005,175,75
2026-05-09 16:04:45.434,4,0.73,1.18,1.88,-21.637999999999998,50.586999999999996,-58.062400000000004,175,75
2026-05-09 16:04:45.457,4,0.75,1.53,2.21,0.13199999999999967,-24.293000000000003,-73.9724,175,75
2026-05-09 16:04:45.468,4,0.26,2.14,2.42,4.341999999999999,-121.733,-97.5724,175,75
2026-05-09 16:04:45.491,4,0.15,2.65,2.08,-22.548000000000002,-254.783,-90.13239999999999,175,75
2026-05-09 16:04:45.501,4,0.21,2.4,1.58,-10.168,-272.343,-59.0424,175,75
2026-05-09 16:04:45.528,4,0.0,2.48,1.21,-30.227999999999998,-178.383,-51.412400000000005,175,75
2026-05-09 16:04:45.539,4,-0.03,2.63,1.18,-51.028000000000006,-70.57300000000001,-23.3024,175,75
2026-05-09 16:04:45.550,4,-0.05,2.54,1.24,-44.738,58.32699999999999,20.837599999999995,175,75
2026-05-09 16:04:45.560,4,-0.05,2.18,1.38,-33.528,127.59700000000001,44.9876,175,75
2026-05-09 16:04:45.560,4,-0.0,1.76,1.55,-33.647999999999996,169.237,57.1176,175,75
2026-05-09 16:04:45.574,4,0.18,1.26,1.76,-47.548,174.847,57.9776,175,75
2026-05-09 16:04:45.588,4,0.39,1.0,1.86,-57.977999999999994,132.537,42.6076,175,75
2026-05-09 16:04:45.599,4,0.62,0.75,1.91,-67.728,44.54699999999999,17.977600000000002,175,75
2026-05-09 16:04:45.610,4,0.76,0.56,1.86,-70.658,-7.523000000000003,2.4875999999999987,175,75
2026-05-09 16:04:45.620,4,0.84,0.3,1.78,-59.378,6.806999999999995,-7.752400000000001,175,75
2026-05-09 16:04:45.630,4,0.92,0.1,1.87,-41.147999999999996,48.38699999999999,-23.0624,175,75
2026-05-09 16:04:45.643,4,0.93,0.05,2.17,-29.988,38.567,-49.4024,175,75
2026-05-09 16:04:45.655,4,0.57,0.38,2.35,-31.938,-60.153000000000006,-90.6224,175,75
2026-05-09 16:04:45.665,4,0.25,0.87,2.25,-41.568,-156.493,-129.7724,175,75
2026-05-09 16:04:45.732,4,0.39,1.76,1.2,-35.288,-76.373,-82.08239999999999,175,75
2026-05-09 16:04:45.736,4,0.88,1.0,1.85,23.971999999999998,137.717,-11.5424,175,75
2026-05-09 16:04:45.775,4,1.39,0.88,2.38,-1.9979999999999993,29.487000000000002,-37.9424,175,75
2026-05-09 16:04:45.789,4,0.91,2.32,1.83,-92.488,-188.383,-118.30239999999999,175,75
2026-05-09 16:04:45.800,4,1.06,2.39,1.32,-99.438,-97.463,-87.8224,175,75
2026-05-09 16:04:45.810,4,1.03,1.88,1.38,-38.528,102.65700000000001,-34.0424,175,75
2026-05-09 16:04:45.824,4,1.2,1.45,2.16,2.7620000000000005,174.367,-17.822400000000002,175,75
2026-05-09 16:04:45.835,4,0.9,1.43,2.74,-6.6979999999999995,44.056999999999995,-54.2224,175,75
2026-05-09 16:04:45.835,4,0.3,2.01,2.84,-37.848,-95.57300000000001,-87.69239999999999,175,75
2026-05-09 16:04:45.845,4,0.19,2.56,2.47,-73.278,-167.893,-76.35239999999999,175,75
2026-05-09 16:04:45.857,4,0.22,2.39,1.89,-89.438,-160.453,-33.7924,175,75
2026-05-09 16:04:45.869,4,0.45,1.1,1.7,-70.538,34.487,11.0876,175,75
2026-05-09 16:04:45.869,4,0.51,0.82,1.94,-68.708,34.907000000000004,-3.7324,175,75
2026-05-09 16:04:45.878,4,0.09,0.87,2.02,-70.048,-37.773,-36.4124,175,75
2026-05-09 16:04:45.889,4,-0.27,1.1,1.88,-80.16799999999999,-61.983000000000004,-44.2224,175,75
2026-05-09 16:04:45.900,4,-0.48,1.29,1.75,-93.398,-55.693000000000005,-36.7824,175,75
2026-05-09 16:04:45.911,4,-0.62,1.26,1.7,-99.678,-6.003000000000004,-7.822400000000001,175,75
2026-05-09 16:04:45.924,4,-0.51,0.97,1.82,-83.88799999999999,42.71699999999999,21.697599999999994,175,75
2026-05-09 16:04:45.936,4,-0.17,0.67,2.04,-67.428,38.38699999999999,33.2176,175,75
2026-05-09 16:04:45.947,4,0.08,0.41,2.29,-50.048,-54.293000000000006,19.007599999999996,175,75
2026-05-09 16:04:45.951,4,-0.03,0.32,2.27,-35.418,-156.183,-7.822400000000001,175,75
2026-05-09 16:04:45.965,4,-0.13,0.34,2.06,-29.928,-211.303,-29.772399999999998,175,75
2026-05-09 16:04:45.992,4,-0.14,0.83,1.33,-53.828,-217.343,-64.0424,175,75
2026-05-09 16:04:46.016,4,-0.06,1.11,1.12,-48.828,-88.93299999999999,-28.4324,175,75
2026-05-09 16:04:46.027,4,0.05,1.03,1.17,-41.757999999999996,-14.723000000000003,-8.672400000000001,175,75
2026-05-09 16:04:46.028,4,0.16,0.92,1.32,-41.388,42.897,5.047599999999997,175,75
2026-05-09 16:04:46.044,4,0.3,0.82,1.55,-47.367999999999995,66.43699999999998,4.867599999999998,175,75
2026-05-09 16:04:46.055,4,0.45,0.77,1.8,-56.507999999999996,36.677,-12.332400000000002,175,75
2026-05-09 16:04:46.065,4,0.49,0.79,1.93,-61.388000000000005,-28.683000000000003,-38.8524,175,75
2026-05-09 16:04:46.076,4,0.45,0.85,1.93,-61.998000000000005,-67.10300000000001,-55.1924,175,75
2026-05-09 16:04:46.083,4,0.43,0.96,1.8,-60.168000000000006,-84.963,-66.2924,175,75
2026-05-09 16:04:46.095,4,0.46,0.97,1.68,-57.668000000000006,-73.93299999999999,-69.0424,175,75
2026-05-09 16:04:46.106,4,0.48,0.91,1.65,-52.727999999999994,-46.913000000000004,-65.2524,175,75
2026-05-09 16:04:46.118,4,0.59,0.8,1.66,-46.268,-12.593000000000004,-63.302400000000006,175,75
2026-05-09 16:04:46.121,4,0.82,0.72,1.8,-38.397999999999996,10.276999999999994,-62.452400000000004,175,75
2026-05-09 16:04:46.149,4,0.84,0.98,2.08,-35.598,-14.963000000000005,-77.1524,175,75
2026-05-09 16:04:46.149,4,0.54,1.71,2.39,-40.598,-79.113,-103.7324,175,75
2026-05-09 16:04:46.158,4,0.0,3.1,2.69,-42.238,-146.303,-117.63239999999999,175,75
2026-05-09 16:04:46.184,4,0.93,2.71,1.64,-36.448,-198.503,-47.3924,175,75
2026-05-09 16:04:46.205,4,0.62,2.46,1.46,-16.028,-169.903,-33.8524,175,75
2026-05-09 16:04:46.216,4,0.18,2.97,1.83,-45.718,-83.19300000000001,-26.8424,175,75
2026-05-09 16:04:46.228,4,0.78,2.89,1.81,-71.508,17.897,12.307599999999999,175,75
2026-05-09 16:04:46.238,4,1.38,2.23,1.62,-41.638,20.336999999999996,50.837599999999995,175,75
2026-05-09 16:04:46.242,4,1.26,1.87,1.76,-62.727999999999994,41.377,45.047599999999996,175,75
2026-05-09 16:04:46.262,4,1.3,2.04,2.01,-119.618,157.957,32.2476,175,75
2026-05-09 16:04:46.262,4,1.46,2.05,2.22,-122.66799999999999,207.657,28.337599999999995,175,75
2026-05-09 16:04:46.315,4,0.8,0.62,2.79,-41.638,44.056999999999995,-34.4624,175,75
2026-05-09 16:04:46.341,4,0.6,0.94,2.48,-46.938,-56.913000000000004,-61.5424,175,75
2026-05-09 16:04:46.341,4,0.67,1.2,2.28,-69.318,-53.383,-63.1824,175,75
2026-05-09 16:04:46.355,4,0.6,1.4,1.99,-75.228,-50.453,-55.132400000000004,175,75
2026-05-09 16:04:46.372,4,0.35,1.3,1.86,-52.05799999999999,-42.463,-37.7624,175,75
2026-05-09 16:04:46.397,4,-0.0,1.17,2.04,-43.828,-40.093,-23.4324,175,75
2026-05-09 16:04:46.412,4,0.06,1.08,2.04,-37.848,-79.843,-16.8424,175,75
2026-05-09 16:04:46.428,4,0.21,0.76,1.82,-29.928,-122.713,-26.2324,175,75
2026-05-09 16:04:46.440,4,0.38,0.7,1.68,-40.838,-116.12299999999999,-32.5124,175,75
2026-05-09 16:04:46.452,4,0.38,0.77,1.56,-44.007999999999996,-99.293,-39.0424,175,75
2026-05-09 16:04:46.461,4,0.37,0.83,1.5,-40.718,-76.553,-41.5424,175,75
2026-05-09 16:04:46.474,4,0.29,0.84,1.47,-32.788,-48.443000000000005,-39.3424,175,75
2026-05-09 16:04:46.492,4,0.14,0.79,1.52,-24.988,-22.773000000000003,-37.3924,175,75
2026-05-09 16:04:46.505,4,0.05,0.72,1.64,-23.948,0.3369999999999962,-42.5724,175,75
2026-05-09 16:04:46.516,4,0.19,0.68,1.73,-29.988,13.626999999999995,-51.1124,175,75
2026-05-09 16:04:46.527,4,0.39,0.7,1.77,-36.878,7.716999999999999,-57.5724,175,75
2026-05-09 16:04:46.538,4,0.46,0.76,1.79,-42.178,-6.983000000000004,-61.842400000000005,175,75
2026-05-09 16:04:46.590,4,0.43,0.92,2.04,-44.198,45.946999999999996,-70.0124,175,75
2026-05-09 16:04:46.614,4,0.25,1.48,2.42,0.26200000000000045,-72.833,-119.0424,175,75
2026-05-09 16:04:46.624,4,-0.19,2.25,2.37,7.152000000000001,-155.393,-134.1624,175,75
2026-05-09 16:04:46.659,4,0.06,2.82,1.92,-20.838,-166.613,-88.24239999999999,175,75
2026-05-09 16:04:46.705,4,-0.04,1.5,1.72,-37.367999999999995,-109.173,-14.102400000000001,175,75
2026-05-09 16:04:46.715,4,0.05,1.12,1.55,-45.048,-24.053000000000004,9.0676,175,75
2026-05-09 16:04:46.737,4,0.68,0.52,1.92,-39.378,26.497,19.5576,175,75
2026-05-09 16:04:46.748,4,0.7,0.37,2.01,-41.208,-30.573000000000004,-1.5424000000000007,175,75
2026-05-09 16:04:46.811,4,0.7,0.54,1.62,-22.548000000000002,-23.803000000000004,-44.772400000000005,175,75
2026-05-09 16:04:46.811,4,0.66,0.68,1.71,-10.108,2.1069999999999993,-43.8524,175,75
2026-05-09 16:04:46.821,4,0.56,1.01,2.0,-7.848,-37.343,-64.7724,175,75
2026-05-09 16:04:46.834,4,0.56,1.2,1.78,-26.758,-83.013,-85.13239999999999,175,75
2026-05-09 16:04:46.845,4,0.58,1.37,1.5,-44.988,-82.523,-92.1524,175,75
2026-05-09 16:04:46.852,4,0.45,1.48,1.27,-46.878,-25.763000000000005,-75.9924,175,75
2026-05-09 16:04:46.896,4,0.68,1.9,2.11,-90.77799999999999,37.477,-34.1624,175,75
2026-05-09 16:04:46.907,4,0.99,1.92,2.04,-100.658,29.056999999999995,-36.1724,175,75
2026-05-09 16:04:46.944,4,0.77,1.48,2.57,-56.328,129.05700000000002,-43.8524,175,75
2026-05-09 16:04:46.954,4,0.6,1.74,2.88,-63.708,86.49699999999999,-47.6924,175,75
2026-05-09 16:04:46.954,4,0.47,1.98,3.02,-70.418,4.6669999999999945,-47.3924,175,75
2026-05-09 16:04:46.976,4,0.45,1.59,2.57,-75.598,-145.333,-30.742400000000004,175,75
2026-05-09 16:04:46.987,4,0.52,1.29,2.33,-65.108,-128.383,-21.9024,175,75
2026-05-09 16:04:46.997,4,0.55,1.13,2.18,-54.617999999999995,-109.78300000000002,-19.1624,175,75
2026-05-09 16:04:47.014,4,0.22,1.12,2.02,-36.638,-86.613,-6.0524000000000004,175,75
2026-05-09 16:04:47.038,4,0.16,1.09,1.97,-31.508,-67.953,4.3176000000000005,175,75
2026-05-09 16:04:47.052,4,0.23,0.84,1.91,-35.477999999999994,-38.383,7.057599999999999,175,75
2026-05-09 16:04:47.064,4,0.31,0.77,1.92,-38.588,-29.543000000000003,0.8975999999999988,175,75
2026-05-09 16:04:47.088,4,0.31,0.63,1.86,-28.218,-61.793000000000006,-18.6124,175,75
2026-05-09 16:04:47.099,4,0.21,0.59,1.8,-24.558,-71.18299999999999,-25.1324,175,75
2026-05-09 16:04:47.109,4,0.13,0.59,1.74,-23.458,-71.003,-31.602400000000003,175,75
2026-05-09 16:04:47.119,4,0.06,0.64,1.72,-25.478,-63.623000000000005,-38.9724,175,75
2026-05-09 16:04:47.146,4,0.07,0.76,1.74,-26.817999999999998,-69.783,-54.5824,175,75
2026-05-09 16:04:47.158,4,0.11,0.78,1.72,-27.427999999999997,-80.94300000000001,-60.802400000000006,175,75
2026-05-09 16:04:47.168,4,0.12,0.8,1.69,-27.548000000000002,-92.283,-67.2724,175,75
2026-05-09 16:04:47.185,4,0.14,0.91,1.71,-31.448,-91.123,-71.1124,175,75
2026-05-09 16:04:47.198,4,0.15,1.01,1.74,-34.378,-83.743,-70.8624,175,75
2026-05-09 16:04:47.211,4,0.26,1.04,1.79,-33.888,-76.063,-72.5724,175,75
2026-05-09 16:04:47.220,4,0.44,0.98,1.81,-29.068,-62.953,-71.9624,175,75
2026-05-09 16:04:47.232,4,0.72,0.84,1.81,-20.658,-43.68300000000001,-68.6124,175,75
2026-05-09 16:04:47.245,4,0.89,0.77,1.85,-12.427999999999999,-40.763000000000005,-71.3524,175,75
2026-05-09 16:04:47.258,4,0.86,0.95,2.0,-2.6679999999999993,-67.833,-87.2124,175,75
2026-05-09 16:04:47.269,4,0.54,1.45,2.2,-1.3279999999999994,-104.78300000000002,-102.69239999999999,175,75
2026-05-09 16:04:47.269,4,0.17,2.24,2.37,-4.437999999999999,-136.613,-112.63239999999999,175,75
2026-05-09 16:04:47.292,4,0.71,2.92,1.87,-26.567999999999998,-152.773,-82.3924,175,75
2026-05-09 16:04:47.304,4,0.65,2.61,1.45,0.19200000000000017,-154.053,-59.4024,175,75
2026-05-09 16:04:47.316,4,0.15,2.79,1.57,4.582000000000001,-129.843,-55.0724,175,75
2026-05-09 16:04:47.346,4,1.02,2.57,1.49,-34.068,135.887,48.337599999999995,175,75
2026-05-09 16:04:47.369,4,1.27,1.56,1.85,-33.038,193.627,45.8976,175,75
2026-05-09 16:04:47.382,4,1.26,1.32,2.15,-51.028000000000006,202.477,27.4876,175,75
2026-05-09 16:04:47.406,4,0.68,1.19,2.43,-40.658,85.33699999999999,-18.7924,175,75
2026-05-09 16:04:47.416,4,0.54,1.13,2.46,-33.397999999999996,65.037,-21.8424,175,75
2026-05-09 16:04:47.427,4,0.58,1.03,2.46,-36.147999999999996,52.957,-28.062400000000004,175,75
2026-05-09 16:04:47.439,4,0.64,0.94,2.34,-41.757999999999996,7.476999999999997,-36.1724,175,75
2026-05-09 16:04:47.463,4,0.36,0.98,2.15,-38.708,-46.853,-40.7424,175,75
2026-05-09 16:04:47.463,4,0.31,1.14,2.12,-49.988,-44.483000000000004,-43.0024,175,75
2026-05-09 16:04:47.476,4,0.35,1.31,2.08,-64.988,-41.853,-43.9124,175,75
2026-05-09 16:04:47.501,4,0.21,0.97,1.85,-53.397999999999996,-28.933000000000003,-20.4424,175,75
2026-05-09 16:04:47.513,4,0.17,0.88,1.87,-56.69799999999999,-20.633000000000003,-17.392400000000002,175,75
2026-05-09 16:04:47.555,4,0.15,0.88,1.9,-55.418000000000006,-25.883000000000003,-17.1524,175,75
2026-05-09 16:04:47.568,4,0.15,0.9,1.92,-52.117999999999995,-29.483000000000004,-18.4924,175,75
2026-05-09 16:04:47.592,4,0.35,0.93,1.97,-54.55799999999999,-8.133000000000003,-20.6224,175,75
2026-05-09 16:04:47.602,4,0.45,0.87,2.0,-47.977999999999994,-10.633000000000003,-21.962400000000002,175,75
2026-05-09 16:04:47.602,4,0.44,0.76,2.05,-36.448,-29.963000000000005,-26.1124,175,75
2026-05-09 16:04:47.615,4,0.34,0.65,2.05,-28.528,-46.853,-34.952400000000004,175,75
2026-05-09 16:04:47.624,4,0.23,0.52,2.02,-21.088,-60.763000000000005,-50.3224,175,75
2026-05-09 16:04:47.633,4,0.21,0.5,1.97,-15.597999999999999,-71.493,-60.132400000000004,175,75
2026-05-09 16:04:47.657,4,0.24,0.68,1.9,-8.527999999999999,-71.673,-72.08239999999999,175,75
2026-05-09 16:04:47.677,4,0.39,0.84,1.92,-11.027999999999999,-46.493,-70.44239999999999,175,75
2026-05-09 16:04:47.705,4,0.41,1.04,2.06,-8.398,-14.173000000000002,-67.4524,175,75
2026-05-09 16:04:47.705,4,0.33,1.22,2.19,-8.158,-16.673000000000002,-72.3924,175,75
2026-05-09 16:04:47.720,4,0.04,1.96,2.39,-9.437999999999999,-64.723,-86.60239999999999,175,75
2026-05-09 16:04:47.731,4,0.01,2.41,2.34,-12.238,-102.833,-88.7324,175,75
2026-05-09 16:04:47.741,4,0.16,2.53,2.05,-15.228,-132.343,-73.4324,175,75
2026-05-09 16:04:47.753,4,0.2,2.2,1.68,-5.228,-111.43299999999999,-43.7324,175,75
2026-05-09 16:04:47.764,4,0.11,1.95,1.54,4.772000000000002,-50.213,-21.6624,175,75
2026-05-09 16:04:47.777,4,0.04,1.91,1.6,-2.427999999999999,25.156999999999996,-4.892400000000001,175,75
2026-05-09 16:04:47.777,4,0.11,2.03,1.75,-21.997999999999998,92.34700000000001,6.2676,175,75
2026-05-09 16:04:47.788,4,0.35,2.16,1.95,-32.848,105.827,13.707599999999998,175,75
2026-05-09 16:04:47.809,4,0.21,1.89,2.13,-40.838,-23.193000000000005,7.057599999999999,175,75
2026-05-09 16:04:47.809,4,0.07,1.66,2.03,-50.348,-49.113,0.4775999999999989,175,75
2026-05-09 16:04:47.820,4,0.06,1.41,1.91,-58.458,-43.68300000000001,-1.4724000000000004,175,75
2026-05-09 16:04:47.832,4,0.17,1.17,1.82,-59.867999999999995,-13.623000000000005,5.717599999999999,175,75
2026-05-09 16:04:47.845,4,0.41,0.85,1.83,-50.477999999999994,22.717,11.8176,175,75
2026-05-09 16:04:47.859,4,0.72,0.48,2.02,-38.218,16.196999999999996,5.717599999999999,175,75
2026-05-09 16:04:47.872,4,0.74,0.25,2.14,-28.278,-30.093000000000004,-9.772400000000001,175,75
2026-05-09 16:04:47.872,4,0.61,0.15,2.14,-21.637999999999998,-66.003,-31.352400000000003,175,75
2026-05-09 16:04:47.893,4,0.54,0.18,2.07,-22.488,-74.66300000000001,-52.632400000000004,175,75
2026-05-09 16:04:47.908,4,0.63,0.34,2.01,-28.338,-67.16300000000001,-67.5724,175,75
2026-05-09 16:04:47.936,4,0.7,1.18,2.12,-18.278,-46.373000000000005,-79.83239999999999,175,75
2026-05-09 16:04:47.942,4,0.74,1.29,2.13,-13.398,-41.613,-81.1724,175,75
2026-05-09 16:04:47.953,4,0.73,1.5,2.14,-11.208,-31.373000000000005,-85.0124,175,75
2026-05-09 16:04:47.969,4,0.74,1.69,2.11,-6.148,-25.453000000000003,-84.2824,175,75
2026-05-09 16:04:47.982,4,0.91,1.21,1.88,24.282,2.2269999999999968,-54.7124,175,75
2026-05-09 16:04:47.995,4,0.86,1.08,1.94,28.122000000000003,21.067,-43.3024,175,75
2026-05-09 16:04:48.011,4,0.79,1.35,2.22,-1.8780000000000001,36.127,-50.2524,175,75
2026-05-09 16:04:48.025,4,1.09,1.79,2.41,-42.058,44.306999999999995,-54.8324,175,75
2026-05-09 16:04:48.038,4,1.24,1.83,2.33,-46.878,22.226999999999997,-57.2124,175,75
2026-05-09 16:04:48.050,4,0.89,1.63,2.24,-34.738,9.846999999999994,-62.1524,175,75
2026-05-09 16:04:48.060,4,0.57,1.67,2.31,-40.348,16.497,-66.6624,175,75
2026-05-09 16:04:48.071,4,0.35,1.83,2.38,-50.897999999999996,9.116999999999997,-63.9724,175,75
2026-05-09 16:04:48.082,4,0.23,1.85,2.39,-50.418000000000006,-18.133000000000003,-52.8224,175,75
2026-05-09 16:04:48.093,4,0.16,1.57,2.34,-48.158,-50.213,-37.8224,175,75
2026-05-09 16:04:48.132,4,0.06,1.26,2.29,-51.69799999999999,-88.013,-27.1524,175,75
