Time,ID,Ax,Ay,Az,Gx,Gy,Gz,Height,Weight
2026-05-09 14:57:30.717,4,-0.36,-1.07,-0.57,-251.8724,513.6125999999999,-230.06879999999998,175,75
2026-05-09 14:57:30.857,4,-0.3,0.28,0.82,-78.6424,272.6326,-66.77879999999999,175,75
2026-05-09 14:57:30.958,4,-0.5,0.11,1.39,10.317599999999999,88.61260000000001,-81.10879999999999,175,75
2026-05-09 14:57:30.958,4,-0.49,0.07,1.44,17.147599999999997,56.5326,-87.9388,175,75
2026-05-09 14:57:31.008,4,-0.62,0.15,1.44,18.427599999999998,12.142600000000002,-73.9088,175,75
2026-05-09 14:57:31.255,4,-0.36,-0.77,1.92,233.6776,-88.4074,313.0412,175,75
2026-05-09 14:57:31.389,4,0.06,-0.18,1.28,86.8476,-129.0774,261.4612,175,75
2026-05-09 14:57:31.427,4,0.03,-0.02,1.79,7.637599999999999,16.292600000000007,281.5212,175,75
2026-05-09 14:57:31.428,4,-0.01,-0.17,2.07,5.4975999999999985,44.1626,268.5312,175,75
2026-05-09 14:57:31.453,4,-0.02,-0.34,2.4,18.3676,-4.807400000000001,227.8612,175,75
2026-05-09 14:57:31.567,4,-0.18,0.25,1.97,11.177599999999998,-72.42739999999999,169.5012,175,75
2026-05-09 14:57:31.570,4,-0.21,0.31,1.99,10.377599999999997,-55.77739999999999,173.0412,175,75
2026-05-09 14:57:31.662,4,-0.16,0.31,2.2,-5.962400000000002,-49.377399999999994,150.2412,175,75
2026-05-09 14:57:31.689,4,-0.13,0.31,2.22,-8.702400000000004,-25.967399999999998,138.1612,175,75
2026-05-09 14:57:31.752,4,-0.15,0.42,2.13,-14.252400000000002,-52.797399999999996,121.2112,175,75
2026-05-09 14:57:31.758,4,-0.18,0.44,2.08,-15.712400000000002,-51.5774,119.3812,175,75
2026-05-09 14:57:31.771,4,-0.17,0.47,2.03,-18.1524,-34.13739999999999,122.55120000000001,175,75
2026-05-09 14:57:31.826,4,-0.17,0.45,2.27,-23.032400000000003,-29.557399999999994,107.3712,175,75
2026-05-09 14:57:31.838,4,-0.21,0.52,2.2,-24.9824,-43.70739999999999,102.25120000000001,175,75
2026-05-09 14:57:31.850,4,-0.21,0.52,2.14,-24.8024,-40.1674,102.80120000000001,175,75
2026-05-09 14:57:31.926,4,-0.2,0.53,2.25,-28.4024,-40.4174,87.61120000000001,175,75
2026-05-09 14:57:31.983,4,-0.22,0.49,2.19,-36.632400000000004,-25.047399999999996,77.86120000000001,175,75
2026-05-09 14:57:32.006,4,-0.3,0.54,2.16,-39.0724,-25.597399999999993,77.3112,175,75
2026-05-09 14:57:32.018,4,-0.23,0.49,2.15,-42.672399999999996,-28.097399999999993,75.4212,175,75
2026-05-09 14:57:32.032,4,-0.23,0.48,2.12,-44.922399999999996,-30.047399999999996,72.55120000000001,175,75
2026-05-09 14:57:32.051,4,-0.26,0.49,2.14,-43.4624,-12.607399999999998,72.6712,175,75
2026-05-09 14:57:32.062,4,-0.26,0.48,2.19,-44.0724,-7.857399999999998,71.58120000000001,175,75
2026-05-09 14:57:32.090,4,-0.27,0.55,2.24,-46.022400000000005,-31.877399999999994,64.2012,175,75
2026-05-09 14:57:32.090,4,-0.29,0.55,2.18,-48.0924,-33.767399999999995,63.8912,175,75
2026-05-09 14:57:32.110,4,-0.28,0.52,2.15,-47.672399999999996,-23.707399999999993,65.1112,175,75
2026-05-09 14:57:32.122,4,-0.26,0.47,2.16,-47.672399999999996,-14.687399999999997,63.5312,175,75
2026-05-09 14:57:32.132,4,-0.22,0.48,2.18,-49.502399999999994,-17.127399999999994,59.5012,175,75
2026-05-09 14:57:32.155,4,-0.28,0.56,2.18,-49.4324,-13.707399999999993,59.081199999999995,175,75
2026-05-09 14:57:32.198,4,-0.23,0.53,2.2,-48.58240000000001,-5.717399999999998,60.4212,175,75
2026-05-09 14:57:32.248,4,-0.23,0.45,2.17,-49.132400000000004,-23.277399999999993,41.0912,175,75
2026-05-09 14:57:32.248,4,-0.26,0.49,2.18,-49.502399999999994,-20.477399999999996,39.8712,175,75
2026-05-09 14:57:32.258,4,-0.23,0.53,2.16,-51.392399999999995,-14.497399999999999,38.3512,175,75
2026-05-09 14:57:32.269,4,-0.2,0.53,2.14,-52.61240000000001,-9.687399999999997,35.6012,175,75
2026-05-09 14:57:32.284,4,-0.21,0.51,2.13,-52.4824,-5.237399999999994,33.4112,175,75
2026-05-09 14:57:32.294,4,-0.24,0.45,2.17,-51.752399999999994,0.07260000000000844,30.6012,175,75
2026-05-09 14:57:32.294,4,-0.23,0.44,2.22,-51.5124,-2.6073999999999984,26.331200000000003,175,75
2026-05-09 14:57:32.309,4,-0.22,0.43,2.23,-53.58240000000001,-16.517399999999995,18.1012,175,75
2026-05-09 14:57:32.322,4,-0.25,0.48,2.13,-55.72240000000001,-24.987399999999994,7.491200000000001,175,75
2026-05-09 14:57:32.332,4,-0.27,0.46,2.1,-54.9824,-18.527399999999993,5.1112,175,75
2026-05-09 14:57:32.355,4,-0.27,0.47,2.14,-55.72240000000001,-5.417400000000001,0.42120000000000024,175,75
2026-05-09 14:57:32.368,4,-0.3,0.45,2.16,-56.2624,-5.237399999999994,-2.0787999999999993,175,75
2026-05-09 14:57:32.398,4,-0.3,0.37,2.18,-55.11240000000001,-13.157399999999996,-9.3988,175,75
2026-05-09 14:57:32.428,4,-0.3,0.36,2.16,-56.752399999999994,-23.527399999999993,-16.348799999999997,175,75
2026-05-09 14:57:32.434,4,-0.33,0.4,2.11,-58.642399999999995,-27.307399999999994,-19.888799999999996,175,75
2026-05-09 14:57:32.449,4,-0.4,0.38,2.07,-55.47240000000001,-5.357399999999998,-17.2588,175,75
2026-05-09 14:57:32.449,4,-0.39,0.34,2.15,-53.032399999999996,1.6625999999999976,-18.058799999999998,175,75
2026-05-09 14:57:32.464,4,-0.35,0.33,2.17,-53.032399999999996,-10.537399999999998,-24.458799999999997,175,75
2026-05-09 14:57:32.538,4,-0.54,0.32,2.11,-53.4624,0.3726000000000056,-32.1388,175,75
2026-05-09 14:57:32.641,4,-0.57,0.23,2.05,-44.0724,-13.157399999999996,-28.608800000000002,175,75
2026-05-09 14:57:32.696,4,-0.57,0.24,2.04,-43.58240000000001,-6.087400000000002,-24.458799999999997,175,75
2026-05-09 14:57:32.727,4,-0.51,0.19,2.12,-37.36240000000001,-5.047399999999996,-14.888799999999998,175,75
2026-05-09 14:57:32.738,4,-0.51,0.16,2.1,-36.692400000000006,-7.547399999999996,-15.248800000000001,175,75
2026-05-09 14:57:32.748,4,-0.5,0.15,2.08,-36.8724,-6.517399999999995,-16.528799999999997,175,75
2026-05-09 14:57:32.760,4,-0.48,0.14,2.06,-37.36240000000001,-6.447400000000002,-18.4788,175,75
2026-05-09 14:57:32.791,4,-0.52,0.19,2.05,-34.86240000000001,-8.587399999999995,-17.998800000000003,175,75
2026-05-09 14:57:32.807,4,-0.43,0.18,2.04,-31.202400000000004,-4.807400000000001,-16.4688,175,75
2026-05-09 14:57:32.837,4,-0.4,0.1,1.98,-32.6724,1.0525999999999982,-21.8988,175,75
2026-05-09 14:57:32.849,4,-0.36,0.09,1.96,-37.002399999999994,7.752600000000001,-28.2988,175,75
2026-05-09 14:57:32.859,4,-0.37,0.13,1.97,-46.022400000000005,3.002600000000001,-44.5788,175,75
2026-05-09 14:57:32.876,4,-0.3,0.25,2.0,-36.2624,-19.137399999999992,-39.5788,175,75
2026-05-09 14:57:32.892,4,-0.28,0.15,1.95,-34.4324,-10.297399999999996,-42.8088,175,75
2026-05-09 14:57:32.951,4,-0.26,0.13,1.76,-43.7024,16.7226,-58.9688,175,75
2026-05-09 14:57:32.967,4,-0.29,0.11,1.78,-43.7024,36.1726,-58.2988,175,75
2026-05-09 14:57:32.995,4,-0.28,0.11,1.86,-43.1524,45.74260000000001,-58.7288,175,75
2026-05-09 14:57:33.006,4,-0.28,0.12,2.0,-43.7624,8.062600000000003,-72.8688,175,75
2026-05-09 14:57:33.036,4,-0.19,0.06,1.86,-49.6824,-19.317399999999992,-90.4388,175,75
2026-05-09 14:57:33.036,4,-0.15,0.01,1.78,-51.692400000000006,-16.637399999999992,-97.19879999999999,175,75
2026-05-09 14:57:33.059,4,-0.11,-0.05,1.68,-60.2924,-6.6373999999999995,-112.5088,175,75
2026-05-09 14:57:33.071,4,-0.09,-0.07,1.69,-71.2024,8.062600000000003,-127.1388,175,75
2026-05-09 14:57:33.082,4,-0.06,-0.09,1.68,-74.9824,4.702600000000004,-134.7588,175,75
2026-05-09 14:57:33.116,4,-0.06,-0.1,1.68,-78.4624,1.7226,-141.03879999999998,175,75
2026-05-09 14:57:33.164,4,-0.07,-0.09,1.68,-82.36240000000001,2.9425999999999988,-145.5588,175,75
2026-05-09 14:57:33.208,4,-0.02,-0.1,1.67,-90.1724,4.2226,-156.7788,175,75
2026-05-09 14:57:33.252,4,-0.09,-0.09,1.61,-99.7424,-0.7774000000000001,-164.6988,175,75
2026-05-09 14:57:33.301,4,-0.12,-0.12,1.61,-107.3024,117.14260000000002,-118.5388,175,75
2026-05-09 14:57:33.312,4,-0.11,-0.12,1.65,-102.73240000000001,124.2826,-110.1888,175,75
2026-05-09 14:57:33.312,4,-0.15,-0.13,1.64,-98.1524,117.14260000000002,-107.38879999999999,175,75
2026-05-09 14:57:33.332,4,-0.3,-0.13,1.8,-80.72240000000001,110.3726,-91.0388,175,75
2026-05-09 14:57:33.379,4,-0.07,-0.23,1.71,-71.2024,57.1426,-103.72879999999999,175,75
2026-05-09 14:57:33.379,4,0.07,-0.2,1.72,-67.97240000000001,67.7526,-85.91879999999999,175,75
2026-05-09 14:57:33.391,4,-0.24,-0.24,1.86,-41.3224,138.2426,-68.96879999999999,175,75
2026-05-09 14:57:33.391,4,0.02,-0.37,1.99,-24.562400000000004,155.2526,-46.7188,175,75
2026-05-09 14:57:33.411,4,0.15,-0.85,2.32,19.9576,102.33260000000001,-59.6988,175,75
2026-05-09 14:57:33.411,4,0.17,-0.61,1.79,-13.1524,-55.417399999999994,-94.63879999999999,175,75
2026-05-09 14:57:33.436,4,0.0,0.2,0.86,-43.7024,-4.557400000000001,-62.748799999999996,175,75
2026-05-09 14:57:33.436,4,0.05,0.09,0.97,-32.7924,81.5926,-24.3388,175,75
2026-05-09 14:57:33.457,4,0.16,-0.23,1.88,-15.112400000000001,106.5326,1.1512000000000002,175,75
2026-05-09 14:57:33.477,4,0.16,-0.22,2.05,-20.1124,23.732600000000005,-22.0788,175,75
2026-05-09 14:57:33.506,4,0.06,0.06,1.62,-17.3624,-66.6374,-49.1488,175,75
2026-05-09 14:57:33.506,4,0.08,0.14,1.42,-15.352400000000003,-70.2974,-45.6188,175,75
2026-05-09 14:57:33.513,4,0.09,0.17,1.28,-13.212400000000002,-53.947399999999995,-34.2188,175,75
2026-05-09 14:57:33.541,4,0.16,0.12,1.34,-0.8424000000000014,17.7526,0.05120000000000058,175,75
2026-05-09 14:57:33.552,4,0.22,0.06,1.53,4.8276,25.07260000000001,4.8112,175,75
2026-05-09 14:57:33.563,4,0.28,-0.02,1.71,12.087599999999998,-1.7573999999999899,-4.088799999999999,175,75
2026-05-09 14:57:33.587,4,0.29,-0.01,1.43,22.937599999999996,-43.8274,-24.458799999999997,175,75
2026-05-09 14:57:33.627,4,0.34,0.04,1.59,31.4776,-8.277399999999993,-14.3988,175,75
2026-05-09 14:57:33.641,4,0.32,0.03,1.64,31.107599999999998,-16.447399999999995,-19.7588,175,75
2026-05-09 14:57:33.691,4,0.23,0.16,1.63,34.8876,-28.337399999999995,-32.6888,175,75
2026-05-09 14:57:33.727,4,0.16,0.22,1.65,31.5976,-10.907399999999996,-28.2988,175,75
2026-05-09 14:57:33.751,4,0.16,0.23,1.69,30.627599999999997,-8.337399999999995,-25.9788,175,75
2026-05-09 14:57:33.777,4,0.2,0.19,1.71,29.9576,-14.987399999999994,-22.998800000000003,175,75
2026-05-09 14:57:33.808,4,0.2,0.21,1.68,24.8876,-18.467399999999998,-20.738799999999998,175,75
2026-05-09 14:57:33.889,4,0.35,0.19,1.66,11.787599999999998,-9.197399999999995,-14.6988,175,75
2026-05-09 14:57:33.889,4,0.34,0.19,1.64,7.7576,-6.997399999999999,-14.3388,175,75
2026-05-09 14:57:33.900,4,0.28,0.2,1.64,2.637599999999999,0.502600000000001,-10.188799999999999,175,75
2026-05-09 14:57:33.910,4,0.23,0.16,1.65,-5.232399999999998,7.812600000000003,-5.498799999999999,175,75
2026-05-09 14:57:33.933,4,0.19,0.11,1.64,-9.252400000000002,7.942599999999999,-0.8587999999999996,175,75
2026-05-09 14:57:33.933,4,0.16,0.11,1.65,-12.672400000000003,6.782600000000002,-0.6187999999999994,175,75
2026-05-09 14:57:33.969,4,0.1,0.15,1.67,-17.4824,2.0825999999999993,-0.30879999999999974,175,75
2026-05-09 14:57:33.969,4,0.05,0.19,1.69,-19.6824,2.8126000000000033,2.5512000000000006,175,75
2026-05-09 14:57:33.978,4,0.0,0.21,1.69,-21.9324,5.802599999999998,6.4612,175,75
2026-05-09 14:57:34.027,4,-0.0,0.2,1.7,-23.342399999999998,5.922600000000003,9.6312,175,75
2026-05-09 14:57:34.083,4,0.1,0.16,1.67,-19.4324,0.8626000000000005,17.3712,175,75
2026-05-09 14:57:34.135,4,0.16,0.08,1.72,-14.252400000000002,-9.257399999999997,14.5012,175,75
2026-05-09 14:57:34.157,4,0.09,0.12,1.68,-6.202400000000004,-11.697399999999995,17.1312,175,75
2026-05-09 14:57:34.164,4,0.08,0.06,1.66,-5.172400000000003,-7.797399999999996,19.441200000000002,175,75
2026-05-09 14:57:34.181,4,0.1,0.01,1.64,-6.932400000000001,-8.587399999999995,18.5912,175,75
2026-05-09 14:57:34.203,4,0.24,0.15,1.75,-1.2024000000000044,-18.037399999999998,9.321200000000001,175,75
2026-05-09 14:57:34.221,4,0.17,0.17,1.67,-4.562400000000004,-17.187399999999997,-1.3487999999999998,175,75
2026-05-09 14:57:34.269,4,0.11,0.14,1.67,-4.862400000000001,-7.6673999999999936,-2.0187999999999997,175,75
2026-05-09 14:57:34.312,4,0.12,0.13,1.67,-5.292400000000001,-4.927399999999992,-2.1388,175,75
2026-05-09 14:57:34.315,4,0.13,0.1,1.69,-4.7424000000000035,-4.077399999999997,-2.8087999999999997,175,75
2026-05-09 14:57:34.332,4,0.13,0.07,1.72,-4.5024000000000015,-4.377399999999994,-4.088799999999999,175,75
2026-05-09 14:57:34.332,4,0.14,0.06,1.73,-4.5024000000000015,-7.127399999999994,-7.078799999999999,175,75
2026-05-09 14:57:34.355,4,0.11,0.09,1.64,-6.572400000000002,-10.477399999999996,-9.6988,175,75
2026-05-09 14:57:34.355,4,0.11,0.09,1.67,-4.682400000000001,-9.687399999999997,-8.0588,175,75
2026-05-09 14:57:34.376,4,0.09,0.09,1.7,-4.432400000000001,-10.657399999999996,-8.6088,175,75
2026-05-09 14:57:34.376,4,0.1,0.09,1.71,-5.412399999999998,-12.247399999999999,-10.4988,175,75
2026-05-09 14:57:34.394,4,0.12,0.08,1.68,-5.4724,-16.877399999999994,-12.568800000000001,175,75
2026-05-09 14:57:34.394,4,0.12,0.1,1.65,-6.022400000000005,-16.027399999999993,-12.8088,175,75
2026-05-09 14:57:34.406,4,0.13,0.12,1.64,-5.4724,-13.097399999999993,-11.1688,175,75
2026-05-09 14:57:34.418,4,0.12,0.13,1.69,-3.342399999999998,-8.707399999999993,-7.8688,175,75
2026-05-09 14:57:34.431,4,0.12,0.11,1.7,-3.4024,-9.317399999999992,-8.3588,175,75
2026-05-09 14:57:34.437,4,0.12,0.09,1.69,-4.132400000000004,-10.297399999999996,-9.1488,175,75
2026-05-09 14:57:34.440,4,0.13,0.08,1.67,-4.432400000000001,-10.167399999999994,-9.2788,175,75
2026-05-09 14:57:34.458,4,0.12,0.09,1.68,-3.7024000000000044,-9.497399999999999,-8.4188,175,75
2026-05-09 14:57:34.480,4,0.1,0.11,1.72,-2.3023999999999987,-9.807399999999994,-7.1388,175,75
2026-05-09 14:57:34.563,4,0.09,0.09,1.67,-4.0123999999999995,-12.487399999999994,-5.498799999999999,175,75
2026-05-09 14:57:34.613,4,0.09,0.09,1.7,-2.422400000000003,-7.607399999999998,-2.4487999999999994,175,75
2026-05-09 14:57:34.613,4,0.09,0.09,1.72,-1.8124000000000038,-8.767399999999995,-2.4487999999999994,175,75
2026-05-09 14:57:34.690,4,0.09,0.09,1.74,-2.2424000000000035,-11.697399999999995,-3.4787999999999997,175,75
2026-05-09 14:57:34.690,4,0.1,0.1,1.73,-3.092399999999998,-14.017399999999995,-4.4588,175,75
2026-05-09 14:57:34.693,4,0.1,0.11,1.7,-2.1824000000000012,-13.947399999999995,-4.338799999999999,175,75
2026-05-09 14:57:34.707,4,0.11,0.11,1.7,-1.8124000000000038,-9.987399999999994,-3.2387999999999995,175,75
2026-05-09 14:57:34.731,4,0.09,0.12,1.67,-5.412399999999998,-10.417399999999994,-6.4688,175,75
2026-05-09 14:57:34.742,4,0.09,0.12,1.73,-6.392400000000002,-5.7774,-6.8988,175,75
2026-05-09 14:57:34.752,4,0.08,0.08,1.73,-7.732399999999998,-11.147399999999998,-6.588799999999999,175,75
2026-05-09 14:57:34.773,4,0.14,0.08,1.69,-5.042400000000001,-0.7173999999999978,-1.9587999999999992,175,75
2026-05-09 14:57:34.791,4,0.02,0.05,1.76,-3.892400000000002,-4.627399999999994,-1.4087999999999994,175,75
2026-05-09 14:57:34.802,4,0.01,0.05,1.77,-5.172400000000003,-10.047399999999996,-3.5387999999999993,175,75
2026-05-09 14:57:34.815,4,0.02,0.08,1.75,-5.712400000000002,-13.527399999999993,-4.2788,175,75
2026-05-09 14:57:34.912,4,0.06,0.13,1.76,-6.0824,-9.497399999999999,1.5212000000000003,175,75
2026-05-09 14:57:34.913,4,0.07,0.12,1.75,-7.2424000000000035,-10.047399999999996,-1.0387999999999993,175,75
2026-05-09 14:57:34.934,4,0.12,0.12,1.74,-7.792400000000001,-8.217399999999998,-2.6288,175,75
2026-05-09 14:57:34.947,4,0.05,0.09,1.74,-7.792400000000001,-3.8273999999999972,-1.6487999999999996,175,75
2026-05-09 14:57:34.958,4,0.04,0.08,1.73,-8.5824,-5.237399999999994,-2.3888,175,75
2026-05-09 14:57:34.958,4,0.03,0.07,1.73,-9.682400000000001,-5.717399999999998,-2.5687999999999995,175,75
2026-05-09 14:57:34.975,4,0.04,0.09,1.73,-11.932400000000001,-9.317399999999992,-4.3988,175,75
2026-05-09 14:57:34.988,4,0.05,0.1,1.72,-10.962400000000002,-7.607399999999998,-3.5387999999999993,175,75
2026-05-09 14:57:34.998,4,0.04,0.1,1.74,-9.742400000000004,-9.687399999999997,-2.0187999999999997,175,75
2026-05-09 14:57:35.010,4,-0.02,0.11,1.74,-9.802399999999999,-6.3873999999999995,-0.30879999999999974,175,75
2026-05-09 14:57:35.033,4,0.03,0.06,1.77,-11.022400000000005,-9.197399999999995,-2.6288,175,75
2026-05-09 14:57:35.084,4,0.01,0.08,1.76,-8.642400000000002,4.282600000000002,-1.2887999999999993,175,75
2026-05-09 14:57:35.084,4,0.04,0.06,1.75,-8.032400000000003,8.002600000000001,-1.7787999999999995,175,75
2026-05-09 14:57:35.097,4,0.02,0.08,1.74,-9.132400000000004,15.012600000000006,-2.5687999999999995,175,75
2026-05-09 14:57:35.120,4,0.05,0.09,1.74,-9.312400000000004,15.442599999999999,-3.1187999999999994,175,75
2026-05-09 14:57:35.148,4,0.04,0.07,1.76,-10.962400000000002,16.902600000000007,-2.9987999999999992,175,75
2026-05-09 14:57:35.170,4,-0.01,0.1,1.85,-9.252400000000002,19.6426,0.05120000000000058,175,75
2026-05-09 14:57:35.184,4,-0.07,0.06,1.88,-8.7624,13.422600000000003,1.3312000000000004,175,75
2026-05-09 14:57:35.184,4,-0.09,0.04,1.92,-7.9724,12.262600000000006,3.2212000000000005,175,75
2026-05-09 14:57:35.203,4,-0.12,0.04,1.94,-4.072400000000002,11.592600000000004,5.1112,175,75
2026-05-09 14:57:35.215,4,-0.14,0.05,1.98,0.31759999999999877,9.162599999999998,6.9412,175,75
2026-05-09 14:57:35.215,4,-0.17,0.07,2.01,4.467599999999997,4.402600000000007,10.301200000000001,175,75
2026-05-09 14:57:35.240,4,-0.21,0.08,2.06,10.927599999999998,-5.047399999999996,14.6912,175,75
2026-05-09 14:57:35.251,4,-0.26,0.11,2.1,19.4076,-9.807399999999994,21.0312,175,75
2026-05-09 14:57:35.266,4,-0.25,0.14,2.12,32.2676,-10.357399999999998,28.831200000000003,175,75
2026-05-09 14:57:35.297,4,-0.25,0.12,2.17,49.9576,-14.137399999999992,37.6712,175,75
2026-05-09 14:57:35.309,4,-0.22,0.08,2.15,54.827600000000004,-19.7474,37.4912,175,75
2026-05-09 14:57:35.334,4,-0.03,0.05,2.0,73.1276,-25.047399999999996,36.7012,175,75
2026-05-09 14:57:35.344,4,0.05,0.03,2.01,79.0976,-26.147399999999998,32.861200000000004,175,75
2026-05-09 14:57:35.350,4,0.11,0.02,2.0,82.4576,-31.387399999999992,28.831200000000003,175,75
2026-05-09 14:57:35.371,4,0.14,0.13,1.98,91.6576,-28.647399999999998,18.961199999999998,175,75
2026-05-09 14:57:35.385,4,0.13,0.19,2.03,100.8076,-19.627399999999994,17.0612,175,75
2026-05-09 14:57:35.400,4,0.08,0.27,2.11,111.1776,-14.627399999999994,16.8812,175,75
2026-05-09 14:57:35.416,4,0.06,0.33,2.15,118.8576,-4.627399999999994,14.0812,175,75
2026-05-09 14:57:35.426,4,0.14,0.39,2.09,120.8076,2.752600000000001,13.3512,175,75
2026-05-09 14:57:35.461,4,0.0,0.35,2.22,123.8576,-86.5174,-5.6188,175,75
2026-05-09 14:57:35.483,4,0.01,0.39,2.04,117.9976,-68.8274,-6.348799999999999,175,75
2026-05-09 14:57:35.484,4,0.13,0.44,1.92,118.4276,-38.27739999999999,0.17120000000000068,175,75
2026-05-09 14:57:35.505,4,0.21,0.45,1.94,120.4376,10.74260000000001,15.241200000000001,175,75
2026-05-09 14:57:35.516,4,0.19,0.42,2.01,119.52759999999999,40.3126,20.1712,175,75
2026-05-09 14:57:35.529,4,0.2,0.4,2.08,116.9076,57.0826,25.4212,175,75
2026-05-09 14:57:35.558,4,0.19,0.39,2.22,112.9976,58.67260000000002,27.3112,175,75
2026-05-09 14:57:35.569,4,0.2,0.32,2.2,109.8276,54.2226,24.9912,175,75
2026-05-09 14:57:35.580,4,0.21,0.24,2.16,104.27759999999999,56.1126,22.071199999999997,175,75
2026-05-09 14:57:35.586,4,0.24,0.19,2.14,99.1576,61.05260000000001,20.0512,175,75
2026-05-09 14:57:35.593,4,0.27,0.14,2.15,95.0776,61.352599999999995,15.5412,175,75
2026-05-09 14:57:35.607,4,0.28,0.1,2.2,92.2676,58.852599999999995,8.2212,175,75
2026-05-09 14:57:35.621,4,0.21,-0.02,2.22,85.3176,50.07260000000001,-12.998800000000001,175,75
2026-05-09 14:57:35.635,4,0.13,-0.07,2.23,83.6776,46.4126,-25.428800000000003,175,75
2026-05-09 14:57:35.643,4,0.02,-0.1,2.34,83.79759999999999,45.5626,-38.2988,175,75
2026-05-09 14:57:35.655,4,-0.06,-0.13,2.48,86.2376,27.02260000000001,-55.738800000000005,175,75
2026-05-09 14:57:35.668,4,-0.1,-0.17,2.59,86.10759999999999,-7.247399999999999,-77.5688,175,75
2026-05-09 14:57:35.677,4,-0.16,-0.2,2.65,84.2176,-57.127399999999994,-106.6488,175,75
2026-05-09 14:57:35.697,4,-0.24,-0.14,2.43,73.1276,-171.69740000000002,-181.8988,175,75
2026-05-09 14:57:35.730,4,-0.11,0.02,2.02,40.9876,-171.8774,-225.7988,175,75
2026-05-09 14:57:35.745,4,-0.03,-0.0,1.99,30.7476,-149.4974,-234.0288,175,75
2026-05-09 14:57:35.758,4,0.02,-0.01,2.01,19.7076,-131.0274,-241.7188,175,75
2026-05-09 14:57:35.768,4,0.04,0.04,2.02,6.177599999999998,-125.41739999999999,-250.6788,175,75
2026-05-09 14:57:35.788,4,-0.03,0.12,1.9,-17.0024,-108.88739999999999,-267.1988,175,75
2026-05-09 14:57:35.904,4,-0.26,0.25,2.27,-41.9324,-8.037399999999998,-246.40879999999999,175,75
2026-05-09 14:57:35.944,4,-0.31,0.39,2.26,-50.47240000000001,-75.53739999999999,-252.74880000000002,175,75
2026-05-09 14:57:35.979,4,-0.36,0.46,2.13,-52.4824,-80.7174,-250.8588,175,75
2026-05-09 14:57:36.038,4,-0.28,0.57,2.08,-42.4824,-15.907399999999996,-202.1988,175,75
2026-05-09 14:57:36.097,4,-0.22,0.7,2.18,-40.6524,-28.587399999999995,-192.8688,175,75
2026-05-09 14:57:36.097,4,-0.14,0.73,2.11,-36.5124,-33.70739999999999,-186.8988,175,75
2026-05-09 14:57:36.148,4,-0.25,0.78,2.1,-25.2324,-22.547399999999996,-167.1988,175,75
2026-05-09 14:57:36.148,4,-0.17,0.76,2.13,-22.672400000000003,-15.907399999999996,-162.0188,175,75
2026-05-09 14:57:36.188,4,-0.15,0.95,2.21,-15.0424,-28.157399999999996,-134.8888,175,75
2026-05-09 14:57:36.209,4,-0.06,0.99,2.24,-15.782400000000003,-53.337399999999995,-130.1888,175,75
2026-05-09 14:57:36.224,4,-0.08,1.15,2.15,-17.3024,-34.6874,-75.6188,175,75
2026-05-09 14:57:36.266,4,-0.02,1.2,2.12,-18.032400000000003,-39.377399999999994,-55.6788,175,75
2026-05-09 14:57:36.313,4,-0.01,1.22,2.1,-23.212400000000002,-36.447399999999995,-49.3988,175,75
2026-05-09 14:57:36.347,4,0.02,1.24,2.05,-25.532400000000003,-28.157399999999996,-48.418800000000005,175,75
2026-05-09 14:57:36.382,4,0.18,1.2,2.02,-27.852400000000003,-21.327399999999997,-47.0788,175,75
2026-05-09 14:57:36.468,4,0.28,1.13,2.0,-24.072400000000002,-16.087399999999995,-46.348800000000004,175,75
2026-05-09 14:57:36.489,4,0.15,1.22,2.11,-22.1224,-13.707399999999993,-45.2488,175,75
2026-05-09 14:57:36.541,4,0.08,1.22,2.28,-18.032400000000003,-88.94739999999999,-59.5188,175,75
2026-05-09 14:57:36.541,4,-0.02,1.17,2.16,1.477599999999999,-91.20739999999999,-34.0888,175,75
2026-05-09 14:57:36.565,4,0.3,1.22,2.44,4.647599999999997,86.23259999999999,22.5512,175,75
2026-05-09 14:57:36.565,4,0.06,1.14,2.39,-13.702400000000004,-32.307399999999994,-18.7288,175,75
2026-05-09 14:57:36.591,4,0.05,1.2,2.23,-19.8024,-61.267399999999995,-23.788800000000002,175,75
2026-05-09 14:57:36.630,4,0.09,1.19,2.07,-23.342399999999998,38.0026,12.8012,175,75
2026-05-09 14:57:36.654,4,0.08,1.14,2.2,-13.892400000000002,64.58260000000001,26.391199999999998,175,75
2026-05-09 14:57:36.654,4,0.07,1.1,2.27,-10.6524,53.79260000000001,24.2012,175,75
2026-05-09 14:57:36.713,4,0.03,1.13,2.21,-14.1924,-3.5874000000000024,7.6112,175,75
2026-05-09 14:57:36.761,4,0.06,1.16,2.14,-12.122399999999999,-1.1473999999999904,11.7012,175,75
2026-05-09 14:57:36.776,4,0.05,1.14,2.14,-7.732399999999998,9.462600000000009,20.1712,175,75
2026-05-09 14:57:36.792,4,0.09,1.11,2.18,-5.842399999999998,10.802599999999998,21.941200000000002,175,75
2026-05-09 14:57:36.804,4,0.06,1.09,2.19,-5.4724,8.552599999999998,22.431199999999997,175,75
2026-05-09 14:57:36.826,4,0.04,1.11,2.19,-1.3224000000000018,5.74260000000001,25.3012,175,75
2026-05-09 14:57:36.843,4,0.01,1.1,2.16,-1.0823999999999998,-3.6473999999999904,23.651200000000003,175,75
2026-05-09 14:57:36.890,4,-0.07,1.11,2.19,0.8675999999999995,0.012600000000006162,25.7812,175,75
2026-05-09 14:57:36.890,4,-0.05,1.12,2.24,1.4176000000000002,1.232600000000005,30.541200000000003,175,75
2026-05-09 14:57:36.961,4,-0.09,1.11,2.29,2.8175999999999988,-8.887399999999992,30.111200000000004,175,75
2026-05-09 14:57:37.073,4,-0.08,1.07,2.18,4.0976,-30.417399999999994,20.3012,175,75
2026-05-09 14:57:37.104,4,0.09,1.05,2.13,14.407599999999999,42.512600000000006,48.471199999999996,175,75
2026-05-09 14:57:37.112,4,0.01,1.03,2.19,18.9176,30.562600000000003,50.1712,175,75
2026-05-09 14:57:37.128,4,-0.37,1.14,2.31,76.5976,-55.77739999999999,116.33120000000001,175,75
2026-05-09 14:57:37.180,4,-0.36,1.12,2.39,90.07759999999999,-63.2174,162.1912,175,75
2026-05-09 14:57:37.187,4,-0.32,1.14,2.39,84.82759999999999,-69.4974,177.9812,175,75
2026-05-09 14:57:37.229,4,-0.28,1.15,2.41,82.6976,-77.9174,182.8012,175,75
2026-05-09 14:57:37.299,4,-0.26,1.18,2.4,77.6976,-94.3774,183.2212,175,75
2026-05-09 14:57:37.467,4,0.31,0.88,1.63,2.3276000000000003,-10.657399999999996,208.3512,175,75
2026-05-09 14:57:37.497,4,0.26,0.25,1.49,0.25760000000000005,47.57260000000001,209.87120000000002,175,75
2026-05-09 14:57:37.509,4,0.22,-0.09,1.43,0.7475999999999985,63.30260000000001,192.5512,175,75
2026-05-09 14:57:37.539,4,0.03,-0.21,1.54,-1.9324000000000012,63.73259999999999,180.4212,175,75
2026-05-09 14:57:37.558,4,0.03,-0.24,1.49,-22.672400000000003,28.422600000000003,136.6412,175,75
2026-05-09 14:57:37.647,4,-0.08,-0.18,1.64,-66.2624,-160.5374,39.261199999999995,175,75
2026-05-09 14:57:37.657,4,-0.09,-0.18,1.64,-70.5924,-198.0974,25.721200000000003,175,75
2026-05-09 14:57:37.674,4,-0.09,-0.16,1.58,-78.5824,-247.2474,15.6012,175,75
2026-05-09 14:57:37.674,4,-0.06,-0.19,1.6,-79.6824,-240.8374,18.5912,175,75
2026-05-09 14:57:37.695,4,0.2,-0.24,1.65,-80.1724,-244.5574,15.911200000000001,175,75
2026-05-09 14:57:37.697,4,0.21,-0.21,1.66,-81.8724,-262.12739999999997,13.4712,175,75
2026-05-09 14:57:37.714,4,0.21,-0.14,1.64,-87.0024,-285.5374,7.1312,175,75
2026-05-09 14:57:37.731,4,0.16,-0.12,1.58,-90.1724,-282.7974,8.0412,175,75
2026-05-09 14:57:37.744,4,0.15,-0.17,1.59,-88.6424,-261.2674,14.6912,175,75
2026-05-09 14:57:37.744,4,0.18,-0.21,1.63,-83.7624,-246.9374,19.9912,175,75
2026-05-09 14:57:37.761,4,0.36,-0.22,1.76,-80.9024,-266.4474,15.7812,175,75
2026-05-09 14:57:37.771,4,0.36,-0.2,1.76,-79.6224,-278.9474,12.491200000000001,175,75
2026-05-09 14:57:37.784,4,0.39,-0.19,1.68,-80.5324,-285.0474,12.1312,175,75
2026-05-09 14:57:37.807,4,0.35,-0.22,1.44,-78.5224,-274.4374,11.0912,175,75
2026-05-09 14:57:37.834,4,0.37,-0.21,1.15,-80.3524,-220.8374,9.7512,175,75
2026-05-09 14:57:37.846,4,0.32,-0.18,0.82,-90.2924,-125.9674,13.3512,175,75
2026-05-09 14:57:37.857,4,0.36,-0.18,0.78,-87.1824,-69.5574,23.891199999999998,175,75
2026-05-09 14:57:37.857,4,0.39,-0.2,0.83,-84.2524,-29.317399999999992,29.571199999999997,175,75
2026-05-09 14:57:37.867,4,0.34,-0.22,0.92,-88.3424,-6.817399999999992,31.331200000000003,175,75
2026-05-09 14:57:37.868,4,0.26,-0.23,0.97,-97.0624,10.012600000000006,28.471200000000003,175,75
2026-05-09 14:57:37.912,4,0.25,-0.22,0.98,-105.23240000000001,32.63260000000001,26.581200000000003,175,75
2026-05-09 14:57:37.927,4,0.15,-0.23,0.96,-110.11240000000001,60.92260000000002,28.4112,175,75
2026-05-09 14:57:37.928,4,0.14,-0.23,0.84,-119.19239999999999,109.0326,28.3512,175,75
2026-05-09 14:57:37.953,4,0.2,-0.31,0.91,-116.32239999999999,231.2326,34.9312,175,75
2026-05-09 14:57:37.967,4,0.21,-0.32,1.04,-121.39240000000001,245.31260000000003,30.4812,175,75
2026-05-09 14:57:37.989,4,0.07,-0.29,1.31,-135.9024,203.6726,2.6712000000000007,175,75
2026-05-09 14:57:38.001,4,0.02,-0.28,1.24,-139.9224,187.26260000000002,-6.9588,175,75
2026-05-09 14:57:38.036,4,-0.15,-0.32,0.99,-144.0124,160.9826,-17.5088,175,75
2026-05-09 14:57:38.038,4,-0.15,-0.33,0.97,-145.5324,177.0826,-18.2988,175,75
2026-05-09 14:57:38.049,4,-0.09,-0.32,1.09,-144.7424,205.56260000000003,-13.2388,175,75
2026-05-09 14:57:38.062,4,-0.06,-0.31,1.17,-143.9524,206.9626,-16.8388,175,75
2026-05-09 14:57:38.083,4,0.05,-0.3,1.1,-153.6424,195.62259999999998,-29.3388,175,75
2026-05-09 14:57:38.101,4,-0.17,-0.31,1.11,-143.3424,233.06260000000003,-18.7288,175,75
2026-05-09 14:57:38.122,4,-0.27,-0.32,1.21,-145.4724,245.07260000000002,-16.348799999999997,175,75
2026-05-09 14:57:38.157,4,0.04,-0.45,1.3,-158.0324,193.06260000000003,-56.958800000000004,175,75
2026-05-09 14:57:38.176,4,-0.08,-0.43,1.25,-159.8024,169.4626,-69.63879999999999,175,75
2026-05-09 14:57:38.187,4,-0.19,-0.38,1.15,-166.9324,171.6626,-76.52879999999999,175,75
2026-05-09 14:57:38.253,4,-0.02,-0.51,1.75,-151.3924,187.20260000000002,-71.83879999999999,175,75
2026-05-09 14:57:38.295,4,0.07,-0.27,1.6,-101.9324,203.55259999999998,-63.7288,175,75
2026-05-09 14:57:38.313,4,0.22,-0.33,1.76,-89.5624,183.67260000000002,-69.88879999999999,175,75
2026-05-09 14:57:38.320,4,0.26,-0.33,1.87,-84.1324,127.51259999999999,-82.9388,175,75
2026-05-09 14:57:38.332,4,0.22,-0.26,1.86,-84.0124,90.3726,-92.5088,175,75
2026-05-09 14:57:38.355,4,0.24,-0.11,1.68,-73.5824,65.2526,-99.5788,175,75
2026-05-09 14:57:38.366,4,0.3,-0.08,1.59,-57.36240000000001,64.64260000000002,-99.5788,175,75
2026-05-09 14:57:38.366,4,0.38,-0.06,1.59,-38.3424,65.0726,-91.52879999999999,175,75
2026-05-09 14:57:38.420,4,0.39,0.15,2.0,35.0176,-19.317399999999992,-95.4388,175,75
2026-05-09 14:57:38.452,4,0.33,0.33,1.9,53.4876,-77.6674,-103.8488,175,75
2026-05-09 14:57:38.475,4,0.49,0.66,1.74,130.7476,-138.2774,-88.7888,175,75
2026-05-09 14:57:38.488,4,0.58,0.64,1.72,151.7176,-166.9974,-89.27879999999999,175,75
2026-05-09 14:57:38.499,4,0.6,0.6,1.64,166.1776,-208.6474,-100.24879999999999,175,75
2026-05-09 14:57:38.510,4,0.61,0.55,1.38,177.5776,-282.05740000000003,-131.7188,175,75
2026-05-09 14:57:38.510,4,0.62,0.54,1.2,178.3076,-327.6674,-153.0588,175,75
2026-05-09 14:57:38.549,4,0.22,0.6,0.83,145.5676,-472.1274,-217.0188,175,75
2026-05-09 14:57:38.580,4,0.04,0.61,0.51,108.8576,-525.7774,-251.7188,175,75
2026-05-09 14:57:38.580,4,-0.06,0.64,0.43,92.2676,-540.7774,-258.0588,175,75
2026-05-09 14:57:38.614,4,-0.15,0.69,0.37,75.9876,-540.2374,-256.5888,175,75
2026-05-09 14:57:38.648,4,-0.31,0.68,0.31,32.3876,-531.6374000000001,-229.3988,175,75
2026-05-09 14:57:38.664,4,-0.99,0.84,0.08,-51.2624,-413.5874,-180.4388,175,75
2026-05-09 14:57:38.676,4,-0.96,1.03,-0.01,-61.2024,-316.9374,-142.6888,175,75
2026-05-09 14:57:38.688,4,-0.85,1.08,-0.05,-57.002399999999994,-245.4774,-104.88879999999999,175,75
2026-05-09 14:57:38.688,4,-0.79,1.03,0.0,-51.142399999999995,-185.35739999999998,-70.7988,175,75
2026-05-09 14:57:38.699,4,-0.76,0.95,0.09,-43.4624,-129.0174,-42.5088,175,75
2026-05-09 14:57:38.699,4,-0.74,0.91,0.19,-37.912400000000005,-91.6374,-21.2288,175,75
2026-05-09 14:57:38.716,4,-0.8,0.91,0.26,-36.2624,-55.167399999999994,2.6712000000000007,175,75
2026-05-09 14:57:38.746,4,-0.28,0.86,0.21,-14.982399999999998,111.6626,10.2412,175,75
2026-05-09 14:57:38.760,4,0.78,0.78,0.95,13.067599999999999,200.25260000000003,46.761199999999995,175,75
2026-05-09 14:57:38.779,4,1.81,0.1,1.37,41.7176,-2.1873999999999967,-11.5288,175,75
2026-05-09 14:57:38.805,4,0.15,0.42,0.37,3.7376000000000005,-49.0774,-74.88879999999999,175,75
2026-05-09 14:57:38.817,4,-0.0,0.9,-0.04,-12.362400000000001,36.96260000000001,-44.9488,175,75
2026-05-09 14:57:38.833,4,-0.28,1.29,-0.34,-3.4024,131.6626,-7.938799999999999,175,75
2026-05-09 14:57:38.847,4,-0.26,1.34,-0.35,14.3476,272.2626,41.0312,175,75
2026-05-09 14:57:38.847,4,-0.05,1.19,-0.22,26.7776,397.4526,80.97120000000001,175,75
2026-05-09 14:57:38.875,4,0.53,0.7,0.53,37.6976,434.4626,97.80120000000001,175,75
2026-05-09 14:57:38.881,4,0.55,0.68,0.99,9.8276,226.1126,40.9112,175,75
2026-05-09 14:57:38.895,4,0.59,0.72,0.81,-10.532400000000003,166.9626,20.0512,175,75
2026-05-09 14:57:38.919,4,0.33,0.79,0.49,-22.0024,196.1726,22.9812,175,75
2026-05-09 14:57:38.933,4,0.3,0.83,0.46,-20.4724,271.7226,55.971199999999996,175,75
2026-05-09 14:57:38.950,4,0.12,0.83,0.58,-12.7924,323.4226,83.1012,175,75
2026-05-09 14:57:38.963,4,0.43,0.75,0.75,-5.292400000000001,375.8626,102.3112,175,75
2026-05-09 14:57:38.979,4,0.66,0.68,0.9,-24.132400000000004,344.9526,102.80120000000001,175,75
2026-05-09 14:57:38.979,4,0.62,0.61,0.8,-36.9324,304.7026,85.8512,175,75
2026-05-09 14:57:38.992,4,0.58,0.6,0.77,-54.802400000000006,301.7226,86.03120000000001,175,75
2026-05-09 14:57:39.018,4,0.64,0.76,0.93,-92.36240000000001,348.9726,104.02120000000001,175,75
2026-05-09 14:57:39.042,4,0.5,0.67,1.19,-61.8124,368.7926,106.7012,175,75
2026-05-09 14:57:39.073,4,0.07,0.47,1.26,-75.72240000000001,138.5526,55.7812,175,75
2026-05-09 14:57:39.092,4,0.47,0.46,1.26,-98.2824,150.92260000000002,49.5712,175,75
2026-05-09 14:57:39.102,4,0.65,0.53,1.14,-107.2424,147.20260000000002,49.3212,175,75
2026-05-09 14:57:39.146,4,0.69,0.3,1.5,-49.9824,100.3126,18.891199999999998,175,75
2026-05-09 14:57:39.146,4,0.6,0.38,1.5,-47.0624,55.74260000000001,-2.0187999999999997,175,75
2026-05-09 14:57:39.157,4,0.54,0.48,1.48,-41.08240000000001,32.0826,-13.118799999999998,175,75
2026-05-09 14:57:39.190,4,0.26,0.39,1.31,-28.642400000000002,71.4726,-9.088799999999999,175,75
2026-05-09 14:57:39.202,4,0.55,0.37,1.35,-29.6824,126.23259999999999,-9.6988,175,75
2026-05-09 14:57:39.202,4,0.6,0.4,1.44,-24.1924,169.89260000000002,2.7412,175,75
2026-05-09 14:57:39.224,4,0.92,0.39,1.84,7.817599999999999,225.8626,1.6412000000000004,175,75
2026-05-09 14:57:39.325,4,0.6,0.72,1.14,-8.7624,23.9726,-62.93880000000001,175,75
2026-05-09 14:57:39.335,4,0.58,0.44,1.97,52.1476,54.2826,-47.8688,175,75
2026-05-09 14:57:39.408,4,0.21,0.55,1.53,38.977599999999995,-45.4174,-103.05879999999999,175,75
2026-05-09 14:57:39.408,4,0.68,0.8,1.57,40.9876,22.202600000000004,-82.8688,175,75
2026-05-09 14:57:39.426,4,0.5,0.53,1.78,58.4876,-14.197399999999995,-94.5188,175,75
2026-05-09 14:57:39.440,4,0.49,0.69,1.63,47.697599999999994,-57.917399999999994,-110.55879999999999,175,75
2026-05-09 14:57:39.470,4,0.5,0.76,1.43,48.307599999999994,-14.627399999999994,-100.1888,175,75
2026-05-09 14:57:39.482,4,0.55,0.79,1.49,56.3576,26.902600000000007,-85.1888,175,75
2026-05-09 14:57:39.495,4,0.63,0.77,1.65,58.6776,25.312600000000003,-85.0088,175,75
2026-05-09 14:57:39.530,4,0.46,0.78,1.68,47.2676,-29.687399999999997,-97.0188,175,75
2026-05-09 14:57:39.542,4,0.33,0.87,1.63,40.1376,-39.557399999999994,-95.0688,175,75
2026-05-09 14:57:39.553,4,0.35,0.87,1.59,41.477599999999995,-38.8274,-92.19879999999999,175,75
2026-05-09 14:57:39.566,4,0.44,0.91,1.66,43.4276,-36.877399999999994,-86.6488,175,75
2026-05-09 14:57:39.613,4,0.36,1.05,1.42,34.5876,-49.2574,-84.08879999999999,175,75
2026-05-09 14:57:39.641,4,0.35,1.14,1.53,41.5976,-0.10739999999999839,-57.1988,175,75
2026-05-09 14:57:39.680,4,0.49,1.07,1.71,47.697599999999994,20.13260000000001,-50.4288,175,75
2026-05-09 14:57:39.698,4,0.55,1.03,1.83,49.0376,-1.7573999999999899,-49.7588,175,75
2026-05-09 14:57:39.733,4,0.45,1.03,1.84,47.0276,-99.92739999999999,-72.9388,175,75
2026-05-09 14:57:39.733,4,0.42,1.05,1.73,45.3776,-132.1274,-77.9388,175,75
2026-05-09 14:57:39.754,4,0.45,1.19,1.45,32.0876,-150.5974,-82.44879999999999,175,75
2026-05-09 14:57:39.754,4,0.49,1.24,1.37,33.8576,-119.8074,-79.02879999999999,175,75
2026-05-09 14:57:39.765,4,0.59,1.31,1.45,39.9576,-90.8374,-60.248799999999996,175,75
2026-05-09 14:57:39.802,4,0.63,1.23,1.57,44.6476,-101.5174,-59.278800000000004,175,75
2026-05-09 14:57:39.813,4,0.65,1.14,1.55,36.7776,-131.1474,-69.7588,175,75
2026-05-09 14:57:39.932,4,0.71,1.51,1.16,-13.952400000000004,-258.88739999999996,-96.4088,175,75
2026-05-09 14:57:39.932,4,0.81,1.5,1.16,-13.032400000000003,-262.7974,-108.2388,175,75
2026-05-09 14:57:39.940,4,0.95,1.47,1.16,-16.5124,-237.3074,-105.1288,175,75
2026-05-09 14:57:39.941,4,0.85,1.42,1.08,-17.9724,-188.4074,-96.46879999999999,175,75
2026-05-09 14:57:39.952,4,0.83,1.37,0.91,-16.9324,-128.6474,-89.1488,175,75
2026-05-09 14:57:39.968,4,0.86,1.36,0.81,-17.7924,-77.7974,-82.74879999999999,175,75
2026-05-09 14:57:39.968,4,0.9,1.43,0.79,-24.8624,-52.487399999999994,-78.05879999999999,175,75
2026-05-09 14:57:39.979,4,1.0,1.49,0.81,-32.3024,-46.14739999999999,-79.3988,175,75
2026-05-09 14:57:40.000,4,0.9,1.4,0.86,-45.172399999999996,-47.307399999999994,-75.55879999999999,175,75
2026-05-09 14:57:40.021,4,0.49,1.44,0.65,-67.1224,63.9726,-60.3088,175,75
2026-05-09 14:57:40.037,4,0.45,1.51,0.65,-74.8024,115.92260000000002,-51.2288,175,75
2026-05-09 14:57:40.037,4,0.53,1.54,0.74,-78.8924,135.5026,-42.9988,175,75
2026-05-09 14:57:40.051,4,0.49,1.5,0.87,-80.11240000000001,139.0926,-34.1488,175,75
2026-05-09 14:57:40.095,4,0.66,1.24,1.09,-79.0124,128.7326,-44.6388,175,75
2026-05-09 14:57:40.117,4,0.64,1.2,1.36,-64.3124,56.6626,-62.748799999999996,175,75
2026-05-09 14:57:40.117,4,0.39,1.21,1.33,-62.002399999999994,33.3026,-73.35879999999999,175,75
2026-05-09 14:57:40.136,4,0.19,1.23,1.25,-55.5924,47.02260000000001,-82.5088,175,75
2026-05-09 14:57:40.148,4,0.38,1.2,1.46,-7.612400000000001,95.0726,-73.1788,175,75
2026-05-09 14:57:40.160,4,0.19,1.21,1.41,5.927599999999998,61.6626,-59.6988,175,75
2026-05-09 14:57:40.187,4,0.05,1.27,1.33,71.5376,132.2726,-7.8688,175,75
2026-05-09 14:57:40.202,4,0.01,1.26,1.35,83.4276,121.96260000000001,8.1012,175,75
2026-05-09 14:57:40.213,4,-0.07,1.22,1.37,97.3276,120.92260000000002,21.821199999999997,175,75
2026-05-09 14:57:40.225,4,-0.1,1.17,1.37,109.0976,129.2226,30.3012,175,75
2026-05-09 14:57:40.248,4,0.05,1.13,1.41,115.8676,127.08260000000001,50.6012,175,75
2026-05-09 14:57:40.262,4,0.08,1.15,1.36,119.27759999999999,93.1226,57.8612,175,75
2026-05-09 14:57:40.275,4,0.06,1.16,1.3,124.0376,67.8126,61.6412,175,75
2026-05-09 14:57:40.275,4,0.06,1.18,1.23,129.5276,51.6626,67.2512,175,75
2026-05-09 14:57:40.296,4,0.07,1.2,1.16,135.6876,39.0326,75.78120000000001,175,75
2026-05-09 14:57:40.296,4,0.1,1.21,1.11,139.6476,29.8326,83.1012,175,75
2026-05-09 14:57:40.309,4,0.13,1.23,1.08,143.30759999999998,9.892600000000002,91.8212,175,75
2026-05-09 14:57:40.320,4,0.12,1.23,1.06,144.9576,-7.187399999999997,97.61120000000001,175,75
2026-05-09 14:57:40.330,4,0.09,1.24,1.04,144.4076,-24.137399999999992,105.8512,175,75
2026-05-09 14:57:40.341,4,0.06,1.26,1.03,141.1076,-32.487399999999994,117.1312,175,75
2026-05-09 14:57:40.365,4,0.11,1.26,1.02,130.92759999999998,-29.137399999999992,143.7712,175,75
2026-05-09 14:57:40.377,4,0.16,1.19,0.97,122.5176,-27.2474,151.0312,175,75
2026-05-09 14:57:40.389,4,0.27,1.11,0.91,114.9576,-31.517399999999995,158.8912,175,75
2026-05-09 14:57:40.403,4,0.34,1.1,0.86,108.6076,-18.037399999999998,180.9112,175,75
2026-05-09 14:57:40.430,4,0.23,1.11,0.93,106.2376,62.51259999999999,231.5212,175,75
2026-05-09 14:57:40.441,4,0.24,1.09,1.0,105.6276,98.1226,255.8512,175,75
2026-05-09 14:57:40.462,4,0.2,1.01,1.19,71.6576,112.7526,304.26120000000003,175,75
2026-05-09 14:57:40.517,4,0.44,0.79,1.31,32.2676,134.2826,338.6512,175,75
2026-05-09 14:57:40.545,4,1.09,0.33,1.73,-73.4024,8.672600000000003,313.1612,175,75
2026-05-09 14:57:40.583,4,2.45,0.64,0.9,-110.7224,96.5326,145.3612,175,75
2026-05-09 14:57:40.583,4,4.83,0.85,3.45,-143.6424,190.74259999999998,172.3112,175,75
2026-05-09 14:57:40.607,4,2.14,-0.15,1.59,-25.6524,-215.7774,-0.6187999999999994,175,75
2026-05-09 14:57:40.607,4,0.91,0.45,1.15,-74.6224,49.2226,65.30120000000001,175,75
2026-05-09 14:57:40.617,4,1.33,1.35,1.37,-112.0024,227.45260000000002,48.9612,175,75
2026-05-09 14:57:40.628,4,1.33,1.74,1.54,-131.4524,173.8526,70.4212,175,75
2026-05-09 14:57:40.639,4,0.65,1.49,1.85,-78.7624,155.5026,86.58120000000001,175,75
2026-05-09 14:57:40.650,4,0.45,1.06,1.85,-48.032399999999996,144.4026,93.28120000000001,175,75
2026-05-09 14:57:40.660,4,0.47,0.73,1.83,-117.0024,54.8926,40.971199999999996,175,75
2026-05-09 14:57:40.672,4,0.49,0.92,1.62,-125.29240000000001,60.372600000000006,36.3312,175,75
2026-05-09 14:57:40.688,4,0.57,1.11,1.45,-118.76240000000001,75.3726,45.8512,175,75
2026-05-09 14:57:40.697,4,0.55,1.12,1.35,-111.57239999999999,95.98259999999999,64.8112,175,75
2026-05-09 14:57:40.723,4,0.65,0.98,1.56,-111.69239999999999,91.6626,61.6412,175,75
2026-05-09 14:57:40.743,4,0.67,0.96,1.55,-116.8724,71.11260000000001,47.7412,175,75
2026-05-09 14:57:40.743,4,0.6,0.97,1.42,-126.0824,54.5826,36.1512,175,75
2026-05-09 14:57:40.754,4,0.46,1.01,1.17,-137.8524,51.232600000000005,28.1612,175,75
2026-05-09 14:57:40.831,4,0.44,0.69,1.24,-117.1224,55.07260000000001,32.3112,175,75
2026-05-09 14:57:40.854,4,0.51,0.69,1.16,-117.1824,16.96260000000001,20.4812,175,75
2026-05-09 14:57:40.883,4,0.43,0.72,0.86,-128.5824,-29.9274,11.821200000000001,175,75
2026-05-09 14:57:40.883,4,0.38,0.62,0.71,-126.0224,-9.017399999999995,17.6712,175,75
2026-05-09 14:57:40.894,4,0.62,0.32,0.62,-115.9024,42.8126,22.071199999999997,175,75
2026-05-09 14:57:40.911,4,0.44,0.34,0.75,-120.29240000000001,62.7526,19.6312,175,75
2026-05-09 14:57:40.922,4,0.32,0.48,0.85,-121.26240000000001,73.18260000000001,21.461199999999998,175,75
2026-05-09 14:57:40.922,4,0.35,0.6,0.97,-119.13239999999999,71.96260000000001,27.001199999999997,175,75
2026-05-09 14:57:40.956,4,0.57,0.37,0.71,-105.7224,22.6926,17.6712,175,75
2026-05-09 14:57:41.003,4,0.39,0.44,0.83,-97.1224,16.782600000000002,17.7412,175,75
2026-05-09 14:57:41.041,4,0.32,0.29,0.58,-87.3024,-35.167399999999994,15.9712,175,75
2026-05-09 14:57:41.052,4,0.22,0.23,0.39,-83.5224,-26.757399999999997,27.6712,175,75
2026-05-09 14:57:41.063,4,0.16,0.22,0.33,-80.3524,-4.077399999999997,38.651199999999996,175,75
2026-05-09 14:57:41.098,4,0.04,0.16,0.15,-96.6924,83.55260000000001,70.8512,175,75
2026-05-09 14:57:41.117,4,-0.02,0.19,0.31,-92.8524,149.4026,82.4312,175,75
2026-05-09 14:57:41.138,4,0.0,0.16,0.44,-92.4824,127.14260000000002,81.27120000000001,175,75
2026-05-09 14:57:41.226,4,-0.21,-0.14,0.18,-69.8024,23.792600000000007,27.251199999999997,175,75
2026-05-09 14:57:41.226,4,-0.25,-0.23,0.06,-71.7524,44.46260000000001,19.0212,175,75
2026-05-09 14:57:41.237,4,-0.22,-0.31,-0.06,-73.1524,76.7226,12.4312,175,75
2026-05-09 14:57:41.271,4,-0.1,-0.43,-0.05,-78.5224,210.68259999999998,9.7512,175,75
2026-05-09 14:57:41.293,4,-0.22,-0.48,0.17,-87.36240000000001,262.81260000000003,1.0312000000000006,175,75
2026-05-09 14:57:41.311,4,-0.42,-0.5,0.17,-104.86240000000001,297.1426,-9.8888,175,75
2026-05-09 14:57:41.340,4,-0.45,-0.5,0.31,-109.6824,363.5526,-12.0788,175,75
2026-05-09 14:57:41.383,4,-0.37,-0.41,0.86,-113.2824,406.0526,-24.638799999999996,175,75
2026-05-09 14:57:41.395,4,0.35,-0.44,1.42,-90.72240000000001,399.0326,-59.5788,175,75
2026-05-09 14:57:41.505,4,-0.19,-0.59,1.61,-73.9524,618.9126000000001,110.78120000000001,175,75
2026-05-09 14:57:41.517,4,1.4,-1.12,2.76,-49.3724,502.51259999999996,62.6112,175,75
2026-05-09 14:57:41.528,4,0.76,-1.43,3.08,9.9576,-29.377399999999994,-80.85879999999999,175,75
2026-05-09 14:57:41.553,4,0.93,-0.79,1.44,-49.6224,-75.7774,-208.2388,175,75
2026-05-09 14:57:41.567,4,0.76,-0.64,1.16,-34.252399999999994,-16.327399999999997,-175.9788,175,75
2026-05-09 14:57:41.603,4,0.26,-0.5,1.63,-41.4524,167.5726,-127.56879999999998,175,75
2026-05-09 14:57:41.636,4,0.03,-0.34,1.72,-39.9824,124.0326,-145.3688,175,75
2026-05-09 14:57:41.648,4,0.0,-0.32,1.72,-31.322400000000002,106.9026,-144.4588,175,75
2026-05-09 14:57:41.648,4,-0.01,-0.3,1.71,-27.912399999999998,88.1226,-145.12879999999998,175,75
2026-05-09 14:57:41.662,4,-0.01,-0.25,1.68,-29.312400000000004,70.5026,-146.03879999999998,175,75
2026-05-09 14:57:41.672,4,0.01,-0.19,1.62,-31.392400000000002,64.1626,-145.12879999999998,175,75
2026-05-09 14:57:41.683,4,0.08,-0.09,1.57,-29.4324,67.51259999999999,-132.6888,175,75
2026-05-09 14:57:41.697,4,0.11,-0.04,1.56,-22.912399999999998,68.73259999999999,-119.94879999999999,175,75
2026-05-09 14:57:41.707,4,0.13,-0.03,1.56,-14.252400000000002,67.08260000000001,-108.9088,175,75
2026-05-09 14:57:41.713,4,0.17,-0.05,1.56,-8.212400000000002,69.89260000000002,-100.49879999999999,175,75
2026-05-09 14:57:41.726,4,0.24,-0.07,1.56,-2.422400000000003,68.24260000000001,-90.91879999999999,175,75
2026-05-09 14:57:41.739,4,0.19,-0.07,1.53,6.297599999999999,58.48259999999999,-83.72879999999999,175,75
2026-05-09 14:57:41.753,4,0.15,-0.03,1.52,12.9376,58.0626,-76.71879999999999,175,75
2026-05-09 14:57:41.766,4,0.15,0.03,1.54,14.157599999999999,58.612600000000015,-69.08879999999999,175,75
2026-05-09 14:57:41.816,4,0.15,0.16,1.59,23.127599999999997,43.6726,-32.5088,175,75
2026-05-09 14:57:41.850,4,0.15,0.23,1.62,21.9076,53.3026,1.5812000000000004,175,75
2026-05-09 14:57:41.875,4,0.17,0.22,1.69,22.9976,61.7226,23.651200000000003,175,75
2026-05-09 14:57:41.899,4,0.17,0.2,1.75,18.3676,61.7226,36.0312,175,75
2026-05-09 14:57:41.913,4,0.18,0.22,1.76,15.317599999999999,60.4426,42.8012,175,75
2026-05-09 14:57:41.925,4,0.18,0.23,1.77,13.307599999999997,57.392600000000016,50.0512,175,75
2026-05-09 14:57:41.941,4,0.16,0.21,1.77,9.037599999999998,57.872600000000006,61.0312,175,75
2026-05-09 14:57:41.951,4,0.17,0.22,1.78,5.7475999999999985,62.6326,69.5612,175,75
2026-05-09 14:57:41.973,4,0.16,0.24,1.84,3.4876000000000005,56.6626,80.36120000000001,175,75
2026-05-09 14:57:41.973,4,0.13,0.24,1.85,1.2376000000000005,48.24260000000001,82.4312,175,75
2026-05-09 14:57:41.994,4,0.1,0.28,1.84,-3.342399999999998,39.2226,87.3112,175,75
2026-05-09 14:57:42.007,4,0.1,0.31,1.83,-4.312400000000004,36.1126,93.53120000000001,175,75
2026-05-09 14:57:42.019,4,0.09,0.31,1.82,-4.432400000000001,30.802599999999998,98.0412,175,75
2026-05-09 14:57:42.031,4,0.08,0.32,1.8,-4.192399999999999,23.302599999999998,102.6712,175,75
2026-05-09 14:57:42.042,4,0.08,0.32,1.8,-3.5224000000000046,19.5826,107.25120000000001,175,75
2026-05-09 14:57:42.054,4,0.09,0.31,1.81,-1.9324000000000012,13.24260000000001,109.3812,175,75
2026-05-09 14:57:42.085,4,0.06,0.32,1.79,-0.5324000000000026,5.74260000000001,111.7012,175,75
2026-05-09 14:57:42.085,4,0.03,0.33,1.77,1.7875999999999976,3.3626000000000005,113.77120000000001,175,75
2026-05-09 14:57:42.104,4,-0.02,0.32,1.75,6.4176,-1.267399999999995,119.2612,175,75
2026-05-09 14:57:42.130,4,-0.11,0.34,1.72,11.2376,-21.817399999999992,122.1312,175,75
2026-05-09 14:57:42.147,4,-0.19,0.36,1.71,11.717599999999997,-29.077399999999997,122.6712,175,75
2026-05-09 14:57:42.175,4,-0.35,0.44,1.72,18.607599999999998,-43.70739999999999,132.43120000000002,175,75
2026-05-09 14:57:42.213,4,-0.4,0.41,1.62,22.6976,-73.9474,144.3812,175,75
2026-05-09 14:57:42.277,4,-0.67,0.35,1.59,53.4876,-112.7974,165.2412,175,75
2026-05-09 14:57:42.283,4,-0.78,0.34,1.61,69.88759999999999,-135.9674,169.2612,175,75
2026-05-09 14:57:42.337,4,-0.84,0.01,0.96,102.3276,-257.6674,160.4812,175,75
2026-05-09 14:57:42.337,4,-0.79,-0.08,0.78,117.63759999999999,-233.5874,179.93120000000002,175,75
2026-05-09 14:57:42.348,4,-0.77,-0.17,0.7,127.1476,-204.13739999999999,200.0512,175,75
2026-05-09 14:57:42.359,4,-0.71,-0.31,0.71,127.1476,-178.2174,220.2412,175,75
2026-05-09 14:57:42.369,4,-0.65,-0.42,0.8,116.2976,-182.85739999999998,233.3512,175,75
2026-05-09 14:57:42.380,4,-0.63,-0.46,0.88,103.5476,-209.4974,238.3512,175,75
2026-05-09 14:57:42.395,4,-0.75,-0.56,0.77,77.0276,-249.3174,235.7812,175,75
2026-05-09 14:57:42.432,4,-0.61,-0.72,0.39,64.1576,-185.7774,249.93120000000002,175,75
2026-05-09 14:57:42.453,4,-0.33,-0.8,0.62,29.9576,-30.597399999999993,321.6412,175,75
2026-05-09 14:57:42.464,4,-0.23,-0.86,0.84,-14.132400000000004,-1.6373999999999995,333.8312,175,75
2026-05-09 14:57:42.475,4,-0.15,-0.91,1.02,-48.522400000000005,-39.1374,311.5812,175,75
2026-05-09 14:57:42.489,4,-0.22,-0.88,0.96,-88.3424,-93.4074,266.2112,175,75
2026-05-09 14:57:42.501,4,-0.16,-0.86,0.77,-111.45240000000001,-66.81739999999999,254.3812,175,75
2026-05-09 14:57:42.531,4,-0.11,-0.92,0.6,-142.1224,-2.4273999999999916,235.4812,175,75
2026-05-09 14:57:42.543,4,-0.19,-0.93,0.71,-158.1524,27.812600000000003,228.5312,175,75
2026-05-09 14:57:42.561,4,-0.23,-0.94,0.86,-176.3224,48.482600000000005,220.4812,175,75
2026-05-09 14:57:42.572,4,-0.14,-0.97,0.99,-195.7224,49.5826,205.3012,175,75
2026-05-09 14:57:42.583,4,-0.02,-0.99,1.08,-209.0124,37.8126,189.2012,175,75
2026-05-09 14:57:42.592,4,0.05,-1.0,1.14,-219.3124,19.702600000000004,173.96120000000002,175,75
2026-05-09 14:57:42.592,4,0.1,-0.98,1.19,-226.45239999999998,1.0525999999999982,157.3112,175,75
2026-05-09 14:57:42.630,4,0.09,-0.85,1.05,-248.76239999999999,-61.087399999999995,107.1312,175,75
2026-05-09 14:57:42.645,4,0.17,-0.86,0.93,-253.95239999999998,-45.907399999999996,99.14120000000001,175,75
2026-05-09 14:57:42.657,4,0.25,-0.86,0.89,-257.9724,-24.7474,90.30120000000001,175,75
2026-05-09 14:57:42.671,4,0.26,-0.84,0.96,-262.8524,-12.547399999999996,82.4312,175,75
2026-05-09 14:57:42.692,4,0.22,-0.72,1.14,-268.76239999999996,-8.827399999999997,51.331199999999995,175,75
2026-05-09 14:57:42.726,4,0.32,-0.7,1.06,-242.3024,-16.877399999999994,13.9612,175,75
2026-05-09 14:57:42.739,4,0.29,-0.73,1.18,-235.41240000000002,-11.997399999999999,-15.498800000000001,175,75
2026-05-09 14:57:42.760,4,0.35,-0.7,1.24,-232.0624,-29.687399999999997,-36.4088,175,75
2026-05-09 14:57:42.774,4,0.29,-0.71,1.24,-226.20239999999998,-59.197399999999995,-56.8388,175,75
2026-05-09 14:57:42.794,4,0.2,-0.73,1.15,-230.47240000000002,-83.4674,-87.9388,175,75
2026-05-09 14:57:42.857,4,0.09,-0.86,1.15,-230.35240000000002,-90.0474,-138.84879999999998,175,75
2026-05-09 14:57:42.857,4,0.03,-0.85,1.13,-233.22240000000002,-95.47739999999999,-148.6688,175,75
2026-05-09 14:57:42.888,4,-0.0,-0.79,1.04,-237.4224,-80.0474,-157.62879999999998,175,75
2026-05-09 14:57:42.888,4,0.03,-0.79,1.0,-234.4324,-72.4874,-160.6788,175,75
2026-05-09 14:57:42.951,4,-0.16,-0.73,0.91,-221.2024,-36.02739999999999,-168.4788,175,75
2026-05-09 14:57:43.011,4,-0.23,-0.53,0.89,-207.0624,-38.27739999999999,-177.5088,175,75
2026-05-09 14:57:43.085,4,-0.4,-0.24,0.71,-144.8024,-39.31739999999999,-176.9588,175,75
2026-05-09 14:57:43.106,4,-0.46,-0.19,0.67,-137.6724,-44.4974,-172.4488,175,75
2026-05-09 14:57:43.119,4,-0.49,-0.14,0.61,-131.7524,-43.2174,-165.9188,175,75
2026-05-09 14:57:43.144,4,-0.78,0.25,0.52,-105.23240000000001,-2.3673999999999893,-116.22879999999999,175,75
2026-05-09 14:57:43.190,4,-0.39,0.25,0.55,-79.2524,-39.0774,-84.94879999999999,175,75
2026-05-09 14:57:43.203,4,-0.36,0.18,0.56,-78.7024,-49.807399999999994,-80.85879999999999,175,75
2026-05-09 14:57:43.213,4,-0.48,0.21,0.48,-90.2324,-38.27739999999999,-66.58879999999999,175,75
2026-05-09 14:57:43.283,4,-0.2,0.39,0.27,-47.0624,25.312600000000003,9.141200000000001,175,75
2026-05-09 14:57:43.357,4,-0.2,0.84,0.35,-3.092399999999998,-51.3874,30.4212,175,75
2026-05-09 14:57:43.383,4,-0.05,0.8,0.58,53.6776,46.1126,98.7112,175,75
2026-05-09 14:57:43.464,4,-0.08,1.07,0.21,30.4976,-17.487399999999994,84.3812,175,75
2026-05-09 14:57:43.551,4,-0.1,0.92,0.08,57.2076,105.5026,124.2012,175,75
2026-05-09 14:57:43.599,4,-0.0,0.98,0.11,62.4576,116.96260000000001,123.6512,175,75
2026-05-09 14:57:43.615,4,0.06,0.89,0.02,64.2876,111.4126,113.77120000000001,175,75
2026-05-09 14:57:43.695,4,0.15,0.89,0.11,57.5176,96.9026,34.8712,175,75
2026-05-09 14:57:43.713,4,0.13,0.91,-0.01,52.9376,120.98259999999999,31.2712,175,75
2026-05-09 14:57:43.713,4,0.14,0.88,-0.04,55.3776,149.95260000000002,28.961199999999998,175,75
2026-05-09 14:57:43.725,4,0.13,0.84,0.04,57.7576,157.2726,27.7412,175,75
2026-05-09 14:57:43.775,4,-0.1,0.7,0.1,24.2776,146.9626,-1.0387999999999993,175,75
2026-05-09 14:57:43.804,4,-0.05,0.48,0.41,22.3876,170.9826,-18.538800000000002,175,75
2026-05-09 14:57:43.819,4,0.15,0.42,0.51,28.857599999999998,178.5526,-23.608800000000002,175,75
2026-05-09 14:57:43.835,4,0.25,0.37,0.57,31.107599999999998,166.7226,-34.1488,175,75
2026-05-09 14:57:43.859,4,0.3,0.31,0.62,38.9176,144.89260000000002,-57.7488,175,75
2026-05-09 14:57:43.859,4,0.26,0.29,0.68,47.087599999999995,117.6326,-70.6188,175,75
2026-05-09 14:57:43.871,4,0.08,0.28,0.69,52.6376,84.4026,-79.08879999999999,175,75
2026-05-09 14:57:43.880,4,-0.2,0.24,0.61,57.4576,63.9726,-88.96879999999999,175,75
2026-05-09 14:57:43.891,4,-0.26,0.21,0.51,67.7576,138.7326,-75.91879999999999,175,75
2026-05-09 14:57:43.921,4,0.09,0.19,0.78,90.5676,200.25260000000003,-61.8988,175,75
2026-05-09 14:57:43.931,4,0.22,0.17,1.0,104.88759999999999,183.3026,-64.8288,175,75
2026-05-09 14:57:43.943,4,0.24,0.14,1.14,118.9776,145.1326,-72.6288,175,75
2026-05-09 14:57:43.958,4,0.07,-0.0,1.1,145.2576,62.9426,-96.6488,175,75
2026-05-09 14:57:43.994,4,-0.24,0.11,0.65,162.6376,180.5626,-72.99879999999999,175,75
2026-05-09 14:57:44.018,4,0.07,0.17,0.96,200.9876,296.5326,-21.4088,175,75
2026-05-09 14:57:44.027,4,0.2,0.09,1.27,223.6076,296.0526,-6.2888,175,75
2026-05-09 14:57:44.042,4,0.24,0.0,1.43,237.9376,279.4026,-1.8987999999999996,175,75
2026-05-09 14:57:44.055,4,0.22,-0.09,1.58,251.4776,258.7926,6.331200000000001,175,75
2026-05-09 14:57:44.066,4,0.09,-0.14,1.76,264.3476,216.1726,39.261199999999995,175,75
2026-05-09 14:57:44.078,4,0.09,-0.14,1.81,267.57759999999996,206.7226,54.8112,175,75
2026-05-09 14:57:44.112,4,0.33,-0.17,1.92,265.37760000000003,193.4226,102.55120000000001,175,75
2026-05-09 14:57:44.125,4,0.35,-0.29,2.23,272.45759999999996,170.4426,134.8112,175,75
2026-05-09 14:57:44.154,4,0.29,-0.29,2.45,251.1776,105.3126,149.9912,175,75
2026-05-09 14:57:44.164,4,0.29,-0.24,2.48,244.4676,69.3426,152.4912,175,75
2026-05-09 14:57:44.227,4,0.39,-0.22,2.22,232.9376,-13.827399999999997,149.3812,175,75
2026-05-09 14:57:44.242,4,0.3,-0.04,2.28,232.6376,-19.687399999999997,148.8912,175,75
2026-05-09 14:57:44.253,4,0.28,0.03,2.31,233.9176,-25.597399999999993,148.1612,175,75
2026-05-09 14:57:44.253,4,0.28,0.07,2.32,232.5176,-35.7174,142.5512,175,75
2026-05-09 14:57:44.266,4,0.3,0.1,2.26,228.7376,-48.767399999999995,135.4812,175,75
2026-05-09 14:57:44.280,4,0.3,0.14,2.12,222.6376,-56.3874,127.25120000000001,175,75
2026-05-09 14:57:44.364,4,0.23,0.48,2.01,210.7476,-52.057399999999994,91.03120000000001,175,75
2026-05-09 14:57:44.400,4,0.29,0.61,1.8,182.45759999999999,-109.5574,43.831199999999995,175,75
2026-05-09 14:57:44.498,4,0.29,1.07,1.52,125.13759999999999,-29.687399999999997,12.491200000000001,175,75
2026-05-09 14:57:44.498,4,0.25,1.11,1.56,122.38759999999999,-7.857399999999998,15.7812,175,75
2026-05-09 14:57:44.531,4,0.32,1.21,1.71,103.1876,-9.497399999999999,6.2712,175,75
2026-05-09 14:57:44.551,4,0.37,1.16,1.67,95.9876,-19.627399999999994,-1.5287999999999995,175,75
2026-05-09 14:57:44.571,4,0.28,1.2,1.68,93.3676,-31.877399999999994,-3.418799999999999,175,75
2026-05-09 14:57:44.583,4,0.2,1.31,1.64,89.0976,-33.587399999999995,-7.018799999999999,175,75
2026-05-09 14:57:44.600,4,0.2,1.34,1.6,86.8476,-30.1074,-5.3088,175,75
2026-05-09 14:57:44.611,4,0.23,1.32,1.58,87.1476,-26.087399999999995,-3.2988,175,75
2026-05-09 14:57:44.656,4,0.13,1.32,1.62,83.85759999999999,-38.8874,-4.0288,175,75
2026-05-09 14:57:44.709,4,0.11,1.38,1.51,72.32759999999999,-69.6274,-5.438799999999999,175,75
2026-05-09 14:57:44.755,4,0.17,1.52,1.54,60.1376,-36.38739999999999,15.8512,175,75
2026-05-09 14:57:44.755,4,0.13,1.55,1.6,59.3476,-41.087399999999995,25.0512,175,75
2026-05-09 14:57:44.791,4,0.23,1.44,1.47,44.3476,-69.6874,32.9212,175,75
2026-05-09 14:57:44.834,4,0.48,1.53,1.39,37.6976,31.35260000000001,55.6012,175,75
2026-05-09 14:57:44.834,4,-1.69,2.15,1.88,37.6976,-151.9374,161.9412,175,75
2026-05-09 14:57:44.859,4,2.31,1.12,0.76,-73.1524,318.9126,90.91120000000001,175,75
2026-05-09 14:57:44.878,4,0.43,1.85,2.24,96.7176,445.92260000000005,175.8512,175,75
2026-05-09 14:57:44.895,4,0.31,0.54,2.85,34.7076,-275.4174,-112.3288,175,75
2026-05-09 14:57:44.913,4,1.03,1.61,1.15,-64.86240000000001,-196.3274,-138.1188,175,75
2026-05-09 14:57:44.925,4,1.26,1.74,0.98,-9.742400000000004,-151.5774,-105.6788,175,75
2026-05-09 14:57:44.937,4,0.65,1.84,1.01,24.8876,-30.417399999999994,-50.1288,175,75
2026-05-09 14:57:44.970,4,0.68,1.63,2.06,2.3276000000000003,194.4626,-13.4188,175,75
2026-05-09 14:57:45.043,4,0.25,1.44,2.07,11.657599999999999,-112.5474,-67.38879999999999,175,75
2026-05-09 14:57:45.226,4,0.35,1.65,1.39,13.9176,-10.417399999999994,-13.478799999999998,175,75
2026-05-09 14:57:45.286,4,0.38,1.56,1.45,-4.072400000000002,76.17260000000002,7.9812,175,75
2026-05-09 14:57:45.307,4,0.42,1.47,1.68,-7.482399999999998,72.6926,9.321200000000001,175,75
2026-05-09 14:57:45.336,4,0.36,1.4,1.76,-5.412399999999998,26.052599999999998,-2.4487999999999994,175,75
2026-05-09 14:57:45.349,4,0.36,1.39,1.77,-6.572400000000002,9.342600000000004,-5.0687999999999995,175,75
2026-05-09 14:57:45.461,4,0.29,1.37,1.62,-6.932400000000001,1.3526000000000096,-1.1087999999999996,175,75
2026-05-09 14:57:45.473,4,0.34,1.41,1.6,-6.142400000000002,7.392600000000002,2.1312,175,75
2026-05-09 14:57:45.504,4,0.33,1.43,1.58,1.9675999999999974,16.4726,8.2212,175,75
2026-05-09 14:57:45.521,4,0.32,1.39,1.58,5.317599999999999,21.592600000000004,8.961200000000002,175,75
2026-05-09 14:57:45.537,4,0.32,1.4,1.63,6.4176,24.092600000000004,8.2212,175,75
2026-05-09 14:57:45.570,4,0.34,1.41,1.68,11.477599999999999,12.0826,6.331200000000001,175,75
2026-05-09 14:57:45.671,4,0.45,1.38,1.55,13.247599999999998,21.842600000000004,18.5312,175,75
2026-05-09 14:57:45.697,4,0.47,1.35,1.55,13.4876,53.6726,11.2712,175,75
2026-05-09 14:57:45.736,4,0.45,1.39,1.62,11.2976,54.702600000000004,11.0912,175,75
2026-05-09 14:57:45.858,4,0.39,1.58,1.86,23.7976,-20.297399999999996,24.081200000000003,175,75
2026-05-09 14:57:46.001,4,0.58,1.39,1.6,59.7076,98.0026,56.9412,175,75
2026-05-09 14:57:46.015,4,0.64,1.28,1.74,59.0976,67.7526,39.8712,175,75
2026-05-09 14:57:46.090,4,0.51,1.38,1.57,43.977599999999995,-39.807399999999994,-11.8988,175,75
2026-05-09 14:57:46.100,4,0.51,1.44,1.56,40.7476,-38.337399999999995,-13.4188,175,75
2026-05-09 14:57:46.202,4,0.43,1.41,1.51,29.8876,29.282600000000002,-9.758799999999999,175,75
2026-05-09 14:57:46.294,4,0.3,1.45,1.49,12.997599999999998,1.4125999999999976,-13.1788,175,75
2026-05-09 14:57:46.294,4,0.27,1.45,1.48,10.627599999999997,-0.7774000000000001,-15.188799999999999,175,75
2026-05-09 14:57:46.327,4,0.26,1.5,1.43,4.587599999999998,2.1426000000000016,-8.9088,175,75
2026-05-09 14:57:46.356,4,0.05,1.56,1.51,5.3775999999999975,17.1426,9.3812,175,75
2026-05-09 14:57:46.365,4,-0.18,1.69,1.59,4.767599999999998,22.9426,30.3012,175,75
2026-05-09 14:57:46.389,4,0.28,1.37,1.24,-12.852400000000003,12.262600000000006,6.1512,175,75
2026-05-09 14:57:46.413,4,1.36,1.18,1.6,11.5976,52.63260000000001,44.6912,175,75
2026-05-09 14:57:46.428,4,0.6,1.17,1.9,42.9976,51.96260000000001,28.5312,175,75
2026-05-09 14:57:46.563,4,1.39,1.07,2.75,21.8476,209.70260000000002,39.8712,175,75
2026-05-09 14:57:46.597,4,0.66,2.01,1.82,5.7475999999999985,-36.5774,-70.0688,175,75
2026-05-09 14:57:46.597,4,0.67,2.19,1.62,14.8276,-9.377399999999994,-37.2588,175,75
2026-05-09 14:57:46.614,4,0.58,1.98,1.51,31.107599999999998,-0.8374000000000024,-14.9488,175,75
2026-05-09 14:57:46.615,4,0.44,1.68,1.41,41.1076,21.96260000000001,-8.1188,175,75
2026-05-09 14:57:46.631,4,0.33,1.42,1.38,45.1376,58.42260000000002,1.0312000000000006,175,75
2026-05-09 14:57:46.637,4,0.32,1.3,1.43,53.1276,89.3426,12.2512,175,75
2026-05-09 14:57:46.669,4,0.31,1.45,1.91,52.1476,21.35260000000001,-11.4088,175,75
2026-05-09 14:57:46.703,4,0.25,1.59,1.84,31.357599999999998,-40.047399999999996,-36.0388,175,75
2026-05-09 14:57:46.753,4,0.18,1.44,1.76,41.477599999999995,23.912599999999998,-16.528799999999997,175,75
2026-05-09 14:57:46.773,4,0.22,1.45,1.82,35.9876,-28.647399999999998,-20.3688,175,75
2026-05-09 14:57:46.782,4,0.19,1.47,1.7,26.0476,-69.8074,-27.808799999999998,175,75
2026-05-09 14:57:46.826,4,0.32,1.64,1.54,15.927599999999998,-44.987399999999994,-18.418799999999997,175,75
2026-05-09 14:57:46.867,4,0.4,1.59,1.49,12.4576,-25.837399999999995,-12.868799999999998,175,75
2026-05-09 14:57:46.867,4,0.42,1.62,1.47,7.9376,-18.587399999999995,-12.998800000000001,175,75
2026-05-09 14:57:46.902,4,0.44,1.66,1.41,0.6875999999999998,5.072600000000008,-9.2788,175,75
2026-05-09 14:57:46.925,4,0.41,1.67,1.39,-0.7824000000000026,25.4426,-5.918799999999999,175,75
2026-05-09 14:57:46.925,4,0.38,1.69,1.41,-2.0024000000000015,48.6126,-2.7487999999999992,175,75
2026-05-09 14:57:46.997,4,0.27,1.62,1.6,1.7175999999999974,64.64260000000002,-1.7787999999999995,175,75
2026-05-09 14:57:46.997,4,0.26,1.64,1.61,4.287599999999998,65.0726,0.11120000000000019,175,75
2026-05-09 14:57:47.012,4,0.2,1.66,1.61,6.787599999999998,69.70260000000002,2.0012000000000003,175,75
2026-05-09 14:57:47.023,4,0.2,1.64,1.61,8.5476,72.51259999999999,1.8212000000000006,175,75
2026-05-09 14:57:47.059,4,0.29,1.6,1.6,10.6876,66.3526,-3.1187999999999994,175,75
2026-05-09 14:57:47.151,4,0.16,1.58,1.58,-5.712400000000002,-5.837400000000002,-29.5188,175,75
2026-05-09 14:57:47.226,4,0.03,1.5,1.57,-15.232399999999998,-6.997399999999999,-19.7588,175,75
2026-05-09 14:57:47.226,4,0.03,1.47,1.59,-18.642400000000002,-16.267399999999995,-20.738799999999998,175,75
2026-05-09 14:57:47.239,4,0.03,1.47,1.62,-21.572400000000002,-29.987399999999994,-22.6288,175,75
2026-05-09 14:57:47.249,4,0.05,1.51,1.64,-24.8024,-39.7474,-24.3388,175,75
2026-05-09 14:57:47.281,4,0.04,1.55,1.56,-32.8524,-50.837399999999995,-16.288800000000002,175,75
2026-05-09 14:57:47.357,4,0.23,1.38,1.52,-29.072400000000002,18.9726,9.3812,175,75
2026-05-09 14:57:47.370,4,0.27,1.31,1.56,-26.322400000000002,33.85260000000001,10.301200000000001,175,75
2026-05-09 14:57:47.472,4,0.31,1.3,1.75,-20.6524,16.232600000000005,-7.3888,175,75
2026-05-09 14:57:47.472,4,0.32,1.36,1.78,-22.852400000000003,1.9026000000000067,-13.6088,175,75
2026-05-09 14:57:47.490,4,0.21,1.59,1.79,-24.2524,-31.207399999999993,-21.4088,175,75
2026-05-09 14:57:47.542,4,-0.01,1.77,1.84,-25.9024,-53.157399999999996,-15.7388,175,75
2026-05-09 14:57:47.553,4,-0.02,1.85,1.85,-37.7324,-45.9674,-7.1388,175,75
2026-05-09 14:57:47.553,4,0.08,1.86,1.78,-43.7624,-34.9274,3.0412000000000003,175,75
2026-05-09 14:57:47.618,4,0.36,1.71,1.85,-23.5824,98.24260000000001,43.041199999999996,175,75
2026-05-09 14:57:47.641,4,0.38,1.67,2.01,-14.252400000000002,82.6926,39.6312,175,75
2026-05-09 14:57:47.653,4,0.42,1.57,2.01,-16.022400000000005,53.0626,26.8812,175,75
2026-05-09 14:57:47.702,4,0.33,1.61,2.12,3.1275999999999975,80.3726,22.4912,175,75
2026-05-09 14:57:47.702,4,0.39,1.62,2.21,2.0275999999999996,43.3626,15.4212,175,75
2026-05-09 14:57:47.733,4,0.4,1.55,1.71,13.067599999999999,-5.107399999999998,5.8512,175,75
2026-05-09 14:57:47.745,4,0.41,1.5,1.73,17.147599999999997,5.442599999999999,4.0212,175,75
2026-05-09 14:57:47.757,4,0.49,1.44,1.78,22.8776,-13.947399999999995,0.9712000000000005,175,75
2026-05-09 14:57:47.768,4,0.37,1.42,1.75,24.647599999999997,-33.27739999999999,-5.498799999999999,175,75
2026-05-09 14:57:47.783,4,0.2,1.4,1.69,14.887599999999999,-44.2574,-21.2288,175,75
2026-05-09 14:57:47.795,4,0.22,1.41,1.65,10.377599999999997,-38.587399999999995,-22.6888,175,75
2026-05-09 14:57:47.795,4,0.24,1.38,1.62,11.537599999999998,-36.5774,-24.2188,175,75
2026-05-09 14:57:47.806,4,0.26,1.33,1.67,15.687599999999998,-38.767399999999995,-27.4488,175,75
2026-05-09 14:57:47.846,4,0.12,1.48,1.52,1.5976,-87.1874,-52.2588,175,75
2026-05-09 14:57:47.860,4,0.08,1.55,1.51,-1.3224000000000018,-63.8874,-44.2188,175,75
2026-05-09 14:57:48.071,4,0.16,1.61,1.47,5.6275999999999975,-16.267399999999995,4.4412,175,75
2026-05-09 14:57:48.071,4,0.12,1.62,1.51,7.9376,-17.737399999999994,9.8112,175,75
2026-05-09 14:57:48.071,4,0.05,1.61,1.49,8.977599999999999,-14.557399999999994,11.8812,175,75
2026-05-09 14:57:48.100,4,0.21,1.66,1.45,10.137599999999999,-10.537399999999998,16.941200000000002,175,75
2026-05-09 14:57:48.112,4,0.21,1.69,1.48,11.907599999999999,-12.547399999999996,22.7412,175,75
2026-05-09 14:57:48.120,4,0.05,1.74,1.56,12.4576,-17.8574,31.2712,175,75
2026-05-09 14:57:48.159,4,-0.05,1.68,1.57,14.7076,-81.14739999999999,19.3212,175,75
2026-05-09 14:57:48.161,4,0.58,1.37,1.32,20.927599999999998,-66.20739999999999,-0.9187999999999992,175,75
2026-05-09 14:57:48.188,4,0.42,1.28,1.24,0.7475999999999985,-45.657399999999996,19.0212,175,75
2026-05-09 14:57:48.199,4,0.84,1.39,1.42,3.3675999999999995,10.74260000000001,24.321199999999997,175,75
2026-05-09 14:57:48.221,4,-2.97,1.76,0.5,81.5976,-57.977399999999996,-111.9588,175,75
2026-05-09 14:57:48.250,4,2.02,1.56,1.44,-22.1824,206.5326,72.80120000000001,175,75
2026-05-09 14:57:48.275,4,0.25,1.37,2.43,-20.782400000000003,-234.3174,-66.52879999999999,175,75
2026-05-09 14:57:48.288,4,0.59,1.96,0.63,34.5276,-111.9374,-27.3288,175,75
2026-05-09 14:57:48.307,4,0.0,1.78,0.88,43.1276,124.4026,19.9312,175,75
2026-05-09 14:57:48.307,4,0.19,1.76,1.3,33.797599999999996,332.1426,62.4312,175,75
2026-05-09 14:57:48.324,4,0.72,1.63,2.03,49.4076,378.9126,69.08120000000001,175,75
2026-05-09 14:57:48.396,4,0.32,1.51,2.15,-1.9324000000000012,-97.4874,-37.1988,175,75
2026-05-09 14:57:48.406,4,0.34,1.62,1.81,-20.412399999999998,-137.9774,-47.3888,175,75
2026-05-09 14:57:48.421,4,0.2,1.58,1.36,-2.3023999999999987,-64.6874,-24.5788,175,75
2026-05-09 14:57:48.432,4,0.31,1.41,1.42,1.7175999999999974,28.732600000000005,-14.3988,175,75
2026-05-09 14:57:48.484,4,0.25,1.4,1.68,6.537599999999998,-4.317399999999992,-26.4688,175,75
2026-05-09 14:57:48.518,4,0.36,1.45,1.74,6.787599999999998,-3.2774,-25.308799999999998,175,75
2026-05-09 14:57:48.547,4,0.38,1.49,1.66,0.19759999999999778,-6.757399999999997,-22.0788,175,75
2026-05-09 14:57:48.577,4,0.46,1.56,1.78,-9.252400000000002,11.842600000000004,-1.7187999999999999,175,75
2026-05-09 14:57:48.599,4,0.6,1.59,1.78,-9.432400000000001,5.922600000000003,3.5312000000000006,175,75
2026-05-09 14:57:48.686,4,0.58,1.57,1.75,-8.092399999999998,0.6826000000000079,4.0212,175,75
2026-05-09 14:57:48.723,4,0.59,1.33,1.88,0.6275999999999975,107.8126,14.0812,175,75
2026-05-09 14:57:48.728,4,0.48,1.33,1.93,-2.7323999999999984,85.3126,2.7412,175,75
2026-05-09 14:57:48.819,4,0.39,1.44,1.89,-10.6524,53.6126,-5.9788,175,75
2026-05-09 14:57:48.819,4,0.35,1.45,1.84,-13.092399999999998,49.1626,-5.7988,175,75
2026-05-09 14:57:48.819,4,0.21,1.46,1.84,-10.9024,76.5326,9.9912,175,75
2026-05-09 14:57:48.871,4,0.21,1.37,1.92,-6.022400000000005,38.6726,8.2812,175,75
2026-05-09 14:57:48.893,4,-0.11,1.28,1.91,-12.9724,1.7226,42.3112,175,75
2026-05-09 14:57:48.893,4,0.03,1.11,1.8,-11.022400000000005,-14.627399999999994,35.4812,175,75
2026-05-09 14:57:48.910,4,0.69,0.87,1.56,1.477599999999999,-9.257399999999997,0.05120000000000058,175,75
2026-05-09 14:57:48.927,4,1.38,0.64,1.67,-11.2624,-20.237399999999994,19.8112,175,75
2026-05-09 14:57:48.954,4,0.16,0.75,1.55,11.0476,-22.4274,14.5012,175,75
2026-05-09 14:57:49.049,4,0.72,1.29,1.7,66.29759999999999,29.8926,-6.0388,175,75
2026-05-09 14:57:49.049,4,0.34,1.26,1.82,-31.6924,67.20260000000002,-40.3088,175,75
2026-05-09 14:57:49.049,4,0.67,1.35,1.83,-29.072400000000002,35.8026,-39.7588,175,75
2026-05-09 14:57:49.049,4,0.45,1.47,1.78,8.4876,-13.277399999999993,-24.3388,175,75
2026-05-09 14:57:49.049,4,0.12,1.36,1.83,1.357599999999998,25.07260000000001,-23.9088,175,75
2026-05-09 14:57:49.049,4,0.16,1.41,1.85,-2.3023999999999987,84.2226,-17.808799999999998,175,75
2026-05-09 14:57:49.205,4,0.18,1.46,1.98,5.567599999999999,99.89260000000002,-16.2288,175,75
2026-05-09 14:57:49.205,4,0.1,1.52,2.19,17.0276,93.7926,-17.3288,175,75
2026-05-09 14:57:49.205,4,-0.02,1.61,2.48,19.467599999999997,56.4726,-18.7288,175,75
2026-05-09 14:57:49.205,4,-0.03,1.63,2.66,7.267599999999998,6.5926000000000045,-19.5188,175,75
2026-05-09 14:57:49.205,4,0.2,1.59,2.26,-1.4524000000000044,-126.3274,-7.078799999999999,175,75
2026-05-09 14:57:49.205,4,0.13,1.62,2.08,15.687599999999998,-111.0274,4.2012,175,75
2026-05-09 14:57:49.205,4,0.26,1.54,2.0,27.697599999999998,-38.4674,21.941200000000002,175,75
2026-05-09 14:57:49.205,4,0.3,1.56,2.05,27.0276,-17.127399999999994,27.7412,175,75
2026-05-09 14:57:49.205,4,0.38,1.52,2.14,35.867599999999996,-38.09739999999999,20.8512,175,75
2026-05-09 14:57:49.329,4,0.38,1.54,1.61,59.4676,-59.987399999999994,11.821200000000001,175,75
2026-05-09 14:57:49.329,4,0.35,1.56,1.59,66.5976,68.0026,35.4212,175,75
2026-05-09 14:57:49.329,4,0.39,1.55,1.7,69.2176,103.9726,43.831199999999995,175,75
2026-05-09 14:57:49.329,4,0.45,1.52,1.82,73.7376,118.24260000000001,50.3612,175,75
2026-05-09 14:57:49.468,4,0.41,1.29,2.02,72.32759999999999,66.3526,42.3112,175,75
2026-05-09 14:57:49.468,4,0.34,1.18,1.85,98.3076,62.392600000000016,40.2412,175,75
2026-05-09 14:57:49.469,4,0.38,1.17,1.88,96.3576,71.11260000000001,39.9312,175,75
2026-05-09 14:57:49.469,4,0.4,1.2,1.89,94.7076,59.52260000000001,37.0012,175,75
2026-05-09 14:57:49.472,4,0.33,1.16,1.99,98.9776,59.52260000000001,28.7712,175,75
2026-05-09 14:57:49.484,4,0.33,1.22,1.97,95.4976,27.63260000000001,24.3812,175,75
2026-05-09 14:57:49.677,4,0.39,1.24,1.85,93.9176,7.632600000000011,24.6312,175,75
2026-05-09 14:57:49.677,4,0.4,1.25,1.72,92.7576,7.512600000000006,27.861200000000004,175,75
2026-05-09 14:57:49.677,4,0.21,1.23,1.56,92.57759999999999,78.0026,46.6412,175,75
2026-05-09 14:57:49.677,4,0.18,1.2,1.6,93.6776,118.0626,55.2412,175,75
2026-05-09 14:57:49.677,4,0.3,1.12,1.76,94.3476,156.7226,62.9212,175,75
2026-05-09 14:57:49.677,4,0.22,1.02,1.55,75.2576,114.46260000000001,58.1612,175,75
2026-05-09 14:57:49.678,4,0.24,1.03,1.62,74.7676,148.1226,67.0712,175,75
2026-05-09 14:57:49.678,4,0.33,1.06,1.74,70.5676,164.70260000000002,76.33120000000001,175,75
2026-05-09 14:57:49.678,4,0.39,1.11,1.83,69.0976,148.0026,81.2112,175,75
2026-05-09 14:57:49.678,4,0.3,1.17,1.9,67.63759999999999,103.36260000000001,85.66120000000001,175,75
2026-05-09 14:57:49.932,4,0.39,1.21,1.84,71.5976,98.18260000000001,102.0612,175,75
2026-05-09 14:57:49.933,4,0.37,1.09,1.67,122.8776,172.20260000000002,173.8312,175,75
2026-05-09 14:57:49.933,4,0.02,1.14,1.67,124.5876,200.68259999999998,195.1712,175,75
2026-05-09 14:57:49.933,4,0.5,0.95,1.83,146.6576,265.3726,188.2212,175,75
2026-05-09 14:57:49.934,4,1.28,0.68,2.75,165.8076,80.01259999999999,215.9112,175,75
2026-05-09 14:57:49.934,4,-1.38,0.58,0.35,169.6476,-28.947399999999995,-12.9288,175,75
2026-05-09 14:57:49.934,4,2.0,0.99,2.19,200.9276,350.1926,209.8112,175,75
2026-05-09 14:57:49.934,4,1.0,0.51,2.83,229.95759999999999,-114.9274,61.331199999999995,175,75
2026-05-09 14:57:49.934,4,1.18,0.39,2.16,109.5876,-100.3574,1.2712000000000003,175,75
2026-05-09 14:57:49.934,4,1.69,0.85,1.33,91.4176,-83.4674,-35.6788,175,75
2026-05-09 14:57:50.044,4,0.65,1.56,1.1,149.76760000000002,89.1626,42.4312,175,75
2026-05-09 14:57:50.044,4,0.77,1.55,1.12,138.42759999999998,180.6826,64.3812,175,75
2026-05-09 14:57:50.044,4,0.92,1.47,1.37,161.2376,183.1226,77.4912,175,75
2026-05-09 14:57:50.044,4,0.89,1.3,1.6,178.4876,128.7926,78.9612,175,75
2026-05-09 14:57:50.044,4,0.69,1.09,1.71,175.3176,52.63260000000001,61.3912,175,75
2026-05-09 14:57:50.413,4,0.58,1.12,1.33,131.2376,-31.387399999999992,5.661200000000001,175,75
2026-05-09 14:57:50.413,4,0.57,1.1,1.22,134.76760000000002,-23.217399999999998,-2.5088,175,75
2026-05-09 14:57:50.413,4,0.4,1.16,1.14,127.63759999999999,-1.9373999999999967,-4.088799999999999,175,75
2026-05-09 14:57:50.413,4,0.41,1.17,1.2,120.3776,9.462600000000009,-5.6188,175,75
2026-05-09 14:57:50.413,4,0.45,1.22,1.25,98.0676,3.182600000000008,-12.8088,175,75
2026-05-09 14:57:50.413,4,0.48,1.25,1.22,78.0676,-32.4274,-26.2288,175,75
2026-05-09 14:57:50.413,4,0.42,1.27,1.19,68.1876,-58.0374,-32.5088,175,75
2026-05-09 14:57:50.414,4,0.28,1.27,1.17,61.9076,-58.337399999999995,-36.5888,175,75
2026-05-09 14:57:50.414,4,0.25,1.27,1.18,55.197599999999994,-45.297399999999996,-40.6188,175,75
2026-05-09 14:57:50.414,4,0.36,1.31,1.28,41.1776,-71.0874,-51.4088,175,75
2026-05-09 14:57:50.414,4,0.33,1.28,1.28,34.0376,-111.44739999999999,-61.348800000000004,175,75
2026-05-09 14:57:50.414,4,0.27,1.25,1.22,27.517599999999998,-130.9074,-66.4088,175,75
2026-05-09 14:57:50.414,4,0.12,1.37,1.12,13.127599999999997,-139.4374,-76.46879999999999,175,75
2026-05-09 14:57:50.414,4,0.15,1.53,1.0,-21.6924,-148.8274,-87.38879999999999,175,75
2026-05-09 14:57:50.414,4,0.18,1.54,0.88,-32.1224,-130.04739999999998,-83.35879999999999,175,75
2026-05-09 14:57:50.414,4,0.2,1.54,0.81,-38.0924,-91.5174,-76.16879999999999,175,75
2026-05-09 14:57:50.415,4,0.21,1.59,0.82,-40.2324,-59.807399999999994,-70.55879999999999,175,75
2026-05-09 14:57:50.415,4,0.26,1.67,0.9,-42.2424,-26.207399999999993,-63.608799999999995,175,75
2026-05-09 14:57:50.415,4,0.32,1.75,1.01,-46.392399999999995,-5.717399999999998,-58.5388,175,75
2026-05-09 14:57:50.415,4,0.33,1.77,1.11,-50.8424,-4.627399999999994,-56.1088,175,75
2026-05-09 14:57:50.415,4,0.12,1.99,1.24,-72.7924,-37.367399999999996,-46.528800000000004,175,75
2026-05-09 14:57:50.780,4,0.09,1.93,1.28,-76.5124,-8.767399999999995,-31.8988,175,75
2026-05-09 14:57:50.780,4,0.32,1.81,1.51,-88.7024,-19.437399999999997,0.9112000000000005,175,75
2026-05-09 14:57:50.780,4,0.38,1.68,1.49,-86.6924,-10.777399999999993,1.7012000000000005,175,75
2026-05-09 14:57:50.780,4,0.37,1.64,1.5,-84.86240000000001,-12.307399999999994,1.8212000000000006,175,75
2026-05-09 14:57:50.780,4,0.32,1.6,1.5,-82.4824,-13.587399999999995,2.0612000000000004,175,75
2026-05-09 14:57:50.780,4,0.28,1.53,1.48,-78.4624,-11.517399999999995,0.24120000000000008,175,75
2026-05-09 14:57:50.781,4,0.28,1.46,1.45,-76.7524,-0.2973999999999961,0.5412000000000003,175,75
2026-05-09 14:57:50.781,4,-0.12,1.28,1.56,-76.3924,52.202600000000004,-4.4588,175,75
2026-05-09 14:57:50.781,4,-0.2,1.39,1.59,-77.4224,50.8626,7.4312000000000005,175,75
2026-05-09 14:57:50.781,4,-0.31,1.49,1.61,-73.5824,43.4226,20.6012,175,75
2026-05-09 14:57:50.781,4,-0.43,1.53,1.52,-74.1324,33.6726,22.5512,175,75
2026-05-09 14:57:50.781,4,0.82,1.1,1.53,-60.9624,101.5326,-32.0188,175,75
2026-05-09 14:57:50.782,4,1.31,0.96,1.62,-104.5624,46.7826,4.2012,175,75
2026-05-09 14:57:50.782,4,1.31,0.91,1.67,-51.4524,34.6426,-43.0588,175,75
2026-05-09 14:57:50.782,4,0.8,0.9,2.01,-44.252399999999994,32.872600000000006,-15.1288,175,75
2026-05-09 14:57:50.782,4,0.11,1.03,2.42,-57.61240000000001,14.5826,-2.1388,175,75
2026-05-09 14:57:50.782,4,2.45,1.06,1.68,-126.9324,-135.9674,-243.1788,175,75
2026-05-09 14:57:50.984,4,2.63,1.65,1.31,-189.3724,-143.2774,-114.88879999999999,175,75
2026-05-09 14:57:50.985,4,0.72,1.79,1.68,-68.7624,-54.4974,-122.3288,175,75
2026-05-09 14:57:50.985,4,0.75,1.53,1.63,-67.1824,-11.387399999999992,-109.27879999999999,175,75
2026-05-09 14:57:50.985,4,0.7,1.54,1.82,-67.6724,17.3926,-105.1288,175,75
2026-05-09 14:57:50.985,4,0.21,1.75,2.17,-62.2424,-126.75739999999999,-112.0788,175,75
2026-05-09 14:57:50.985,4,0.13,1.76,2.1,-78.8224,-147.48739999999998,-113.47879999999999,175,75
2026-05-09 14:57:50.985,4,0.16,1.8,1.94,-102.0624,-185.9674,-118.41879999999999,175,75
2026-05-09 14:57:50.985,4,0.06,1.64,1.67,-105.7824,-262.05740000000003,-106.77879999999999,175,75
2026-05-09 14:57:50.985,4,-0.08,1.44,1.53,-94.6224,-240.1674,-86.77879999999999,175,75
2026-05-09 14:57:50.986,4,-0.12,1.3,1.42,-92.1224,-201.4474,-75.6188,175,75
2026-05-09 14:57:50.986,4,-0.03,1.19,1.36,-88.4624,-147.2474,-65.7388,175,75
2026-05-09 14:57:50.986,4,0.07,1.13,1.37,-86.5124,-73.9474,-51.8388,175,75
2026-05-09 14:57:50.986,4,0.26,1.01,1.53,-63.22240000000001,2.6326000000000107,-46.5888,175,75
2026-05-09 14:57:50.986,4,0.38,0.93,1.77,-55.412400000000005,11.782600000000002,-47.0788,175,75
2026-05-09 14:57:50.986,4,0.48,0.86,2.07,-51.8724,-19.437399999999997,-70.49879999999999,175,75
2026-05-09 14:57:51.082,4,0.57,0.99,2.82,-52.7924,-312.05740000000003,-141.28879999999998,175,75
2026-05-09 14:57:51.082,4,0.05,1.25,2.73,-63.4624,-579.0774,-176.8988,175,75
2026-05-09 14:57:51.125,4,-0.5,1.64,2.17,-73.9524,-739.1974,-160.06879999999998,175,75
2026-05-09 14:57:51.125,4,-0.64,1.75,1.92,-70.5324,-766.0873999999999,-142.7488,175,75
2026-05-09 14:57:51.125,4,-0.7,1.8,1.72,-64.6224,-768.4074,-130.9188,175,75
2026-05-09 14:57:51.125,4,-0.6,1.82,1.4,-63.4024,-764.6274000000001,-114.27879999999999,175,75
2026-05-09 14:57:51.185,4,-0.5,1.66,0.77,-97.79240000000001,-738.2774,-96.3488,175,75
2026-05-09 14:57:51.185,4,-0.48,1.73,0.49,-93.8924,-701.5773999999999,-87.5688,175,75
2026-05-09 14:57:51.185,4,-0.45,1.88,0.22,-73.3424,-597.5473999999999,-64.7588,175,75
2026-05-09 14:57:51.237,4,-0.08,1.82,0.22,-56.2024,-227.54739999999998,-28.668800000000005,175,75
2026-05-09 14:57:51.426,4,0.01,1.7,0.86,2.637599999999999,-167.79739999999998,-39.3988,175,75
2026-05-09 14:57:51.426,4,-0.04,1.6,0.82,16.357599999999998,-119.7474,-40.6188,175,75
2026-05-09 14:57:51.426,4,-0.06,1.54,0.84,20.017599999999998,-109.6874,-42.9288,175,75
2026-05-09 14:57:51.426,4,-0.1,1.62,0.96,42.7576,-69.86739999999999,-42.8688,175,75
2026-05-09 14:57:51.426,4,-0.09,1.6,0.99,49.0376,-75.47739999999999,-42.8688,175,75
2026-05-09 14:57:51.455,4,-0.12,1.47,0.9,46.7176,-107.3074,-47.6888,175,75
2026-05-09 14:57:51.455,4,-0.24,1.49,0.69,45.1976,-103.0974,-53.7288,175,75
2026-05-09 14:57:51.672,4,-0.32,1.6,0.66,59.3476,-29.9274,-46.8988,175,75
2026-05-09 14:57:51.672,4,-0.37,1.57,0.64,61.1076,-21.697399999999995,-44.8288,175,75
2026-05-09 14:57:51.672,4,-0.47,1.56,0.63,60.077600000000004,-16.517399999999995,-41.1088,175,75
2026-05-09 14:57:51.672,4,-0.55,1.57,0.61,59.2176,-10.477399999999996,-37.3288,175,75
2026-05-09 14:57:51.672,4,-0.6,1.64,0.59,59.2176,-6.0274,-32.0188,175,75
2026-05-09 14:57:51.672,4,-0.57,1.7,0.57,62.8176,-3.5274,-26.6488,175,75
2026-05-09 14:57:51.672,4,-0.34,1.61,0.47,63.2476,-18.587399999999995,-20.498800000000003,175,75
2026-05-09 14:57:51.672,4,-0.22,1.45,0.43,67.32759999999999,-21.757399999999997,-33.3588,175,75
2026-05-09 14:57:51.673,4,-0.09,1.29,0.6,82.57759999999999,15.74260000000001,-43.7288,175,75
2026-05-09 14:57:51.673,4,-0.58,1.28,0.64,53.367599999999996,-4.317399999999992,-36.5888,175,75
2026-05-09 14:57:51.673,4,0.08,1.38,0.38,55.9276,-141.69740000000002,-110.97879999999999,175,75
2026-05-09 14:57:51.673,4,-0.43,1.28,0.42,50.4976,-127.3074,-101.0388,175,75
2026-05-09 14:57:51.673,4,-0.68,1.46,0.38,43.2476,-102.0574,-119.69879999999999,175,75
2026-05-09 14:57:51.716,4,-0.9,1.44,0.12,50.197599999999994,-25.967399999999998,-83.9088,175,75
2026-05-09 14:57:51.915,4,-0.92,1.75,0.23,45.7476,-1.6373999999999995,-62.4488,175,75
2026-05-09 14:57:51.915,4,-1.02,1.86,0.33,44.4676,-6.3873999999999995,-37.9288,175,75
2026-05-09 14:57:51.915,4,-0.66,1.44,0.32,30.5676,-85.4174,-25.068800000000003,175,75
2026-05-09 14:57:51.915,4,-1.06,1.56,0.04,-24.6224,-95.7174,6.581200000000001,175,75
2026-05-09 14:57:51.915,4,-1.15,1.64,0.01,-29.3724,-69.1974,19.441200000000002,175,75
2026-05-09 14:57:51.915,4,-1.01,1.45,0.19,-45.3524,-21.087399999999995,53.831199999999995,175,75
2026-05-09 14:57:51.916,4,-1.05,1.47,0.23,-61.752399999999994,-39.6874,68.2212,175,75
2026-05-09 14:57:51.916,4,-1.06,1.53,0.2,-66.8724,-37.367399999999996,82.7412,175,75
2026-05-09 14:57:51.967,4,-0.93,1.49,0.21,-72.3024,-3.8873999999999995,101.8212,175,75
2026-05-09 14:57:51.967,4,-0.9,1.49,0.27,-82.0624,2.3325999999999993,110.1712,175,75
2026-05-09 14:57:52.002,4,-0.9,1.53,0.15,-106.7524,7.452600000000004,131.5812,175,75
2026-05-09 14:57:52.060,4,-0.88,1.51,0.13,-112.0024,43.122600000000006,141.3912,175,75
2026-05-09 14:57:52.060,4,-0.82,1.45,0.13,-118.2824,81.2926,150.3612,175,75
2026-05-09 14:57:52.060,4,-0.6,1.38,0.42,-149.5024,235.19260000000003,183.2812,175,75
2026-05-09 14:57:52.074,4,-0.54,1.32,0.7,-165.4124,251.5326,200.9712,175,75
2026-05-09 14:57:52.104,4,-0.4,1.22,0.79,-177.4824,252.0826,203.8312,175,75
2026-05-09 14:57:52.104,4,-0.31,1.15,0.8,-188.5224,255.9226,202.8612,175,75
2026-05-09 14:57:52.113,4,-0.23,1.14,0.81,-200.7224,265.7426,199.2012,175,75
2026-05-09 14:57:52.250,4,-0.31,1.11,1.0,-220.2324,338.4826,201.9412,175,75
2026-05-09 14:57:52.250,4,-0.16,0.92,1.17,-238.46239999999997,393.7926,186.9412,175,75
2026-05-09 14:57:52.250,4,-0.1,0.85,1.28,-253.09240000000003,404.0326,174.2012,175,75
2026-05-09 14:57:52.250,4,-0.13,0.84,1.44,-263.2224,410.3726,161.8212,175,75
2026-05-09 14:57:52.250,4,-0.14,0.82,1.6,-265.17240000000004,409.5826,154.0212,175,75
2026-05-09 14:57:52.251,4,-0.14,0.73,1.86,-272.2424,350.31260000000003,118.5912,175,75
2026-05-09 14:57:52.251,4,-0.06,0.58,1.94,-287.9724,265.6826,78.3512,175,75
2026-05-09 14:57:52.259,4,0.02,0.55,1.94,-297.9724,235.74259999999998,62.0012,175,75
2026-05-09 14:57:52.268,4,-0.03,0.62,2.02,-301.8124,200.44260000000003,54.081199999999995,175,75
2026-05-09 14:57:52.394,4,-0.09,0.5,1.83,-306.75239999999997,68.61260000000001,-5.3088,175,75
2026-05-09 14:57:52.394,4,-0.14,0.54,1.88,-303.52239999999995,92.9426,5.051200000000001,175,75
2026-05-09 14:57:52.394,4,-0.19,0.4,2.1,-289.37239999999997,72.02260000000001,-15.3088,175,75
2026-05-09 14:57:52.394,4,-0.24,0.35,2.03,-285.65240000000006,39.2226,-28.1188,175,75
2026-05-09 14:57:52.666,4,-0.27,0.3,1.9,-285.8424,25.4426,-37.9288,175,75
2026-05-09 14:57:52.666,4,-0.14,0.25,1.81,-295.65240000000006,58.612600000000015,-41.7188,175,75
2026-05-09 14:57:52.666,4,-0.1,0.21,1.78,-296.3224,71.5926,-43.9088,175,75
2026-05-09 14:57:52.666,4,-0.19,0.17,1.76,-287.0624,46.96260000000001,-60.9788,175,75
2026-05-09 14:57:52.666,4,0.12,0.03,2.07,-286.0824,102.45260000000002,-75.49879999999999,175,75
2026-05-09 14:57:52.666,4,-0.03,-0.01,2.22,-270.2324,72.20260000000002,-79.8288,175,75
2026-05-09 14:57:52.667,4,-0.28,-0.1,2.37,-245.90240000000003,25.74260000000001,-92.6288,175,75
2026-05-09 14:57:52.667,4,-0.39,-0.13,2.51,-234.1924,-18.407399999999996,-103.8488,175,75
2026-05-09 14:57:52.667,4,-0.33,-0.2,2.66,-228.22240000000002,-37.1874,-117.74879999999999,175,75
2026-05-09 14:57:52.667,4,-0.29,0.09,2.59,-137.2424,-223.3374,-103.72879999999999,175,75
2026-05-09 14:57:52.667,4,-0.19,0.06,2.38,-117.73240000000001,-256.2674,-90.7388,175,75
2026-05-09 14:57:52.667,4,-0.1,0.01,2.21,-102.79240000000001,-263.4074,-78.9088,175,75
2026-05-09 14:57:52.993,4,0.04,0.02,1.88,-49.802400000000006,-192.1274,-5.7988,175,75
2026-05-09 14:57:52.993,4,0.01,0.07,1.92,-29.9824,-168.5274,20.721200000000003,175,75
2026-05-09 14:57:52.993,4,-0.09,0.08,2.0,-4.132400000000004,-150.23739999999998,47.4912,175,75
2026-05-09 14:57:52.993,4,-0.12,0.06,2.02,12.7576,-152.48739999999998,60.0512,175,75
2026-05-09 14:57:52.993,4,-0.17,-0.0,1.99,33.8576,-166.5174,73.41120000000001,175,75
2026-05-09 14:57:52.993,4,-0.2,-0.09,1.9,55.1376,-175.6574,85.4212,175,75
2026-05-09 14:57:52.993,4,-0.22,-0.23,1.5,121.2976,-122.6074,194.93120000000002,175,75
2026-05-09 14:57:52.993,4,-0.27,-0.22,1.45,123.9176,-137.85739999999998,203.2812,175,75
2026-05-09 14:57:52.993,4,-0.29,-0.24,1.36,113.2476,-142.73739999999998,216.15120000000002,175,75
2026-05-09 14:57:52.993,4,-0.33,-0.22,1.34,102.5776,-137.73739999999998,230.1712,175,75
2026-05-09 14:57:52.993,4,-0.34,-0.2,1.31,96.2376,-143.5274,235.3612,175,75
2026-05-09 14:57:52.994,4,-0.17,-0.27,1.02,52.5176,-137.42739999999998,235.7212,175,75
2026-05-09 14:57:52.994,4,-0.13,-0.28,1.0,40.6276,-126.0874,237.0012,175,75
2026-05-09 14:57:52.994,4,-0.09,-0.3,0.98,22.8176,-110.5974,235.2412,175,75
2026-05-09 14:57:52.994,4,-0.03,-0.28,1.01,9.217599999999997,-103.03739999999999,233.71120000000002,175,75
2026-05-09 14:57:52.994,4,0.05,-0.18,1.12,-18.4024,-88.5274,224.3812,175,75
2026-05-09 14:57:53.056,4,0.02,-0.02,1.22,-34.0124,-102.7374,212.4912,175,75
2026-05-09 14:57:53.056,4,0.02,0.01,1.29,-27.062400000000004,-147.60739999999998,189.3212,175,75
2026-05-09 14:57:53.056,4,0.05,-0.17,1.22,-26.572400000000002,-148.2174,175.9712,175,75
2026-05-09 14:57:53.056,4,0.04,-0.28,1.12,-39.132400000000004,-149.4374,156.6412,175,75
2026-05-09 14:57:53.056,4,0.02,-0.24,1.05,-55.532399999999996,-150.04739999999998,134.8112,175,75
2026-05-09 14:57:53.056,4,0.01,-0.14,1.01,-64.9224,-141.1474,121.4612,175,75
2026-05-09 14:57:53.075,4,-0.07,-0.03,1.01,-63.58240000000001,-36.447399999999995,123.83120000000001,175,75
2026-05-09 14:57:53.093,4,-0.02,-0.23,1.1,-60.9624,5.252600000000001,124.2012,175,75
2026-05-09 14:57:53.093,4,0.02,-0.36,1.22,-67.6724,15.442599999999999,115.11120000000001,175,75
2026-05-09 14:57:53.493,4,0.03,-0.39,1.55,-98.82239999999999,-50.7774,62.3112,175,75
2026-05-09 14:57:53.493,4,-0.06,-0.27,1.64,-104.13239999999999,-103.2174,38.471199999999996,175,75
2026-05-09 14:57:53.493,4,-0.0,-0.26,1.35,-111.32239999999999,-139.2574,6.2712,175,75
2026-05-09 14:57:53.493,4,0.03,-0.29,1.33,-108.2224,-131.9374,8.5912,175,75
2026-05-09 14:57:53.493,4,0.02,-0.32,1.37,-103.82239999999999,-118.03739999999999,11.7612,175,75
2026-05-09 14:57:53.493,4,0.07,-0.32,1.65,-104.98240000000001,-95.0474,2.8612,175,75
2026-05-09 14:57:53.494,4,0.1,-0.34,1.69,-101.32239999999999,-114.4974,-4.0288,175,75
2026-05-09 14:57:53.494,4,0.01,-0.38,1.6,-90.11240000000001,-131.8774,-13.2388,175,75
2026-05-09 14:57:53.494,4,0.03,-0.38,1.67,-88.0924,-97.7974,-11.2888,175,75
2026-05-09 14:57:53.494,4,0.03,-0.38,1.71,-85.6524,-96.5774,-12.568800000000001,175,75
2026-05-09 14:57:53.494,4,0.01,-0.51,1.72,-63.0924,-106.38739999999999,-27.928800000000003,175,75
2026-05-09 14:57:53.494,4,-0.02,-0.34,1.74,-58.4624,-103.8274,-35.8588,175,75
2026-05-09 14:57:53.494,4,-0.0,-0.36,1.71,-50.2324,-94.8674,-33.418800000000005,175,75
2026-05-09 14:57:54.088,4,-0.07,-0.49,1.39,-45.172399999999996,0.8025999999999982,-32.5688,175,75
2026-05-09 14:57:54.088,4,-0.24,-0.39,1.65,-53.7624,53.9126,-45.6188,175,75
2026-05-09 14:57:54.088,4,-0.01,-0.57,1.72,-34.7424,75.68260000000001,-126.46879999999999,175,75
2026-05-09 14:57:54.088,4,0.01,-0.59,1.69,-34.6224,67.39260000000002,-135.9788,175,75
2026-05-09 14:57:54.088,4,-0.1,-0.63,1.58,-27.7324,84.0926,-141.7188,175,75
2026-05-09 14:57:54.088,4,-0.19,-0.71,1.55,-20.532400000000003,117.6326,-145.06879999999998,175,75
2026-05-09 14:57:54.088,4,-0.2,-0.77,1.6,-15.6524,153.61260000000001,-144.8888,175,75
2026-05-09 14:57:54.089,4,-0.3,-0.82,1.7,-9.682400000000001,166.4726,-151.03879999999998,175,75
2026-05-09 14:57:54.089,4,-0.41,-0.87,1.72,0.6875999999999998,163.1826,-170.7988,175,75
2026-05-09 14:57:54.089,4,-0.23,-1.05,1.67,10.137599999999999,202.45260000000002,-205.4988,175,75
2026-05-09 14:57:54.089,4,-0.57,-1.2,1.56,65.1976,137.5726,-208.3588,175,75
2026-05-09 14:57:54.089,4,-0.73,-1.35,1.58,80.4376,122.6926,-219.8288,175,75
2026-05-09 14:57:54.090,4,-0.7,-1.48,1.65,49.3476,123.48259999999999,-246.34879999999998,175,75
2026-05-09 14:57:54.090,4,-0.61,-1.47,1.68,12.3276,121.23259999999999,-258.4188,175,75
2026-05-09 14:57:54.090,4,-0.46,-1.34,1.61,-15.172400000000003,105.3126,-264.9488,175,75
2026-05-09 14:57:54.090,4,-0.35,-1.12,1.46,-15.2924,65.6226,-265.4988,175,75
2026-05-09 14:57:54.090,4,-0.31,-0.96,1.35,-1.5123999999999995,33.24260000000001,-259.5788,175,75
2026-05-09 14:57:54.090,4,-0.35,-0.85,1.25,8.307599999999997,9.342600000000004,-252.3888,175,75
2026-05-09 14:57:54.090,4,-0.35,-0.75,1.16,7.3276,5.982600000000005,-247.1388,175,75
2026-05-09 14:57:54.090,4,-0.33,-0.6,1.12,0.8675999999999995,16.7226,-232.8088,175,75
2026-05-09 14:57:54.090,4,-0.27,-0.3,1.07,11.5976,55.372600000000006,-192.8088,175,75
2026-05-09 14:57:54.090,4,-0.23,-0.23,1.07,22.3876,60.92260000000002,-179.9488,175,75
2026-05-09 14:57:54.090,4,-0.19,-0.18,1.09,31.4776,60.622600000000006,-170.6188,175,75
2026-05-09 14:57:54.091,4,-0.22,0.44,1.1,62.087599999999995,0.8025999999999982,-123.6688,175,75
2026-05-09 14:57:54.091,4,-0.22,0.58,1.11,70.1976,1.1126000000000005,-99.3988,175,75
2026-05-09 14:57:54.091,4,-0.27,0.61,1.14,77.0276,0.19259999999999877,-90.7988,175,75
2026-05-09 14:57:54.091,4,-0.29,0.61,1.17,83.54759999999999,3.9125999999999976,-82.5688,175,75
2026-05-09 14:57:54.091,4,-0.27,0.61,1.2,86.5976,6.232600000000005,-74.02879999999999,175,75
2026-05-09 14:57:54.091,4,-0.24,0.62,1.22,88.2476,0.19259999999999877,-68.96879999999999,175,75
2026-05-09 14:57:54.091,4,-0.23,0.75,1.22,86.7176,-47.367399999999996,-45.1288,175,75
2026-05-09 14:57:54.091,4,-0.29,0.8,1.22,82.6976,-52.737399999999994,-30.7988,175,75
2026-05-09 14:57:54.091,4,-0.34,0.81,1.21,80.6276,-47.547399999999996,-20.7988,175,75
2026-05-09 14:57:54.092,4,-0.15,0.83,1.24,79.58760000000001,-0.16740000000000066,15.4212,175,75
2026-05-09 14:57:54.092,4,-0.16,0.86,1.32,77.6976,-17.6074,34.7512,175,75
2026-05-09 14:57:54.092,4,-0.26,0.85,1.4,75.80760000000001,-41.20739999999999,43.8912,175,75
2026-05-09 14:57:54.140,4,-0.21,0.79,1.43,62.0276,-48.5274,61.6412,175,75
2026-05-09 14:57:54.140,4,-0.02,0.74,1.37,56.1776,-57.8574,72.0612,175,75
2026-05-09 14:57:54.140,4,0.12,0.68,1.33,57.1476,-70.1074,84.9912,175,75
2026-05-09 14:57:54.140,4,0.15,0.65,1.32,56.5976,-84.9874,98.77120000000001,175,75
2026-05-09 14:57:54.140,4,0.12,0.62,1.3,55.2576,-91.3874,112.3712,175,75
2026-05-09 14:57:54.234,4,0.16,0.54,1.27,50.9876,-83.2174,130.6012,175,75
2026-05-09 14:57:54.234,4,0.23,0.45,1.23,44.9576,-75.7774,148.59120000000001,175,75
2026-05-09 14:57:54.234,4,0.24,0.34,1.2,40.687599999999996,-77.9174,160.3612,175,75
2026-05-09 14:57:54.234,4,0.24,0.2,1.18,34.2776,-73.64739999999999,172.0612,175,75
2026-05-09 14:57:54.419,4,0.34,-0.03,1.17,19.767599999999998,-67.1874,196.09120000000001,175,75
2026-05-09 14:57:54.419,4,0.4,-0.13,1.18,15.317599999999999,-76.8774,205.6612,175,75
2026-05-09 14:57:54.419,4,0.4,-0.3,1.19,9.467599999999997,-101.3274,213.1612,175,75
2026-05-09 14:57:54.420,4,0.36,-0.51,1.12,-12.062400000000004,-139.6274,215.4812,175,75
2026-05-09 14:57:54.420,4,0.35,-0.54,1.03,-20.782400000000003,-156.9974,219.6312,175,75
2026-05-09 14:57:54.420,4,0.32,-0.54,0.99,-21.632400000000004,-163.5274,225.6612,175,75
2026-05-09 14:57:54.420,4,0.33,-0.56,0.97,-19.6824,-160.29739999999998,236.3912,175,75
2026-05-09 14:57:54.420,4,0.26,-0.64,1.01,-23.5824,-166.5774,256.52119999999996,175,75
2026-05-09 14:57:54.420,4,0.25,-0.68,1.0,-27.7924,-172.3074,253.2812,175,75
2026-05-09 14:57:54.420,4,0.24,-0.67,0.98,-31.2624,-164.6874,249.6312,175,75
2026-05-09 14:57:54.420,4,0.22,-0.65,0.93,-32.1224,-143.4674,242.7412,175,75
2026-05-09 14:57:54.420,4,0.22,-0.61,0.93,-34.0724,-109.4374,235.7212,175,75
2026-05-09 14:57:54.421,4,0.21,-0.6,0.96,-35.3524,-73.2774,229.2012,175,75
2026-05-09 14:57:54.421,4,0.21,-0.62,1.0,-34.4324,-48.947399999999995,220.8512,175,75
2026-05-09 14:57:54.421,4,0.2,-0.67,1.11,-34.252399999999994,-20.717399999999998,203.7712,175,75
2026-05-09 14:57:54.421,4,0.24,-0.72,1.39,-36.632400000000004,-29.7474,161.3312,175,75
2026-05-09 14:57:54.460,4,0.21,-0.72,1.56,-32.6724,-82.4874,126.64120000000001,175,75
2026-05-09 14:57:54.550,4,-0.07,-0.48,1.64,-39.3124,-252.2474,12.8012,175,75
2026-05-09 14:57:54.550,4,-0.07,-0.31,1.55,-46.3224,-283.5274,-14.0888,175,75
2026-05-09 14:57:54.550,4,-0.08,-0.12,1.15,-49.0724,-293.4074,-36.168800000000005,175,75
2026-05-09 14:57:54.550,4,-0.12,-0.16,1.04,-47.61240000000001,-263.5874,-30.7988,175,75
2026-05-09 14:57:54.550,4,-0.13,-0.22,0.95,-50.172399999999996,-207.4274,-21.348799999999997,175,75
2026-05-09 14:57:54.822,4,-0.09,-0.23,0.94,-56.752399999999994,-156.2674,-13.848799999999999,175,75
2026-05-09 14:57:54.822,4,0.03,-0.09,1.18,-65.1724,-98.0974,-7.3888,175,75
2026-05-09 14:57:54.822,4,0.03,-0.1,1.18,-67.5424,-99.8674,-11.4688,175,75
2026-05-09 14:57:54.822,4,0.05,-0.09,1.16,-69.9824,-98.4074,-15.9188,175,75
2026-05-09 14:57:54.822,4,0.06,-0.06,1.12,-71.1424,-96.3874,-17.748800000000003,175,75
2026-05-09 14:57:54.822,4,-0.0,0.02,1.08,-74.0124,-84.92739999999999,-18.2988,175,75
2026-05-09 14:57:54.822,4,-0.08,0.07,1.08,-74.6824,-67.2474,-13.1788,175,75
2026-05-09 14:57:54.822,4,-0.15,0.11,1.11,-72.3024,-46.7574,-9.758799999999999,175,75
2026-05-09 14:57:54.823,4,-0.1,0.19,1.23,-67.61240000000001,-47.057399999999994,-16.038800000000002,175,75
2026-05-09 14:57:54.823,4,-0.12,0.23,1.18,-65.1724,-67.3074,-18.358800000000002,175,75
2026-05-09 14:57:54.823,4,-0.15,0.23,1.16,-64.9224,-69.0774,-17.808799999999998,175,75
2026-05-09 14:57:54.823,4,-0.18,0.23,1.14,-64.2524,-64.25739999999999,-15.8588,175,75
2026-05-09 14:57:54.823,4,-0.19,0.25,1.14,-60.782399999999996,-49.4974,-11.5288,175,75
2026-05-09 14:57:54.823,4,-0.16,0.26,1.16,-58.1524,-40.7174,-8.6688,175,75
2026-05-09 14:57:54.823,4,-0.12,0.26,1.19,-53.22240000000001,-49.4374,-8.4188,175,75
2026-05-09 14:57:54.823,4,-0.15,0.25,1.15,-51.3224,-58.4674,-10.3088,175,75
2026-05-09 14:57:55.024,4,-0.17,0.24,1.09,-49.3124,-51.81739999999999,-10.4988,175,75
2026-05-09 14:57:55.024,4,-0.15,0.24,1.04,-45.72240000000001,-31.937399999999997,-5.0687999999999995,175,75
2026-05-09 14:57:55.024,4,-0.14,0.24,1.03,-41.692400000000006,-14.137399999999992,0.8512000000000004,175,75
2026-05-09 14:57:55.024,4,-0.11,0.2,1.09,-35.72240000000001,11.412599999999998,10.8512,175,75
2026-05-09 14:57:55.024,4,-0.14,0.15,1.18,-32.9124,12.142600000000002,14.5012,175,75
2026-05-09 14:57:55.024,4,-0.13,0.1,1.22,-29.5024,4.952600000000004,10.5412,175,75
2026-05-09 14:57:55.025,4,-0.08,0.02,1.23,-27.3024,-13.767399999999995,3.7112000000000003,175,75
2026-05-09 14:57:55.025,4,-0.07,0.01,1.22,-27.672400000000003,-30.047399999999996,-0.008799999999999919,175,75
2026-05-09 14:57:55.025,4,-0.09,0.01,1.18,-27.242400000000004,-43.947399999999995,-4.088799999999999,175,75
2026-05-09 14:57:55.025,4,-0.11,0.02,1.13,-24.8624,-50.53739999999999,-5.6188,175,75
2026-05-09 14:57:55.025,4,-0.12,0.02,1.09,-20.782400000000003,-49.92739999999999,-4.6388,175,75
2026-05-09 14:57:55.025,4,-0.13,-0.01,1.06,-15.6524,-40.837399999999995,-2.6288,175,75
2026-05-09 14:57:55.025,4,-0.12,-0.07,1.03,-9.1924,-28.467399999999998,0.3612000000000002,175,75
2026-05-09 14:57:55.025,4,-0.1,-0.13,1.07,-2.9724000000000004,-16.577399999999997,3.6512000000000002,175,75
2026-05-09 14:57:55.025,4,-0.09,-0.14,1.12,-1.142400000000002,-18.767399999999995,3.1012000000000004,175,75
2026-05-09 14:57:55.025,4,-0.08,-0.16,1.14,3.307599999999997,-36.5774,-1.1087999999999996,175,75
2026-05-09 14:57:55.025,4,-0.09,-0.19,1.13,6.967599999999997,-46.9974,-3.7287999999999997,175,75
2026-05-09 14:57:55.149,4,-0.09,-0.19,1.11,8.5476,-50.297399999999996,-6.1088000000000005,175,75
2026-05-09 14:57:55.149,4,-0.12,-0.15,1.06,14.3476,-44.197399999999995,-4.0288,175,75
2026-05-09 14:57:55.149,4,-0.07,-0.23,1.03,33.2476,-24.137399999999992,5.8512,175,75
2026-05-09 14:57:55.150,4,-0.03,-0.3,1.05,40.5676,-14.987399999999994,7.9812,175,75
2026-05-09 14:57:55.196,4,-0.01,-0.37,1.17,58.5476,-5.477399999999989,9.9312,175,75
2026-05-09 14:57:55.330,4,-0.15,-0.26,1.58,90.3176,-93.4074,-127.0188,175,75
2026-05-09 14:57:55.384,4,0.05,-0.49,1.38,66.04759999999999,-106.44739999999999,-157.2588,175,75
2026-05-09 14:57:55.426,4,0.04,-0.66,1.37,36.9676,-111.5174,-188.90879999999999,175,75
2026-05-09 14:57:55.448,4,0.04,-0.88,1.11,-21.8724,28.302599999999998,-212.9988,175,75
2026-05-09 14:57:55.504,4,0.01,-0.88,1.15,-29.6224,72.8126,-213.84879999999998,175,75
2026-05-09 14:57:55.504,4,-0.03,-0.78,1.25,-32.1824,94.0926,-214.5188,175,75
2026-05-09 14:57:55.504,4,-0.12,-0.63,1.31,-32.4224,78.9726,-219.2188,175,75
2026-05-09 14:57:55.504,4,-0.13,-0.55,1.31,-32.6124,71.96260000000001,-220.2488,175,75
2026-05-09 14:57:55.542,4,-0.09,-0.29,1.27,-24.0124,58.67260000000002,-211.7188,175,75
2026-05-09 14:57:55.542,4,-0.09,-0.22,1.25,-20.1124,55.372600000000006,-208.7288,175,75
2026-05-09 14:57:55.557,4,-0.09,-0.17,1.24,-18.092399999999998,49.952600000000004,-206.8388,175,75
2026-05-09 14:57:55.601,4,-0.15,-0.01,1.23,-14.862400000000001,33.9126,-197.5088,175,75
2026-05-09 14:57:55.601,4,-0.2,0.13,1.21,-12.482399999999998,28.122600000000006,-185.8588,175,75
2026-05-09 14:57:55.726,4,-0.18,0.39,1.22,2.637599999999999,14.5826,-142.2588,175,75
2026-05-09 14:57:55.726,4,-0.16,0.46,1.22,8.247599999999998,8.3626,-123.84879999999998,175,75
2026-05-09 14:57:55.726,4,-0.15,0.5,1.2,11.107599999999998,0.8626000000000005,-113.1188,175,75
2026-05-09 14:57:55.726,4,-0.21,0.63,1.21,23.127599999999997,-25.047399999999996,-72.19879999999999,175,75
2026-05-09 14:57:55.727,4,-0.2,0.65,1.2,26.2976,-32.1874,-61.8988,175,75
2026-05-09 14:57:56.031,4,-0.19,0.67,1.18,29.2776,-39.7474,-49.6988,175,75
2026-05-09 14:57:56.031,4,-0.14,0.69,1.14,36.1076,-41.20739999999999,-11.958799999999998,175,75
2026-05-09 14:57:56.031,4,-0.13,0.65,1.16,47.2076,-44.4374,26.581200000000003,175,75
2026-05-09 14:57:56.031,4,-0.11,0.61,1.16,50.3176,-49.6874,38.1612,175,75
2026-05-09 14:57:56.031,4,-0.08,0.55,1.13,53.2476,-62.2474,50.721199999999996,175,75
2026-05-09 14:57:56.031,4,-0.07,0.48,1.06,56.8476,-84.19739999999999,76.64120000000001,175,75
2026-05-09 14:57:56.031,4,-0.07,0.41,0.99,59.5276,-84.3774,108.22120000000001,175,75
2026-05-09 14:57:56.031,4,-0.06,0.34,0.97,60.7476,-74.7474,126.0912,175,75
2026-05-09 14:57:56.032,4,0.01,0.06,0.92,49.3476,-36.20739999999999,185.3012,175,75
2026-05-09 14:57:56.032,4,-0.0,-0.09,0.91,40.0776,-28.037399999999998,212.6112,175,75
2026-05-09 14:57:56.032,4,-0.03,-0.26,0.9,31.2976,-9.927399999999999,240.3012,175,75
2026-05-09 14:57:56.035,4,0.04,-0.93,1.12,-4.982399999999998,22.0826,325.9712,175,75
2026-05-09 14:57:56.155,4,-0.02,-1.07,1.14,-10.782400000000003,-14.497399999999999,339.9912,175,75
2026-05-09 14:57:56.155,4,0.24,-1.26,1.08,-39.7424,-59.017399999999995,324.26120000000003,175,75
2026-05-09 14:57:56.155,4,0.19,-1.22,1.06,-40.8424,-64.0174,316.2712,175,75
2026-05-09 14:57:56.155,4,0.12,-1.19,1.06,-43.282399999999996,-64.0774,303.1612,175,75
2026-05-09 14:57:56.156,4,0.06,-0.98,1.14,-56.3224,-79.6274,234.3212,175,75
2026-05-09 14:57:56.156,4,0.06,-0.9,1.15,-57.912400000000005,-89.6874,215.2412,175,75
2026-05-09 14:57:56.156,4,0.05,-0.81,1.14,-60.5924,-100.2974,191.6412,175,75
2026-05-09 14:57:56.156,4,-0.0,-0.66,1.16,-72.5424,-107.6074,150.5412,175,75
2026-05-09 14:57:56.156,4,-0.01,-0.59,1.19,-77.8524,-120.2974,133.65120000000002,175,75
2026-05-09 14:57:56.197,4,0.01,-0.41,1.14,-95.9024,-162.1274,77.61120000000001,175,75
2026-05-09 14:57:56.229,4,-0.04,-0.32,1.01,-106.26240000000001,-187.6674,55.971199999999996,175,75
2026-05-09 14:57:56.229,4,-0.08,-0.31,0.97,-109.7424,-180.1674,50.1712,175,75
2026-05-09 14:57:56.432,4,-0.15,-0.0,1.03,-135.4124,-110.5974,23.041200000000003,175,75
2026-05-09 14:57:56.432,4,-0.23,0.1,1.08,-142.54240000000001,-75.9074,-5.248799999999999,175,75
2026-05-09 14:57:56.432,4,-0.24,0.11,1.1,-143.2824,-72.7974,-8.3588,175,75
2026-05-09 14:57:56.432,4,-0.28,0.11,1.12,-143.0924,-67.42739999999999,-13.5388,175,75
2026-05-09 14:57:56.432,4,-0.29,0.11,1.14,-142.0624,-60.047399999999996,-19.888799999999996,175,75
2026-05-09 14:57:56.432,4,-0.32,0.17,1.31,-132.0024,-49.0774,-37.3888,175,75
2026-05-09 14:57:56.432,4,-0.36,0.2,1.33,-126.7524,-52.2474,-42.3288,175,75
2026-05-09 14:57:56.433,4,-0.39,0.22,1.36,-120.29240000000001,-58.0374,-46.348800000000004,175,75
2026-05-09 14:57:56.450,4,-0.45,0.22,1.36,-108.0924,-65.4174,-50.6788,175,75
2026-05-09 14:57:56.477,4,-0.46,0.22,1.37,-95.6524,-64.6274,-52.6288,175,75
2026-05-09 14:57:56.477,4,-0.47,0.22,1.37,-87.61240000000001,-63.8274,-51.8388,175,75
2026-05-09 14:57:56.636,4,-0.47,0.19,1.38,-78.0324,-62.42739999999999,-51.1088,175,75
2026-05-09 14:57:56.636,4,-0.5,0.1,1.33,-63.0924,-54.4974,-49.1488,175,75
2026-05-09 14:57:56.636,4,-0.58,0.06,1.31,-47.7924,-19.257399999999997,-40.0088,175,75
2026-05-09 14:57:56.636,4,-0.58,0.05,1.39,-37.61240000000001,3.9125999999999976,-33.1788,175,75
2026-05-09 14:57:56.636,4,-0.61,0.03,1.49,-25.842399999999998,4.892600000000002,-24.6988,175,75
2026-05-09 14:57:56.637,4,-0.67,-0.02,1.53,-9.862400000000001,1.3526000000000096,-19.2188,175,75
2026-05-09 14:57:56.637,4,-0.67,-0.03,1.56,-0.5324000000000026,8.24260000000001,-15.4288,175,75
2026-05-09 14:57:56.637,4,-0.61,0.05,1.66,23.3676,12.262600000000006,-5.008799999999999,175,75
2026-05-09 14:57:56.660,4,-0.58,0.09,1.72,37.5776,-0.23739999999999384,-0.6787999999999998,175,75
2026-05-09 14:57:56.660,4,-0.5,0.05,1.77,58.977599999999995,-11.757399999999997,0.6612000000000005,175,75
2026-05-09 14:57:56.671,4,-0.21,-0.09,1.71,85.4976,-23.587399999999995,-15.9188,175,75
2026-05-09 14:57:56.808,4,-0.11,-0.08,1.66,95.0176,-30.237399999999994,-25.068800000000003,175,75
2026-05-09 14:57:56.808,4,-0.17,-0.03,1.46,119.7076,-29.317399999999992,-40.0088,175,75
2026-05-09 14:57:56.808,4,-0.14,-0.13,1.37,134.9576,5.922600000000003,-48.2988,175,75
2026-05-09 14:57:56.808,4,-0.01,-0.54,1.35,172.5176,18.062600000000003,-85.1288,175,75
2026-05-09 14:57:56.808,4,-0.19,-0.61,1.41,177.7576,1.7226,-101.16879999999999,175,75
2026-05-09 14:57:56.808,4,-0.22,-0.67,1.44,177.6976,-0.4773999999999887,-112.2588,175,75
2026-05-09 14:57:56.808,4,-0.09,-0.73,1.42,175.8076,-12.187399999999997,-127.1388,175,75
2026-05-09 14:57:56.872,4,0.17,-0.8,1.21,176.5376,-55.047399999999996,-143.90879999999999,175,75
2026-05-09 14:57:56.872,4,0.26,-0.91,1.06,181.5976,-51.3274,-148.84879999999998,175,75
2026-05-09 14:57:56.999,4,0.38,-1.18,0.93,184.8276,-7.6673999999999936,-148.6688,175,75
2026-05-09 14:57:56.999,4,0.29,-1.28,1.0,179.8276,0.982600000000005,-150.7988,175,75
2026-05-09 14:57:56.999,4,-0.08,-0.99,1.08,135.01760000000002,-89.5574,-227.3888,175,75
2026-05-09 14:57:56.999,4,-0.06,-1.01,0.99,119.52759999999999,-92.9174,-229.5188,175,75
2026-05-09 14:57:56.999,4,-0.07,-1.02,0.95,106.0476,-82.7974,-224.5188,175,75
2026-05-09 14:57:56.999,4,-0.06,-0.98,1.02,68.6776,-54.867399999999996,-222.62879999999998,175,75
2026-05-09 14:57:57.027,4,-0.01,-0.85,1.15,38.7976,-66.14739999999999,-231.8388,175,75
2026-05-09 14:57:57.059,4,-0.05,-0.59,0.94,-24.072400000000002,-36.1474,-236.1688,175,75
2026-05-09 14:57:57.071,4,-0.04,-0.53,0.89,-32.4824,-14.197399999999995,-228.4788,175,75
2026-05-09 14:57:57.415,4,-0.1,-0.43,0.94,-43.892399999999995,138.8526,-174.9488,175,75
2026-05-09 14:57:57.415,4,-0.07,-0.46,1.02,-39.9824,153.4826,-167.7488,175,75
2026-05-09 14:57:57.415,4,-0.01,-0.32,1.08,-30.6524,155.86260000000001,-153.78879999999998,175,75
2026-05-09 14:57:57.415,4,-0.05,-0.0,1.34,-34.7424,115.1326,-126.40879999999999,175,75
2026-05-09 14:57:57.415,4,-0.02,0.08,1.33,-38.4624,101.6626,-119.69879999999999,175,75
2026-05-09 14:57:57.416,4,0.02,0.29,1.33,-67.7924,91.7826,-65.0688,175,75
2026-05-09 14:57:57.416,4,0.05,0.3,1.39,-74.5624,97.51259999999999,-47.8688,175,75
2026-05-09 14:57:57.649,4,-0.12,0.4,1.71,-58.282399999999996,88.55260000000001,29.2012,175,75
2026-05-09 14:57:57.649,4,-0.14,0.44,1.77,-55.3524,71.2926,36.8212,175,75
2026-05-09 14:57:57.649,4,-0.13,0.44,1.78,-51.142399999999995,39.0326,46.581199999999995,175,75
2026-05-09 14:57:57.649,4,-0.23,0.41,1.68,-40.5924,7.632600000000011,62.9812,175,75
2026-05-09 14:57:57.649,4,-0.29,0.4,1.63,-37.1824,6.662599999999998,69.69120000000001,175,75
2026-05-09 14:57:57.650,4,-0.5,0.2,1.48,-25.2324,36.7826,132.8012,175,75
2026-05-09 14:57:57.650,4,-0.46,0.15,1.49,-25.172400000000003,32.6926,145.0512,175,75
2026-05-09 14:57:57.650,4,-0.57,-0.02,1.35,-27.852400000000003,10.922600000000003,158.71120000000002,175,75
2026-05-09 14:57:57.761,4,-0.51,-0.22,1.16,-50.412400000000005,-39.2574,163.7712,175,75
2026-05-09 14:57:57.762,4,-0.54,-0.25,1.09,-51.2624,-59.987399999999994,164.0212,175,75
2026-05-09 14:57:57.762,4,-0.58,-0.33,1.01,-51.752399999999994,-73.0974,169.7512,175,75
2026-05-09 14:57:57.762,4,-0.45,-0.66,0.94,-73.0324,-59.7474,179.6912,175,75
2026-05-09 14:57:58.042,4,-0.25,-0.44,0.9,-139.3724,-84.9874,139.3812,175,75
2026-05-09 14:57:58.042,4,-0.23,-0.58,0.79,-143.8224,-75.6574,133.8912,175,75
2026-05-09 14:57:58.042,4,-0.18,-0.77,0.72,-156.7524,-51.14739999999999,115.30120000000001,175,75
2026-05-09 14:57:58.042,4,-0.18,-0.76,0.78,-173.8924,-28.337399999999995,105.6012,175,75
2026-05-09 14:57:58.042,4,-0.08,-0.71,1.14,-211.0824,-23.947399999999995,64.7512,175,75
2026-05-09 14:57:58.043,4,-0.04,-0.75,1.19,-215.1724,-52.42739999999999,50.1112,175,75
2026-05-09 14:57:58.043,4,-0.07,-0.65,1.03,-247.4824,-102.1874,-22.6288,175,75
2026-05-09 14:57:58.043,4,-0.07,-0.65,1.06,-253.64239999999998,-96.14739999999999,-30.7988,175,75
2026-05-09 14:57:58.043,4,-0.03,-0.63,1.09,-256.5724,-97.7974,-40.918800000000005,175,75
2026-05-09 14:57:58.043,4,0.02,-0.62,1.09,-255.1724,-103.5274,-50.6788,175,75
2026-05-09 14:57:58.043,4,0.05,-0.6,1.08,-251.7524,-109.31739999999999,-60.248799999999996,175,75
2026-05-09 14:57:58.154,4,0.07,-0.59,1.07,-247.97240000000002,-113.03739999999999,-66.77879999999999,175,75
2026-05-09 14:57:58.154,4,0.05,-0.55,1.04,-241.8724,-111.9374,-75.55879999999999,175,75
2026-05-09 14:57:58.154,4,0.04,-0.52,1.03,-235.59240000000003,-104.9274,-79.69879999999999,175,75
2026-05-09 14:57:58.154,4,-0.01,-0.46,1.03,-218.6424,-79.5574,-90.7388,175,75
2026-05-09 14:57:58.154,4,0.07,-0.39,1.03,-208.8224,-81.81739999999999,-104.4588,175,75
2026-05-09 14:57:58.232,4,0.03,-0.34,0.93,-188.9524,-78.8274,-113.7888,175,75
2026-05-09 14:57:58.232,4,0.01,-0.33,0.92,-179.9824,-63.27739999999999,-113.8488,175,75
2026-05-09 14:57:58.291,4,-0.15,-0.06,0.81,-72.4224,-94.7474,-164.3988,175,75
2026-05-09 14:57:58.320,4,-0.26,0.01,0.71,-62.2424,-94.5574,-155.7988,175,75
2026-05-09 14:57:58.327,4,-0.11,-0.04,0.5,-52.2424,-54.377399999999994,-151.4688,175,75
2026-05-09 14:57:58.330,4,-0.1,-0.04,0.46,-53.282399999999996,-51.5774,-147.1988,175,75
2026-05-09 14:57:58.411,4,-0.12,-0.02,0.45,-53.0924,-44.377399999999994,-140.12879999999998,175,75
2026-05-09 14:57:58.434,4,-0.15,0.18,0.6,-65.5924,-56.267399999999995,-92.8688,175,75
2026-05-09 14:57:58.434,4,-0.26,0.27,0.56,-66.5724,-50.9674,-74.4588,175,75
2026-05-09 14:57:58.434,4,-0.25,0.3,0.59,-65.11240000000001,-36.267399999999995,-64.69879999999999,175,75
2026-05-09 14:57:58.496,4,-0.18,0.31,0.55,-66.9324,-42.6674,-51.2888,175,75
2026-05-09 14:57:58.496,4,-0.16,0.26,0.38,-62.0624,-41.81739999999999,-53.4788,175,75
2026-05-09 14:57:58.496,4,0.0,0.31,0.2,-64.8024,-19.137399999999992,-48.7888,175,75
2026-05-09 14:57:58.558,4,-0.12,0.22,0.36,-84.9224,127.33260000000001,-2.8687999999999994,175,75
2026-05-09 14:57:58.571,4,-0.02,0.21,0.48,-82.7924,123.0626,-2.3888,175,75
2026-05-09 14:57:58.587,4,0.12,0.22,0.68,-68.22240000000001,35.012600000000006,-17.568800000000003,175,75
2026-05-09 14:57:58.587,4,0.12,0.21,0.67,-63.892399999999995,-9.377399999999994,-28.058799999999998,175,75
2026-05-09 14:57:58.650,4,0.11,0.23,0.6,-61.142399999999995,-45.7174,-38.6088,175,75
2026-05-09 14:57:58.650,4,0.09,0.31,0.52,-59.4324,-69.1374,-40.7988,175,75
2026-05-09 14:57:58.650,4,0.03,0.41,0.46,-54.132400000000004,-71.5774,-36.1088,175,75
2026-05-09 14:57:58.650,4,-0.0,0.51,0.4,-45.2924,-59.92739999999999,-27.138799999999996,175,75
2026-05-09 14:57:58.714,4,-0.04,0.57,0.37,-36.692400000000006,-32.307399999999994,-12.6288,175,75
2026-05-09 14:57:58.714,4,-0.05,0.6,0.36,-29.8624,5.682600000000008,5.5412,175,75
2026-05-09 14:57:58.714,4,-0.04,0.64,0.41,-24.922400000000003,39.0326,20.0512,175,75
2026-05-09 14:57:58.714,4,0.15,0.71,0.6,-14.372399999999999,95.2526,51.761199999999995,175,75
2026-05-09 14:57:58.714,4,0.2,0.71,0.65,-10.962400000000002,87.02260000000001,59.7512,175,75
2026-05-09 14:57:58.714,4,0.19,0.66,0.68,-6.5123999999999995,63.362600000000015,62.1912,175,75
2026-05-09 14:57:58.857,4,0.21,0.92,0.51,22.2076,105.68260000000001,148.71120000000002,175,75
2026-05-09 14:57:58.857,4,0.26,0.91,0.51,23.3076,84.1626,150.0512,175,75
2026-05-09 14:57:58.857,4,0.32,0.91,0.38,19.0976,32.3926,132.31119999999999,175,75
2026-05-09 14:57:58.945,4,0.27,1.2,0.16,43.0676,153.0626,158.1012,175,75
2026-05-09 14:57:58.946,4,0.26,1.19,0.1,32.0876,147.45260000000002,148.1012,175,75
2026-05-09 14:57:58.946,4,0.25,1.21,0.03,29.217599999999997,160.6826,146.3912,175,75
2026-05-09 14:57:59.053,4,0.2,1.2,-0.12,46.3576,204.3426,149.5012,175,75
2026-05-09 14:57:59.053,4,0.16,1.05,-0.17,30.6876,268.8526,150.1112,175,75
2026-05-09 14:57:59.053,4,0.17,0.97,-0.08,35.5676,321.8426,156.0312,175,75
2026-05-09 14:57:59.053,4,0.48,0.78,0.38,74.7676,246.9626,124.14120000000001,175,75
2026-05-09 14:57:59.053,4,0.47,0.66,0.25,59.0376,152.6326,82.61120000000001,175,75
2026-05-09 14:57:59.053,4,0.37,0.65,-0.09,33.977599999999995,105.92260000000002,57.0712,175,75
2026-05-09 14:57:59.053,4,0.2,0.66,-0.34,28.607599999999998,129.0326,48.9612,175,75
2026-05-09 14:57:59.073,4,0.16,0.78,-0.27,47.087599999999995,346.5926,89.9312,175,75
2026-05-09 14:57:59.180,4,0.24,0.65,0.47,82.8776,399.1626,100.11120000000001,175,75
2026-05-09 14:57:59.180,4,0.39,0.27,0.97,102.6976,254.64260000000002,47.5512,175,75
2026-05-09 14:57:59.180,4,0.29,0.13,0.68,112.5176,161.6626,-12.998800000000001,175,75
2026-05-09 14:57:59.199,4,0.23,0.15,0.79,153.36759999999998,213.7926,-14.3988,175,75
2026-05-09 14:57:59.199,4,0.12,-0.19,1.31,208.6076,172.7526,-34.6988,175,75
2026-05-09 14:57:59.231,4,0.03,-0.29,1.35,218.8576,135.9826,-44.6388,175,75
2026-05-09 14:57:59.231,4,-0.06,-0.37,1.31,228.1276,117.14260000000002,-54.278800000000004,175,75
2026-05-09 14:57:59.256,4,-0.03,-0.42,1.3,250.1376,110.6226,-44.3388,175,75
2026-05-09 14:57:59.256,4,-0.02,-0.58,1.45,277.69759999999997,108.67260000000002,-27.0788,175,75
2026-05-09 14:57:59.287,4,0.04,-0.69,1.53,286.4776,105.92260000000002,-19.6988,175,75
2026-05-09 14:57:59.287,4,0.09,-0.83,1.64,291.71759999999995,81.7826,-14.278799999999999,175,75
2026-05-09 14:57:59.287,4,0.07,-0.92,1.68,294.1576,54.0326,-13.848799999999999,175,75
2026-05-09 14:57:59.294,4,0.06,-0.96,1.62,293.73760000000004,44.762600000000006,-9.6388,175,75
2026-05-09 14:57:59.357,4,0.08,-1.01,1.46,291.59759999999994,67.08260000000001,12.9212,175,75
2026-05-09 14:57:59.357,4,0.02,-0.95,1.68,295.56759999999997,101.4726,42.1312,175,75
2026-05-09 14:57:59.378,4,-0.04,-0.88,1.93,293.5476,96.17260000000002,52.1912,175,75
2026-05-09 14:57:59.600,4,-0.04,-0.39,1.99,236.2376,28.062600000000003,94.08120000000001,175,75
2026-05-09 14:57:59.600,4,-0.01,-0.21,1.81,232.3876,53.482600000000005,131.0312,175,75
2026-05-09 14:57:59.600,4,0.02,-0.16,1.84,232.5776,79.3426,154.5012,175,75
2026-05-09 14:57:59.600,4,0.06,-0.16,1.94,233.6076,99.70260000000002,176.7012,175,75
2026-05-09 14:57:59.600,4,0.04,-0.21,2.03,232.2676,104.4026,189.5612,175,75
2026-05-09 14:57:59.601,4,-0.01,-0.24,2.12,212.8776,103.30260000000001,203.96120000000002,175,75
2026-05-09 14:57:59.601,4,0.06,-0.17,2.1,200.4976,87.51259999999999,214.2012,175,75
2026-05-09 14:57:59.601,4,0.03,-0.14,2.04,196.2976,58.852599999999995,225.7812,175,75
2026-05-09 14:57:59.601,4,0.14,-0.13,2.03,193.6076,49.342600000000004,232.1912,175,75
2026-05-09 14:57:59.601,4,0.2,-0.12,2.03,190.4976,42.8126,233.5312,175,75
2026-05-09 14:57:59.601,4,0.25,-0.08,2.02,185.8076,39.0326,233.59120000000001,175,75
2026-05-09 14:57:59.601,4,0.3,-0.01,2.01,181.4176,36.35260000000001,234.3212,175,75
2026-05-09 14:57:59.790,4,0.35,0.18,1.98,169.3476,-8.037399999999998,227.8012,175,75
2026-05-09 14:57:59.790,4,0.45,0.28,1.89,169.4676,-19.4974,222.3112,175,75
2026-05-09 14:57:59.790,4,0.46,0.33,1.79,171.3576,-13.707399999999993,223.5312,175,75
2026-05-09 14:57:59.790,4,0.46,0.36,1.78,169.70759999999999,-5.9073999999999955,222.3112,175,75
2026-05-09 14:57:59.790,4,0.52,0.45,1.74,164.2176,1.5326000000000022,217.5512,175,75
2026-05-09 14:57:59.791,4,0.55,0.5,1.71,164.1576,10.012600000000006,216.9412,175,75
2026-05-09 14:57:59.811,4,0.56,0.48,1.7,167.0876,38.18260000000001,220.3612,175,75
2026-05-09 14:57:59.911,4,0.55,0.53,1.74,158.42759999999998,48.732600000000005,211.46120000000002,175,75
2026-05-09 14:57:59.911,4,0.59,0.57,1.71,153.36759999999998,41.1726,200.4812,175,75
2026-05-09 14:57:59.911,4,0.6,0.59,1.7,151.17759999999998,36.29260000000001,196.7612,175,75
2026-05-09 14:57:59.911,4,0.57,0.54,1.71,148.0676,33.5526,185.1712,175,75
2026-05-09 14:57:59.911,4,0.57,0.56,1.73,144.4676,31.7226,177.6712,175,75
2026-05-09 14:57:59.911,4,0.59,0.59,1.71,140.6276,22.262600000000006,168.3512,175,75
2026-05-09 14:57:59.911,4,0.58,0.62,1.69,138.7976,9.5826,161.3312,175,75
2026-05-09 14:58:00.005,4,0.58,0.67,1.66,134.2176,8.302599999999998,152.0012,175,75
2026-05-09 14:58:00.005,4,0.63,0.71,1.67,135.6876,5.012600000000006,147.7412,175,75
2026-05-09 14:58:00.006,4,0.6,0.88,1.63,142.2076,1.0525999999999982,143.2812,175,75
2026-05-09 14:58:00.006,4,0.53,0.85,1.63,142.51760000000002,5.922600000000003,147.4912,175,75
2026-05-09 14:58:00.006,4,0.53,0.82,1.64,140.4376,12.572600000000008,149.2612,175,75
2026-05-09 14:58:00.006,4,0.57,0.83,1.69,134.6476,15.622600000000006,154.3812,175,75
2026-05-09 14:58:00.292,4,0.72,0.77,1.7,133.36759999999998,21.412599999999998,145.4212,175,75
2026-05-09 14:58:00.292,4,1.03,0.63,1.76,162.7576,-31.147399999999998,110.78120000000001,175,75
2026-05-09 14:58:00.292,4,1.2,0.58,2.73,199.2176,14.702600000000004,86.4612,175,75
2026-05-09 14:58:00.292,4,1.45,1.29,1.58,107.2676,5.192599999999999,13.1012,175,75
2026-05-09 14:58:00.292,4,1.06,1.05,2.13,138.36759999999998,145.1326,77.7412,175,75
2026-05-09 14:58:00.293,4,0.84,1.07,2.22,137.1476,106.3526,69.50120000000001,175,75
2026-05-09 14:58:00.293,4,0.59,0.68,1.84,160.1976,-46.6374,45.9112,175,75
2026-05-09 14:58:00.293,4,0.54,0.59,1.7,167.7576,-37.6074,47.7412,175,75
2026-05-09 14:58:00.334,4,0.53,0.49,1.64,170.3176,-1.8773999999999944,50.1712,175,75
2026-05-09 14:58:00.653,4,0.78,0.91,1.43,165.3776,-41.0274,9.6312,175,75
2026-05-09 14:58:00.653,4,0.93,1.01,1.39,153.5476,36.90260000000001,9.9912,175,75
2026-05-09 14:58:00.653,4,0.93,1.01,1.43,149.1576,47.872600000000006,7.9812,175,75
2026-05-09 14:58:00.653,4,0.91,1.01,1.42,141.7776,53.122600000000006,4.4412,175,75
2026-05-09 14:58:00.653,4,0.9,1.01,1.38,134.76760000000002,60.98259999999999,1.3912000000000004,175,75
2026-05-09 14:58:00.654,4,0.93,1.09,1.29,121.1076,123.24260000000001,6.7612000000000005,175,75
2026-05-09 14:58:00.654,4,0.92,1.08,1.44,119.88759999999999,147.8726,11.461200000000002,175,75
2026-05-09 14:58:00.654,4,0.91,1.06,1.46,118.4876,137.6326,8.8312,175,75
2026-05-09 14:58:00.654,4,0.89,1.1,1.48,116.4776,124.64260000000002,5.7812,175,75
2026-05-09 14:58:00.654,4,0.85,1.16,1.43,115.9876,117.08260000000001,5.3612,175,75
2026-05-09 14:58:00.654,4,0.8,1.21,1.39,116.77759999999999,115.92260000000002,7.3112,175,75
2026-05-09 14:58:00.654,4,0.74,1.23,1.35,120.2576,113.0026,11.641200000000001,175,75
2026-05-09 14:58:00.654,4,0.62,1.23,1.23,119.4676,123.48259999999999,23.891199999999998,175,75
2026-05-09 14:58:00.654,4,0.61,1.29,1.21,117.9376,130.1326,28.5912,175,75
2026-05-09 14:58:00.654,4,0.6,1.29,1.22,116.3576,138.1226,33.8912,175,75
2026-05-09 14:58:00.658,4,0.56,1.27,1.19,115.0176,141.5926,38.9612,175,75
2026-05-09 14:58:00.736,4,0.49,1.25,1.22,115.3176,142.45260000000002,42.4912,175,75
2026-05-09 14:58:00.736,4,0.45,1.24,1.26,115.0176,145.4426,44.5012,175,75
2026-05-09 14:58:00.756,4,0.45,1.24,1.31,113.4876,143.42260000000002,46.761199999999995,175,75
2026-05-09 14:58:00.756,4,0.47,1.25,1.36,111.5976,130.4426,48.1012,175,75
2026-05-09 14:58:00.876,4,0.36,1.1,1.24,106.0476,90.0726,49.6912,175,75
2026-05-09 14:58:00.876,4,0.37,1.12,1.26,102.4576,93.42260000000002,51.0912,175,75
2026-05-09 14:58:00.876,4,0.38,1.2,1.3,100.3176,89.64260000000002,52.8612,175,75
2026-05-09 14:58:00.876,4,0.37,1.18,1.31,100.5676,77.33260000000001,55.3612,175,75
2026-05-09 14:58:00.876,4,0.31,1.07,1.28,96.9676,76.4126,58.3512,175,75
2026-05-09 14:58:00.876,4,0.24,1.03,1.28,91.9676,84.64260000000002,62.8012,175,75
2026-05-09 14:58:01.057,4,-0.64,1.33,1.49,52.2076,64.89260000000002,45.3612,175,75
2026-05-09 14:58:01.058,4,0.78,1.2,1.65,41.5976,-137.6674,-40.4988,175,75
2026-05-09 14:58:01.058,4,0.88,1.53,0.88,38.0676,24.162599999999998,1.4612000000000003,175,75
2026-05-09 14:58:01.058,4,0.77,1.7,0.98,46.7776,85.68260000000001,24.321199999999997,175,75
2026-05-09 14:58:01.292,4,0.65,1.76,1.22,67.4576,205.80259999999998,64.2612,175,75
2026-05-09 14:58:01.292,4,0.68,1.53,1.94,59.2176,118.55260000000001,66.8812,175,75
2026-05-09 14:58:01.292,4,0.69,1.58,1.97,53.9176,75.86260000000001,56.8212,175,75
2026-05-09 14:58:01.292,4,0.77,1.58,1.95,55.1376,44.2826,44.4412,175,75
2026-05-09 14:58:01.292,4,0.77,1.64,1.84,54.2176,-1.6974000000000018,44.6912,175,75
2026-05-09 14:58:01.292,4,0.65,1.71,1.74,66.5976,-31.207399999999993,42.4312,175,75
2026-05-09 14:58:01.292,4,0.59,1.66,1.68,84.1576,-23.887399999999992,41.2712,175,75
2026-05-09 14:58:01.292,4,0.57,1.6,1.63,92.2676,-8.527399999999993,46.151199999999996,175,75
2026-05-09 14:58:01.292,4,0.56,1.58,1.6,97.8176,-7.487399999999994,46.581199999999995,175,75
2026-05-09 14:58:01.292,4,0.52,1.54,1.55,101.1076,-12.857399999999998,43.9612,175,75
2026-05-09 14:58:01.293,4,0.5,1.45,1.45,103.1276,-14.257399999999997,40.7812,175,75
2026-05-09 14:58:01.293,4,0.51,1.39,1.35,106.8476,-8.947399999999995,39.3812,175,75
2026-05-09 14:58:01.293,4,0.52,1.38,1.28,111.1076,5.192599999999999,39.5012,175,75
2026-05-09 14:58:01.293,4,0.55,1.37,1.23,114.1576,24.952600000000004,39.5712,175,75
2026-05-09 14:58:01.293,4,0.62,1.48,1.39,100.4976,95.5626,40.6612,175,75
2026-05-09 14:58:01.293,4,0.64,1.48,1.47,98.7976,76.96260000000001,37.1912,175,75
2026-05-09 14:58:01.293,4,0.64,1.43,1.48,94.3476,51.6626,29.6312,175,75
2026-05-09 14:58:01.293,4,0.62,1.4,1.48,88.79759999999999,37.02260000000001,22.6712,175,75
2026-05-09 14:58:01.465,4,0.58,1.41,1.46,83.54759999999999,27.3926,11.7612,175,75
2026-05-09 14:58:01.465,4,0.61,1.42,1.47,79.0976,12.452600000000004,3.8312000000000004,175,75
2026-05-09 14:58:01.466,4,0.53,1.49,1.38,70.80760000000001,-31.577399999999997,-10.7988,175,75
2026-05-09 14:58:01.466,4,0.47,1.43,1.28,67.9976,-26.147399999999998,-11.958799999999998,175,75
2026-05-09 14:58:01.466,4,0.47,1.44,1.27,64.2176,-22.667399999999994,-14.9488,175,75
2026-05-09 14:58:01.466,4,0.46,1.53,1.27,54.827600000000004,-34.867399999999996,-20.918799999999997,175,75
2026-05-09 14:58:01.492,4,0.28,1.51,1.1,35.4976,33.6126,-13.1788,175,75
2026-05-09 14:58:01.492,4,0.32,1.51,1.15,34.9576,53.0626,-8.4188,175,75
2026-05-09 14:58:01.494,4,0.36,1.5,1.21,34.8876,58.362600000000015,-6.168799999999999,175,75
2026-05-09 14:58:01.805,4,0.36,1.49,1.26,33.7376,53.9126,-5.498799999999999,175,75
2026-05-09 14:58:01.806,4,0.22,1.39,1.43,8.427599999999998,83.67260000000002,5.661200000000001,175,75
2026-05-09 14:58:01.806,4,0.19,1.42,1.47,4.707599999999999,92.02260000000001,11.8812,175,75
2026-05-09 14:58:01.806,4,0.16,1.45,1.49,1.6575999999999986,95.3126,18.1012,175,75
2026-05-09 14:58:01.806,4,0.18,1.35,1.57,5.4376,105.92260000000002,12.3112,175,75
2026-05-09 14:58:01.806,4,0.5,1.18,1.69,-3.342399999999998,108.0026,8.1012,175,75
2026-05-09 14:58:01.806,4,0.58,1.15,1.64,0.07760000000000034,67.33260000000001,-16.958799999999997,175,75
2026-05-09 14:58:01.806,4,1.01,1.11,1.77,16.2976,32.63260000000001,-32.8688,175,75
2026-05-09 14:58:01.806,4,0.11,1.67,2.28,7.147599999999997,-104.6274,-29.3388,175,75
2026-05-09 14:58:01.806,4,-1.14,1.61,0.56,-19.0124,-216.0274,-170.5588,175,75
2026-05-09 14:58:01.806,4,1.96,1.26,0.67,-64.0124,-35.77739999999999,24.691200000000002,175,75
2026-05-09 14:58:01.806,4,0.36,1.9,0.45,7.457599999999999,156.4126,-0.9187999999999992,175,75
2026-05-09 14:58:01.806,4,0.29,2.34,0.91,57.0276,274.9526,47.3112,175,75
2026-05-09 14:58:01.806,4,-0.36,2.6,1.87,93.9776,397.0826,83.89120000000001,175,75
2026-05-09 14:58:01.806,4,0.55,2.24,2.78,46.6576,390.0126,60.3012,175,75
2026-05-09 14:58:01.915,4,0.8,1.66,2.42,39.1576,-217.54739999999998,-26.038800000000002,175,75
2026-05-09 14:58:01.915,4,0.32,1.23,1.61,61.2376,-251.9974,-20.1288,175,75
2026-05-09 14:58:01.915,4,0.03,1.27,1.26,56.2376,-190.23739999999998,-15.7388,175,75
2026-05-09 14:58:01.915,4,0.09,1.76,1.31,84.7676,1.4726,18.2212,175,75
2026-05-09 14:58:01.915,4,0.21,1.69,1.45,102.8776,22.3326,29.2012,175,75
2026-05-09 14:58:01.916,4,0.25,1.56,1.53,97.0876,-4.627399999999994,34.8712,175,75
2026-05-09 14:58:01.916,4,0.21,1.38,1.43,77.32759999999999,-34.807399999999994,27.9812,175,75
2026-05-09 14:58:01.916,4,0.2,1.3,1.33,73.1276,-12.977399999999996,27.7412,175,75
2026-05-09 14:58:01.916,4,0.26,1.28,1.3,74.0976,13.482600000000005,27.251199999999997,175,75
2026-05-09 14:58:01.916,4,0.31,1.29,1.34,72.32759999999999,30.1926,29.931199999999997,175,75
2026-05-09 14:58:01.916,4,0.35,1.31,1.39,66.9676,32.8126,31.461199999999998,175,75
2026-05-09 14:58:02.103,4,0.4,1.33,1.39,60.9276,18.302599999999998,24.0212,175,75
2026-05-09 14:58:02.103,4,0.42,1.34,1.4,60.197599999999994,16.7226,20.1112,175,75
2026-05-09 14:58:02.103,4,0.47,1.48,1.43,45.1976,-2.0574000000000012,8.2812,175,75
2026-05-09 14:58:02.103,4,0.48,1.55,1.4,35.3776,-25.657399999999996,-2.9387999999999996,175,75
2026-05-09 14:58:02.103,4,0.34,1.6,1.18,12.997599999999998,-4.017399999999995,-6.1088000000000005,175,75
2026-05-09 14:58:02.103,4,0.3,1.6,1.19,8.9176,25.13260000000001,-3.1187999999999994,175,75
2026-05-09 14:58:02.104,4,0.29,1.55,1.27,4.407599999999999,66.23259999999999,2.4912,175,75
2026-05-09 14:58:02.104,4,0.35,1.51,1.37,2.8175999999999988,83.61260000000001,4.8712,175,75
2026-05-09 14:58:02.104,4,0.41,1.48,1.46,1.9675999999999974,81.5326,5.6012,175,75
2026-05-09 14:58:02.118,4,0.4,1.4,1.71,-11.632400000000004,-0.9673999999999978,-23.668799999999997,175,75
