Time,ID,Ax,Ay,Az,Gx,Gy,Gz,Height,Weight
2026-05-09 16:14:52.679,4,-0.46,-0.12,1.25,7.1892,17.214599999999997,29.3352,175,75
2026-05-09 16:14:52.679,4,-0.43,-0.1,1.22,6.5792,21.424599999999998,28.9052,175,75
2026-05-09 16:14:52.689,4,-0.34,-0.03,1.13,2.8591999999999995,46.7346,28.8452,175,75
2026-05-09 16:14:52.703,4,-0.29,-0.0,1.09,2.0692000000000004,72.8246,29.5152,175,75
2026-05-09 16:14:52.726,4,-0.28,-0.02,1.1,3.2891999999999992,83.3746,29.635199999999998,175,75
2026-05-09 16:14:52.726,4,-0.27,-0.05,1.13,1.4591999999999992,89.6546,27.5652,175,75
2026-05-09 16:14:52.762,4,-0.28,0.02,1.26,-5.6708,80.2046,20.8552,175,75
2026-05-09 16:14:52.772,4,-0.25,0.04,1.29,-7.2008,75.6346,18.4152,175,75
2026-05-09 16:14:52.783,4,-0.22,0.08,1.3,-12.1408,70.3246,15.3052,175,75
2026-05-09 16:14:52.793,4,-0.25,0.13,1.34,-17.500799999999998,66.6046,11.9552,175,75
2026-05-09 16:14:52.807,4,-0.3,0.22,1.44,-22.930799999999998,62.0946,8.415199999999999,175,75
2026-05-09 16:14:52.814,4,-0.33,0.31,1.53,-25.2408,53.9846,8.6052,175,75
2026-05-09 16:14:52.827,4,-0.37,0.39,1.6,-26.1008,29.474600000000002,12.0152,175,75
2026-05-09 16:14:52.866,4,-0.59,-0.23,1.25,12.799199999999999,58.9246,35.0052,175,75
2026-05-09 16:14:52.896,4,-0.54,-0.65,1.23,31.0992,79.8446,23.6052,175,75
2026-05-09 16:14:52.906,4,-0.57,-0.79,1.24,37.00919999999999,86.8546,12.2552,175,75
2026-05-09 16:14:52.918,4,-0.62,-0.75,1.37,37.1292,93.5646,0.12519999999999998,175,75
2026-05-09 16:14:52.928,4,-0.72,-0.46,1.51,28.8392,90.6946,-7.5548,175,75
2026-05-09 16:14:52.940,4,-0.74,-0.26,1.58,23.899199999999997,75.8746,-9.0848,175,75
2026-05-09 16:14:52.953,4,-0.87,-0.13,1.65,24.6292,32.8846,3.1752,175,75
2026-05-09 16:14:52.966,4,-0.92,-0.33,1.66,28.109199999999998,21.3046,10.9752,175,75
2026-05-09 16:14:52.985,4,-0.8,-0.69,1.62,33.229200000000006,-28.6954,9.9452,175,75
2026-05-09 16:14:53.009,4,-0.76,-0.82,1.54,39.0792,-68.2054,2.8051999999999997,175,75
2026-05-09 16:14:53.024,4,-0.78,-1.1,1.19,45.849199999999996,-104.3054,-8.2848,175,75
2026-05-09 16:14:53.035,4,-0.8,-1.18,1.06,45.179199999999994,-94.7954,-13.4148,175,75
2026-05-09 16:14:53.046,4,-0.74,-1.18,0.99,37.1292,-69.4854,-22.5548,175,75
2026-05-09 16:14:53.059,4,-0.65,-1.08,0.98,28.9592,-51.6254,-27.8648,175,75
2026-05-09 16:14:53.085,4,-0.5,-0.81,1.04,18.5992,-28.145400000000002,-28.6548,175,75
2026-05-09 16:14:53.095,4,-0.48,-0.75,1.07,14.0792,-21.6854,-31.2748,175,75
2026-05-09 16:14:53.108,4,-0.42,-0.67,1.11,7.559200000000001,-16.2554,-35.4848,175,75
2026-05-09 16:14:53.120,4,-0.3,-0.43,1.18,-0.06080000000000041,-11.9854,-45.0548,175,75
2026-05-09 16:14:53.132,4,-0.24,-0.26,1.22,0.9092000000000002,-13.0854,-48.2248,175,75
2026-05-09 16:14:53.156,4,-0.15,0.0,1.31,5.969199999999999,-29.2454,-48.9548,175,75
2026-05-09 16:14:53.171,4,-0.16,0.12,1.37,5.6692,-60.2154,-51.8848,175,75
2026-05-09 16:14:53.182,4,-0.19,0.2,1.37,6.039199999999999,-85.4054,-57.1348,175,75
2026-05-09 16:14:53.182,4,-0.19,0.28,1.35,5.9092,-100.9554,-57.5548,175,75
2026-05-09 16:14:53.204,4,-0.21,0.42,1.29,5.3591999999999995,-108.9354,-55.5448,175,75
2026-05-09 16:14:53.216,4,-0.19,0.56,1.25,5.4292,-107.3554,-51.5248,175,75
2026-05-09 16:14:53.216,4,-0.14,0.7,1.22,3.959199999999999,-98.7554,-45.3048,175,75
2026-05-09 16:14:53.230,4,-0.11,0.84,1.17,0.9092000000000002,-81.1954,-35.9148,175,75
2026-05-09 16:14:53.242,4,-0.08,0.96,1.11,-2.3808000000000007,-55.1554,-26.3948,175,75
2026-05-09 16:14:53.283,4,-0.01,1.08,1.17,-11.0408,52.464600000000004,-9.0248,175,75
2026-05-09 16:14:53.296,4,-0.0,1.05,1.26,-12.930800000000001,76.9746,-6.3948,175,75
2026-05-09 16:14:53.309,4,-0.08,0.97,1.39,-18.7208,81.4846,-7.3748000000000005,175,75
2026-05-09 16:14:53.339,4,-0.13,0.9,1.45,-14.3908,93.8646,-5.114800000000001,175,75
2026-05-09 16:14:53.356,4,-0.19,0.87,1.5,-13.3508,89.1046,-2.8048,175,75
2026-05-09 16:14:53.369,4,-0.34,0.79,1.54,-15.180800000000001,70.8146,3.1752,175,75
2026-05-09 16:14:53.378,4,-0.59,0.67,1.52,-16.6508,42.0946,13.1152,175,75
2026-05-09 16:14:53.403,4,-1.05,0.15,1.2,-11.5908,27.154600000000002,45.1852,175,75
2026-05-09 16:14:53.415,4,-1.21,-0.31,0.97,-1.0408,35.3846,63.8452,175,75
2026-05-09 16:14:53.415,4,-1.31,-1.04,0.75,14.6892,70.6346,90.55520000000001,175,75
2026-05-09 16:14:53.429,4,-1.23,-2.04,0.69,48.959199999999996,213.0146,143.6052,175,75
2026-05-09 16:14:53.440,4,-1.07,-2.61,0.86,68.0492,292.28459999999995,194.8852,175,75
2026-05-09 16:14:53.475,4,-2.67,-1.06,0.86,-30.1208,130.2646,14.825199999999999,175,75
2026-05-09 16:14:53.488,4,-1.83,-0.89,0.83,-27.5608,229.9646,-33.0448,175,75
2026-05-09 16:14:53.503,4,-0.54,-0.67,1.14,6.709199999999999,284.8446,52.2552,175,75
2026-05-09 16:14:53.526,4,-0.87,-0.93,1.28,48.289199999999994,208.3146,175.36520000000002,175,75
2026-05-09 16:14:53.563,4,-0.4,-1.38,1.3,73.4692,26.674599999999998,-0.7847999999999999,175,75
2026-05-09 16:14:53.575,4,-0.18,-0.46,1.2,34.0792,-34.3054,1.8951999999999996,175,75
2026-05-09 16:14:53.594,4,-0.46,-0.21,1.1,38.839200000000005,-47.535399999999996,-3.2248,175,75
2026-05-09 16:14:53.606,4,-0.47,-0.15,1.11,40.429199999999994,-41.3754,-16.2748,175,75
2026-05-09 16:14:53.617,4,-0.36,-0.05,1.19,-14.210799999999999,-2.2954000000000008,-31.7048,175,75
2026-05-09 16:14:53.629,4,-0.37,0.0,1.26,-33.900800000000004,-1.5054000000000016,-48.0448,175,75
2026-05-09 16:14:53.643,4,-0.36,-0.03,1.37,-32.2008,-5.2154000000000025,-54.5648,175,75
2026-05-09 16:14:53.665,4,-0.36,-0.05,1.5,-22.870800000000003,-16.075400000000002,-60.6648,175,75
2026-05-09 16:14:53.665,4,-0.36,0.01,1.61,-15.0608,-41.3754,-71.8248,175,75
2026-05-09 16:14:53.691,4,-0.42,0.32,1.68,-9.5108,-115.1554,-93.89479999999999,175,75
2026-05-09 16:14:53.713,4,-0.54,0.68,1.54,-8.7208,-152.2354,-105.84479999999999,175,75
2026-05-09 16:14:53.725,4,-0.56,0.81,1.46,-7.4408,-140.4654,-102.67479999999999,175,75
2026-05-09 16:14:53.737,4,-0.49,0.93,1.39,-1.0408,-117.1754,-95.9148,175,75
2026-05-09 16:14:53.737,4,-0.41,0.96,1.35,7.799199999999999,-97.2954,-88.6548,175,75
2026-05-09 16:14:53.753,4,-0.36,0.91,1.34,15.729199999999999,-76.3754,-82.1348,175,75
2026-05-09 16:14:53.763,4,-0.33,0.86,1.35,20.6692,-61.9854,-78.7148,175,75
2026-05-09 16:14:53.777,4,-0.29,0.81,1.36,23.839199999999998,-56.745400000000004,-76.94479999999999,175,75
2026-05-09 16:14:53.804,4,-0.28,0.79,1.29,25.789199999999997,-58.0254,-76.7648,175,75
2026-05-09 16:14:53.804,4,-0.28,0.8,1.23,25.8492,-43.5754,-73.7148,175,75
2026-05-09 16:14:53.818,4,-0.26,0.79,1.19,26.0992,-23.145400000000002,-70.42479999999999,175,75
2026-05-09 16:14:53.831,4,-0.23,0.77,1.19,27.189200000000003,-2.535399999999999,-68.28479999999999,175,75
2026-05-09 16:14:53.845,4,-0.19,0.73,1.2,28.109199999999998,13.744599999999998,-64.9348,175,75
2026-05-09 16:14:53.856,4,-0.19,0.7,1.26,27.799200000000003,17.644599999999997,-60.7848,175,75
2026-05-09 16:14:53.866,4,-0.19,0.66,1.31,25.909200000000002,11.674599999999998,-58.0448,175,75
2026-05-09 16:14:53.879,4,-0.19,0.63,1.35,22.679199999999998,1.3046000000000006,-54.9948,175,75
2026-05-09 16:14:53.880,4,-0.21,0.53,1.34,18.9592,-14.5454,-52.2548,175,75
2026-05-09 16:14:53.903,4,-0.19,0.4,1.29,13.049199999999999,-18.8154,-50.3048,175,75
2026-05-09 16:14:53.915,4,-0.24,0.23,1.26,8.109200000000001,-16.3154,-47.8648,175,75
2026-05-09 16:14:53.925,4,-0.34,0.05,1.26,4.0192,-16.9854,-46.7048,175,75
2026-05-09 16:14:53.927,4,-0.46,-0.17,1.24,-2.5008,-15.1554,-46.214800000000004,175,75
2026-05-09 16:14:53.945,4,-0.59,-0.46,1.23,-12.7408,-8.8154,-41.2748,175,75
2026-05-09 16:14:53.945,4,-0.68,-0.79,1.15,-15.7308,-3.575400000000002,-30.1148,175,75
2026-05-09 16:14:53.954,4,-0.63,-1.2,1.03,-6.7708,8.194600000000001,-16.8248,175,75
2026-05-09 16:14:53.968,4,-0.52,-1.7,0.93,14.449200000000001,39.5346,4.4552,175,75
2026-05-09 16:14:53.995,4,-0.72,-1.93,1.2,33.4092,93.3146,-3.7748,175,75
2026-05-09 16:14:54.010,4,-0.85,-1.55,1.34,16.4592,81.7946,-41.2748,175,75
2026-05-09 16:14:54.021,4,-0.8,-1.17,1.42,-5.370800000000001,58.9246,-62.9248,175,75
2026-05-09 16:14:54.021,4,-0.69,-0.75,1.45,-26.3408,39.8446,-42.8648,175,75
2026-05-09 16:14:54.044,4,-0.8,-0.49,1.39,-32.070800000000006,41.974599999999995,-9.2648,175,75
2026-05-09 16:14:54.044,4,-0.9,-0.43,1.35,-17.8108,74.4146,12.565199999999999,175,75
2026-05-09 16:14:54.067,4,-0.55,-0.76,1.56,-9.700800000000001,101.1246,34.6952,175,75
2026-05-09 16:14:54.077,4,-0.48,-0.94,1.62,-9.030800000000001,58.6246,31.1652,175,75
2026-05-09 16:14:54.099,4,-0.48,-1.06,1.59,-2.7408,2.9545999999999992,17.0152,175,75
2026-05-09 16:14:54.116,4,-0.54,-0.94,1.28,-0.3708,-40.8954,0.005199999999999871,175,75
2026-05-09 16:14:54.126,4,-0.54,-0.74,1.13,-1.5908000000000007,-30.5254,0.3652000000000002,175,75
2026-05-09 16:14:54.136,4,-0.53,-0.57,0.99,0.4892000000000003,-2.7154000000000025,7.995199999999999,175,75
2026-05-09 16:14:54.147,4,-0.49,-0.49,0.95,1.8292000000000002,31.184599999999996,18.4752,175,75
2026-05-09 16:14:54.159,4,-0.45,-0.45,0.97,0.6692,80.0846,32.0752,175,75
2026-05-09 16:14:54.159,4,-0.39,-0.45,1.03,-1.9508,110.81460000000001,37.6252,175,75
2026-05-09 16:14:54.170,4,-0.35,-0.46,1.16,-7.010800000000001,122.6446,37.1952,175,75
2026-05-09 16:14:54.183,4,-0.32,-0.45,1.28,-13.4808,118.56460000000001,32.2552,175,75
2026-05-09 16:14:54.199,4,-0.3,-0.44,1.36,-17.1408,103.25460000000001,25.9152,175,75
2026-05-09 16:14:54.209,4,-0.27,-0.42,1.43,-18.480800000000002,79.6546,19.455199999999998,175,75
2026-05-09 16:14:54.209,4,-0.24,-0.35,1.46,-18.8408,49.8446,12.4452,175,75
2026-05-09 16:14:54.237,4,-0.22,-0.28,1.46,-17.3208,17.8846,5.975199999999999,175,75
2026-05-09 16:14:54.248,4,-0.23,-0.14,1.43,-12.0708,-22.8454,0.005199999999999871,175,75
2026-05-09 16:14:54.259,4,-0.24,-0.04,1.38,-4.210800000000001,-45.3454,-4.2048000000000005,175,75
2026-05-09 16:14:54.271,4,-0.25,0.08,1.33,4.879199999999999,-59.3654,-6.5847999999999995,175,75
2026-05-09 16:14:54.271,4,-0.25,0.19,1.31,10.729199999999999,-62.7154,-8.9548,175,75
2026-05-09 16:14:54.284,4,-0.25,0.28,1.29,13.659199999999998,-63.0254,-12.1948,175,75
2026-05-09 16:14:54.295,4,-0.27,0.39,1.29,14.9392,-62.3554,-15.9148,175,75
2026-05-09 16:14:54.305,4,-0.31,0.57,1.31,14.7592,-56.1954,-17.8648,175,75
2026-05-09 16:14:54.331,4,-0.41,1.02,1.38,2.6792,-37.2954,-16.0948,175,75
2026-05-09 16:14:54.338,4,-0.46,1.23,1.44,-0.4908000000000001,-29.9154,-11.0348,175,75
2026-05-09 16:14:54.352,4,-0.58,1.35,1.53,3.2891999999999992,-21.5654,-2.5548,175,75
2026-05-09 16:14:54.363,4,-0.65,1.37,1.61,12.069199999999999,-13.205400000000001,6.715199999999999,175,75
2026-05-09 16:14:54.374,4,-0.69,1.31,1.65,19.2092,-18.8154,11.8352,175,75
2026-05-09 16:14:54.403,4,-0.84,1.11,1.7,21.7092,-30.1554,14.145199999999999,175,75
2026-05-09 16:14:54.409,4,-0.93,1.21,1.76,22.7992,-18.9354,18.8452,175,75
2026-05-09 16:14:54.422,4,-0.95,1.35,1.84,30.119200000000003,-11.8054,28.0552,175,75
2026-05-09 16:14:54.435,4,-0.91,1.39,1.92,42.1892,-25.1554,39.3952,175,75
2026-05-09 16:14:54.454,4,-0.92,1.19,1.92,48.7792,-52.785399999999996,46.6552,175,75
2026-05-09 16:14:54.466,4,-0.92,0.75,1.84,53.7792,-81.1354,52.3852,175,75
2026-05-09 16:14:54.476,4,-0.94,0.23,1.67,61.33919999999999,-104.6154,51.1652,175,75
2026-05-09 16:14:54.487,4,-1.08,-0.63,1.45,71.0992,-121.0154,50.3052,175,75
2026-05-09 16:14:54.515,4,-0.85,-2.7,1.19,87.1292,-41.805400000000006,120.6752,175,75
2026-05-09 16:14:54.530,4,-0.67,-3.88,1.23,97.8592,-10.955400000000001,203.23520000000002,175,75
2026-05-09 16:14:54.557,4,-1.98,-3.29,1.59,87.6792,-68.4554,140.1852,175,75
2026-05-09 16:14:54.557,4,-2.28,-2.2,1.61,39.9992,-108.9354,-116.2148,175,75
2026-05-09 16:14:54.570,4,-1.02,-1.93,1.56,-43.660799999999995,-99.2454,-264.3248,175,75
2026-05-09 16:14:54.583,4,1.41,-1.35,1.78,-104.8208,-77.1754,-121.94479999999999,175,75
2026-05-09 16:14:54.594,4,-0.73,-1.15,1.05,-31.8308,-32.9654,69.21520000000001,175,75
2026-05-09 16:14:54.599,4,-0.4,-1.67,1.14,14.819199999999999,-33.2054,4.635199999999999,175,75
2026-05-09 16:14:54.621,4,-0.21,-1.37,1.49,-20.7908,-34.6754,-4.3848,175,75
2026-05-09 16:14:54.645,4,-0.3,-0.62,1.32,-26.3408,-67.5954,-37.0648,175,75
2026-05-09 16:14:54.649,4,-0.19,-0.29,1.28,-6.460800000000001,-63.0254,-19.7548,175,75
2026-05-09 16:14:54.660,4,-0.21,-0.09,1.26,3.2292000000000005,-34.7354,-0.11480000000000024,175,75
2026-05-09 16:14:54.682,4,-0.05,0.03,1.37,4.6892,-10.095400000000001,7.745199999999999,175,75
2026-05-09 16:14:54.695,4,-0.05,0.1,1.41,8.409199999999998,-29.0054,10.6752,175,75
2026-05-09 16:14:54.719,4,-0.11,0.26,1.35,4.1492,-35.6454,15.5552,175,75
2026-05-09 16:14:54.732,4,-0.11,0.35,1.32,-0.1208000000000009,-20.5854,20.9752,175,75
2026-05-09 16:14:54.744,4,-0.13,0.45,1.32,-1.1008000000000004,-6.985400000000002,24.8852,175,75
2026-05-09 16:14:54.757,4,-0.1,0.59,1.33,0.969199999999999,13.924599999999998,30.6152,175,75
2026-05-09 16:14:54.784,4,-0.07,0.77,1.38,6.2791999999999994,63.4346,38.4152,175,75
2026-05-09 16:14:54.791,4,-0.01,0.83,1.4,6.3392,88.0146,38.1752,175,75
2026-05-09 16:14:54.803,4,-0.02,0.87,1.42,6.5192,103.8646,35.9752,175,75
2026-05-09 16:14:54.814,4,-0.05,0.88,1.46,6.889199999999999,118.74459999999999,31.465200000000003,175,75
2026-05-09 16:14:54.822,4,-0.09,0.89,1.53,8.8992,135.8146,26.1052,175,75
2026-05-09 16:14:54.834,4,-0.09,0.88,1.59,13.289200000000001,139.4146,21.2252,175,75
2026-05-09 16:14:54.846,4,-0.13,0.88,1.65,19.0192,129.5346,16.4652,175,75
2026-05-09 16:14:54.858,4,-0.17,0.88,1.69,26.0992,114.0446,11.2852,175,75
2026-05-09 16:14:54.869,4,-0.19,0.88,1.7,36.709199999999996,90.7546,5.2452000000000005,175,75
2026-05-09 16:14:54.887,4,-0.21,0.76,1.58,54.9392,40.754599999999996,-9.0248,175,75
2026-05-09 16:14:54.893,4,-0.25,0.73,1.52,58.6592,30.6346,-16.0348,175,75
2026-05-09 16:14:54.909,4,-0.3,0.73,1.44,61.459199999999996,29.904600000000002,-23.7748,175,75
2026-05-09 16:14:54.921,4,-0.35,0.75,1.42,62.929199999999994,32.8846,-28.5348,175,75
2026-05-09 16:14:54.921,4,-0.4,0.75,1.43,64.75919999999999,35.934599999999996,-32.7448,175,75
2026-05-09 16:14:54.940,4,-0.47,0.73,1.48,67.61919999999999,32.8846,-35.7248,175,75
2026-05-09 16:14:54.966,4,-0.7,0.51,1.54,64.8792,-2.6554,-35.5448,175,75
2026-05-09 16:14:54.966,4,-0.87,0.34,1.56,63.599199999999996,-15.5854,-32.9248,175,75
2026-05-09 16:14:54.988,4,-1.04,-0.02,1.51,60.9692,-25.895400000000002,-28.5948,175,75
2026-05-09 16:14:54.988,4,-1.18,-0.5,1.45,57.61919999999999,-36.3754,-25.974800000000002,175,75
2026-05-09 16:14:55.008,4,-1.31,-1.12,1.39,50.4892,-48.5754,-14.4448,175,75
2026-05-09 16:14:55.018,4,-1.42,-1.94,1.37,46.949200000000005,-47.175399999999996,24.3952,175,75
2026-05-09 16:14:55.028,4,-1.46,-2.66,1.4,49.6292,-40.6454,73.60520000000001,175,75
2026-05-09 16:14:55.039,4,-1.75,-3.1,1.53,44.819199999999995,-58.2654,104.0852,175,75
2026-05-09 16:14:55.050,4,-2.22,-2.66,1.59,14.569199999999999,-99.4854,33.4152,175,75
2026-05-09 16:14:55.064,4,-1.59,-1.66,1.41,-72.0108,-93.4554,-166.2148,175,75
2026-05-09 16:14:55.075,4,-0.46,-1.21,1.39,-88.9008,-65.0954,-145.3048,175,75
2026-05-09 16:14:55.084,4,-0.16,-0.59,1.39,-92.5608,-50.8254,23.2952,175,75
2026-05-09 16:14:55.095,4,-0.77,-0.44,1.22,-60.1208,-19.6154,97.8652,175,75
2026-05-09 16:14:55.108,4,-0.81,-0.73,1.13,-9.0908,34.1746,35.2452,175,75
2026-05-09 16:14:55.119,4,-0.48,-0.82,1.31,-5.9808,65.4546,6.5852,175,75
2026-05-09 16:14:55.126,4,-0.26,-0.57,1.42,-29.3908,105.02459999999999,19.6952,175,75
2026-05-09 16:14:55.144,4,-0.29,-0.21,1.44,-45.3708,126.24459999999999,26.4052,175,75
2026-05-09 16:14:55.156,4,-0.3,0.25,1.5,-39.4508,131.6746,13.725200000000001,175,75
2026-05-09 16:14:55.178,4,-0.24,1.21,1.78,-18.050800000000002,139.9046,33.4152,175,75
2026-05-09 16:14:55.185,4,-0.15,1.38,1.86,-13.5408,135.8746,37.6852,175,75
2026-05-09 16:14:55.210,4,0.02,1.24,1.86,-2.5608000000000004,114.53460000000001,42.8052,175,75
2026-05-09 16:14:55.210,4,0.05,1.11,1.81,3.1692,111.12459999999999,39.7552,175,75
2026-05-09 16:14:55.221,4,0.04,1.01,1.78,4.2692,120.2046,31.8352,175,75
2026-05-09 16:14:55.248,4,-0.0,1.03,1.8,-0.4908000000000001,136.9146,25.615199999999998,175,75
2026-05-09 16:14:55.248,4,-0.06,1.04,1.84,-3.5408,140.5146,20.4952,175,75
2026-05-09 16:14:55.264,4,-0.1,0.96,1.83,-1.8908000000000005,132.7046,16.525199999999998,175,75
2026-05-09 16:14:55.277,4,-0.16,0.81,1.79,3.6592000000000002,124.78460000000001,13.1752,175,75
2026-05-09 16:14:55.277,4,-0.26,0.58,1.73,14.7592,115.69460000000001,8.6052,175,75
2026-05-09 16:14:55.288,4,-0.4,0.33,1.72,25.729200000000002,110.02459999999999,2.1351999999999998,175,75
2026-05-09 16:14:55.308,4,-0.69,-0.38,1.74,46.459199999999996,74.4146,-18.9548,175,75
2026-05-09 16:14:55.327,4,-0.83,-0.79,1.72,61.2192,18.3146,-29.2048,175,75
2026-05-09 16:14:55.341,4,-0.95,-1.13,1.66,75.2992,-40.2154,-33.5348,175,75
2026-05-09 16:14:55.351,4,-1.06,-1.38,1.57,78.3492,-80.8954,-32.1948,175,75
2026-05-09 16:14:55.364,4,-1.25,-1.5,1.45,65.6092,-113.2654,-37.8048,175,75
2026-05-09 16:14:55.389,4,-1.11,-0.79,1.17,4.9992,-112.2954,-71.64479999999999,175,75
2026-05-09 16:14:55.402,4,-1.03,-0.43,1.03,-3.9608,-70.4654,-21.7048,175,75
2026-05-09 16:14:55.412,4,-1.2,-0.45,0.93,12.2592,-4.735400000000002,11.7152,175,75
2026-05-09 16:14:55.419,4,-1.17,-0.78,1.04,32.929199999999994,64.2946,22.7452,175,75
2026-05-09 16:14:55.448,4,-1.11,-1.0,1.32,25.119200000000003,92.0946,24.7552,175,75
2026-05-09 16:14:55.465,4,-0.91,-0.71,1.41,25.0592,57.3446,-5.6648,175,75
2026-05-09 16:14:55.500,4,-0.71,-0.25,1.4,27.7392,54.8446,6.645199999999999,175,75
2026-05-09 16:14:55.511,4,-0.59,-0.17,1.44,28.1692,54.964600000000004,5.915199999999999,175,75
2026-05-09 16:14:55.524,4,-0.54,-0.11,1.44,26.7092,49.2346,-0.3048000000000002,175,75
2026-05-09 16:14:55.536,4,-0.46,-0.02,1.42,23.4092,44.41459999999999,-9.6948,175,75
2026-05-09 16:14:55.564,4,-0.33,0.31,1.34,15.9692,58.9846,-26.3948,175,75
2026-05-09 16:14:55.575,4,-0.24,0.47,1.31,16.1592,71.3646,-26.884800000000002,175,75
2026-05-09 16:14:55.585,4,-0.19,0.58,1.27,15.2392,75.4546,-29.4448,175,75
2026-05-09 16:14:55.597,4,-0.24,0.69,1.25,11.7092,83.5646,-34.5648,175,75
2026-05-09 16:14:55.608,4,-0.28,0.8,1.28,9.7592,104.78460000000001,-33.4148,175,75
2026-05-09 16:14:55.608,4,-0.28,0.88,1.29,10.609200000000001,122.21459999999999,-36.0348,175,75
2026-05-09 16:14:55.620,4,-0.25,0.97,1.32,10.789200000000001,127.5846,-34.3848,175,75
2026-05-09 16:14:55.630,4,-0.31,1.05,1.4,9.7592,125.3246,-33.2848,175,75
2026-05-09 16:14:55.642,4,-0.39,1.13,1.58,12.069199999999999,115.02459999999999,-32.9248,175,75
2026-05-09 16:14:55.664,4,-0.35,1.18,1.86,21.9492,29.8446,-38.5348,175,75
2026-05-09 16:14:55.693,4,-0.51,1.01,1.7,22.0092,-87.1754,-44.0848,175,75
2026-05-09 16:14:55.704,4,-0.6,0.79,1.47,24.6292,-96.0154,-36.3348,175,75
2026-05-09 16:14:55.711,4,-0.67,0.51,1.32,27.3792,-88.3954,-28.8348,175,75
2026-05-09 16:14:55.734,4,-0.86,-0.51,1.08,30.2392,-40.8254,-16.8248,175,75
2026-05-09 16:14:55.745,4,-0.82,-1.05,1.05,31.0992,-10.1554,-6.764799999999999,175,75
2026-05-09 16:14:55.757,4,-0.77,-1.58,1.08,33.1092,3.8645999999999994,13.1752,175,75
2026-05-09 16:14:55.769,4,-0.8,-2.0,1.13,35.9692,1.9146,30.7352,175,75
2026-05-09 16:14:55.779,4,-0.91,-2.44,1.19,38.4692,-7.8454000000000015,37.9352,175,75
2026-05-09 16:14:55.792,4,-1.23,-2.44,1.29,18.3492,-21.0154,14.0852,175,75
2026-05-09 16:14:55.804,4,-1.48,-2.08,1.28,-28.5408,-17.715400000000002,-45.1148,175,75
2026-05-09 16:14:55.809,4,-1.17,-1.66,1.28,-71.9508,10.694600000000001,-93.34479999999999,175,75
2026-05-09 16:14:55.821,4,-0.42,-1.13,1.41,-90.9208,37.3446,-25.8548,175,75
2026-05-09 16:14:55.836,4,-0.71,-0.76,1.42,-85.0608,58.4346,45.2452,175,75
2026-05-09 16:14:55.848,4,-0.8,-0.75,1.47,-63.60080000000001,75.02459999999999,33.4152,175,75
2026-05-09 16:14:55.871,4,-0.3,-0.75,1.67,-51.830799999999996,72.52459999999999,10.7952,175,75
2026-05-09 16:14:55.881,4,-0.36,-0.52,1.64,-50.49080000000001,57.3446,-3.1648,175,75
2026-05-09 16:14:55.896,4,-0.37,-0.27,1.64,-40.24080000000001,53.6246,-17.064799999999998,175,75
2026-05-09 16:14:55.896,4,-0.35,-0.08,1.64,-30.9808,55.384600000000006,-18.9548,175,75
2026-05-09 16:14:55.917,4,-0.34,0.08,1.59,-16.7108,50.9346,-19.6948,175,75
2026-05-09 16:14:55.928,4,-0.34,0.1,1.55,-0.4908000000000001,42.3446,-21.8248,175,75
2026-05-09 16:14:55.939,4,-0.32,0.08,1.54,9.569199999999999,44.2346,-20.2448,175,75
2026-05-09 16:14:55.950,4,-0.25,0.12,1.53,10.359200000000001,45.2046,-20.724800000000002,175,75
2026-05-09 16:14:55.962,4,-0.18,0.22,1.53,8.9592,34.5946,-25.3048,175,75
2026-05-09 16:14:55.980,4,-0.14,0.32,1.52,7.3192,26.1246,-28.4148,175,75
2026-05-09 16:14:56.008,4,-0.17,0.6,1.73,-0.24080000000000013,18.1946,-37.6148,175,75
2026-05-09 16:14:56.018,4,-0.17,0.72,1.85,0.549199999999999,-1.7454,-41.7048,175,75
2026-05-09 16:14:56.018,4,-0.22,0.8,1.91,4.0192,-34.8554,-47.0048,175,75
2026-05-09 16:14:56.030,4,-0.26,0.86,1.91,8.4692,-70.6454,-51.0948,175,75
2026-05-09 16:14:56.054,4,-0.34,0.91,1.72,21.4592,-114.6754,-61.394800000000004,175,75
2026-05-09 16:14:56.065,4,-0.38,0.9,1.64,26.649199999999997,-117.8454,-62.7448,175,75
2026-05-09 16:14:56.076,4,-0.43,0.87,1.56,33.1092,-114.2454,-64.0248,175,75
2026-05-09 16:14:56.087,4,-0.47,0.82,1.51,39.8792,-109.1854,-65.17479999999999,175,75
2026-05-09 16:14:56.099,4,-0.48,0.72,1.45,45.789199999999994,-106.0154,-67.00479999999999,175,75
2026-05-09 16:14:56.109,4,-0.55,0.63,1.34,43.6592,-105.5254,-65.84479999999999,175,75
2026-05-09 16:14:56.121,4,-0.63,0.56,1.25,39.9392,-81.6254,-62.9848,175,75
2026-05-09 16:14:56.132,4,-0.75,0.45,1.2,39.6892,-18.2054,-50.0548,175,75
2026-05-09 16:14:56.145,4,-0.86,0.22,1.28,41.7692,43.0146,-34.9948,175,75
2026-05-09 16:14:56.152,4,-0.89,-0.09,1.49,43.0492,81.7346,-23.224800000000002,175,75
2026-05-09 16:14:56.176,4,-0.87,-0.52,1.77,47.679199999999994,65.6946,-21.7648,175,75
2026-05-09 16:14:56.189,4,-0.91,-1.08,1.97,56.039199999999994,-14.7354,-20.0548,175,75
2026-05-09 16:14:56.220,4,-1.18,-2.11,1.66,51.5192,-148.6354,-7.3748000000000005,175,75
2026-05-09 16:14:56.235,4,-1.14,-1.95,1.52,36.1592,-164.1254,-26.3948,175,75
2026-05-09 16:14:56.245,4,-0.91,-1.69,1.41,26.399199999999997,-165.4654,-29.4448,175,75
2026-05-09 16:14:56.245,4,-0.7,-1.49,1.29,25.0592,-163.4554,-12.1348,175,75
2026-05-09 16:14:56.256,4,-0.63,-1.38,1.11,34.75919999999999,-139.9154,14.145199999999999,175,75
2026-05-09 16:14:56.274,4,-0.53,-1.38,1.09,40.5492,-85.7054,25.4952,175,75
2026-05-09 16:14:56.298,4,-0.24,-1.2,1.2,29.8792,-28.2654,33.5452,175,75
2026-05-09 16:14:56.308,4,-0.07,-0.93,1.32,16.8292,-15.035400000000001,34.8852,175,75
2026-05-09 16:14:56.319,4,0.07,-0.43,1.44,1.4591999999999992,-20.9554,30.9752,175,75
2026-05-09 16:14:56.319,4,0.16,0.13,1.48,-8.5408,-26.0154,24.275199999999998,175,75
2026-05-09 16:14:56.330,4,0.25,0.55,1.48,-14.5708,-32.5954,23.2352,175,75
2026-05-09 16:14:56.336,4,0.27,1.11,1.46,-17.9908,-44.8554,21.3452,175,75
2026-05-09 16:14:56.353,4,0.18,1.41,1.39,-15.180800000000001,-44.425399999999996,20.0652,175,75
2026-05-09 16:14:56.365,4,0.1,1.47,1.29,-7.9308000000000005,-23.0254,19.6352,175,75
2026-05-09 16:14:56.374,4,0.05,1.33,1.18,4.449199999999999,24.904600000000002,23.6652,175,75
2026-05-09 16:14:56.374,4,0.07,1.19,1.15,11.5792,68.6246,28.2352,175,75
2026-05-09 16:14:56.396,4,0.14,1.12,1.22,12.7392,116.18459999999999,31.2252,175,75
2026-05-09 16:14:56.408,4,0.17,1.16,1.32,10.729199999999999,135.3246,31.775199999999998,175,75
2026-05-09 16:14:56.418,4,0.15,1.19,1.5,12.6192,142.9546,32.0752,175,75
2026-05-09 16:14:56.422,4,0.12,1.06,1.63,16.9492,127.03460000000001,30.435200000000002,175,75
2026-05-09 16:14:56.436,4,0.05,0.84,1.7,18.4692,98.3746,26.1652,175,75
2026-05-09 16:14:56.446,4,-0.04,0.58,1.65,15.2392,70.8746,18.7252,175,75
2026-05-09 16:14:56.459,4,-0.12,0.3,1.51,15.299199999999999,66.0646,9.8852,175,75
2026-05-09 16:14:56.472,4,-0.1,-0.13,1.29,24.8192,106.6046,5.8552,175,75
2026-05-09 16:14:56.493,4,-0.23,-0.98,1.18,35.2392,155.6946,21.5852,175,75
2026-05-09 16:14:56.519,4,-0.49,-1.38,1.34,31.7092,150.3846,20.6752,175,75
2026-05-09 16:14:56.519,4,-0.79,-1.77,1.58,30.969199999999997,141.3046,15.615199999999998,175,75
2026-05-09 16:14:56.541,4,-1.04,-1.19,2.05,-7.2008,10.084600000000002,-56.1548,175,75
2026-05-09 16:14:56.554,4,-0.91,-0.85,1.82,-41.770799999999994,-52.2954,-42.9248,175,75
2026-05-09 16:14:56.580,4,-1.09,-0.81,1.25,-25.7308,-19.0054,0.4952000000000001,175,75
2026-05-09 16:14:56.594,4,-1.08,-0.88,1.26,-4.0308,75.7546,25.9752,175,75
2026-05-09 16:14:56.605,4,-1.01,-0.86,1.48,3.6592000000000002,124.65459999999999,35.1852,175,75
2026-05-09 16:14:56.622,4,-0.94,-0.78,1.66,7.619199999999999,122.34459999999999,34.3352,175,75
2026-05-09 16:14:56.633,4,-0.89,-0.62,1.77,9.9392,73.8646,32.9352,175,75
2026-05-09 16:14:56.633,4,-0.86,-0.49,1.71,8.409199999999998,36.1246,32.8652,175,75
2026-05-09 16:14:56.644,4,-0.87,-0.37,1.57,6.219199999999999,19.354599999999998,33.1752,175,75
2026-05-09 16:14:56.671,4,-0.89,-0.26,1.38,7.3192,28.3746,36.5252,175,75
2026-05-09 16:14:56.682,4,-0.87,-0.18,1.3,13.4692,59.2346,42.0152,175,75
2026-05-09 16:14:56.682,4,-0.81,-0.12,1.29,19.3292,89.9646,48.2352,175,75
2026-05-09 16:14:56.682,4,-0.76,-0.07,1.34,20.6692,108.74459999999999,51.8352,175,75
2026-05-09 16:14:56.704,4,-0.69,-0.01,1.41,19.7592,114.2946,49.6952,175,75
2026-05-09 16:14:56.719,4,-0.61,0.06,1.46,16.6492,104.96459999999999,42.6252,175,75
2026-05-09 16:14:56.729,4,-0.53,0.17,1.49,12.6192,94.7146,39.4552,175,75
2026-05-09 16:14:56.729,4,-0.45,0.34,1.5,6.5192,83.8646,35.6752,175,75
2026-05-09 16:14:56.739,4,-0.42,0.48,1.51,1.0991999999999997,76.4846,33.1152,175,75
2026-05-09 16:14:56.751,4,-0.38,0.65,1.51,-4.7608,68.0746,29.6952,175,75
2026-05-09 16:14:56.764,4,-0.3,0.85,1.49,-7.4408,57.584599999999995,26.7152,175,75
2026-05-09 16:14:56.785,4,-0.24,1.04,1.43,-6.9508,48.3146,23.8452,175,75
2026-05-09 16:14:56.796,4,-0.24,1.08,1.42,-6.4008,53.3746,22.865199999999998,175,75
2026-05-09 16:14:56.800,4,-0.23,1.11,1.45,-4.1508,64.0446,22.865199999999998,175,75
2026-05-09 16:14:56.818,4,-0.21,1.13,1.52,-1.4607999999999999,70.02459999999999,22.1352,175,75
2026-05-09 16:14:56.828,4,-0.16,1.11,1.6,3.1091999999999995,60.5146,18.1752,175,75
2026-05-09 16:14:56.841,4,-0.18,1.02,1.62,5.1792,-0.5853999999999999,7.385199999999999,175,75
2026-05-09 16:14:56.854,4,-0.29,0.92,1.59,7.799199999999999,-20.895400000000002,5.6752,175,75
2026-05-09 16:14:56.869,4,-0.41,0.81,1.56,9.819199999999999,-30.465400000000002,8.665199999999999,175,75
2026-05-09 16:14:56.879,4,-0.5,0.67,1.49,9.8792,-31.3754,12.9352,175,75
2026-05-09 16:14:56.890,4,-0.56,0.45,1.41,10.299199999999999,-18.145400000000002,16.2852,175,75
2026-05-09 16:14:56.900,4,-0.67,-0.0,1.35,15.549199999999999,7.464599999999997,18.8452,175,75
2026-05-09 16:14:56.917,4,-0.76,-0.7,1.29,25.8492,28.074599999999997,17.865199999999998,175,75
2026-05-09 16:14:56.929,4,-0.69,-1.6,1.26,32.7392,26.184599999999996,25.0052,175,75
2026-05-09 16:14:56.942,4,-0.69,-2.77,1.3,38.0492,-2.4154000000000018,72.6252,175,75
2026-05-09 16:14:56.952,4,-0.96,-3.58,1.42,44.8792,-30.5254,127.6252,175,75
2026-05-09 16:14:56.952,4,-1.65,-3.71,1.57,41.459199999999996,-51.5054,131.89520000000002,175,75
2026-05-09 16:14:56.975,4,-2.42,-2.69,1.5,-9.9408,-76.3754,-44.8748,175,75
2026-05-09 16:14:56.985,4,-1.93,-1.74,1.36,-105.7908,-66.31540000000001,-289.2048,175,75
2026-05-09 16:14:56.990,4,0.94,-0.79,1.83,-168.7208,-6.865400000000001,-293.2848,175,75
2026-05-09 16:14:57.013,4,-0.91,0.4,1.61,-122.0108,71.7946,54.5752,175,75
2026-05-09 16:14:57.041,4,-0.39,-0.14,1.9,-21.0408,55.574600000000004,-32.3748,175,75
2026-05-09 16:14:57.052,4,0.03,-0.3,2.06,-44.3908,19.654600000000002,-4.9948,175,75
2026-05-09 16:14:57.063,4,-0.29,-0.13,1.86,-62.5608,-62.4754,-29.5048,175,75
2026-05-09 16:14:57.076,4,-0.35,0.09,1.71,-40.0608,-97.9054,-54.0848,175,75
2026-05-09 16:14:57.076,4,-0.3,0.29,1.55,-15.8508,-101.9254,-48.1648,175,75
2026-05-09 16:14:57.087,4,-0.33,0.4,1.29,7.7392,-87.5954,-34.1448,175,75
2026-05-09 16:14:57.098,4,-0.43,0.32,1.14,15.1192,-55.0954,-32.3148,175,75
2026-05-09 16:14:57.110,4,-0.48,0.23,1.17,12.859200000000001,10.934599999999996,-23.4148,175,75
2026-05-09 16:14:57.121,4,-0.42,0.24,1.27,8.289200000000001,51.6746,-18.1648,175,75
2026-05-09 16:14:57.131,4,-0.27,0.36,1.5,1.6492000000000004,62.824600000000004,-19.3248,175,75
2026-05-09 16:14:57.144,4,-0.14,0.55,1.69,-5.9208,25.574599999999997,-23.224800000000002,175,75
2026-05-09 16:14:57.155,4,-0.13,0.66,1.74,-11.6508,-4.9754000000000005,-26.0348,175,75
2026-05-09 16:14:57.176,4,-0.13,0.79,1.75,-18.1708,-32.0454,-29.5048,175,75
2026-05-09 16:14:57.187,4,-0.12,0.87,1.75,-17.500799999999998,-35.7654,-29.2048,175,75
2026-05-09 16:14:57.187,4,-0.08,0.93,1.73,-12.930800000000001,-35.7654,-28.3548,175,75
2026-05-09 16:14:57.221,4,-0.04,0.94,1.64,5.4292,-42.785399999999996,-33.8348,175,75
2026-05-09 16:14:57.222,4,-0.07,0.84,1.6,11.2792,-45.9554,-38.714800000000004,175,75
2026-05-09 16:14:57.249,4,-0.25,0.6,1.65,19.6892,-74.1854,-54.9348,175,75
2026-05-09 16:14:57.261,4,-0.37,0.58,1.68,20.0592,-104.8554,-57.6748,175,75
2026-05-09 16:14:57.268,4,-0.46,0.54,1.66,22.4992,-131.3754,-58.9548,175,75
2026-05-09 16:14:57.284,4,-0.57,0.38,1.55,25.359199999999998,-146.1354,-57.8648,175,75
2026-05-09 16:14:57.301,4,-0.69,0.14,1.38,26.829199999999997,-139.4254,-54.6348,175,75
2026-05-09 16:14:57.323,4,-0.87,-1.48,1.23,26.829199999999997,-29.9754,-24.1448,175,75
2026-05-09 16:14:57.332,4,-0.85,-2.15,1.4,26.649199999999997,-17.355400000000003,-8.9548,175,75
2026-05-09 16:14:57.341,4,-1.01,-2.6,1.63,29.6292,-42.415400000000005,-5.4848,175,75
2026-05-09 16:14:57.369,4,-1.14,-1.85,2.23,-17.500799999999998,-134.9754,-105.97479999999999,175,75
2026-05-09 16:14:57.380,4,-0.33,-1.11,2.18,-85.3708,-198.8754,-72.92479999999999,175,75
2026-05-09 16:14:57.412,4,-0.56,-0.85,1.08,-20.980800000000002,-179.7954,-19.9348,175,75
2026-05-09 16:14:57.423,4,-0.55,-0.91,1.05,-2.7408,-51.5654,5.4352,175,75
2026-05-09 16:14:57.433,4,-0.5,-0.84,1.22,-4.0308,26.9146,12.1952,175,75
2026-05-09 16:14:57.447,4,-0.39,-0.68,1.45,-5.9208,47.4046,6.405199999999999,175,75
2026-05-09 16:14:57.447,4,-0.3,-0.36,1.69,-6.6508,17.404600000000002,1.8352,175,75
2026-05-09 16:14:57.461,4,-0.32,-0.04,1.74,-9.2108,-18.2654,-1.3348,175,75
2026-05-09 16:14:57.474,4,-0.34,0.36,1.71,-14.450800000000001,-38.3254,-8.104800000000001,175,75
2026-05-09 16:14:57.484,4,-0.3,0.8,1.73,-20.3108,-40.4654,-5.6648,175,75
2026-05-09 16:14:57.506,4,-0.24,1.21,1.74,-20.550800000000002,-37.5954,1.0452,175,75
2026-05-09 16:14:57.507,4,-0.2,1.47,1.73,-13.110800000000001,-36.8054,5.1852,175,75
2026-05-09 16:14:57.522,4,-0.2,1.49,1.72,-1.6508000000000003,-33.0854,9.3352,175,75
2026-05-09 16:14:57.553,4,-0.25,1.28,1.72,3.959199999999999,-28.0854,11.405199999999999,175,75
2026-05-09 16:14:57.566,4,-0.33,1.06,1.81,-2.7408,-39.6754,7.9352,175,75
2026-05-09 16:14:57.566,4,-0.34,1.09,1.84,-6.1608,-67.2954,6.895199999999999,175,75
2026-05-09 16:14:57.587,4,-0.4,1.09,1.81,-3.1108000000000002,-108.1454,11.165199999999999,175,75
2026-05-09 16:14:57.587,4,-0.51,0.93,1.67,3.469199999999999,-140.2154,18.7852,175,75
2026-05-09 16:14:57.597,4,-0.58,0.7,1.47,8.5992,-138.8154,24.9452,175,75
2026-05-09 16:14:57.610,4,-0.73,0.34,1.27,15.0592,-111.3154,34.9452,175,75
2026-05-09 16:14:57.638,4,-0.66,-0.91,0.89,50.429199999999994,12.884599999999999,52.7452,175,75
2026-05-09 16:14:57.646,4,-0.62,-1.88,0.91,69.44919999999999,57.6446,59.5152,175,75
2026-05-09 16:14:57.658,4,-0.87,-2.58,1.1,79.6292,81.4846,69.63520000000001,175,75
2026-05-09 16:14:57.669,4,-1.4,-2.49,1.5,73.4692,92.4046,54.3352,175,75
2026-05-09 16:14:57.685,4,-1.72,-1.7,1.79,52.619200000000006,66.1246,-24.5648,175,75
2026-05-09 16:14:57.703,4,-0.39,-0.32,2.02,-54.940799999999996,-77.78540000000001,-2.6148000000000002,175,75
2026-05-09 16:14:57.716,4,-0.63,-0.11,1.73,-64.5108,-142.4154,43.2952,175,75
2026-05-09 16:14:57.726,4,-0.9,-0.34,1.38,-15.3708,-157.8454,30.495199999999997,175,75
2026-05-09 16:14:57.736,4,-0.87,-0.6,1.29,9.449200000000001,-113.9354,35.7952,175,75
2026-05-09 16:14:57.769,4,-0.83,-0.84,1.29,6.2791999999999994,-45.285399999999996,59.4552,175,75
2026-05-09 16:14:57.779,4,-0.8,-0.88,1.3,0.8491999999999997,-42.8454,51.3452,175,75
2026-05-09 16:14:57.779,4,-0.71,-0.77,1.28,3.7791999999999994,-74.1254,36.7152,175,75
2026-05-09 16:14:57.790,4,-0.67,-0.66,1.18,7.799199999999999,-90.4054,37.0752,175,75
2026-05-09 16:14:57.800,4,-0.67,-0.56,1.03,10.2392,-84.9154,38.2952,175,75
2026-05-09 16:14:57.800,4,-0.67,-0.48,0.93,9.5092,-55.7054,35.7352,175,75
2026-05-09 16:14:57.811,4,-0.58,-0.37,0.92,4.0792,-11.3154,35.7352,175,75
2026-05-09 16:14:57.823,4,-0.45,-0.24,0.98,-4.7608,30.5146,38.4752,175,75
2026-05-09 16:14:57.832,4,-0.33,-0.12,1.08,-12.680800000000001,47.464600000000004,38.1152,175,75
2026-05-09 16:14:57.855,4,-0.16,0.13,1.24,-31.5308,19.904600000000002,25.0052,175,75
2026-05-09 16:14:57.865,4,-0.15,0.25,1.27,-39.150800000000004,5.1446000000000005,18.6652,175,75
2026-05-09 16:14:57.891,4,-0.16,0.57,1.35,-48.7208,-20.285400000000003,7.6251999999999995,175,75
2026-05-09 16:14:57.902,4,-0.2,0.72,1.4,-47.2608,-24.8554,3.9652,175,75
2026-05-09 16:14:57.924,4,-0.21,0.98,1.33,-48.4808,-25.465400000000002,0.9752000000000001,175,75
2026-05-09 16:14:57.932,4,-0.2,1.07,1.27,-47.8708,-24.4254,4.3352,175,75
2026-05-09 16:14:57.960,4,-0.16,1.15,1.19,-41.460800000000006,-11.9854,13.415199999999999,175,75
2026-05-09 16:14:57.960,4,-0.14,1.23,1.18,-34.4508,15.934599999999996,21.955199999999998,175,75
2026-05-09 16:14:57.973,4,-0.15,1.29,1.22,-32.2008,38.3746,26.8352,175,75
2026-05-09 16:14:57.990,4,-0.34,1.29,1.44,-31.4608,59.354600000000005,34.0252,175,75
2026-05-09 16:14:58.012,4,-0.49,1.09,1.52,-31.4608,55.9346,38.1752,175,75
2026-05-09 16:14:58.029,4,-0.63,0.58,1.7,-30.1808,49.8446,38.7252,175,75
2026-05-09 16:14:58.039,4,-0.75,0.22,1.79,-22.870800000000003,18.684599999999996,37.9352,175,75
2026-05-09 16:14:58.039,4,-0.88,-0.21,1.81,-13.3508,-28.5154,36.4652,175,75
2026-05-09 16:14:58.061,4,-1.0,-1.0,1.79,-0.3708,-122.1754,38.2952,175,75
2026-05-09 16:14:58.089,4,-1.1,-2.01,1.73,15.8492,-221.3154,48.785199999999996,175,75
2026-05-09 16:14:58.089,4,-1.15,-2.72,1.67,28.109199999999998,-290.58540000000005,70.49520000000001,175,75
2026-05-09 16:14:58.101,4,-2.05,-3.35,1.73,-24.2108,-404.2454,98.4752,175,75
2026-05-09 16:14:58.111,4,-2.54,-2.63,1.62,-99.94080000000001,-405.46540000000005,-15.9748,175,75
2026-05-09 16:14:58.124,4,-2.21,-1.98,1.43,-172.8708,-355.0354,-169.38479999999998,175,75
2026-05-09 16:14:58.147,4,0.42,-0.65,1.5,-151.8908,-313.69539999999995,-124.50479999999999,175,75
2026-05-09 16:14:58.156,4,-0.36,0.04,1.45,-98.7208,-289.2454,59.9452,175,75
2026-05-09 16:14:58.163,4,-0.78,0.04,1.23,-23.9608,-213.8154,67.32520000000001,175,75
2026-05-09 16:14:58.180,4,-0.55,-0.26,1.35,2.3192000000000004,-146.2554,18.9652,175,75
2026-05-09 16:14:58.190,4,-0.32,-0.11,1.43,-25.7308,-96.1354,37.1352,175,75
2026-05-09 16:14:58.200,4,-0.34,-0.03,1.39,-1.5908000000000007,-106.8654,22.6252,175,75
2026-05-09 16:14:58.236,4,-0.32,0.24,1.37,40.429199999999994,-73.08539999999999,31.5852,175,75
2026-05-09 16:14:58.236,4,-0.28,0.34,1.45,48.839200000000005,-55.1554,31.775199999999998,175,75
2026-05-09 16:14:58.258,4,-0.22,0.41,1.83,77.7992,-126.2554,22.9952,175,75
2026-05-09 16:14:58.286,4,-0.28,0.41,1.91,79.9992,-180.40540000000001,16.1052,175,75
2026-05-09 16:14:58.286,4,-0.36,0.44,1.89,75.6092,-234.6754,8.235199999999999,175,75
2026-05-09 16:14:58.297,4,-0.42,0.53,1.73,64.9392,-297.2954,0.005199999999999871,175,75
2026-05-09 16:14:58.307,4,-0.44,0.6,1.53,53.289199999999994,-331.19539999999995,-4.2648,175,75
2026-05-09 16:14:58.342,4,-0.4,0.74,0.88,21.8892,-253.7554,-4.9348,175,75
2026-05-09 16:14:58.352,4,-0.32,0.73,0.83,26.579199999999997,-114.7354,9.8852,175,75
2026-05-09 16:14:58.364,4,-0.27,0.63,0.89,29.939200000000003,-49.0654,16.4052,175,75
2026-05-09 16:14:58.395,4,-0.39,0.42,1.14,15.299199999999999,32.7646,21.3452,175,75
2026-05-09 16:14:58.401,4,-0.45,0.4,1.21,-0.3708,65.0846,22.1952,175,75
2026-05-09 16:14:58.413,4,-0.51,0.45,1.29,-11.0408,97.0346,28.1752,175,75
2026-05-09 16:14:58.423,4,-0.66,0.4,1.36,-7.9908,132.5846,38.9652,175,75
2026-05-09 16:14:58.433,4,-0.81,0.21,1.44,-3.0508000000000006,155.8746,47.1352,175,75
2026-05-09 16:14:58.448,4,-1.01,-0.09,1.57,-1.1608,179.4746,54.0252,175,75
2026-05-09 16:14:58.472,4,-1.21,-0.59,1.84,2.8591999999999995,196.5446,56.7752,175,75
2026-05-09 16:14:58.472,4,-1.24,-1.18,2.05,10.909199999999998,153.0146,55.6752,175,75
2026-05-09 16:14:58.493,4,-1.53,-2.03,2.24,14.269200000000001,-40.3454,61.7152,175,75
2026-05-09 16:14:58.502,4,-1.73,-2.19,2.23,5.299199999999999,-132.9054,66.2252,175,75
2026-05-09 16:14:58.506,4,-1.97,-2.04,2.08,-29.1508,-226.7454,49.9452,175,75
2026-05-09 16:14:58.558,4,-0.88,-0.39,0.79,-45.9208,-40.4054,114.9452,175,75
2026-05-09 16:14:58.568,4,-0.78,-0.37,0.82,-27.2608,87.4646,98.60520000000001,175,75
2026-05-09 16:14:58.578,4,-0.52,-0.31,1.02,-31.160800000000002,184.2346,96.77520000000001,175,75
2026-05-09 16:14:58.604,4,0.01,0.44,1.66,-55.0008,259.65459999999996,80.6752,175,75
2026-05-09 16:14:58.614,4,0.16,0.93,1.9,-61.2208,213.5646,67.74520000000001,175,75
2026-05-09 16:14:58.626,4,0.17,1.41,2.02,-64.8808,145.2046,54.6352,175,75
2026-05-09 16:14:58.637,4,0.17,1.55,2.0,-60.6108,102.9546,47.2552,175,75
2026-05-09 16:14:58.654,4,0.08,1.02,1.84,-33.4208,35.934599999999996,39.0252,175,75
2026-05-09 16:14:58.664,4,0.01,0.68,1.89,-28.2308,11.124600000000001,29.755200000000002,175,75
2026-05-09 16:14:58.675,4,-0.04,0.52,2.01,-24.7008,-23.6354,19.6352,175,75
2026-05-09 16:14:58.691,4,-0.0,0.46,2.11,-14.1508,-88.08539999999999,8.235199999999999,175,75
2026-05-09 16:14:58.723,4,-0.13,0.03,1.63,-0.6707999999999998,-241.0754,-31.7048,175,75
2026-05-09 16:14:58.734,4,-0.3,-0.23,1.36,5.6692,-241.2554,-46.0948,175,75
2026-05-09 16:14:58.755,4,-0.61,-0.67,1.13,15.0592,-215.7654,-64.1448,175,75
2026-05-09 16:14:58.783,4,-1.06,-0.81,1.14,-26.7708,-164.3654,-80.72479999999999,175,75
2026-05-09 16:14:58.819,4,-0.66,-0.51,1.38,-66.8308,-1.5654000000000003,-45.6048,175,75
2026-05-09 16:14:58.828,4,-0.58,-0.65,1.49,-59.150800000000004,13.744599999999998,-42.0648,175,75
2026-05-09 16:14:58.839,4,-0.64,-0.9,1.66,-48.8408,17.154600000000002,-43.0448,175,75
2026-05-09 16:14:58.864,4,-1.18,-1.08,1.92,-51.8908,-70.3454,-40.4248,175,75
2026-05-09 16:14:58.874,4,-1.37,-0.99,1.84,-57.440799999999996,-104.0054,-45.6648,175,75
2026-05-09 16:14:58.884,4,-1.44,-0.82,1.66,-61.3408,-99.4254,-49.0248,175,75
2026-05-09 16:14:58.894,4,-1.37,-0.67,1.5,-55.430800000000005,-65.4054,-40.7248,175,75
2026-05-09 16:14:58.906,4,-1.37,-0.6,1.44,-45.9808,-24.4254,-27.0648,175,75
2026-05-09 16:14:58.929,4,-1.18,-0.41,1.77,-29.6408,45.4546,-19.4448,175,75
2026-05-09 16:14:58.942,4,-0.89,-0.19,1.94,-19.3308,33.4946,-12.8048,175,75
2026-05-09 16:14:58.964,4,-0.64,0.21,1.95,-9.8808,-69.4254,-22.7448,175,75
2026-05-09 16:14:58.975,4,-0.63,0.37,1.82,-11.950800000000001,-92.7154,-24.3248,175,75
2026-05-09 16:14:58.986,4,-0.59,0.63,1.56,-14.210799999999999,-105.8954,-25.4848,175,75
2026-05-09 16:14:59.025,4,-0.47,1.2,1.14,-7.010800000000001,22.824599999999997,0.24520000000000008,175,75
2026-05-09 16:14:59.040,4,-0.35,1.28,1.28,-4.090800000000001,121.7346,9.6352,175,75
2026-05-09 16:14:59.055,4,-0.28,1.23,1.39,-0.8508000000000004,140.3846,9.6952,175,75
2026-05-09 16:14:59.071,4,-0.25,1.16,1.53,2.9892000000000003,137.9546,4.2752,175,75
2026-05-09 16:14:59.082,4,-0.27,1.11,1.61,10.359200000000001,133.0146,-3.7148000000000003,175,75
2026-05-09 16:14:59.082,4,-0.23,1.09,1.66,21.8892,137.7046,-4.4448,175,75
2026-05-09 16:14:59.102,4,-0.2,1.07,1.76,36.709199999999996,118.25460000000001,-0.7248000000000001,175,75
2026-05-09 16:14:59.114,4,-0.15,1.03,1.87,46.2792,61.91459999999999,2.6252,175,75
2026-05-09 16:14:59.147,4,-0.26,0.55,1.76,36.8292,-126.3154,-6.5248,175,75
2026-05-09 16:14:59.147,4,-0.46,0.2,1.61,22.3192,-184.7954,-18.5348,175,75
2026-05-09 16:14:59.158,4,-0.71,-0.12,1.45,9.8792,-209.0054,-24.2048,175,75
2026-05-09 16:14:59.168,4,-0.93,-0.63,1.09,1.3392,-199.1254,-23.1048,175,75
2026-05-09 16:14:59.178,4,-0.99,-1.11,0.85,1.3392,-156.0754,-10.4248,175,75
2026-05-09 16:14:59.194,4,-0.99,-1.91,0.69,8.839199999999998,-54.7354,28.3552,175,75
2026-05-09 16:14:59.205,4,-1.0,-2.53,0.79,15.549199999999999,47.0346,69.51520000000001,175,75
2026-05-09 16:14:59.242,4,-1.6,-1.94,1.81,-14.700800000000001,48.254599999999996,-56.3348,175,75
2026-05-09 16:14:59.255,4,-0.93,-1.44,2.02,-56.040800000000004,12.644599999999997,-123.95479999999999,175,75
2026-05-09 16:14:59.266,4,-0.37,-0.68,2.0,-113.6008,-3.575400000000002,46.0452,175,75
2026-05-09 16:14:59.266,4,-0.81,-0.6,1.7,-84.8208,-15.1554,47.3852,175,75
2026-05-09 16:14:59.280,4,-0.71,-0.71,1.55,-36.5908,-27.3554,3.4751999999999996,175,75
2026-05-09 16:14:59.300,4,-0.37,-0.73,1.49,-38.6608,-2.9654000000000025,25.2452,175,75
2026-05-09 16:14:59.313,4,-0.52,-0.65,1.41,-34.0308,37.2146,1.1052,175,75
2026-05-09 16:14:59.347,4,-0.32,-0.21,1.73,-0.24080000000000013,98.3146,0.7351999999999999,175,75
2026-05-09 16:14:59.348,4,-0.27,-0.0,1.96,-4.7008,72.8246,-11.5248,175,75
2026-05-09 16:14:59.371,4,-0.23,0.42,2.12,-13.840800000000002,-27.3554,-31.2148,175,75
2026-05-09 16:14:59.382,4,-0.23,0.6,2.1,-18.4208,-84.6154,-41.7048,175,75
2026-05-09 16:14:59.394,4,-0.25,0.73,2.07,-23.6008,-113.2054,-45.9748,175,75
2026-05-09 16:14:59.406,4,-0.24,0.81,2.02,-21.2208,-132.1154,-50.9748,175,75
2026-05-09 16:14:59.427,4,-0.19,0.85,1.87,-0.6707999999999998,-166.6254,-54.8748,175,75
2026-05-09 16:14:59.439,4,-0.18,0.78,1.74,9.5092,-180.40540000000001,-57.6148,175,75
2026-05-09 16:14:59.451,4,-0.18,0.71,1.57,10.429199999999998,-180.15540000000001,-63.5348,175,75
2026-05-09 16:14:59.465,4,-0.19,0.69,1.41,8.229199999999999,-168.3254,-69.3848,175,75
2026-05-09 16:14:59.476,4,-0.21,0.72,1.34,10.359200000000001,-145.34539999999998,-69.6348,175,75
2026-05-09 16:14:59.480,4,-0.19,0.75,1.3,16.7692,-114.8554,-69.20479999999999,175,75
2026-05-09 16:14:59.498,4,-0.19,0.72,1.25,24.8792,-87.78540000000001,-68.7148,175,75
2026-05-09 16:14:59.507,4,-0.26,0.58,1.26,32.9892,-51.2554,-69.75479999999999,175,75
2026-05-09 16:14:59.522,4,-0.34,0.44,1.29,37.1892,-18.5154,-67.67479999999999,175,75
2026-05-09 16:14:59.535,4,-0.42,0.24,1.39,40.3592,12.154600000000002,-66.5248,175,75
2026-05-09 16:14:59.536,4,-0.5,-0.08,1.57,43.839200000000005,20.3846,-68.4148,175,75
2026-05-09 16:14:59.549,4,-0.57,-0.38,1.68,46.39919999999999,4.044599999999999,-73.34479999999999,175,75
2026-05-09 16:14:59.560,4,-0.66,-0.77,1.78,45.729200000000006,-36.6854,-76.8248,175,75
2026-05-09 16:14:59.573,4,-0.78,-1.07,1.79,41.39919999999999,-79.6154,-77.5548,175,75
2026-05-09 16:14:59.587,4,-0.94,-1.4,1.77,32.7992,-122.4154,-73.0448,175,75
2026-05-09 16:14:59.590,4,-1.09,-1.72,1.71,21.5792,-149.4854,-60.7248,175,75
2026-05-09 16:14:59.604,4,-1.16,-1.94,1.61,7.4992,-166.6854,-52.5548,175,75
2026-05-09 16:14:59.611,4,-1.14,-1.98,1.4,-18.660800000000002,-172.5354,-54.5648,175,75
2026-05-09 16:14:59.640,4,-0.69,-0.91,0.9,-50.6708,26.3046,-4.6948,175,75
2026-05-09 16:14:59.664,4,-0.77,-0.64,1.07,-28.7808,140.1446,25.2452,175,75
2026-05-09 16:14:59.676,4,-0.69,-0.47,1.44,-17.3208,209.3546,33.2352,175,75
2026-05-09 16:14:59.680,4,-0.53,-0.19,1.77,-19.8208,212.5846,32.4452,175,75
2026-05-09 16:14:59.703,4,-0.23,0.88,2.07,-33.7208,85.6946,18.6052,175,75
2026-05-09 16:14:59.724,4,-0.26,1.41,1.96,-34.2708,28.9846,20.9752,175,75
2026-05-09 16:14:59.737,4,-0.32,1.66,1.81,-26.1008,14.044600000000003,25.9152,175,75
2026-05-09 16:14:59.737,4,-0.33,1.68,1.66,-14.090800000000002,32.1546,33.7252,175,75
2026-05-09 16:14:59.759,4,-0.16,1.0,1.53,19.9992,140.0246,43.9052,175,75
2026-05-09 16:14:59.793,4,-0.1,0.58,1.99,7.4992,94.3546,5.975199999999999,175,75
2026-05-09 16:14:59.804,4,-0.26,0.4,2.08,9.6292,16.674599999999998,-5.8448,175,75
2026-05-09 16:14:59.815,4,-0.46,0.11,2.06,14.9392,-64.2454,-17.3748,175,75
2026-05-09 16:14:59.836,4,-0.56,-0.17,1.94,14.3292,-128.8154,-24.4448,175,75
2026-05-09 16:14:59.846,4,-0.6,-0.43,1.79,16.6492,-169.0654,-26.7648,175,75
2026-05-09 16:14:59.846,4,-0.62,-0.7,1.64,22.3792,-199.6754,-27.0048,175,75
2026-05-09 16:14:59.858,4,-0.66,-0.91,1.55,24.759199999999996,-211.8054,-28.1648,175,75
2026-05-09 16:14:59.883,4,-0.76,-1.18,1.43,7.0092,-208.0854,-25.9148,175,75
2026-05-09 16:14:59.894,4,-0.74,-1.19,1.32,-2.7408,-192.9654,-23.7148,175,75
2026-05-09 16:14:59.905,4,-0.72,-1.17,1.15,-9.6408,-158.0254,-21.4548,175,75
2026-05-09 16:14:59.916,4,-0.75,-1.09,0.97,-12.4408,-62.7854,-14.5648,175,75
2026-05-09 16:14:59.933,4,-0.8,-0.93,1.01,-9.270800000000001,71.1846,1.5252000000000003,175,75
2026-05-09 16:14:59.949,4,-0.81,-0.83,1.3,-3.9608,166.4846,17.1352,175,75
2026-05-09 16:14:59.960,4,-0.77,-0.75,1.68,6.3992,189.6546,25.365199999999998,175,75
2026-05-09 16:14:59.960,4,-0.71,-0.71,1.97,16.6492,150.6346,25.8552,175,75
2026-05-09 16:14:59.971,4,-0.65,-0.67,2.1,21.4592,89.7846,21.8352,175,75
2026-05-09 16:14:59.990,4,-0.61,-0.59,1.88,18.7792,-30.465400000000002,7.135199999999999,175,75
2026-05-09 16:15:00.007,4,-0.63,-0.51,1.68,19.9992,-52.175399999999996,2.1952000000000003,175,75
2026-05-09 16:15:00.018,4,-0.64,-0.42,1.55,21.7092,-44.1254,2.0752,175,75
2026-05-09 16:15:00.039,4,-0.54,-0.23,1.47,19.8192,-1.1354000000000006,5.555199999999999,175,75
2026-05-09 16:15:00.057,4,-0.35,-0.12,1.44,7.619199999999999,4.2346,0.18520000000000003,175,75
2026-05-09 16:15:00.073,4,-0.3,-0.06,1.41,-0.18080000000000052,0.8746000000000009,-5.4848,175,75
2026-05-09 16:15:00.098,4,-0.25,0.06,1.34,-9.8808,5.084599999999998,-12.5548,175,75
2026-05-09 16:15:00.098,4,-0.2,0.24,1.3,-18.9608,13.8046,-18.7148,175,75
2026-05-09 16:15:00.113,4,-0.17,0.44,1.29,-26.7708,20.6946,-23.6548,175,75
2026-05-09 16:15:00.125,4,-0.17,0.67,1.34,-33.4208,25.3846,-26.5848,175,75
2026-05-09 16:15:00.137,4,-0.18,0.88,1.41,-36.830799999999996,29.964599999999997,-26.0948,175,75
2026-05-09 16:15:00.151,4,-0.17,1.32,1.66,-22.3808,23.434599999999996,-17.6748,175,75
2026-05-09 16:15:00.159,4,-0.14,1.42,1.72,-7.6808000000000005,7.7646000000000015,-14.934800000000001,175,75
2026-05-09 16:15:00.173,4,-0.1,1.43,1.72,4.1492,-19.3654,-13.0448,175,75
2026-05-09 16:15:00.192,4,-0.1,1.34,1.65,9.6292,-46.3154,-14.9948,175,75
2026-05-09 16:15:00.199,4,-0.1,1.25,1.57,12.0092,-57.1154,-17.2548,175,75
2026-05-09 16:15:00.206,4,-0.12,1.14,1.49,15.2392,-67.1754,-19.0848,175,75
2026-05-09 16:15:00.229,4,-0.25,0.86,1.33,17.9892,-103.2654,-18.6548,175,75
2026-05-09 16:15:00.244,4,-0.41,0.56,1.21,16.0392,-115.0354,-11.3948,175,75
2026-05-09 16:15:00.264,4,-0.68,-0.67,0.84,24.939200000000003,-54.1854,27.1352,175,75
2026-05-09 16:15:00.277,4,-0.47,-1.76,0.63,41.8892,40.4546,47.1352,175,75
2026-05-09 16:15:00.288,4,-0.03,-2.94,0.55,57.319199999999995,133.3146,71.65520000000001,175,75
2026-05-09 16:15:00.301,4,-0.05,-3.27,0.74,53.289199999999994,149.7146,70.79520000000001,175,75
2026-05-09 16:15:00.314,4,-0.53,-2.7,1.24,30.2392,124.0446,-0.8448,175,75
2026-05-09 16:15:00.339,4,-0.34,-1.4,2.05,-60.7308,57.52459999999999,-34.0248,175,75
2026-05-09 16:15:00.339,4,-0.48,-1.14,1.9,-79.8208,-11.505400000000002,2.1351999999999998,175,75
2026-05-09 16:15:00.366,4,-0.57,-1.11,1.64,-68.7208,-64.4254,-6.7048000000000005,175,75
2026-05-09 16:15:00.366,4,-0.45,-1.1,1.47,-64.3908,-40.3454,-8.104800000000001,175,75
2026-05-09 16:15:00.389,4,-0.25,-0.67,1.29,-70.6708,94.4746,15.915199999999999,175,75
2026-05-09 16:15:00.400,4,-0.29,-0.4,1.38,-61.710800000000006,133.8046,10.6152,175,75
2026-05-09 16:15:00.426,4,-0.4,0.07,1.79,-53.660799999999995,142.4046,-3.4748,175,75
2026-05-09 16:15:00.440,4,-0.32,0.18,1.78,-59.0308,104.2346,-14.8148,175,75
2026-05-09 16:15:00.451,4,-0.33,0.27,1.72,-62.5008,76.9146,-19.1448,175,75
2026-05-09 16:15:00.474,4,-0.4,0.36,1.68,-60.9208,65.5146,-21.6448,175,75
2026-05-09 16:15:00.497,4,-0.4,0.72,1.79,-30.4308,73.0146,-7.614800000000001,175,75
2026-05-09 16:15:00.497,4,-0.34,0.83,1.81,-21.2208,50.994600000000005,-5.3048,175,75
2026-05-09 16:15:00.508,4,-0.38,0.91,1.76,-19.3308,26.974600000000002,-6.8848,175,75
2026-05-09 16:15:00.529,4,-0.42,0.95,1.68,-20.0608,27.8846,-7.1348,175,75
2026-05-09 16:15:00.544,4,-0.45,0.96,1.66,-7.9908,47.824600000000004,-2.3148,175,75
2026-05-09 16:15:00.555,4,-0.37,0.87,1.64,13.7192,52.7046,-0.24480000000000013,175,75
2026-05-09 16:15:00.565,4,-0.4,0.73,1.65,23.1092,40.084599999999995,-1.7048,175,75
2026-05-09 16:15:00.568,4,-0.56,0.63,1.67,24.5692,34.1046,-3.5348,175,75
2026-05-09 16:15:00.586,4,-0.6,0.61,1.67,25.4892,35.754599999999996,-3.1648,175,75
2026-05-09 16:15:00.600,4,-0.56,0.61,1.71,28.3492,30.6346,1.5252000000000003,175,75
2026-05-09 16:15:00.614,4,-0.52,0.58,1.72,33.289199999999994,16.974600000000002,3.7251999999999996,175,75
2026-05-09 16:15:00.626,4,-0.51,0.5,1.7,40.2992,-5.0954000000000015,4.3352,175,75
2026-05-09 16:15:00.626,4,-0.59,0.32,1.68,44.209199999999996,-27.1754,5.0052,175,75
2026-05-09 16:15:00.638,4,-0.77,0.05,1.67,45.3592,-41.745400000000004,6.7752,175,75
2026-05-09 16:15:00.650,4,-0.86,-0.26,1.66,46.339200000000005,-50.6454,9.0252,175,75
2026-05-09 16:15:00.662,4,-0.89,-0.67,1.65,49.819199999999995,-70.58539999999999,14.145199999999999,175,75
2026-05-09 16:15:00.673,4,-0.9,-1.03,1.6,56.5192,-96.5054,19.455199999999998,175,75
2026-05-09 16:15:00.673,4,-0.91,-1.49,1.5,66.8892,-133.2654,25.7952,175,75
2026-05-09 16:15:00.687,4,-1.05,-2.01,1.33,72.6792,-155.5254,37.9352,175,75
2026-05-09 16:15:00.698,4,-1.15,-2.24,1.17,66.3992,-142.1754,37.0152,175,75
2026-05-09 16:15:00.714,4,-1.18,-2.16,1.09,49.9392,-119.0654,19.025199999999998,175,75
2026-05-09 16:15:00.729,4,-0.65,-1.55,1.03,21.8292,-83.08539999999999,-5.6048,175,75
2026-05-09 16:15:00.740,4,-0.37,-1.24,1.01,23.0492,-69.00540000000001,27.0152,175,75
2026-05-09 16:15:00.755,4,-0.36,-1.14,0.93,36.339200000000005,-40.2154,52.2552,175,75
2026-05-09 16:15:00.765,4,-0.4,-1.15,0.98,37.25919999999999,-9.615400000000001,54.2152,175,75
2026-05-09 16:15:00.781,4,-0.32,-1.02,1.12,20.1192,50.02459999999999,51.3452,175,75
2026-05-09 16:15:00.794,4,0.01,-0.58,1.23,-5.6708,107.28460000000001,35.4352,175,75
2026-05-09 16:15:00.816,4,0.28,0.15,1.35,-18.6008,121.7346,13.2952,175,75
2026-05-09 16:15:00.834,4,0.13,1.29,1.57,-44.0308,90.9346,1.1652,175,75
2026-05-09 16:15:00.846,4,-0.05,1.59,1.62,-42.8708,78.5646,0.7951999999999999,175,75
2026-05-09 16:15:00.863,4,-0.16,1.64,1.63,-31.1008,76.2446,8.7252,175,75
2026-05-09 16:15:00.871,4,-0.16,1.41,1.63,-12.2608,74.3546,24.3352,175,75
2026-05-09 16:15:00.877,4,-0.11,1.18,1.6,-5.6108,67.9546,30.855199999999996,175,75
2026-05-09 16:15:00.888,4,-0.02,1.0,1.55,-4.3308,61.364599999999996,30.9152,175,75
2026-05-09 16:15:00.899,4,0.06,0.9,1.49,-4.3308,60.1446,28.5452,175,75
2026-05-09 16:15:00.914,4,0.09,0.79,1.4,1.7691999999999997,68.5646,25.2452,175,75
2026-05-09 16:15:00.914,4,0.04,0.65,1.35,10.1192,76.1846,23.6052,175,75
2026-05-09 16:15:00.925,4,-0.03,0.46,1.34,18.3492,78.7446,20.6752,175,75
2026-05-09 16:15:00.937,4,-0.12,0.24,1.35,21.6492,74.5946,16.0452,175,75
2026-05-09 16:15:00.954,4,-0.44,-0.32,1.35,21.0392,41.1246,7.075199999999999,175,75
2026-05-09 16:15:00.966,4,-0.55,-0.64,1.31,23.5992,29.964599999999997,1.1052,175,75
2026-05-09 16:15:00.990,4,-0.66,-1.45,1.36,26.5192,23.434599999999996,-8.8348,175,75
2026-05-09 16:15:01.012,4,-0.87,-1.58,1.57,23.3492,-15.4654,-35.9148,175,75
2026-05-09 16:15:01.021,4,-1.05,-1.37,1.8,9.3292,-64.7954,-66.03479999999999,175,75
2026-05-09 16:15:01.033,4,-1.25,-0.88,2.04,-13.9008,-122.5954,-85.6048,175,75
2026-05-09 16:15:01.038,4,-1.3,-0.44,2.01,-36.5308,-179.1254,-67.5548,175,75
2026-05-09 16:15:01.051,4,-1.23,-0.33,1.81,-36.9508,-200.40540000000001,-46.0348,175,75
2026-05-09 16:15:01.061,4,-1.09,-0.56,1.47,-18.660800000000002,-178.5754,-23.5348,175,75
2026-05-09 16:15:01.135,4,-0.84,-0.32,1.47,40.2992,-6.0154,25.4952,175,75
2026-05-09 16:15:01.146,4,-0.78,-0.31,1.44,50.2392,8.864599999999996,29.6952,175,75
2026-05-09 16:15:01.158,4,-0.64,-0.28,1.51,54.209199999999996,23.4946,30.3652,175,75
2026-05-09 16:15:01.170,4,-0.5,-0.21,1.65,54.14919999999999,20.0246,34.6352,175,75
2026-05-09 16:15:01.181,4,-0.46,-0.11,1.76,50.669200000000004,-16.8654,32.2552,175,75
2026-05-09 16:15:01.205,4,-0.44,0.09,1.68,31.9492,-96.8054,16.5852,175,75
2026-05-09 16:15:01.215,4,-0.44,0.24,1.5,20.2392,-114.7354,11.5252,175,75
2026-05-09 16:15:01.231,4,-0.42,0.6,1.25,16.5792,-78.3254,7.995199999999999,175,75
2026-05-09 16:15:01.242,4,-0.31,0.76,1.16,22.5592,-43.635400000000004,12.9352,175,75
2026-05-09 16:15:01.254,4,-0.3,0.87,1.16,29.689200000000003,-7.9054,19.1452,175,75
2026-05-09 16:15:01.264,4,-0.29,0.97,1.2,35.9092,27.284599999999998,22.5652,175,75
2026-05-09 16:15:01.270,4,-0.24,1.04,1.26,42.679199999999994,61.91459999999999,25.7952,175,75
2026-05-09 16:15:01.284,4,-0.17,1.09,1.34,48.0492,80.2046,29.455199999999998,175,75
2026-05-09 16:15:01.294,4,-0.15,1.11,1.39,49.6892,73.6846,29.755200000000002,175,75
2026-05-09 16:15:01.321,4,-0.24,1.05,1.47,49.8792,62.3446,29.755200000000002,175,75
2026-05-09 16:15:01.327,4,-0.36,0.96,1.59,50.6092,63.3146,35.9752,175,75
2026-05-09 16:15:01.351,4,-0.61,0.76,1.73,33.4092,33.9846,65.1252,175,75
2026-05-09 16:15:01.361,4,-0.62,0.47,1.62,29.9992,48.9246,78.60520000000001,175,75
2026-05-09 16:15:01.374,4,-0.52,-0.06,1.44,39.0192,68.8646,77.5652,175,75
2026-05-09 16:15:01.397,4,-0.49,-0.85,1.34,45.429199999999994,75.6346,66.2852,175,75
2026-05-09 16:15:01.417,4,-0.52,-1.65,1.3,42.7392,71.7946,53.2952,175,75
2026-05-09 16:15:01.429,4,-0.69,-2.42,1.35,57.069199999999995,120.87459999999999,46.7152,175,75
2026-05-09 16:15:01.429,4,-0.58,-2.85,1.48,82.3792,166.7346,40.9752,175,75
2026-05-09 16:15:01.440,4,-0.42,-2.18,2.02,89.3292,24.174599999999998,-54.7548,175,75
2026-05-09 16:15:01.465,4,-0.13,-1.37,2.02,9.019200000000001,-100.2854,-64.7548,175,75
2026-05-09 16:15:01.476,4,-0.7,-0.73,1.26,-67.8108,-135.4054,-37.9248,175,75
2026-05-09 16:15:01.515,4,-0.27,-0.33,1.43,-48.1108,62.464600000000004,-26.6448,175,75
2026-05-09 16:15:01.536,4,-0.24,-0.23,1.49,-47.99080000000001,34.4146,-41.9448,175,75
2026-05-09 16:15:01.536,4,-0.28,-0.12,1.48,-43.7808,27.8846,-47.0648,175,75
2026-05-09 16:15:01.548,4,-0.29,-0.05,1.48,-33.4808,37.7046,-48.6548,175,75
2026-05-09 16:15:01.558,4,-0.25,0.04,1.54,-19.8808,38.494600000000005,-50.4848,175,75
2026-05-09 16:15:01.574,4,-0.23,0.16,1.7,-7.260800000000001,13.9846,-55.3648,175,75
2026-05-09 16:15:01.587,4,-0.22,0.27,1.82,-3.1108000000000002,-21.5654,-62.0648,175,75
2026-05-09 16:15:01.597,4,-0.23,0.42,1.9,-6.5308,-82.47540000000001,-71.33479999999999,175,75
2026-05-09 16:15:01.625,4,-0.22,0.67,1.81,-17.8108,-196.9254,-86.45479999999999,175,75
2026-05-09 16:15:01.625,4,-0.21,0.73,1.67,-22.870800000000003,-233.3254,-89.3848,175,75
2026-05-09 16:15:01.636,4,-0.21,0.76,1.49,-26.4008,-242.2954,-90.6048,175,75
2026-05-09 16:15:01.648,4,-0.19,0.78,1.35,-26.7108,-227.2954,-90.2448,175,75
2026-05-09 16:15:01.664,4,-0.13,0.8,1.21,-25.0608,-188.8154,-85.0548,175,75
2026-05-09 16:15:01.682,4,-0.21,0.77,1.17,-21.6508,-108.7554,-70.72479999999999,175,75
2026-05-09 16:15:01.693,4,-0.26,0.72,1.15,-24.4508,-60.3454,-63.0448,175,75
2026-05-09 16:15:01.703,4,-0.36,0.63,1.11,-28.7808,-10.345400000000001,-56.394800000000004,175,75
2026-05-09 16:15:01.718,4,-0.51,0.5,1.11,-34.330799999999996,50.8746,-47.9248,175,75
2026-05-09 16:15:01.729,4,-0.66,0.33,1.25,-36.1608,134.4746,-35.1148,175,75
2026-05-09 16:15:01.740,4,-0.75,0.17,1.52,-32.2608,204.9646,-26.0948,175,75
2026-05-09 16:15:01.754,4,-0.93,-0.21,2.33,-5.2408,195.9946,-26.0948,175,75
2026-05-09 16:15:01.774,4,-1.14,-0.55,2.62,9.819199999999999,81.6046,-26.5248,175,75
2026-05-09 16:15:01.786,4,-1.32,-0.97,2.68,12.0092,-23.575400000000002,-28.5948,175,75
2026-05-09 16:15:01.807,4,-1.05,-1.9,2.22,12.6192,-194.9754,-29.3248,175,75
2026-05-09 16:15:01.826,4,-1.01,-1.92,1.86,18.9592,-222.4154,-30.2448,175,75
2026-05-09 16:15:01.837,4,-1.06,-1.53,1.58,22.5592,-163.7554,-24.8748,175,75
2026-05-09 16:15:01.837,4,-0.95,-1.24,1.4,24.2692,-89.5454,-2.0648,175,75
2026-05-09 16:15:01.859,4,-0.9,-1.15,1.23,37.1892,-21.2554,35.0052,175,75
2026-05-09 16:15:01.859,4,-0.93,-1.25,1.14,52.929199999999994,27.7046,56.5252,175,75
2026-05-09 16:15:01.873,4,-0.94,-1.37,1.18,60.2992,91.7946,70.9752,175,75
2026-05-09 16:15:01.887,4,-0.6,-1.07,1.53,38.539199999999994,189.1746,77.99520000000001,175,75
2026-05-09 16:15:01.904,4,-0.38,-0.76,1.69,31.3392,173.2546,75.18520000000001,175,75
2026-05-09 16:15:01.928,4,-0.12,-0.05,1.84,13.3492,120.3846,59.8252,175,75
2026-05-09 16:15:01.943,4,0.05,0.35,1.94,3.3491999999999997,109.65459999999999,49.8252,175,75
2026-05-09 16:15:01.952,4,0.22,0.92,2.14,-0.7908,84.9646,37.7452,175,75
2026-05-09 16:15:01.967,4,0.23,1.29,2.29,5.059200000000001,61.1846,28.4152,175,75
2026-05-09 16:15:01.977,4,0.12,1.56,2.45,21.3992,26.3046,17.9952,175,75
2026-05-09 16:15:01.990,4,0.02,1.52,2.51,40.179199999999994,-17.965400000000002,10.0052,175,75
2026-05-09 16:15:01.990,4,0.06,1.29,2.43,53.599199999999996,-67.6554,4.0852,175,75
2026-05-09 16:15:02.025,4,0.08,0.9,1.91,67.1892,-163.2054,-14.3848,175,75
2026-05-09 16:15:02.038,4,0.03,0.94,1.6,69.5692,-170.5254,-21.5248,175,75
2026-05-09 16:15:02.038,4,-0.01,0.96,1.38,70.72919999999999,-158.1454,-22.1948,175,75
2026-05-09 16:15:02.057,4,-0.11,0.85,1.12,68.7792,-113.6954,-22.0648,175,75
2026-05-09 16:15:02.070,4,-0.24,0.53,0.84,66.2192,-7.295400000000001,-11.0348,175,75
2026-05-09 16:15:02.088,4,-0.36,0.28,0.81,69.0192,60.8746,3.2352000000000003,175,75
2026-05-09 16:15:02.100,4,-0.52,-0.05,0.89,75.9092,132.34459999999999,20.8552,175,75
2026-05-09 16:15:02.100,4,-0.58,-0.29,0.99,81.8292,170.1446,30.3652,175,75
2026-05-09 16:15:02.113,4,-0.54,-0.65,1.08,86.6492,196.4246,41.105199999999996,175,75
2026-05-09 16:15:02.136,4,-0.43,-1.09,1.13,87.4992,204.0446,48.9652,175,75
2026-05-09 16:15:02.148,4,-0.36,-1.46,1.18,83.5392,207.0346,46.1652,175,75
2026-05-09 16:15:02.160,4,-0.25,-1.66,1.3,65.11919999999999,185.8746,21.7152,175,75
2026-05-09 16:15:02.160,4,-0.24,-1.55,1.41,38.0492,143.0146,-10.0548,175,75
2026-05-09 16:15:02.174,4,-0.36,-1.14,1.53,-2.7408,82.0946,-41.5848,175,75
2026-05-09 16:15:02.189,4,-0.64,-0.77,1.58,-37.070800000000006,40.324600000000004,-37.2548,175,75
2026-05-09 16:15:02.215,4,-0.84,-0.98,1.21,-46.8908,32.2146,-7.5548,175,75
2026-05-09 16:15:02.226,4,-0.77,-1.07,1.12,-51.3408,55.084599999999995,0.6152000000000002,175,75
2026-05-09 16:15:02.239,4,-0.59,-0.98,1.2,-44.270799999999994,136.8546,1.3452000000000002,175,75
2026-05-09 16:15:02.260,4,-0.5,-0.81,1.43,-29.9408,154.84459999999999,-4.4448,175,75
2026-05-09 16:15:02.273,4,-0.53,-0.61,1.6,-22.930799999999998,131.7946,-13.7748,175,75
2026-05-09 16:15:02.286,4,-0.6,-0.4,1.62,-22.500799999999998,111.24459999999999,-18.6548,175,75
2026-05-09 16:15:02.297,4,-0.61,-0.25,1.58,-21.7108,105.0846,-20.1748,175,75
2026-05-09 16:15:02.297,4,-0.59,-0.11,1.5,-13.5408,110.3846,-18.7148,175,75
2026-05-09 16:15:02.309,4,-0.52,-0.03,1.45,-3.4808000000000003,122.28460000000001,-14.084800000000001,175,75
2026-05-09 16:15:02.324,4,-0.47,0.03,1.39,4.5692,131.3646,-11.3948,175,75
2026-05-09 16:15:02.358,4,-0.36,0.44,1.26,10.8492,167.0346,-16.7648,175,75
2026-05-09 16:15:02.371,4,-0.37,0.6,1.26,13.7792,186.7346,-18.1648,175,75
2026-05-09 16:15:02.384,4,-0.35,0.69,1.28,16.3992,201.8546,-17.9848,175,75
2026-05-09 16:15:02.394,4,-0.36,0.77,1.34,20.1192,215.8746,-18.0448,175,75
2026-05-09 16:15:02.405,4,-0.38,0.83,1.46,24.149199999999997,222.2146,-17.064799999999998,175,75
2026-05-09 16:15:02.416,4,-0.41,0.87,1.6,27.799200000000003,215.9946,-14.9948,175,75
2026-05-09 16:15:02.434,4,-0.52,0.89,1.73,30.609199999999998,191.4246,-12.924800000000001,175,75
2026-05-09 16:15:02.445,4,-0.62,0.9,1.73,38.0492,172.5846,-13.7148,175,75
2026-05-09 16:15:02.457,4,-0.51,0.88,1.64,50.5492,147.09459999999999,-16.7048,175,75
2026-05-09 16:15:02.468,4,-0.34,0.82,1.56,55.3592,117.09459999999999,-15.5448,175,75
2026-05-09 16:15:02.480,4,-0.27,0.68,1.53,53.7792,95.0846,-15.4848,175,75
2026-05-09 16:15:02.494,4,-0.3,0.35,1.47,47.9892,78.7446,-21.7648,175,75
2026-05-09 16:15:02.505,4,-0.42,0.05,1.46,43.229200000000006,80.8746,-22.5548,175,75
2026-05-09 16:15:02.505,4,-0.59,-0.32,1.48,41.5792,99.1046,-20.6048,175,75
2026-05-09 16:15:02.520,4,-0.69,-0.78,1.42,44.50919999999999,115.99459999999999,-21.0348,175,75
2026-05-09 16:15:02.530,4,-0.63,-1.53,1.36,58.959199999999996,152.8846,-30.3648,175,75
2026-05-09 16:15:02.543,4,-0.59,-2.09,1.29,78.5392,145.0846,-2.4948,175,75
2026-05-09 16:15:02.594,4,-0.74,-1.4,1.53,18.7792,170.7546,-49.2048,175,75
2026-05-09 16:15:02.630,4,-0.74,-0.92,1.5,31.3392,69.2346,-47.3748,175,75
2026-05-09 16:15:02.641,4,-0.62,-0.59,1.45,18.3492,58.5646,-39.2648,175,75
2026-05-09 16:15:02.665,4,-0.57,-0.32,1.39,17.5592,46.6746,-34.8148,175,75
2026-05-09 16:15:02.665,4,-0.49,-0.09,1.33,25.4892,37.2146,-27.6748,175,75
2026-05-09 16:15:02.681,4,-0.39,0.19,1.24,42.619200000000006,54.354600000000005,-2.0048,175,75
2026-05-09 16:15:02.693,4,-0.43,0.26,1.18,45.849199999999996,73.8046,7.8652,175,75
2026-05-09 16:15:02.708,4,-0.49,0.33,1.11,44.6292,103.19460000000001,15.4952,175,75
2026-05-09 16:15:02.749,4,-0.4,0.76,1.07,30.549200000000003,215.7546,32.9952,175,75
2026-05-09 16:15:02.770,4,-0.35,0.92,1.08,28.5992,234.9646,41.3452,175,75
2026-05-09 16:15:02.770,4,-0.4,1.04,1.15,31.7092,261.42460000000005,54.4552,175,75
2026-05-09 16:15:02.780,4,-0.46,1.05,1.24,38.4092,293.6246,67.5652,175,75
2026-05-09 16:15:02.791,4,-0.32,0.91,1.43,49.75919999999999,313.7446,76.2852,175,75
2026-05-09 16:15:02.801,4,-0.19,0.75,1.55,54.819199999999995,285.2646,73.2352,175,75
2026-05-09 16:15:02.812,4,-0.14,0.62,1.58,58.599199999999996,233.74460000000002,65.0052,175,75
2026-05-09 16:15:02.823,4,-0.18,0.52,1.56,66.5792,178.9846,54.3952,175,75
2026-05-09 16:15:02.846,4,-0.28,0.47,1.48,80.9692,131.5446,43.785199999999996,175,75
2026-05-09 16:15:02.855,4,-0.38,0.45,1.39,89.9992,93.1946,36.3452,175,75
2026-05-09 16:15:02.873,4,-0.49,0.43,1.32,93.4692,61.6746,32.0152,175,75
2026-05-09 16:15:02.883,4,-0.74,0.22,1.01,102.4992,61.7946,27.9952,175,75
2026-05-09 16:15:02.895,4,-0.84,-0.05,0.94,104.1492,97.2146,27.5052,175,75
2026-05-09 16:15:02.905,4,-0.93,-0.35,1.02,98.0492,144.59459999999999,30.9152,175,75
2026-05-09 16:15:02.924,4,-0.97,-0.62,1.15,86.94919999999999,166.2446,29.395200000000003,175,75
2026-05-09 16:15:02.936,4,-1.02,-0.85,1.35,74.8792,143.7446,20.9752,175,75
2026-05-09 16:15:02.947,4,-1.16,-1.08,1.52,64.2692,75.2646,1.7151999999999998,175,75
2026-05-09 16:15:02.956,4,-1.31,-1.19,1.59,56.5792,13.374600000000001,-16.154799999999998,175,75
2026-05-09 16:15:02.956,4,-1.37,-1.24,1.59,44.6892,-49.5454,-34.324799999999996,175,75
2026-05-09 16:15:02.981,4,-1.28,-1.22,1.45,22.1292,-110.1554,-54.8148,175,75
2026-05-09 16:15:03.000,4,-0.87,-0.84,1.04,2.8591999999999995,-84.8554,-51.4548,175,75
2026-05-09 16:15:03.036,4,-0.59,-0.45,1.17,8.1692,9.714599999999997,-23.6548,175,75
2026-05-09 16:15:03.048,4,-0.47,-0.25,1.32,10.4892,30.8146,-23.8948,175,75
2026-05-09 16:15:03.058,4,-0.37,-0.08,1.41,11.769200000000001,32.8846,-26.2148,175,75
2026-05-09 16:15:03.058,4,-0.29,0.11,1.49,12.4392,24.474600000000002,-27.8648,175,75
2026-05-09 16:15:03.070,4,-0.27,0.33,1.55,14.8792,13.074599999999997,-32.3748,175,75
2026-05-09 16:15:03.089,4,-0.26,0.56,1.57,17.4392,6.304600000000001,-37.0048,175,75
2026-05-09 16:15:03.109,4,-0.28,0.75,1.56,16.9492,5.694599999999998,-39.5048,175,75
2026-05-09 16:15:03.134,4,-0.15,1.23,1.27,16.0392,88.4946,-29.9948,175,75
2026-05-09 16:15:03.144,4,-0.07,1.34,1.15,21.5192,149.0446,-17.2548,175,75
2026-05-09 16:15:03.154,4,-0.07,1.31,1.1,27.4992,200.3846,-9.8148,175,75
2026-05-09 16:15:03.166,4,-0.13,1.17,1.14,32.1892,244.04459999999997,-3.2248,175,75
2026-05-09 16:15:03.182,4,-0.44,0.51,1.52,47.559200000000004,299.78459999999995,7.5052,175,75
2026-05-09 16:15:03.195,4,-0.65,0.18,1.65,62.1892,273.3746,0.43520000000000003,175,75
2026-05-09 16:15:03.216,4,-0.96,-0.87,1.58,101.0992,202.4046,-6.8848,175,75
2026-05-09 16:15:03.220,4,-0.9,-1.58,1.51,110.5492,142.8246,1.8951999999999996,175,75
2026-05-09 16:15:03.238,4,-0.96,-2.04,1.46,114.44919999999999,58.6846,11.2852,175,75
2026-05-09 16:15:03.238,4,-1.29,-2.27,1.4,108.2892,-33.2054,9.145199999999999,175,75
2026-05-09 16:15:03.260,4,-2.07,-1.88,1.32,61.7692,-85.4054,-42.1948,175,75
2026-05-09 16:15:03.260,4,-2.55,-1.12,1.25,-10.6708,-42.4754,-142.2548,175,75
2026-05-09 16:15:03.272,4,-1.67,-0.69,1.31,-62.5608,36.1246,-199.38479999999998,175,75
2026-05-09 16:15:03.291,4,-0.44,-0.11,1.4,-93.2908,105.69460000000001,-29.634800000000002,175,75
2026-05-09 16:15:03.307,4,-0.93,-0.17,1.17,-56.5308,105.81460000000001,43.0552,175,75
2026-05-09 16:15:03.318,4,-1.38,-1.2,1.35,63.349199999999996,70.9946,18.0552,175,75
2026-05-09 16:15:03.328,4,-1.29,-1.25,1.61,54.819199999999995,42.7046,5.1852,175,75
2026-05-09 16:15:03.355,4,-0.85,-0.48,1.54,29.2092,-86.56540000000001,-35.1748,175,75
2026-05-09 16:15:03.365,4,-0.78,-0.3,1.45,39.819199999999995,-97.0454,-16.0348,175,75
2026-05-09 16:15:03.375,4,-0.79,-0.26,1.35,44.0192,-68.8754,-4.4448,175,75
2026-05-09 16:15:03.393,4,-0.59,-0.17,1.23,19.2092,-22.8454,-10.3648,175,75
2026-05-09 16:15:03.407,4,-0.46,0.04,1.19,11.0992,-2.0454000000000008,-10.4848,175,75
2026-05-09 16:15:03.419,4,-0.39,0.23,1.17,13.7792,16.794600000000003,-8.6548,175,75
2026-05-09 16:15:03.430,4,-0.34,0.42,1.18,18.1092,36.364599999999996,-4.6948,175,75
2026-05-09 16:15:03.430,4,-0.3,0.61,1.21,22.929199999999998,61.0646,1.2252,175,75
2026-05-09 16:15:03.454,4,-0.26,0.76,1.28,31.219199999999997,81.3646,4.4552,175,75
2026-05-09 16:15:03.465,4,-0.24,0.79,1.36,39.9392,85.0846,3.4152,175,75
2026-05-09 16:15:03.479,4,-0.22,0.77,1.54,44.819199999999995,51.7346,-6.6448,175,75
2026-05-09 16:15:03.488,4,-0.27,0.81,1.57,43.539199999999994,11.974600000000002,-17.494799999999998,175,75
2026-05-09 16:15:03.503,4,-0.27,0.86,1.55,44.6892,-16.925400000000003,-24.8148,175,75
2026-05-09 16:15:03.520,4,-0.33,0.95,1.5,46.7692,-42.2954,-27.3148,175,75
2026-05-09 16:15:03.532,4,-0.36,1.01,1.48,48.89919999999999,-53.5154,-25.4848,175,75
2026-05-09 16:15:03.532,4,-0.41,1.06,1.42,53.1092,-60.1554,-21.7648,175,75
2026-05-09 16:15:03.556,4,-0.46,1.03,1.35,55.9092,-59.3654,-16.7048,175,75
2026-05-09 16:15:03.567,4,-0.51,0.96,1.27,53.4692,-48.9354,-12.924800000000001,175,75
2026-05-09 16:15:03.588,4,-0.65,0.67,1.18,42.8592,50.754599999999996,8.235199999999999,175,75
2026-05-09 16:15:03.601,4,-0.71,0.39,1.18,41.709199999999996,90.6346,11.5252,175,75
2026-05-09 16:15:03.612,4,-0.8,-0.02,1.2,40.3592,135.4546,16.5852,175,75
2026-05-09 16:15:03.626,4,-0.87,-0.54,1.24,39.9392,174.2946,17.9952,175,75
2026-05-09 16:15:03.636,4,-0.92,-1.2,1.36,38.0492,203.8046,19.8252,175,75
2026-05-09 16:15:03.647,4,-0.96,-1.83,1.54,31.039199999999997,214.2346,31.285199999999996,175,75
2026-05-09 16:15:03.664,4,-1.41,-2.19,1.78,22.1892,100.7546,14.885200000000001,175,75
2026-05-09 16:15:03.689,4,-1.07,-1.55,1.47,-9.5108,44.8446,-129.0848,175,75
2026-05-09 16:15:03.700,4,-0.28,-1.12,1.48,-41.8908,75.9346,-47.7448,175,75
2026-05-09 16:15:03.712,4,-0.73,-0.87,1.34,-45.6108,106.3046,0.8552,175,75
2026-05-09 16:15:03.723,4,-1.06,-0.87,1.47,-17.500799999999998,142.5246,-26.7648,175,75
2026-05-09 16:15:03.734,4,-0.87,-0.8,1.85,-10.610800000000001,141.7346,-40.1148,175,75
2026-05-09 16:15:03.746,4,-0.78,-0.57,2.07,-23.480800000000002,100.4546,-34.8148,175,75
2026-05-09 16:15:03.757,4,-0.77,-0.24,2.09,-26.5908,7.5245999999999995,-49.6348,175,75
2026-05-09 16:15:03.768,4,-0.67,-0.04,2.05,-18.7208,-49.0054,-58.6548,175,75
2026-05-09 16:15:03.778,4,-0.59,0.18,1.94,-10.1808,-91.8654,-53.3448,175,75
2026-05-09 16:15:03.790,4,-0.55,0.35,1.75,-4.2708,-106.8654,-49.3848,175,75
2026-05-09 16:15:03.801,4,-0.5,0.47,1.62,-1.6508000000000003,-102.9054,-47.6148,175,75
2026-05-09 16:15:03.814,4,-0.44,0.59,1.51,-0.24080000000000013,-87.2354,-42.1948,175,75
2026-05-09 16:15:03.814,4,-0.39,0.71,1.44,2.3192000000000004,-55.035399999999996,-32.254799999999996,175,75
2026-05-09 16:15:03.839,4,-0.33,0.8,1.45,4.2692,-26.075400000000002,-25.4248,175,75
2026-05-09 16:15:03.850,4,-0.25,0.83,1.47,3.5391999999999992,-13.515400000000001,-23.474800000000002,175,75
2026-05-09 16:15:03.850,4,-0.17,0.83,1.45,1.7691999999999997,-12.785400000000001,-23.044800000000002,175,75
2026-05-09 16:15:03.863,4,-0.15,0.81,1.39,1.1592000000000002,-13.025400000000001,-22.0048,175,75
2026-05-09 16:15:03.876,4,-0.18,0.79,1.33,2.5592000000000006,0.8746000000000009,-19.0848,175,75
2026-05-09 16:15:03.888,4,-0.22,0.77,1.3,6.6492,32.4046,-14.6948,175,75
2026-05-09 16:15:03.898,4,-0.21,0.74,1.32,12.069199999999999,54.104600000000005,-12.434800000000001,175,75
2026-05-09 16:15:03.910,4,-0.21,0.68,1.4,20.4892,66.1846,-14.1448,175,75
2026-05-09 16:15:03.931,4,-0.28,0.65,1.53,30.729200000000002,45.574600000000004,-21.9448,175,75
2026-05-09 16:15:03.945,4,-0.31,0.66,1.54,34.6892,36.0646,-22.9848,175,75
2026-05-09 16:15:03.955,4,-0.41,0.59,1.51,39.6292,20.324599999999997,-25.1148,175,75
2026-05-09 16:15:03.965,4,-0.5,0.47,1.46,39.0792,13.134599999999999,-28.5348,175,75
2026-05-09 16:15:03.983,4,-0.74,0.1,1.35,33.6592,29.104599999999998,-25.724800000000002,175,75
2026-05-09 16:15:03.993,4,-0.89,-0.18,1.36,33.839200000000005,44.964600000000004,-22.1948,175,75
2026-05-09 16:15:04.026,4,-1.06,-0.95,1.51,32.1292,55.8146,-13.1648,175,75
2026-05-09 16:15:04.026,4,-1.13,-1.45,1.64,31.7692,25.9946,-3.1648,175,75
2026-05-09 16:15:04.067,4,-1.7,-1.71,1.83,0.969199999999999,-191.1954,-39.5648,175,75
2026-05-09 16:15:04.069,4,-1.5,-1.4,1.61,-39.7608,-233.9354,-78.83479999999999,175,75
2026-05-09 16:15:04.081,4,-0.99,-1.07,1.3,-55.6708,-238.6954,-64.1448,175,75
2026-05-09 16:15:04.091,4,-0.9,-0.87,1.07,-43.60080000000001,-208.7554,-18.1048,175,75
2026-05-09 16:15:04.124,4,-0.67,-0.69,1.16,-6.6508,49.964600000000004,43.2952,175,75
2026-05-09 16:15:04.135,4,-0.34,-0.47,1.39,-12.680800000000001,87.9546,50.7952,175,75
2026-05-09 16:15:04.153,4,-0.02,0.15,1.49,-2.8108000000000004,67.1546,35.6752,175,75
2026-05-09 16:15:04.175,4,-0.0,0.46,1.46,1.2791999999999994,76.0646,33.0552,175,75
2026-05-09 16:15:04.180,4,-0.06,0.75,1.46,1.7091999999999992,105.75460000000001,28.2352,175,75
2026-05-09 16:15:04.192,4,-0.11,0.99,1.53,-1.5308000000000002,134.0446,26.3452,175,75
2026-05-09 16:15:04.204,4,-0.16,1.13,1.64,-2.0108000000000006,145.2646,23.7252,175,75
2026-05-09 16:15:04.253,4,-0.03,1.15,2.07,0.969199999999999,104.3546,13.3552,175,75
2026-05-09 16:15:04.299,4,-0.17,0.45,1.59,-7.0708,-70.7054,-27.134800000000002,175,75
2026-05-09 16:15:04.311,4,-0.3,-0.13,1.12,-5.3108,24.104599999999998,-26.4548,175,75
2026-05-09 16:15:04.322,4,-0.27,-0.44,1.07,6.459199999999999,82.6446,-17.8048,175,75
2026-05-09 16:15:04.322,4,-0.2,-0.95,1.17,28.659200000000002,116.7946,-6.8848,175,75
2026-05-09 16:15:04.336,4,-0.28,-1.47,1.35,45.059200000000004,94.8446,-3.2248,175,75
2026-05-09 16:15:04.350,4,-0.55,-1.88,1.49,55.849199999999996,63.134600000000006,-3.5348,175,75
2026-05-09 16:15:04.361,4,-1.0,-2.1,1.73,61.5192,29.104599999999998,-22.3748,175,75
2026-05-09 16:15:04.370,4,-1.17,-1.73,1.8,42.679199999999994,-23.5154,-74.69479999999999,175,75
2026-05-09 16:15:04.397,4,-0.63,-0.61,1.33,-34.570800000000006,-124.97540000000001,-83.7148,175,75
2026-05-09 16:15:04.409,4,-0.96,-0.47,1.12,-28.0508,-81.1954,-51.7648,175,75
2026-05-09 16:15:04.418,4,-1.09,-0.55,1.04,-1.8908000000000005,36.4846,-37.0048,175,75
2026-05-09 16:15:04.448,4,-0.87,-0.7,1.33,5.8492,115.93459999999999,-15.7248,175,75
2026-05-09 16:15:04.461,4,-0.85,-0.72,1.65,4.0792,109.1046,-11.2148,175,75
2026-05-09 16:15:04.529,4,-1.05,-0.01,1.25,10.0592,-25.1554,-22.4348,175,75
2026-05-09 16:15:04.544,4,-0.99,0.19,1.19,12.3792,50.9346,-5.784800000000001,175,75
2026-05-09 16:15:04.585,4,-0.61,0.6,1.67,21.4592,25.0246,21.6452,175,75
2026-05-09 16:15:04.596,4,-0.57,0.63,1.58,20.2392,-4.0654,19.6352,175,75
2026-05-09 16:15:04.596,4,-0.56,0.69,1.45,19.4492,-17.2954,18.1752,175,75
2026-05-09 16:15:04.607,4,-0.54,0.78,1.33,18.4092,-10.8254,20.0052,175,75
2026-05-09 16:15:04.618,4,-0.47,1.0,1.22,19.3292,23.864599999999996,28.9052,175,75
2026-05-09 16:15:04.629,4,-0.49,1.08,1.22,19.6292,39.714600000000004,35.1252,175,75
2026-05-09 16:15:04.649,4,-0.51,1.13,1.25,22.5592,57.824600000000004,45.2452,175,75
2026-05-09 16:15:04.664,4,-0.58,1.08,1.3,32.4392,76.7346,58.0552,175,75
2026-05-09 16:15:04.664,4,-0.62,0.89,1.39,42.8592,92.6446,68.2352,175,75
2026-05-09 16:15:04.715,4,-0.63,0.74,1.5,39.8792,96.4846,73.7852,175,75
2026-05-09 16:15:04.729,4,-0.76,0.42,1.6,30.729200000000002,39.7846,80.85520000000001,175,75
2026-05-09 16:15:04.729,4,-0.93,0.02,1.51,37.25919999999999,10.084600000000002,88.7852,175,75
2026-05-09 16:15:04.741,4,-0.99,-0.48,1.36,47.00919999999999,32.4646,95.7352,175,75
2026-05-09 16:15:04.752,4,-0.9,-1.07,1.26,55.429199999999994,95.0846,101.40520000000001,175,75
2026-05-09 16:15:04.752,4,-0.77,-1.64,1.27,55.9092,164.1046,102.8652,175,75
2026-05-09 16:15:04.765,4,-0.84,-2.13,1.48,41.7692,201.2446,108.66520000000001,175,75
2026-05-09 16:15:04.778,4,-1.16,-2.15,1.71,28.719199999999997,178.6846,103.05520000000001,175,75
2026-05-09 16:15:04.778,4,-1.49,-1.91,1.86,23.1692,129.4746,69.6952,175,75
2026-05-09 16:15:04.792,4,-1.54,-1.72,1.89,18.1692,61.5446,7.075199999999999,175,75
2026-05-09 16:15:04.808,4,-0.79,-1.65,1.88,-16.2208,-30.825400000000002,-63.894800000000004,175,75
2026-05-09 16:15:04.820,4,-0.39,-1.29,1.87,-58.1108,-46.0154,-5.6048,175,75
2026-05-09 16:15:04.832,4,-0.6,-1.01,1.64,-65.1808,-47.6554,-2.9248,175,75
2026-05-09 16:15:04.848,4,-0.48,-0.9,1.63,-53.7208,-56.805400000000006,-32.9248,175,75
2026-05-09 16:15:04.869,4,-0.38,-0.4,1.6,-63.35080000000001,-44.245400000000004,-28.9548,175,75
2026-05-09 16:15:04.907,4,-0.22,0.14,1.65,-46.040800000000004,-13.3954,-30.7848,175,75
2026-05-09 16:15:04.918,4,-0.11,0.37,1.65,-28.8408,-13.3254,-27.4348,175,75
2026-05-09 16:15:04.939,4,-0.07,0.49,1.53,-5.2408,-17.785400000000003,-30.2448,175,75
2026-05-09 16:15:04.950,4,-0.09,0.5,1.46,0.1191999999999993,-8.935400000000001,-29.5648,175,75
2026-05-09 16:15:04.962,4,-0.1,0.53,1.4,4.6892,15.384599999999999,-28.4148,175,75
2026-05-09 16:15:04.976,4,-0.08,0.6,1.38,4.0792,38.0146,-26.6448,175,75
2026-05-09 16:15:04.989,4,-0.06,0.69,1.38,1.9491999999999994,59.1746,-25.4848,175,75
2026-05-09 16:15:05.009,4,-0.01,0.77,1.45,3.1091999999999995,81.8546,-22.8048,175,75
2026-05-09 16:15:05.020,4,-0.04,0.79,1.55,10.359200000000001,83.9246,-21.5248,175,75
2026-05-09 16:15:05.020,4,-0.03,0.79,1.65,22.1292,74.3546,-21.5848,175,75
2026-05-09 16:15:05.030,4,-0.03,0.78,1.7,29.3892,50.9346,-23.2848,175,75
2026-05-09 16:15:05.071,4,-0.2,0.59,1.63,38.169200000000004,-10.8254,-36.394800000000004,175,75
2026-05-09 16:15:05.087,4,-0.57,0.46,1.46,45.2992,-22.235400000000002,-50.7848,175,75
2026-05-09 16:15:05.098,4,-0.92,0.5,1.41,44.569199999999995,12.644599999999997,-41.9448,175,75
2026-05-09 16:15:05.109,4,-1.09,0.42,1.38,46.64919999999999,42.2846,-33.5348,175,75
2026-05-09 16:15:05.123,4,-1.27,0.23,1.4,48.89919999999999,80.8146,-22.6748,175,75
2026-05-09 16:15:05.134,4,-1.43,-0.09,1.58,53.7792,130.2646,-8.6548,175,75
2026-05-09 16:15:05.144,4,-1.51,-0.42,1.81,59.819199999999995,148.7446,-0.05480000000000018,175,75
2026-05-09 16:15:05.153,4,-1.55,-0.83,2.1,66.7692,105.6346,6.7752,175,75
2026-05-09 16:15:05.179,4,-1.75,-1.28,2.21,67.4392,-79.97540000000001,4.2752,175,75
2026-05-09 16:15:05.204,4,-1.96,-1.24,1.83,36.039199999999994,-168.6354,-4.3848,175,75
2026-05-09 16:15:05.216,4,-1.79,-1.01,1.56,22.4392,-126.4354,9.0852,175,75
2026-05-09 16:15:05.220,4,-1.62,-0.86,1.45,25.609199999999998,-90.3454,30.675199999999997,175,75
2026-05-09 16:15:05.241,4,-1.51,-0.8,1.41,44.569199999999995,-42.785399999999996,62.19519999999999,175,75
2026-05-09 16:15:05.254,4,-1.17,-1.02,1.46,63.22919999999999,12.034599999999998,80.43520000000001,175,75
2026-05-09 16:15:05.276,4,-0.94,-0.97,1.47,52.7992,22.214599999999997,70.18520000000001,175,75
2026-05-09 16:15:05.287,4,-0.5,-0.42,1.43,37.069199999999995,42.464600000000004,57.9952,175,75
2026-05-09 16:15:05.301,4,-0.37,-0.03,1.42,31.649199999999997,54.5946,56.7152,175,75
2026-05-09 16:15:05.313,4,-0.11,0.65,1.49,18.2892,71.9746,51.6552,175,75
2026-05-09 16:15:05.323,4,0.01,0.95,1.51,10.0592,75.6346,50.7952,175,75
2026-05-09 16:15:05.334,4,0.13,1.24,1.49,5.7292000000000005,75.3846,48.8452,175,75
2026-05-09 16:15:05.348,4,0.12,1.11,1.2,12.1292,109.84459999999999,55.4952,175,75
2026-05-09 16:15:05.355,4,0.07,1.0,1.01,9.7592,157.2846,62.9352,175,75
2026-05-09 16:15:05.367,4,0.07,0.99,0.84,9.7592,234.47459999999998,74.63520000000001,175,75
2026-05-09 16:15:05.379,4,0.08,1.11,0.72,11.949200000000001,372.64459999999997,100.30520000000001,175,75
2026-05-09 16:15:05.415,4,-0.21,0.35,2.36,74.1492,551.9146000000001,115.0052,175,75
2026-05-09 16:15:05.429,4,-0.27,-0.2,2.63,93.83919999999999,418.2546,87.2552,175,75
2026-05-09 16:15:05.447,4,-0.36,-0.63,2.74,113.7792,307.2146,63.1752,175,75
2026-05-09 16:15:05.447,4,-0.46,-1.24,2.73,154.1492,87.7646,20.4352,175,75
2026-05-09 16:15:05.470,4,-0.7,-1.61,2.54,182.73919999999998,-178.0854,-37.6748,175,75
2026-05-09 16:15:05.541,4,-1.74,-0.7,0.09,-77.0708,-389.7354,-176.3948,175,75
2026-05-09 16:15:05.541,4,-2.17,-0.36,-0.14,-51.400800000000004,-52.6554,-78.0448,175,75
2026-05-09 16:15:05.569,4,-1.06,-0.99,1.3,52.3792,132.6446,-1.1548,175,75
2026-05-09 16:15:05.601,4,-1.6,-0.84,1.84,0.059200000000000585,-297.35540000000003,-94.3848,175,75
2026-05-09 16:15:05.601,4,-1.7,-0.57,1.51,-28.3508,-351.80539999999996,-124.2648,175,75
2026-05-09 16:15:05.616,4,-1.53,-0.12,0.91,-54.270799999999994,-295.1554,-102.61479999999999,175,75
2026-05-09 16:15:05.627,4,-1.49,0.23,0.59,-41.770799999999994,-137.4154,-52.1348,175,75
2026-05-09 16:15:05.638,4,-0.79,0.26,1.17,-5.7308,86.7946,4.6952,175,75
2026-05-09 16:15:05.648,4,-0.53,0.16,1.65,-8.2308,56.5446,-1.3348,175,75
2026-05-09 16:15:05.648,4,-0.46,0.15,1.86,-12.4408,-15.955400000000001,-18.6548,175,75
2026-05-09 16:15:05.661,4,-0.47,0.21,1.9,-20.730800000000002,-102.4154,-37.8648,175,75
2026-05-09 16:15:05.661,4,-0.53,0.36,1.73,-30.4308,-157.4154,-48.894800000000004,175,75
2026-05-09 16:15:05.675,4,-0.55,0.5,1.56,-35.0608,-171.6854,-54.3248,175,75
2026-05-09 16:15:05.700,4,-0.53,0.68,1.37,-33.7208,-159.0654,-51.7048,175,75
2026-05-09 16:15:05.710,4,-0.52,0.79,1.31,-26.5308,-127.5954,-44.6348,175,75
2026-05-09 16:15:05.716,4,-0.44,0.87,1.28,-12.8108,-77.6554,-36.5848,175,75
2026-05-09 16:15:05.739,4,-0.32,0.89,1.33,-2.5608000000000004,-42.1154,-30.4848,175,75
2026-05-09 16:15:05.746,4,-0.3,0.91,1.34,-6.460800000000001,-28.9354,-32.254799999999996,175,75
2026-05-09 16:15:05.760,4,-0.29,0.97,1.33,-9.5708,-12.355400000000001,-27.9248,175,75
2026-05-09 16:15:05.784,4,-0.3,1.01,1.34,-9.0908,-2.3553999999999995,-26.5848,175,75
2026-05-09 16:15:05.794,4,-0.33,1.02,1.44,-4.6408000000000005,12.5246,-23.5948,175,75
2026-05-09 16:15:05.794,4,-0.36,0.96,1.5,1.3992000000000004,21.1246,-19.3248,175,75
2026-05-09 16:15:05.794,4,-0.42,0.86,1.6,7.1892,22.0946,-17.5548,175,75
2026-05-09 16:15:05.805,4,-0.48,0.73,1.69,11.3992,16.794600000000003,-18.7148,175,75
2026-05-09 16:15:05.817,4,-0.47,0.62,1.64,8.3492,9.784599999999998,-20.724800000000002,175,75
2026-05-09 16:15:05.830,4,-0.57,0.42,1.55,10.609200000000001,14.104599999999998,-20.6648,175,75
2026-05-09 16:15:05.859,4,-0.86,0.06,1.6,21.3992,40.634600000000006,-13.104800000000001,175,75
2026-05-09 16:15:05.923,4,-1.06,-1.17,2.09,29.9992,104.2946,1.4651999999999998,175,75
2026-05-09 16:15:05.923,4,-0.78,-1.89,2.26,22.1292,40.754599999999996,5.495199999999999,175,75
2026-05-09 16:15:05.945,4,-0.95,-2.33,2.2,2.379199999999999,-107.7154,12.325199999999999,175,75
2026-05-09 16:15:05.945,4,-1.51,-2.24,1.97,-18.230800000000002,-182.1754,0.7351999999999999,175,75
2026-05-09 16:15:05.997,4,-1.72,-1.9,1.51,-43.1108,-172.4754,-42.8048,175,75
2026-05-09 16:15:06.035,4,-1.54,-1.71,1.16,-53.35080000000001,-139.8554,-73.22479999999999,175,75
2026-05-09 16:15:06.055,4,-1.0,-1.48,0.87,-36.1608,-69.00540000000001,-61.1548,175,75
2026-05-09 16:15:06.055,4,-0.9,-1.1,0.88,-5.8508000000000004,55.634600000000006,19.1452,175,75
2026-05-09 16:15:06.080,4,-0.96,-0.95,1.0,1.0391999999999992,139.5346,39.6352,175,75
2026-05-09 16:15:06.091,4,-0.57,-0.84,1.51,-19.2108,211.2446,31.2252,175,75
2026-05-09 16:15:06.119,4,-0.46,-0.7,1.7,-27.1408,199.9646,32.9952,175,75
2026-05-09 16:15:06.126,4,-0.16,-0.13,1.99,-11.0408,55.9346,7.0152,175,75
2026-05-09 16:15:06.158,4,-0.03,0.36,1.54,-2.9908,-26.8654,-3.8948,175,75
2026-05-09 16:15:06.181,4,-0.05,0.5,1.67,-1.5308000000000002,-6.505400000000002,-5.8448,175,75
2026-05-09 16:15:06.191,4,-0.04,0.66,1.76,-1.1608,-17.2954,-8.7148,175,75
2026-05-09 16:15:06.294,4,-0.35,0.49,1.65,42.9892,65.3846,-27.0048,175,75
2026-05-09 16:15:06.304,4,-0.48,0.4,1.69,45.059200000000004,51.91459999999999,-30.1148,175,75
2026-05-09 16:15:06.304,4,-0.58,0.35,1.73,48.1092,45.634600000000006,-28.5348,175,75
2026-05-09 16:15:06.315,4,-0.69,0.18,1.74,53.349199999999996,27.404600000000002,-22.7448,175,75
2026-05-09 16:15:06.349,4,-0.87,-0.09,1.7,58.1092,0.9345999999999997,-19.384800000000002,175,75
2026-05-09 16:15:06.349,4,-1.18,-0.57,1.68,58.7792,-13.755400000000002,-16.9448,175,75
2026-05-09 16:15:06.362,4,-1.5,-1.3,1.78,42.7992,-18.8754,-3.1048,175,75
2026-05-09 16:15:06.362,4,-1.59,-1.49,1.85,35.9692,-33.7554,1.8951999999999996,175,75
2026-05-09 16:15:06.362,4,-1.64,-1.54,1.86,29.2092,-70.7654,-7.674799999999999,175,75
2026-05-09 16:15:06.371,4,-1.65,-1.47,1.83,18.9592,-124.2454,-28.3548,175,75
2026-05-09 16:15:06.387,4,-1.5,-1.33,1.7,1.8292000000000002,-166.9254,-40.6048,175,75
2026-05-09 16:15:06.415,4,-1.04,-1.23,1.05,1.2791999999999994,-72.9054,5.1251999999999995,175,75
2026-05-09 16:15:06.415,4,-0.61,-0.95,1.03,-2.1408000000000005,33.864599999999996,15.2452,175,75
2026-05-09 16:15:06.427,4,-0.46,-0.68,1.1,-7.1408000000000005,89.4746,22.9952,175,75
2026-05-09 16:15:06.451,4,-0.2,-0.06,1.37,-6.7708,162.7646,23.4752,175,75
2026-05-09 16:15:06.503,4,0.04,1.27,1.9,-8.4808,171.5446,13.7852,175,75
2026-05-09 16:15:06.507,4,0.03,1.42,1.92,2.4391999999999996,137.4646,10.735199999999999,175,75
2026-05-09 16:15:06.533,4,-0.0,1.31,1.86,12.929199999999998,116.7346,9.9452,175,75
2026-05-09 16:15:06.533,4,-0.06,1.17,1.76,24.2692,110.2046,9.2752,175,75
2026-05-09 16:15:06.539,4,-0.08,1.04,1.68,30.359199999999998,116.5446,9.2152,175,75
2026-05-09 16:15:06.561,4,-0.08,0.98,1.64,32.00919999999999,129.1046,7.075199999999999,175,75
2026-05-09 16:15:06.603,4,-0.05,0.98,1.71,21.5192,145.1446,-0.9148000000000001,175,75
2026-05-09 16:15:06.603,4,-0.15,0.94,1.88,19.6292,128.8646,-1.8848,175,75
2026-05-09 16:15:06.628,4,-0.23,0.46,1.91,30.2392,46.4846,-1.2148,175,75
2026-05-09 16:15:06.665,4,-0.82,-1.19,1.38,53.349199999999996,-84.5454,-44.6348,175,75
2026-05-09 16:15:06.682,4,-1.16,-1.27,0.9,18.0492,-84.7354,-61.3348,175,75
2026-05-09 16:15:06.693,4,-1.26,-1.12,0.81,0.8491999999999997,-17.5954,-53.2248,175,75
2026-05-09 16:15:06.693,4,-1.25,-0.99,0.91,-5.550800000000001,53.0146,-33.8348,175,75
2026-05-09 16:15:06.715,4,-1.05,-0.94,1.54,0.6692,87.1546,-10.2448,175,75
2026-05-09 16:15:06.726,4,-0.95,-0.77,1.68,-17.680799999999998,-52.1154,-29.9948,175,75
2026-05-09 16:15:06.760,4,-0.86,-0.33,1.04,-3.3508000000000004,16.604599999999998,-16.5248,175,75
2026-05-09 16:15:06.773,4,-0.59,-0.17,1.31,8.9592,110.3846,-6.5847999999999995,175,75
2026-05-09 16:15:06.784,4,-0.53,-0.09,1.39,8.289200000000001,103.8646,-9.2648,175,75
2026-05-09 16:15:06.808,4,-0.46,0.19,1.38,0.4892000000000003,89.7846,-15.0548,175,75
2026-05-09 16:15:06.821,4,-0.38,0.46,1.43,-3.2308000000000003,118.49459999999999,-12.8048,175,75
2026-05-09 16:15:06.821,4,-0.32,0.56,1.52,-2.2608000000000006,118.8046,-11.7048,175,75
2026-05-09 16:15:06.846,4,-0.28,0.67,1.66,0.4892000000000003,103.68459999999999,-10.604800000000001,175,75
2026-05-09 16:15:06.866,4,-0.18,0.84,1.79,8.5992,42.7046,-10.9748,175,75
2026-05-09 16:15:06.886,4,-0.22,0.87,1.66,9.389199999999999,-18.2054,-15.854800000000001,175,75
2026-05-09 16:15:06.896,4,-0.29,0.81,1.51,5.4292,-23.6954,-15.174800000000001,175,75
2026-05-09 16:15:06.907,4,-0.4,0.76,1.39,2.4992,-12.595400000000001,-10.3648,175,75
2026-05-09 16:15:06.918,4,-0.47,0.68,1.3,2.4992,12.404600000000002,0.7951999999999999,175,75
2026-05-09 16:15:06.929,4,-0.62,0.35,1.19,5.6091999999999995,60.2646,17.8052,175,75
2026-05-09 16:15:06.939,4,-0.75,-0.09,1.2,12.319199999999999,108.37459999999999,20.0052,175,75
2026-05-09 16:15:06.968,4,-0.69,-1.12,1.54,27.259199999999996,179.84459999999999,19.455199999999998,175,75
2026-05-09 16:15:06.979,4,-0.7,-1.45,1.72,35.2992,139.7146,21.7152,175,75
2026-05-09 16:15:07.001,4,-0.81,-1.73,1.62,40.729200000000006,13.194600000000001,0.7351999999999999,175,75
2026-05-09 16:15:07.011,4,-0.66,-1.4,1.06,4.1492,-24.9154,-24.384800000000002,175,75
2026-05-09 16:15:07.045,4,-0.58,-1.07,0.75,-13.7208,59.7846,4.0852,175,75
2026-05-09 16:15:07.060,4,-0.48,-0.82,0.82,-13.3508,233.62460000000002,30.435200000000002,175,75
2026-05-09 16:15:07.079,4,-0.33,-0.73,1.13,-17.930799999999998,290.5146,32.6252,175,75
2026-05-09 16:15:07.084,4,-0.27,-0.64,1.34,-22.2008,300.6346,27.5052,175,75
2026-05-09 16:15:07.111,4,-0.24,-0.56,1.5,-20.9208,280.2646,16.0452,175,75
2026-05-09 16:15:07.126,4,-0.24,-0.48,1.6,-9.8208,241.24460000000002,3.9652,175,75
2026-05-09 16:15:07.156,4,-0.25,-0.29,1.74,18.4692,193.8046,-13.7748,175,75
2026-05-09 16:15:07.191,4,-0.19,0.03,1.85,19.8792,116.8546,-36.7648,175,75
2026-05-09 16:15:07.201,4,-0.2,0.23,1.85,17.0092,67.5846,-49.5048,175,75
2026-05-09 16:15:07.223,4,-0.46,0.91,1.72,10.609200000000001,10.2046,-55.3648,175,75
2026-05-09 16:15:07.237,4,-0.54,1.15,1.66,18.5392,21.604599999999998,-44.8748,175,75
2026-05-09 16:15:07.237,4,-0.41,1.03,1.53,44.0192,24.534599999999998,-34.4448,175,75
2026-05-09 16:15:07.264,4,-0.47,0.8,1.53,61.459199999999996,29.8446,-48.4748,175,75
2026-05-09 16:15:07.275,4,-0.5,0.82,1.56,75.1792,35.754599999999996,-50.4248,175,75
2026-05-09 16:15:07.312,4,-0.99,0.34,1.15,97.55919999999999,36.8546,-32.3148,175,75
2026-05-09 16:15:07.326,4,-1.12,0.1,1.19,98.1092,75.2046,-19.8148,175,75
2026-05-09 16:15:07.326,4,-1.18,-0.09,1.3,96.0392,78.9846,-7.8048,175,75
2026-05-09 16:15:07.337,4,-1.19,-0.32,1.47,84.6292,59.8446,10.3052,175,75
2026-05-09 16:15:07.392,4,-0.79,-1.51,1.1,20.7292,-72.78540000000001,31.895200000000003,175,75
2026-05-09 16:15:07.403,4,-0.77,-1.56,1.0,5.789199999999999,-50.7054,27.4452,175,75
2026-05-09 16:15:07.413,4,-0.68,-1.43,0.99,-3.2908,-6.375399999999999,25.365199999999998,175,75
2026-05-09 16:15:07.425,4,-0.39,-1.2,1.26,-1.1008000000000004,59.2946,41.7152,175,75
2026-05-09 16:15:07.471,4,-0.11,-0.42,1.38,-24.7608,40.2046,2.5652000000000004,175,75
2026-05-09 16:15:07.549,4,-0.12,0.79,1.65,-36.1008,117.6446,-15.7848,175,75
2026-05-09 16:15:07.678,4,-0.19,0.72,1.71,20.5492,22.7646,-55.3048,175,75
2026-05-09 16:15:07.678,4,-0.24,0.58,1.65,20.8492,22.7646,-58.0448,175,75
2026-05-09 16:15:07.700,4,-0.31,-0.36,1.52,40.429199999999994,39.354600000000005,-58.0448,175,75
2026-05-09 16:15:07.938,4,-0.38,-1.5,1.89,57.25919999999999,17.584600000000002,-67.86479999999999,175,75
2026-05-09 16:15:07.938,4,-0.44,-1.21,1.45,33.349199999999996,-230.6454,-128.8948,175,75
2026-05-09 16:15:07.938,4,-0.44,-1.28,1.32,39.819199999999995,-188.5154,-124.20479999999999,175,75
2026-05-09 16:15:07.938,4,-0.37,-1.32,1.37,32.25919999999999,-151.5654,-127.19479999999999,175,75
2026-05-09 16:15:07.938,4,-0.33,-1.25,1.46,23.6592,-146.5054,-132.8048,175,75
2026-05-09 16:15:07.938,4,-0.3,-1.11,1.58,18.4092,-152.0454,-134.5048,175,75
2026-05-09 16:15:07.938,4,-0.28,-0.97,1.64,14.999199999999998,-169.0054,-133.6548,175,75
2026-05-09 16:15:07.939,4,-0.16,0.04,1.36,-16.8908,-70.3454,-112.61479999999999,175,75
2026-05-09 16:15:07.939,4,-0.12,0.21,1.62,-17.8108,-89.97540000000001,-123.28479999999999,175,75
2026-05-09 16:15:07.956,4,-0.12,0.32,1.7,-16.8308,-115.4654,-128.7748,175,75
2026-05-09 16:15:07.967,4,-0.13,0.49,1.68,-15.0608,-149.9154,-132.9848,175,75
2026-05-09 16:15:08.020,4,-0.12,0.63,1.54,-15.3108,-169.9154,-136.3948,175,75
2026-05-09 16:15:08.020,4,-0.11,0.72,1.41,-18.4208,-170.40540000000001,-136.3948,175,75
2026-05-09 16:15:08.029,4,-0.1,0.88,1.18,-34.150800000000004,17.214599999999997,-111.03479999999999,175,75
2026-05-09 16:15:08.029,4,-0.04,0.81,1.24,-36.3408,43.744600000000005,-108.1048,175,75
2026-05-09 16:15:08.082,4,0.01,0.69,1.29,-37.320800000000006,51.244600000000005,-105.78479999999999,175,75
2026-05-09 16:15:08.155,4,0.43,-0.39,1.45,-31.5308,-58.5754,-4.7547999999999995,175,75
2026-05-09 16:15:08.158,4,0.44,-0.33,1.18,-11.4608,-35.4654,14.575199999999999,175,75
2026-05-09 16:15:08.165,4,0.56,-0.2,1.1,-1.6508000000000003,33.7446,35.9752,175,75
2026-05-09 16:15:08.299,4,0.69,-0.07,1.15,4.5692,85.7546,48.5452,175,75
2026-05-09 16:15:08.299,4,0.74,0.02,1.27,18.1692,114.84459999999999,50.4952,175,75
2026-05-09 16:15:08.299,4,0.51,-0.03,1.47,31.039199999999997,121.97460000000001,42.6252,175,75
2026-05-09 16:15:08.299,4,0.34,-0.06,1.47,32.4392,125.0846,32.0752,175,75
2026-05-09 16:15:08.299,4,0.21,0.37,1.75,26.0992,44.6546,-7.924799999999999,175,75
2026-05-09 16:15:08.410,4,0.17,0.4,1.74,25.549200000000003,25.084600000000002,-11.4548,175,75
2026-05-09 16:15:08.410,4,0.2,0.59,1.64,7.929199999999998,-3.8154000000000003,-38.4748,175,75
2026-05-09 16:15:08.410,4,0.23,0.63,1.67,8.1692,-16.7454,-48.6548,175,75
2026-05-09 16:15:08.484,4,0.09,-0.33,1.78,20.7292,43.80459999999999,-41.3348,175,75
2026-05-09 16:15:08.660,4,0.32,-0.55,2.01,-18.1108,-175.0354,-13.834800000000001,175,75
2026-05-09 16:15:08.661,4,0.37,-0.27,1.92,-16.5908,-215.0954,4.0852,175,75
2026-05-09 16:15:08.661,4,0.36,-0.13,1.7,-8.6008,-241.8654,28.2352,175,75
2026-05-09 16:15:08.661,4,0.35,-0.13,1.47,6.5192,-234.1854,47.5052,175,75
2026-05-09 16:15:08.661,4,0.45,-0.22,1.13,32.00919999999999,-173.3254,74.21520000000001,175,75
2026-05-09 16:15:08.721,4,0.4,0.64,1.31,21.5792,-187.2954,-42.5548,175,75
2026-05-09 16:15:08.869,4,0.35,0.57,1.02,6.6492,-117.9054,-41.644800000000004,175,75
2026-05-09 16:15:08.869,4,0.67,-0.29,1.36,-11.4608,-113.1454,-35.4848,175,75
2026-05-09 16:15:08.869,4,0.56,-0.43,1.09,-3.9008000000000003,-76.50540000000001,-27.8648,175,75
2026-05-09 16:15:08.925,4,0.44,-0.55,1.12,-0.5508000000000006,-6.865400000000001,-11.764800000000001,175,75
2026-05-09 16:15:09.040,4,0.18,0.22,1.23,-21.4608,-75.7654,-11.094800000000001,175,75
2026-05-09 16:15:09.040,4,0.08,0.3,1.23,-25.8508,-80.1554,-13.2248,175,75
2026-05-09 16:15:09.040,4,-0.02,0.39,1.22,-31.4008,-83.81540000000001,-13.9548,175,75
2026-05-09 16:15:09.113,4,-0.1,0.52,1.21,-39.2108,-92.2354,-9.0848,175,75
2026-05-09 16:15:09.127,4,0.23,1.0,1.29,-59.6408,91.5446,-14.504800000000001,175,75
2026-05-09 16:15:09.140,4,0.26,0.99,1.29,-58.4208,96.4246,-14.084800000000001,175,75
2026-05-09 16:15:09.150,4,0.29,0.86,1.24,-57.6208,102.40459999999999,-10.5448,175,75
2026-05-09 16:15:09.159,4,0.44,0.26,1.09,-52.320800000000006,155.8146,-6.764799999999999,175,75
2026-05-09 16:15:09.223,4,0.62,-0.95,1.69,-55.430800000000005,57.584599999999995,13.0552,175,75
2026-05-09 16:15:09.241,4,0.8,-0.59,1.48,-54.210800000000006,39.7846,23.7852,175,75
2026-05-09 16:15:09.280,4,0.87,-0.3,1.02,-9.7608,104.84459999999999,62.9352,175,75
2026-05-09 16:15:09.280,4,0.9,-0.24,1.03,8.1692,170.5146,78.2352,175,75
2026-05-09 16:15:09.341,4,0.95,-0.15,1.16,15.0592,231.12460000000002,89.0852,175,75
2026-05-09 16:15:09.355,4,1.0,-0.03,1.41,19.0792,266.91459999999995,93.05520000000001,175,75
2026-05-09 16:15:09.374,4,0.37,-0.08,1.8,25.0592,162.4046,66.77520000000001,175,75
2026-05-09 16:15:09.387,4,0.41,-0.11,1.81,25.2392,83.3146,48.8452,175,75
2026-05-09 16:15:09.397,4,0.42,0.02,1.79,22.929199999999998,35.3246,34.8852,175,75
2026-05-09 16:15:09.397,4,0.44,0.16,1.81,19.2692,15.324599999999997,25.4352,175,75
2026-05-09 16:15:09.415,4,0.4,0.32,1.87,20.8492,-15.035400000000001,11.8352,175,75
2026-05-09 16:15:09.419,4,0.29,0.42,1.89,18.7192,-68.6354,-10.1148,175,75
2026-05-09 16:15:09.430,4,0.21,0.47,1.82,10.549199999999999,-102.3554,-24.0848,175,75
2026-05-09 16:15:09.445,4,0.08,0.6,1.49,-3.9008000000000003,-132.3554,-45.3048,175,75
2026-05-09 16:15:09.457,4,0.08,0.61,1.38,-1.6508000000000003,-127.1754,-47.6148,175,75
2026-05-09 16:15:09.458,4,0.07,0.61,1.31,-0.5508000000000006,-111.3154,-47.0648,175,75
2026-05-09 16:15:09.469,4,0.07,0.59,1.27,-5.120800000000001,-85.1554,-47.5548,175,75
2026-05-09 16:15:09.488,4,0.11,0.61,1.33,-18.2908,-29.6754,-49.144800000000004,175,75
2026-05-09 16:15:09.488,4,0.11,0.67,1.43,-20.9208,-14.7954,-52.0648,175,75
2026-05-09 16:15:09.510,4,0.11,0.7,1.47,-24.1508,-7.6554,-55.7848,175,75
2026-05-09 16:15:09.510,4,0.18,0.7,1.47,-32.2008,3.4945999999999984,-57.8648,175,75
2026-05-09 16:15:09.538,4,0.41,0.57,1.47,-25.9208,79.3546,-65.84479999999999,175,75
2026-05-09 16:15:09.579,4,0.38,-0.07,1.81,26.8892,127.7046,-59.0848,175,75
2026-05-09 16:15:09.598,4,0.39,-0.29,1.86,27.1292,122.09459999999999,-47.1348,175,75
2026-05-09 16:15:09.641,4,0.41,-0.76,1.83,4.7592,64.7846,-28.4148,175,75
2026-05-09 16:15:09.665,4,0.45,-0.31,1.69,-16.160800000000002,38.0146,13.545200000000001,175,75
2026-05-09 16:15:09.683,4,0.69,-0.47,1.68,13.8992,34.1046,81.52520000000001,175,75
2026-05-09 16:15:09.700,4,0.78,-0.47,1.64,18.1692,44.5346,91.46520000000001,175,75
2026-05-09 16:15:09.712,4,0.73,-0.26,1.69,28.719199999999997,82.0946,107.93520000000001,175,75
2026-05-09 16:15:09.746,4,0.59,-0.13,1.85,30.299200000000003,66.1246,110.24520000000001,175,75
2026-05-09 16:15:09.746,4,0.34,0.03,2.03,32.1892,19.784599999999998,100.3652,175,75
2026-05-09 16:15:09.826,4,0.37,0.96,1.5,21.0992,-210.4654,-17.494799999999998,175,75
2026-05-09 16:15:09.826,4,0.5,1.03,1.23,15.4892,-165.9554,-30.6648,175,75
2026-05-09 16:15:09.838,4,0.5,0.99,1.07,16.2192,-119.5454,-41.8848,175,75
2026-05-09 16:15:09.858,4,0.15,0.57,1.14,3.6592000000000002,-0.3454000000000015,-47.3148,175,75
2026-05-09 16:15:09.870,4,0.08,0.3,1.25,-5.2408,32.4646,-49.2048,175,75
2026-05-09 16:15:09.881,4,0.04,0.01,1.32,-11.6508,39.7846,-50.8448,175,75
2026-05-09 16:15:09.893,4,-0.03,-0.24,1.37,-11.0408,43.3146,-48.0448,175,75
2026-05-09 16:15:09.913,4,-0.02,-0.47,1.48,-5.6708,49.964600000000004,-38.4748,175,75
2026-05-09 16:15:09.913,4,0.11,-0.71,1.74,-3.4208,41.854600000000005,-15.9748,175,75
2026-05-09 16:15:09.948,4,0.17,-0.58,2.22,-22.870800000000003,-88.1454,-24.2048,175,75
2026-05-09 16:15:09.972,4,0.48,0.05,1.7,-33.540800000000004,-204.8554,-26.0948,175,75
2026-05-09 16:15:09.983,4,0.48,-0.09,1.3,-17.4408,-179.0054,-19.0248,175,75
2026-05-09 16:15:10.000,4,0.4,-0.27,0.91,2.5592000000000006,-97.1754,2.1351999999999998,175,75
2026-05-09 16:15:10.001,4,0.29,-0.34,0.8,12.2592,11.064599999999999,27.0752,175,75
2026-05-09 16:15:10.029,4,0.24,-0.33,0.88,16.2792,127.15459999999999,55.4952,175,75
2026-05-09 16:15:10.029,4,0.25,-0.31,1.08,16.2792,188.0746,73.2352,175,75
2026-05-09 16:15:10.043,4,0.25,-0.3,1.37,14.7592,220.9346,86.77520000000001,175,75
2026-05-09 16:15:10.075,4,0.27,-0.29,1.82,7.9892,188.6846,86.52520000000001,175,75
2026-05-09 16:15:10.075,4,0.23,-0.26,1.96,2.4391999999999996,139.4146,77.07520000000001,175,75
2026-05-09 16:15:10.090,4,0.19,-0.22,2.0,-3.9008000000000003,82.7646,65.49520000000001,175,75
2026-05-09 16:15:10.191,4,0.19,0.06,1.74,-15.0608,-104.1854,37.5052,175,75
2026-05-09 16:15:10.236,4,0.42,0.39,1.44,-22.1408,-112.7154,16.6452,175,75
2026-05-09 16:15:10.253,4,0.35,0.5,1.42,-21.6508,-124.6154,8.3552,175,75
2026-05-09 16:15:10.290,4,0.04,0.93,1.16,-40.6108,-51.6854,-3.1648,175,75
2026-05-09 16:15:10.294,4,0.5,0.98,1.53,-40.180800000000005,59.5946,-9.3248,175,75
2026-05-09 16:15:10.315,4,0.57,0.0,1.12,-19.8208,130.5746,-2.8648,175,75
2026-05-09 16:15:10.323,4,0.56,-0.27,1.11,-11.2208,155.7546,12.2552,175,75
2026-05-09 16:15:10.326,4,0.49,-0.58,1.16,-7.2008,175.0846,27.8052,175,75
2026-05-09 16:15:10.344,4,0.45,-1.12,1.66,-14.090800000000002,239.59459999999999,63.725199999999994,175,75
2026-05-09 16:15:10.413,4,0.66,-0.91,1.8,-23.7808,-32.4154,25.365199999999998,175,75
2026-05-09 16:15:10.434,4,0.53,-0.5,1.5,-8.5408,-31.7454,43.9652,175,75
2026-05-09 16:15:10.445,4,0.53,-0.1,1.7,-3.9608,38.744600000000005,50.3052,175,75
2026-05-09 16:15:10.474,4,0.41,0.06,1.92,-2.7408,-5.825400000000002,30.005200000000002,175,75
2026-05-09 16:15:10.474,4,0.34,0.09,1.94,-3.2308000000000003,-24.2454,18.0552,175,75
2026-05-09 16:15:10.485,4,0.36,0.14,1.93,-0.9207999999999998,-44.0054,5.915199999999999,175,75
2026-05-09 16:15:10.495,4,0.42,0.21,1.9,4.0192,-72.6554,-3.8948,175,75
2026-05-09 16:15:10.521,4,0.39,0.28,1.81,9.3292,-111.6854,-18.7148,175,75
2026-05-09 16:15:10.521,4,0.29,0.38,1.6,3.959199999999999,-149.0054,-43.0448,175,75
2026-05-09 16:15:10.546,4,0.19,0.51,1.4,0.299199999999999,-144.9754,-55.7848,175,75
2026-05-09 16:15:10.549,4,0.15,0.57,1.32,-0.9207999999999998,-130.28539999999998,-57.2548,175,75
2026-05-09 16:15:10.562,4,0.1,0.61,1.26,-5.2408,-112.9054,-58.8348,175,75
2026-05-09 16:15:10.621,4,0.06,0.66,1.29,-22.870800000000003,-61.745400000000004,-66.03479999999999,175,75
2026-05-09 16:15:10.621,4,0.1,0.7,1.34,-32.680800000000005,-37.9654,-69.9348,175,75
2026-05-09 16:15:10.630,4,0.21,0.77,1.38,-41.650800000000004,-18.4554,-73.7748,175,75
2026-05-09 16:15:10.641,4,0.31,0.81,1.41,-46.710800000000006,6.9146,-73.4148,175,75
2026-05-09 16:15:10.654,4,0.37,0.76,1.37,-44.4508,36.1246,-76.33479999999999,175,75
2026-05-09 16:15:10.665,4,0.48,0.57,1.28,-39.820800000000006,86.1246,-84.3848,175,75
2026-05-09 16:15:10.675,4,0.61,0.13,1.2,-24.8808,159.84459999999999,-72.4948,175,75
2026-05-09 16:15:10.685,4,0.47,-0.21,1.21,-15.0008,178.1346,-68.34479999999999,175,75
2026-05-09 16:15:10.693,4,0.35,-0.47,1.27,-17.0108,193.4946,-60.1148,175,75
2026-05-09 16:15:10.736,4,0.34,-0.9,2.09,-14.5708,134.7146,-24.2648,175,75
2026-05-09 16:15:10.746,4,0.39,-0.66,2.33,-14.3308,48.254599999999996,-28.7748,175,75
2026-05-09 16:15:10.767,4,0.45,-0.43,2.3,-20.6708,-14.855400000000001,-17.2548,175,75
2026-05-09 16:15:10.791,4,0.51,-0.37,2.01,-16.5308,-61.8054,7.6852,175,75
2026-05-09 16:15:10.807,4,0.49,-0.52,1.39,19.4492,-38.5154,64.3352,175,75
2026-05-09 16:15:10.819,4,0.41,-0.48,1.29,28.409200000000002,9.4146,89.63520000000001,175,75
2026-05-09 16:15:10.843,4,0.38,-0.32,1.28,39.3292,89.4746,115.1252,175,75
2026-05-09 16:15:10.851,4,0.45,-0.05,1.59,43.4692,139.4746,123.7852,175,75
2026-05-09 16:15:10.861,4,0.47,0.24,1.84,44.50919999999999,117.46459999999999,112.99520000000001,175,75
2026-05-09 16:15:10.871,4,0.53,0.61,2.0,37.1292,83.0746,94.15520000000001,175,75
2026-05-09 16:15:10.882,4,0.79,1.12,1.99,21.8892,74.2946,74.3352,175,75
2026-05-09 16:15:10.901,4,1.16,1.49,1.88,25.609199999999998,98.6846,60.5552,175,75
2026-05-09 16:15:10.912,4,1.15,1.47,1.85,54.50919999999999,110.2046,52.5652,175,75
2026-05-09 16:15:10.912,4,0.83,1.13,1.91,84.9392,125.3246,41.4052,175,75
2026-05-09 16:15:10.924,4,0.67,0.71,1.92,91.2792,164.2946,21.4052,175,75
2026-05-09 16:15:10.936,4,0.76,0.36,1.89,79.2692,209.1046,0.3652000000000002,175,75
2026-05-09 16:15:10.948,4,1.02,-0.03,1.78,68.0492,235.3246,-31.6448,175,75
2026-05-09 16:15:10.959,4,1.16,-0.32,1.89,67.4392,228.1346,-47.4948,175,75
2026-05-09 16:15:10.970,4,1.06,-0.46,2.19,70.7892,233.98459999999997,-61.7048,175,75
2026-05-09 16:15:10.981,4,1.23,-0.55,2.8,74.2692,214.7846,-88.28479999999999,175,75
2026-05-09 16:15:11.014,4,1.1,-1.16,3.25,100.66919999999999,-54.1254,-204.38479999999998,175,75
2026-05-09 16:15:11.035,4,0.93,-1.25,2.59,85.4292,-140.2154,-258.1048,175,75
2026-05-09 16:15:11.057,4,0.89,-0.99,2.09,66.0992,-161.2554,-289.4448,175,75
2026-05-09 16:15:11.068,4,0.85,-0.87,1.85,52.679199999999994,-153.0854,-294.6348,175,75
2026-05-09 16:15:11.075,4,0.77,-0.83,1.62,44.449200000000005,-135.5254,-289.5648,175,75
2026-05-09 16:15:11.122,4,0.35,-0.52,1.59,47.679199999999994,0.1446000000000005,-210.1148,175,75
2026-05-09 16:15:11.134,4,0.38,-0.35,1.84,46.949200000000005,-18.9354,-201.3348,175,75
2026-05-09 16:15:11.149,4,0.31,-0.16,1.98,31.829199999999997,-72.4154,-204.8748,175,75
2026-05-09 16:15:11.156,4,0.27,0.04,1.92,7.1892,-105.2154,-208.10479999999998,175,75
2026-05-09 16:15:11.186,4,0.29,0.35,1.58,-15.0608,-144.30540000000002,-200.1748,175,75
2026-05-09 16:15:11.196,4,0.15,0.45,1.41,-20.430799999999998,-150.28539999999998,-188.4748,175,75
2026-05-09 16:15:11.221,4,0.04,0.51,1.33,-25.6708,-136.3754,-177.13479999999998,175,75
2026-05-09 16:15:11.222,4,-0.1,0.63,1.28,-29.2108,-100.2854,-159.9348,175,75
2026-05-09 16:15:11.249,4,-0.21,0.74,1.33,-24.0908,-82.47540000000001,-152.4348,175,75
2026-05-09 16:15:11.259,4,-0.24,0.75,1.31,-23.1108,-77.8454,-155.66479999999999,175,75
2026-05-09 16:15:11.268,4,-0.26,0.73,1.26,-25.6708,-70.8954,-156.2148,175,75
2026-05-09 16:15:11.280,4,-0.32,0.69,1.15,-26.7108,-51.9854,-156.0348,175,75
2026-05-09 16:15:11.290,4,-0.34,0.65,1.09,-25.0008,-27.2954,-154.5648,175,75
2026-05-09 16:15:11.297,4,-0.34,0.6,1.08,-21.2808,3.4345999999999997,-150.85479999999998,175,75
2026-05-09 16:15:11.311,4,-0.34,0.52,1.12,-16.9508,40.384600000000006,-144.63479999999998,175,75
2026-05-09 16:15:11.322,4,-0.36,0.45,1.2,-14.8808,59.354600000000005,-143.8348,175,75
2026-05-09 16:15:11.333,4,-0.39,0.41,1.32,-15.4908,65.0846,-146.88479999999998,175,75
2026-05-09 16:15:11.410,4,-0.04,2.1,1.88,-38.8408,21.2446,-89.2648,175,75
2026-05-09 16:15:11.421,4,0.15,2.54,1.97,-46.8908,25.084600000000002,-82.67479999999999,175,75
2026-05-09 16:15:11.434,4,0.33,2.86,2.08,-54.4508,19.784599999999998,-72.00479999999999,175,75
2026-05-09 16:15:11.468,4,1.01,2.61,2.11,-73.7808,-35.3454,-24.2648,175,75
2026-05-09 16:15:11.468,4,1.14,2.66,1.96,-74.5708,-30.7054,-12.6148,175,75
2026-05-09 16:15:11.491,4,1.16,2.51,1.79,-71.5308,-2.3553999999999995,-1.5248,175,75
2026-05-09 16:15:11.491,4,1.07,2.29,1.76,-73.7808,41.4846,6.405199999999999,175,75
2026-05-09 16:15:11.519,4,0.97,1.77,2.07,-88.7808,120.4546,13.545200000000001,175,75
2026-05-09 16:15:11.540,4,0.81,1.5,2.42,-98.2308,70.1446,13.9052,175,75
2026-05-09 16:15:11.550,4,0.64,1.43,2.46,-97.2608,28.7446,11.165199999999999,175,75
2026-05-09 16:15:11.570,4,0.61,1.34,2.39,-97.1408,-8.755400000000002,6.0451999999999995,175,75
2026-05-09 16:15:11.570,4,0.61,1.25,2.25,-93.2308,-44.245400000000004,3.4152,175,75
2026-05-09 16:15:11.582,4,0.61,1.16,2.13,-87.1408,-61.5054,-0.8448,175,75
2026-05-09 16:15:11.583,4,0.62,1.06,1.98,-82.8108,-62.9054,-4.4448,175,75
2026-05-09 16:15:11.601,4,0.63,0.96,1.85,-78.1708,-54.0654,-10.1148,175,75
2026-05-09 16:15:11.624,4,0.5,0.75,1.67,-62.5608,-37.1154,-26.0348,175,75
2026-05-09 16:15:11.656,4,0.14,0.65,1.65,-61.650800000000004,-78.02539999999999,-42.2548,175,75
2026-05-09 16:15:11.709,4,0.11,0.64,1.37,-44.0308,-56.6254,-34.8748,175,75
2026-05-09 16:15:11.724,4,0.2,0.58,1.4,-31.2208,-49.7354,-35.1748,175,75
2026-05-09 16:15:11.743,4,0.2,0.57,1.42,-26.2208,-48.8154,-38.2848,175,75
2026-05-09 16:15:11.745,4,0.21,0.63,1.48,-25.9808,-46.2554,-40.5448,175,75
2026-05-09 16:15:11.757,4,0.19,0.75,1.53,-29.820800000000002,-47.3554,-45.4848,175,75
2026-05-09 16:15:11.769,4,0.22,0.84,1.54,-33.7208,-48.635400000000004,-49.9348,175,75
2026-05-09 16:15:11.836,4,0.4,1.1,1.77,-16.7708,93.4946,-34.3848,175,75
2026-05-09 16:15:11.847,4,0.34,1.25,2.03,-15.7308,85.3846,-36.7048,175,75
2026-05-09 16:15:11.889,4,0.4,2.07,2.51,-41.10080000000001,-17.715400000000002,-46.8248,175,75
2026-05-09 16:15:11.918,4,0.42,2.23,2.69,-54.7608,-45.0954,-35.8448,175,75
2026-05-09 16:15:11.918,4,0.53,2.29,2.73,-60.9808,-76.1354,-24.2048,175,75
2026-05-09 16:15:11.929,4,0.59,2.28,2.65,-58.7808,-102.1154,-10.3048,175,75
2026-05-09 16:15:11.939,4,0.65,2.09,2.46,-45.49080000000001,-115.2854,6.2852,175,75
2026-05-09 16:15:11.954,4,0.64,1.73,2.24,-31.2208,-100.2854,17.865199999999998,175,75
2026-05-09 16:15:11.983,4,0.64,1.54,2.17,-37.070800000000006,-21.3154,25.1852,175,75
2026-05-09 16:15:11.990,4,0.76,1.46,2.18,-31.7708,-12.0454,26.8352,175,75
2026-05-09 16:15:12.038,4,1.23,0.97,1.81,6.8292,30.934599999999996,5.555199999999999,175,75
2026-05-09 16:15:12.038,4,1.22,0.92,1.71,16.6492,38.80459999999999,-7.8048,175,75
2026-05-09 16:15:12.050,4,1.11,0.88,1.63,26.219199999999997,40.02459999999999,-21.7048,175,75
2026-05-09 16:15:12.075,4,0.74,0.81,1.54,45.5492,30.4546,-34.2648,175,75
2026-05-09 16:15:12.075,4,0.65,0.81,1.57,51.5192,22.8846,-33.1648,175,75
2026-05-09 16:15:12.090,4,0.65,0.89,1.71,44.8792,3.1945999999999977,-32.1948,175,75
2026-05-09 16:15:12.162,4,1.04,1.37,0.77,-37.5608,-128.1454,-30.1748,175,75
2026-05-09 16:15:12.170,4,1.0,1.28,0.66,-37.8108,-37.7854,-14.754800000000001,175,75
2026-05-09 16:15:12.185,4,1.02,1.17,0.82,-36.1608,43.3146,0.5552000000000001,175,75
2026-05-09 16:15:12.190,4,1.02,1.08,1.07,-41.10080000000001,78.0746,5.2452000000000005,175,75
2026-05-09 16:15:12.271,4,0.98,1.18,1.74,-83.5408,47.52459999999999,-10.6648,175,75
2026-05-09 16:15:12.313,4,0.72,1.26,1.66,-93.5408,-30.825400000000002,-22.8648,175,75
2026-05-09 16:15:12.313,4,0.62,1.2,1.58,-94.3908,-37.9054,-25.2448,175,75
2026-05-09 16:15:12.313,4,0.51,1.12,1.5,-90.3108,-47.785399999999996,-27.4948,175,75
2026-05-09 16:15:12.336,4,0.33,0.93,1.45,-79.5108,-71.9854,-31.4548,175,75
2026-05-09 16:15:12.358,4,0.32,0.87,1.39,-73.5408,-90.0354,-42.4348,175,75
2026-05-09 16:15:12.358,4,0.22,0.89,1.28,-69.7608,-105.0354,-55.9748,175,75
2026-05-09 16:15:12.373,4,0.18,0.91,1.24,-71.8308,-100.9554,-60.8448,175,75
2026-05-09 16:15:12.411,4,-0.0,0.83,1.08,-80.4308,-84.30539999999999,-70.5448,175,75
2026-05-09 16:15:12.500,4,-0.15,0.63,1.22,-99.0308,-38.2654,-72.4348,175,75
2026-05-09 16:15:12.510,4,-0.11,0.6,1.29,-103.2908,-52.535399999999996,-75.11479999999999,175,75
2026-05-09 16:15:12.510,4,-0.08,0.61,1.33,-105.7308,-69.7354,-75.9148,175,75
2026-05-09 16:15:12.543,4,0.25,1.06,1.31,-95.6108,-113.1454,-44.8748,175,75
2026-05-09 16:15:12.555,4,0.33,1.39,1.42,-98.7208,-81.31540000000001,-38.4748,175,75
2026-05-09 16:15:12.566,4,0.4,1.95,1.61,-107.9308,-49.0054,-31.2748,175,75
2026-05-09 16:15:12.566,4,0.51,2.83,1.84,-119.5708,-28.6954,-28.044800000000002,175,75
2026-05-09 16:15:12.577,4,0.98,3.24,1.9,-131.4608,-63.635400000000004,-4.6348,175,75
2026-05-09 16:15:12.594,4,1.11,2.1,1.52,-122.8108,-94.3054,22.5652,175,75
2026-05-09 16:15:12.626,4,1.35,2.34,1.48,-142.26080000000002,-10.4054,31.2252,175,75
2026-05-09 16:15:12.637,4,1.72,2.42,1.56,-132.3208,56.30459999999999,45.5552,175,75
2026-05-09 16:15:12.637,4,1.83,1.96,1.74,-105.3108,81.0646,59.8852,175,75
2026-05-09 16:15:12.647,4,1.82,1.54,1.93,-95.49080000000001,98.1946,58.355199999999996,175,75
2026-05-09 16:15:12.659,4,1.81,1.22,2.18,-93.1708,105.5746,51.6552,175,75
2026-05-09 16:15:12.659,4,1.84,0.98,2.52,-93.2308,88.7446,36.8352,175,75
2026-05-09 16:15:12.670,4,1.86,0.9,2.63,-92.6208,43.80459999999999,20.0652,175,75
2026-05-09 16:15:12.680,4,1.78,0.92,2.55,-91.5308,-18.6954,1.2252,175,75
2026-05-09 16:15:12.695,4,1.7,0.97,2.28,-89.0308,-43.4554,-15.0548,175,75
2026-05-09 16:15:12.722,4,1.56,0.94,1.78,-75.1808,-20.3454,-38.8348,175,75
2026-05-09 16:15:12.734,4,1.24,0.85,1.66,-67.0108,-9.6754,-45.6648,175,75
2026-05-09 16:15:12.749,4,0.89,0.85,1.66,-67.0708,1.8545999999999978,-48.0448,175,75
2026-05-09 16:15:12.803,4,0.2,0.56,1.63,-81.4608,-54.1854,-45.4248,175,75
2026-05-09 16:15:12.813,4,0.13,0.33,1.53,-91.0408,-64.8554,-44.5048,175,75
2026-05-09 16:15:12.826,4,0.19,0.32,1.51,-95.4308,-68.75540000000001,-47.0048,175,75
2026-05-09 16:15:12.826,4,0.21,0.41,1.51,-95.8508,-79.30539999999999,-49.2648,175,75
2026-05-09 16:15:12.847,4,0.09,0.7,1.45,-93.5408,-108.8154,-52.9848,175,75
2026-05-09 16:15:12.857,4,0.0,0.88,1.33,-92.1408,-103.8754,-47.9848,175,75
2026-05-09 16:15:12.857,4,-0.01,0.91,1.25,-89.27080000000001,-91.1354,-43.5348,175,75
2026-05-09 16:15:12.869,4,-0.02,0.84,1.14,-82.44080000000001,-28.6954,-36.0948,175,75
2026-05-09 16:15:12.880,4,-0.01,0.85,1.16,-83.9608,4.2346,-35.8448,175,75
2026-05-09 16:15:12.892,4,0.02,0.87,1.23,-84.4508,25.754599999999996,-38.2848,175,75
2026-05-09 16:15:12.902,4,0.02,0.96,1.37,-83.2908,39.1746,-41.9448,175,75
2026-05-09 16:15:12.918,4,0.0,1.03,1.45,-81.6508,38.744600000000005,-45.4848,175,75
2026-05-09 16:15:12.932,4,0.01,1.06,1.49,-79.7608,35.6346,-47.1348,175,75
2026-05-09 16:15:12.945,4,0.04,1.06,1.48,-75.6108,36.6046,-48.6548,175,75
2026-05-09 16:15:12.956,4,0.12,1.09,1.47,-68.1708,39.2946,-48.8348,175,75
2026-05-09 16:15:13.002,4,0.38,0.98,1.41,-39.7608,55.634600000000006,-43.9548,175,75
2026-05-09 16:15:13.028,4,0.47,1.38,1.85,-28.1708,93.4946,-54.9348,175,75
2026-05-09 16:15:13.066,4,0.85,2.61,2.66,-61.8908,-15.5854,-64.9948,175,75
2026-05-09 16:15:13.082,4,0.8,2.49,2.56,-66.7108,-90.9554,-65.9148,175,75
2026-05-09 16:15:13.089,4,0.66,2.65,2.46,-77.2608,-115.8254,-65.84479999999999,175,75
2026-05-09 16:15:13.120,4,1.02,2.71,2.12,-89.5108,-128.1454,-2.7448,175,75
2026-05-09 16:15:13.131,4,1.16,1.66,1.58,-46.5908,-100.3454,23.2352,175,75
2026-05-09 16:15:13.131,4,1.29,1.37,1.51,-52.5008,-18.7554,19.8852,175,75
2026-05-09 16:15:13.155,4,1.57,1.05,1.74,-43.7208,74.3546,0.06519999999999992,175,75
2026-05-09 16:15:13.155,4,1.5,0.82,1.82,-27.9308,77.4646,-8.4148,175,75
2026-05-09 16:15:13.179,4,1.17,0.36,2.05,-0.6108000000000002,60.574600000000004,-41.644800000000004,175,75
2026-05-09 16:15:13.185,4,1.02,0.48,2.14,-2.4408000000000003,-1.1953999999999994,-66.94479999999999,175,75
2026-05-09 16:15:13.202,4,0.93,0.74,2.05,-12.7408,-96.5654,-85.84479999999999,175,75
2026-05-09 16:15:13.214,4,0.75,0.99,1.89,-25.1208,-158.5754,-88.34479999999999,175,75
2026-05-09 16:15:13.225,4,0.61,1.21,1.72,-38.4208,-176.2554,-79.08479999999999,175,75
2026-05-09 16:15:13.236,4,0.63,1.35,1.59,-47.2608,-152.1154,-59.3248,175,75
2026-05-09 16:15:13.248,4,0.88,1.3,1.54,-64.2708,-94.0654,-31.7048,175,75
2026-05-09 16:15:13.272,4,1.22,1.25,1.49,-117.99080000000001,-73.8754,-32.434799999999996,175,75
2026-05-09 16:15:13.293,4,1.3,1.3,1.28,-136.95080000000002,-71.9854,-32.3748,175,75
2026-05-09 16:15:13.327,4,1.23,1.34,1.09,-140.4308,-55.6454,-27.4348,175,75
2026-05-09 16:15:13.350,4,0.68,1.17,1.21,-124.94080000000001,89.2946,9.395199999999999,175,75
2026-05-09 16:15:13.378,4,0.51,0.97,1.94,-121.5908,53.194599999999994,10.495199999999999,175,75
2026-05-09 16:15:13.390,4,0.45,0.98,2.0,-123.4208,1.2445999999999984,3.4751999999999996,175,75
2026-05-09 16:15:13.416,4,0.41,1.01,1.91,-121.1008,-59.9754,-5.9748,175,75
2026-05-09 16:15:13.455,4,0.01,0.93,0.97,-90.7308,-82.5954,-6.1548,175,75
2026-05-09 16:15:13.463,4,0.02,0.78,0.93,-68.2308,-32.5954,-13.4148,175,75
2026-05-09 16:15:13.475,4,0.07,0.77,1.03,-72.0708,-15.765400000000001,-25.4248,175,75
2026-05-09 16:15:13.487,4,0.05,0.81,1.1,-80.24080000000001,-14.365400000000001,-41.3348,175,75
2026-05-09 16:15:13.487,4,-0.05,0.88,1.17,-87.38080000000001,-22.3554,-54.144800000000004,175,75
2026-05-09 16:15:13.497,4,-0.15,0.92,1.22,-96.9508,-36.8654,-60.1148,175,75
2026-05-09 16:15:13.518,4,-0.21,0.93,1.25,-107.2008,-51.3154,-59.6948,175,75
2026-05-09 16:15:13.528,4,-0.27,1.11,1.3,-133.11079999999998,-80.52539999999999,-50.5448,175,75
2026-05-09 16:15:13.539,4,-0.1,1.11,1.24,-138.0508,-87.7154,-42.9848,175,75
2026-05-09 16:15:13.551,4,0.01,0.98,1.19,-137.5608,-95.6454,-38.5348,175,75
2026-05-09 16:15:13.562,4,0.12,0.9,1.18,-136.95080000000002,-90.7054,-36.9448,175,75
2026-05-09 16:15:13.569,4,0.32,0.86,1.15,-136.2208,-75.3454,-34.9948,175,75
2026-05-09 16:15:13.583,4,0.52,0.82,1.13,-131.8308,-61.2554,-34.504799999999996,175,75
2026-05-09 16:15:13.619,4,1.07,0.8,0.93,-123.66080000000001,8.314599999999999,-46.4548,175,75
2026-05-09 16:15:13.642,4,1.11,1.16,1.31,-122.38080000000001,92.0346,-79.69479999999999,175,75
2026-05-09 16:15:13.657,4,1.18,1.68,1.88,-135.9808,131.0646,-69.81479999999999,175,75
2026-05-09 16:15:13.667,4,1.81,2.17,2.65,-142.3808,-7.1754,-62.8048,175,75
2026-05-09 16:15:13.677,4,1.75,2.02,2.57,-157.1408,-57.1154,-63.5948,175,75
2026-05-09 16:15:13.688,4,1.78,2.11,2.47,-169.0908,-53.4554,-62.0048,175,75
2026-05-09 16:15:13.743,4,1.76,1.57,2.07,-122.38080000000001,-25.5854,-20.1148,175,75
2026-05-09 16:15:13.743,4,1.78,1.2,2.0,-113.4208,-4.915400000000002,-20.7848,175,75
2026-05-09 16:15:13.753,4,1.71,0.88,1.97,-102.5608,23.074599999999997,-26.1548,175,75
2026-05-09 16:15:13.764,4,1.6,0.69,2.05,-92.8708,48.3746,-33.6548,175,75
2026-05-09 16:15:13.776,4,1.36,0.6,2.18,-84.94080000000001,50.2046,-42.7448,175,75
2026-05-09 16:15:13.786,4,1.12,0.58,2.29,-81.3408,27.464599999999997,-48.5948,175,75
2026-05-09 16:15:13.816,4,0.97,0.5,2.33,-82.38080000000001,-11.3754,-54.9348,175,75
2026-05-09 16:15:13.832,4,0.93,0.45,2.23,-88.5408,-52.8454,-59.9348,175,75
2026-05-09 16:15:13.832,4,0.84,0.51,1.99,-97.2608,-96.6254,-65.2448,175,75
2026-05-09 16:15:13.840,4,0.68,0.59,1.73,-104.4508,-112.1154,-65.6048,175,75
2026-05-09 16:15:13.853,4,0.51,0.63,1.53,-107.5608,-94.6754,-58.714800000000004,175,75
2026-05-09 16:15:13.869,4,0.43,0.57,1.43,-105.6108,-57.415400000000005,-48.1648,175,75
2026-05-09 16:15:13.881,4,0.45,0.46,1.43,-101.2808,-26.8654,-40.7248,175,75
2026-05-09 16:15:13.881,4,0.47,0.34,1.5,-96.5908,-10.955400000000001,-37.2548,175,75
2026-05-09 16:15:13.892,4,0.44,0.31,1.56,-96.0408,-10.6454,-39.7548,175,75
2026-05-09 16:15:13.903,4,0.38,0.34,1.61,-97.6208,-14.2454,-45.0548,175,75
2026-05-09 16:15:13.922,4,0.32,0.53,1.54,-94.4508,-20.7054,-55.9748,175,75
2026-05-09 16:15:13.948,4,0.09,0.6,1.45,-82.6208,-23.8754,-60.6648,175,75
2026-05-09 16:15:13.958,4,0.02,0.6,1.44,-79.1508,-15.525400000000001,-60.7248,175,75
2026-05-09 16:15:14.047,4,-0.13,0.79,1.53,-66.8908,-24.0654,-73.28479999999999,175,75
2026-05-09 16:15:14.057,4,-0.18,0.93,1.53,-65.7308,-38.8754,-77.3748,175,75
2026-05-09 16:15:14.057,4,-0.2,0.98,1.52,-64.3908,-41.5054,-76.2148,175,75
2026-05-09 16:15:14.077,4,-0.19,1.02,1.46,-62.320800000000006,-39.8554,-70.97479999999999,175,75
2026-05-09 16:15:14.108,4,-0.06,1.02,1.29,-53.900800000000004,-2.6554,-55.7848,175,75
2026-05-09 16:15:14.162,4,0.42,1.22,1.36,-27.5608,104.41460000000001,-45.2448,175,75
2026-05-09 16:15:14.187,4,0.62,1.67,1.84,-20.7908,158.5646,-42.3148,175,75
2026-05-09 16:15:14.205,4,0.64,2.09,2.22,-31.5308,170.6946,-41.7648,175,75
2026-05-09 16:15:14.214,4,0.67,2.69,2.63,-50.9208,162.8246,-48.2848,175,75
2026-05-09 16:15:14.229,4,0.78,3.05,2.87,-69.0308,113.62459999999999,-56.0348,175,75
2026-05-09 16:15:14.247,4,0.89,2.81,2.87,-78.5408,28.5646,-54.3848,175,75
2026-05-09 16:15:14.255,4,0.88,2.63,2.76,-89.1508,-30.285400000000003,-49.9948,175,75
2026-05-09 16:15:14.289,4,1.16,2.33,2.48,-72.74080000000001,-42.9054,-14.8148,175,75
2026-05-09 16:15:14.319,4,1.12,1.52,2.26,-42.8108,-51.805400000000006,-5.364800000000001,175,75
2026-05-09 16:15:14.345,4,1.12,1.33,2.21,-36.7108,-33.3954,-4.1448,175,75
2026-05-09 16:15:14.448,4,0.69,0.97,2.31,-3.9608,-40.525400000000005,-69.81479999999999,175,75
2026-05-09 16:15:14.448,4,0.7,1.16,2.26,-17.8108,-109.0054,-70.17479999999999,175,75
2026-05-09 16:15:14.459,4,0.72,1.27,2.11,-41.400800000000004,-132.78539999999998,-65.48479999999999,175,75
2026-05-09 16:15:14.470,4,1.08,1.24,1.68,-83.1708,-99.6754,-49.8148,175,75
2026-05-09 16:15:14.505,4,0.72,1.08,1.41,-68.6008,26.364599999999996,-19.2048,175,75
2026-05-09 16:15:14.516,4,0.53,1.06,1.59,-69.0308,56.244600000000005,-10.4848,175,75
2026-05-09 16:15:14.543,4,0.37,1.04,1.86,-71.5908,14.5946,1.7151999999999998,175,75
2026-05-09 16:15:14.575,4,0.45,1.06,1.77,-75.8508,-29.6754,-2.1348000000000003,175,75
2026-05-09 16:15:14.594,4,0.53,1.1,1.62,-79.0908,-39.1854,-11.8248,175,75
2026-05-09 16:15:14.607,4,0.34,1.1,1.39,-76.83080000000001,-35.0954,-29.3248,175,75
2026-05-09 16:15:14.615,4,0.25,1.06,1.36,-76.4608,-15.525400000000001,-33.7748,175,75
2026-05-09 16:15:14.615,4,0.19,1.0,1.33,-72.8108,-8.6954,-40.4248,175,75
2026-05-09 16:15:14.643,4,0.05,0.76,1.28,-63.7208,-15.4054,-58.4148,175,75
2026-05-09 16:15:14.649,4,0.01,0.72,1.26,-66.0408,-20.0954,-67.1348,175,75
2026-05-09 16:15:14.685,4,-0.02,0.73,1.16,-71.1608,-36.135400000000004,-82.25479999999999,175,75
2026-05-09 16:15:14.705,4,-0.12,0.84,1.23,-81.4608,-41.9854,-92.86479999999999,175,75
2026-05-09 16:15:14.743,4,-0.14,0.8,1.21,-86.2208,-98.8154,-90.48479999999999,175,75
2026-05-09 16:15:14.766,4,0.2,0.96,1.14,-97.8108,-83.6354,-72.06479999999999,175,75
2026-05-09 16:15:14.770,4,0.42,1.04,1.18,-99.33080000000001,-67.9054,-63.4148,175,75
2026-05-09 16:15:14.785,4,0.89,1.05,1.29,-86.16080000000001,-17.6554,-61.9448,175,75
2026-05-09 16:15:14.872,4,1.59,2.27,2.6,-106.0408,14.784599999999998,-44.6348,175,75
2026-05-09 16:15:14.890,4,1.56,2.32,2.8,-120.24080000000001,24.294600000000003,-51.394800000000004,175,75
2026-05-09 16:15:14.952,4,1.54,2.22,2.88,-110.55080000000001,-61.0154,-40.9748,175,75
2026-05-09 16:15:14.969,4,1.39,1.71,2.69,-87.2608,-77.53540000000001,-29.9348,175,75
2026-05-09 16:15:14.980,4,1.44,1.33,2.62,-77.6808,-61.9254,-24.7548,175,75
2026-05-09 16:15:14.980,4,1.47,1.15,2.61,-76.6508,-51.8654,-24.384800000000002,175,75
2026-05-09 16:15:14.996,4,1.45,1.08,2.51,-80.1808,-52.7154,-30.6648,175,75
2026-05-09 16:15:15.000,4,1.25,0.94,2.28,-79.4508,-33.8154,-39.2048,175,75
2026-05-09 16:15:15.014,4,0.78,0.73,1.98,-75.7908,-4.795400000000001,-53.0448,175,75
2026-05-09 16:15:15.017,4,0.34,0.55,1.88,-68.4208,22.034599999999998,-46.5248,175,75
2026-05-09 16:15:15.044,4,0.2,0.56,2.12,-58.540800000000004,22.284599999999998,-46.8848,175,75
2026-05-09 16:15:15.066,4,0.17,0.56,2.18,-63.35080000000001,-69.5454,-54.5648,175,75
2026-05-09 16:15:15.078,4,0.25,0.63,1.6,-74.5708,-135.09539999999998,-53.4748,175,75
2026-05-09 16:15:15.089,4,0.3,0.64,1.28,-70.8508,-89.8554,-46.8848,175,75
2026-05-09 16:15:15.101,4,0.29,0.62,1.22,-63.660799999999995,-40.5854,-47.5548,175,75
2026-05-09 16:15:15.117,4,0.14,0.64,1.61,-45.430800000000005,-2.535399999999999,-84.69479999999999,175,75
2026-05-09 16:15:15.128,4,0.02,0.7,1.66,-46.2208,-32.6554,-97.67479999999999,175,75
2026-05-09 16:15:15.170,4,-0.13,0.97,1.38,-56.650800000000004,-85.8954,-109.6348,175,75
2026-05-09 16:15:15.233,4,0.29,1.2,1.74,-29.570800000000002,-11.505400000000002,-61.394800000000004,175,75
2026-05-09 16:15:15.243,4,0.34,1.18,1.66,-24.2708,-35.2854,-61.5248,175,75
2026-05-09 16:15:15.243,4,0.41,1.15,1.63,-16.8308,-37.6554,-66.09479999999999,175,75
2026-05-09 16:15:15.254,4,0.44,1.29,1.74,-18.230800000000002,-36.745400000000004,-74.0248,175,75
2026-05-09 16:15:15.261,4,0.39,1.67,1.97,-34.570800000000006,-36.0154,-83.4148,175,75
2026-05-09 16:15:15.271,4,0.38,2.27,2.2,-63.050799999999995,-39.3054,-92.06479999999999,175,75
2026-05-09 16:15:15.284,4,0.55,3.09,2.39,-96.16080000000001,-75.8254,-88.1648,175,75
2026-05-09 16:15:15.333,4,0.8,2.41,1.77,-97.6208,-76.56540000000001,-4.9948,175,75
2026-05-09 16:15:15.352,4,1.06,2.09,1.99,-78.2308,33.684599999999996,25.2452,175,75
2026-05-09 16:15:15.371,4,1.04,1.5,2.31,-66.5908,7.5245999999999995,30.065199999999997,175,75
2026-05-09 16:15:15.393,4,1.17,1.24,2.15,-61.830799999999996,6.604599999999998,27.1952,175,75
2026-05-09 16:15:15.404,4,1.29,1.07,2.04,-49.4508,35.2046,19.6952,175,75
2026-05-09 16:15:15.447,4,1.33,0.47,2.04,10.2392,86.9746,-18.9548,175,75
2026-05-09 16:15:15.447,4,1.0,0.41,2.2,28.3492,65.9946,-34.504799999999996,175,75
2026-05-09 16:15:15.458,4,0.7,0.6,2.3,27.3792,28.6246,-54.0848,175,75
2026-05-09 16:15:15.472,4,0.61,0.89,2.22,16.5792,-15.8254,-64.9948,175,75
2026-05-09 16:15:15.480,4,0.6,1.04,2.03,10.9692,-62.2954,-67.19479999999999,175,75
2026-05-09 16:15:15.491,4,0.56,1.12,1.93,5.4892,-80.8954,-64.20479999999999,175,75
2026-05-09 16:15:15.514,4,0.77,1.27,1.88,-44.940799999999996,-71.0154,-62.5548,175,75
2026-05-09 16:15:15.537,4,0.79,1.12,1.77,-76.7108,-110.7654,-68.6548,175,75
2026-05-09 16:15:15.549,4,0.78,1.06,1.55,-83.66080000000001,-129.0654,-62.6148,175,75
2026-05-09 16:15:15.559,4,0.75,1.05,1.4,-84.0908,-127.2354,-52.9848,175,75
2026-05-09 16:15:15.570,4,0.69,1.09,1.29,-83.9608,-92.7154,-36.7048,175,75
2026-05-09 16:15:15.593,4,0.71,1.17,1.43,-96.2808,-19.3654,-14.2048,175,75
2026-05-09 16:15:15.617,4,0.67,1.19,1.62,-109.5708,-21.9254,-7.864800000000001,175,75
2026-05-09 16:15:15.640,4,0.5,1.13,1.54,-104.88080000000001,-56.3154,-10.7848,175,75
