Time,ID,Ax,Ay,Az,Gx,Gy,Gz,Height,Weight
2026-05-09 15:09:01.141,4,0.6,-0.93,1.15,-281.09839999999997,106.57339999999999,-65.4066,175,75
2026-05-09 15:09:01.164,4,0.53,-0.93,1.25,-292.8684,130.65339999999998,-92.72659999999999,175,75
2026-05-09 15:09:01.175,4,0.58,-0.95,1.32,-294.4584,141.2634,-111.0166,175,75
2026-05-09 15:09:01.192,4,0.63,-1.11,1.36,-303.1184,108.7034,-153.75660000000002,175,75
2026-05-09 15:09:01.226,4,0.4,-1.26,1.05,-320.97839999999997,148.7034,-163.2066,175,75
2026-05-09 15:09:01.226,4,0.43,-1.43,1.04,-321.7784,174.7434,-162.1166,175,75
2026-05-09 15:09:01.240,4,0.49,-1.62,1.1,-328.66839999999996,198.27339999999998,-166.50660000000002,175,75
2026-05-09 15:09:01.252,4,0.53,-1.77,1.21,-341.5884,206.7534,-182.9066,175,75
2026-05-09 15:09:01.252,4,0.53,-1.83,1.32,-354.5184,201.02339999999998,-205.8366,175,75
2026-05-09 15:09:01.273,4,0.45,-1.73,1.43,-371.09839999999997,189.1934,-237.5966,175,75
2026-05-09 15:09:01.273,4,0.4,-1.58,1.47,-379.8884,181.14339999999999,-250.2266,175,75
2026-05-09 15:09:01.288,4,0.37,-1.46,1.45,-382.5084,176.08339999999998,-255.7066,175,75
2026-05-09 15:09:01.298,4,0.38,-1.38,1.38,-377.7484,170.59339999999997,-260.5866,175,75
2026-05-09 15:09:01.320,4,0.34,-1.23,1.35,-356.9584,166.8734,-260.6466,175,75
2026-05-09 15:09:01.334,4,0.28,-1.09,1.41,-346.4684,174.1934,-259.6766,175,75
2026-05-09 15:09:01.344,4,0.22,-0.85,1.54,-332.1384,193.15339999999998,-256.7466,175,75
2026-05-09 15:09:01.355,4,0.15,-0.63,1.62,-319.1484,208.27339999999998,-253.0266,175,75
2026-05-09 15:09:01.366,4,0.08,-0.44,1.67,-307.0784,221.8734,-250.8366,175,75
2026-05-09 15:09:01.377,4,0.04,-0.27,1.73,-289.6984,238.15339999999998,-249.42660000000004,175,75
2026-05-09 15:09:01.381,4,0.0,-0.15,1.76,-276.8984,239.7434,-246.38660000000002,175,75
2026-05-09 15:09:01.394,4,-0.08,-0.06,1.78,-260.6184,230.41340000000002,-242.11660000000003,175,75
2026-05-09 15:09:01.420,4,-0.23,0.05,1.85,-233.0584,185.96339999999998,-236.74660000000003,175,75
2026-05-09 15:09:01.438,4,-0.32,0.13,1.92,-225.6784,153.21339999999998,-231.92660000000004,175,75
2026-05-09 15:09:01.444,4,-0.42,0.2,1.99,-218.1184,123.5234,-229.06660000000002,175,75
2026-05-09 15:09:01.470,4,-0.6,0.39,2.14,-197.5084,64.68339999999999,-217.53660000000002,175,75
2026-05-09 15:09:01.483,4,-0.68,0.46,2.13,-193.23839999999996,38.7634,-211.56660000000002,175,75
2026-05-09 15:09:01.493,4,-0.73,0.53,2.08,-183.90839999999997,-21.596600000000002,-203.0266,175,75
2026-05-09 15:09:01.510,4,-0.82,0.61,2.0,-179.08839999999998,-57.1466,-185.8966,175,75
2026-05-09 15:09:01.527,4,-1.11,0.82,1.87,-152.3884,-40.3866,-143.69660000000002,175,75
2026-05-09 15:09:01.546,4,-1.05,0.99,1.93,-105.6184,36.6934,-98.33659999999999,175,75
2026-05-09 15:09:01.558,4,-0.97,1.08,2.07,-75.06840000000001,50.413399999999996,-68.2066,175,75
2026-05-09 15:09:01.575,4,-0.97,1.16,2.22,-40.30839999999999,31.3234,-40.52659999999999,175,75
2026-05-09 15:09:01.587,4,-0.97,1.2,2.36,-7.508399999999995,-7.396600000000003,-20.646599999999996,175,75
2026-05-09 15:09:01.603,4,-0.94,1.19,2.47,45.3616,-177.57659999999998,13.193400000000002,175,75
2026-05-09 15:09:01.613,4,-0.94,1.18,2.35,59.5016,-257.0866,25.933400000000002,175,75
2026-05-09 15:09:01.635,4,-0.98,1.19,2.1,80.9716,-322.51660000000004,42.153400000000005,175,75
2026-05-09 15:09:01.646,4,-1.0,1.23,1.83,109.7516,-351.7266,64.2934,175,75
2026-05-09 15:09:01.646,4,-0.95,1.28,1.66,131.1516,-354.3466,83.13340000000001,175,75
2026-05-09 15:09:01.669,4,-0.89,1.31,1.49,158.47160000000002,-343.6766,113.2534,175,75
2026-05-09 15:09:01.669,4,-0.87,1.28,1.36,186.4616,-319.52660000000003,149.4734,175,75
2026-05-09 15:09:01.680,4,-0.83,1.14,1.26,225.1116,-267.0866,204.2234,175,75
2026-05-09 15:09:01.693,4,-0.8,0.91,1.24,255.97160000000002,-216.41660000000002,253.3734,175,75
2026-05-09 15:09:01.704,4,-0.77,0.69,1.24,277.9816,-176.0566,293.3734,175,75
2026-05-09 15:09:01.727,4,-0.6,-0.05,1.46,337.4316,-66.6666,408.7434,175,75
2026-05-09 15:09:01.737,4,-0.58,-0.42,1.62,357.9816,-45.256600000000006,457.33340000000004,175,75
2026-05-09 15:09:01.747,4,-0.62,-0.75,1.76,372.0016,-38.2466,502.70340000000004,175,75
2026-05-09 15:09:01.760,4,-0.74,-1.19,1.94,382.5516,-24.166600000000003,563.0734,175,75
2026-05-09 15:09:01.772,4,-0.79,-1.59,2.1,395.5416,-15.076600000000003,613.1934,175,75
2026-05-09 15:09:01.776,4,-1.02,-2.06,2.49,420.8516,-25.9966,660.8134,175,75
2026-05-09 15:09:01.794,4,-1.3,-2.56,2.94,420.4816,-31.596600000000002,707.2134,175,75
2026-05-09 15:09:01.810,4,-1.4,-3.11,3.28,373.83160000000004,-35.6866,749.8334,175,75
2026-05-09 15:09:01.810,4,-1.46,-3.5,3.41,327.3116,-73.9766,764.9634,175,75
2026-05-09 15:09:01.844,4,-2.09,-4.76,3.45,318.7716,-245.01659999999998,831.7934,175,75
2026-05-09 15:09:01.854,4,-2.48,-5.69,3.41,378.77160000000003,-377.39660000000003,876.4834000000001,175,75
2026-05-09 15:09:01.867,4,-3.4,-6.58,3.33,465.6016,-521.7866,841.7234,175,75
2026-05-09 15:09:01.877,4,-4.2,-7.65,3.17,489.9916,-535.1366,699.4734,175,75
2026-05-09 15:09:01.902,4,-3.3,-6.89,1.98,265.1116,-370.1966,409.96340000000004,175,75
2026-05-09 15:09:01.902,4,-2.68,-5.43,1.1,170.97160000000002,-416.9066,290.26340000000005,175,75
2026-05-09 15:09:01.917,4,-2.53,-4.45,0.39,163.29160000000002,-386.9066,230.5734,175,75
2026-05-09 15:09:01.927,4,-2.15,-3.48,-0.29,211.40160000000003,-234.34660000000002,186.36339999999998,175,75
2026-05-09 15:09:01.951,4,-1.0,-3.12,-0.12,351.21160000000003,1.443399999999997,147.7634,175,75
2026-05-09 15:09:01.958,4,-0.68,-2.95,0.41,396.9416,17.1134,134.5934,175,75
2026-05-09 15:09:01.965,4,-0.64,-2.71,0.9,420.2416,-19.2266,103.55340000000001,175,75
2026-05-09 15:09:01.978,4,-0.58,-2.53,1.12,409.26160000000004,-58.006600000000006,72.8234,175,75
2026-05-09 15:09:01.988,4,-0.42,-2.23,1.18,370.2416,-112.5166,22.7634,175,75
2026-05-09 15:09:01.998,4,-0.23,-1.91,1.07,336.0316,-181.84660000000002,-21.506599999999995,175,75
2026-05-09 15:09:02.006,4,0.08,-1.43,0.85,313.7116,-281.9666,-62.236599999999996,175,75
2026-05-09 15:09:02.029,4,0.84,-0.25,0.77,277.0016,-414.95660000000004,98.2534,175,75
2026-05-09 15:09:02.040,4,-0.0,0.16,0.14,282.0716,-400.5666,126.3634,175,75
2026-05-09 15:09:02.052,4,-0.32,0.23,-0.21,298.5316,-343.1266,65.2034,175,75
2026-05-09 15:09:02.052,4,-0.07,0.17,-0.3,293.8316,-236.1766,61.663399999999996,175,75
2026-05-09 15:09:02.078,4,0.37,0.21,-0.29,261.9416,-164.09660000000002,75.99340000000001,175,75
2026-05-09 15:09:02.094,4,0.28,0.18,-0.81,228.35160000000002,-344.0366,-6.506599999999995,175,75
2026-05-09 15:09:02.113,4,-0.03,0.23,-1.29,183.9016,-394.52660000000003,-45.52659999999999,175,75
2026-05-09 15:09:02.125,4,-0.46,0.51,-1.67,111.9416,-337.88660000000004,-42.3566,175,75
2026-05-09 15:09:02.138,4,-0.33,0.81,-1.93,64.2616,-188.97660000000002,-24.1266,175,75
2026-05-09 15:09:02.144,4,-0.35,1.05,-1.72,31.3316,-86.9666,43.2534,175,75
2026-05-09 15:09:02.153,4,-0.18,0.89,-1.82,24.571600000000004,-8.186600000000002,11.723400000000002,175,75
2026-05-09 15:09:02.174,4,0.31,0.95,-1.28,-27.388400000000004,-41.6666,41.3634,175,75
2026-05-09 15:09:02.184,4,0.53,0.91,-1.21,-61.83839999999999,-51.116600000000005,-1.2565999999999988,175,75
2026-05-09 15:09:02.195,4,0.05,0.92,-1.0,-77.9284,-13.556600000000003,8.553400000000003,175,75
2026-05-09 15:09:02.215,4,-1.8,0.88,-0.43,-115.8584,66.9934,14.043400000000002,175,75
2026-05-09 15:09:02.227,4,2.79,0.32,-0.5,-119.8884,235.90339999999998,25.6934,175,75
2026-05-09 15:09:02.237,4,1.69,0.26,0.22,-129.8184,145.47339999999997,11.543400000000002,175,75
2026-05-09 15:09:02.250,4,1.07,0.13,0.69,-134.7584,-19.836600000000004,-33.336600000000004,175,75
2026-05-09 15:09:02.260,4,1.12,0.18,0.92,-168.90839999999997,-64.8366,-61.80659999999999,175,75
2026-05-09 15:09:02.285,4,0.97,-0.83,0.48,-234.5784,-135.9966,-53.94659999999999,175,75
2026-05-09 15:09:02.299,4,1.23,-1.2,0.52,-272.0184,-87.3966,-35.4666,175,75
2026-05-09 15:09:02.311,4,1.32,-1.45,0.44,-300.79839999999996,-22.026600000000002,-44.36659999999999,175,75
2026-05-09 15:09:02.322,4,1.86,-1.77,0.4,-320.91839999999996,86.2034,-81.3866,175,75
2026-05-09 15:09:02.345,4,1.99,-2.17,0.5,-323.35839999999996,236.02339999999998,-71.7466,175,75
2026-05-09 15:09:02.355,4,1.71,-2.49,0.8,-314.4584,380.6534,-64.55659999999999,175,75
2026-05-09 15:09:02.367,4,2.3,-2.89,2.71,-285.0084,443.1534,-146.8066,175,75
2026-05-09 15:09:02.378,4,1.46,-3.19,3.47,-233.53839999999997,160.77339999999998,-249.67660000000004,175,75
2026-05-09 15:09:02.389,4,1.07,-2.98,3.47,-252.6284,219.0134,-254.55660000000003,175,75
2026-05-09 15:09:02.400,4,1.01,-2.9,3.31,-278.35839999999996,176.8734,-328.1466,175,75
2026-05-09 15:09:02.412,4,1.08,-2.83,3.1,-280.1284,178.33339999999998,-346.6266,175,75
2026-05-09 15:09:02.412,4,1.1,-2.96,3.06,-260.97839999999997,163.58339999999998,-362.59659999999997,175,75
2026-05-09 15:09:02.426,4,0.91,-3.15,3.09,-256.22839999999997,153.27339999999998,-383.7566,175,75
2026-05-09 15:09:02.435,4,0.54,-3.13,3.09,-270.79839999999996,173.15339999999998,-416.9966,175,75
2026-05-09 15:09:02.457,4,-0.0,-2.62,3.21,-248.1184,209.3734,-451.5666,175,75
2026-05-09 15:09:02.480,4,0.06,-2.37,3.08,-245.0684,213.8834,-450.16659999999996,175,75
2026-05-09 15:09:02.480,4,0.03,-2.4,2.86,-249.9484,232.79340000000002,-447.29659999999996,175,75
2026-05-09 15:09:02.491,4,-0.09,-2.55,2.67,-249.45839999999998,241.2034,-446.5666,175,75
2026-05-09 15:09:02.505,4,-0.27,-2.64,2.5,-242.3884,222.72339999999997,-446.1966,175,75
2026-05-09 15:09:02.515,4,-0.46,-2.61,2.41,-225.0684,190.53339999999997,-447.0566,175,75
2026-05-09 15:09:02.516,4,-0.67,-2.46,2.42,-213.53839999999997,169.5534,-456.3866,175,75
2026-05-09 15:09:02.540,4,-0.47,-1.66,2.39,-244.9484,171.9334,-482.72659999999996,175,75
2026-05-09 15:09:02.551,4,-0.39,-1.27,2.25,-241.77839999999998,160.83339999999998,-460.9566,175,75
2026-05-09 15:09:02.562,4,-0.53,-1.05,2.11,-218.1184,133.09339999999997,-438.1466,175,75
2026-05-09 15:09:02.586,4,-0.86,-0.82,2.02,-188.47839999999997,104.7434,-423.5166,175,75
2026-05-09 15:09:02.599,4,-0.98,-0.58,2.08,-180.91840000000002,82.4234,-412.0566,175,75
2026-05-09 15:09:02.609,4,-1.03,-0.4,2.09,-174.02839999999998,56.6934,-401.5066,175,75
2026-05-09 15:09:02.620,4,-1.05,-0.24,2.04,-170.1884,32.663399999999996,-393.5766,175,75
2026-05-09 15:09:02.656,4,-0.98,-0.14,1.73,-168.1184,19.803399999999996,-368.5166,175,75
2026-05-09 15:09:02.656,4,-1.17,-0.12,1.6,-160.1884,18.093399999999995,-344.1266,175,75
2026-05-09 15:09:02.668,4,-1.36,-0.04,1.56,-144.8184,35.9034,-325.34659999999997,175,75
2026-05-09 15:09:02.681,4,-1.45,0.03,1.57,-130.3684,54.2534,-312.41659999999996,175,75
2026-05-09 15:09:02.696,4,-1.39,0.27,1.58,-119.3984,33.4634,-286.0166,175,75
2026-05-09 15:09:02.731,4,-1.41,0.55,1.59,-94.4584,19.6134,-244.00660000000002,175,75
2026-05-09 15:09:02.731,4,-1.42,0.66,1.65,-75.4284,25.1034,-217.41660000000002,175,75
2026-05-09 15:09:02.740,4,-1.46,0.77,1.73,-55.7384,23.8234,-190.3466,175,75
2026-05-09 15:09:02.762,4,-1.45,0.84,1.78,-33.2384,14.9234,-167.1166,175,75
2026-05-09 15:09:02.774,4,-1.38,0.89,1.8,-9.948399999999992,-8.676600000000002,-147.41660000000002,175,75
2026-05-09 15:09:02.780,4,-1.32,0.93,1.78,11.581600000000002,-42.39660000000001,-124.24659999999999,175,75
2026-05-09 15:09:02.801,4,-1.34,0.97,1.76,29.0816,-59.0966,-100.2866,175,75
2026-05-09 15:09:02.801,4,-1.42,1.03,1.74,48.41160000000001,-58.616600000000005,-76.3166,175,75
2026-05-09 15:09:02.825,4,-1.42,1.16,1.73,88.9616,-20.1366,-24.9766,175,75
2026-05-09 15:09:02.837,4,-1.31,1.2,1.75,108.6516,5.163399999999996,14.593400000000003,175,75
2026-05-09 15:09:02.843,4,-1.3,1.2,1.8,125.7216,20.163399999999996,49.71340000000001,175,75
2026-05-09 15:09:02.858,4,-1.3,1.16,1.9,147.9216,29.553399999999996,87.9434,175,75
2026-05-09 15:09:02.870,4,-1.26,1.18,2.0,161.4616,18.523399999999995,114.77340000000001,175,75
2026-05-09 15:09:02.874,4,-1.25,1.24,2.11,171.3316,0.9633999999999965,142.7634,175,75
2026-05-09 15:09:02.896,4,-1.16,1.27,2.2,182.6116,-14.776600000000002,180.5734,175,75
2026-05-09 15:09:02.919,4,-0.86,1.08,2.26,195.4216,-87.5166,256.4234,175,75
2026-05-09 15:09:02.930,4,-0.85,0.93,2.2,201.70159999999998,-147.51659999999998,287.58340000000004,175,75
2026-05-09 15:09:02.943,4,-0.97,0.61,1.92,239.08159999999998,-225.3866,355.5734,175,75
2026-05-09 15:09:02.965,4,-0.91,0.4,1.82,260.0516,-222.08659999999998,399.77340000000004,175,75
2026-05-09 15:09:02.973,4,-0.75,0.15,1.75,279.4416,-211.90660000000003,455.02340000000004,175,75
2026-05-09 15:09:02.986,4,-0.7,-0.17,1.76,302.0016,-230.8066,525.6934,175,75
2026-05-09 15:09:02.997,4,-0.91,-0.66,1.82,341.15160000000003,-233.2466,613.0134,175,75
2026-05-09 15:09:03.008,4,-1.12,-1.48,1.95,387.1316,-206.96660000000003,691.3034,175,75
2026-05-09 15:09:03.019,4,-1.24,-2.13,2.12,424.14160000000004,-210.1366,748.6134000000001,175,75
2026-05-09 15:09:03.037,4,-1.72,-3.58,2.6,497.7416,-296.7866,897.3334,175,75
2026-05-09 15:09:03.048,4,-2.2,-3.94,2.77,468.96160000000003,-292.45660000000004,977.8834,175,75
2026-05-09 15:09:03.060,4,-2.82,-4.33,2.93,431.8216,-292.14660000000003,1026.2434,175,75
2026-05-09 15:09:03.072,4,-3.43,-5.01,3.03,420.9116,-312.14660000000003,1024.5334,175,75
2026-05-09 15:09:03.085,4,-4.2,-6.34,3.03,430.3616,-365.01660000000004,999.9634,175,75
2026-05-09 15:09:03.092,4,-4.96,-7.64,2.88,445.1816,-458.0666,949.7134,175,75
2026-05-09 15:09:03.107,4,-5.39,-8.42,2.6,430.8516,-495.9966,837.5234,175,75
2026-05-09 15:09:03.117,4,-5.03,-8.65,2.22,370.0516,-429.3466,704.4134,175,75
2026-05-09 15:09:03.129,4,-4.01,-8.23,1.72,297.5516,-337.27660000000003,575.3234,175,75
2026-05-09 15:09:03.140,4,-2.61,-7.01,0.94,218.41160000000002,-210.1966,466.6634,175,75
2026-05-09 15:09:03.150,4,-1.46,-5.05,0.27,173.9016,-197.51659999999998,376.3034,175,75
2026-05-09 15:09:03.173,4,-1.37,-3.26,0.19,277.8616,-162.33659999999998,310.20340000000004,175,75
2026-05-09 15:09:03.184,4,-1.03,-3.29,0.47,319.3216,-129.03660000000002,291.8534,175,75
2026-05-09 15:09:03.195,4,-0.62,-3.55,0.94,332.7416,-136.41660000000002,253.9234,175,75
2026-05-09 15:09:03.195,4,-0.43,-3.63,1.25,309.5716,-176.90660000000003,204.96339999999998,175,75
2026-05-09 15:09:03.217,4,-0.23,-3.21,1.35,215.79160000000002,-263.7966,115.99340000000001,175,75
2026-05-09 15:09:03.227,4,-0.22,-2.71,1.12,175.48160000000001,-331.1166,74.0434,175,75
2026-05-09 15:09:03.241,4,-0.24,-2.25,0.83,162.2516,-387.45660000000004,38.683400000000006,175,75
2026-05-09 15:09:03.252,4,-0.15,-1.76,0.46,181.5216,-460.6866,-13.6966,175,75
2026-05-09 15:09:03.263,4,-0.15,-1.34,0.15,232.5516,-536.7866,-78.5166,175,75
2026-05-09 15:09:03.278,4,-0.18,-1.09,-0.09,278.9616,-573.8566000000001,-127.2966,175,75
2026-05-09 15:09:03.287,4,0.46,-0.62,-0.13,315.4816,-621.6666,-144.91660000000002,175,75
2026-05-09 15:09:03.298,4,0.26,0.27,-0.2,264.6916,-671.4166,39.4134,175,75
2026-05-09 15:09:03.309,4,-0.81,0.62,-1.02,258.7116,-575.6266,7.583400000000001,175,75
2026-05-09 15:09:03.321,4,-0.97,0.48,-1.59,269.2016,-437.6966,-53.5766,175,75
2026-05-09 15:09:03.345,4,-0.94,0.43,-1.74,251.27159999999998,-118.3666,60.513400000000004,175,75
2026-05-09 15:09:03.353,4,-0.74,0.46,-1.53,193.9016,-57.8866,68.0134,175,75
2026-05-09 15:09:03.367,4,-0.19,0.57,-1.0,97.4316,-65.2566,76.60340000000001,175,75
2026-05-09 15:09:03.392,4,0.4,1.11,-0.62,8.351600000000005,-222.08659999999998,35.8134,175,75
2026-05-09 15:09:03.405,4,0.43,1.34,-0.78,2.0015999999999963,-290.6866,33.2534,175,75
2026-05-09 15:09:03.419,4,-0.32,1.31,-1.01,-4.638400000000004,-289.0366,23.3134,175,75
2026-05-09 15:09:03.428,4,-0.87,1.19,-1.09,-28.788399999999996,-128.2466,55.8134,175,75
2026-05-09 15:09:03.436,4,-1.36,1.05,-0.9,-49.69839999999999,44.6834,75.7534,175,75
2026-05-09 15:09:03.447,4,0.63,0.7,-1.12,-65.4284,197.54340000000002,63.1934,175,75
2026-05-09 15:09:03.460,4,1.33,0.22,-0.39,-99.81840000000001,102.3634,104.5934,175,75
2026-05-09 15:09:03.478,4,0.86,0.28,0.73,-119.5784,20.773399999999995,48.373400000000004,175,75
2026-05-09 15:09:03.491,4,0.79,0.32,0.78,-143.41840000000002,-67.7566,29.5334,175,75
2026-05-09 15:09:03.502,4,0.95,-0.01,0.66,-159.8884,-136.53660000000002,18.3134,175,75
2026-05-09 15:09:03.514,4,0.73,-0.27,0.44,-181.83839999999998,-145.6866,36.3034,175,75
2026-05-09 15:09:03.527,4,0.68,-0.3,0.34,-204.27839999999998,-95.1366,41.4234,175,75
2026-05-09 15:09:03.537,4,0.94,-0.31,0.34,-226.22839999999997,-14.286600000000004,46.6634,175,75
2026-05-09 15:09:03.561,4,1.31,-0.75,0.5,-228.35839999999996,73.0334,55.263400000000004,175,75
2026-05-09 15:09:03.571,4,1.18,-1.11,0.56,-218.41839999999996,83.40339999999999,51.9134,175,75
2026-05-09 15:09:03.571,4,1.05,-1.34,0.64,-220.3684,104.6134,48.07340000000001,175,75
2026-05-09 15:09:03.584,4,0.96,-1.44,0.83,-233.1184,127.2434,40.2034,175,75
2026-05-09 15:09:03.594,4,1.03,-1.39,1.16,-253.23839999999996,117.1134,21.483400000000003,175,75
2026-05-09 15:09:03.605,4,1.18,-1.29,1.53,-266.34839999999997,36.633399999999995,0.6934000000000005,175,75
2026-05-09 15:09:03.613,4,1.17,-1.24,1.69,-267.8084,-24.406600000000005,0.7534000000000027,175,75
2026-05-09 15:09:03.639,4,1.02,-1.36,1.27,-285.91839999999996,-18.426600000000004,17.703400000000002,175,75
2026-05-09 15:09:03.650,4,1.12,-1.3,1.14,-287.5684,29.553399999999996,5.633400000000002,175,75
2026-05-09 15:09:03.665,4,1.3,-0.97,1.28,-273.78839999999997,81.7534,2.2134000000000036,175,75
2026-05-09 15:09:03.677,4,1.34,-1.04,1.26,-267.1384,122.0534,-5.896599999999996,175,75
2026-05-09 15:09:03.689,4,1.4,-1.23,1.26,-268.35839999999996,177.85340000000002,-23.9466,175,75
2026-05-09 15:09:03.700,4,1.35,-1.34,1.34,-269.3384,217.66340000000002,-44.066599999999994,175,75
2026-05-09 15:09:03.709,4,1.3,-1.45,1.55,-272.9984,280.7134,-74.61659999999999,175,75
2026-05-09 15:09:03.728,4,1.3,-1.49,1.78,-278.66839999999996,332.79339999999996,-113.4566,175,75
2026-05-09 15:09:03.739,4,1.34,-1.49,2.13,-280.97839999999997,358.7634,-151.50660000000002,175,75
2026-05-09 15:09:03.749,4,1.27,-1.49,2.53,-279.0884,352.54339999999996,-194.7366,175,75
2026-05-09 15:09:03.760,4,1.05,-1.59,2.64,-279.4584,339.4934,-242.5366,175,75
2026-05-09 15:09:03.771,4,0.92,-1.72,2.46,-280.2484,336.3834,-290.7066,175,75
2026-05-09 15:09:03.782,4,0.75,-1.83,2.16,-286.34839999999997,309.1334,-317.0566,175,75
2026-05-09 15:09:03.782,4,0.52,-1.98,1.87,-292.2584,259.98339999999996,-319.97659999999996,175,75
2026-05-09 15:09:03.798,4,0.34,-2.31,1.78,-270.5584,251.3834,-313.9466,175,75
2026-05-09 15:09:03.812,4,0.26,-2.6,1.99,-233.35839999999996,236.6334,-329.97659999999996,175,75
2026-05-09 15:09:03.837,4,-0.22,-2.27,2.28,-236.64839999999998,275.10339999999997,-404.0066,175,75
2026-05-09 15:09:03.847,4,-0.07,-1.84,2.39,-251.89839999999998,300.47339999999997,-419.0666,175,75
2026-05-09 15:09:03.854,4,0.02,-1.41,2.33,-244.6984,296.5034,-401.0166,175,75
2026-05-09 15:09:03.867,4,-0.13,-1.1,2.16,-215.73839999999996,298.8834,-379.1266,175,75
2026-05-09 15:09:03.881,4,-0.35,-0.52,2.3,-139.8184,251.2634,-363.0266,175,75
2026-05-09 15:09:03.897,4,-0.45,-0.3,2.41,-135.0684,217.0534,-356.5066,175,75
2026-05-09 15:09:03.912,4,-0.55,-0.06,2.42,-141.09839999999997,198.27339999999998,-351.0766,175,75
2026-05-09 15:09:03.924,4,-0.56,0.23,2.32,-143.0584,170.59339999999997,-337.29659999999996,175,75
2026-05-09 15:09:03.944,4,-0.51,0.41,2.11,-129.8184,141.5134,-320.5266,175,75
2026-05-09 15:09:03.954,4,-0.56,0.49,1.97,-115.8584,124.68339999999999,-303.1466,175,75
2026-05-09 15:09:03.967,4,-0.8,0.76,1.89,-90.12839999999998,138.27339999999998,-262.1766,175,75
2026-05-09 15:09:03.983,4,-0.93,0.95,1.93,-72.3884,116.0234,-224.85660000000001,175,75
2026-05-09 15:09:04.004,4,-1.25,1.1,1.78,-71.46839999999999,37.8534,-207.78660000000002,175,75
2026-05-09 15:09:04.019,4,-1.41,1.25,1.73,-69.1484,18.333399999999997,-194.1866,175,75
2026-05-09 15:09:04.029,4,-1.52,1.36,1.69,-61.168400000000005,16.813399999999994,-180.7766,175,75
2026-05-09 15:09:04.045,4,-1.6,1.4,1.64,-49.02839999999999,18.273399999999995,-167.41660000000002,175,75
2026-05-09 15:09:04.058,4,-1.67,1.38,1.58,-33.9084,0.22339999999999804,-149.6166,175,75
2026-05-09 15:09:04.058,4,-1.8,1.34,1.57,-24.578400000000002,-28.006600000000002,-133.4566,175,75
2026-05-09 15:09:04.070,4,-1.95,1.28,1.53,-18.478399999999993,-65.01660000000001,-117.5366,175,75
2026-05-09 15:09:04.091,4,-2.14,1.26,1.5,-18.788399999999996,-96.5366,-104.0066,175,75
2026-05-09 15:09:04.102,4,-2.28,1.36,1.53,-2.078400000000002,-101.9066,-71.3866,175,75
2026-05-09 15:09:04.124,4,-2.21,1.4,1.53,16.821600000000004,-110.6266,-50.346599999999995,175,75
2026-05-09 15:09:04.124,4,-2.07,1.39,1.52,37.0116,-138.7966,-30.036599999999996,175,75
2026-05-09 15:09:04.134,4,-1.97,1.34,1.52,60.4816,-191.2966,-4.1865999999999985,175,75
2026-05-09 15:09:04.145,4,-1.91,1.25,1.45,82.2516,-247.6366,25.9934,175,75
2026-05-09 15:09:04.158,4,-1.87,1.19,1.33,97.1916,-274.0966,48.9234,175,75
2026-05-09 15:09:04.163,4,-1.77,1.06,1.15,117.6816,-280.3166,79.71340000000001,175,75
2026-05-09 15:09:04.174,4,-1.64,0.96,1.01,134.8116,-268.3666,110.99340000000001,175,75
2026-05-09 15:09:04.185,4,-1.53,0.87,0.93,149.8716,-245.1966,149.0434,175,75
2026-05-09 15:09:04.198,4,-1.43,0.8,0.9,162.9216,-210.1366,191.7934,175,75
2026-05-09 15:09:04.204,4,-1.33,0.74,0.92,173.10160000000002,-176.59660000000002,234.1634,175,75
2026-05-09 15:09:04.220,4,-1.21,0.7,0.97,184.0816,-152.45659999999998,286.1834,175,75
2026-05-09 15:09:04.220,4,-1.1,0.62,1.03,201.09160000000003,-141.9666,338.9834,175,75
2026-05-09 15:09:04.237,4,-0.97,0.42,1.07,231.7616,-131.9066,410.9934,175,75
2026-05-09 15:09:04.250,4,-0.79,-0.01,1.09,269.0216,-103.1266,490.02340000000004,175,75
2026-05-09 15:09:04.265,4,-0.68,-0.62,1.16,301.9416,-54.7066,570.5134,175,75
2026-05-09 15:09:04.265,4,-0.66,-1.19,1.26,315.6016,-24.836600000000004,640.5134,175,75
2026-05-09 15:09:04.297,4,-1.03,-2.4,2.21,293.1016,-88.2466,883.1934,175,75
2026-05-09 15:09:04.309,4,-1.73,-3.34,2.94,306.40160000000003,-262.3966,949.5934,175,75
2026-05-09 15:09:04.320,4,-2.65,-4.28,3.14,309.6316,-306.7866,937.0934,175,75
2026-05-09 15:09:04.332,4,-3.16,-5.25,3.03,246.52159999999998,-234.77660000000003,874.0434,175,75
2026-05-09 15:09:04.343,4,-2.88,-5.9,2.62,146.64159999999998,-164.34660000000002,740.3234,175,75
2026-05-09 15:09:04.343,4,-2.14,-6.36,2.16,150.3616,-170.9866,672.6434,175,75
2026-05-09 15:09:04.354,4,-1.5,-6.89,1.88,239.6316,-253.4266,710.9934000000001,175,75
2026-05-09 15:09:04.368,4,-1.62,-6.91,1.99,376.76160000000004,-380.01660000000004,816.2434000000001,175,75
2026-05-09 15:09:04.380,4,-2.93,-6.43,2.63,482.9816,-451.4166,843.3734000000001,175,75
2026-05-09 15:09:04.391,4,-3.59,-6.46,3.08,483.77160000000003,-482.51660000000004,778.0134,175,75
2026-05-09 15:09:04.413,4,-3.32,-6.66,2.39,238.96159999999998,-504.64660000000003,482.46340000000004,175,75
2026-05-09 15:09:04.423,4,-2.55,-5.43,1.17,119.3816,-542.4566,340.4434,175,75
2026-05-09 15:09:04.435,4,-2.66,-4.6,0.46,128.6516,-557.8166,266.4834,175,75
2026-05-09 15:09:04.460,4,-1.98,-4.39,-0.09,321.2116,-326.4166,190.6934,175,75
2026-05-09 15:09:04.471,4,-1.18,-4.38,0.38,353.90160000000003,-290.38660000000004,143.9234,175,75
2026-05-09 15:09:04.480,4,-0.71,-4.18,0.83,306.4616,-359.77660000000003,117.4034,175,75
2026-05-09 15:09:04.494,4,-0.93,-3.71,0.77,241.27159999999998,-443.1866,121.7934,175,75
2026-05-09 15:09:04.507,4,-1.37,-3.18,0.22,191.64159999999998,-480.38660000000004,109.6534,175,75
2026-05-09 15:09:04.522,4,-1.51,-2.81,-0.54,197.7416,-450.8066,49.1634,175,75
2026-05-09 15:09:04.535,4,-1.35,-2.23,-1.28,224.7516,-397.51660000000004,-50.22659999999999,175,75
2026-05-09 15:09:04.546,4,-1.23,-1.74,-1.66,234.2616,-385.8066,-151.6266,175,75
2026-05-09 15:09:04.552,4,-1.53,-1.07,-1.96,258.5316,-367.8166,-314.73659999999995,175,75
2026-05-09 15:09:04.568,4,-1.55,-0.56,-2.12,317.3716,-327.08660000000003,-431.2566,175,75
2026-05-09 15:09:04.579,4,-1.33,-0.05,-2.06,372.1916,-339.64660000000003,-473.1466,175,75
2026-05-09 15:09:04.584,4,2.46,2.09,-0.4,290.5416,-391.9066,-107.7866,175,75
2026-05-09 15:09:04.630,4,-1.21,0.85,-1.86,389.9916,-18.186600000000002,61.913399999999996,175,75
2026-05-09 15:09:04.643,4,-1.03,0.2,-1.53,182.4916,-55.446600000000004,82.46340000000001,175,75
2026-05-09 15:09:04.671,4,-0.64,1.3,-1.36,34.8716,-26.666600000000003,41.183400000000006,175,75
2026-05-09 15:09:04.671,4,0.06,1.82,-1.18,27.741600000000005,-89.70660000000001,89.10340000000001,175,75
2026-05-09 15:09:04.694,4,-0.4,1.84,-1.17,47.6116,-154.34660000000002,91.6634,175,75
2026-05-09 15:09:04.694,4,-0.3,1.38,-1.23,21.7016,-159.70659999999998,77.1534,175,75
2026-05-09 15:09:04.708,4,-0.06,1.05,-1.43,-48.9684,-86.2366,93.74340000000001,175,75
2026-05-09 15:09:04.718,4,-0.32,1.07,-1.29,-82.80839999999999,2.0533999999999963,104.10340000000001,175,75
2026-05-09 15:09:04.732,4,-0.14,1.08,-0.75,-99.02839999999999,149.0134,148.0034,175,75
2026-05-09 15:09:04.741,4,0.24,0.85,-0.45,-129.9484,207.91340000000002,151.3034,175,75
2026-05-09 15:09:04.757,4,0.5,0.46,-0.02,-154.6384,177.3634,153.9234,175,75
2026-05-09 15:09:04.776,4,0.13,0.05,0.17,-147.7484,337.97339999999997,90.38340000000001,175,75
2026-05-09 15:09:04.787,4,2.8,-0.72,0.43,-217.5684,316.3234,95.44340000000001,175,75
2026-05-09 15:09:04.792,4,1.45,-0.66,1.08,-214.8884,202.1134,84.7734,175,75
2026-05-09 15:09:04.819,4,1.77,-1.39,1.8,-219.14839999999998,215.16340000000002,3.3734,175,75
2026-05-09 15:09:04.830,4,1.75,-1.63,1.96,-265.0084,161.5134,14.223400000000002,175,75
2026-05-09 15:09:04.842,4,1.71,-1.62,2.29,-294.6984,203.03339999999997,-111.0766,175,75
2026-05-09 15:09:04.853,4,2.24,-1.33,2.34,-286.28839999999997,218.15339999999998,-111.5066,175,75
2026-05-09 15:09:04.883,4,2.01,-1.44,2.24,-236.58839999999998,243.52339999999998,-117.1766,175,75
2026-05-09 15:09:04.893,4,1.94,-1.88,2.4,-190.85839999999996,272.3034,-130.4666,175,75
2026-05-09 15:09:04.903,4,1.68,-2.63,3.06,-156.95839999999998,160.77339999999998,-214.1266,175,75
2026-05-09 15:09:04.924,4,1.46,-2.44,2.84,-196.09839999999997,134.1934,-291.9966,175,75
2026-05-09 15:09:04.934,4,1.45,-2.17,2.72,-204.33839999999998,162.79340000000002,-308.2066,175,75
2026-05-09 15:09:04.953,4,1.23,-2.23,2.64,-189.27839999999998,244.61339999999996,-323.5766,175,75
2026-05-09 15:09:04.962,4,1.05,-2.36,2.61,-171.40839999999997,263.8834,-340.8366,175,75
2026-05-09 15:09:04.973,4,0.82,-2.39,2.6,-137.4484,265.9034,-351.1366,175,75
2026-05-09 15:09:04.988,4,0.6,-2.39,2.73,-108.1184,226.8134,-363.5766,175,75
2026-05-09 15:09:04.998,4,0.4,-2.39,2.93,-106.9584,182.1134,-373.6966,175,75
2026-05-09 15:09:05.022,4,-0.05,-2.17,2.39,-148.90839999999997,99.1334,-429.5566,175,75
2026-05-09 15:09:05.033,4,-0.24,-1.94,2.11,-157.5084,71.3834,-427.41659999999996,175,75
2026-05-09 15:09:05.047,4,-0.37,-1.68,1.92,-159.39839999999998,50.413399999999996,-420.34659999999997,175,75
2026-05-09 15:09:05.059,4,-0.49,-1.42,1.7,-161.83839999999998,71.5034,-411.9266,175,75
2026-05-09 15:09:05.073,4,-0.46,-1.22,1.56,-167.0784,101.32339999999999,-401.3166,175,75
2026-05-09 15:09:05.089,4,-0.45,-0.99,1.49,-173.41840000000002,116.44340000000001,-377.78659999999996,175,75
2026-05-09 15:09:05.102,4,-0.6,-0.78,1.47,-171.64839999999998,127.4834,-350.5266,175,75
2026-05-09 15:09:05.102,4,-0.8,-0.61,1.53,-160.4284,131.9934,-329.0066,175,75
2026-05-09 15:09:05.115,4,-0.98,-0.41,1.68,-135.2484,117.3034,-313.6966,175,75
2026-05-09 15:09:05.127,4,-1.04,-0.22,1.76,-120.24839999999999,80.2234,-309.4266,175,75
2026-05-09 15:09:05.138,4,-0.98,-0.1,1.75,-124.4584,40.9034,-307.41659999999996,175,75
2026-05-09 15:09:05.150,4,-0.9,-0.01,1.66,-135.91840000000002,14.493399999999994,-299.91659999999996,175,75
2026-05-09 15:09:05.171,4,-0.86,0.12,1.45,-147.6884,-6.176600000000002,-282.29659999999996,175,75
2026-05-09 15:09:05.171,4,-0.89,0.2,1.3,-143.78840000000002,-1.5966000000000022,-271.2566,175,75
2026-05-09 15:09:05.197,4,-0.9,0.31,1.2,-134.39839999999998,51.5034,-247.9066,175,75
2026-05-09 15:09:05.210,4,-1.0,0.45,1.24,-127.0184,111.81339999999999,-213.81660000000002,175,75
2026-05-09 15:09:05.224,4,-0.95,0.48,1.29,-110.49839999999999,122.66340000000001,-211.9266,175,75
2026-05-09 15:09:05.239,4,-0.9,0.52,1.37,-93.84839999999998,107.4834,-210.3466,175,75
2026-05-09 15:09:05.249,4,-0.87,0.57,1.48,-75.49839999999999,71.8134,-205.6466,175,75
2026-05-09 15:09:05.263,4,-0.9,0.62,1.53,-61.83839999999999,39.313399999999994,-198.3366,175,75
2026-05-09 15:09:05.273,4,-0.91,0.66,1.54,-55.1884,17.243399999999994,-192.2966,175,75
2026-05-09 15:09:05.284,4,-0.9,0.69,1.51,-50.678399999999996,3.0333999999999968,-189.1866,175,75
2026-05-09 15:09:05.284,4,-0.9,0.75,1.48,-46.58839999999999,0.10339999999999705,-184.91660000000002,175,75
2026-05-09 15:09:05.317,4,-0.87,0.95,1.46,-36.4084,14.803399999999996,-166.44660000000002,175,75
2026-05-09 15:09:05.343,4,-0.94,1.17,1.54,-19.27839999999999,43.0334,-120.9566,175,75
2026-05-09 15:09:05.354,4,-0.98,1.21,1.64,-1.9583999999999975,75.2234,-89.1266,175,75
2026-05-09 15:09:05.365,4,-0.95,1.18,1.73,12.681600000000003,96.0234,-64.97659999999999,175,75
2026-05-09 15:09:05.377,4,-0.94,1.15,1.83,23.351600000000005,99.3134,-46.25659999999999,175,75
2026-05-09 15:09:05.377,4,-1.0,1.15,1.93,31.5216,95.1634,-27.536599999999996,175,75
2026-05-09 15:09:05.406,4,-1.17,1.18,2.16,48.2216,85.7134,21.543400000000002,175,75
2026-05-09 15:09:05.414,4,-1.24,1.28,2.27,56.27160000000001,70.29339999999999,48.683400000000006,175,75
2026-05-09 15:09:05.440,4,-1.18,1.65,2.47,98.2916,-16.236600000000003,142.8234,175,75
2026-05-09 15:09:05.451,4,-0.91,1.51,2.46,119.9316,-44.0966,201.4234,175,75
2026-05-09 15:09:05.462,4,-0.74,1.1,2.37,137.9216,-66.78659999999999,264.2234,175,75
2026-05-09 15:09:05.477,4,-0.73,0.6,2.26,158.7716,-93.4966,312.64340000000004,175,75
2026-05-09 15:09:05.489,4,-0.71,0.28,2.19,171.7616,-131.66660000000002,341.1134,175,75
2026-05-09 15:09:05.500,4,-0.74,0.11,2.09,181.1516,-185.5066,379.59340000000003,175,75
2026-05-09 15:09:05.512,4,-0.78,0.05,1.98,202.1316,-233.6766,431.7934,175,75
2026-05-09 15:09:05.527,4,-0.75,-0.11,1.87,236.64159999999998,-257.3366,487.40340000000003,175,75
2026-05-09 15:09:05.540,4,-0.7,-0.48,1.77,281.7016,-264.6466,545.6334,175,75
2026-05-09 15:09:05.557,4,-0.66,-1.67,1.58,382.3116,-336.6666,661.6034,175,75
2026-05-09 15:09:05.564,4,-0.7,-1.96,1.52,437.4316,-406.1766,700.6334,175,75
2026-05-09 15:09:05.587,4,-1.4,-2.77,2.25,609.8716000000001,-513.4266,797.7634,175,75
2026-05-09 15:09:05.598,4,-1.96,-3.31,2.83,662.3116,-643.1866,872.0334,175,75
2026-05-09 15:09:05.618,4,-4.11,-4.83,3.41,721.5216,-851.1766,935.6934,175,75
2026-05-09 15:09:05.629,4,-5.42,-6.69,3.45,690.4216,-893.9166,878.8034,175,75
2026-05-09 15:09:05.640,4,-6.62,-8.27,3.14,562.1916,-877.6966,724.7134,175,75
2026-05-09 15:09:05.651,4,-6.78,-8.87,2.18,427.9216,-801.3566000000001,556.6634,175,75
2026-05-09 15:09:05.662,4,-6.26,-9.25,0.95,366.27160000000003,-803.0666,404.2234,175,75
2026-05-09 15:09:05.674,4,-5.63,-8.72,-0.68,391.33160000000004,-832.7566,203.61339999999998,175,75
2026-05-09 15:09:05.697,4,-2.21,-5.82,-3.05,387.9216,-5.256600000000002,-12.726600000000001,175,75
2026-05-09 15:09:05.711,4,0.15,-3.73,-2.56,334.6316,196.02339999999998,212.8234,175,75
2026-05-09 15:09:05.722,4,-0.48,-2.67,-1.49,493.2916,64.1334,224.5334,175,75
2026-05-09 15:09:05.728,4,-1.03,-2.54,-0.48,665.4816000000001,93.6434,238.3134,175,75
2026-05-09 15:09:05.742,4,-0.53,-3.11,0.6,704.9916000000001,84.68339999999999,224.96339999999998,175,75
2026-05-09 15:09:05.755,4,-0.17,-3.78,2.04,575.6616,-148.3666,130.6934,175,75
2026-05-09 15:09:05.783,4,-0.05,-2.74,0.93,13.531600000000005,-433.1266,68.1934,175,75
2026-05-09 15:09:05.797,4,-0.21,-1.93,-0.2,-22.448399999999992,-502.14660000000003,47.763400000000004,175,75
2026-05-09 15:09:05.807,4,-0.88,-1.07,-0.99,65.6616,-502.02660000000003,-21.926599999999997,175,75
2026-05-09 15:09:05.825,4,-1.05,-0.45,-1.41,376.15160000000003,-348.7366,-228.2066,175,75
2026-05-09 15:09:05.836,4,-0.56,-0.35,-1.13,504.14160000000004,-348.3666,-319.2466,175,75
2026-05-09 15:09:05.852,4,-0.28,-0.22,-0.77,556.0916,-406.2966,-373.7566,175,75
2026-05-09 15:09:05.863,4,2.09,0.62,0.74,390.3016,-486.6666,-59.97659999999999,175,75
2026-05-09 15:09:05.874,4,-0.82,0.99,-0.39,204.3216,-526.4166,58.1334,175,75
2026-05-09 15:09:05.883,4,-1.5,0.46,-0.93,182.6816,-531.3566000000001,-84.1866,175,75
2026-05-09 15:09:05.894,4,-1.25,0.17,-0.89,180.3616,-523.5566,-101.3866,175,75
2026-05-09 15:09:05.907,4,-1.17,0.42,-0.73,149.6316,-487.6966,-67.5966,175,75
2026-05-09 15:09:05.918,4,-0.99,0.83,-0.62,78.9016,-442.51660000000004,-35.956599999999995,175,75
2026-05-09 15:09:05.931,4,-0.76,1.02,-0.64,42.9216,-464.0966,-60.346599999999995,175,75
2026-05-09 15:09:05.931,4,-0.94,1.21,-0.52,34.141600000000004,-517.8166,-59.066599999999994,175,75
2026-05-09 15:09:05.955,4,-1.68,1.45,-0.74,10.971600000000002,-485.1966,-58.14659999999999,175,75
2026-05-09 15:09:05.964,4,-1.45,1.53,-1.07,-22.388400000000004,-340.5666,-27.6666,175,75
2026-05-09 15:09:05.981,4,-1.43,1.57,-1.1,-39.758399999999995,-181.78660000000002,25.753400000000003,175,75
2026-05-09 15:09:05.993,4,-1.08,1.36,-0.99,-39.638400000000004,17.3634,51.793400000000005,175,75
2026-05-09 15:09:06.005,4,0.15,0.69,-0.72,-46.52839999999999,83.7034,86.1834,175,75
2026-05-09 15:09:06.018,4,-0.02,0.55,-0.09,-51.52839999999999,97.6034,61.9734,175,75
2026-05-09 15:09:06.044,4,0.12,0.26,0.35,-86.77839999999999,-157.02660000000003,59.1634,175,75
2026-05-09 15:09:06.056,4,-0.2,-0.09,0.03,-100.00840000000001,-195.3166,89.8334,175,75
2026-05-09 15:09:06.066,4,-0.48,-0.21,-0.28,-108.84839999999998,-114.4066,131.1834,175,75
2026-05-09 15:09:06.076,4,-0.21,-0.11,-0.41,-124.27839999999999,19.0034,140.0234,175,75
2026-05-09 15:09:06.087,4,0.51,0.14,-0.27,-152.1384,96.2034,144.2934,175,75
2026-05-09 15:09:06.109,4,0.91,0.17,-0.22,-167.5684,101.8134,152.8834,175,75
2026-05-09 15:09:06.124,4,0.72,-0.4,-0.32,-153.47840000000002,87.3634,149.5934,175,75
2026-05-09 15:09:06.145,4,0.49,-0.83,-0.18,-207.2584,195.59339999999997,158.2534,175,75
2026-05-09 15:09:06.158,4,0.76,-0.87,0.01,-234.8884,234.3134,152.0934,175,75
2026-05-09 15:09:06.167,4,1.01,-0.92,0.18,-244.9484,238.9434,147.5234,175,75
2026-05-09 15:09:06.196,4,1.17,-1.29,0.47,-269.2084,202.2434,110.3234,175,75
2026-05-09 15:09:06.222,4,1.5,-1.42,0.44,-276.7084,236.2034,70.4434,175,75
2026-05-09 15:09:06.232,4,1.68,-1.38,0.52,-287.1984,262.79339999999996,50.0834,175,75
2026-05-09 15:09:06.234,4,1.76,-1.4,0.57,-299.0284,291.2634,27.523400000000002,175,75
2026-05-09 15:09:06.247,4,1.78,-1.52,0.68,-314.1484,332.60339999999997,0.7534000000000027,175,75
2026-05-09 15:09:06.263,4,1.71,-1.78,0.79,-333.35839999999996,411.5734,-42.72659999999999,175,75
2026-05-09 15:09:06.275,4,1.64,-2.01,0.99,-350.73839999999996,498.0934,-89.4266,175,75
2026-05-09 15:09:06.329,4,0.54,-3.65,2.33,-279.0884,300.04339999999996,-237.9666,175,75
2026-05-09 15:09:06.370,4,-1.2,-2.55,2.59,-360.0084,304.61339999999996,-539.9166,175,75
2026-05-09 15:09:06.381,4,-0.84,-1.86,2.55,-352.2584,308.5234,-566.0766,175,75
2026-05-09 15:09:06.391,4,-0.65,-1.32,2.56,-340.2484,275.8334,-549.4866,175,75
2026-05-09 15:09:06.417,4,-0.45,-0.46,2.34,-317.0784,205.10340000000002,-331.5066,175,75
2026-05-09 15:09:06.428,4,-0.62,-0.52,2.08,-284.0284,187.42340000000002,-330.09659999999997,175,75
2026-05-09 15:09:06.438,4,-0.91,-0.5,1.98,-253.90839999999997,178.7634,-341.5666,175,75
2026-05-09 15:09:06.459,4,-1.17,-0.28,2.04,-228.23839999999996,186.6934,-338.9466,175,75
2026-05-09 15:09:06.470,4,-1.39,0.09,2.3,-211.34839999999997,188.58339999999998,-320.7766,175,75
2026-05-09 15:09:06.470,4,-1.37,0.44,2.47,-202.2584,190.65339999999998,-303.8866,175,75
2026-05-09 15:09:06.483,4,-1.16,0.69,2.52,-190.79839999999996,174.4334,-288.1466,175,75
2026-05-09 15:09:06.497,4,-0.88,0.83,2.45,-168.84839999999997,97.7234,-266.3166,175,75
2026-05-09 15:09:06.508,4,-0.89,0.78,2.27,-143.59839999999997,18.943399999999997,-245.8966,175,75
2026-05-09 15:09:06.519,4,-1.09,0.65,2.03,-118.47840000000001,-19.096600000000002,-230.8966,175,75
2026-05-09 15:09:06.541,4,-1.29,0.63,1.91,-108.6684,-21.116600000000002,-223.0866,175,75
2026-05-09 15:09:06.554,4,-1.5,0.75,1.87,-106.40839999999999,-7.396600000000003,-214.00660000000002,175,75
2026-05-09 15:09:06.579,4,-1.67,1.15,1.92,-88.1784,-11.786600000000004,-166.31660000000002,175,75
2026-05-09 15:09:06.591,4,-1.64,1.13,1.94,-46.0984,-60.3866,-101.4466,175,75
2026-05-09 15:09:06.606,4,-1.64,1.05,1.93,-28.2384,-87.2766,-75.7066,175,75
2026-05-09 15:09:06.617,4,-1.64,1.02,1.9,-16.708399999999997,-112.3366,-56.1366,175,75
2026-05-09 15:09:06.623,4,-1.64,1.01,1.85,-1.2283999999999935,-140.6266,-33.336600000000004,175,75
2026-05-09 15:09:06.637,4,-1.63,1.01,1.78,20.241600000000005,-181.1166,-4.0665999999999976,175,75
2026-05-09 15:09:06.667,4,-1.87,0.85,1.44,86.8216,-304.0366,96.5434,175,75
2026-05-09 15:09:06.678,4,-1.98,0.75,1.43,115.5416,-294.52660000000003,136.1834,175,75
2026-05-09 15:09:06.699,4,-1.14,0.02,1.2,203.41160000000002,-240.7466,223.3734,175,75
2026-05-09 15:09:06.713,4,-1.35,-0.13,1.23,207.8016,-339.83660000000003,273.9834,175,75
2026-05-09 15:09:06.724,4,-1.6,-0.44,0.97,255.72160000000002,-270.6866,335.8734,175,75
2026-05-09 15:09:06.770,4,-1.38,-1.59,1.43,324.6916,-31.726600000000005,640.5134,175,75
2026-05-09 15:09:06.782,4,-1.17,-2.21,1.97,343.96160000000003,-22.4566,744.7734,175,75
2026-05-09 15:09:06.793,4,-1.68,-3.01,2.52,406.58160000000004,-268.6766,768.3734000000001,175,75
2026-05-09 15:09:06.793,4,-2.24,-3.7,2.51,409.26160000000004,-275.07660000000004,787.0334,175,75
2026-05-09 15:09:06.808,4,-2.26,-4.62,2.37,332.7416,-139.4666,806.6034,175,75
2026-05-09 15:09:06.819,4,-1.97,-5.33,2.34,239.5016,-128.5566,772.6434,175,75
2026-05-09 15:09:06.840,4,-1.54,-6.43,1.66,257.4916,-122.1466,765.8134,175,75
2026-05-09 15:09:06.889,4,-2.43,-7.75,2.12,365.5416,-168.6766,692.8234,175,75
2026-05-09 15:09:06.925,4,-1.16,-4.93,1.23,235.48160000000001,-228.0066,433.3734,175,75
2026-05-09 15:09:06.942,4,-1.3,-4.12,1.02,211.7616,-227.6366,377.15340000000003,175,75
2026-05-09 15:09:06.966,4,-0.57,-3.34,1.05,197.98160000000001,-194.95659999999998,230.2634,175,75
2026-05-09 15:09:06.979,4,-0.26,-3.0,1.12,232.8616,-238.0066,167.1534,175,75
2026-05-09 15:09:06.979,4,-0.08,-2.73,1.1,260.1816,-288.3066,121.72340000000001,175,75
2026-05-09 15:09:07.012,4,0.19,-1.94,0.81,289.2616,-473.5566,-34.61659999999999,175,75
2026-05-09 15:09:07.012,4,0.28,-1.39,0.69,303.7716,-603.8566000000001,-107.4166,175,75
2026-05-09 15:09:07.028,4,1.24,-0.43,1.1,278.90160000000003,-738.8566000000001,-8.026599999999998,175,75
2026-05-09 15:09:07.041,4,-0.17,0.45,0.32,252.0716,-747.0866,61.3634,175,75
2026-05-09 15:09:07.052,4,-0.77,0.47,-0.36,259.3216,-679.1666,-49.42659999999999,175,75
2026-05-09 15:09:07.062,4,-0.63,0.37,-1.02,247.8016,-549.0366,-61.44659999999999,175,75
2026-05-09 15:09:07.085,4,-0.64,0.77,-1.78,200.54160000000002,-209.89659999999998,-31.746599999999997,175,75
2026-05-09 15:09:07.099,4,-0.76,0.9,-1.58,144.7516,-32.336600000000004,-1.5665999999999976,175,75
2026-05-09 15:09:07.121,4,-0.47,0.7,-0.95,110.6016,165.65339999999998,49.96340000000001,175,75
2026-05-09 15:09:07.133,4,-0.19,0.6,-0.65,95.05160000000001,141.5734,56.8534,175,75
2026-05-09 15:09:07.144,4,-0.06,0.66,-0.35,57.491600000000005,39.6134,45.0834,175,75
2026-05-09 15:09:07.164,4,-0.02,0.82,-0.24,24.141600000000004,-46.8466,27.5834,175,75
2026-05-09 15:09:07.179,4,-0.19,1.04,-0.24,-14.27839999999999,-155.5666,22.0334,175,75
2026-05-09 15:09:07.190,4,-0.36,0.97,-0.28,-21.468400000000003,-167.8166,29.7134,175,75
2026-05-09 15:09:07.201,4,-0.43,0.85,-0.3,-39.148399999999995,-153.5566,36.7234,175,75
2026-05-09 15:09:07.212,4,-0.37,0.85,-0.26,-59.69840000000001,-142.0866,37.4634,175,75
2026-05-09 15:09:07.212,4,-0.15,0.9,-0.15,-83.3584,-153.1266,44.4134,175,75
2026-05-09 15:09:07.223,4,-0.19,0.92,-0.13,-100.3684,-170.7466,49.3534,175,75
2026-05-09 15:09:07.235,4,-0.13,0.76,-0.27,-105.55839999999999,-164.46660000000003,32.6434,175,75
2026-05-09 15:09:07.246,4,0.54,0.48,-0.43,-115.3684,-116.59660000000001,17.1534,175,75
2026-05-09 15:09:07.259,4,0.26,0.57,-0.38,-149.9484,-57.946600000000004,35.7534,175,75
2026-05-09 15:09:07.300,4,-1.14,0.43,0.38,-160.0684,145.96339999999998,99.41340000000001,175,75
2026-05-09 15:09:07.321,4,1.87,-1.06,0.68,-175.0084,108.0334,153.6834,175,75
2026-05-09 15:09:07.332,4,0.64,-1.24,0.87,-191.70839999999998,45.71339999999999,95.63340000000001,175,75
2026-05-09 15:09:07.332,4,1.05,-1.41,1.21,-242.1384,96.7534,34.3534,175,75
2026-05-09 15:09:07.343,4,1.9,-1.51,1.04,-300.5584,67.18339999999999,13.863400000000002,175,75
2026-05-09 15:09:07.363,4,0.99,-1.55,0.67,-282.3184,112.2434,7.583400000000001,175,75
2026-05-09 15:09:07.374,4,1.2,-1.92,0.68,-272.9284,230.65339999999998,3.743400000000001,175,75
2026-05-09 15:09:07.399,4,1.41,-2.43,1.37,-310.0684,358.5834,-18.576599999999996,175,75
2026-05-09 15:09:07.411,4,1.67,-2.5,1.97,-298.0584,350.7734,-64.4266,175,75
2026-05-09 15:09:07.411,4,1.5,-2.7,2.4,-265.97839999999997,231.08339999999998,-133.5166,175,75
2026-05-09 15:09:07.422,4,1.27,-2.79,2.32,-271.9584,251.5734,-144.4966,175,75
2026-05-09 15:09:07.434,4,1.29,-2.73,2.33,-299.5784,260.04339999999996,-192.2966,175,75
2026-05-09 15:09:07.450,4,1.25,-2.69,2.39,-304.6384,284.3734,-218.81660000000002,175,75
2026-05-09 15:09:07.472,4,1.13,-2.83,2.92,-275.73839999999996,317.48339999999996,-291.5666,175,75
2026-05-09 15:09:07.483,4,1.02,-2.8,3.06,-256.8384,334.6834,-331.1966,175,75
2026-05-09 15:09:07.495,4,0.8,-2.71,3.2,-224.14839999999998,358.2134,-378.2066,175,75
2026-05-09 15:09:07.506,4,0.74,-2.63,3.15,-201.77839999999998,355.7734,-415.03659999999996,175,75
2026-05-09 15:09:07.521,4,0.54,-2.58,3.17,-191.95839999999998,337.79339999999996,-435.40659999999997,175,75
2026-05-09 15:09:07.529,4,0.27,-2.63,3.09,-172.0784,306.8134,-456.3166,175,75
2026-05-09 15:09:07.543,4,0.0,-2.74,2.9,-148.84839999999997,263.1534,-471.1366,175,75
2026-05-09 15:09:07.565,4,-0.39,-2.84,2.74,-134.27839999999998,176.2034,-483.9466,175,75
2026-05-09 15:09:07.577,4,-0.58,-2.76,2.7,-145.79840000000002,157.1834,-499.0666,175,75
2026-05-09 15:09:07.588,4,-0.7,-1.92,2.46,-170.3684,157.54340000000002,-521.0165999999999,175,75
2026-05-09 15:09:07.609,4,-0.68,-1.29,2.27,-153.1184,149.5534,-497.72659999999996,175,75
2026-05-09 15:09:07.611,4,-0.64,-0.87,2.15,-130.6784,131.6934,-473.9466,175,75
2026-05-09 15:09:07.632,4,-0.63,-0.52,2.15,-114.75840000000001,75.4734,-442.59659999999997,175,75
2026-05-09 15:09:07.643,4,-0.72,-0.31,2.05,-119.0884,44.6134,-415.8366,175,75
2026-05-09 15:09:07.696,4,-1.26,0.39,1.75,-124.1484,15.9634,-325.22659999999996,175,75
2026-05-09 15:09:07.709,4,-1.3,0.56,1.76,-112.9284,42.7934,-299.3666,175,75
2026-05-09 15:09:07.741,4,-1.09,0.62,1.73,-67.50840000000001,37.9734,-234.12660000000002,175,75
2026-05-09 15:09:07.798,4,-1.07,0.84,1.46,-17.318399999999997,-5.016600000000002,-150.7066,175,75
2026-05-09 15:09:07.812,4,-1.06,0.94,1.44,-11.168399999999991,19.8634,-128.5166,175,75
2026-05-09 15:09:07.829,4,-1.12,1.13,1.52,10.9116,63.763400000000004,-81.5666,175,75
2026-05-09 15:09:07.837,4,-1.16,1.21,1.61,31.641600000000004,90.7734,-53.456599999999995,175,75
2026-05-09 15:09:07.848,4,-1.11,1.23,1.69,49.5116,103.0334,-32.78659999999999,175,75
2026-05-09 15:09:07.859,4,-1.01,1.22,1.75,61.461600000000004,96.0234,-17.356599999999997,175,75
2026-05-09 15:09:07.871,4,-0.92,1.2,1.78,72.80160000000001,55.71339999999999,0.8134000000000015,175,75
2026-05-09 15:09:07.922,4,-1.24,1.28,1.73,102.86160000000001,4.133399999999998,69.5934,175,75
2026-05-09 15:09:07.933,4,-1.27,1.34,1.78,108.41159999999999,14.613399999999999,91.6634,175,75
2026-05-09 15:09:07.933,4,-1.22,1.39,1.82,114.0216,13.2134,115.1434,175,75
2026-05-09 15:09:07.946,4,-1.13,1.41,1.83,120.11160000000001,1.323399999999996,134.9634,175,75
2026-05-09 15:09:07.975,4,-0.9,1.24,1.8,153.6516,-73.42660000000001,214.2234,175,75
2026-05-09 15:09:07.987,4,-0.84,1.15,1.77,164.9916,-91.1166,240.99339999999998,175,75
2026-05-09 15:09:08.007,4,-0.76,0.97,1.65,183.7716,-157.27660000000003,303.1334,175,75
2026-05-09 15:09:08.027,4,-0.76,0.89,1.59,197.6116,-174.46660000000003,332.03340000000003,175,75
2026-05-09 15:09:08.038,4,-0.76,0.76,1.52,216.8216,-175.3866,365.6334,175,75
2026-05-09 15:09:08.038,4,-0.69,0.51,1.48,248.10160000000002,-146.59660000000002,419.4734,175,75
2026-05-09 15:09:08.054,4,-0.57,0.19,1.51,277.9816,-105.31660000000001,487.27340000000004,175,75
2026-05-09 15:09:08.123,4,-0.94,-2.39,2.25,338.3516,-218.5566,825.6334,175,75
2026-05-09 15:09:08.165,4,-3.0,-5.25,2.02,306.7616,-466.9066,825.9334,175,75
2026-05-09 15:09:08.252,4,-1.33,-5.32,1.26,392.6816,-364.3466,437.52340000000004,175,75
2026-05-09 15:09:08.252,4,-1.44,-4.79,1.26,367.8616,-388.7366,399.1034,175,75
2026-05-09 15:09:08.269,4,-1.47,-3.6,0.74,257.6816,-373.7966,214.0434,175,75
2026-05-09 15:09:08.301,4,-0.81,-2.76,0.38,193.35160000000002,-249.46660000000003,57.8834,175,75
2026-05-09 15:09:08.301,4,-0.25,-2.56,0.41,213.53160000000003,-207.51659999999998,14.833400000000001,175,75
2026-05-09 15:09:08.329,4,0.28,-2.33,0.66,286.7616,-208.0666,-21.6266,175,75
2026-05-09 15:09:08.329,4,0.37,-2.11,0.77,299.6916,-250.6266,-40.706599999999995,175,75
2026-05-09 15:09:08.344,4,0.3,-1.81,0.81,292.3716,-313.2466,-67.78659999999999,175,75
2026-05-09 15:09:08.344,4,0.16,-1.51,0.74,280.9716,-353.2466,-86.1366,175,75
2026-05-09 15:09:08.435,4,-0.65,0.75,-1.05,229.20159999999998,-392.02660000000003,-89.0666,175,75
2026-05-09 15:09:08.445,4,-0.89,0.79,-1.34,223.65160000000003,-292.27660000000003,-63.14659999999999,175,75
2026-05-09 15:09:08.478,4,-0.84,0.75,-1.38,196.8816,-211.0566,-27.4766,175,75
2026-05-09 15:09:08.512,4,-0.08,1.23,-0.4,-62.74839999999999,-250.3866,-6.136599999999998,175,75
2026-05-09 15:09:08.529,4,-0.9,1.32,-0.55,-49.02839999999999,-287.8166,-32.9666,175,75
2026-05-09 15:09:08.535,4,0.03,0.99,-1.05,-84.4584,-194.83659999999998,-17.2366,175,75
2026-05-09 15:09:08.546,4,-0.61,0.86,-0.89,-127.31840000000001,-134.5266,28.1334,175,75
2026-05-09 15:09:08.557,4,-0.47,0.71,-0.55,-112.68839999999999,94.3134,35.9934,175,75
2026-05-09 15:09:08.568,4,0.17,0.55,-0.11,-127.3884,207.97339999999997,89.96340000000001,175,75
2026-05-09 15:09:08.606,4,0.48,-0.5,0.54,-169.02839999999998,43.4634,66.6634,175,75
2026-05-09 15:09:08.639,4,0.37,-0.85,0.45,-205.91839999999996,-42.4566,45.263400000000004,175,75
2026-05-09 15:09:08.653,4,0.82,-0.59,0.41,-249.02839999999998,24.6834,53.6134,175,75
2026-05-09 15:09:08.668,4,0.88,-0.68,0.35,-243.1784,47.303399999999996,63.3134,175,75
2026-05-09 15:09:08.668,4,0.79,-0.89,0.3,-230.91839999999996,74.3734,71.9134,175,75
2026-05-09 15:09:08.730,4,0.8,-1.52,0.26,-235.79839999999996,187.0534,80.1434,175,75
2026-05-09 15:09:08.740,4,0.87,-1.69,0.59,-274.4584,270.9634,65.3234,175,75
2026-05-09 15:09:08.750,4,1.33,-1.73,1.34,-290.4984,316.3834,40.6334,175,75
2026-05-09 15:09:08.761,4,1.27,-2.0,1.77,-290.73839999999996,188.03339999999997,-37.72659999999999,175,75
2026-05-09 15:09:08.772,4,1.23,-1.9,1.74,-305.5584,225.29340000000002,-66.3166,175,75
2026-05-09 15:09:08.784,4,1.33,-1.72,1.65,-321.4684,236.8134,-110.58659999999999,175,75
2026-05-09 15:09:08.855,4,0.22,-2.51,2.33,-264.1484,304.92339999999996,-273.5166,175,75
2026-05-09 15:09:08.870,4,0.01,-2.64,2.53,-265.85839999999996,247.3034,-297.41659999999996,175,75
2026-05-09 15:09:08.885,4,-0.32,-2.66,2.51,-289.5784,195.41340000000002,-321.0166,175,75
2026-05-09 15:09:08.930,4,-0.65,-2.05,2.02,-288.72839999999997,192.97339999999997,-464.79659999999996,175,75
2026-05-09 15:09:08.946,4,-0.55,-1.7,1.97,-261.03839999999997,204.7434,-506.13659999999993,175,75
2026-05-09 15:09:08.946,4,-0.43,-1.34,2.02,-229.45839999999998,202.60340000000002,-531.0766,175,75
2026-05-09 15:09:08.975,4,-0.73,-0.05,2.08,-205.79839999999996,132.2434,-351.2566,175,75
2026-05-09 15:09:09.012,4,-0.69,0.23,1.92,-154.45839999999998,112.0534,-360.16659999999996,175,75
2026-05-09 15:09:09.029,4,-0.85,0.59,2.02,-158.53840000000002,80.1034,-300.28659999999996,175,75
2026-05-09 15:09:09.029,4,-1.18,0.81,2.12,-137.6284,86.3834,-270.6466,175,75
2026-05-09 15:09:09.125,4,-1.42,1.26,1.77,-5.008399999999995,-32.14660000000001,-82.3566,175,75
2026-05-09 15:09:09.139,4,-1.32,1.24,1.74,23.5916,-41.2966,-31.6266,175,75
2026-05-09 15:09:09.170,4,-1.3,1.1,1.69,63.101600000000005,-96.0566,15.573400000000001,175,75
2026-05-09 15:09:09.276,4,-1.22,-0.16,1.17,298.1616,-201.96660000000003,316.4234,175,75
2026-05-09 15:09:09.293,4,-1.09,-0.67,1.16,352.6116,-151.84660000000002,400.8134,175,75
2026-05-09 15:09:09.316,4,-0.99,-0.95,1.28,380.7916,-115.92660000000001,451.3634,175,75
2026-05-09 15:09:09.346,4,-0.74,-1.95,1.75,446.0316,-172.20659999999998,618.2534,175,75
2026-05-09 15:09:09.365,4,-1.33,-3.54,2.08,516.6416,-367.14660000000003,770.6934,175,75
2026-05-09 15:09:09.388,4,-2.21,-4.41,2.5,574.2016,-475.07660000000004,796.0534,175,75
2026-05-09 15:09:09.400,4,-3.15,-5.62,2.93,620.7216,-506.0566,796.1834,175,75
2026-05-09 15:09:09.417,4,-4.09,-8.2,3.21,577.3716,-675.6266,669.6534,175,75
2026-05-09 15:09:09.444,4,-4.07,-8.33,0.68,405.2416,-747.7566,341.0534,175,75
2026-05-09 15:09:09.458,4,-3.83,-7.27,-0.27,379.9916,-658.3066,213.74339999999998,175,75
2026-05-09 15:09:09.469,4,-3.18,-5.81,-1.13,375.9116,-438.9766,82.1534,175,75
2026-05-09 15:09:09.540,4,-1.12,-3.58,0.6,425.6616,-72.45660000000001,142.3334,175,75
2026-05-09 15:09:09.646,4,-1.98,2.05,-1.9,120.4816,-259.9566,-13.146599999999996,175,75
2026-05-09 15:09:09.774,4,-1.31,0.75,-0.36,-28.058399999999992,-602.5766,-43.8866,175,75
2026-05-09 15:09:09.786,4,-1.31,0.96,-0.64,-24.638400000000004,-496.1766,-13.396599999999996,175,75
2026-05-09 15:09:09.794,4,-1.3,1.36,-1.02,-23.66839999999999,-287.02660000000003,41.4834,175,75
2026-05-09 15:09:09.832,4,1.07,0.77,-0.66,-14.208399999999997,63.763400000000004,168.86339999999998,175,75
2026-05-09 15:09:09.857,4,0.51,0.44,-0.16,-20.308399999999992,20.473399999999998,130.6934,175,75
2026-05-09 15:09:09.876,4,0.5,-0.08,0.4,-49.94839999999999,0.22339999999999804,177.21339999999998,175,75
2026-05-09 15:09:09.876,4,0.76,-0.38,0.42,-72.62839999999998,-110.8666,138.61339999999998,175,75
2026-05-09 15:09:09.902,4,0.75,-0.51,0.12,-168.90839999999997,-369.2266,104.35340000000001,175,75
2026-05-09 15:09:09.913,4,0.74,-0.5,-0.36,-188.47839999999997,-390.9266,90.99340000000001,175,75
2026-05-09 15:09:09.987,4,0.84,-1.63,-1.61,-212.5684,211.2634,220.08339999999998,175,75
2026-05-09 15:09:10.001,4,1.8,-1.82,0.11,-330.1884,339.98339999999996,162.58339999999998,175,75
2026-05-09 15:09:10.018,4,2.03,-2.01,0.42,-339.3384,244.6834,105.9334,175,75
2026-05-09 15:09:10.032,4,2.15,-2.24,0.33,-371.03839999999997,148.7634,25.753400000000003,175,75
2026-05-09 15:09:10.074,4,1.8,-2.14,0.34,-445.5584,372.91339999999997,-43.14659999999999,175,75
2026-05-09 15:09:10.118,4,1.33,-2.49,0.84,-409.8184,523.1534,-88.8166,175,75
2026-05-09 15:09:10.118,4,1.07,-2.65,1.21,-369.2784,485.9034,-88.8866,175,75
2026-05-09 15:09:10.129,4,0.55,-2.59,1.48,-344.3384,433.0334,-100.7066,175,75
2026-05-09 15:09:10.144,4,-0.13,-2.36,1.62,-316.28839999999997,401.4434,-154.3666,175,75
2026-05-09 15:09:10.156,4,-0.47,-2.17,1.66,-294.4584,403.1534,-221.56660000000002,175,75
2026-05-09 15:09:10.156,4,-0.6,-1.87,1.69,-267.6884,413.7034,-309.4266,175,75
2026-05-09 15:09:10.166,4,-0.53,-1.57,1.75,-245.6184,407.91339999999997,-370.28659999999996,175,75
2026-05-09 15:09:10.175,4,-0.37,-1.09,1.87,-216.28839999999997,360.04339999999996,-424.73659999999995,175,75
2026-05-09 15:09:10.247,4,-0.6,0.17,1.76,-178.41840000000002,109.4934,-292.0566,175,75
2026-05-09 15:09:10.247,4,-0.51,0.22,1.79,-166.28840000000002,96.2034,-284.0666,175,75
2026-05-09 15:09:10.273,4,-0.67,0.56,1.58,-180.85840000000002,63.0334,-234.12660000000002,175,75
2026-05-09 15:09:10.319,4,-0.66,0.58,1.5,-146.77839999999998,81.7534,-209.4266,175,75
2026-05-09 15:09:10.329,4,-0.89,0.59,1.53,-123.2384,105.2234,-190.8966,175,75
2026-05-09 15:09:10.368,4,-0.84,0.74,1.7,-67.1984,88.0334,-154.2466,175,75
2026-05-09 15:09:10.483,4,-0.91,0.91,1.64,9.321600000000004,65.90339999999999,-86.50659999999999,175,75
2026-05-09 15:09:10.494,4,-0.92,0.93,1.62,18.471600000000002,49.68339999999999,-76.6266,175,75
2026-05-09 15:09:10.494,4,-0.93,0.95,1.56,31.5216,34.8634,-63.75659999999999,175,75
2026-05-09 15:09:10.500,4,-0.93,0.98,1.51,45.241600000000005,26.1434,-46.44659999999999,175,75
2026-05-09 15:09:10.532,4,-0.95,1.15,1.58,80.9116,22.7934,10.8734,175,75
2026-05-09 15:09:10.541,4,-0.97,1.25,1.69,101.9416,11.7534,39.2234,175,75
2026-05-09 15:09:10.551,4,-0.94,1.33,1.8,125.1816,-24.096600000000002,70.2034,175,75
2026-05-09 15:09:10.562,4,-0.95,1.37,1.9,148.9616,-77.8166,105.63340000000001,175,75
2026-05-09 15:09:10.570,4,-0.93,1.35,1.92,166.2716,-118.9166,130.5734,175,75
2026-05-09 15:09:10.581,4,-0.76,1.23,1.81,192.7416,-189.83659999999998,174.96339999999998,175,75
2026-05-09 15:09:10.592,4,-0.72,1.19,1.71,209.8116,-216.84660000000002,200.4434,175,75
2026-05-09 15:09:10.592,4,-0.74,1.17,1.62,233.83159999999998,-232.9466,230.08339999999998,175,75
2026-05-09 15:09:10.603,4,-0.75,1.15,1.54,270.0516,-239.40660000000003,272.6434,175,75
2026-05-09 15:09:10.628,4,-0.64,0.61,1.4,369.9916,-186.72660000000002,429.1634,175,75
2026-05-09 15:09:10.657,4,-0.58,0.19,1.37,408.4116,-156.1766,499.71340000000004,175,75
2026-05-09 15:09:10.657,4,-0.58,-0.24,1.38,439.26160000000004,-145.2566,558.6834,175,75
2026-05-09 15:09:10.732,4,-1.59,-2.96,2.74,551.2116,-439.95660000000004,875.5734,175,75
2026-05-09 15:09:10.754,4,-2.35,-3.52,2.86,555.7216,-468.1266,883.5534,175,75
2026-05-09 15:09:10.754,4,-2.75,-4.35,2.88,530.4816,-438.4266,859.7734,175,75
2026-05-09 15:09:10.766,4,-3.04,-5.84,2.71,464.26160000000004,-472.02660000000003,751.8534,175,75
2026-05-09 15:09:10.766,4,-3.21,-6.69,2.32,437.9216,-503.5566,670.9934000000001,175,75
2026-05-09 15:09:10.777,4,-3.1,-7.36,1.7,451.33160000000004,-541.9666,586.1134000000001,175,75
2026-05-09 15:09:10.791,4,-2.59,-7.17,0.72,521.0316,-549.4066,463.6834,175,75
2026-05-09 15:09:10.812,4,-2.57,-5.54,0.63,492.2516,-518.6166,313.0034,175,75
2026-05-09 15:09:10.823,4,-2.65,-4.51,0.52,444.14160000000004,-453.4266,179.3534,175,75
2026-05-09 15:09:10.838,4,-1.15,-3.56,0.38,325.2416,-270.0766,45.6334,175,75
2026-05-09 15:09:10.893,4,-0.69,-3.27,0.74,337.8616,-272.8866,117.58340000000001,175,75
2026-05-09 15:09:10.931,4,-1.07,-3.11,0.79,258.90160000000003,-352.33660000000003,10.993400000000001,175,75
2026-05-09 15:09:10.943,4,-1.2,-2.66,0.57,223.35160000000002,-373.1266,-74.55659999999999,175,75
2026-05-09 15:09:10.954,4,-0.87,-1.55,-0.18,229.9916,-356.3566,-224.91660000000002,175,75
2026-05-09 15:09:10.967,4,-0.91,-1.12,-0.36,263.7116,-363.6166,-288.2066,175,75
2026-05-09 15:09:10.979,4,-0.92,-0.7,-0.41,310.4816,-353.3066,-341.9966,175,75
2026-05-09 15:09:10.995,4,-0.7,-0.26,-0.34,352.6116,-386.3566,-374.1866,175,75
2026-05-09 15:09:11.006,4,0.4,0.83,0.4,260.8516,-450.6866,-113.08659999999999,175,75
2026-05-09 15:09:11.016,4,-1.36,1.23,-0.29,211.8216,-331.5366,-48.8866,175,75
2026-05-09 15:09:11.027,4,-1.19,0.84,-0.52,256.6416,-226.66660000000002,-80.03659999999999,175,75
2026-05-09 15:09:11.039,4,-0.85,0.62,-0.51,271.3316,-161.72660000000002,-36.566599999999994,175,75
2026-05-09 15:09:11.063,4,-1.02,0.73,-0.32,200.2416,-126.84660000000001,5.993400000000001,175,75
2026-05-09 15:09:11.078,4,-0.37,0.68,-0.37,149.5716,-133.3666,5.323400000000003,175,75
2026-05-09 15:09:11.086,4,-0.21,0.75,-0.22,83.7716,-250.1366,12.093400000000003,175,75
2026-05-09 15:09:11.099,4,-0.49,0.77,-0.26,36.3316,-288.8566,-33.5166,175,75
2026-05-09 15:09:11.113,4,-0.67,1.27,-0.2,-30.498400000000004,-278.4966,-13.396599999999996,175,75
2026-05-09 15:09:11.137,4,-1.22,1.65,-0.19,-54.888400000000004,-306.9666,21.7234,175,75
2026-05-09 15:09:11.137,4,-0.77,1.6,-0.62,-26.228399999999993,-178.2466,-21.0166,175,75
2026-05-09 15:09:11.154,4,0.75,1.09,-0.89,-53.8484,-254.89659999999998,32.2134,175,75
2026-05-09 15:09:11.165,4,-0.45,0.94,-0.51,-69.3384,9.193399999999997,43.6134,175,75
2026-05-09 15:09:11.204,4,-0.24,1.01,-0.36,-85.4284,172.97339999999997,90.0234,175,75
2026-05-09 15:09:11.204,4,0.12,0.76,-0.07,-85.18839999999999,167.97339999999997,87.8234,175,75
2026-05-09 15:09:11.240,4,0.45,-0.15,0.32,-103.1784,-61.116600000000005,88.8634,175,75
2026-05-09 15:09:11.240,4,0.62,-0.31,0.16,-134.51839999999999,-113.7966,80.2634,175,75
2026-05-09 15:09:11.264,4,0.78,0.02,-0.25,-166.28840000000002,-105.31660000000001,77.6434,175,75
2026-05-09 15:09:11.275,4,0.77,-0.17,-0.53,-158.53840000000002,-36.116600000000005,106.72340000000001,175,75
2026-05-09 15:09:11.286,4,0.75,-0.54,-0.69,-162.1384,14.133399999999995,131.2434,175,75
2026-05-09 15:09:11.297,4,0.79,-0.98,-0.64,-179.7584,91.2034,142.7034,175,75
2026-05-09 15:09:11.324,4,1.04,-1.22,-0.46,-221.95839999999998,148.46339999999998,142.2134,175,75
2026-05-09 15:09:11.339,4,1.13,-0.99,0.07,-283.23839999999996,209.4934,116.4234,175,75
2026-05-09 15:09:11.371,4,1.1,-1.44,0.39,-305.97839999999997,175.96339999999998,85.6934,175,75
2026-05-09 15:09:11.383,4,1.12,-1.81,0.49,-335.0684,231.2034,54.043400000000005,175,75
2026-05-09 15:09:11.383,4,1.3,-1.95,0.59,-357.9284,263.3334,28.863400000000002,175,75
2026-05-09 15:09:11.435,4,1.15,-2.05,1.19,-388.66839999999996,339.61339999999996,-38.33659999999999,175,75
2026-05-09 15:09:11.441,4,1.36,-2.21,1.63,-374.2084,325.8334,-96.1366,175,75
2026-05-09 15:09:11.465,4,1.06,-2.34,1.76,-361.4084,312.66339999999997,-180.3466,175,75
2026-05-09 15:09:11.480,4,0.9,-2.37,1.6,-391.5284,358.7034,-242.05660000000003,175,75
2026-05-09 15:09:11.506,4,0.63,-2.87,1.98,-369.3384,303.0934,-235.2866,175,75
2026-05-09 15:09:11.532,4,-0.69,-3.1,2.34,-351.22839999999997,241.8734,-360.22659999999996,175,75
2026-05-09 15:09:11.575,4,-0.7,-2.67,2.45,-363.78839999999997,294.86339999999996,-455.22659999999996,175,75
2026-05-09 15:09:11.579,4,-0.31,-1.43,2.58,-347.7484,270.04339999999996,-517.1766,175,75
2026-05-09 15:09:11.591,4,-0.01,-0.94,2.68,-338.1784,216.7534,-457.47659999999996,175,75
2026-05-09 15:09:11.610,4,-0.94,-0.22,2.3,-239.27839999999998,184.3734,-363.6966,175,75
2026-05-09 15:09:11.637,4,-0.64,0.02,2.34,-228.47839999999997,171.5734,-355.9566,175,75
2026-05-09 15:09:11.637,4,-0.65,0.17,2.32,-227.7484,159.6134,-326.2566,175,75
2026-05-09 15:09:11.648,4,-0.8,0.23,2.25,-204.7584,147.48340000000002,-310.28659999999996,175,75
2026-05-09 15:09:11.674,4,-1.08,0.28,2.29,-174.27839999999998,136.9934,-303.3966,175,75
2026-05-09 15:09:11.684,4,-1.4,0.4,2.42,-147.4484,125.90339999999999,-291.5666,175,75
2026-05-09 15:09:11.684,4,-1.71,0.7,2.53,-120.3684,87.4834,-266.7466,175,75
2026-05-09 15:09:11.694,4,-1.62,0.81,2.52,-112.9284,49.743399999999994,-249.9166,175,75
2026-05-09 15:09:11.706,4,-1.59,0.91,2.48,-108.2984,6.323399999999996,-223.2766,175,75
2026-05-09 15:09:11.713,4,-1.6,0.95,2.38,-100.6784,-24.836600000000004,-191.31660000000002,175,75
2026-05-09 15:09:11.730,4,-1.66,0.95,2.19,-85.97840000000001,-43.8566,-148.3966,175,75
2026-05-09 15:09:11.749,4,-1.58,0.87,1.94,-58.05839999999999,-40.7466,-90.64659999999999,175,75
2026-05-09 15:09:11.763,4,-1.77,0.83,1.85,-47.6284,-84.1666,-47.47659999999999,175,75
2026-05-09 15:09:11.779,4,-2.0,0.93,1.84,-19.27839999999999,-76.5966,-22.2366,175,75
2026-05-09 15:09:11.799,4,-1.51,0.85,1.72,28.351600000000005,-215.7466,33.4334,175,75
2026-05-09 15:09:11.839,4,-1.76,0.62,1.33,65.3616,-402.8166,86.24340000000001,175,75
2026-05-09 15:09:11.840,4,-1.97,0.6,1.17,94.5116,-401.1166,99.5334,175,75
2026-05-09 15:09:11.881,4,-2.03,0.58,1.02,127.1916,-351.8466,112.33340000000001,175,75
2026-05-09 15:09:11.905,4,-1.66,0.53,0.95,188.9616,-251.72660000000002,189.3534,175,75
2026-05-09 15:09:11.916,4,-1.12,-0.35,0.85,311.40160000000003,-224.58659999999998,321.7234,175,75
2026-05-09 15:09:11.931,4,-1.28,-0.42,0.86,327.0716,-227.57659999999998,367.58340000000004,175,75
2026-05-09 15:09:11.943,4,-1.42,-0.84,0.98,377.3716,-108.42660000000001,520.3833999999999,175,75
2026-05-09 15:09:11.977,4,-0.97,-2.25,1.53,416.15160000000003,-56.116600000000005,809.9034,175,75
2026-05-09 15:09:12.013,4,-2.94,-4.78,2.43,480.2416,-319.2866,894.4134,175,75
2026-05-09 15:09:12.023,4,-3.34,-6.17,2.65,384.5716,-141.41660000000002,854.4134,175,75
2026-05-09 15:09:12.023,4,-3.2,-6.91,2.52,275.1116,-108.3066,761.4234,175,75
2026-05-09 15:09:12.034,4,-2.55,-7.69,2.1,252.0016,-171.53660000000002,734.1034,175,75
2026-05-09 15:09:12.048,4,-2.06,-8.08,1.6,303.2216,-262.2066,772.7634,175,75
2026-05-09 15:09:12.057,4,-2.64,-7.56,1.42,397.3716,-255.6266,729.9034,175,75
2026-05-09 15:09:12.069,4,-2.81,-7.08,1.5,381.21160000000003,-212.8866,632.0334,175,75
2026-05-09 15:09:12.082,4,-2.51,-5.99,1.45,316.5816,-176.0566,478.5534,175,75
2026-05-09 15:09:12.095,4,-1.69,-5.16,1.31,241.46159999999998,-145.07659999999998,364.0434,175,75
2026-05-09 15:09:12.110,4,-0.92,-4.45,1.18,181.2716,-202.27660000000003,297.09340000000003,175,75
2026-05-09 15:09:12.139,4,-0.75,-3.27,0.96,187.1916,-269.77660000000003,235.2034,175,75
2026-05-09 15:09:12.152,4,-0.6,-3.02,0.98,208.96159999999998,-298.5566,169.77339999999998,175,75
2026-05-09 15:09:12.162,4,-0.54,-2.74,1.01,214.02159999999998,-338.4266,102.46340000000001,175,75
2026-05-09 15:09:12.179,4,-0.48,-2.32,0.93,211.52159999999998,-399.2866,11.113400000000002,175,75
2026-05-09 15:09:12.179,4,-0.41,-1.9,0.76,204.4416,-455.7466,-73.8866,175,75
2026-05-09 15:09:12.195,4,-0.36,-1.48,0.57,211.8816,-505.6866,-138.63660000000002,175,75
2026-05-09 15:09:12.198,4,-0.3,-0.96,0.24,251.64159999999998,-565.0766,-207.1766,175,75
2026-05-09 15:09:12.209,4,0.54,-0.31,0.21,295.4816,-622.5766,-199.6166,175,75
2026-05-09 15:09:12.232,4,0.15,0.79,0.23,280.1116,-703.8566000000001,17.273400000000002,175,75
2026-05-09 15:09:12.243,4,-1.05,1.02,-0.49,277.4916,-569.8966,-29.4866,175,75
2026-05-09 15:09:12.254,4,-0.77,0.83,-1.13,241.8816,-205.5066,-23.146599999999996,175,75
2026-05-09 15:09:12.264,4,-0.56,0.79,-1.14,241.21159999999998,-80.8066,22.1534,175,75
2026-05-09 15:09:12.337,4,-0.38,0.61,-0.67,197.98160000000001,-14.346600000000002,33.3134,175,75
2026-05-09 15:09:12.359,4,-0.26,0.77,-0.55,101.4616,-83.06660000000001,5.8134000000000015,175,75
2026-05-09 15:09:12.359,4,-0.32,0.89,-0.63,79.2616,-110.1366,2.0334000000000003,175,75
2026-05-09 15:09:12.369,4,-0.44,0.96,-0.68,55.421600000000005,-110.6866,8.683400000000002,175,75
2026-05-09 15:09:12.380,4,-0.62,1.04,-0.68,23.901600000000002,-72.1466,35.9934,175,75
2026-05-09 15:09:12.391,4,-0.64,1.05,-0.62,5.851600000000005,-26.666600000000003,52.6434,175,75
2026-05-09 15:09:12.407,4,-0.02,0.84,-0.36,-34.148399999999995,-85.3866,56.543400000000005,175,75
2026-05-09 15:09:12.419,4,0.04,0.67,-0.49,-52.258399999999995,-143.5566,-7.416599999999999,175,75
2026-05-09 15:09:12.525,4,-1.78,1.22,-0.09,-103.59839999999998,55.2234,80.4434,175,75
2026-05-09 15:09:12.548,4,0.53,-0.06,0.75,-121.40839999999999,-22.8866,43.0034,175,75
2026-05-09 15:09:12.558,4,0.87,-0.48,0.5,-187.4484,-240.4466,-3.516599999999997,175,75
2026-05-09 15:09:12.558,4,0.88,-0.7,0.08,-200.73839999999996,-284.70660000000004,-11.506599999999995,175,75
2026-05-09 15:09:12.558,4,0.94,-1.05,-0.28,-214.20839999999998,-256.4166,8.313400000000001,175,75
2026-05-09 15:09:12.569,4,1.09,-1.24,-0.42,-278.0584,-76.5966,58.1334,175,75
2026-05-09 15:09:12.580,4,1.4,-1.47,-0.46,-307.1384,19.0734,58.8634,175,75
2026-05-09 15:09:12.597,4,1.67,-2.7,-0.3,-340.1284,293.8834,39.653400000000005,175,75
2026-05-09 15:09:12.610,4,1.62,-2.91,-0.03,-365.85839999999996,399.8034,31.8534,175,75
2026-05-09 15:09:12.621,4,1.88,-3.1,0.47,-398.84839999999997,521.9934,16.543400000000002,175,75
2026-05-09 15:09:12.644,4,1.83,-3.67,1.99,-365.0684,289.6834,-140.4066,175,75
2026-05-09 15:09:12.660,4,1.83,-3.63,2.1,-394.2084,253.9434,-211.7466,175,75
2026-05-09 15:09:12.660,4,1.61,-3.45,1.96,-416.4084,281.0234,-248.75660000000002,175,75
2026-05-09 15:09:12.671,4,1.56,-3.32,2.01,-404.6984,292.66339999999997,-281.3866,175,75
2026-05-09 15:09:12.684,4,1.23,-3.23,1.88,-375.0684,365.5334,-324.4266,175,75
2026-05-09 15:09:12.697,4,0.93,-3.18,1.78,-367.9284,380.41339999999997,-342.41659999999996,175,75
2026-05-09 15:09:12.697,4,0.55,-3.23,1.78,-357.5084,374.7434,-347.59659999999997,175,75
2026-05-09 15:09:12.716,4,0.29,-3.4,2.0,-333.1784,371.2034,-364.4266,175,75
2026-05-09 15:09:12.716,4,0.09,-3.59,2.19,-309.5784,355.7734,-391.1366,175,75
2026-05-09 15:09:12.728,4,-0.23,-3.53,2.31,-305.6784,322.79339999999996,-408.8866,175,75
2026-05-09 15:09:12.740,4,-0.61,-3.08,2.33,-311.22839999999997,315.6534,-417.53659999999996,175,75
2026-05-09 15:09:12.747,4,-0.79,-2.47,2.32,-310.79839999999996,296.0834,-444.79659999999996,175,75
2026-05-09 15:09:12.756,4,-0.73,-2.05,2.19,-306.03839999999997,299.0034,-455.22659999999996,175,75
2026-05-09 15:09:12.774,4,-0.57,-1.57,2.08,-294.5784,251.7534,-438.0266,175,75
2026-05-09 15:09:12.925,4,-1.0,-0.11,1.48,-182.0784,67.3034,-298.9466,175,75
2026-05-09 15:09:12.931,4,-1.0,0.06,1.57,-144.7584,94.5534,-280.34659999999997,175,75
2026-05-09 15:09:12.939,4,-1.0,0.14,1.65,-127.9284,95.1034,-265.7066,175,75
2026-05-09 15:09:12.953,4,-1.03,0.19,1.67,-118.96839999999999,78.0934,-255.8366,175,75
2026-05-09 15:09:12.969,4,-1.25,0.51,1.67,-96.8384,63.883399999999995,-213.75660000000002,175,75
2026-05-09 15:09:12.982,4,-1.27,0.66,1.74,-84.1484,78.6434,-194.06660000000002,175,75
2026-05-09 15:09:12.990,4,-1.23,0.75,1.79,-71.09839999999998,88.8834,-177.2966,175,75
2026-05-09 15:09:12.990,4,-1.14,0.84,1.84,-56.648399999999995,88.2734,-160.5266,175,75
2026-05-09 15:09:13.014,4,-1.04,0.89,1.87,-40.498400000000004,68.9434,-141.9266,175,75
2026-05-09 15:09:13.014,4,-1.0,0.93,1.86,-26.288399999999996,46.4434,-124.24659999999999,175,75
2026-05-09 15:09:13.022,4,-0.98,0.96,1.82,-13.478399999999993,34.6134,-109.4266,175,75
2026-05-09 15:09:13.033,4,-0.96,0.98,1.78,-1.2883999999999958,34.1934,-94.30659999999999,175,75
2026-05-09 15:09:13.050,4,-0.87,1.06,1.72,16.211600000000004,51.1434,-67.05659999999999,175,75
2026-05-09 15:09:13.060,4,-0.85,1.11,1.73,23.471600000000002,61.873400000000004,-56.44659999999999,175,75
2026-05-09 15:09:13.065,4,-0.84,1.17,1.76,31.0916,76.93339999999999,-40.52659999999999,175,75
2026-05-09 15:09:13.078,4,-0.91,1.24,1.86,40.4216,88.2134,-15.466599999999996,175,75
2026-05-09 15:09:13.090,4,-1.01,1.32,2.0,51.4016,85.7134,5.573400000000003,175,75
2026-05-09 15:09:13.108,4,-1.07,1.41,2.15,63.8316,64.9234,25.753400000000003,175,75
2026-05-09 15:09:13.120,4,-1.03,1.43,2.25,78.9016,36.023399999999995,40.5034,175,75
2026-05-09 15:09:13.134,4,-0.92,1.41,2.32,92.61160000000001,-13.856600000000004,53.4934,175,75
2026-05-09 15:09:13.148,4,-0.83,1.39,2.33,99.4416,-163.3666,81.5434,175,75
2026-05-09 15:09:13.161,4,-0.85,1.41,2.19,102.0116,-247.6966,92.52340000000001,175,75
2026-05-09 15:09:13.171,4,-0.88,1.45,2.04,108.6516,-301.5366,102.88340000000001,175,75
2026-05-09 15:09:13.183,4,-0.92,1.46,1.82,129.6316,-336.5966,128.9834,175,75
2026-05-09 15:09:13.187,4,-0.9,1.41,1.68,147.9216,-331.5966,162.4034,175,75
2026-05-09 15:09:13.198,4,-0.87,1.26,1.52,170.0516,-301.9666,221.18339999999998,175,75
2026-05-09 15:09:13.210,4,-0.84,1.06,1.43,183.5916,-275.6266,268.6834,175,75
2026-05-09 15:09:13.244,4,-0.77,0.07,1.42,251.03160000000003,-220.2566,440.5034,175,75
2026-05-09 15:09:13.266,4,-0.84,-0.77,1.54,290.3616,-179.58659999999998,563.4934000000001,175,75
2026-05-09 15:09:13.279,4,-0.88,-1.28,1.62,296.3316,-191.84660000000002,628.9834000000001,175,75
2026-05-09 15:09:13.290,4,-1.02,-1.75,1.74,303.4116,-237.39659999999998,689.4734,175,75
2026-05-09 15:09:13.343,4,-2.06,-3.07,1.8,262.8016,-153.4266,727.9434,175,75
2026-05-09 15:09:13.343,4,-2.06,-3.25,1.84,261.6416,-142.6366,705.7534,175,75
2026-05-09 15:09:13.353,4,-2.01,-3.59,1.9,274.2016,-185.01659999999998,717.8234,175,75
2026-05-09 15:09:13.368,4,-2.17,-4.4,2.02,309.6916,-313.9166,775.6334,175,75
2026-05-09 15:09:13.390,4,-2.99,-5.85,2.06,379.3816,-418.2466,793.4934000000001,175,75
2026-05-09 15:09:13.413,4,-1.56,-6.39,1.27,244.3216,-155.07659999999998,501.1134,175,75
2026-05-09 15:09:13.432,4,-1.21,-5.07,1.2,234.5716,-279.2866,445.3234,175,75
2026-05-09 15:09:13.447,4,-1.63,-4.15,1.13,269.8716,-337.33660000000003,414.2234,175,75
2026-05-09 15:09:13.458,4,-1.65,-3.93,1.11,295.3616,-319.89660000000003,349.1634,175,75
2026-05-09 15:09:13.471,4,-1.07,-3.62,1.01,221.09160000000003,-263.3066,217.52339999999998,175,75
2026-05-09 15:09:13.492,4,-0.73,-3.28,0.92,190.97160000000002,-250.4466,152.4034,175,75
2026-05-09 15:09:13.504,4,-0.39,-3.06,0.87,188.41160000000002,-257.5766,102.46340000000001,175,75
2026-05-09 15:09:13.514,4,-0.02,-2.81,0.83,218.16160000000002,-307.20660000000004,40.0234,175,75
2026-05-09 15:09:13.514,4,0.12,-2.54,0.84,251.9416,-365.13660000000004,-1.6265999999999998,175,75
2026-05-09 15:09:13.528,4,0.12,-2.2,0.81,279.0816,-430.3166,-41.626599999999996,175,75
2026-05-09 15:09:13.554,4,0.04,-1.8,0.72,296.9416,-493.1266,-88.69659999999999,175,75
2026-05-09 15:09:13.558,4,-0.04,-1.38,0.55,316.6416,-573.8566000000001,-141.50660000000002,175,75
2026-05-09 15:09:13.571,4,-0.12,-1.02,0.31,338.2216,-650.5666,-181.38660000000002,175,75
2026-05-09 15:09:13.591,4,-0.59,0.09,-0.09,306.9416,-877.2766,-107.59659999999998,175,75
2026-05-09 15:09:13.602,4,-1.5,0.28,-0.84,254.20159999999998,-795.1366,-158.2066,175,75
2026-05-09 15:09:13.612,4,-1.66,0.33,-1.38,203.29160000000002,-702.3366,-189.5566,175,75
2026-05-09 15:09:13.634,4,-2.2,0.98,-1.98,76.2116,-456.9066,-128.94660000000002,175,75
2026-05-09 15:09:13.649,4,-2.05,1.45,-1.99,30.3016,-193.6766,-95.28659999999999,175,75
2026-05-09 15:09:13.670,4,-0.13,1.44,-1.32,30.361600000000003,171.8134,3.923400000000001,175,75
2026-05-09 15:09:13.696,4,-0.3,1.15,-0.49,21.7616,163.09339999999997,43.433400000000006,175,75
2026-05-09 15:09:13.707,4,-0.79,1.16,0.31,-29.578400000000002,83.9434,8.683400000000002,175,75
2026-05-09 15:09:13.718,4,0.37,0.8,-0.08,-88.1184,-47.14660000000001,-18.636599999999998,175,75
2026-05-09 15:09:13.729,4,-0.36,0.79,-0.15,-127.9284,-269.9566,-43.456599999999995,175,75
2026-05-09 15:09:13.744,4,-0.65,0.73,-0.42,-109.3384,-253.2466,-56.86659999999999,175,75
2026-05-09 15:09:13.744,4,-0.64,0.73,-0.59,-118.53840000000001,-147.7566,-13.756599999999995,175,75
2026-05-09 15:09:13.768,4,-0.7,0.66,-0.69,-143.1784,-4.956600000000002,33.7434,175,75
2026-05-09 15:09:13.768,4,-0.56,0.45,-0.55,-149.14839999999998,73.0334,47.0934,175,75
2026-05-09 15:09:13.777,4,-0.25,0.17,-0.24,-160.3084,121.81339999999999,77.21340000000001,175,75
2026-05-09 15:09:13.799,4,0.04,-0.41,0.03,-181.09839999999997,91.2634,104.16340000000001,175,75
2026-05-09 15:09:13.809,4,0.13,-0.72,0.12,-193.1184,70.8334,106.85340000000001,175,75
2026-05-09 15:09:13.821,4,0.28,-1.0,0.22,-218.1784,57.053399999999996,101.24340000000001,175,75
2026-05-09 15:09:13.839,4,0.41,-1.08,0.28,-252.1384,45.90339999999999,93.2534,175,75
2026-05-09 15:09:13.844,4,0.47,-1.06,0.28,-270.97839999999997,47.3634,89.96340000000001,175,75
2026-05-09 15:09:13.852,4,0.58,-1.18,0.21,-275.5584,70.1034,91.3634,175,75
2026-05-09 15:09:13.880,4,0.71,-1.64,0.02,-286.9584,128.58339999999998,107.7634,175,75
2026-05-09 15:09:13.890,4,0.73,-1.85,0.06,-296.7084,170.47339999999997,107.7634,175,75
2026-05-09 15:09:13.902,4,0.78,-2.01,0.16,-314.3384,213.7634,105.7534,175,75
2026-05-09 15:09:13.942,4,1.4,-2.25,0.77,-361.6484,363.4634,35.0234,175,75
2026-05-09 15:09:13.954,4,1.48,-2.44,0.97,-371.9584,391.8734,29.2234,175,75
2026-05-09 15:09:13.968,4,1.49,-2.99,1.45,-370.4984,352.85339999999997,-20.5866,175,75
2026-05-09 15:09:13.979,4,1.25,-3.28,1.64,-353.23839999999996,309.0734,-62.72659999999999,175,75
2026-05-09 15:09:13.990,4,1.01,-3.32,1.75,-368.72839999999997,313.5834,-117.2966,175,75
2026-05-09 15:09:13.997,4,0.88,-3.29,1.86,-401.03839999999997,329.0734,-190.28660000000002,175,75
2026-05-09 15:09:14.008,4,0.81,-3.33,1.99,-426.4084,345.7734,-251.74660000000003,175,75
2026-05-09 15:09:14.040,4,0.36,-3.3,2.11,-435.73839999999996,287.48339999999996,-271.9266,175,75
2026-05-09 15:09:14.040,4,-0.03,-3.32,2.14,-422.4484,247.79339999999996,-270.9566,175,75
2026-05-09 15:09:14.053,4,-0.38,-3.38,2.14,-399.0284,232.97339999999997,-299.4266,175,75
2026-05-09 15:09:14.072,4,-0.67,-3.38,2.09,-374.8884,257.11339999999996,-365.6466,175,75
2026-05-09 15:09:14.072,4,-0.71,-3.18,2.11,-362.3184,295.41339999999997,-423.3966,175,75
2026-05-09 15:09:14.083,4,-0.63,-2.57,2.24,-337.9284,324.4934,-482.78659999999996,175,75
2026-05-09 15:09:14.096,4,-0.59,-2.03,2.38,-310.91839999999996,318.1534,-500.9566,175,75
2026-05-09 15:09:14.106,4,-0.73,-1.45,2.54,-287.0784,284.0734,-503.6966,175,75
2026-05-09 15:09:14.118,4,-0.92,-1.01,2.66,-264.9484,259.86339999999996,-499.61659999999995,175,75
2026-05-09 15:09:14.138,4,-0.69,-0.42,2.73,-241.34839999999997,215.53339999999997,-476.3166,175,75
2026-05-09 15:09:14.149,4,-0.52,0.09,2.8,-258.35839999999996,141.4434,-374.1266,175,75
2026-05-09 15:09:14.170,4,-0.84,0.44,2.3,-243.47839999999997,50.71339999999999,-309.1266,175,75
2026-05-09 15:09:14.180,4,-1.08,0.46,2.14,-211.46839999999997,30.5334,-292.0566,175,75
2026-05-09 15:09:14.191,4,-1.3,0.54,2.16,-190.79839999999996,41.4434,-260.28659999999996,175,75
2026-05-09 15:09:14.201,4,-1.5,0.66,2.25,-169.9484,79.5534,-225.9566,175,75
2026-05-09 15:09:14.212,4,-1.47,0.78,2.37,-147.3184,116.5134,-201.6866,175,75
2026-05-09 15:09:14.212,4,-1.33,0.85,2.45,-128.66840000000002,106.6334,-186.9966,175,75
2026-05-09 15:09:14.235,4,-1.25,0.9,2.47,-106.6484,33.7634,-160.9566,175,75
2026-05-09 15:09:14.235,4,-1.45,0.91,2.4,-82.0184,-38.3066,-129.91660000000002,175,75
2026-05-09 15:09:14.257,4,-1.65,0.86,2.21,-45.7984,-65.9966,-101.0766,175,75
2026-05-09 15:09:14.268,4,-1.58,0.82,2.04,-17.258399999999995,-67.3966,-84.97659999999999,175,75
2026-05-09 15:09:14.297,4,-1.47,0.77,1.79,33.2216,-115.9966,-33.696600000000004,175,75
2026-05-09 15:09:14.306,4,-1.53,0.66,1.68,66.8216,-136.78660000000002,-2.666599999999999,175,75
2026-05-09 15:09:14.330,4,-1.49,0.51,1.49,112.61160000000001,-166.2966,25.8134,175,75
2026-05-09 15:09:14.330,4,-1.46,0.47,1.42,126.0316,-181.1766,38.433400000000006,175,75
2026-05-09 15:09:14.349,4,-1.43,0.46,1.31,146.2116,-203.4866,61.1134,175,75
2026-05-09 15:09:14.359,4,-1.43,0.41,1.2,171.64159999999998,-221.53660000000002,83.4334,175,75
2026-05-09 15:09:14.370,4,-1.42,0.34,1.09,200.85160000000002,-233.0066,104.35340000000001,175,75
2026-05-09 15:09:14.381,4,-1.42,0.24,1.02,224.4416,-234.64659999999998,121.30340000000001,175,75
2026-05-09 15:09:14.394,4,-1.4,0.12,0.94,251.70159999999998,-222.6366,146.11339999999998,175,75
2026-05-09 15:09:14.394,4,-1.34,0.02,0.96,276.7616,-204.09660000000002,182.52339999999998,175,75
2026-05-09 15:09:14.405,4,-1.27,-0.05,0.99,290.9116,-194.77660000000003,211.05339999999998,175,75
2026-05-09 15:09:14.431,4,-1.15,-0.16,1.04,310.9716,-188.6166,250.08339999999998,175,75
2026-05-09 15:09:14.454,4,-0.5,-0.9,1.16,388.5916,-131.66660000000002,365.02340000000004,175,75
2026-05-09 15:09:14.469,4,-0.21,-1.45,1.22,435.4816,-97.7566,451.7934,175,75
2026-05-09 15:09:14.480,4,0.03,-1.97,1.21,459.4416,-78.1866,530.5033999999999,175,75
2026-05-09 15:09:14.502,4,0.22,-2.53,1.26,461.33160000000004,-67.3366,604.7134,175,75
2026-05-09 15:09:14.502,4,0.13,-2.83,1.37,444.9916,-64.2266,667.8834,175,75
2026-05-09 15:09:14.516,4,-0.2,-3.11,1.44,395.9116,-3.366600000000002,800.6934,175,75
2026-05-09 15:09:14.527,4,-0.66,-3.43,1.61,324.0816,29.2534,1010.3234,175,75
2026-05-09 15:09:14.545,4,-1.39,-4.03,1.67,264.5716,-1.4166000000000025,1206.4234000000001,175,75
2026-05-09 15:09:14.569,4,-4.16,-7.04,0.84,370.0516,-108.7366,1047.8834,175,75
2026-05-09 15:09:14.575,4,-4.39,-7.93,-0.19,365.6016,216.3834,664.4134,175,75
2026-05-09 15:09:14.596,4,-2.4,-6.55,0.42,336.0916,322.79339999999996,331.5434,175,75
2026-05-09 15:09:14.596,4,-1.65,-4.62,1.35,353.0416,228.33339999999998,194.71339999999998,175,75
2026-05-09 15:09:14.617,4,-1.55,-3.17,2.15,413.5916,48.15339999999999,142.4634,175,75
2026-05-09 15:09:14.628,4,-1.06,-3.11,2.88,432.0016,-113.06660000000001,148.8034,175,75
2026-05-09 15:09:14.641,4,-0.11,-3.33,3.24,145.0516,-383.7366,247.4034,175,75
2026-05-09 15:09:14.662,4,-0.07,-2.86,2.67,-38.72839999999999,-424.95660000000004,266.6634,175,75
2026-05-09 15:09:14.673,4,0.11,-2.53,2.16,-95.12839999999998,-492.51660000000004,230.3834,175,75
2026-05-09 15:09:14.684,4,0.01,-2.3,1.58,-72.62839999999998,-619.9566,168.43339999999998,175,75
2026-05-09 15:09:14.686,4,-0.23,-2.14,0.99,-18.968400000000003,-687.3966,113.6134,175,75
2026-05-09 15:09:14.712,4,-0.44,-1.88,-0.05,66.2716,-702.0266,-49.1866,175,75
2026-05-09 15:09:14.724,4,-0.77,-1.45,-0.29,95.4216,-738.2466000000001,-166.13660000000002,175,75
2026-05-09 15:09:14.734,4,-1.2,-1.0,-0.42,132.1916,-763.3666000000001,-252.4766,175,75
2026-05-09 15:09:14.746,4,-1.57,-0.55,-0.64,173.41160000000002,-788.3666000000001,-343.5766,175,75
2026-05-09 15:09:14.769,4,-2.28,0.57,-1.2,196.8816,-660.9266,-514.9766,175,75
2026-05-09 15:09:14.781,4,-0.58,1.98,-1.36,119.6316,-408.0666,-273.4566,175,75
2026-05-09 15:09:14.792,4,-1.75,2.71,-1.91,83.2216,-139.16660000000002,-16.386599999999998,175,75
2026-05-09 15:09:14.804,4,-2.2,2.56,-2.05,120.1816,126.93339999999999,16.053400000000003,175,75
2026-05-09 15:09:14.815,4,-1.42,1.8,-1.74,148.10160000000002,383.8834,43.193400000000004,175,75
2026-05-09 15:09:14.835,4,-0.37,0.77,-0.24,29.571600000000004,524.3134,106.91340000000001,175,75
2026-05-09 15:09:14.849,4,-0.19,0.82,0.23,-33.9084,457.79339999999996,84.4734,175,75
2026-05-09 15:09:14.854,4,-0.05,0.92,0.48,-56.898399999999995,369.4334,67.5234,175,75
2026-05-09 15:09:14.879,4,0.03,0.9,0.87,-71.40839999999999,129.6134,32.0934,175,75
2026-05-09 15:09:14.892,4,-0.03,0.75,0.92,-91.5884,0.5333999999999968,-1.6265999999999998,175,75
2026-05-09 15:09:14.913,4,-0.11,0.68,0.82,-123.96839999999999,-117.1466,-36.1366,175,75
2026-05-09 15:09:14.925,4,-0.21,0.7,0.67,-143.96839999999997,-186.90660000000003,-54.2466,175,75
2026-05-09 15:09:14.925,4,-0.35,0.77,0.51,-156.70839999999998,-234.83659999999998,-63.8866,175,75
2026-05-09 15:09:14.949,4,-0.58,0.9,0.21,-172.3184,-219.83659999999998,-36.0166,175,75
2026-05-09 15:09:14.949,4,-0.62,0.89,0.08,-179.45839999999998,-162.6966,-8.0866,175,75
2026-05-09 15:09:14.967,4,-0.6,0.79,0.02,-188.41839999999996,-74.1666,22.703400000000002,175,75
2026-05-09 15:09:14.978,4,-0.49,0.48,0.07,-201.52839999999998,53.21339999999999,57.46340000000001,175,75
2026-05-09 15:09:14.992,4,-0.45,0.29,0.12,-206.89839999999998,104.5534,70.2034,175,75
2026-05-09 15:09:15.019,4,-0.32,-0.37,0.16,-205.3084,202.3634,94.10340000000001,175,75
2026-05-09 15:09:15.029,4,-0.17,-0.76,0.06,-196.16839999999996,241.08339999999998,97.6434,175,75
2026-05-09 15:09:15.040,4,0.05,-1.25,-0.12,-179.08839999999998,283.1534,96.4834,175,75
2026-05-09 15:09:15.040,4,0.15,-1.56,-0.22,-164.8184,296.9334,92.33340000000001,175,75
2026-05-09 15:09:15.052,4,0.11,-1.91,-0.23,-161.77839999999998,301.5734,87.88340000000001,175,75
2026-05-09 15:09:15.065,4,0.02,-2.21,-0.17,-174.8884,345.9034,99.96340000000001,175,75
2026-05-09 15:09:15.075,4,0.04,-2.57,-0.05,-209.39839999999998,425.16339999999997,134.6534,175,75
2026-05-09 15:09:15.089,4,0.14,-2.9,0.14,-271.8384,504.4334,183.1334,175,75
2026-05-09 15:09:15.101,4,0.11,-3.03,0.3,-324.9484,530.7734,207.0934,175,75
2026-05-09 15:09:15.101,4,-0.07,-2.98,0.46,-339.4584,507.1834,199.77339999999998,175,75
2026-05-09 15:09:15.124,4,-0.38,-2.9,0.66,-271.16839999999996,378.6434,110.3234,175,75
2026-05-09 15:09:15.134,4,-1.43,-2.88,0.52,-168.35840000000002,341.9934,-0.5865999999999971,175,75
2026-05-09 15:09:15.162,4,-1.19,-2.52,0.87,-225.4984,489.3134,-225.5266,175,75
2026-05-09 15:09:15.173,4,-0.99,-2.36,0.97,-239.8184,492.66339999999997,-237.17660000000004,175,75
2026-05-09 15:09:15.173,4,-0.84,-2.27,1.02,-233.1784,487.0534,-219.6766,175,75
2026-05-09 15:09:15.186,4,-0.75,-2.21,1.08,-217.3884,464.8034,-193.0866,175,75
2026-05-09 15:09:15.195,4,-0.77,-2.13,1.17,-197.7484,433.8234,-178.63660000000002,175,75
2026-05-09 15:09:15.209,4,-0.88,-2.02,1.27,-182.5684,398.8234,-197.9066,175,75
2026-05-09 15:09:15.220,4,-0.97,-1.92,1.36,-171.64839999999998,381.9934,-238.94660000000002,175,75
2026-05-09 15:09:15.230,4,-0.93,-1.86,1.46,-166.34839999999997,381.3234,-282.78659999999996,175,75
2026-05-09 15:09:15.252,4,-0.69,-1.77,1.6,-169.27839999999998,363.0934,-320.40659999999997,175,75
2026-05-09 15:09:15.266,4,-0.39,-1.47,1.72,-186.89839999999998,276.6934,-333.0266,175,75
2026-05-09 15:09:15.278,4,-0.17,-1.22,1.76,-202.0784,225.47339999999997,-307.1766,175,75
2026-05-09 15:09:15.288,4,-0.05,-0.87,1.73,-226.83839999999998,171.08339999999998,-231.44660000000002,175,75
2026-05-09 15:09:15.298,4,-0.34,-0.52,1.38,-225.97839999999997,125.0434,-165.5866,175,75
2026-05-09 15:09:15.311,4,-0.38,-0.42,1.25,-200.91839999999996,100.04339999999999,-166.9266,175,75
2026-05-09 15:09:15.333,4,-0.32,-0.16,1.35,-173.35840000000002,7.543399999999998,-153.0866,175,75
2026-05-09 15:09:15.349,4,-0.36,0.04,1.36,-180.1284,-29.586600000000004,-134.5566,175,75
2026-05-09 15:09:15.359,4,-0.4,0.23,1.34,-187.6284,-56.1766,-118.2066,175,75
2026-05-09 15:09:15.359,4,-0.45,0.42,1.32,-189.5784,-77.8166,-102.96659999999999,175,75
2026-05-09 15:09:15.370,4,-0.53,0.62,1.32,-180.7384,-92.8866,-81.3866,175,75
2026-05-09 15:09:15.394,4,-0.61,0.86,1.3,-144.45839999999998,-75.8066,-42.9666,175,75
2026-05-09 15:09:15.405,4,-0.58,0.94,1.28,-122.4484,-51.6666,-23.816599999999998,175,75
2026-05-09 15:09:15.417,4,-0.51,0.95,1.25,-106.28840000000001,-29.836600000000004,-6.1966,175,75
2026-05-09 15:09:15.431,4,-0.46,0.91,1.21,-97.25840000000001,-15.076600000000003,2.9434000000000005,175,75
2026-05-09 15:09:15.431,4,-0.45,0.88,1.19,-92.62839999999998,-7.396600000000003,7.583400000000001,175,75
2026-05-09 15:09:15.446,4,-0.46,0.88,1.19,-86.46839999999999,0.6533999999999978,13.683400000000002,175,75
2026-05-09 15:09:15.456,4,-0.47,0.88,1.2,-80.7384,4.073399999999996,15.443400000000002,175,75
2026-05-09 15:09:15.485,4,-0.46,0.94,1.24,-73.1184,7.053399999999996,21.8534,175,75
2026-05-09 15:09:15.506,4,-0.43,0.96,1.21,-69.5784,34.6134,34.9634,175,75
2026-05-09 15:09:15.518,4,-0.4,0.95,1.18,-69.27839999999999,52.85339999999999,38.9834,175,75
2026-05-09 15:09:15.541,4,-0.18,0.92,1.22,-65.18839999999999,100.2234,46.2434,175,75
2026-05-09 15:09:15.552,4,-0.11,0.93,1.27,-64.5184,104.68339999999999,46.8534,175,75
2026-05-09 15:09:15.577,4,-0.05,1.0,1.35,-67.25840000000001,95.1034,42.5834,175,75
2026-05-09 15:09:15.577,4,-0.05,1.06,1.38,-70.4284,87.6634,40.2034,175,75
2026-05-09 15:09:15.595,4,-0.05,1.11,1.39,-73.84839999999998,82.4834,40.5734,175,75
2026-05-09 15:09:15.595,4,-0.04,1.16,1.39,-74.9484,82.6634,45.0234,175,75
2026-05-09 15:09:15.606,4,0.0,1.19,1.37,-70.9184,88.2734,55.513400000000004,175,75
2026-05-09 15:09:15.632,4,0.05,1.18,1.31,-59.5784,87.3634,68.3134,175,75
2026-05-09 15:09:15.642,4,0.1,1.15,1.24,-38.2984,75.65339999999999,89.7734,175,75
2026-05-09 15:09:15.653,4,0.07,1.08,1.19,-13.788399999999996,73.5234,118.9834,175,75
2026-05-09 15:09:15.679,4,0.03,1.04,1.2,7.371600000000001,85.90339999999999,152.1534,175,75
2026-05-09 15:09:15.679,4,0.04,0.99,1.23,24.751600000000003,103.5234,180.2634,175,75
2026-05-09 15:09:15.689,4,0.08,0.87,1.28,52.2516,124.19340000000001,217.0334,175,75
2026-05-09 15:09:15.701,4,0.13,0.71,1.33,82.80160000000001,129.4334,252.8234,175,75
2026-05-09 15:09:15.712,4,0.17,0.55,1.36,100.36160000000001,127.5434,278.4934,175,75
2026-05-09 15:09:15.722,4,0.2,0.3,1.39,117.3716,120.8334,310.7534,175,75
2026-05-09 15:09:15.722,4,0.23,0.07,1.39,131.0916,112.7934,334.2234,175,75
2026-05-09 15:09:15.754,4,0.17,-0.49,1.41,167.3116,125.47339999999998,388.4934,175,75
2026-05-09 15:09:15.780,4,0.08,-1.14,1.65,185.3616,176.7534,446.6034,175,75
2026-05-09 15:09:15.790,4,-0.04,-1.32,1.75,183.5916,184.1934,461.2434,175,75
2026-05-09 15:09:15.790,4,-0.21,-1.52,1.92,182.3116,181.14339999999999,479.3534,175,75
2026-05-09 15:09:15.802,4,-0.31,-1.7,2.05,190.79160000000002,174.3134,495.20340000000004,175,75
2026-05-09 15:09:15.825,4,-0.35,-1.91,2.19,210.72160000000002,159.8634,508.5534,175,75
2026-05-09 15:09:15.825,4,-0.39,-2.21,2.52,248.96159999999998,102.54339999999999,508.3734,175,75
2026-05-09 15:09:15.839,4,-0.59,-2.21,2.81,266.15160000000003,22.483399999999996,478.3734,175,75
2026-05-09 15:09:15.863,4,-1.51,-1.43,3.14,284.2616,-175.4466,258.6134,175,75
2026-05-09 15:09:15.867,4,-1.59,-1.13,3.04,266.8216,-287.08660000000003,215.5734,175,75
2026-05-09 15:09:15.875,4,-1.52,-0.95,2.76,249.9916,-357.57660000000004,205.14339999999999,175,75
2026-05-09 15:09:15.908,4,-1.24,-1.61,1.6,267.0716,-203.6766,276.5434,175,75
2026-05-09 15:09:15.913,4,-0.93,-2.08,1.56,259.6316,-85.31660000000001,305.20340000000004,175,75
2026-05-09 15:09:15.922,4,-0.57,-2.38,1.9,242.98160000000001,-33.796600000000005,331.3634,175,75
2026-05-09 15:09:15.942,4,-0.42,-2.51,2.56,256.6416,-143.3666,308.7434,175,75
2026-05-09 15:09:15.955,4,-1.01,-2.55,2.77,299.9916,-219.22660000000002,249.3534,175,75
2026-05-09 15:09:15.963,4,-1.04,-2.71,2.56,303.1616,-216.41660000000002,190.2034,175,75
2026-05-09 15:09:15.974,4,-0.81,-2.72,2.24,270.4816,-233.1266,151.7934,175,75
2026-05-09 15:09:16.004,4,-0.8,-2.12,1.64,275.9716,-310.8066,110.02340000000001,175,75
2026-05-09 15:09:16.014,4,-0.83,-1.94,1.47,298.1616,-341.0566,80.6934,175,75
2026-05-09 15:09:16.023,4,-0.82,-1.83,1.27,311.4616,-354.1666,27.4034,175,75
2026-05-09 15:09:16.049,4,-0.38,-1.6,0.82,283.2916,-306.0566,-90.22659999999999,175,75
2026-05-09 15:09:16.064,4,-0.17,-1.29,0.62,264.9316,-307.6966,-122.11659999999999,175,75
2026-05-09 15:09:16.074,4,0.08,-0.89,0.58,257.0716,-310.6866,-102.84659999999998,175,75
2026-05-09 15:09:16.085,4,0.01,-0.4,0.51,231.9416,-281.4766,-37.596599999999995,175,75
2026-05-09 15:09:16.085,4,-0.11,-0.19,0.38,215.0516,-246.2366,-30.036599999999996,175,75
2026-05-09 15:09:16.096,4,-0.13,-0.08,0.28,195.85160000000002,-217.57659999999998,-49.91659999999999,175,75
2026-05-09 15:09:16.106,4,0.01,-0.05,0.24,174.8716,-206.84660000000002,-61.316599999999994,175,75
2026-05-09 15:09:16.119,4,0.0,0.09,0.14,147.98160000000001,-218.7366,-58.69659999999999,175,75
2026-05-09 15:09:16.134,4,-0.16,0.27,0.05,129.3816,-229.64659999999998,-60.4666,175,75
2026-05-09 15:09:16.165,4,-0.37,0.74,-0.32,50.66160000000001,-239.09660000000002,-60.03659999999999,175,75
2026-05-09 15:09:16.177,4,-0.5,0.89,-0.47,20.241600000000005,-251.66660000000002,-56.25659999999999,175,75
2026-05-09 15:09:16.230,4,-0.11,1.14,-0.51,-47.6284,-72.1466,-1.9865999999999993,175,75
2026-05-09 15:09:16.241,4,-0.01,1.04,-0.47,-67.74839999999999,-88.67660000000001,12.643400000000002,175,75
2026-05-09 15:09:16.270,4,-0.63,0.58,-0.46,-155.6784,-60.6266,13.373400000000002,175,75
2026-05-09 15:09:16.281,4,-1.22,0.64,-0.5,-160.0084,102.4834,-3.516599999999997,175,75
2026-05-09 15:09:16.292,4,0.63,0.35,-0.88,-158.90839999999997,189.1334,-13.0866,175,75
2026-05-09 15:09:16.303,4,1.12,0.09,-0.38,-184.5784,110.2934,53.6134,175,75
2026-05-09 15:09:16.305,4,0.22,-0.12,0.14,-187.1984,102.79339999999999,19.773400000000002,175,75
2026-05-09 15:09:16.329,4,0.23,-0.25,0.61,-190.2484,138.15339999999998,49.4134,175,75
2026-05-09 15:09:16.339,4,0.66,-0.64,0.63,-214.14839999999998,51.6934,24.3534,175,75
2026-05-09 15:09:16.351,4,0.64,-0.96,0.71,-235.1284,-78.8566,17.3334,175,75
2026-05-09 15:09:16.362,4,0.12,-1.16,0.64,-262.5684,-152.9466,30.9934,175,75
2026-05-09 15:09:16.385,4,0.25,-1.63,0.03,-314.0284,-43.4966,28.1934,175,75
2026-05-09 15:09:16.406,4,0.8,-1.97,-0.01,-336.9584,124.6134,63.373400000000004,175,75
2026-05-09 15:09:16.418,4,0.68,-2.16,0.08,-337.8684,206.08339999999998,77.5834,175,75
2026-05-09 15:09:16.429,4,0.57,-2.39,0.35,-348.1784,305.7134,98.4334,175,75
2026-05-09 15:09:16.442,4,0.48,-2.59,0.69,-365.91839999999996,375.16339999999997,122.4034,175,75
2026-05-09 15:09:16.482,4,0.56,-3.16,1.37,-345.4284,295.04339999999996,-64.55659999999999,175,75
2026-05-09 15:09:16.496,4,0.92,-2.93,1.56,-374.6984,318.4634,-142.72660000000002,175,75
2026-05-09 15:09:16.506,4,1.38,-2.59,1.89,-371.7084,309.3734,-137.47660000000002,175,75
2026-05-09 15:09:16.520,4,1.26,-2.38,1.9,-367.1384,295.10339999999997,-112.90659999999998,175,75
2026-05-09 15:09:16.539,4,0.77,-2.45,1.77,-368.72839999999997,357.48339999999996,-157.9666,175,75
2026-05-09 15:09:16.564,4,0.69,-2.95,1.93,-368.47839999999997,426.5734,-236.92660000000004,175,75
2026-05-09 15:09:16.594,4,0.25,-3.47,2.24,-373.29839999999996,340.22339999999997,-237.11660000000003,175,75
2026-05-09 15:09:16.594,4,-0.25,-3.8,2.35,-341.8384,248.46339999999998,-264.3066,175,75
2026-05-09 15:09:16.607,4,-0.97,-4.07,2.35,-301.8384,212.85340000000002,-319.6766,175,75
2026-05-09 15:09:16.620,4,-1.5,-3.94,2.37,-285.0684,236.8734,-435.03659999999996,175,75
2026-05-09 15:09:16.631,4,-1.48,-3.26,2.5,-308.53839999999997,262.42339999999996,-547.9666,175,75
2026-05-09 15:09:16.643,4,-1.25,-2.61,2.68,-324.2784,261.4434,-596.1365999999999,175,75
2026-05-09 15:09:16.654,4,-1.13,-1.8,2.86,-311.4684,218.33339999999998,-597.2366,175,75
2026-05-09 15:09:16.662,4,-1.19,-1.34,2.8,-298.78839999999997,153.09339999999997,-590.0366,175,75
2026-05-09 15:09:16.678,4,-1.32,-0.86,2.65,-283.9084,120.2934,-586.0766,175,75
2026-05-09 15:09:16.693,4,-1.14,-0.57,2.44,-270.5584,115.2934,-585.2266,175,75
2026-05-09 15:09:16.693,4,-0.47,-0.35,2.35,-260.6784,89.9834,-561.4466,175,75
2026-05-09 15:09:16.703,4,-0.36,-0.04,2.39,-276.8384,49.68339999999999,-432.29659999999996,175,75
2026-05-09 15:09:16.714,4,-1.0,0.18,2.18,-274.2784,68.0934,-302.59659999999997,175,75
2026-05-09 15:09:16.724,4,-1.61,0.14,2.05,-217.4484,172.54340000000002,-267.66659999999996,175,75
2026-05-09 15:09:16.751,4,-1.62,0.3,2.42,-118.59839999999998,237.11339999999996,-306.5066,175,75
2026-05-09 15:09:16.751,4,-1.52,0.49,2.68,-83.2984,213.03339999999997,-289.73659999999995,175,75
2026-05-09 15:09:16.763,4,-1.49,0.81,2.89,-48.538399999999996,142.3634,-238.5166,175,75
2026-05-09 15:09:16.774,4,-1.62,1.0,2.89,-16.958399999999997,40.0434,-200.7066,175,75
2026-05-09 15:09:16.803,4,-1.77,0.96,2.53,22.611600000000003,-130.1366,-149.06660000000002,175,75
2026-05-09 15:09:16.814,4,-1.75,0.88,2.23,35.601600000000005,-149.22660000000002,-113.4566,175,75
2026-05-09 15:09:16.825,4,-1.71,0.85,2.01,51.881600000000006,-139.5866,-83.02659999999999,175,75
2026-05-09 15:09:16.825,4,-1.66,0.86,1.84,72.3116,-114.4066,-53.6366,175,75
2026-05-09 15:09:16.837,4,-1.59,0.89,1.73,95.1816,-84.09660000000001,-25.3466,175,75
2026-05-09 15:09:16.860,4,-1.4,0.87,1.62,159.3216,-37.946600000000004,48.6134,175,75
2026-05-09 15:09:16.872,4,-1.33,0.79,1.61,185.1816,-48.2466,74.4734,175,75
2026-05-09 15:09:16.900,4,-1.36,0.39,1.48,249.9916,-139.22660000000002,133.1334,175,75
2026-05-09 15:09:16.912,4,-1.37,0.23,1.38,274.8116,-165.8666,148.9234,175,75
2026-05-09 15:09:16.923,4,-1.33,0.13,1.3,296.8816,-185.6866,159.83339999999998,175,75
2026-05-09 15:09:16.923,4,-1.28,0.05,1.21,318.2916,-202.08659999999998,167.52339999999998,175,75
2026-05-09 15:09:16.934,4,-1.26,-0.0,1.14,341.21160000000003,-211.96660000000003,176.6034,175,75
2026-05-09 15:09:16.948,4,-1.21,-0.04,1.04,377.2516,-211.1766,195.6934,175,75
2026-05-09 15:09:16.971,4,-1.01,-0.31,0.97,475.2416,-176.66660000000002,265.9934,175,75
2026-05-09 15:09:16.986,4,-0.92,-0.47,0.99,504.5016,-162.33659999999998,293.4934,175,75
2026-05-09 15:09:17.012,4,-0.68,-1.0,1.14,566.0916,-173.0066,367.52340000000004,175,75
2026-05-09 15:09:17.013,4,-0.54,-1.39,1.28,591.7016,-220.3866,400.8134,175,75
2026-05-09 15:09:17.029,4,-0.64,-1.81,1.42,621.0316,-291.7866,439.1634,175,75
2026-05-09 15:09:17.039,4,-0.92,-2.25,1.46,652.3716000000001,-340.38660000000004,491.3034,175,75
2026-05-09 15:09:17.052,4,-1.16,-2.82,1.43,677.0116,-361.4766,558.0734,175,75
2026-05-09 15:09:17.059,4,-1.34,-3.41,1.49,699.7516,-387.6966,598.3134,175,75
2026-05-09 15:09:17.079,4,-1.6,-4.22,1.61,734.0816,-436.6666,626.4234,175,75
2026-05-09 15:09:17.089,4,-2.19,-5.77,1.84,789.6916,-492.27660000000003,646.4834000000001,175,75
2026-05-09 15:09:17.102,4,-3.07,-7.48,2.05,793.1016,-480.8666,666.7234,175,75
2026-05-09 15:09:17.114,4,-3.47,-8.27,2.03,711.0316,-441.7266,643.0134,175,75
2026-05-09 15:09:17.131,4,-1.89,-8.07,0.9,425.2416,-133.4966,506.6634,175,75
2026-05-09 15:09:17.143,4,-1.47,-6.38,0.52,350.9116,-225.8066,418.2534,175,75
2026-05-09 15:09:17.153,4,-3.21,-4.49,0.25,409.3216,-408.3666,205.6334,175,75
2026-05-09 15:09:17.176,4,-3.12,-3.5,0.2,382.9816,-260.5066,-106.0766,175,75
2026-05-09 15:09:17.189,4,-1.75,-3.6,0.49,306.4616,-169.58659999999998,-177.47660000000002,175,75
2026-05-09 15:09:17.200,4,-0.77,-3.28,0.85,249.20159999999998,-143.6766,-122.6666,175,75
2026-05-09 15:09:17.212,4,-0.37,-2.87,1.18,247.0716,-248.3066,-63.206599999999995,175,75
2026-05-09 15:09:17.224,4,-0.57,-2.62,1.37,277.4916,-377.63660000000004,-25.4066,175,75
2026-05-09 15:09:17.235,4,-1.0,-2.52,1.37,278.4116,-463.7966,0.6934000000000005,175,75
2026-05-09 15:09:17.247,4,-1.37,-2.36,1.24,220.79160000000002,-547.6966,3.493400000000001,175,75
2026-05-09 15:09:17.258,4,-1.76,-2.15,0.86,122.80160000000001,-679.1666,-45.28659999999999,175,75
2026-05-09 15:09:17.270,4,-2.39,-1.83,0.02,8.4116,-692.5766,-103.33659999999999,175,75
2026-05-09 15:09:17.281,4,-2.7,-1.47,-0.58,-37.6284,-630.3166,-138.94660000000002,175,75
2026-05-09 15:09:17.303,4,-3.09,-0.42,-1.63,68.83160000000001,-293.7966,-308.5166,175,75
2026-05-09 15:09:17.308,4,-2.91,-0.04,-1.64,175.3016,-120.6866,-359.5566,175,75
2026-05-09 15:09:17.347,4,0.35,1.63,1.1,362.8016,74.1334,-97.3566,175,75
2026-05-09 15:09:17.347,4,-0.84,1.97,0.68,165.4216,3.3333999999999975,205.8134,175,75
2026-05-09 15:09:17.373,4,-1.51,0.69,-0.14,222.3116,-28.796600000000005,134.6534,175,75
2026-05-09 15:09:17.381,4,-1.23,0.02,-0.07,268.1616,-27.576600000000003,154.5334,175,75
2026-05-09 15:09:17.402,4,-1.08,-0.1,0.12,183.04160000000002,-68.67660000000001,160.14339999999999,175,75
2026-05-09 15:09:17.417,4,-0.91,0.6,0.11,17.071600000000004,-164.16660000000002,97.33340000000001,175,75
2026-05-09 15:09:17.439,4,-0.93,0.92,-0.0,17.131600000000006,-184.89659999999998,102.52340000000001,175,75
2026-05-09 15:09:17.449,4,-0.97,1.03,-0.16,38.77160000000001,-119.8966,142.4034,175,75
2026-05-09 15:09:17.462,4,-0.85,0.93,-0.17,17.8016,-48.4966,163.3134,175,75
2026-05-09 15:09:17.480,4,-0.67,0.81,-0.08,-8.058399999999992,8.333399999999997,177.8834,175,75
2026-05-09 15:09:17.492,4,-0.5,0.63,0.1,-23.2984,42.4234,189.6534,175,75
2026-05-09 15:09:17.505,4,-0.36,0.43,0.27,-33.5984,42.663399999999996,193.3734,175,75
2026-05-09 15:09:17.520,4,-0.29,0.28,0.36,-43.118399999999994,22.973399999999998,186.9734,175,75
2026-05-09 15:09:17.542,4,-0.18,0.19,0.52,-82.0184,-101.3566,134.4734,175,75
2026-05-09 15:09:17.547,4,-0.18,0.26,0.51,-88.47840000000001,-124.4066,126.5434,175,75
2026-05-09 15:09:17.556,4,-0.19,0.33,0.48,-91.77839999999999,-138.1866,125.1434,175,75
2026-05-09 15:09:17.571,4,-0.17,0.32,0.43,-95.18839999999999,-136.0566,129.6534,175,75
2026-05-09 15:09:17.581,4,-0.13,0.28,0.41,-98.84839999999998,-129.6466,135.5734,175,75
2026-05-09 15:09:17.594,4,-0.06,0.2,0.36,-103.59839999999998,-117.20660000000001,139.3534,175,75
2026-05-09 15:09:17.605,4,0.02,0.08,0.28,-108.90839999999999,-103.3666,140.5034,175,75
2026-05-09 15:09:17.615,4,0.12,-0.07,0.18,-111.40839999999999,-82.8866,141.5434,175,75
2026-05-09 15:09:17.630,4,0.3,-0.36,0.0,-110.3684,-46.2966,144.5334,175,75
2026-05-09 15:09:17.642,4,0.64,-0.98,-0.33,-103.2984,24.803399999999996,153.8034,175,75
2026-05-09 15:09:17.653,4,0.7,-1.47,-0.47,-110.55839999999999,71.6334,157.9434,175,75
2026-05-09 15:09:17.671,4,0.61,-1.74,-0.48,-135.7384,144.1934,154.9634,175,75
2026-05-09 15:09:17.684,4,0.58,-2.01,-0.16,-203.84839999999997,382.66339999999997,125.02340000000001,175,75
2026-05-09 15:09:17.694,4,0.71,-1.99,0.19,-262.8084,502.1834,98.6134,175,75
2026-05-09 15:09:17.710,4,0.72,-1.87,0.42,-309.4584,551.2633999999999,82.7034,175,75
2026-05-09 15:09:17.722,4,0.66,-1.81,0.54,-322.1984,569.3734,69.4734,175,75
2026-05-09 15:09:17.735,4,0.61,-1.9,0.65,-299.2784,584.4934,55.2034,175,75
2026-05-09 15:09:17.758,4,0.51,-2.66,1.46,-217.7484,589.1934,34.1634,175,75
2026-05-09 15:09:17.791,4,-0.43,-2.47,2.35,-108.47840000000001,349.2534,-160.8966,175,75
2026-05-09 15:09:17.802,4,-0.64,-2.05,2.46,-72.0784,324.98339999999996,-309.97659999999996,175,75
2026-05-09 15:09:17.812,4,-0.46,-1.73,2.48,-85.7384,291.5734,-422.59659999999997,175,75
2026-05-09 15:09:17.832,4,0.08,-1.36,2.48,-129.9484,234.0134,-486.50659999999993,175,75
2026-05-09 15:09:17.843,4,1.02,-0.74,2.53,-204.5784,133.09339999999997,-342.29659999999996,175,75
2026-05-09 15:09:17.853,4,0.46,-0.42,1.93,-246.46839999999997,94.0034,-190.6466,175,75
2026-05-09 15:09:17.853,4,-0.04,-0.61,1.37,-219.27839999999998,153.58339999999998,-133.88660000000002,175,75
2026-05-09 15:09:17.878,4,0.12,-1.01,1.35,-138.47840000000002,226.5734,-143.0266,175,75
2026-05-09 15:09:17.892,4,0.07,-0.78,1.67,-113.2984,184.8034,-143.5766,175,75
2026-05-09 15:09:17.927,4,0.09,0.07,1.9,-107.56840000000001,111.9934,-110.89659999999999,175,75
2026-05-09 15:09:17.939,4,0.15,0.28,1.85,-98.1184,82.1134,-108.27659999999999,175,75
2026-05-09 15:09:17.939,4,0.23,0.37,1.76,-81.34839999999998,53.763400000000004,-102.59659999999998,175,75
2026-05-09 15:09:17.951,4,0.25,0.42,1.64,-63.05839999999999,21.3234,-90.4066,175,75
2026-05-09 15:09:17.968,4,0.15,0.47,1.56,-49.2084,-6.4166000000000025,-81.3166,175,75
2026-05-09 15:09:17.993,4,-0.1,0.71,1.49,-15.368399999999994,-20.196600000000004,-67.41659999999999,175,75
2026-05-09 15:09:18.005,4,-0.12,0.78,1.48,3.651600000000002,-23.6766,-58.08659999999999,175,75
2026-05-09 15:09:18.024,4,-0.13,0.79,1.44,17.491600000000005,-28.2466,-54.55659999999999,175,75
2026-05-09 15:09:18.024,4,-0.12,0.78,1.4,27.071600000000004,-29.096600000000002,-54.126599999999996,175,75
2026-05-09 15:09:18.033,4,-0.09,0.77,1.35,36.4016,-24.776600000000002,-52.72659999999999,175,75
2026-05-09 15:09:18.041,4,-0.11,0.78,1.33,42.491600000000005,-18.0666,-51.0766,175,75
2026-05-09 15:09:18.053,4,-0.14,0.79,1.33,45.4816,-12.026600000000002,-53.456599999999995,175,75
2026-05-09 15:09:18.062,4,-0.18,0.81,1.35,47.6816,-4.406600000000003,-56.0766,175,75
2026-05-09 15:09:18.073,4,-0.19,0.85,1.37,48.77160000000001,3.7033999999999985,-58.69659999999999,175,75
2026-05-09 15:09:18.091,4,-0.19,0.86,1.39,49.991600000000005,11.873399999999997,-62.41659999999999,175,75
2026-05-09 15:09:18.091,4,-0.18,0.87,1.4,52.8016,18.703399999999995,-66.25659999999999,175,75
2026-05-09 15:09:18.112,4,-0.13,0.86,1.4,58.8316,26.3234,-69.91659999999999,175,75
2026-05-09 15:09:18.128,4,-0.12,0.86,1.4,63.4716,27.483399999999996,-70.83659999999999,175,75
2026-05-09 15:09:18.128,4,-0.14,0.85,1.4,67.9216,27.243399999999994,-73.39659999999999,175,75
2026-05-09 15:09:18.151,4,-0.14,0.85,1.4,70.9116,32.6034,-75.28659999999999,175,75
2026-05-09 15:09:18.151,4,-0.14,0.85,1.41,73.2216,43.4034,-76.0766,175,75
2026-05-09 15:09:18.170,4,-0.05,0.85,1.49,82.19160000000001,67.4834,-75.7066,175,75
2026-05-09 15:09:18.184,4,-0.03,0.83,1.54,89.6916,66.6934,-77.05659999999999,175,75
2026-05-09 15:09:18.195,4,-0.05,0.8,1.55,94.0216,65.3534,-78.33659999999999,175,75
2026-05-09 15:09:18.205,4,-0.07,0.8,1.56,94.3816,68.2134,-75.3466,175,75
2026-05-09 15:09:18.216,4,-0.07,0.82,1.53,93.2916,80.1034,-68.2066,175,75
2026-05-09 15:09:18.228,4,-0.03,0.85,1.52,93.5316,94.3134,-57.236599999999996,175,75
2026-05-09 15:09:18.264,4,0.08,0.84,1.65,121.4016,170.90339999999998,10.573400000000003,175,75
2026-05-09 15:09:18.270,4,0.04,0.8,1.85,145.1816,178.64339999999999,44.71340000000001,175,75
2026-05-09 15:09:18.282,4,0.0,0.76,1.96,160.66160000000002,156.2034,63.373400000000004,175,75
2026-05-09 15:09:18.293,4,-0.04,0.68,2.06,171.9416,112.18339999999999,82.3334,175,75
2026-05-09 15:09:18.321,4,-0.13,0.48,2.04,198.83159999999998,40.413399999999996,132.4634,175,75
2026-05-09 15:09:18.342,4,-0.21,0.08,1.99,267.7416,-13.916600000000003,216.7934,175,75
2026-05-09 15:09:18.357,4,-0.21,-0.23,1.96,303.2216,-39.03660000000001,255.3834,175,75
2026-05-09 15:09:18.357,4,-0.22,-0.61,1.94,333.65160000000003,-66.4166,291.1834,175,75
2026-05-09 15:09:18.367,4,-0.28,-0.95,1.96,354.08160000000004,-90.8066,320.8734,175,75
2026-05-09 15:09:18.378,4,-0.3,-1.38,2.02,374.3816,-129.8966,354.90340000000003,175,75
2026-05-09 15:09:18.393,4,-0.42,-1.9,2.1,399.08160000000004,-210.3866,400.3234,175,75
2026-05-09 15:09:18.405,4,-0.73,-2.19,2.22,426.52160000000003,-290.9966,453.9834,175,75
2026-05-09 15:09:18.418,4,-1.08,-2.34,2.38,451.8216,-371.9066,504.71340000000004,175,75
2026-05-09 15:09:18.429,4,-1.85,-2.63,2.7,504.26160000000004,-552.2766,533.3134,175,75
2026-05-09 15:09:18.474,4,-3.17,-4.26,1.77,401.64160000000004,-650.9266,347.15340000000003,175,75
2026-05-09 15:09:18.483,4,-3.34,-3.54,1.14,351.40160000000003,-544.2866,238.55339999999998,175,75
2026-05-09 15:09:18.485,4,-3.21,-3.06,0.7,350.6016,-416.7866,152.2734,175,75
2026-05-09 15:09:18.512,4,-2.38,-2.5,0.46,470.1116,-124.5866,141.5434,175,75
2026-05-09 15:09:18.524,4,-2.02,-2.65,1.02,554.1416,-29.346600000000002,241.05339999999998,175,75
2026-05-09 15:09:18.534,4,-1.92,-2.96,1.53,565.0516,-19.9566,289.0434,175,75
2026-05-09 15:09:18.544,4,-1.93,-3.32,2.0,527.1916,-36.78660000000001,306.6634,175,75
2026-05-09 15:09:18.556,4,-1.87,-3.69,2.35,440.7916,-72.1466,291.0534,175,75
2026-05-09 15:09:18.567,4,-1.65,-3.84,2.4,339.26160000000004,-133.1866,241.6634,175,75
2026-05-09 15:09:18.578,4,-1.31,-3.31,1.6,212.6816,-306.2966,135.6934,175,75
2026-05-09 15:09:18.598,4,-1.58,-2.47,0.79,242.0716,-405.2566,66.6634,175,75
2026-05-09 15:09:18.623,4,-1.31,-2.33,0.38,321.15160000000003,-399.70660000000004,-47.846599999999995,175,75
2026-05-09 15:09:18.635,4,-1.1,-2.28,0.33,319.1416,-388.6166,-77.78659999999999,175,75
2026-05-09 15:09:18.650,4,-0.84,-1.77,0.11,279.5016,-366.2366,-154.06660000000002,175,75
2026-05-09 15:09:18.672,4,-0.7,-1.45,-0.01,269.3216,-377.57660000000004,-192.78660000000002,175,75
2026-05-09 15:09:18.672,4,-0.61,-1.15,-0.11,270.6616,-409.0966,-222.2366,175,75
2026-05-09 15:09:18.683,4,-0.63,-0.83,-0.19,278.2916,-444.95660000000004,-242.9066,175,75
2026-05-09 15:09:18.697,4,-0.23,-0.48,-0.1,276.5216,-476.9666,-225.4066,175,75
2026-05-09 15:09:18.697,4,-0.3,0.19,-0.11,216.8816,-476.5966,-54.36659999999999,175,75
2026-05-09 15:09:18.711,4,-1.12,0.52,-0.84,186.2716,-339.0366,-17.6666,175,75
2026-05-09 15:09:18.736,4,-1.09,0.51,-1.24,198.16160000000002,-219.22660000000002,-68.75659999999999,175,75
2026-05-09 15:09:18.739,4,-0.8,0.6,-1.36,217.1316,-176.2366,-49.00659999999999,175,75
2026-05-09 15:09:18.759,4,-0.7,0.73,-1.46,181.0916,-235.1366,-21.926599999999997,175,75
2026-05-09 15:09:18.804,4,-0.73,1.4,-2.08,-67.25840000000001,-211.72660000000002,23.553400000000003,175,75
2026-05-09 15:09:18.816,4,-0.92,1.59,-2.17,-76.40839999999999,-135.6266,34.5934,175,75
2026-05-09 15:09:18.816,4,-1.74,1.58,-1.55,-79.1484,-73.2466,96.5434,175,75
2026-05-09 15:09:18.829,4,-1.25,1.27,-1.65,-82.62839999999998,139.8634,85.5134,175,75
2026-05-09 15:09:18.839,4,0.39,0.62,-1.88,-115.6184,101.0834,91.24340000000001,175,75
2026-05-09 15:09:18.849,4,-0.23,0.26,-1.17,-155.97840000000002,15.1034,73.6134,175,75
2026-05-09 15:09:18.867,4,-0.17,0.19,-0.6,-167.8684,130.77339999999998,76.3034,175,75
2026-05-09 15:09:18.877,4,0.34,0.26,-0.29,-207.4484,168.64339999999999,113.6834,175,75
2026-05-09 15:09:18.888,4,0.49,0.05,-0.18,-226.95839999999998,107.4234,89.5334,175,75
2026-05-09 15:09:18.900,4,0.71,-0.29,-0.01,-230.4284,-2.026600000000002,64.5334,175,75
2026-05-09 15:09:18.900,4,0.67,-0.58,-0.03,-243.35839999999996,-108.5566,64.71340000000001,175,75
2026-05-09 15:09:18.911,4,0.46,-0.92,-0.23,-259.3384,-158.1266,67.8234,175,75
2026-05-09 15:09:18.930,4,0.41,-1.34,-0.47,-271.16839999999996,-123.4966,83.8634,175,75
2026-05-09 15:09:18.964,4,1.03,-2.28,-0.46,-358.1184,181.9934,108.19340000000001,175,75
2026-05-09 15:09:18.974,4,1.1,-2.52,-0.33,-378.41839999999996,265.8334,100.2634,175,75
2026-05-09 15:09:18.993,4,1.12,-2.89,-0.13,-405.85839999999996,324.4334,120.2634,175,75
2026-05-09 15:09:18.995,4,1.08,-3.31,0.09,-430.85839999999996,386.2634,185.3234,175,75
2026-05-09 15:09:19.028,4,1.25,-3.6,0.99,-456.4684,394.6834,183.61339999999998,175,75
2026-05-09 15:09:19.042,4,-0.38,-3.86,0.91,-354.7584,292.97339999999997,38.0734,175,75
2026-05-09 15:09:19.055,4,-0.1,-4.1,1.1,-346.5884,525.5334,-63.5166,175,75
2026-05-09 15:09:19.059,4,0.14,-3.93,1.53,-350.97839999999997,539.1333999999999,-193.63660000000002,175,75
2026-05-09 15:09:19.100,4,0.47,-3.83,2.48,-385.1884,430.22339999999997,-250.0366,175,75
2026-05-09 15:09:19.100,4,0.15,-4.09,2.48,-419.2784,380.5334,-233.94660000000002,175,75
2026-05-09 15:09:19.113,4,-0.36,-4.36,2.45,-442.8084,331.5034,-234.61660000000003,175,75
2026-05-09 15:09:19.124,4,-1.17,-4.59,2.33,-442.3184,274.5534,-283.7566,175,75
2026-05-09 15:09:19.134,4,-1.83,-4.57,2.14,-425.4984,275.29339999999996,-355.09659999999997,175,75
2026-05-09 15:09:19.145,4,-2.26,-4.31,1.96,-402.8084,310.5334,-447.84659999999997,175,75
2026-05-09 15:09:19.162,4,-2.06,-3.28,2.06,-326.09839999999997,396.6934,-601.2565999999999,175,75
2026-05-09 15:09:19.172,4,-1.81,-2.87,2.27,-279.0284,399.2534,-625.0966,175,75
2026-05-09 15:09:19.204,4,-1.4,-1.78,2.98,-161.22840000000002,319.2534,-638.1466,175,75
2026-05-09 15:09:19.214,4,-1.31,-1.44,3.05,-163.66840000000002,260.8334,-635.6466,175,75
2026-05-09 15:09:19.219,4,-1.29,-1.03,3.01,-205.1884,169.3134,-634.5566,175,75
2026-05-09 15:09:19.233,4,-1.25,-0.73,2.79,-237.9284,97.8534,-617.3566,175,75
2026-05-09 15:09:19.247,4,-1.08,-0.31,2.51,-255.6184,37.4234,-548.6966,175,75
2026-05-09 15:09:19.259,4,-1.23,0.02,2.3,-242.9284,21.5734,-437.41659999999996,175,75
2026-05-09 15:09:19.284,4,-1.77,0.19,2.11,-157.8084,145.35340000000002,-298.2066,175,75
2026-05-09 15:09:19.309,4,-1.33,0.32,2.41,-95.3684,135.04340000000002,-305.34659999999997,175,75
2026-05-09 15:09:19.320,4,-1.17,0.54,2.53,-82.68839999999999,75.04339999999999,-274.3066,175,75
2026-05-09 15:09:19.332,4,-1.17,0.81,2.47,-71.28840000000001,6.933399999999999,-225.6466,175,75
2026-05-09 15:09:19.332,4,-1.27,1.0,2.31,-50.618399999999994,-43.7966,-193.3366,175,75
2026-05-09 15:09:19.342,4,-1.39,1.09,2.12,-21.77839999999999,-78.67660000000001,-159.06660000000002,175,75
2026-05-09 15:09:19.351,4,-1.57,1.1,2.01,-1.9583999999999975,-87.0266,-114.49659999999999,175,75
2026-05-09 15:09:19.362,4,-1.82,1.13,1.98,21.2716,-71.4766,-65.83659999999999,175,75
2026-05-09 15:09:19.385,4,-1.84,1.17,2.02,51.3316,-37.8866,-25.4066,175,75
2026-05-09 15:09:19.385,4,-1.64,1.17,2.05,85.5416,-17.8866,8.9234,175,75
2026-05-09 15:09:19.407,4,-1.39,1.17,2.08,128.4116,-101.2366,71.1134,175,75
2026-05-09 15:09:19.420,4,-1.43,1.11,1.97,151.8216,-171.41660000000002,102.0334,175,75
2026-05-09 15:09:19.444,4,-1.55,0.6,1.66,276.15160000000003,-208.0666,182.0334,175,75
2026-05-09 15:09:19.454,4,-1.5,0.19,1.54,339.4416,-196.47660000000002,221.9134,175,75
2026-05-09 15:09:19.454,4,-1.45,-0.05,1.45,363.77160000000003,-227.14659999999998,254.77339999999998,175,75
2026-05-09 15:09:19.473,4,-1.31,-0.24,1.31,373.71160000000003,-280.5066,270.0834,175,75
2026-05-09 15:09:19.485,4,-1.03,-0.41,1.06,382.7416,-312.63660000000004,247.9434,175,75
2026-05-09 15:09:19.485,4,-0.96,-0.37,0.84,392.3716,-375.9966,210.3834,175,75
2026-05-09 15:09:19.505,4,-1.13,-0.17,0.58,436.70160000000004,-406.2366,165.02339999999998,175,75
2026-05-09 15:09:19.517,4,-1.25,-0.04,0.53,535.7916,-345.6266,169.5934,175,75
2026-05-09 15:09:19.521,4,-1.3,0.08,0.87,656.0316,-184.52660000000003,268.9834,175,75
2026-05-09 15:09:19.540,4,-1.0,-0.38,1.14,715.5416,11.023399999999999,401.6634,175,75
2026-05-09 15:09:19.551,4,-0.5,-0.93,1.55,727.2516,69.9234,455.08340000000004,175,75
2026-05-09 15:09:19.573,4,0.05,-2.4,3.17,738.9616,-161.53660000000002,452.76340000000005,175,75
2026-05-09 15:09:19.596,4,0.52,-2.52,3.28,756.0916,-360.8066,492.27340000000004,175,75
2026-05-09 15:09:19.612,4,-1.72,-3.29,3.36,808.5916,-555.0766,730.8734000000001,175,75
2026-05-09 15:09:19.626,4,-2.49,-4.72,4.51,882.2516,-545.5066,920.9934000000001,175,75
2026-05-09 15:09:19.637,4,-3.17,-9.01,5.71,1035.0516,-738.1866,760.8734000000001,175,75
2026-05-09 15:09:19.649,4,-5.08,-14.42,6.46,963.5316,-1076.1166,467.46340000000004,175,75
2026-05-09 15:09:19.674,4,-1.35,-10.16,2.96,235.79160000000002,-967.5166,-54.00659999999999,175,75
2026-05-09 15:09:19.686,4,-1.05,-7.67,0.87,102.2516,-1088.2466,-37.66659999999999,175,75
2026-05-09 15:09:19.696,4,-2.87,-5.71,-0.1,139.6916,-1204.4066,-103.14659999999999,175,75
2026-05-09 15:09:19.706,4,-4.5,-4.29,-0.94,181.4616,-999.2266,-384.1266,175,75
2026-05-09 15:09:19.716,4,-3.33,-3.77,-1.51,128.1616,-520.1966,-626.3166,175,75
2026-05-09 15:09:19.726,4,-0.68,-3.61,-1.43,70.4816,-178.1266,-680.2866,175,75
2026-05-09 15:09:19.736,4,0.86,-3.28,-0.81,86.9416,-158.0666,-547.0566,175,75
2026-05-09 15:09:19.739,4,0.64,-3.0,-0.22,165.79160000000002,-273.5566,-423.2766,175,75
2026-05-09 15:09:19.761,4,-1.1,-3.48,0.63,171.5816,-311.2366,-327.78659999999996,175,75
2026-05-09 15:09:19.773,4,-1.5,-3.64,0.75,80.9716,-224.52660000000003,-362.0566,175,75
2026-05-09 15:09:19.781,4,-1.72,-3.35,0.83,-11.228399999999993,-148.6766,-441.2566,175,75
2026-05-09 15:09:19.800,4,-1.56,-2.48,0.73,-51.16839999999999,-89.8366,-530.2866,175,75
2026-05-09 15:09:19.813,4,-1.28,-1.78,0.68,-19.698399999999992,-79.1666,-547.5366,175,75
2026-05-09 15:09:19.825,4,-1.22,-1.16,0.62,44.4416,-53.976600000000005,-514.6166,175,75
2026-05-09 15:09:19.835,4,-1.26,-0.73,0.64,111.7616,-15.386600000000003,-422.1166,175,75
2026-05-09 15:09:19.848,4,-1.44,-0.72,0.71,107.0716,-4.226600000000003,-385.34659999999997,175,75
2026-05-09 15:09:19.862,4,-1.78,-0.61,0.86,93.7116,45.773399999999995,-349.1866,175,75
2026-05-09 15:09:19.895,4,-1.77,-0.31,1.24,119.6316,108.3334,-312.72659999999996,175,75
2026-05-09 15:09:19.908,4,-1.66,-0.25,1.41,139.14159999999998,61.383399999999995,-330.5866,175,75
2026-05-09 15:09:19.967,4,-1.3,0.05,1.25,25.181600000000003,-40.7466,-202.2966,175,75
2026-05-09 15:09:19.967,4,-1.39,-0.07,1.14,54.02160000000001,1.573399999999996,-194.3666,175,75
2026-05-09 15:09:19.985,4,-1.19,-0.22,1.13,89.2016,37.4234,-183.3366,175,75
2026-05-09 15:09:19.986,4,-1.07,-0.2,1.23,94.5716,30.3534,-179.06660000000002,175,75
2026-05-09 15:09:20.017,4,-0.87,0.23,1.12,53.351600000000005,-48.1866,-164.5566,175,75
2026-05-09 15:09:20.031,4,-0.88,0.26,0.98,53.2916,-16.786600000000004,-151.31660000000002,175,75
2026-05-09 15:09:20.057,4,-0.7,0.46,1.23,33.961600000000004,45.413399999999996,-121.9266,175,75
2026-05-09 15:09:20.068,4,-0.52,0.5,1.2,33.9016,18.2134,-120.2266,175,75
2026-05-09 15:09:20.082,4,-0.47,0.57,1.14,26.401600000000002,-28.796600000000005,-113.27659999999999,175,75
2026-05-09 15:09:20.093,4,-0.59,0.58,1.0,18.961600000000004,-19.9566,-113.08659999999999,175,75
2026-05-09 15:09:20.117,4,-0.66,0.83,0.98,32.9816,89.1334,-115.2866,175,75
2026-05-09 15:09:20.128,4,-1.05,1.21,1.11,35.5416,92.9134,-76.19659999999999,175,75
2026-05-09 15:09:20.153,4,0.59,0.94,1.27,58.6516,-17.516600000000004,-75.77659999999999,175,75
2026-05-09 15:09:20.167,4,-0.3,1.13,1.32,64.2016,-67.0866,-130.03660000000002,175,75
2026-05-09 15:09:20.183,4,-0.27,1.6,1.05,68.3516,23.703399999999995,-102.84659999999998,175,75
2026-05-09 15:09:20.194,4,0.03,1.7,0.7,78.7116,5.773399999999999,-94.1266,175,75
2026-05-09 15:09:20.218,4,-0.54,2.13,0.46,99.3816,49.373400000000004,-61.0166,175,75
2026-05-09 15:09:20.248,4,0.33,2.33,0.14,73.2916,290.9034,-15.646599999999996,175,75
2026-05-09 15:09:20.259,4,0.24,2.37,0.37,95.36160000000001,323.3334,2.703400000000002,175,75
2026-05-09 15:09:20.291,4,0.4,2.43,0.84,87.1916,278.3334,23.613400000000002,175,75
2026-05-09 15:09:20.310,4,0.54,2.2,0.98,75.5416,156.5734,10.023400000000002,175,75
2026-05-09 15:09:20.325,4,0.73,2.05,0.79,68.2916,110.0434,-11.926599999999997,175,75
2026-05-09 15:09:20.337,4,0.95,2.09,0.38,64.8716,84.07339999999999,-27.966599999999996,175,75
2026-05-09 15:09:20.348,4,0.88,2.16,0.17,60.601600000000005,91.0234,-29.676599999999997,175,75
2026-05-09 15:09:20.361,4,0.54,2.18,0.08,50.9716,144.92340000000002,-21.256599999999995,175,75
2026-05-09 15:09:20.361,4,0.41,2.22,0.16,38.6516,233.40339999999998,-3.456599999999998,175,75
2026-05-09 15:09:20.384,4,0.56,2.17,0.34,30.721600000000002,325.6534,14.293400000000002,175,75
2026-05-09 15:09:20.385,4,0.69,2.02,0.75,30.4816,357.91339999999997,21.303400000000003,175,75
2026-05-09 15:09:20.402,4,0.68,1.85,1.04,31.401600000000002,322.42339999999996,7.583400000000001,175,75
2026-05-09 15:09:20.413,4,0.58,1.74,1.27,28.711600000000004,223.27339999999998,-24.1266,175,75
2026-05-09 15:09:20.424,4,0.46,1.78,1.28,23.291600000000003,153.15339999999998,-43.33659999999999,175,75
2026-05-09 15:09:20.435,4,0.37,1.9,1.13,15.601600000000005,95.5334,-58.816599999999994,175,75
2026-05-09 15:09:20.464,4,0.13,1.96,0.79,32.2516,109.5534,-34.8566,175,75
2026-05-09 15:09:20.487,4,0.1,2.0,1.05,35.7916,156.7534,-13.456599999999998,175,75
2026-05-09 15:09:20.502,4,0.17,2.06,1.24,43.961600000000004,109.8634,-13.9466,175,75
2026-05-09 15:09:20.519,4,0.05,1.87,1.11,58.77160000000001,13.703399999999995,-31.746599999999997,175,75
2026-05-09 15:09:20.534,4,-0.0,1.89,0.94,58.4716,12.913399999999996,-34.7966,175,75
2026-05-09 15:09:20.557,4,-0.17,1.98,0.74,60.4816,120.0434,-6.686599999999995,175,75
2026-05-09 15:09:20.593,4,-0.5,1.87,1.14,76.8216,211.6334,42.943400000000004,175,75
2026-05-09 15:09:20.608,4,-0.55,1.83,1.31,80.9116,195.41340000000002,54.8334,175,75
2026-05-09 15:09:20.623,4,-0.74,1.62,1.48,81.1516,121.38340000000001,59.2234,175,75
2026-05-09 15:09:20.633,4,-0.93,1.54,1.5,77.3116,104.4934,69.2934,175,75
2026-05-09 15:09:20.645,4,-1.04,1.47,1.47,74.69160000000001,112.60340000000001,86.0534,175,75
2026-05-09 15:09:20.655,4,-1.18,1.35,1.42,72.6816,129.3134,110.63340000000001,175,75
2026-05-09 15:09:20.677,4,-1.32,1.23,1.34,71.2716,154.2534,139.1634,175,75
2026-05-09 15:09:20.686,4,-1.46,0.92,1.36,64.9916,232.79340000000002,198.3734,175,75
2026-05-09 15:09:20.698,4,-1.41,0.73,1.51,54.321600000000004,276.8134,234.2234,175,75
2026-05-09 15:09:20.712,4,-1.31,0.56,1.71,39.5116,270.29339999999996,259.1634,175,75
2026-05-09 15:09:20.720,4,-1.27,0.45,1.85,31.0916,231.3834,272.40340000000003,175,75
2026-05-09 15:09:20.730,4,-1.22,0.31,1.93,27.131600000000006,168.7634,285.8734,175,75
2026-05-09 15:09:20.769,4,-1.09,-0.36,1.65,33.1616,-55.0766,343.3134,175,75
2026-05-09 15:09:20.779,4,-1.01,-0.58,1.5,35.4816,-77.0866,376.1134,175,75
2026-05-09 15:09:20.790,4,-0.93,-0.91,1.31,41.0916,-73.0666,430.4434,175,75
2026-05-09 15:09:20.790,4,-0.86,-1.22,1.2,38.6516,-50.3166,480.5734,175,75
2026-05-09 15:09:20.804,4,-0.72,-1.62,1.1,28.7716,-7.0866000000000025,516.0534,175,75
2026-05-09 15:09:20.819,4,-0.3,-2.3,1.16,21.7016,-53.1266,516.2434,175,75
2026-05-09 15:09:20.829,4,-0.69,-2.71,1.13,46.461600000000004,-207.7566,527.5834,175,75
2026-05-09 15:09:20.853,4,-0.98,-3.51,0.69,58.4716,99.1934,627.6434,175,75
2026-05-09 15:09:20.863,4,-0.72,-3.89,0.6,80.5416,115.59339999999999,593.6834,175,75
2026-05-09 15:09:20.884,4,-0.86,-3.88,0.49,103.6516,139.6134,618.0734,175,75
2026-05-09 15:09:20.895,4,-0.92,-4.02,0.9,146.5816,170.35340000000002,640.4434,175,75
2026-05-09 15:09:20.908,4,-0.76,-4.77,1.96,218.35160000000002,189.98340000000002,631.6034,175,75
2026-05-09 15:09:20.933,4,-0.91,-5.28,3.28,184.5016,-97.7566,637.6434,175,75
2026-05-09 15:09:20.982,4,-2.13,-5.59,2.96,98.7116,-800.8066,578.4334,175,75
2026-05-09 15:09:21.003,4,-2.59,-5.61,1.06,136.0316,-767.3966,474.2934,175,75
2026-05-09 15:09:21.024,4,-2.62,-4.92,-0.54,263.4116,-506.1166,263.4334,175,75
2026-05-09 15:09:21.050,4,-1.65,-4.01,-0.09,406.64160000000004,-229.95659999999998,145.3234,175,75
2026-05-09 15:09:21.063,4,-1.31,-3.71,0.52,442.9816,-227.6966,122.52340000000001,175,75
2026-05-09 15:09:21.085,4,-1.14,-3.21,1.13,404.6916,-319.83660000000003,112.27340000000001,175,75
2026-05-09 15:09:21.087,4,-1.28,-2.9,1.08,335.9116,-375.8666,102.7634,175,75
2026-05-09 15:09:21.102,4,-1.4,-2.64,0.73,279.5716,-394.58660000000003,85.4434,175,75
2026-05-09 15:09:21.112,4,-1.56,-2.41,0.33,243.71159999999998,-397.9466,62.7034,175,75
2026-05-09 15:09:21.124,4,-1.75,-2.1,-0.13,227.3116,-382.20660000000004,29.413400000000003,175,75
2026-05-09 15:09:21.124,4,-1.93,-1.71,-0.52,245.66160000000002,-353.3666,-21.6266,175,75
2026-05-09 15:09:21.142,4,-1.98,-1.37,-0.8,311.2116,-325.5666,-97.66659999999999,175,75
2026-05-09 15:09:21.157,4,-2.06,-1.15,-0.96,360.1116,-349.2866,-166.9266,175,75
2026-05-09 15:09:21.157,4,-2.11,-1.01,-1.06,380.5416,-370.6866,-224.1266,175,75
2026-05-09 15:09:21.179,4,-2.03,-0.84,-1.09,370.3016,-407.63660000000004,-281.5666,175,75
2026-05-09 15:09:21.193,4,-0.41,0.56,-0.36,210.54160000000002,-363.3066,-172.35660000000001,175,75
2026-05-09 15:09:21.204,4,-1.35,1.45,-0.64,69.2616,-243.2466,101.1134,175,75
2026-05-09 15:09:21.214,4,-2.71,1.23,-0.94,78.4716,-56.2366,116.05340000000001,175,75
2026-05-09 15:09:21.226,4,-2.04,0.61,-0.95,170.3016,79.1334,87.21340000000001,175,75
2026-05-09 15:09:21.256,4,-1.46,0.12,-0.22,196.5216,68.82339999999999,185.5734,175,75
2026-05-09 15:09:21.268,4,-1.7,0.11,0.01,113.5316,66.8134,157.52339999999998,175,75
2026-05-09 15:09:21.279,4,-1.49,0.28,0.15,64.9316,75.7134,158.43339999999998,175,75
2026-05-09 15:09:21.289,4,-1.29,0.52,0.26,62.6816,45.5334,187.0334,175,75
2026-05-09 15:09:21.299,4,-1.21,0.5,0.4,74.69160000000001,-6.6666000000000025,204.77339999999998,175,75
2026-05-09 15:09:21.312,4,-1.09,0.31,0.48,72.2516,-38.006600000000006,214.83339999999998,175,75
2026-05-09 15:09:21.323,4,-1.12,0.23,0.55,49.0816,-85.5066,227.9434,175,75
2026-05-09 15:09:21.334,4,-1.12,0.15,0.42,25.361600000000003,-120.6866,214.71339999999998,175,75
2026-05-09 15:09:21.359,4,-0.02,0.13,0.1,11.761600000000001,-165.8666,178.1334,175,75
2026-05-09 15:09:21.359,4,0.02,0.34,0.14,7.071600000000004,-165.1366,182.4034,175,75
2026-05-09 15:09:21.373,4,-0.31,0.55,0.18,10.181600000000003,-134.28660000000002,202.64339999999999,175,75
2026-05-09 15:09:21.387,4,-0.74,0.68,0.35,10.361600000000003,-150.1366,222.9434,175,75
2026-05-09 15:09:21.407,4,1.02,0.15,-0.43,24.6916,-4.646600000000003,130.4434,175,75
2026-05-09 15:09:21.421,4,1.23,0.3,0.1,-16.4084,-91.4166,212.9434,175,75
2026-05-09 15:09:21.432,4,0.64,0.34,0.25,-17.448399999999992,-139.7766,185.93339999999998,175,75
2026-05-09 15:09:21.443,4,0.8,0.18,0.44,-40.7384,-106.4766,163.2534,175,75
2026-05-09 15:09:21.454,4,1.5,-0.22,0.28,-79.3384,-155.6266,173.80339999999998,175,75
2026-05-09 15:09:21.461,4,1.37,-0.7,-0.11,-80.18839999999999,-230.6266,129.5334,175,75
2026-05-09 15:09:21.478,4,1.43,-0.86,-0.26,-108.78840000000001,-193.4266,115.1434,175,75
2026-05-09 15:09:21.497,4,1.43,-0.71,-0.41,-154.8884,-65.8666,129.2934,175,75
2026-05-09 15:09:21.508,4,1.72,-1.08,-0.54,-173.84839999999997,58.883399999999995,126.60340000000001,175,75
2026-05-09 15:09:21.519,4,1.99,-1.51,-0.5,-181.77839999999998,138.03339999999997,123.4334,175,75
2026-05-09 15:09:21.530,4,2.09,-1.89,-0.33,-205.1884,211.9334,106.4834,175,75
2026-05-09 15:09:21.543,4,1.98,-1.96,-0.01,-243.47839999999997,282.3034,90.0834,175,75
2026-05-09 15:09:21.550,4,1.89,-1.71,0.53,-297.5084,382.60339999999997,66.7234,175,75
2026-05-09 15:09:21.575,4,3.25,-1.73,2.36,-307.1384,312.72339999999997,-32.3566,175,75
2026-05-09 15:09:21.586,4,2.07,-2.48,2.35,-243.78839999999997,89.1934,-114.8566,175,75
2026-05-09 15:09:21.598,4,1.98,-3.06,2.08,-267.6884,197.3034,-149.7966,175,75
2026-05-09 15:09:21.613,4,1.97,-3.05,2.11,-318.84839999999997,194.1334,-244.73659999999998,175,75
2026-05-09 15:09:21.621,4,2.4,-2.11,2.56,-292.6284,201.5734,-270.46659999999997,175,75
2026-05-09 15:09:21.632,4,2.01,-1.51,2.59,-242.9284,253.8234,-275.40659999999997,175,75
2026-05-09 15:09:21.653,4,1.83,-2.16,3.21,-211.22839999999997,335.7134,-351.4466,175,75
2026-05-09 15:09:21.664,4,1.66,-2.51,3.39,-195.1884,325.8334,-390.22659999999996,175,75
2026-05-09 15:09:21.686,4,0.97,-2.66,3.35,-143.66840000000002,269.3134,-449.1266,175,75
