Time,ID,Ax,Ay,Az,Gx,Gy,Gz,Height,Weight
2026-05-09 14:44:46.044,4,-0.21,-0.18,1.46,21.638400000000004,35.824,41.97539999999999,175,75
2026-05-09 14:44:46.057,4,-0.25,-0.2,1.46,21.768400000000003,27.903999999999996,40.3854,175,75
2026-05-09 14:44:46.057,4,-0.22,-0.2,1.44,22.798400000000004,21.864000000000004,42.0954,175,75
2026-05-09 14:44:46.076,4,-0.2,-0.19,1.39,23.168400000000005,12.534000000000006,45.145399999999995,175,75
2026-05-09 14:44:46.087,4,-0.2,-0.22,1.33,24.748400000000004,6.6839999999999975,47.2154,175,75
2026-05-09 14:44:46.098,4,-0.2,-0.25,1.26,25.968400000000003,10.093999999999994,50.08539999999999,175,75
2026-05-09 14:44:46.138,4,-0.17,-0.33,1.17,29.878400000000006,44.794,61.605399999999996,175,75
2026-05-09 14:44:46.161,4,-0.21,-0.29,1.12,30.668400000000005,84.124,66.24539999999999,175,75
2026-05-09 14:44:46.184,4,-0.19,-0.28,1.14,29.138400000000004,92.53399999999999,64.96539999999999,175,75
2026-05-09 14:44:46.184,4,-0.2,-0.28,1.17,27.988400000000006,90.76400000000001,61.2454,175,75
2026-05-09 14:44:46.203,4,-0.23,-0.27,1.2,25.908400000000004,84.54400000000001,55.0254,175,75
2026-05-09 14:44:46.213,4,-0.25,-0.25,1.23,22.188400000000005,75.95400000000001,49.47539999999999,175,75
2026-05-09 14:44:46.227,4,-0.26,-0.12,1.25,17.068400000000004,42.774,35.5754,175,75
2026-05-09 14:44:46.244,4,-0.28,-0.06,1.22,14.508400000000005,24.483999999999995,29.2354,175,75
2026-05-09 14:44:46.267,4,-0.32,0.05,1.14,8.838400000000004,13.813999999999993,21.3054,175,75
2026-05-09 14:44:46.278,4,-0.32,0.08,1.11,7.1884000000000015,18.933999999999997,19.1054,175,75
2026-05-09 14:44:46.290,4,-0.3,0.1,1.09,5.4284000000000034,24.364000000000004,17.405399999999997,175,75
2026-05-09 14:44:46.304,4,-0.3,0.11,1.06,2.4384000000000015,29.664,15.455399999999997,175,75
2026-05-09 14:44:46.304,4,-0.34,0.12,1.07,1.0984000000000052,37.354,13.555399999999999,175,75
2026-05-09 14:44:46.318,4,-0.36,0.14,1.11,0.35840000000000316,45.403999999999996,10.325399999999998,175,75
2026-05-09 14:44:46.343,4,-0.37,0.14,1.14,-1.8915999999999968,38.81399999999999,2.345399999999998,175,75
2026-05-09 14:44:46.362,4,-0.45,0.08,1.15,-4.701599999999992,34.123999999999995,-4.914600000000004,175,75
2026-05-09 14:44:46.375,4,-0.46,0.05,1.15,-5.251599999999996,32.104,-8.754600000000003,175,75
2026-05-09 14:44:46.386,4,-0.46,0.02,1.16,-5.861599999999996,26.563999999999993,-12.354600000000001,175,75
2026-05-09 14:44:46.397,4,-0.45,-0.01,1.16,-5.861599999999996,20.584000000000003,-15.834600000000002,175,75
2026-05-09 14:44:46.408,4,-0.44,-0.05,1.14,-6.531599999999997,13.263999999999996,-19.854600000000005,175,75
2026-05-09 14:44:46.440,4,-0.46,-0.21,1.22,-13.291599999999995,-8.625999999999998,-29.3046,175,75
2026-05-09 14:44:46.452,4,-0.49,-0.23,1.24,-15.861599999999996,-29.046,-31.924600000000005,175,75
2026-05-09 14:44:46.464,4,-0.51,-0.26,1.2,-18.661599999999993,-44.906,-32.534600000000005,175,75
2026-05-09 14:44:46.477,4,-0.5,-0.25,1.05,-24.091599999999993,-35.936,-23.0246,175,75
2026-05-09 14:44:46.509,4,-0.41,-0.22,1.08,-24.761599999999994,16.924000000000007,-1.5646000000000022,175,75
2026-05-09 14:44:46.524,4,-0.42,-0.22,1.17,-22.871599999999994,29.854,4.295399999999997,175,75
2026-05-09 14:44:46.540,4,-0.44,-0.17,1.32,-21.591599999999993,33.024,13.315399999999997,175,75
2026-05-09 14:44:46.550,4,-0.44,-0.13,1.33,-17.931599999999996,33.934,17.885399999999997,175,75
2026-05-09 14:44:46.568,4,-0.42,-0.11,1.34,-14.451599999999992,37.903999999999996,20.755399999999998,175,75
2026-05-09 14:44:46.578,4,-0.41,-0.08,1.37,-10.921599999999998,43.324,23.6254,175,75
2026-05-09 14:44:46.590,4,-0.42,-0.06,1.41,-5.371599999999994,44.244,25.205399999999997,175,75
2026-05-09 14:44:46.623,4,-0.45,-0.1,1.41,5.668400000000005,28.873999999999995,24.475399999999997,175,75
2026-05-09 14:44:46.634,4,-0.44,-0.12,1.39,8.288400000000003,32.233999999999995,25.455399999999997,175,75
2026-05-09 14:44:46.671,4,-0.42,-0.13,1.36,14.328400000000006,37.653999999999996,26.795399999999997,175,75
2026-05-09 14:44:46.686,4,-0.42,-0.14,1.36,16.158400000000004,38.934,26.9754,175,75
2026-05-09 14:44:46.703,4,-0.4,-0.19,1.39,17.618400000000005,35.884,25.1454,175,75
2026-05-09 14:44:46.720,4,-0.4,-0.2,1.38,14.568400000000004,23.873999999999995,20.755399999999998,175,75
2026-05-09 14:44:46.733,4,-0.38,-0.19,1.36,12.988400000000006,16.433999999999997,18.0154,175,75
2026-05-09 14:44:46.745,4,-0.37,-0.18,1.34,11.458400000000005,12.354,15.515399999999998,175,75
2026-05-09 14:44:46.750,4,-0.37,-0.17,1.29,9.018400000000003,11.013999999999996,12.885399999999997,175,75
2026-05-09 14:44:46.763,4,-0.39,-0.15,1.27,7.068400000000004,14.854,11.795399999999997,175,75
2026-05-09 14:44:46.787,4,-0.39,-0.13,1.28,5.4284000000000034,20.214,10.205399999999997,175,75
2026-05-09 14:44:46.799,4,-0.41,-0.11,1.33,5.728400000000008,17.653999999999996,9.165399999999998,175,75
2026-05-09 14:44:46.813,4,-0.39,-0.11,1.34,7.378400000000006,8.204,6.665399999999998,175,75
2026-05-09 14:44:46.825,4,-0.38,-0.12,1.31,7.798400000000004,-4.475999999999999,3.925399999999998,175,75
2026-05-09 14:44:46.845,4,-0.39,-0.11,1.29,8.048400000000004,-10.456000000000003,0.9953999999999965,175,75
2026-05-09 14:44:46.845,4,-0.38,-0.09,1.26,8.898400000000006,-12.835999999999999,-0.7646000000000015,175,75
2026-05-09 14:44:46.858,4,-0.38,-0.09,1.26,9.568400000000004,-17.586,-2.2946000000000026,175,75
2026-05-09 14:44:46.869,4,-0.42,-0.09,1.23,8.228400000000004,-22.226,-4.914600000000004,175,75
2026-05-09 14:44:46.893,4,-0.45,-0.06,1.22,4.078400000000002,-16.976,-5.584600000000002,175,75
2026-05-09 14:44:46.905,4,-0.45,-0.04,1.23,2.1884000000000015,-14.786000000000001,-5.034600000000001,175,75
2026-05-09 14:44:46.916,4,-0.47,-0.04,1.26,-0.3715999999999937,-10.875999999999998,-3.2646000000000015,175,75
2026-05-09 14:44:46.928,4,-0.48,-0.06,1.27,-2.5015999999999963,-9.415999999999997,-2.4746000000000024,175,75
2026-05-09 14:44:46.939,4,-0.49,-0.08,1.29,-6.591599999999993,-9.296,-3.2646000000000015,175,75
2026-05-09 14:44:46.953,4,-0.51,-0.07,1.31,-11.711599999999997,-7.5859999999999985,-1.9846000000000004,175,75
2026-05-09 14:44:46.964,4,-0.51,-0.05,1.31,-14.031599999999997,-5.756,-2.1746000000000016,175,75
2026-05-09 14:44:46.977,4,-0.5,-0.04,1.32,-17.141599999999997,-3.0159999999999982,-2.2346000000000004,175,75
2026-05-09 14:44:47.003,4,-0.53,-0.05,1.38,-20.431599999999996,8.513999999999996,0.20539999999999736,175,75
2026-05-09 14:44:47.013,4,-0.52,-0.05,1.43,-20.0616,6.624000000000002,0.025399999999997647,175,75
2026-05-09 14:44:47.013,4,-0.53,-0.04,1.46,-19.701599999999992,0.0940000000000012,0.20539999999999736,175,75
2026-05-09 14:44:47.035,4,-0.53,-0.01,1.47,-17.931599999999996,-10.456000000000003,-0.34460000000000335,175,75
2026-05-09 14:44:47.045,4,-0.53,-0.02,1.43,-17.071599999999997,-14.046,0.14539999999999864,175,75
2026-05-09 14:44:47.056,4,-0.52,-0.07,1.39,-14.271599999999992,-5.265999999999998,2.5253999999999976,175,75
2026-05-09 14:44:47.069,4,-0.52,-0.09,1.41,-13.421599999999998,-0.08599999999999852,3.015399999999998,175,75
2026-05-09 14:44:47.106,4,-0.51,-0.05,1.45,-14.761599999999994,-8.436,1.4853999999999985,175,75
2026-05-09 14:44:47.117,4,-0.48,-0.04,1.43,-11.041599999999995,-11.186,3.9853999999999985,175,75
2026-05-09 14:44:47.130,4,-0.46,-0.08,1.4,-7.621599999999994,-11.006,6.7353999999999985,175,75
2026-05-09 14:44:47.140,4,-0.46,-0.13,1.36,-5.371599999999994,-4.966000000000001,7.345399999999998,175,75
2026-05-09 14:44:47.154,4,-0.42,-0.14,1.36,-5.3115999999999985,2.353999999999999,5.325399999999998,175,75
2026-05-09 14:44:47.162,4,-0.37,-0.13,1.37,-5.981599999999993,2.1640000000000015,4.715399999999997,175,75
2026-05-09 14:44:47.185,4,-0.43,-0.14,1.37,-5.181599999999996,6.744,4.295399999999997,175,75
2026-05-09 14:44:47.203,4,-0.39,-0.11,1.48,1.1584000000000074,20.343999999999994,6.855399999999998,175,75
2026-05-09 14:44:47.213,4,-0.36,-0.1,1.53,2.4984000000000037,7.774000000000001,8.135399999999997,175,75
2026-05-09 14:44:47.224,4,-0.35,-0.12,1.53,0.6084000000000032,-11.426000000000002,6.305399999999999,175,75
2026-05-09 14:44:47.235,4,-0.42,-0.17,1.35,-1.1015999999999977,-24.536,3.8653999999999975,175,75
2026-05-09 14:44:47.259,4,-0.41,-0.17,1.27,-1.4015999999999948,-14.296,6.185399999999998,175,75
2026-05-09 14:44:47.259,4,-0.41,-0.18,1.26,0.298400000000008,-0.3359999999999985,8.255399999999998,175,75
2026-05-09 14:44:47.285,4,-0.36,-0.22,1.33,4.998400000000004,12.293999999999997,13.315399999999997,175,75
2026-05-09 14:44:47.309,4,-0.38,-0.17,1.29,4.628400000000006,30.524,18.0154,175,75
2026-05-09 14:44:47.323,4,-0.37,-0.11,1.32,4.878400000000006,45.034000000000006,21.425399999999996,175,75
2026-05-09 14:44:47.334,4,-0.33,-0.05,1.36,4.628400000000006,52.903999999999996,22.525399999999998,175,75
2026-05-09 14:44:47.351,4,-0.29,-0.01,1.35,2.858400000000003,45.153999999999996,20.8754,175,75
2026-05-09 14:44:47.362,4,-0.3,-0.04,1.31,1.8884000000000043,40.95399999999999,18.9854,175,75
2026-05-09 14:44:47.372,4,-0.3,-0.1,1.26,1.6384000000000043,41.074,17.6454,175,75
2026-05-09 14:44:47.372,4,-0.31,-0.17,1.23,1.7684000000000069,44.794,17.885399999999997,175,75
2026-05-09 14:44:47.384,4,-0.34,-0.21,1.23,2.858400000000003,48.994,18.9854,175,75
2026-05-09 14:44:47.407,4,-0.31,-0.25,1.21,9.508400000000005,50.584,19.9654,175,75
2026-05-09 14:44:47.431,4,-0.29,-0.28,1.18,12.128400000000006,48.934,16.245399999999997,175,75
2026-05-09 14:44:47.435,4,-0.24,-0.25,1.18,12.318400000000004,44.794,12.955399999999997,175,75
2026-05-09 14:44:47.449,4,-0.23,-0.2,1.16,10.848400000000005,36.013999999999996,7.405399999999998,175,75
2026-05-09 14:44:47.474,4,-0.26,-0.07,1.11,4.748400000000004,32.354,0.6353999999999971,175,75
2026-05-09 14:44:47.474,4,-0.28,-0.02,1.14,3.108400000000003,35.584,1.6053999999999995,175,75
2026-05-09 14:44:47.495,4,-0.3,0.02,1.19,2.2484000000000037,31.494,1.5453999999999972,175,75
2026-05-09 14:44:47.506,4,-0.34,0.01,1.19,-2.0115999999999943,18.994,-3.3946000000000005,175,75
2026-05-09 14:44:47.518,4,-0.33,0.0,1.14,-3.6015999999999977,11.373999999999995,-9.544600000000003,175,75
2026-05-09 14:44:47.533,4,-0.33,-0.02,1.1,-4.091599999999993,3.573999999999998,-14.9146,175,75
2026-05-09 14:44:47.556,4,-0.4,-0.09,1.09,-2.8115999999999985,-3.746000000000002,-22.294600000000003,175,75
2026-05-09 14:44:47.576,4,-0.47,-0.15,1.16,-3.3615999999999957,-17.036,-27.724600000000002,175,75
2026-05-09 14:44:47.586,4,-0.52,-0.15,1.17,-5.491599999999998,-27.036,-30.034600000000005,175,75
2026-05-09 14:44:47.603,4,-0.58,-0.11,1.11,-6.831599999999995,-27.646,-29.244600000000005,175,75
2026-05-09 14:44:47.618,4,-0.7,-0.03,1.02,-5.121599999999994,11.924000000000007,-13.024600000000003,175,75
2026-05-09 14:44:47.627,4,-0.69,-0.03,1.04,-1.6515999999999948,34.184,-5.404600000000002,175,75
2026-05-09 14:44:47.643,4,-0.68,-0.07,1.11,0.11840000000000117,51.074,1.5453999999999972,175,75
2026-05-09 14:44:47.654,4,-0.68,-0.12,1.19,-1.1615999999999929,53.994,3.3153999999999986,175,75
2026-05-09 14:44:47.664,4,-0.68,-0.12,1.25,-1.8915999999999968,48.384,2.5253999999999976,175,75
2026-05-09 14:44:47.677,4,-0.7,-0.09,1.3,0.23840000000000572,34.06399999999999,2.585399999999998,175,75
2026-05-09 14:44:47.687,4,-0.69,-0.08,1.3,1.5184000000000069,18.634,2.345399999999998,175,75
2026-05-09 14:44:47.708,4,-0.67,-0.07,1.26,1.6384000000000043,8.204,2.6453999999999986,175,75
2026-05-09 14:44:47.722,4,-0.7,-0.07,1.2,3.778400000000005,-4.045999999999999,5.635399999999997,175,75
2026-05-09 14:44:47.743,4,-0.7,-0.05,1.15,6.458400000000005,1.1940000000000026,9.595399999999998,175,75
2026-05-09 14:44:47.772,4,-0.64,-0.08,1.06,9.138400000000004,24.244,18.5554,175,75
2026-05-09 14:44:47.772,4,-0.59,-0.08,1.07,8.838400000000004,39.544,21.185399999999998,175,75
2026-05-09 14:44:47.793,4,-0.55,-0.07,1.1,7.9284000000000034,46.864000000000004,24.2354,175,75
2026-05-09 14:44:47.803,4,-0.54,-0.07,1.13,7.128400000000006,49.244,24.2354,175,75
2026-05-09 14:44:47.824,4,-0.53,-0.09,1.2,7.738400000000006,45.403999999999996,23.6254,175,75
2026-05-09 14:44:47.835,4,-0.5,-0.11,1.21,5.788400000000003,33.873999999999995,16.915399999999998,175,75
2026-05-09 14:44:47.846,4,-0.46,-0.07,1.21,5.118400000000001,22.414,13.985399999999998,175,75
2026-05-09 14:44:47.857,4,-0.47,-0.04,1.2,5.908400000000007,16.013999999999996,12.275399999999998,175,75
2026-05-09 14:44:47.884,4,-0.47,-0.05,1.15,1.7084000000000046,-3.985999999999997,5.635399999999997,175,75
2026-05-09 14:44:47.895,4,-0.5,-0.06,1.13,-0.7915999999999954,-5.146000000000001,2.345399999999998,175,75
2026-05-09 14:44:47.918,4,-0.46,-0.11,1.06,-0.7915999999999954,0.03399999999999892,2.035399999999999,175,75
2026-05-09 14:44:47.933,4,-0.45,-0.19,1.05,0.6084000000000032,12.713999999999999,4.415399999999998,175,75
2026-05-09 14:44:47.988,4,-0.5,-0.24,1.15,-11.341599999999993,-13.506,-5.464600000000001,175,75
2026-05-09 14:44:47.997,4,-0.52,-0.19,1.12,-13.421599999999998,-9.905999999999999,-5.034600000000001,175,75
2026-05-09 14:44:48.013,4,-0.49,-0.13,1.14,-15.611599999999996,2.594000000000001,-1.5046000000000035,175,75
2026-05-09 14:44:48.031,4,-0.46,-0.09,1.16,-16.341599999999993,13.813999999999993,0.8753999999999991,175,75
2026-05-09 14:44:48.031,4,-0.46,-0.08,1.18,-15.791599999999995,17.474000000000004,2.215399999999999,175,75
2026-05-09 14:44:48.059,4,-0.53,-0.01,1.24,-15.981599999999993,26.073999999999998,7.155399999999998,175,75
2026-05-09 14:44:48.059,4,-0.53,0.02,1.27,-13.481599999999993,28.573999999999998,7.955399999999997,175,75
2026-05-09 14:44:48.081,4,-0.52,0.02,1.26,-10.791599999999995,29.424000000000007,8.315399999999999,175,75
2026-05-09 14:44:48.081,4,-0.52,0.03,1.27,-9.151599999999995,32.903999999999996,9.845399999999998,175,75
2026-05-09 14:44:48.093,4,-0.53,0.05,1.28,-5.921599999999998,39.794,12.345399999999998,175,75
2026-05-09 14:44:48.113,4,-0.54,0.04,1.31,-0.49159999999999826,45.093999999999994,13.315399999999997,175,75
2026-05-09 14:44:48.128,4,-0.51,-0.04,1.36,6.888400000000004,38.45399999999999,10.205399999999997,175,75
2026-05-09 14:44:48.143,4,-0.49,-0.09,1.37,7.798400000000004,29.364000000000004,7.155399999999998,175,75
2026-05-09 14:44:48.153,4,-0.5,-0.11,1.37,8.468400000000006,20.034000000000006,6.125399999999997,175,75
2026-05-09 14:44:48.164,4,-0.53,-0.14,1.36,8.958400000000005,8.143999999999998,4.355399999999998,175,75
2026-05-09 14:44:48.194,4,-0.53,-0.22,1.3,4.388400000000004,-25.206,-3.814600000000002,175,75
2026-05-09 14:44:48.232,4,-0.49,-0.16,1.22,6.518400000000007,-29.966,-0.15460000000000207,175,75
2026-05-09 14:44:48.246,4,-0.48,-0.16,1.21,8.228400000000004,-29.846,0.5153999999999996,175,75
2026-05-09 14:44:48.258,4,-0.47,-0.16,1.19,9.078400000000006,-25.146,0.6353999999999971,175,75
2026-05-09 14:44:48.258,4,-0.45,-0.14,1.18,10.058400000000006,-17.346000000000004,1.3053999999999988,175,75
2026-05-09 14:44:48.272,4,-0.43,-0.12,1.17,10.728400000000004,-13.195999999999998,2.585399999999998,175,75
2026-05-09 14:44:48.295,4,-0.46,-0.12,1.18,9.748400000000004,-8.866,3.6253999999999973,175,75
2026-05-09 14:44:48.303,4,-0.44,-0.12,1.17,6.888400000000004,-7.405999999999999,3.8653999999999975,175,75
2026-05-09 14:44:48.314,4,-0.43,-0.1,1.19,5.968400000000003,-6.0660000000000025,4.595399999999998,175,75
2026-05-09 14:44:48.328,4,-0.38,-0.08,1.22,8.348400000000005,-6.915999999999997,5.455399999999997,175,75
2026-05-09 14:44:48.359,4,-0.35,-0.1,1.17,7.1884000000000015,-13.625999999999998,-0.7046000000000028,175,75
2026-05-09 14:44:48.370,4,-0.36,-0.07,1.16,6.278400000000005,-9.356000000000002,-0.5246000000000031,175,75
2026-05-09 14:44:48.381,4,-0.39,-0.05,1.18,7.248400000000004,-3.8659999999999997,1.7953999999999972,175,75
2026-05-09 14:44:48.393,4,-0.42,-0.04,1.21,7.008400000000002,-0.1460000000000008,2.1553999999999967,175,75
2026-05-09 14:44:48.409,4,-0.42,-0.06,1.23,6.708400000000005,1.314,1.7353999999999985,175,75
2026-05-09 14:44:48.422,4,-0.4,-0.06,1.22,6.768400000000007,2.594000000000001,0.45539999999999736,175,75
2026-05-09 14:44:48.444,4,-0.4,-0.07,1.21,6.768400000000007,4.4239999999999995,0.14539999999999864,175,75
2026-05-09 14:44:48.467,4,-0.41,-0.12,1.21,2.858400000000003,18.453999999999994,1.0653999999999968,175,75
2026-05-09 14:44:48.479,4,-0.41,-0.13,1.25,0.7884000000000029,22.293999999999997,1.2453999999999965,175,75
2026-05-09 14:44:48.494,4,-0.39,-0.14,1.29,-0.12159999999999371,20.703999999999994,1.2453999999999965,175,75
2026-05-09 14:44:48.506,4,-0.39,-0.16,1.29,-1.4015999999999948,15.213999999999999,0.5153999999999996,175,75
2026-05-09 14:44:48.517,4,-0.42,-0.14,1.3,-6.341599999999993,14.604,-1.624600000000001,175,75
2026-05-09 14:44:48.526,4,-0.41,-0.1,1.33,-8.051599999999993,14.543999999999997,-2.8446000000000033,175,75
2026-05-09 14:44:48.538,4,-0.41,-0.08,1.34,-9.821599999999997,11.494,-3.6346000000000025,175,75
2026-05-09 14:44:48.566,4,-0.45,-0.03,1.34,-14.881599999999999,10.763999999999996,-3.814600000000002,175,75
2026-05-09 14:44:48.577,4,-0.46,0.01,1.36,-13.541599999999995,15.524000000000001,-1.4346000000000032,175,75
2026-05-09 14:44:48.587,4,-0.44,0.01,1.36,-11.101599999999998,18.084000000000003,-0.7046000000000028,175,75
2026-05-09 14:44:48.600,4,-0.42,-0.02,1.37,-9.761599999999994,19.063999999999993,-0.8946000000000005,175,75
2026-05-09 14:44:48.600,4,-0.43,-0.06,1.36,-9.451599999999992,20.343999999999994,-2.4746000000000024,175,75
2026-05-09 14:44:48.611,4,-0.44,-0.08,1.37,-8.971599999999995,20.703999999999994,-4.614600000000003,175,75
2026-05-09 14:44:48.645,4,-0.49,-0.12,1.42,-7.381599999999999,11.744,-9.064600000000002,175,75
2026-05-09 14:44:48.685,4,-0.5,-0.17,1.36,-0.25159999999999627,-24.116,-10.6446,175,75
2026-05-09 14:44:48.696,4,-0.49,-0.18,1.31,0.42840000000000344,-26.246,-9.424600000000002,175,75
2026-05-09 14:44:48.696,4,-0.48,-0.17,1.27,1.2784000000000049,-23.316000000000003,-8.204600000000003,175,75
2026-05-09 14:44:48.718,4,-0.47,-0.15,1.23,1.8884000000000043,-3.8659999999999997,-1.2546000000000035,175,75
2026-05-09 14:44:48.739,4,-0.46,-0.13,1.23,1.828400000000002,3.024000000000001,2.1553999999999967,175,75
2026-05-09 14:44:48.763,4,-0.45,-0.14,1.22,2.798400000000008,13.994,7.465399999999997,175,75
2026-05-09 14:44:48.772,4,-0.44,-0.15,1.21,3.7184000000000026,20.093999999999994,9.475399999999999,175,75
2026-05-09 14:44:48.783,4,-0.41,-0.16,1.21,4.328400000000002,22.043999999999997,9.535399999999997,175,75
2026-05-09 14:44:48.820,4,-0.41,-0.15,1.24,3.9584000000000046,17.104,6.125399999999997,175,75
2026-05-09 14:44:48.831,4,-0.4,-0.13,1.24,4.018400000000007,12.043999999999997,4.775399999999998,175,75
2026-05-09 14:44:48.831,4,-0.39,-0.11,1.24,3.8984000000000023,8.813999999999993,3.8653999999999975,175,75
2026-05-09 14:44:48.854,4,-0.39,-0.09,1.22,3.528400000000005,7.594000000000001,3.255399999999998,175,75
2026-05-09 14:44:48.902,4,-0.4,-0.07,1.24,-1.1015999999999977,15.034000000000006,-1.5646000000000022,175,75
2026-05-09 14:44:48.911,4,-0.42,-0.06,1.25,-0.921599999999998,10.034000000000006,-3.084600000000002,175,75
2026-05-09 14:44:48.944,4,-0.42,-0.08,1.22,-1.951599999999992,2.594000000000001,-5.7646000000000015,175,75
2026-05-09 14:44:48.955,4,-0.44,-0.09,1.21,-1.5915999999999926,3.753999999999998,-6.684600000000003,175,75
2026-05-09 14:44:48.984,4,-0.46,-0.04,1.25,-0.7315999999999931,6.073999999999998,-5.8946000000000005,175,75
2026-05-09 14:44:49.006,4,-0.49,-0.04,1.26,-0.7915999999999954,3.514000000000003,-2.964600000000001,175,75
2026-05-09 14:44:49.016,4,-0.48,-0.05,1.25,0.9684000000000026,5.033999999999999,-2.8446000000000033,175,75
2026-05-09 14:44:49.016,4,-0.45,-0.07,1.23,2.6784000000000034,4.853999999999999,-3.084600000000002,175,75
2026-05-09 14:44:49.042,4,-0.48,-0.1,1.21,2.9884000000000057,9.543999999999997,-1.1346000000000025,175,75
2026-05-09 14:44:49.059,4,-0.5,-0.1,1.23,3.7184000000000026,15.153999999999996,1.7353999999999985,175,75
2026-05-09 14:44:49.072,4,-0.51,-0.13,1.24,3.108400000000003,11.494,4.415399999999998,175,75
2026-05-09 14:44:49.096,4,-0.51,-0.17,1.23,2.9284000000000034,16.433999999999997,6.915399999999998,175,75
2026-05-09 14:44:49.108,4,-0.49,-0.17,1.19,2.1884000000000015,17.414,7.095399999999998,175,75
2026-05-09 14:44:49.128,4,-0.45,-0.16,1.15,2.3784000000000063,26.983999999999995,7.405399999999998,175,75
2026-05-09 14:44:49.143,4,-0.41,-0.12,1.27,1.5184000000000069,36.31399999999999,13.805399999999999,175,75
2026-05-09 14:44:49.152,4,-0.38,-0.11,1.38,1.9484000000000066,18.933999999999997,12.765399999999998,175,75
2026-05-09 14:44:49.169,4,-0.4,-0.13,1.41,-0.7315999999999931,-9.356000000000002,7.155399999999998,175,75
2026-05-09 14:44:49.180,4,-0.45,-0.13,1.33,-5.371599999999994,-28.136,2.5253999999999976,175,75
2026-05-09 14:44:49.180,4,-0.49,-0.12,1.2,-7.441599999999994,-28.316,-0.5846000000000018,175,75
2026-05-09 14:44:49.202,4,-0.51,-0.08,1.07,-5.001599999999996,-7.526000000000003,4.105399999999998,175,75
2026-05-09 14:44:49.213,4,-0.56,-0.05,1.07,1.2184000000000026,24.424000000000007,13.075399999999998,175,75
2026-05-09 14:44:49.225,4,-0.52,-0.08,1.16,6.028400000000005,49.854,17.345399999999998,175,75
2026-05-09 14:44:49.237,4,-0.45,-0.11,1.24,6.578400000000002,50.644000000000005,16.365399999999998,175,75
2026-05-09 14:44:49.249,4,-0.42,-0.13,1.32,5.238400000000006,34.364000000000004,13.375399999999999,175,75
2026-05-09 14:44:49.249,4,-0.43,-0.12,1.36,4.388400000000004,21.623999999999995,11.185399999999998,175,75
2026-05-09 14:44:49.271,4,-0.44,-0.11,1.36,3.6584000000000074,5.344000000000001,6.975399999999999,175,75
2026-05-09 14:44:49.283,4,-0.43,-0.12,1.32,1.8884000000000043,-6.485999999999997,4.535399999999997,175,75
2026-05-09 14:44:49.294,4,-0.45,-0.11,1.29,1.9484000000000066,-10.456000000000003,4.295399999999997,175,75
2026-05-09 14:44:49.304,4,-0.45,-0.1,1.25,3.4084000000000074,-11.676000000000002,4.355399999999998,175,75
2026-05-09 14:44:49.304,4,-0.45,-0.11,1.23,4.628400000000006,-9.356000000000002,4.965399999999997,175,75
2026-05-09 14:44:49.331,4,-0.46,-0.12,1.22,4.508400000000002,-4.966000000000001,5.995399999999998,175,75
2026-05-09 14:44:49.331,4,-0.47,-0.12,1.22,3.9584000000000046,-1.2460000000000022,5.755399999999998,175,75
2026-05-09 14:44:49.343,4,-0.46,-0.11,1.24,2.6784000000000034,-0.1460000000000008,5.455399999999997,175,75
2026-05-09 14:44:49.343,4,-0.46,-0.11,1.23,1.1584000000000074,-1.1259999999999977,5.325399999999998,175,75
2026-05-09 14:44:49.359,4,-0.47,-0.1,1.24,-0.181599999999996,0.7040000000000006,5.085399999999998,175,75
2026-05-09 14:44:49.369,4,-0.45,-0.09,1.23,-0.3715999999999937,5.153999999999996,5.815399999999999,175,75
2026-05-09 14:44:49.379,4,-0.45,-0.08,1.26,-0.181599999999996,5.764000000000003,5.815399999999999,175,75
2026-05-09 14:44:49.446,4,-0.45,-0.11,1.25,4.448400000000007,-3.0760000000000005,5.515399999999998,175,75
2026-05-09 14:44:49.446,4,-0.45,-0.12,1.24,4.628400000000006,-2.5260000000000034,5.265399999999998,175,75
2026-05-09 14:44:49.457,4,-0.46,-0.12,1.23,4.998400000000004,-2.405999999999999,5.205399999999997,175,75
2026-05-09 14:44:49.478,4,-0.46,-0.13,1.22,4.568400000000004,-0.20600000000000307,4.655399999999998,175,75
2026-05-09 14:44:49.503,4,-0.46,-0.11,1.21,2.4984000000000037,9.063999999999993,4.845399999999998,175,75
2026-05-09 14:44:49.513,4,-0.45,-0.1,1.24,3.348400000000005,11.864000000000004,5.635399999999997,175,75
2026-05-09 14:44:49.525,4,-0.44,-0.1,1.28,3.528400000000005,8.453999999999994,5.755399999999998,175,75
2026-05-09 14:44:49.537,4,-0.43,-0.11,1.28,3.2284000000000077,1.804000000000002,4.105399999999998,175,75
2026-05-09 14:44:49.547,4,-0.41,-0.1,1.27,3.6584000000000074,-2.405999999999999,3.1953999999999976,175,75
2026-05-09 14:44:49.551,4,-0.41,-0.1,1.24,3.598400000000005,-4.905999999999999,1.7953999999999972,175,75
2026-05-09 14:44:49.563,4,-0.44,-0.09,1.22,3.598400000000005,-2.5859999999999985,1.6053999999999995,175,75
2026-05-09 14:44:49.588,4,-0.45,-0.1,1.21,5.1784000000000034,11.563999999999993,3.1953999999999976,175,75
2026-05-09 14:44:49.600,4,-0.45,-0.11,1.25,5.298400000000008,11.804000000000002,3.3153999999999986,175,75
2026-05-09 14:44:49.618,4,-0.46,-0.12,1.28,5.1784000000000034,2.103999999999999,1.975399999999997,175,75
2026-05-09 14:44:49.647,4,-0.47,-0.11,1.25,4.208400000000005,-2.8359999999999985,1.125399999999999,175,75
2026-05-09 14:44:49.667,4,-0.47,-0.11,1.23,4.878400000000006,2.4140000000000015,2.345399999999998,175,75
2026-05-09 14:44:49.680,4,-0.49,-0.12,1.24,4.9384000000000015,5.274000000000001,3.435399999999998,175,75
2026-05-09 14:44:49.680,4,-0.49,-0.13,1.24,4.018400000000007,5.954000000000001,3.255399999999998,175,75
2026-05-09 14:44:49.703,4,-0.51,-0.12,1.26,2.318400000000004,5.764000000000003,3.805399999999999,175,75
2026-05-09 14:44:49.703,4,-0.5,-0.11,1.26,1.2784000000000049,6.4339999999999975,3.4953999999999983,175,75
2026-05-09 14:44:49.714,4,-0.49,-0.09,1.26,1.3984000000000023,6.564,5.325399999999998,175,75
2026-05-09 14:44:49.759,4,-0.5,-0.09,1.25,3.4084000000000074,15.034000000000006,7.215399999999997,175,75
2026-05-09 14:44:49.770,4,-0.46,-0.08,1.27,2.9284000000000034,13.813999999999993,5.265399999999998,175,75
2026-05-09 14:44:49.782,4,-0.48,-0.07,1.27,2.0084000000000017,14.483999999999995,4.965399999999997,175,75
2026-05-09 14:44:49.819,4,-0.47,-0.07,1.29,2.4384000000000015,11.924000000000007,5.515399999999998,175,75
2026-05-09 14:44:49.844,4,-0.48,-0.07,1.28,1.578400000000002,5.823999999999998,3.805399999999999,175,75
2026-05-09 14:44:49.856,4,-0.48,-0.07,1.27,2.558400000000006,4.9140000000000015,4.295399999999997,175,75
2026-05-09 14:44:49.866,4,-0.5,-0.09,1.24,3.1684000000000054,6.194000000000003,5.385399999999997,175,75
2026-05-09 14:44:49.876,4,-0.5,-0.1,1.23,3.9584000000000046,12.164000000000001,6.3653999999999975,175,75
2026-05-09 14:44:49.890,4,-0.49,-0.11,1.24,3.8984000000000023,15.644000000000005,6.7353999999999985,175,75
2026-05-09 14:44:49.904,4,-0.49,-0.13,1.26,3.528400000000005,15.034000000000006,6.305399999999999,175,75
2026-05-09 14:44:49.916,4,-0.49,-0.13,1.27,2.3784000000000063,14.244,6.425399999999998,175,75
2026-05-09 14:44:49.927,4,-0.49,-0.13,1.28,2.798400000000008,12.164000000000001,6.125399999999997,175,75
2026-05-09 14:44:49.933,4,-0.49,-0.14,1.27,2.798400000000008,8.873999999999995,5.635399999999997,175,75
2026-05-09 14:44:49.949,4,-0.5,-0.13,1.28,2.318400000000004,7.713999999999999,5.635399999999997,175,75
2026-05-09 14:44:49.966,4,-0.5,-0.12,1.28,2.6784000000000034,5.764000000000003,5.145399999999999,175,75
2026-05-09 14:44:49.966,4,-0.5,-0.11,1.28,2.3784000000000063,2.1640000000000015,4.965399999999997,175,75
2026-05-09 14:44:49.983,4,-0.51,-0.09,1.27,1.2784000000000049,-0.5760000000000005,5.205399999999997,175,75
2026-05-09 14:44:49.994,4,-0.5,-0.08,1.26,1.9484000000000066,1.3740000000000023,5.995399999999998,175,75
2026-05-09 14:44:50.043,4,-0.51,-0.09,1.24,4.508400000000002,14.304000000000002,8.865399999999998,175,75
2026-05-09 14:44:50.063,4,-0.51,-0.09,1.26,3.8984000000000023,13.144000000000005,8.685399999999998,175,75
2026-05-09 14:44:50.075,4,-0.52,-0.09,1.27,3.8984000000000023,13.694000000000003,9.105399999999998,175,75
2026-05-09 14:44:50.086,4,-0.51,-0.09,1.27,3.598400000000005,13.573999999999998,9.165399999999998,175,75
2026-05-09 14:44:50.097,4,-0.52,-0.09,1.27,2.9284000000000034,10.644000000000005,8.925399999999998,175,75
2026-05-09 14:44:50.109,4,-0.5,-0.1,1.27,2.558400000000006,8.263999999999996,7.645399999999999,175,75
2026-05-09 14:44:50.134,4,-0.5,-0.11,1.25,-1.0415999999999954,2.4739999999999966,5.205399999999997,175,75
2026-05-09 14:44:50.134,4,-0.5,-0.11,1.24,-1.2815999999999974,2.9639999999999986,5.205399999999997,175,75
2026-05-09 14:44:50.153,4,-0.5,-0.1,1.26,-1.0415999999999954,3.573999999999998,4.905399999999998,175,75
2026-05-09 14:44:50.165,4,-0.5,-0.1,1.26,-1.6515999999999948,4.124000000000002,5.265399999999998,175,75
2026-05-09 14:44:50.177,4,-0.51,-0.1,1.28,-1.7715999999999923,3.2040000000000006,4.845399999999998,175,75
2026-05-09 14:44:50.193,4,-0.51,-0.09,1.27,-2.5615999999999985,-1.3659999999999997,2.8253999999999984,175,75
2026-05-09 14:44:50.202,4,-0.52,-0.08,1.26,-2.0115999999999943,1.564,3.7453999999999983,175,75
2026-05-09 14:44:50.226,4,-0.51,-0.08,1.28,-2.201599999999992,5.344000000000001,4.165399999999998,175,75
2026-05-09 14:44:50.237,4,-0.52,-0.09,1.29,-2.5615999999999985,3.264000000000003,3.555399999999999,175,75
2026-05-09 14:44:50.253,4,-0.54,-0.11,1.29,-2.7515999999999963,3.9339999999999975,2.7053999999999974,175,75
2026-05-09 14:44:50.264,4,-0.5,-0.12,1.28,-2.9915999999999983,4.793999999999997,1.6053999999999995,175,75
2026-05-09 14:44:50.288,4,-0.53,-0.1,1.33,-0.3715999999999937,-2.646000000000001,3.9853999999999985,175,75
2026-05-09 14:44:50.303,4,-0.56,-0.11,1.29,-1.7715999999999923,-7.466000000000001,2.885399999999997,175,75
2026-05-09 14:44:50.315,4,-0.56,-0.1,1.24,-2.2615999999999943,-6.485999999999997,3.925399999999998,175,75
2026-05-09 14:44:50.328,4,-0.57,-0.08,1.22,-0.31159999999999854,2.7139999999999986,6.4853999999999985,175,75
2026-05-09 14:44:50.353,4,-0.55,-0.07,1.31,2.9884000000000057,18.453999999999994,11.665399999999998,175,75
2026-05-09 14:44:50.373,4,-0.49,-0.11,1.34,3.048400000000008,1.8639999999999972,8.495399999999998,175,75
2026-05-09 14:44:50.384,4,-0.48,-0.11,1.3,2.4984000000000037,-4.596000000000004,7.095399999999998,175,75
2026-05-09 14:44:50.403,4,-0.48,-0.11,1.23,2.3784000000000063,-0.8160000000000025,6.855399999999998,175,75
2026-05-09 14:44:50.417,4,-0.49,-0.12,1.24,1.2784000000000049,3.323999999999998,6.7353999999999985,175,75
2026-05-09 14:44:50.417,4,-0.48,-0.12,1.26,1.2184000000000026,6.374000000000002,6.605399999999998,175,75
2026-05-09 14:44:50.435,4,-0.46,-0.12,1.29,0.9684000000000026,4.304000000000002,6.125399999999997,175,75
2026-05-09 14:44:50.458,4,-0.43,-0.11,1.25,0.35840000000000316,-8.625999999999998,1.6653999999999982,175,75
2026-05-09 14:44:50.465,4,-0.45,-0.11,1.22,0.11840000000000117,-7.225999999999999,0.7553999999999981,175,75
2026-05-09 14:44:50.480,4,-0.47,-0.1,1.22,-0.25159999999999627,-3.3160000000000025,0.5753999999999984,175,75
2026-05-09 14:44:50.493,4,-0.49,-0.1,1.23,-0.6115999999999957,1.7439999999999998,1.0653999999999968,175,75
2026-05-09 14:44:50.520,4,-0.47,-0.1,1.27,-0.431599999999996,0.5240000000000009,-0.09460000000000335,175,75
2026-05-09 14:44:50.538,4,-0.46,-0.1,1.27,-0.3715999999999937,-2.896000000000001,-0.7646000000000015,175,75
2026-05-09 14:44:50.538,4,-0.48,-0.12,1.26,-0.25159999999999627,-2.2860000000000014,-1.0746000000000038,175,75
2026-05-09 14:44:50.559,4,-0.51,-0.11,1.26,-0.49159999999999826,-0.6360000000000028,-2.0446000000000026,175,75
2026-05-09 14:44:50.559,4,-0.51,-0.1,1.25,-0.31159999999999854,-0.9359999999999999,-2.7246000000000024,175,75
2026-05-09 14:44:50.572,4,-0.52,-0.09,1.25,-0.12159999999999371,-1.426000000000002,-2.784600000000001,175,75
2026-05-09 14:44:50.588,4,-0.52,-0.08,1.24,0.298400000000008,4.793999999999997,-1.5046000000000035,175,75
2026-05-09 14:44:50.602,4,-0.52,-0.09,1.25,0.7884000000000029,9.244,-0.09460000000000335,175,75
2026-05-09 14:44:50.612,4,-0.53,-0.09,1.28,1.578400000000002,10.584000000000003,1.0653999999999968,175,75
2026-05-09 14:44:50.624,4,-0.53,-0.09,1.3,2.558400000000006,11.373999999999995,0.9353999999999978,175,75
2026-05-09 14:44:50.651,4,-0.52,-0.11,1.28,2.1284000000000063,10.703999999999994,0.45539999999999736,175,75
2026-05-09 14:44:50.663,4,-0.52,-0.11,1.27,1.5184000000000069,9.793999999999997,0.20539999999999736,175,75
2026-05-09 14:44:50.677,4,-0.52,-0.09,1.27,0.35840000000000316,7.4140000000000015,0.20539999999999736,175,75
2026-05-09 14:44:50.688,4,-0.54,-0.09,1.26,-0.431599999999996,5.094000000000001,0.025399999999997647,175,75
2026-05-09 14:44:50.688,4,-0.56,-0.09,1.25,-0.7315999999999931,7.963999999999999,1.4253999999999962,175,75
2026-05-09 14:44:50.699,4,-0.55,-0.09,1.26,0.42840000000000344,12.843999999999994,2.8253999999999984,175,75
2026-05-09 14:44:50.714,4,-0.53,-0.09,1.28,1.8884000000000043,14.543999999999997,3.015399999999998,175,75
2026-05-09 14:44:50.724,4,-0.52,-0.1,1.29,3.4084000000000074,13.453999999999994,1.7953999999999972,175,75
2026-05-09 14:44:50.736,4,-0.49,-0.11,1.29,4.018400000000007,12.104,1.0653999999999968,175,75
2026-05-09 14:44:50.747,4,-0.5,-0.11,1.28,4.878400000000006,10.703999999999994,0.14539999999999864,175,75
2026-05-09 14:44:50.761,4,-0.5,-0.11,1.29,4.568400000000004,8.143999999999998,1.1853999999999978,175,75
2026-05-09 14:44:50.761,4,-0.52,-0.11,1.28,2.318400000000004,4.973999999999997,1.0653999999999968,175,75
2026-05-09 14:44:50.789,4,-0.54,-0.1,1.27,-0.7915999999999954,3.264000000000003,0.8153999999999968,175,75
2026-05-09 14:44:50.800,4,-0.52,-0.09,1.28,1.0284000000000049,4.4239999999999995,2.585399999999998,175,75
2026-05-09 14:44:50.825,4,-0.52,-0.12,1.27,-0.001599999999996271,1.1340000000000003,1.0653999999999968,175,75
2026-05-09 14:44:50.863,4,-0.51,-0.1,1.23,1.5184000000000069,4.793999999999997,1.2453999999999965,175,75
2026-05-09 14:44:50.877,4,-0.51,-0.07,1.28,1.3984000000000023,12.414000000000001,4.105399999999998,175,75
2026-05-09 14:44:50.889,4,-0.45,-0.1,1.31,0.42840000000000344,2.353999999999999,2.9553999999999974,175,75
2026-05-09 14:44:50.923,4,-0.54,-0.12,1.25,-3.3615999999999957,-3.2560000000000002,-0.7046000000000028,175,75
2026-05-09 14:44:50.934,4,-0.54,-0.1,1.24,-2.201599999999992,3.753999999999998,0.26539999999999964,175,75
2026-05-09 14:44:50.947,4,-0.5,-0.11,1.26,-0.7915999999999954,1.073999999999998,1.3053999999999988,175,75
2026-05-09 14:44:50.963,4,-0.53,-0.12,1.25,-2.9915999999999983,-1.3659999999999997,0.6953999999999994,175,75
2026-05-09 14:44:50.974,4,-0.55,-0.12,1.24,-2.931599999999996,2.4140000000000015,1.4853999999999985,175,75
2026-05-09 14:44:50.984,4,-0.55,-0.11,1.26,-2.0715999999999966,7.844000000000001,2.8253999999999984,175,75
2026-05-09 14:44:50.996,4,-0.54,-0.11,1.28,-2.0115999999999943,7.594000000000001,3.925399999999998,175,75
2026-05-09 14:44:51.008,4,-0.54,-0.12,1.29,-2.2615999999999943,4.1839999999999975,3.135399999999997,175,75
2026-05-09 14:44:51.037,4,-0.5,-0.11,1.31,-3.0515999999999934,-4.116,2.2753999999999976,175,75
2026-05-09 14:44:51.037,4,-0.53,-0.09,1.32,-4.271599999999992,-11.066000000000003,0.8153999999999968,175,75
2026-05-09 14:44:51.059,4,-0.54,-0.07,1.3,-4.641599999999997,-12.526000000000003,0.5153999999999996,175,75
2026-05-09 14:44:51.069,4,-0.53,-0.06,1.26,-4.451599999999992,-12.096000000000004,0.5753999999999984,175,75
2026-05-09 14:44:51.069,4,-0.54,-0.06,1.24,-4.5715999999999966,-7.286000000000001,1.4253999999999962,175,75
2026-05-09 14:44:51.090,4,-0.55,-0.06,1.23,-4.031599999999997,4.543999999999997,3.3753999999999973,175,75
2026-05-09 14:44:51.090,4,-0.54,-0.07,1.26,-3.481599999999993,10.463999999999999,4.105399999999998,175,75
2026-05-09 14:44:51.104,4,-0.54,-0.08,1.29,-3.1115999999999957,9.543999999999997,4.105399999999998,175,75
2026-05-09 14:44:51.114,4,-0.55,-0.07,1.32,-4.211599999999997,4.603999999999999,3.3153999999999986,175,75
2026-05-09 14:44:51.137,4,-0.56,-0.04,1.35,-2.201599999999992,-1.186,3.805399999999999,175,75
2026-05-09 14:44:51.149,4,-0.54,-0.05,1.35,-0.7315999999999931,-8.015999999999998,3.805399999999999,175,75
2026-05-09 14:44:51.176,4,-0.55,-0.07,1.27,-0.001599999999996271,-13.805999999999997,2.035399999999999,175,75
2026-05-09 14:44:51.188,4,-0.55,-0.06,1.25,0.42840000000000344,-9.296,3.1953999999999976,175,75
2026-05-09 14:44:51.199,4,-0.55,-0.06,1.26,0.548400000000008,-7.466000000000001,4.2353999999999985,175,75
2026-05-09 14:44:51.210,4,-0.55,-0.08,1.27,0.6684000000000054,-7.286000000000001,5.025399999999998,175,75
2026-05-09 14:44:51.222,4,-0.53,-0.1,1.26,0.7884000000000029,-8.195999999999998,4.965399999999997,175,75
2026-05-09 14:44:51.236,4,-0.52,-0.11,1.26,0.23840000000000572,-7.286000000000001,4.845399999999998,175,75
2026-05-09 14:44:51.249,4,-0.51,-0.11,1.24,0.6084000000000032,-5.396000000000001,5.025399999999998,175,75
2026-05-09 14:44:51.263,4,-0.53,-0.14,1.26,-0.181599999999996,-5.8160000000000025,6.425399999999998,175,75
2026-05-09 14:44:51.286,4,-0.5,-0.14,1.27,-2.6215999999999937,-14.725999999999999,5.265399999999998,175,75
2026-05-09 14:44:51.299,4,-0.49,-0.12,1.24,-3.901599999999995,-19.726,5.085399999999998,175,75
2026-05-09 14:44:51.309,4,-0.51,-0.1,1.22,-4.151599999999995,-16.735999999999997,5.935399999999998,175,75
2026-05-09 14:44:51.327,4,-0.49,-0.09,1.23,-3.2915999999999954,-8.256,7.345399999999998,175,75
2026-05-09 14:44:51.386,4,-0.48,-0.07,1.25,-2.201599999999992,-0.45600000000000307,7.095399999999998,175,75
2026-05-09 14:44:51.386,4,-0.48,-0.06,1.22,-2.7515999999999963,5.213999999999999,7.525399999999998,175,75
2026-05-09 14:44:51.399,4,-0.47,-0.05,1.22,-2.0715999999999966,9.854,8.745399999999998,175,75
2026-05-09 14:44:51.408,4,-0.47,-0.05,1.23,-0.31159999999999854,13.754000000000005,9.775399999999998,175,75
2026-05-09 14:44:51.422,4,-0.47,-0.08,1.24,0.058400000000006,14.304000000000002,9.475399999999999,175,75
2026-05-09 14:44:51.451,4,-0.45,-0.15,1.24,1.9484000000000066,12.293999999999997,5.995399999999998,175,75
2026-05-09 14:44:51.462,4,-0.45,-0.14,1.23,1.5184000000000069,9.914000000000001,4.355399999999998,175,75
2026-05-09 14:44:51.473,4,-0.47,-0.14,1.21,2.1884000000000015,10.703999999999994,3.3753999999999973,175,75
2026-05-09 14:44:51.491,4,-0.45,-0.12,1.22,0.9684000000000026,18.203999999999994,2.6453999999999986,175,75
2026-05-09 14:44:51.512,4,-0.47,-0.07,1.24,-2.0715999999999966,11.254000000000005,1.3053999999999988,175,75
2026-05-09 14:44:51.603,4,-0.5,-0.16,1.25,1.7084000000000046,36.373999999999995,2.465399999999997,175,75
2026-05-09 14:44:51.613,4,-0.5,-0.14,1.3,0.9084000000000074,32.294,2.1553999999999967,175,75
2026-05-09 14:44:51.624,4,-0.52,-0.1,1.34,0.298400000000008,19.914,2.035399999999999,175,75
2026-05-09 14:44:51.640,4,-0.53,-0.08,1.27,2.9884000000000057,10.644000000000005,3.015399999999998,175,75
2026-05-09 14:44:51.653,4,-0.52,-0.09,1.24,4.328400000000002,13.754000000000005,3.925399999999998,175,75
2026-05-09 14:44:51.667,4,-0.52,-0.1,1.22,7.248400000000004,19.123999999999995,5.205399999999997,175,75
2026-05-09 14:44:51.667,4,-0.53,-0.12,1.23,7.618400000000001,19.793999999999997,5.695399999999998,175,75
2026-05-09 14:44:51.686,4,-0.55,-0.11,1.25,5.298400000000008,20.644000000000005,4.965399999999997,175,75
2026-05-09 14:44:51.699,4,-0.55,-0.08,1.25,3.7184000000000026,20.584000000000003,5.085399999999998,175,75
2026-05-09 14:44:51.699,4,-0.57,-0.07,1.26,3.2284000000000077,19.123999999999995,5.385399999999997,175,75
2026-05-09 14:44:51.712,4,-0.57,-0.05,1.3,3.048400000000008,18.513999999999996,6.605399999999998,175,75
2026-05-09 14:44:51.723,4,-0.56,-0.03,1.33,3.4084000000000074,14.543999999999997,8.435399999999998,175,75
2026-05-09 14:44:51.770,4,-0.55,-0.04,1.34,2.1284000000000063,-35.456,5.385399999999997,175,75
2026-05-09 14:44:51.770,4,-0.59,-0.04,1.3,1.2184000000000026,-43.076,5.635399999999997,175,75
2026-05-09 14:44:51.794,4,-0.62,-0.03,1.29,-0.001599999999996271,-44.476,8.135399999999997,175,75
2026-05-09 14:44:51.800,4,-0.62,-0.01,1.29,-2.5015999999999963,-45.086,10.995399999999998,175,75
2026-05-09 14:44:51.814,4,-0.66,-0.01,1.3,-3.171599999999998,-43.566,16.425399999999996,175,75
2026-05-09 14:44:51.834,4,-0.67,-0.02,1.3,0.4884000000000057,-39.906,22.955399999999997,175,75
2026-05-09 14:44:51.855,4,-0.68,-0.13,1.21,4.508400000000002,-25.266000000000002,34.1654,175,75
2026-05-09 14:44:51.892,4,-0.67,-0.35,1.31,19.448400000000003,52.714,60.9354,175,75
2026-05-09 14:44:51.909,4,-0.7,-0.37,1.41,21.098400000000005,55.524,66.6054,175,75
2026-05-09 14:44:51.920,4,-0.72,-0.36,1.48,24.078400000000002,56.013999999999996,73.0754,175,75
2026-05-09 14:44:51.944,4,-0.77,-0.44,1.54,27.678400000000003,29.244,83.0754,175,75
2026-05-09 14:44:51.944,4,-0.83,-0.51,1.51,24.998400000000004,8.873999999999995,83.0154,175,75
2026-05-09 14:44:51.957,4,-0.91,-0.53,1.45,21.278400000000005,-6.616,84.3554,175,75
2026-05-09 14:44:51.977,4,-0.95,-0.55,1.37,19.748400000000004,-17.226,86.1254,175,75
2026-05-09 14:44:51.982,4,-0.96,-0.59,1.29,18.718400000000006,-13.625999999999998,91.1854,175,75
2026-05-09 14:44:52.007,4,-0.85,-0.61,1.22,14.138400000000004,25.524,100.4554,175,75
2026-05-09 14:44:52.050,4,-0.48,-0.44,1.07,-10.671599999999998,52.714,92.9554,175,75
2026-05-09 14:44:52.060,4,-0.43,-0.35,1.05,-17.141599999999997,65.954,87.2154,175,75
2026-05-09 14:44:52.081,4,-0.39,-0.12,1.19,-18.481599999999993,84.124,83.9254,175,75
2026-05-09 14:44:52.093,4,-0.3,0.05,1.23,-13.541599999999995,89.184,80.99539999999999,175,75
2026-05-09 14:44:52.104,4,-0.2,0.16,1.21,-9.941599999999994,93.814,78.3154,175,75
2026-05-09 14:44:52.116,4,-0.12,0.26,1.16,-5.3115999999999985,103.38399999999999,74.9054,175,75
2026-05-09 14:44:52.120,4,-0.02,0.35,1.13,-0.921599999999998,122.654,68.0754,175,75
2026-05-09 14:44:52.130,4,0.05,0.43,1.13,-0.5515999999999934,139.974,61.7354,175,75
2026-05-09 14:44:52.140,4,0.07,0.55,1.21,-2.681599999999996,157.044,52.8854,175,75
2026-05-09 14:44:52.155,4,0.11,0.75,1.36,-6.771599999999992,173.324,41.6054,175,75
2026-05-09 14:44:52.178,4,0.15,1.09,1.61,-13.661599999999993,172.474,21.915399999999998,175,75
2026-05-09 14:44:52.206,4,0.08,1.39,1.85,-15.611599999999996,130.154,-6.804600000000001,175,75
2026-05-09 14:44:52.226,4,0.01,1.11,1.8,4.328400000000002,47.903999999999996,-35.9546,175,75
2026-05-09 14:44:52.235,4,-0.05,0.85,1.71,13.288400000000003,-3.8659999999999997,-54.0646,175,75
2026-05-09 14:44:52.247,4,-0.14,0.62,1.63,22.678400000000003,-52.836,-76.9246,175,75
2026-05-09 14:44:52.264,4,-0.27,0.32,1.51,44.388400000000004,-101.366,-99.6746,175,75
2026-05-09 14:44:52.275,4,-0.48,-0.19,1.32,73.2884,-169.11599999999999,-120.76460000000002,175,75
2026-05-09 14:44:52.287,4,-0.85,-0.98,0.98,103.83840000000001,-247.766,-138.26460000000003,175,75
2026-05-09 14:44:52.287,4,-1.13,-1.67,0.57,123.95840000000001,-280.51599999999996,-132.90460000000002,175,75
2026-05-09 14:44:52.301,4,-1.53,-2.26,0.22,132.79840000000002,-258.80600000000004,-102.4746,175,75
2026-05-09 14:44:52.334,4,-2.17,-1.87,0.38,12.188400000000005,-141.006,-139.6746,175,75
2026-05-09 14:44:52.344,4,-1.62,-0.97,0.73,-69.39159999999998,-48.016,-120.58460000000001,175,75
2026-05-09 14:44:52.349,4,-1.64,-0.35,1.03,-90.3716,66.984,-18.934600000000003,175,75
2026-05-09 14:44:52.386,4,-1.41,-1.13,1.75,-79.9416,-80.816,-20.464600000000004,175,75
2026-05-09 14:44:52.420,4,-1.35,-0.86,1.15,-54.5816,-156.676,-39.7946,175,75
2026-05-09 14:44:52.420,4,-1.16,-0.71,0.84,-31.711599999999997,-112.406,-30.3446,175,75
2026-05-09 14:44:52.431,4,-1.04,-0.58,0.73,-24.151599999999995,-64.236,-23.084600000000002,175,75
2026-05-09 14:44:52.443,4,-0.89,-0.41,0.76,-24.511599999999994,0.46399999999999864,-14.674600000000005,175,75
2026-05-09 14:44:52.454,4,-0.68,-0.19,0.93,-33.291599999999995,66.434,-8.024600000000003,175,75
2026-05-09 14:44:52.476,4,-0.46,0.17,1.37,-53.48159999999999,77.174,-9.4846,175,75
2026-05-09 14:44:52.509,4,-0.38,0.62,1.65,-58.78159999999999,-30.636,-13.634600000000002,175,75
2026-05-09 14:44:52.525,4,-0.36,0.71,1.55,-45.92159999999999,-76.066,-11.8046,175,75
2026-05-09 14:44:52.535,4,-0.37,0.73,1.43,-33.9716,-98.376,-11.624600000000001,175,75
2026-05-09 14:44:52.545,4,-0.38,0.77,1.38,-28.231599999999993,-106.006,-10.8946,175,75
2026-05-09 14:44:52.563,4,-0.38,1.06,1.4,-18.841599999999993,-99.596,-5.704600000000003,175,75
2026-05-09 14:44:52.589,4,-0.33,1.28,1.34,-3.5415999999999954,-94.536,2.035399999999999,175,75
2026-05-09 14:44:52.608,4,-0.26,1.21,1.15,13.838400000000004,-33.926,10.455399999999997,175,75
2026-05-09 14:44:52.628,4,-0.24,1.06,1.12,18.348400000000005,1.1940000000000026,12.525399999999998,175,75
2026-05-09 14:44:52.643,4,-0.17,0.85,1.17,25.608400000000003,48.574,7.885399999999997,175,75
2026-05-09 14:44:52.661,4,-0.14,0.77,1.22,27.558400000000006,51.434,3.3753999999999973,175,75
2026-05-09 14:44:52.673,4,-0.18,0.63,1.26,30.488400000000006,42.774,-5.404600000000002,175,75
2026-05-09 14:44:52.683,4,-0.26,0.38,1.3,30.728400000000004,18.024,-16.744600000000005,175,75
2026-05-09 14:44:52.691,4,-0.34,0.12,1.28,26.578400000000002,-13.195999999999998,-25.894600000000004,175,75
2026-05-09 14:44:52.705,4,-0.37,-0.19,1.21,21.578400000000006,-36.546,-28.334600000000002,175,75
2026-05-09 14:44:52.733,4,0.04,-1.53,0.79,73.1684,-58.506,-6.314600000000002,175,75
2026-05-09 14:44:52.744,4,0.09,-1.81,0.8,85.8484,-65.876,-2.114600000000003,175,75
2026-05-09 14:44:52.757,4,-0.09,-1.88,0.98,77.1284,-81.366,-14.9146,175,75
2026-05-09 14:44:52.768,4,-0.33,-1.54,1.2,47.068400000000004,-97.096,-40.7646,175,75
2026-05-09 14:44:52.785,4,-0.42,-1.06,1.27,23.598400000000005,-139.726,-56.9846,175,75
2026-05-09 14:44:52.824,4,-0.48,-0.08,1.28,-44.2716,-121.246,0.14539999999999864,175,75
2026-05-09 14:44:52.848,4,-0.41,-0.18,1.53,-18.721599999999995,-81.126,27.275399999999998,175,75
2026-05-09 14:44:52.860,4,-0.62,-0.26,1.61,-26.1616,-69.116,31.3054,175,75
2026-05-09 14:44:52.871,4,-0.79,-0.22,1.59,-33.48159999999999,-49.356,36.1854,175,75
2026-05-09 14:44:52.871,4,-0.87,-0.21,1.57,-25.4916,-23.195999999999998,46.9154,175,75
2026-05-09 14:44:52.893,4,-0.98,-0.5,1.58,10.488400000000006,2.103999999999999,66.1854,175,75
2026-05-09 14:44:52.906,4,-1.08,-0.84,1.58,39.878400000000006,2.043999999999997,73.9254,175,75
2026-05-09 14:44:52.906,4,-1.15,-1.2,1.58,59.748400000000004,-6.366,79.1654,175,75
2026-05-09 14:44:52.921,4,-1.23,-1.54,1.51,65.9684,-2.956000000000003,87.9554,175,75
2026-05-09 14:44:52.931,4,-1.14,-1.53,1.36,59.44840000000001,24.123999999999995,87.0954,175,75
2026-05-09 14:44:52.950,4,-0.84,-1.22,1.18,53.2884,59.854,83.3754,175,75
2026-05-09 14:44:52.950,4,-0.72,-1.02,0.99,57.318400000000004,93.814,92.4654,175,75
2026-05-09 14:44:52.968,4,-0.78,-0.99,0.82,59.208400000000005,157.104,94.5354,175,75
2026-05-09 14:44:52.986,4,-0.73,-0.89,0.84,52.558400000000006,226.864,91.1854,175,75
2026-05-09 14:44:52.986,4,-0.55,-0.65,0.99,39.878400000000006,287.534,84.2354,175,75
2026-05-09 14:44:52.998,4,-0.29,-0.18,1.24,20.968400000000006,316.134,70.9354,175,75
2026-05-09 14:44:53.010,4,-0.18,0.23,1.42,7.068400000000004,302.654,57.2754,175,75
2026-05-09 14:44:53.019,4,-0.15,0.6,1.53,-2.441599999999994,280.58399999999995,46.2454,175,75
2026-05-09 14:44:53.039,4,-0.08,1.03,1.64,-2.9915999999999983,245.27399999999997,34.4154,175,75
2026-05-09 14:44:53.051,4,0.0,1.26,1.7,11.458400000000005,206.984,21.795399999999997,175,75
2026-05-09 14:44:53.084,4,-0.2,1.45,1.88,42.498400000000004,23.873999999999995,-38.5146,175,75
2026-05-09 14:44:53.101,4,-0.36,1.56,1.65,38.1084,-85.576,-64.0046,175,75
2026-05-09 14:44:53.128,4,-0.43,1.44,1.41,36.3984,-102.226,-69.7346,175,75
2026-05-09 14:44:53.128,4,-0.4,1.28,1.35,38.598400000000005,-96.006,-70.5246,175,75
2026-05-09 14:44:53.142,4,-0.41,1.09,1.32,39.0784,-91.79599999999999,-71.9246,175,75
2026-05-09 14:44:53.153,4,-0.42,0.82,1.34,39.208400000000005,-88.436,-74.9746,175,75
2026-05-09 14:44:53.165,4,-0.45,0.53,1.38,40.6084,-94.846,-81.6846,175,75
2026-05-09 14:44:53.182,4,-0.51,0.13,1.37,42.378400000000006,-121.426,-92.1746,175,75
2026-05-09 14:44:53.204,4,-0.79,-0.75,1.28,32.318400000000004,-180.936,-107.2346,175,75
2026-05-09 14:44:53.204,4,-0.92,-1.3,1.19,23.288400000000003,-194.116,-109.4246,175,75
2026-05-09 14:44:53.222,4,-1.03,-1.85,1.12,8.718400000000006,-201.616,-105.6446,175,75
2026-05-09 14:44:53.254,4,-1.06,-1.58,1.32,-60.61159999999999,-197.406,-115.64460000000001,175,75
2026-05-09 14:44:53.254,4,-0.82,-1.18,1.4,-86.4716,-202.036,-112.29459999999999,175,75
2026-05-09 14:44:53.268,4,-0.61,-0.85,1.39,-98.23159999999999,-231.186,-99.4846,175,75
2026-05-09 14:44:53.279,4,-0.58,-0.81,1.31,-99.64159999999998,-243.256,-93.2046,175,75
2026-05-09 14:44:53.293,4,-0.55,-0.75,1.23,-107.93159999999997,-222.466,-89.1246,175,75
2026-05-09 14:44:53.303,4,-0.45,-0.58,1.21,-117.93159999999997,-193.866,-85.6446,175,75
2026-05-09 14:44:53.314,4,-0.33,-0.31,1.23,-117.5016,-180.936,-81.9246,175,75
2026-05-09 14:44:53.329,4,-0.24,0.04,1.04,-100.79159999999999,-174.11599999999999,-72.2346,175,75
2026-05-09 14:44:53.349,4,-0.2,0.12,0.92,-90.3116,-148.136,-62.964600000000004,175,75
2026-05-09 14:44:53.354,4,-0.15,0.16,0.85,-80.4316,-111.066,-53.2646,175,75
2026-05-09 14:44:53.369,4,-0.06,0.17,0.89,-70.73159999999999,-59.786,-39.6146,175,75
2026-05-09 14:44:53.382,4,0.0,0.18,1.04,-63.17159999999999,-31.976,-31.074600000000004,175,75
2026-05-09 14:44:53.392,4,0.08,0.2,1.18,-53.901599999999995,-23.316000000000003,-25.7646,175,75
2026-05-09 14:44:53.402,4,0.16,0.24,1.31,-45.67159999999999,-39.906,-21.864600000000003,175,75
2026-05-09 14:44:53.414,4,0.14,0.3,1.35,-42.20159999999999,-59.966,-15.9546,175,75
2026-05-09 14:44:53.418,4,0.07,0.34,1.23,-35.5516,-68.566,-7.724600000000002,175,75
2026-05-09 14:44:53.430,4,0.03,0.27,1.1,-25.86159999999999,-56.676,9.105399999999998,175,75
2026-05-09 14:44:53.446,4,-0.09,0.12,1.1,-17.441599999999994,-27.766000000000002,25.3254,175,75
2026-05-09 14:44:53.455,4,-0.15,-0.06,1.16,-10.611599999999996,-9.415999999999997,33.9854,175,75
2026-05-09 14:44:53.470,4,-0.26,-0.45,1.23,1.2784000000000049,-14.905999999999999,40.5154,175,75
2026-05-09 14:44:53.470,4,-0.4,-1.0,1.2,17.248400000000004,-36.245999999999995,42.2754,175,75
2026-05-09 14:44:53.483,4,-0.64,-1.98,1.08,43.528400000000005,-59.476,51.3654,175,75
2026-05-09 14:44:53.515,4,-0.92,-3.34,0.71,57.7984,53.754000000000005,64.71539999999999,175,75
2026-05-09 14:44:53.528,4,-0.73,-1.91,1.02,3.528400000000005,160.824,-1.1946000000000012,175,75
2026-05-09 14:44:53.538,4,-0.39,0.02,1.61,-39.09159999999999,180.094,37.5254,175,75
2026-05-09 14:44:53.560,4,-0.49,0.4,1.7,-5.671599999999998,117.23400000000001,28.5554,175,75
2026-05-09 14:44:53.573,4,-0.4,0.38,1.62,-15.001599999999996,129.424,17.705399999999997,175,75
2026-05-09 14:44:53.594,4,-0.18,0.47,1.58,-11.041599999999995,128.084,1.0653999999999968,175,75
2026-05-09 14:44:53.594,4,-0.14,0.62,1.56,-2.441599999999994,123.38399999999999,-5.7646000000000015,175,75
2026-05-09 14:44:53.613,4,-0.2,0.85,1.54,5.788400000000003,120.344,-16.9846,175,75
2026-05-09 14:44:53.624,4,-0.24,1.07,1.57,8.168400000000005,118.26400000000001,-26.6246,175,75
2026-05-09 14:44:53.624,4,-0.24,1.25,1.63,8.658400000000004,101.744,-35.1546,175,75
2026-05-09 14:44:53.643,4,-0.22,1.3,1.65,13.898400000000006,64.734,-41.2546,175,75
2026-05-09 14:44:53.654,4,-0.25,1.23,1.61,18.168400000000005,28.634,-45.1546,175,75
2026-05-09 14:44:53.669,4,-0.3,1.0,1.49,17.008400000000005,-2.3460000000000036,-53.3946,175,75
2026-05-09 14:44:53.669,4,-0.29,0.87,1.38,9.078400000000006,-9.846000000000004,-58.754599999999996,175,75
2026-05-09 14:44:53.682,4,-0.24,0.84,1.25,0.298400000000008,-12.405999999999999,-65.1546,175,75
2026-05-09 14:44:53.703,4,-0.24,0.88,1.18,-4.881599999999999,-3.686,-68.8146,175,75
2026-05-09 14:44:53.703,4,-0.24,0.89,1.17,-6.951599999999992,10.213999999999999,-69.6146,175,75
2026-05-09 14:44:53.713,4,-0.2,0.83,1.18,-9.151599999999995,18.933999999999997,-71.6246,175,75
2026-05-09 14:44:53.726,4,-0.2,0.72,1.21,-10.001599999999996,11.983999999999995,-73.69460000000001,175,75
2026-05-09 14:44:53.738,4,-0.23,0.52,1.2,-8.901599999999995,-7.155999999999999,-75.1546,175,75
2026-05-09 14:44:53.753,4,-0.28,0.29,1.15,-9.881599999999999,-18.256,-75.9546,175,75
2026-05-09 14:44:53.763,4,-0.29,0.14,1.1,-12.261599999999994,-14.786000000000001,-78.33460000000001,175,75
2026-05-09 14:44:53.774,4,-0.27,-0.01,1.04,-15.861599999999996,-9.176000000000002,-78.8746,175,75
2026-05-09 14:44:53.786,4,-0.29,-0.15,1.02,-19.8816,-8.746000000000002,-78.33460000000001,175,75
2026-05-09 14:44:53.800,4,-0.37,-0.27,1.02,-23.841599999999993,-5.456000000000003,-76.6846,175,75
2026-05-09 14:44:53.810,4,-0.41,-0.36,1.06,-29.821599999999997,0.6439999999999984,-73.7546,175,75
2026-05-09 14:44:53.823,4,-0.42,-0.35,1.19,-34.5816,-5.936,-68.7546,175,75
2026-05-09 14:44:53.826,4,-0.43,-0.29,1.3,-35.67159999999999,-35.756,-65.2246,175,75
2026-05-09 14:44:53.837,4,-0.43,-0.27,1.33,-37.681599999999996,-67.706,-59.6746,175,75
2026-05-09 14:44:53.847,4,-0.44,-0.32,1.27,-38.78159999999999,-87.586,-52.8446,175,75
2026-05-09 14:44:53.858,4,-0.46,-0.48,1.09,-36.2216,-91.48599999999999,-41.8646,175,75
2026-05-09 14:44:53.891,4,-0.51,-0.92,0.75,-14.091599999999993,12.233999999999995,15.205399999999997,175,75
2026-05-09 14:44:53.903,4,-0.51,-0.85,0.83,-8.481599999999993,58.384,30.935399999999998,175,75
2026-05-09 14:44:53.913,4,-0.44,-0.72,0.95,-2.931599999999996,95.404,46.6654,175,75
2026-05-09 14:44:53.924,4,-0.38,-0.66,1.03,9.688400000000005,111.864,65.3854,175,75
2026-05-09 14:44:53.935,4,-0.4,-0.77,1.07,23.958400000000005,116.924,79.9054,175,75
2026-05-09 14:44:53.948,4,-0.42,-0.94,1.08,34.6884,124.184,93.0154,175,75
2026-05-09 14:44:53.965,4,-0.41,-1.1,1.09,40.418400000000005,129.424,104.7154,175,75
2026-05-09 14:44:53.965,4,-0.41,-1.23,1.08,43.65840000000001,134.064,114.41539999999999,175,75
2026-05-09 14:44:53.976,4,-0.42,-1.43,1.07,53.83840000000001,142.234,123.19539999999999,175,75
2026-05-09 14:44:53.996,4,-0.4,-1.69,1.01,65.5484,149.914,127.7054,175,75
2026-05-09 14:44:54.007,4,-0.37,-1.79,0.97,69.2684,155.704,128.0754,175,75
2026-05-09 14:44:54.018,4,-0.37,-1.69,0.95,67.61840000000001,167.354,124.9054,175,75
2026-05-09 14:44:54.018,4,-0.33,-1.34,0.99,63.598400000000005,184.544,118.3154,175,75
2026-05-09 14:44:54.030,4,-0.24,-1.0,1.04,61.458400000000005,197.654,115.2054,175,75
2026-05-09 14:44:54.042,4,-0.16,-0.59,1.12,61.5784,202.53400000000002,111.4254,175,75
2026-05-09 14:44:54.052,4,-0.14,-0.27,1.24,60.238400000000006,196.134,103.1354,175,75
2026-05-09 14:44:54.069,4,-0.14,-0.03,1.35,57.378400000000006,183.814,94.2954,175,75
2026-05-09 14:44:54.071,4,-0.12,0.24,1.44,51.94840000000001,164.304,84.1054,175,75
2026-05-09 14:44:54.093,4,-0.09,0.86,1.54,39.0784,106.01400000000001,62.8854,175,75
2026-05-09 14:44:54.100,4,-0.08,1.08,1.54,36.5784,88.69399999999999,53.8054,175,75
2026-05-09 14:44:54.116,4,-0.07,1.23,1.51,34.878400000000006,80.82400000000001,44.8454,175,75
2026-05-09 14:44:54.116,4,-0.08,1.31,1.5,32.61840000000001,77.53399999999999,35.6954,175,75
2026-05-09 14:44:54.126,4,-0.12,1.35,1.52,27.558400000000006,71.924,26.3054,175,75
2026-05-09 14:44:54.143,4,-0.18,1.35,1.56,20.178400000000003,63.024,15.635399999999997,175,75
2026-05-09 14:44:54.153,4,-0.23,1.31,1.6,12.678400000000003,40.524,2.7053999999999974,175,75
2026-05-09 14:44:54.169,4,-0.21,1.26,1.57,7.9284000000000034,12.843999999999994,-6.0146000000000015,175,75
2026-05-09 14:44:54.178,4,-0.17,1.21,1.5,1.7684000000000069,-8.375999999999998,-14.184600000000003,175,75
2026-05-09 14:44:54.195,4,-0.15,1.12,1.45,-3.2915999999999954,-18.625999999999998,-23.754600000000003,175,75
2026-05-09 14:44:54.209,4,-0.14,1.05,1.46,-4.331599999999995,-20.026000000000003,-30.464600000000004,175,75
2026-05-09 14:44:54.209,4,-0.13,0.98,1.52,-2.7515999999999963,-32.156,-38.6946,175,75
2026-05-09 14:44:54.224,4,-0.18,0.94,1.57,-2.5615999999999985,-59.966,-50.0946,175,75
2026-05-09 14:44:54.243,4,-0.22,0.94,1.56,-4.391599999999997,-92.036,-60.2846,175,75
2026-05-09 14:44:54.254,4,-0.3,0.91,1.56,-3.901599999999995,-112.286,-63.33460000000001,175,75
2026-05-09 14:44:54.254,4,-0.4,0.78,1.5,-0.12159999999999371,-133.686,-66.44460000000001,175,75
2026-05-09 14:44:54.278,4,-0.49,0.17,1.29,-0.181599999999996,-137.95600000000002,-65.4646,175,75
2026-05-09 14:44:54.289,4,-0.57,-0.49,1.23,6.098400000000005,-96.24600000000001,-63.4546,175,75
2026-05-09 14:44:54.301,4,-0.45,-1.45,1.21,19.328400000000006,-78.806,-59.5446,175,75
2026-05-09 14:44:54.316,4,-0.39,-2.37,1.14,27.798400000000004,-104.846,-49.0646,175,75
2026-05-09 14:44:54.329,4,-0.61,-3.15,1.04,31.638400000000004,-129.966,-30.5246,175,75
2026-05-09 14:44:54.329,4,-0.97,-3.38,0.97,23.168400000000005,-112.286,-31.0146,175,75
2026-05-09 14:44:54.341,4,-1.17,-2.77,1.1,-6.831599999999995,-64.96600000000001,-74.91460000000001,175,75
2026-05-09 14:44:54.369,4,-0.33,-0.88,1.69,-65.92159999999998,-118.376,-40.894600000000004,175,75
2026-05-09 14:44:54.383,4,-0.43,-0.76,1.74,-55.181599999999996,-183.436,-45.464600000000004,175,75
2026-05-09 14:44:54.393,4,-0.29,-0.77,1.7,-67.20159999999998,-200.146,-44.7346,175,75
2026-05-09 14:44:54.410,4,-0.14,-0.75,1.23,-91.6516,-207.766,-44.3646,175,75
2026-05-09 14:44:54.425,4,-0.15,-0.63,0.91,-78.9716,-166.736,-41.0146,175,75
2026-05-09 14:44:54.436,4,-0.2,-0.41,0.72,-60.67159999999999,-99.23599999999999,-29.614600000000003,175,75
2026-05-09 14:44:54.447,4,-0.25,-0.18,0.67,-41.95159999999999,-18.985999999999997,-11.564600000000002,175,75
2026-05-09 14:44:54.459,4,-0.28,-0.03,0.74,-27.81159999999999,40.093999999999994,3.435399999999998,175,75
2026-05-09 14:44:54.473,4,-0.22,0.14,0.91,-15.921599999999998,88.75399999999999,16.0554,175,75
2026-05-09 14:44:54.488,4,-0.16,0.51,1.28,-9.941599999999994,86.98400000000001,29.415399999999998,175,75
2026-05-09 14:44:54.505,4,-0.06,0.71,1.33,-14.701599999999992,79.60400000000001,28.3754,175,75
2026-05-09 14:44:54.517,4,0.01,0.88,1.33,-20.3116,74.244,25.6954,175,75
2026-05-09 14:44:54.528,4,0.01,0.99,1.32,-23.601599999999998,66.984,20.635399999999997,175,75
2026-05-09 14:44:54.539,4,0.01,1.1,1.28,-26.8316,63.994,14.165399999999998,175,75
2026-05-09 14:44:54.576,4,-0.02,1.18,1.24,-22.9916,71.684,10.515399999999998,175,75
2026-05-09 14:44:54.586,4,-0.04,1.12,1.24,-19.821599999999997,67.594,8.925399999999998,175,75
2026-05-09 14:44:54.589,4,-0.06,0.99,1.21,-16.471599999999995,62.104,7.035399999999997,175,75
2026-05-09 14:44:54.602,4,-0.12,0.79,1.21,-14.821599999999997,61.074,6.915399999999998,175,75
2026-05-09 14:44:54.629,4,-0.29,0.08,1.24,-11.711599999999997,47.044,-0.09460000000000335,175,75
2026-05-09 14:44:54.639,4,-0.37,-0.39,1.15,-7.261599999999994,24.304000000000002,-1.4346000000000032,175,75
2026-05-09 14:44:54.653,4,-0.46,-1.02,1.0,3.348400000000005,4.793999999999997,3.3753999999999973,175,75
2026-05-09 14:44:54.659,4,-0.59,-1.97,0.85,22.498400000000004,-3.0159999999999982,20.455399999999997,175,75
2026-05-09 14:44:54.670,4,-0.75,-3.24,0.77,46.8284,9.854,56.3654,175,75
2026-05-09 14:44:54.680,4,-1.11,-3.24,0.97,39.388400000000004,13.323999999999998,32.7054,175,75
2026-05-09 14:44:54.692,4,-0.74,-1.71,1.33,-14.451599999999992,13.323999999999998,-54.7346,175,75
2026-05-09 14:44:54.706,4,0.03,-0.79,1.47,-58.6616,8.024000000000001,-9.424600000000002,175,75
2026-05-09 14:44:54.730,4,-0.3,-0.36,0.91,3.6584000000000074,-54.906,11.185399999999998,175,75
2026-05-09 14:44:54.749,4,-0.43,-0.92,0.72,4.568400000000004,70.524,29.535399999999996,175,75
2026-05-09 14:44:54.763,4,-0.35,-0.84,0.87,-17.751599999999996,126.374,17.4654,175,75
2026-05-09 14:44:54.774,4,-0.17,-0.54,1.14,-19.701599999999992,130.214,14.415399999999998,175,75
2026-05-09 14:44:54.784,4,-0.1,-0.25,1.35,-19.571599999999997,102.774,13.135399999999997,175,75
2026-05-09 14:44:54.787,4,-0.08,0.06,1.42,-26.101599999999998,62.534000000000006,2.885399999999997,175,75
2026-05-09 14:44:54.820,4,-0.04,1.1,1.25,-55.25159999999999,38.574,-8.754600000000003,175,75
2026-05-09 14:44:54.833,4,-0.03,1.45,1.15,-51.89159999999999,61.623999999999995,-1.9246000000000016,175,75
2026-05-09 14:44:54.844,4,-0.05,1.61,1.07,-37.871599999999994,91.744,4.965399999999997,175,75
2026-05-09 14:44:54.854,4,-0.13,1.58,1.01,-12.931599999999996,140.344,13.435399999999998,175,75
2026-05-09 14:44:54.858,4,-0.2,1.34,1.06,5.968400000000003,189.184,19.595399999999998,175,75
2026-05-09 14:44:54.873,4,-0.23,1.05,1.19,15.728400000000004,211.564,18.6254,175,75
2026-05-09 14:44:54.916,4,-0.4,0.63,1.58,10.118400000000005,59.123999999999995,-21.1946,175,75
2026-05-09 14:44:54.927,4,-0.42,0.63,1.49,3.108400000000003,9.364000000000004,-30.584600000000002,175,75
2026-05-09 14:44:54.939,4,-0.44,0.62,1.37,-0.6115999999999957,-20.695999999999998,-35.4046,175,75
2026-05-09 14:44:54.939,4,-0.51,0.48,1.21,-3.421599999999998,-28.076,-37.2346,175,75
2026-05-09 14:44:54.953,4,-0.57,0.28,1.19,-5.861599999999996,-4.116,-36.924600000000005,175,75
2026-05-09 14:44:54.967,4,-0.57,0.04,1.25,-10.001599999999996,21.073999999999998,-41.074600000000004,175,75
2026-05-09 14:44:54.974,4,-0.58,-0.23,1.38,-14.701599999999992,11.563999999999993,-46.19460000000001,175,75
2026-05-09 14:44:54.986,4,-0.68,-0.49,1.48,-18.601599999999998,-28.256,-46.864599999999996,175,75
2026-05-09 14:44:55.003,4,-0.76,-0.74,1.45,-23.111599999999996,-60.876,-47.1746,175,75
2026-05-09 14:44:55.015,4,-0.68,-1.03,1.26,-24.39159999999999,-76.426,-40.034600000000005,175,75
2026-05-09 14:44:55.028,4,-0.63,-1.19,1.15,-17.011599999999994,-76.126,-31.864600000000003,175,75
2026-05-09 14:44:55.050,4,-0.58,-1.23,1.13,-9.391599999999997,-48.436,-14.7346,175,75
2026-05-09 14:44:55.062,4,-0.54,-1.12,1.2,-9.391599999999997,-33.926,-8.3946,175,75
2026-05-09 14:44:55.065,4,-0.48,-0.95,1.28,-8.231599999999993,-31.126,-2.5946000000000033,175,75
2026-05-09 14:44:55.348,4,-0.42,-0.68,1.32,-4.8215999999999966,-44.846000000000004,7.215399999999997,175,75
2026-05-09 14:44:55.348,4,-0.41,-0.48,1.31,-2.5015999999999963,-50.456,16.365399999999998,175,75
2026-05-09 14:44:55.348,4,-0.4,-0.3,1.27,1.3984000000000023,-31.736,28.135399999999997,175,75
2026-05-09 14:44:55.348,4,-0.36,-0.19,1.23,7.558400000000006,-5.0859999999999985,37.7654,175,75
2026-05-09 14:44:55.348,4,-0.29,-0.34,1.33,31.828400000000006,72.964,61.2454,175,75
2026-05-09 14:44:55.348,4,-0.27,-0.43,1.41,34.6884,88.144,59.4154,175,75
2026-05-09 14:44:55.348,4,-0.26,-0.4,1.49,35.5484,89.79400000000001,56.3054,175,75
2026-05-09 14:44:55.348,4,-0.25,-0.31,1.57,37.988400000000006,77.844,51.4854,175,75
2026-05-09 14:44:55.349,4,-0.28,-0.13,1.62,40.1784,9.244,34.1654,175,75
2026-05-09 14:44:55.349,4,-0.26,-0.09,1.59,39.5084,-18.926000000000002,29.045399999999997,175,75
2026-05-09 14:44:55.349,4,-0.21,-0.14,1.4,36.638400000000004,-67.586,22.345399999999998,175,75
2026-05-09 14:44:55.349,4,-0.18,-0.19,1.26,35.72840000000001,-64.596,21.855399999999996,175,75
2026-05-09 14:44:55.349,4,-0.15,-0.21,1.14,34.818400000000004,-47.586,23.255399999999998,175,75
2026-05-09 14:44:55.349,4,-0.12,-0.18,1.07,32.6784,-21.125999999999998,25.935399999999998,175,75
2026-05-09 14:44:55.349,4,-0.12,-0.14,1.05,28.108400000000003,5.463999999999999,28.685399999999998,175,75
2026-05-09 14:44:55.349,4,-0.12,-0.06,1.06,21.218400000000006,36.983999999999995,33.4354,175,75
2026-05-09 14:44:55.349,4,-0.11,-0.03,1.06,15.788400000000003,46.373999999999995,33.7454,175,75
2026-05-09 14:44:55.349,4,-0.09,0.01,1.08,10.728400000000004,55.524,33.0754,175,75
2026-05-09 14:44:55.349,4,-0.06,0.04,1.12,8.048400000000004,58.934,32.8854,175,75
2026-05-09 14:44:55.453,4,-0.01,0.1,1.12,3.598400000000005,44.123999999999995,27.465399999999995,175,75
2026-05-09 14:44:55.453,4,-0.02,0.11,1.1,2.0084000000000017,39.794,25.635399999999997,175,75
2026-05-09 14:44:55.453,4,-0.04,0.12,1.01,3.048400000000008,42.104,24.475399999999997,175,75
2026-05-09 14:44:55.740,4,-0.04,0.19,0.99,10.908400000000004,75.344,26.185399999999998,175,75
2026-05-09 14:44:55.740,4,-0.01,0.24,1.07,14.568400000000004,57.653999999999996,16.545399999999997,175,75
2026-05-09 14:44:55.740,4,0.0,0.27,1.1,12.858400000000003,41.623999999999995,10.385399999999997,175,75
2026-05-09 14:44:55.740,4,0.01,0.35,1.1,7.618400000000001,23.873999999999995,4.105399999999998,175,75
2026-05-09 14:44:55.740,4,0.01,0.42,1.12,3.4684000000000026,11.744,-0.4646000000000008,175,75
2026-05-09 14:44:55.740,4,0.04,0.59,1.15,-6.401599999999995,-10.335999999999999,-10.4646,175,75
2026-05-09 14:44:55.740,4,0.04,0.68,1.19,-15.311599999999999,-16.976,-15.7046,175,75
2026-05-09 14:44:55.741,4,0.0,0.78,1.29,-25.25159999999999,-20.266,-18.6346,175,75
2026-05-09 14:44:55.741,4,0.04,0.97,1.35,-35.92159999999999,-42.956,-30.0946,175,75
2026-05-09 14:44:55.741,4,0.06,0.91,1.25,-34.8816,-36.916,-30.284600000000005,175,75
2026-05-09 14:44:55.741,4,-0.01,0.57,1.1,-24.211599999999997,-11.006,-27.354600000000005,175,75
2026-05-09 14:44:55.741,4,-0.16,0.02,1.05,-9.451599999999992,24.854,-21.504600000000003,175,75
2026-05-09 14:44:55.741,4,-0.41,-1.74,1.01,38.40840000000001,42.774,0.025399999999997647,175,75
2026-05-09 14:44:55.741,4,-0.79,-3.18,0.83,76.2184,30.703999999999994,35.6354,175,75
2026-05-09 14:44:55.741,4,-1.85,-3.64,1.01,88.95840000000001,93.75399999999999,52.2754,175,75
2026-05-09 14:44:55.985,4,-1.81,-2.25,1.37,43.778400000000005,125.95400000000001,-48.2046,175,75
2026-05-09 14:44:55.985,4,-0.63,-1.44,1.68,-0.181599999999996,142.714,-30.154600000000002,175,75
2026-05-09 14:44:55.985,4,-0.5,-0.99,1.49,0.7884000000000029,78.934,70.5754,175,75
2026-05-09 14:44:55.985,4,-1.04,-1.63,1.27,87.79840000000002,84.73400000000001,59.2954,175,75
2026-05-09 14:44:55.985,4,-0.88,-1.58,1.41,53.778400000000005,151.624,65.9354,175,75
2026-05-09 14:44:55.986,4,-0.8,-1.22,1.51,32.128400000000006,135.404,58.8054,175,75
2026-05-09 14:44:55.986,4,-0.84,-0.81,1.57,33.4684,92.714,53.6854,175,75
2026-05-09 14:44:55.986,4,-0.86,-0.4,1.58,36.33840000000001,77.53399999999999,61.425399999999996,175,75
2026-05-09 14:44:55.986,4,-0.74,-0.11,1.54,29.748400000000004,83.26400000000001,64.1654,175,75
2026-05-09 14:44:55.986,4,-0.51,0.24,1.51,16.028400000000005,90.584,63.4354,175,75
2026-05-09 14:44:55.986,4,-0.37,0.64,1.52,7.4384000000000015,109.064,62.215399999999995,175,75
2026-05-09 14:44:55.986,4,-0.33,1.15,1.59,32.498400000000004,104.73400000000001,54.355399999999996,175,75
2026-05-09 14:44:55.986,4,-0.41,0.94,1.49,40.058400000000006,85.76400000000001,47.58539999999999,175,75
2026-05-09 14:44:55.986,4,-0.43,0.79,1.37,38.65840000000001,77.714,43.3154,175,75
2026-05-09 14:44:55.986,4,-0.37,0.78,1.2,28.958400000000005,86.744,35.0254,175,75
2026-05-09 14:44:55.986,4,-0.31,0.8,1.2,24.878400000000006,95.70400000000001,33.3154,175,75
2026-05-09 14:44:55.986,4,-0.27,0.79,1.23,20.118400000000005,100.404,30.025399999999998,175,75
2026-05-09 14:44:55.986,4,-0.23,0.73,1.33,16.518400000000003,93.32400000000001,25.5754,175,75
2026-05-09 14:44:55.986,4,-0.12,0.67,1.39,17.068400000000004,33.754000000000005,12.645399999999999,175,75
2026-05-09 14:44:55.987,4,-0.11,0.61,1.33,13.528400000000005,1.4339999999999975,2.8253999999999984,175,75
2026-05-09 14:44:56.018,4,-0.12,0.59,1.29,8.838400000000004,-14.415999999999997,-4.424600000000002,175,75
2026-05-09 14:44:56.083,4,-0.12,0.58,1.27,4.9384000000000015,-25.516000000000002,-11.074600000000004,175,75
2026-05-09 14:44:56.083,4,-0.11,0.6,1.29,0.6084000000000032,-48.806,-20.0946,175,75
2026-05-09 14:44:56.083,4,-0.14,0.63,1.32,-3.6015999999999977,-73.746,-26.254600000000003,175,75
2026-05-09 14:44:56.083,4,-0.22,0.67,1.24,-8.901599999999995,-122.646,-37.8446,175,75
2026-05-09 14:44:56.083,4,-0.24,0.66,1.13,-9.511599999999994,-131.676,-37.964600000000004,175,75
2026-05-09 14:44:56.083,4,-0.28,0.67,1.06,-11.041599999999995,-127.586,-36.1346,175,75
2026-05-09 14:44:56.083,4,-0.32,0.67,1.02,-15.001599999999996,-109.29599999999999,-28.934600000000003,175,75
2026-05-09 14:44:56.374,4,-0.35,0.59,1.02,-16.711599999999997,-82.896,-20.404600000000002,175,75
2026-05-09 14:44:56.374,4,-0.33,0.47,1.01,-17.5616,-64.29599999999999,-13.1446,175,75
2026-05-09 14:44:56.374,4,-0.26,-0.13,0.89,-14.881599999999999,-0.5159999999999982,4.295399999999997,175,75
2026-05-09 14:44:56.374,4,-0.21,-0.53,0.78,-10.311599999999999,29.664,12.0354,175,75
2026-05-09 14:44:56.374,4,-0.13,-1.19,0.6,-0.9815999999999931,86.564,20.085399999999996,175,75
2026-05-09 14:44:56.375,4,-0.2,-2.72,0.71,13.718400000000006,187.654,33.5554,175,75
2026-05-09 14:44:56.375,4,-0.58,-2.82,1.21,2.858400000000003,165.034,10.935399999999998,175,75
2026-05-09 14:44:56.375,4,-0.97,-2.15,1.81,-29.2716,98.63399999999999,-43.0846,175,75
2026-05-09 14:44:56.375,4,-0.84,-1.57,2.08,-62.621599999999994,34.06399999999999,-61.9846,175,75
2026-05-09 14:44:56.375,4,-0.68,-1.19,2.06,-85.55160000000001,-49.656,-52.2346,175,75
2026-05-09 14:44:56.375,4,-0.68,-1.07,1.86,-84.9416,-121.616,-43.9346,175,75
2026-05-09 14:44:56.376,4,-0.7,-1.13,1.54,-70.4916,-146.976,-35.5846,175,75
2026-05-09 14:44:56.376,4,-0.58,-1.15,1.27,-57.9916,-86.186,-21.3146,175,75
2026-05-09 14:44:56.376,4,-0.38,-1.03,1.2,-49.3316,-32.525999999999996,-14.614600000000003,175,75
2026-05-09 14:44:56.376,4,-0.52,-0.61,1.14,-33.48159999999999,52.044,-16.504600000000003,175,75
2026-05-09 14:44:56.376,4,-0.64,-0.35,1.17,-26.8316,127.654,-12.474600000000002,175,75
2026-05-09 14:44:56.376,4,-0.57,-0.15,1.27,-14.391599999999997,174.544,-9.544600000000003,175,75
2026-05-09 14:44:56.376,4,-0.47,0.0,1.38,-4.701599999999992,184.674,-8.3946,175,75
2026-05-09 14:44:56.376,4,-0.44,0.29,1.58,2.9284000000000034,153.994,-15.644600000000004,175,75
2026-05-09 14:44:56.376,4,-0.48,0.47,1.66,0.9084000000000074,132.414,-20.834600000000002,175,75
2026-05-09 14:44:56.376,4,-0.52,0.78,1.76,-1.7715999999999923,101.684,-25.0946,175,75
2026-05-09 14:44:56.376,4,-0.51,1.14,1.82,-4.211599999999997,59.483999999999995,-27.534600000000005,175,75
2026-05-09 14:44:56.376,4,-0.47,1.48,1.7,-5.001599999999996,-24.416,-25.9546,175,75
2026-05-09 14:44:56.469,4,-0.45,1.31,1.56,0.6684000000000054,-38.566,-20.0946,175,75
2026-05-09 14:44:56.470,4,-0.42,0.99,1.4,7.6784000000000034,-38.135999999999996,-13.754600000000003,175,75
2026-05-09 14:44:56.470,4,-0.38,0.46,1.26,6.888400000000004,4.543999999999997,-0.9546000000000028,175,75
2026-05-09 14:44:56.470,4,-0.33,0.43,1.28,7.378400000000006,14.063999999999993,3.1953999999999976,175,75
2026-05-09 14:44:56.470,4,-0.33,0.45,1.3,10.788400000000003,10.644000000000005,8.495399999999998,175,75
2026-05-09 14:44:56.470,4,-0.41,0.46,1.29,15.238400000000006,4.4239999999999995,12.825399999999998,175,75
2026-05-09 14:44:56.537,4,-0.64,-0.37,1.03,43.528400000000005,73.934,44.7754,175,75
2026-05-09 14:44:56.537,4,-0.7,-0.65,1.05,48.168400000000005,89.124,49.4154,175,75
2026-05-09 14:44:56.553,4,-0.76,-1.04,1.13,52.988400000000006,98.144,51.7354,175,75
2026-05-09 14:44:56.558,4,-0.78,-1.29,1.19,52.248400000000004,88.26400000000001,47.8854,175,75
2026-05-09 14:44:56.559,4,-0.75,-1.33,1.23,46.33840000000001,71.314,41.1854,175,75
2026-05-09 14:44:56.571,4,-0.62,-1.01,1.26,27.918400000000005,29.424000000000007,30.385399999999997,175,75
2026-05-09 14:44:56.635,4,-0.59,-0.86,1.21,25.418400000000005,4.4239999999999995,29.775399999999998,175,75
2026-05-09 14:44:56.635,4,-0.61,-0.83,1.16,22.738400000000006,-10.576,30.025399999999998,175,75
2026-05-09 14:44:56.635,4,-0.62,-0.8,1.16,12.188400000000005,-15.026000000000003,28.0754,175,75
2026-05-09 14:44:56.635,4,-0.57,-0.64,1.21,-0.921599999999998,-12.036000000000001,23.255399999999998,175,75
2026-05-09 14:44:56.635,4,-0.46,-0.39,1.27,-11.341599999999993,-15.335999999999999,19.5354,175,75
2026-05-09 14:44:56.636,4,-0.41,0.09,1.27,-16.951599999999992,-32.036,13.865399999999998,175,75
2026-05-09 14:44:56.670,4,-0.41,0.36,1.26,-17.261599999999994,-30.146,11.365399999999998,175,75
2026-05-09 14:44:56.814,4,-0.4,0.68,1.23,-16.891599999999997,-17.836,10.515399999999998,175,75
2026-05-09 14:44:56.814,4,-0.38,1.12,1.26,-13.541599999999995,4.304000000000002,14.235399999999998,175,75
2026-05-09 14:44:56.814,4,-0.36,1.75,1.4,1.0284000000000049,51.864000000000004,22.2154,175,75
2026-05-09 14:44:56.814,4,-0.22,1.86,1.51,12.798400000000004,79.424,22.8254,175,75
2026-05-09 14:44:56.814,4,-0.08,1.44,1.58,28.468400000000003,74.124,11.125399999999999,175,75
2026-05-09 14:44:56.814,4,-0.12,1.09,1.61,31.888400000000004,50.524,2.5253999999999976,175,75
2026-05-09 14:44:56.814,4,-0.19,0.76,1.61,30.788400000000003,12.293999999999997,-8.264600000000002,175,75
2026-05-09 14:44:56.925,4,-0.13,-1.79,0.89,25.298400000000004,24.604,-37.4146,175,75
2026-05-09 14:44:56.925,4,-0.11,-2.7,0.84,29.448400000000007,22.653999999999996,-23.2646,175,75
2026-05-09 14:44:56.925,4,-0.4,-3.42,0.93,28.108400000000003,3.1439999999999984,-7.654600000000002,175,75
2026-05-09 14:44:56.925,4,-1.26,-3.13,1.38,-18.421599999999998,-10.816000000000003,-61.5646,175,75
2026-05-09 14:44:56.925,4,-0.79,-2.17,1.67,-68.17159999999998,-26.186,-106.6246,175,75
2026-05-09 14:44:56.925,4,-0.3,-1.47,1.7,-99.82159999999999,-67.156,-63.02460000000001,175,75
2026-05-09 14:44:56.925,4,-0.35,-1.17,1.55,-95.67159999999998,-95.816,-40.3446,175,75
2026-05-09 14:44:56.925,4,-0.29,-0.98,1.44,-70.1216,-80.516,-36.4346,175,75
2026-05-09 14:44:56.925,4,-0.13,-0.75,1.42,-65.2516,-38.806,-19.364600000000003,175,75
2026-05-09 14:44:56.925,4,-0.19,-0.55,1.39,-62.871599999999994,-21.976,-15.894600000000004,175,75
2026-05-09 14:44:56.932,4,-0.38,0.12,1.39,-12.321599999999997,62.964,3.1953999999999976,175,75
2026-05-09 14:44:56.946,4,-0.4,0.07,1.38,2.4384000000000015,58.084,7.765399999999998,175,75
2026-05-09 14:44:56.946,4,-0.4,-0.04,1.33,10.788400000000003,57.774,12.155399999999997,175,75
2026-05-09 14:44:57.203,4,-0.39,-0.11,1.28,13.468400000000006,66.804,14.535399999999997,175,75
2026-05-09 14:44:57.203,4,-0.31,-0.04,1.28,15.668400000000005,80.95400000000001,15.515399999999998,175,75
2026-05-09 14:44:57.203,4,-0.2,0.13,1.35,17.068400000000004,86.434,15.875399999999997,175,75
2026-05-09 14:44:57.204,4,-0.12,0.56,1.4,16.708400000000005,61.92400000000001,11.545399999999997,175,75
2026-05-09 14:44:57.204,4,-0.16,0.74,1.12,21.158400000000004,62.593999999999994,9.415399999999998,175,75
2026-05-09 14:44:57.204,4,-0.18,0.71,1.01,24.508400000000005,95.274,12.705399999999997,175,75
2026-05-09 14:44:57.204,4,-0.21,0.69,1.0,23.658400000000004,123.51400000000001,15.265399999999998,175,75
2026-05-09 14:44:57.205,4,-0.25,0.75,1.11,22.498400000000004,164.124,13.925399999999998,175,75
2026-05-09 14:44:57.205,4,-0.29,0.79,1.17,20.848400000000005,165.824,9.965399999999997,175,75
2026-05-09 14:44:57.205,4,-0.33,0.83,1.22,19.208400000000005,162.234,6.425399999999998,175,75
2026-05-09 14:44:57.205,4,-0.36,0.88,1.3,24.938400000000005,148.084,-2.7246000000000024,175,75
2026-05-09 14:44:57.205,4,-0.35,0.87,1.35,29.448400000000007,125.644,-11.074600000000004,175,75
2026-05-09 14:44:57.205,4,-0.37,0.84,1.37,31.338400000000007,100.274,-20.584600000000002,175,75
2026-05-09 14:44:57.205,4,-0.42,0.79,1.41,31.578400000000002,73.75399999999999,-28.8746,175,75
2026-05-09 14:44:57.205,4,-0.58,0.59,1.47,25.608400000000003,-20.636000000000003,-50.0346,175,75
2026-05-09 14:44:57.384,4,-0.8,0.28,1.43,17.438400000000005,-103.626,-54.244600000000005,175,75
2026-05-09 14:44:57.384,4,-0.98,-0.13,1.28,13.108400000000003,-111.916,-47.964600000000004,175,75
2026-05-09 14:44:57.384,4,-1.02,-0.66,1.13,11.708400000000005,-88.506,-41.1346,175,75
2026-05-09 14:44:57.384,4,-0.99,-1.23,1.07,12.438400000000005,-68.196,-32.174600000000005,175,75
2026-05-09 14:44:57.385,4,-0.99,-1.78,1.07,11.828400000000006,-59.906,-21.924600000000005,175,75
2026-05-09 14:44:57.385,4,-1.12,-2.15,1.18,-1.2215999999999951,-48.746,-14.3046,175,75
2026-05-09 14:44:57.385,4,-0.67,-1.09,1.21,-13.901599999999995,-102.586,31.1254,175,75
2026-05-09 14:44:57.385,4,-0.58,-1.0,1.12,-9.451599999999992,-52.706,37.2754,175,75
2026-05-09 14:44:57.385,4,-0.39,-0.75,1.12,-2.0715999999999966,-26.066,41.2454,175,75
2026-05-09 14:44:57.385,4,-0.3,-0.49,1.12,8.288400000000003,-8.015999999999998,42.7654,175,75
2026-05-09 14:44:57.385,4,-0.21,-0.12,1.19,17.438400000000005,51.983999999999995,36.3054,175,75
2026-05-09 14:44:57.385,4,-0.08,0.07,1.3,17.128400000000006,69.794,31.855399999999996,175,75
2026-05-09 14:44:57.385,4,-0.02,0.34,1.5,12.558400000000006,62.474000000000004,27.035399999999996,175,75
2026-05-09 14:44:57.442,4,-0.08,0.6,1.72,9.328400000000006,32.233999999999995,21.665399999999998,175,75
2026-05-09 14:44:57.454,4,-0.16,0.88,1.92,8.228400000000004,-18.256,15.875399999999997,175,75
2026-05-09 14:44:57.454,4,-0.14,1.09,2.0,6.278400000000005,-66.676,13.315399999999997,175,75
2026-05-09 14:44:57.477,4,-0.09,1.27,1.96,1.8884000000000043,-110.816,9.655399999999998,175,75
2026-05-09 14:44:57.478,4,0.01,1.41,1.73,-2.3215999999999966,-137.64600000000002,4.715399999999997,175,75
2026-05-09 14:44:57.478,4,0.12,1.46,1.09,14.818400000000004,-57.346000000000004,16.7354,175,75
2026-05-09 14:44:57.489,4,0.05,1.31,0.99,32.068400000000004,28.694000000000003,28.6254,175,75
2026-05-09 14:44:57.501,4,-0.12,0.97,1.06,42.068400000000004,144.734,38.8054,175,75
2026-05-09 14:44:57.509,4,-0.2,0.7,1.2,43.1084,195.274,39.5954,175,75
2026-05-09 14:44:57.509,4,-0.26,0.37,1.37,44.138400000000004,210.15400000000002,38.6854,175,75
2026-05-09 14:44:57.529,4,-0.39,-0.13,1.49,47.7984,189.794,30.2654,175,75
2026-05-09 14:44:57.530,4,-0.48,-0.75,1.51,52.738400000000006,152.904,21.665399999999998,175,75
2026-05-09 14:44:57.540,4,-0.71,-2.27,1.34,59.818400000000004,66.254,12.955399999999997,175,75
2026-05-09 14:44:57.552,4,-1.04,-2.73,1.35,50.418400000000005,46.434,5.935399999999998,175,75
2026-05-09 14:44:57.572,4,-1.22,-2.34,1.48,25.908400000000004,29.424000000000007,-37.534600000000005,175,75
2026-05-09 14:44:57.576,4,-0.99,-1.58,1.64,-1.4715999999999951,4.973999999999997,-68.69460000000001,175,75
2026-05-09 14:44:57.588,4,-0.56,-0.65,1.73,-36.1616,-37.766000000000005,-44.424600000000005,175,75
2026-05-09 14:44:57.602,4,-0.55,-0.2,1.6,-34.03159999999999,-82.036,-25.224600000000002,175,75
2026-05-09 14:44:57.613,4,-0.55,-0.16,1.38,-9.571599999999997,-85.576,-19.544600000000003,175,75
2026-05-09 14:44:57.624,4,-0.58,-0.39,1.21,-3.721599999999995,-29.846,-2.904600000000002,175,75
2026-05-09 14:44:57.647,4,-0.68,-0.56,1.17,-6.711599999999997,22.043999999999997,1.975399999999997,175,75
2026-05-09 14:44:57.647,4,-0.72,-0.56,1.24,-3.721599999999995,45.464,2.2753999999999976,175,75
2026-05-09 14:44:57.664,4,-0.72,-0.48,1.31,1.4584000000000046,50.884,4.295399999999997,175,75
2026-05-09 14:44:57.675,4,-0.74,-0.4,1.32,4.268400000000007,43.024,6.185399999999998,175,75
2026-05-09 14:44:57.676,4,-0.76,-0.33,1.29,5.118400000000001,42.233999999999995,9.045399999999997,175,75
2026-05-09 14:44:57.690,4,-0.76,-0.25,1.24,7.9284000000000034,56.744,14.355399999999998,175,75
2026-05-09 14:44:57.701,4,-0.69,-0.15,1.26,11.028400000000005,75.95400000000001,18.865399999999998,175,75
2026-05-09 14:44:57.713,4,-0.63,-0.04,1.29,9.388400000000004,86.924,20.6954,175,75
2026-05-09 14:44:57.734,4,-0.58,0.21,1.34,0.7284000000000077,99.304,20.1454,175,75
2026-05-09 14:44:57.759,4,-0.54,0.5,1.4,-3.421599999999998,104.60400000000001,20.3254,175,75
2026-05-09 14:44:57.770,4,-0.5,0.72,1.44,-1.951599999999992,104.304,19.5354,175,75
2026-05-09 14:44:57.770,4,-0.43,0.88,1.45,1.578400000000002,97.47399999999999,18.255399999999998,175,75
2026-05-09 14:44:57.781,4,-0.38,0.98,1.44,5.728400000000008,85.95400000000001,15.385399999999997,175,75
2026-05-09 14:44:57.793,4,-0.36,1.06,1.43,8.598400000000005,74.60400000000001,11.305399999999999,175,75
2026-05-09 14:44:57.803,4,-0.36,1.15,1.42,9.998400000000004,66.134,7.525399999999998,175,75
2026-05-09 14:44:57.820,4,-0.38,1.25,1.43,11.218400000000006,60.644000000000005,4.655399999999998,175,75
2026-05-09 14:44:57.834,4,-0.37,1.34,1.47,17.438400000000005,55.214,4.845399999999998,175,75
2026-05-09 14:44:57.843,4,-0.36,1.36,1.5,24.878400000000006,41.074,5.265399999999998,175,75
2026-05-09 14:44:57.857,4,-0.42,1.29,1.54,28.778400000000005,21.254000000000005,4.2353999999999985,175,75
2026-05-09 14:44:57.870,4,-0.53,1.18,1.56,27.438400000000005,6.624000000000002,4.475399999999999,175,75
2026-05-09 14:44:57.883,4,-0.62,1.05,1.58,20.728400000000004,0.5240000000000009,4.355399999999998,175,75
2026-05-09 14:44:57.894,4,-0.68,0.95,1.56,18.468400000000006,11.073999999999998,12.885399999999997,175,75
2026-05-09 14:44:57.907,4,-0.76,0.71,1.58,28.168400000000005,22.774,24.415399999999998,175,75
2026-05-09 14:44:57.943,4,-0.89,-1.77,1.78,62.738400000000006,24.424000000000007,35.9954,175,75
2026-05-09 14:44:57.955,4,-0.85,-2.93,1.74,76.2784,-19.846000000000004,48.4354,175,75
2026-05-09 14:44:57.988,4,-0.37,-1.36,1.68,-54.39159999999999,-39.596000000000004,-96.1346,175,75
2026-05-09 14:44:58.013,4,-0.7,-0.62,1.23,-21.341599999999993,-9.846000000000004,74.1054,175,75
2026-05-09 14:44:58.024,4,-0.61,-0.93,1.32,21.338400000000004,66.254,57.465399999999995,175,75
2026-05-09 14:44:58.049,4,-0.13,-0.65,1.7,-22.321599999999997,150.884,54.9054,175,75
2026-05-09 14:44:58.073,4,-0.21,0.16,1.56,-15.001599999999996,49.664,40.08539999999999,175,75
2026-05-09 14:44:58.086,4,-0.24,0.33,1.37,-10.181599999999996,34.914,34.7754,175,75
2026-05-09 14:44:58.098,4,-0.26,0.43,1.14,-3.901599999999995,36.434,35.5754,175,75
2026-05-09 14:44:58.098,4,-0.3,0.4,0.97,4.018400000000007,62.294,41.2454,175,75
2026-05-09 14:44:58.124,4,-0.21,0.32,0.98,10.358400000000003,149.794,49.9054,175,75
2026-05-09 14:44:58.147,4,-0.02,0.56,1.31,-4.5715999999999966,162.294,43.4354,175,75
2026-05-09 14:44:58.164,4,0.04,0.7,1.42,-8.481599999999993,127.47399999999999,36.4854,175,75
2026-05-09 14:44:58.164,4,0.04,0.75,1.42,-8.971599999999995,99.79400000000001,29.775399999999998,175,75
2026-05-09 14:44:58.186,4,-0.01,0.79,1.33,-6.891599999999997,83.144,22.2154,175,75
2026-05-09 14:44:58.197,4,0.04,0.83,1.27,4.6884000000000015,96.13399999999999,18.865399999999998,175,75
2026-05-09 14:44:58.208,4,0.06,0.82,1.24,12.068400000000004,99.48400000000001,11.855399999999998,175,75
2026-05-09 14:44:58.218,4,0.04,0.83,1.24,12.558400000000006,100.094,2.2753999999999976,175,75
2026-05-09 14:44:58.255,4,-0.13,0.91,1.31,22.498400000000004,95.03399999999999,-26.1946,175,75
2026-05-09 14:44:58.279,4,-0.2,0.89,1.39,33.2884,77.844,-34.3646,175,75
2026-05-09 14:44:58.289,4,-0.3,0.84,1.49,41.8284,50.70399999999999,-41.2546,175,75
2026-05-09 14:44:58.300,4,-0.44,0.77,1.58,49.01840000000001,6.314,-53.4546,175,75
2026-05-09 14:44:58.300,4,-0.54,0.64,1.6,51.5784,-38.686,-63.02460000000001,175,75
2026-05-09 14:44:58.333,4,-1.18,-0.05,1.44,50.488400000000006,-149.176,-85.8946,175,75
2026-05-09 14:44:58.333,4,-1.53,-0.62,1.29,45.3584,-156.736,-84.8546,175,75
2026-05-09 14:44:58.346,4,-1.81,-1.32,1.15,40.7884,-125.266,-65.4646,175,75
2026-05-09 14:44:58.372,4,-1.93,-2.0,1.12,40.058400000000006,-81.486,-46.19460000000001,175,75
2026-05-09 14:44:58.372,4,-2.07,-2.45,1.34,26.398400000000002,-42.096000000000004,-37.784600000000005,175,75
2026-05-09 14:44:58.383,4,-1.89,-2.1,1.82,-17.751599999999996,-35.456,-59.30460000000001,175,75
2026-05-09 14:44:58.393,4,-1.11,-1.33,2.03,-66.95159999999998,-109.176,-54.0646,175,75
2026-05-09 14:44:58.411,4,-0.89,-0.89,1.7,-66.16159999999999,-177.76600000000002,-16.744600000000005,175,75
2026-05-09 14:44:58.423,4,-0.99,-0.83,1.34,-29.39159999999999,-155.816,6.855399999999998,175,75
2026-05-09 14:44:58.435,4,-0.94,-0.81,1.28,-14.641599999999997,-98.076,19.045399999999997,175,75
2026-05-09 14:44:58.448,4,-0.6,-0.67,1.33,-10.311599999999999,-31.186,24.905399999999997,175,75
2026-05-09 14:44:58.460,4,-0.43,-0.44,1.43,-7.011599999999994,-31.066,17.6454,175,75
2026-05-09 14:44:58.473,4,-0.44,-0.13,1.49,-5.731599999999993,-40.576,11.545399999999997,175,75
2026-05-09 14:44:58.484,4,-0.53,0.2,1.46,-5.731599999999993,-39.726,7.155399999999998,175,75
2026-05-09 14:44:58.496,4,-0.54,0.55,1.4,-7.0715999999999966,-25.336,6.425399999999998,175,75
2026-05-09 14:44:58.508,4,-0.48,0.9,1.41,-11.831599999999995,2.9639999999999986,19.9654,175,75
2026-05-09 14:44:58.521,4,-0.35,1.12,1.49,-12.561599999999999,35.403999999999996,34.3554,175,75
2026-05-09 14:44:58.521,4,-0.17,1.23,1.59,-7.441599999999994,52.593999999999994,44.2954,175,75
2026-05-09 14:44:58.530,4,0.06,1.33,1.72,6.278400000000005,48.324,47.645399999999995,175,75
2026-05-09 14:44:58.539,4,0.17,1.34,1.69,13.778400000000005,31.683999999999997,42.2754,175,75
2026-05-09 14:44:58.559,4,0.15,1.32,1.36,16.518400000000003,33.873999999999995,37.2154,175,75
2026-05-09 14:44:58.574,4,0.06,1.22,1.13,23.598400000000005,73.38399999999999,41.1254,175,75
2026-05-09 14:44:58.600,4,-0.24,0.68,1.05,34.9384,190.274,52.7054,175,75
2026-05-09 14:44:58.611,4,-0.38,0.27,1.19,31.518400000000007,245.15400000000002,52.2754,175,75
2026-05-09 14:44:58.624,4,-0.35,-0.19,1.31,36.5784,264.60400000000004,45.8754,175,75
2026-05-09 14:44:58.638,4,-0.31,-0.83,1.33,49.628400000000006,224.244,33.4354,175,75
2026-05-09 14:44:58.654,4,-0.91,-2.15,1.33,55.668400000000005,114.54400000000001,0.8753999999999991,175,75
2026-05-09 14:44:58.683,4,-1.49,-2.03,1.58,19.328400000000006,33.81399999999999,-74.5446,175,75
2026-05-09 14:44:58.692,4,-1.11,-1.0,1.76,-28.17159999999999,-37.706,-98.7546,175,75
2026-05-09 14:44:58.716,4,-0.77,-0.16,1.35,-53.78159999999999,-81.736,-36.5646,175,75
2026-05-09 14:44:58.738,4,-0.69,-0.42,1.09,-27.75159999999999,-20.936,-25.9546,175,75
2026-05-09 14:44:58.757,4,-0.7,-0.71,1.03,-19.091599999999993,54.733999999999995,-11.254600000000003,175,75
2026-05-09 14:44:58.757,4,-0.82,-0.82,1.15,-18.051599999999993,94.304,-13.3946,175,75
2026-05-09 14:44:58.770,4,-0.92,-0.69,1.29,-14.091599999999993,98.26400000000001,-18.0246,175,75
2026-05-09 14:44:58.796,4,-0.98,-0.3,1.45,-0.31159999999999854,70.884,-16.1346,175,75
2026-05-09 14:44:58.811,4,-0.8,-0.11,1.4,9.448400000000003,47.903999999999996,-15.584600000000002,175,75
2026-05-09 14:44:58.834,4,-0.68,0.22,1.34,-0.31159999999999854,37.964,-21.924600000000005,175,75
2026-05-09 14:44:58.846,4,-0.65,0.43,1.37,-4.761599999999994,40.153999999999996,-22.534600000000005,175,75
2026-05-09 14:44:58.868,4,-0.5,0.73,1.35,-2.141599999999997,37.414,-24.9146,175,75
2026-05-09 14:44:58.893,4,-0.41,0.92,1.25,0.23840000000000572,44.483999999999995,-29.854600000000005,175,75
2026-05-09 14:44:58.893,4,-0.39,0.99,1.22,2.2484000000000037,51.623999999999995,-31.924600000000005,175,75
2026-05-09 14:44:58.904,4,-0.39,1.05,1.23,4.328400000000002,58.934,-33.6346,175,75
2026-05-09 14:44:58.920,4,-0.44,1.1,1.31,6.098400000000005,64.244,-34.424600000000005,175,75
2026-05-09 14:44:58.932,4,-0.43,1.14,1.39,8.898400000000006,63.084,-35.9546,175,75
2026-05-09 14:44:58.944,4,-0.41,1.17,1.48,12.318400000000004,42.233999999999995,-36.9846,175,75
2026-05-09 14:44:58.962,4,-0.37,1.14,1.51,17.988400000000006,-1.676000000000002,-42.174600000000005,175,75
2026-05-09 14:44:58.993,4,-0.38,0.97,1.51,7.738400000000006,-40.936,-50.224599999999995,175,75
2026-05-09 14:44:59.003,4,-0.4,0.92,1.49,0.6684000000000054,-51.916,-51.074600000000004,175,75
2026-05-09 14:44:59.015,4,-0.41,0.83,1.43,-3.231599999999993,-59.296,-47.2346,175,75
2026-05-09 14:44:59.047,4,-0.48,-1.58,0.95,25.728400000000004,105.404,-17.4146,175,75
2026-05-09 14:44:59.058,4,-0.38,-4.45,1.17,56.278400000000005,70.584,52.035399999999996,175,75
2026-05-09 14:44:59.070,4,-1.56,-4.42,1.53,65.7884,-34.846000000000004,38.8054,175,75
2026-05-09 14:44:59.090,4,-2.48,-2.95,1.63,26.638400000000004,-45.456,-107.41460000000001,175,75
2026-05-09 14:44:59.101,4,-1.19,-2.02,1.71,-48.42159999999999,-26.546,-230.76460000000003,175,75
2026-05-09 14:44:59.111,4,0.08,-0.9,1.69,-131.1616,-40.396,-35.5846,175,75
2026-05-09 14:44:59.133,4,-0.79,-0.59,1.13,-48.17159999999999,21.744,0.8153999999999968,175,75
2026-05-09 14:44:59.145,4,-0.58,-0.57,1.37,-32.9916,123.51400000000001,27.955399999999997,175,75
2026-05-09 14:44:59.165,4,-0.4,-0.23,1.78,-32.14159999999999,110.03399999999999,36.8554,175,75
2026-05-09 14:44:59.181,4,-0.38,0.01,1.74,-22.5616,63.513999999999996,37.4654,175,75
2026-05-09 14:44:59.196,4,-0.48,0.34,1.44,10.488400000000006,50.403999999999996,40.5754,175,75
2026-05-09 14:44:59.218,4,-0.52,0.43,1.3,30.728400000000004,64.664,49.535399999999996,175,75
2026-05-09 14:44:59.229,4,-0.5,0.47,1.28,30.908400000000004,86.374,53.7454,175,75
2026-05-09 14:44:59.271,4,-0.22,0.96,1.33,17.008400000000005,109.364,61.1254,175,75
2026-05-09 14:44:59.282,4,-0.19,0.95,1.29,17.738400000000006,126.434,61.1254,175,75
2026-05-09 14:44:59.301,4,-0.14,0.89,1.28,17.558400000000006,148.084,59.2954,175,75
2026-05-09 14:44:59.301,4,-0.15,0.84,1.3,14.388400000000004,159.974,54.2954,175,75
2026-05-09 14:44:59.312,4,-0.19,0.85,1.36,11.708400000000005,165.644,49.7754,175,75
2026-05-09 14:44:59.336,4,-0.17,0.85,1.42,18.718400000000006,167.654,43.7454,175,75
2026-05-09 14:44:59.346,4,-0.12,0.81,1.42,27.678400000000003,155.824,35.4554,175,75
2026-05-09 14:44:59.346,4,-0.11,0.73,1.41,34.44840000000001,135.824,24.355399999999996,175,75
2026-05-09 14:44:59.368,4,-0.18,0.62,1.41,42.498400000000004,99.48400000000001,3.9853999999999985,175,75
2026-05-09 14:44:59.378,4,-0.27,0.63,1.47,49.44840000000001,69.914,-7.784600000000001,175,75
2026-05-09 14:44:59.394,4,-0.39,0.59,1.52,55.1784,25.153999999999996,-21.924600000000005,175,75
2026-05-09 14:44:59.422,4,-0.84,0.32,1.54,54.628400000000006,-75.336,-40.2246,175,75
2026-05-09 14:44:59.434,4,-1.08,-0.0,1.49,50.7884,-113.076,-45.4046,175,75
2026-05-09 14:44:59.434,4,-1.27,-0.38,1.46,46.15840000000001,-138.376,-46.0146,175,75
2026-05-09 14:44:59.449,4,-1.59,-1.14,1.38,42.248400000000004,-163.74599999999998,-39.0646,175,75
2026-05-09 14:44:59.467,4,-1.8,-1.95,1.29,42.558400000000006,-156.36599999999999,-22.474600000000002,175,75
2026-05-09 14:44:59.468,4,-1.95,-2.75,1.29,34.818400000000004,-122.646,-0.5246000000000031,175,75
2026-05-09 14:44:59.481,4,-1.99,-2.77,1.48,7.858400000000003,-100.876,-13.934600000000003,175,75
2026-05-09 14:44:59.498,4,-1.67,-2.0,1.68,-34.64159999999999,-94.476,-42.6546,175,75
2026-05-09 14:44:59.511,4,-1.1,-1.12,1.68,-73.17159999999998,-84.536,-9.064600000000002,175,75
2026-05-09 14:44:59.511,4,-1.14,-0.69,1.41,-55.06159999999999,-71.246,41.1854,175,75
2026-05-09 14:44:59.524,4,-1.28,-0.75,1.25,-3.0515999999999934,-27.406,61.2454,175,75
2026-05-09 14:44:59.541,4,-1.15,-0.94,1.27,19.688400000000005,37.104,77.1554,175,75
2026-05-09 14:44:59.553,4,-0.78,-0.99,1.37,7.6784000000000034,89.97399999999999,76.1854,175,75
2026-05-09 14:44:59.559,4,-0.5,-0.71,1.47,-3.5415999999999954,82.714,59.5954,175,75
2026-05-09 14:44:59.575,4,-0.39,-0.3,1.49,-6.221599999999995,67.844,52.465399999999995,175,75
2026-05-09 14:44:59.586,4,-0.29,0.18,1.38,-4.761599999999994,71.014,41.5454,175,75
2026-05-09 14:44:59.624,4,-0.25,1.27,1.41,-0.49159999999999826,127.654,52.645399999999995,175,75
2026-05-09 14:44:59.630,4,-0.14,1.35,1.57,15.968400000000006,140.764,62.2754,175,75
2026-05-09 14:44:59.649,4,0.01,1.23,1.7,29.508400000000005,125.524,62.4054,175,75
2026-05-09 14:44:59.659,4,0.18,1.09,1.69,29.208400000000005,98.994,52.8854,175,75
2026-05-09 14:44:59.670,4,0.3,1.08,1.63,25.298400000000004,80.094,41.97539999999999,175,75
2026-05-09 14:44:59.691,4,0.33,1.14,1.48,23.348400000000005,63.384,30.1454,175,75
2026-05-09 14:44:59.692,4,0.29,1.12,1.36,22.678400000000003,57.354,21.915399999999998,175,75
2026-05-09 14:44:59.704,4,0.17,1.04,1.2,23.228400000000004,68.324,17.8254,175,75
2026-05-09 14:44:59.738,4,-0.01,0.7,1.07,33.22840000000001,141.744,26.0554,175,75
2026-05-09 14:44:59.738,4,-0.0,0.37,1.1,40.7884,181.434,24.595399999999998,175,75
2026-05-09 14:44:59.750,4,-0.03,-0.01,1.14,46.2184,190.214,17.6454,175,75
2026-05-09 14:44:59.758,4,-0.16,-0.37,1.18,49.9384,175.644,5.755399999999998,175,75
2026-05-09 14:44:59.768,4,-0.4,-0.85,1.2,55.418400000000005,153.754,-11.014600000000002,175,75
2026-05-09 14:44:59.781,4,-0.59,-1.33,1.19,61.458400000000005,136.624,-27.044600000000003,175,75
2026-05-09 14:44:59.805,4,-1.2,-2.01,1.26,62.4384,66.804,-45.464600000000004,175,75
2026-05-09 14:44:59.816,4,-1.51,-1.88,1.33,48.778400000000005,47.414,-67.8446,175,75
2026-05-09 14:44:59.845,4,-1.1,-0.7,1.29,-22.871599999999994,-53.926,-74.0646,175,75
2026-05-09 14:44:59.864,4,-1.38,-0.63,1.16,-17.321599999999997,28.384,-37.9046,175,75
2026-05-09 14:44:59.875,4,-1.19,-0.58,1.32,-12.011599999999994,25.524,-32.0446,175,75
2026-05-09 14:44:59.887,4,-1.17,-0.48,1.3,-8.421599999999998,-11.676000000000002,-34.674600000000005,175,75
2026-05-09 14:44:59.904,4,-1.29,-0.33,1.09,2.7384000000000057,13.513999999999996,-30.894600000000004,175,75
2026-05-09 14:44:59.915,4,-1.24,-0.2,1.11,12.858400000000003,46.194,-22.654600000000002,175,75
2026-05-09 14:44:59.929,4,-1.15,-0.08,1.19,22.498400000000004,67.294,-13.264600000000002,175,75
2026-05-09 14:44:59.939,4,-1.02,0.01,1.27,28.108400000000003,65.704,-7.844600000000003,175,75
2026-05-09 14:44:59.951,4,-0.91,0.07,1.31,28.228400000000004,50.884,-5.834600000000002,175,75
2026-05-09 14:44:59.961,4,-0.83,0.11,1.3,24.018400000000007,36.373999999999995,-6.624600000000001,175,75
2026-05-09 14:44:59.961,4,-0.76,0.15,1.27,17.928400000000003,27.043999999999997,-7.594600000000003,175,75
2026-05-09 14:44:59.971,4,-0.7,0.21,1.23,12.248400000000004,23.384,-8.204600000000003,175,75
2026-05-09 14:45:00.003,4,-0.54,0.39,1.16,0.9084000000000074,28.813999999999993,-12.414600000000004,175,75
2026-05-09 14:45:00.003,4,-0.46,0.54,1.18,-5.0615999999999985,38.324,-16.074600000000004,175,75
2026-05-09 14:45:00.026,4,-0.41,0.71,1.22,-7.621599999999994,40.343999999999994,-17.174600000000005,175,75
2026-05-09 14:45:00.026,4,-0.4,0.86,1.26,-6.951599999999992,37.593999999999994,-17.294600000000003,175,75
2026-05-09 14:45:00.040,4,-0.38,0.98,1.27,-3.6015999999999977,31.623999999999995,-17.8446,175,75
2026-05-09 14:45:00.050,4,-0.37,1.06,1.27,-0.181599999999996,28.263999999999996,-15.9546,175,75
2026-05-09 14:45:00.062,4,-0.38,1.1,1.27,2.6784000000000034,32.414,-13.814599999999999,175,75
2026-05-09 14:45:00.073,4,-0.33,1.11,1.27,7.4384000000000015,35.70399999999999,-12.9646,175,75
2026-05-09 14:45:00.099,4,-0.3,1.09,1.26,12.498400000000004,27.714,-15.154600000000002,175,75
2026-05-09 14:45:00.109,4,-0.36,1.08,1.28,15.428400000000003,35.153999999999996,-14.614600000000003,175,75
2026-05-09 14:45:00.109,4,-0.37,1.03,1.33,20.608400000000003,43.994,-13.024600000000003,175,75
2026-05-09 14:45:00.125,4,-0.39,0.93,1.45,24.328400000000002,45.274,-8.1446,175,75
2026-05-09 14:45:00.159,4,-0.61,0.31,1.16,19.568400000000004,21.864000000000004,6.545399999999997,175,75
2026-05-09 14:45:00.169,4,-0.69,-0.29,0.82,31.218400000000003,83.144,9.775399999999998,175,75
2026-05-09 14:45:00.184,4,-0.66,-1.67,0.7,52.1884,185.344,19.3554,175,75
2026-05-09 14:45:00.196,4,-0.63,-2.67,0.9,61.1584,235.21400000000003,28.135399999999997,175,75
2026-05-09 14:45:00.210,4,-0.93,-3.76,1.41,59.208400000000005,216.314,42.035399999999996,175,75
2026-05-09 14:45:00.225,4,-1.78,-3.08,1.86,54.6884,87.41399999999999,-23.4546,175,75
2026-05-09 14:45:00.225,4,-1.88,-2.24,1.85,35.90840000000001,5.403999999999996,-145.40460000000002,175,75
2026-05-09 14:45:00.248,4,-0.16,-0.85,1.43,-104.27159999999998,-69.96600000000001,-30.644600000000004,175,75
2026-05-09 14:45:00.259,4,-0.58,-0.71,1.09,-91.2216,-54.476,-38.0246,175,75
2026-05-09 14:45:00.269,4,-0.47,-0.71,1.13,-46.651599999999995,20.703999999999994,-53.02460000000001,175,75
2026-05-09 14:45:00.279,4,-0.32,-0.62,1.31,-52.681599999999996,52.653999999999996,-29.794600000000003,175,75
2026-05-09 14:45:00.294,4,-0.39,-0.53,1.4,-65.2516,33.513999999999996,-37.2346,175,75
2026-05-09 14:45:00.306,4,-0.43,-0.34,1.44,-66.83160000000001,-3.8659999999999997,-52.2946,175,75
2026-05-09 14:45:00.306,4,-0.45,-0.11,1.38,-56.1616,-14.846000000000004,-47.5346,175,75
2026-05-09 14:45:00.327,4,-0.41,0.1,1.22,-34.03159999999999,-11.676000000000002,-39.4846,175,75
2026-05-09 14:45:00.338,4,-0.35,0.21,1.08,-13.601599999999998,4.9140000000000015,-31.074600000000004,175,75
2026-05-09 14:45:00.354,4,-0.32,0.25,1.0,-2.0115999999999943,43.084,-20.284600000000005,175,75
2026-05-09 14:45:00.354,4,-0.29,0.32,1.05,6.458400000000005,90.644,-12.294600000000003,175,75
2026-05-09 14:45:00.376,4,-0.19,0.45,1.19,10.428400000000003,119.184,-9.914600000000004,175,75
2026-05-09 14:45:00.418,4,-0.25,0.99,1.1,7.248400000000004,117.41399999999999,-14.184600000000003,175,75
2026-05-09 14:45:00.429,4,-0.31,0.97,1.03,14.018400000000003,144.674,-10.704600000000003,175,75
2026-05-09 14:45:00.441,4,-0.39,0.86,1.04,22.558400000000006,173.994,-7.654600000000002,175,75
2026-05-09 14:45:00.451,4,-0.43,0.73,1.1,27.558400000000006,185.524,-9.4846,175,75
2026-05-09 14:45:00.462,4,-0.44,0.64,1.17,28.898400000000002,179.604,-13.454600000000003,175,75
2026-05-09 14:45:00.475,4,-0.46,0.63,1.21,32.1884,163.204,-18.144600000000004,175,75
2026-05-09 14:45:00.485,4,-0.46,0.68,1.24,38.65840000000001,146.924,-20.034600000000005,175,75
2026-05-09 14:45:00.492,4,-0.43,0.72,1.21,45.668400000000005,134.124,-19.854600000000005,175,75
2026-05-09 14:45:00.504,4,-0.39,0.67,1.13,52.558400000000006,115.88399999999999,-22.904600000000002,175,75
2026-05-09 14:45:00.528,4,-0.42,0.57,1.05,48.4084,117.41399999999999,-28.2046,175,75
2026-05-09 14:45:00.540,4,-0.43,0.57,1.01,45.2984,115.154,-31.0146,175,75
2026-05-09 14:45:00.552,4,-0.51,0.5,0.97,44.0784,108.26400000000001,-32.2946,175,75
2026-05-09 14:45:00.579,4,-0.72,-0.13,1.0,34.748400000000004,142.234,-25.5246,175,75
2026-05-09 14:45:00.594,4,-0.66,-0.41,1.01,31.278400000000005,148.084,-22.534600000000005,175,75
2026-05-09 14:45:00.604,4,-0.62,-0.67,1.01,34.01840000000001,148.324,-21.3746,175,75
2026-05-09 14:45:00.613,4,-0.55,-1.08,1.0,39.9384,148.264,-20.644600000000004,175,75
2026-05-09 14:45:00.631,4,-0.36,-2.01,0.98,54.568400000000004,119.97399999999999,-20.5246,175,75
2026-05-09 14:45:00.641,4,-0.39,-2.35,0.94,51.028400000000005,78.57400000000001,-28.754600000000003,175,75
2026-05-09 14:45:00.676,4,-0.43,-2.33,0.68,9.078400000000006,49.364000000000004,-70.58460000000001,175,75
2026-05-09 14:45:00.676,4,-0.31,-1.92,0.67,-13.111599999999996,53.694,-81.44460000000001,175,75
2026-05-09 14:45:00.686,4,-0.19,-1.46,0.73,-40.121599999999994,66.374,-73.1446,175,75
2026-05-09 14:45:00.699,4,-0.18,-1.05,0.81,-66.4716,95.644,-63.754599999999996,175,75
2026-05-09 14:45:00.710,4,-0.13,-0.66,1.01,-83.66159999999999,140.824,-58.2646,175,75
2026-05-09 14:45:00.724,4,-0.02,-0.37,1.2,-86.4716,156.314,-57.8446,175,75
2026-05-09 14:45:00.735,4,0.12,-0.09,1.33,-85.2516,146.564,-62.2346,175,75
2026-05-09 14:45:00.777,4,1.05,1.16,0.96,-55.31159999999999,236.684,-50.7646,175,75
2026-05-09 14:45:00.787,4,1.37,1.5,0.99,-44.9416,358.754,-50.0946,175,75
2026-05-09 14:45:00.799,4,1.58,1.42,1.16,-10.861599999999996,464.48400000000004,-85.9546,175,75
2026-05-09 14:45:00.809,4,1.47,0.54,1.35,34.748400000000004,508.874,-121.80460000000001,175,75
2026-05-09 14:45:00.819,4,1.19,-0.56,1.8,78.1684,533.9340000000001,-132.7846,175,75
2026-05-09 14:45:00.834,4,1.39,-1.76,2.71,143.3484,484.914,-132.5346,175,75
2026-05-09 14:45:00.850,4,1.28,-2.45,3.15,194.32840000000002,289.544,-183.14460000000003,175,75
2026-05-09 14:45:00.858,4,1.07,-2.72,3.03,192.4984,128.754,-272.3546,175,75
2026-05-09 14:45:00.872,4,1.19,-2.63,2.38,148.5984,56.864000000000004,-342.1146,175,75
2026-05-09 14:45:00.908,4,0.69,-3.06,1.33,160.54840000000002,-89.29599999999999,-371.07460000000003,175,75
2026-05-09 14:45:00.919,4,0.37,-2.91,1.17,119.13840000000002,-118.316,-392.4146,175,75
2026-05-09 14:45:00.930,4,0.14,-2.38,1.0,73.5284,-136.36599999999999,-409.00460000000004,175,75
2026-05-09 14:45:00.942,4,-0.13,-1.95,0.65,47.128400000000006,-135.936,-400.9546,175,75
2026-05-09 14:45:00.950,4,-0.39,-1.81,0.23,33.958400000000005,-95.936,-392.4146,175,75
2026-05-09 14:45:00.961,4,-0.52,-1.67,-0.01,27.188400000000005,-37.406,-380.0346,175,75
2026-05-09 14:45:00.986,4,-0.71,-1.06,0.13,9.688400000000005,122.53399999999999,-316.7446,175,75
2026-05-09 14:45:00.997,4,-0.61,-0.72,0.55,6.948400000000007,206.684,-283.26460000000003,175,75
2026-05-09 14:45:01.002,4,-0.37,-0.57,1.03,19.328400000000006,193.634,-263.3946,175,75
2026-05-09 14:45:01.013,4,-0.41,-0.5,1.34,25.548400000000004,106.314,-255.15460000000002,175,75
2026-05-09 14:45:01.024,4,-0.59,-0.41,1.5,13.108400000000003,14.483999999999995,-257.6546,175,75
2026-05-09 14:45:01.037,4,-0.71,-0.17,1.51,-28.17159999999999,-64.726,-264.2446,175,75
2026-05-09 14:45:01.048,4,-0.63,0.13,1.35,-69.88159999999999,-120.936,-268.69460000000004,175,75
2026-05-09 14:45:01.059,4,-0.56,0.41,1.12,-93.17159999999998,-165.20600000000002,-267.1146,175,75
2026-05-09 14:45:01.069,4,-0.56,0.58,0.93,-102.01159999999999,-162.286,-255.83460000000002,175,75
2026-05-09 14:45:01.102,4,-0.48,0.62,0.67,-110.2516,-54.536,-221.31459999999998,175,75
2026-05-09 14:45:01.102,4,-0.43,0.54,0.65,-109.58159999999998,0.5840000000000032,-209.3646,175,75
2026-05-09 14:45:01.125,4,-0.44,0.45,0.74,-104.27159999999998,65.274,-193.20460000000003,175,75
2026-05-09 14:45:01.136,4,-0.49,0.38,0.93,-92.26159999999999,117.964,-180.3446,175,75
2026-05-09 14:45:01.146,4,-0.49,0.32,1.24,-67.01159999999999,121.07400000000001,-174.6146,175,75
2026-05-09 14:45:01.167,4,-0.53,0.29,1.29,-60.181599999999996,90.274,-178.51460000000003,175,75
2026-05-09 14:45:01.193,4,-0.56,0.29,1.23,-49.45159999999999,49.123999999999995,-189.9746,175,75
2026-05-09 14:45:01.205,4,-0.57,0.35,1.27,-44.511599999999994,36.134,-190.2246,175,75
2026-05-09 14:45:01.215,4,-0.6,0.47,1.37,-44.511599999999994,31.134,-185.0946,175,75
2026-05-09 14:45:01.227,4,-0.58,0.65,1.49,-48.42159999999999,27.043999999999997,-178.81459999999998,175,75
2026-05-09 14:45:01.244,4,-0.52,0.94,1.62,-55.4916,14.123999999999995,-164.4846,175,75
2026-05-09 14:45:01.264,4,-0.32,1.82,1.85,-79.70159999999998,-0.3359999999999985,-126.13459999999999,175,75
2026-05-09 14:45:01.277,4,-0.11,2.33,1.95,-96.83159999999998,9.123999999999995,-112.5346,175,75
2026-05-09 14:45:01.307,4,0.37,3.15,2.28,-113.8416,23.994,-82.8446,175,75
2026-05-09 14:45:01.309,4,0.6,3.31,2.49,-129.70159999999998,23.994,-59.4246,175,75
2026-05-09 14:45:01.319,4,0.98,3.11,2.42,-142.0116,36.92400000000001,-37.2946,175,75
2026-05-09 14:45:01.339,4,1.33,2.56,2.16,-128.2916,47.964,-23.0246,175,75
2026-05-09 14:45:01.350,4,1.37,1.8,1.85,-101.6516,96.624,-18.2646,175,75
2026-05-09 14:45:01.362,4,1.1,1.35,1.9,-101.71159999999998,189.364,-24.544600000000003,175,75
2026-05-09 14:45:01.374,4,0.87,1.23,2.18,-104.45159999999998,226.194,-39.854600000000005,175,75
2026-05-09 14:45:01.384,4,0.7,1.12,2.43,-95.79159999999999,175.464,-55.4046,175,75
2026-05-09 14:45:01.407,4,0.16,0.89,2.58,-72.7516,50.70399999999999,-75.4646,175,75
2026-05-09 14:45:01.421,4,0.02,1.03,2.42,-78.17159999999998,-109.846,-90.1546,175,75
2026-05-09 14:45:01.433,4,-0.15,1.08,2.04,-74.9416,-205.636,-87.2946,175,75
2026-05-09 14:45:01.447,4,-0.27,1.03,1.75,-66.7716,-232.826,-78.08460000000001,175,75
2026-05-09 14:45:01.458,4,-0.28,0.89,1.43,-54.761599999999994,-223.926,-62.9046,175,75
2026-05-09 14:45:01.469,4,-0.17,0.79,1.24,-47.011599999999994,-200.456,-50.4046,175,75
2026-05-09 14:45:01.491,4,0.01,0.72,1.09,-38.78159999999999,-130.816,-30.894600000000004,175,75
2026-05-09 14:45:01.511,4,0.02,0.68,1.27,-35.98159999999999,-66.856,-26.504600000000003,175,75
2026-05-09 14:45:01.527,4,0.04,0.59,1.32,-49.151599999999995,-87.706,-36.9846,175,75
2026-05-09 14:45:01.541,4,-0.07,0.61,1.19,-66.10159999999999,-118.196,-45.7046,175,75
2026-05-09 14:45:01.552,4,-0.18,0.66,1.03,-73.9716,-108.926,-43.9346,175,75
2026-05-09 14:45:01.588,4,-0.15,0.79,1.04,-75.4316,-11.676000000000002,-21.254600000000003,175,75
2026-05-09 14:45:01.588,4,-0.14,0.83,1.14,-76.83160000000001,0.15399999999999636,-17.114600000000003,175,75
2026-05-09 14:45:01.622,4,-0.15,0.88,1.23,-79.51159999999999,10.093999999999994,-14.7346,175,75
2026-05-09 14:45:01.632,4,-0.08,0.9,1.39,-83.36159999999998,7.844000000000001,-19.364600000000003,175,75
2026-05-09 14:45:01.652,4,0.04,0.95,1.56,-88.7216,-1.3659999999999997,-30.584600000000002,175,75
2026-05-09 14:45:01.674,4,0.28,1.16,1.74,-74.45159999999998,-14.655999999999999,-44.5446,175,75
2026-05-09 14:45:01.694,4,0.41,1.55,1.97,-63.11159999999999,-8.985999999999997,-46.864599999999996,175,75
2026-05-09 14:45:01.705,4,0.56,1.82,2.13,-66.10159999999999,11.433999999999997,-43.574600000000004,175,75
2026-05-09 14:45:01.717,4,0.67,2.44,2.45,-67.26159999999999,-10.515999999999998,-36.744600000000005,175,75
2026-05-09 14:45:01.728,4,0.48,2.85,2.66,-68.66159999999999,-45.266,-30.224600000000002,175,75
2026-05-09 14:45:01.738,4,0.46,3.22,2.87,-87.8716,-43.626,-9.364600000000003,175,75
2026-05-09 14:45:01.751,4,1.06,3.05,2.65,-104.1516,-24.536,16.665399999999998,175,75
2026-05-09 14:45:01.795,4,1.27,1.6,2.42,-48.48159999999999,183.814,8.925399999999998,175,75
2026-05-09 14:45:01.807,4,0.98,1.88,3.04,-47.56159999999999,143.384,-13.454600000000003,175,75
2026-05-09 14:45:01.820,4,0.52,1.68,3.04,-29.761599999999994,40.403999999999996,-18.574600000000004,175,75
2026-05-09 14:45:01.820,4,0.3,1.43,2.89,-21.401599999999995,-4.905999999999999,-22.904600000000002,175,75
2026-05-09 14:45:01.842,4,0.44,1.24,2.63,-22.201599999999992,-49.656,-33.3346,175,75
2026-05-09 14:45:01.854,4,0.59,1.13,2.29,-19.821599999999997,-96.54599999999999,-41.6846,175,75
2026-05-09 14:45:01.866,4,0.56,0.94,1.81,-6.041599999999995,-134.046,-51.864599999999996,175,75
2026-05-09 14:45:01.878,4,0.45,0.71,1.36,12.248400000000004,-113.506,-54.0646,175,75
2026-05-09 14:45:01.889,4,0.4,0.59,1.16,22.618400000000005,-71.856,-46.80460000000001,175,75
2026-05-09 14:45:01.900,4,0.37,0.56,1.38,41.51840000000001,11.804000000000002,-25.034600000000005,175,75
2026-05-09 14:45:01.931,4,0.54,0.96,1.75,23.108400000000003,10.703999999999994,-37.5946,175,75
2026-05-09 14:45:01.962,4,0.39,1.91,1.53,-60.92159999999999,-64.356,-29.854600000000005,175,75
2026-05-09 14:45:01.976,4,0.55,2.04,1.4,-81.2216,-21.426000000000002,-4.914600000000004,175,75
2026-05-09 14:45:02.008,4,1.38,1.46,1.3,-82.6816,195.154,23.1954,175,75
2026-05-09 14:45:02.024,4,1.12,1.07,2.07,-66.4016,130.704,-13.024600000000003,175,75
2026-05-09 14:45:02.046,4,0.57,1.13,2.15,-86.2816,61.983999999999995,-26.6246,175,75
2026-05-09 14:45:02.046,4,0.41,1.32,2.11,-98.7816,36.744,-27.724600000000002,175,75
2026-05-09 14:45:02.064,4,0.49,1.47,2.06,-96.04159999999999,1.804000000000002,-22.044600000000003,175,75
2026-05-09 14:45:02.077,4,0.53,1.41,1.95,-87.9316,-38.745999999999995,-17.5946,175,75
2026-05-09 14:45:02.088,4,0.51,1.21,1.79,-84.64159999999998,-72.836,-20.894600000000004,175,75
2026-05-09 14:45:02.089,4,0.49,1.04,1.61,-86.4016,-104.116,-28.6346,175,75
2026-05-09 14:45:02.100,4,0.47,1.0,1.47,-87.9316,-125.206,-31.504600000000003,175,75
2026-05-09 14:45:02.114,4,0.43,1.01,1.34,-87.38159999999999,-126.186,-32.354600000000005,175,75
2026-05-09 14:45:02.134,4,0.37,1.01,1.1,-74.70159999999998,-71.916,-32.4746,175,75
2026-05-09 14:45:02.146,4,0.31,0.89,1.08,-65.0616,-38.436,-36.5646,175,75
2026-05-09 14:45:02.157,4,0.21,0.75,1.12,-60.06159999999999,-20.936,-44.5446,175,75
2026-05-09 14:45:02.175,4,0.0,0.55,1.21,-68.60159999999999,-19.846000000000004,-66.9246,175,75
2026-05-09 14:45:02.190,4,-0.08,0.55,1.2,-74.51159999999999,-31.126,-76.6846,175,75
2026-05-09 14:45:02.200,4,-0.14,0.57,1.18,-79.51159999999999,-43.746,-83.69460000000001,175,75
2026-05-09 14:45:02.221,4,-0.28,0.66,1.12,-85.61159999999998,-64.906,-91.3146,175,75
2026-05-09 14:45:02.235,4,-0.32,0.68,1.12,-88.11159999999998,-66.486,-91.6846,175,75
2026-05-09 14:45:02.247,4,-0.31,0.71,1.19,-92.99159999999998,-67.286,-88.4546,175,75
2026-05-09 14:45:02.260,4,-0.28,0.74,1.29,-99.1516,-75.266,-86.2546,175,75
2026-05-09 14:45:02.276,4,-0.19,0.86,1.45,-112.68159999999997,-115.696,-90.7646,175,75
2026-05-09 14:45:02.289,4,-0.13,0.95,1.46,-117.7516,-138.566,-90.9546,175,75
2026-05-09 14:45:02.300,4,-0.08,1.03,1.42,-120.18159999999997,-161.736,-87.3546,175,75
2026-05-09 14:45:02.312,4,-0.04,1.05,1.32,-119.76159999999999,-169.596,-81.9246,175,75
2026-05-09 14:45:02.323,4,0.03,0.99,1.16,-116.16159999999999,-150.576,-74.1846,175,75
2026-05-09 14:45:02.338,4,0.23,0.88,0.98,-104.1516,-94.29599999999999,-59.364599999999996,175,75
2026-05-09 14:45:02.347,4,0.53,0.83,0.93,-92.38159999999999,0.8840000000000003,-39.854600000000005,175,75
2026-05-09 14:45:02.362,4,0.8,1.01,1.08,-85.61159999999998,80.464,-32.8446,175,75
2026-05-09 14:45:02.362,4,1.06,1.49,1.58,-78.29159999999999,137.174,-30.7046,175,75
2026-05-09 14:45:02.392,4,0.85,3.07,2.91,-92.01159999999999,102.35400000000001,-69.8546,175,75
2026-05-09 14:45:02.392,4,1.06,3.32,3.1,-115.67159999999998,32.354,-70.6446,175,75
2026-05-09 14:45:02.416,4,1.05,2.7,2.72,-111.10159999999999,-98.196,-56.80460000000001,175,75
2026-05-09 14:45:02.429,4,1.04,3.18,2.71,-130.7916,-77.646,-51.80460000000001,175,75
2026-05-09 14:45:02.439,4,1.37,3.64,2.67,-148.7216,-65.456,-33.8146,175,75
2026-05-09 14:45:02.450,4,1.57,3.3,2.4,-133.7816,-70.266,-6.744600000000002,175,75
2026-05-09 14:45:02.464,4,1.73,2.13,1.93,-99.33159999999998,-24.656,18.1954,175,75
2026-05-09 14:45:02.473,4,1.74,1.45,1.79,-94.39159999999998,45.524,15.695399999999998,175,75
2026-05-09 14:45:02.497,4,1.63,1.04,2.49,-105.43159999999997,143.934,-3.934600000000003,175,75
2026-05-09 14:45:02.507,4,1.48,1.13,2.89,-97.5616,121.25399999999999,-21.9846,175,75
2026-05-09 14:45:02.530,4,1.12,0.84,2.72,-89.0916,-6.616,-53.33460000000001,175,75
2026-05-09 14:45:02.543,4,1.09,0.75,2.26,-88.11159999999998,-39.536,-72.7246,175,75
2026-05-09 14:45:02.555,4,0.96,0.84,1.89,-81.7716,-61.976,-79.8546,175,75
2026-05-09 14:45:02.579,4,0.59,1.01,1.62,-71.4016,-74.596,-78.8746,175,75
2026-05-09 14:45:02.579,4,0.21,1.12,1.46,-71.10159999999999,-51.126,-70.0946,175,75
2026-05-09 14:45:02.590,4,0.01,1.02,1.37,-72.9916,-22.406,-62.0446,175,75
2026-05-09 14:45:02.602,4,-0.15,0.61,1.42,-67.4416,-14.725999999999999,-55.6446,175,75
2026-05-09 14:45:02.616,4,-0.17,0.47,1.5,-69.45159999999998,-24.966,-56.0146,175,75
2026-05-09 14:45:02.628,4,-0.12,0.37,1.54,-74.0316,-43.016,-59.0646,175,75
2026-05-09 14:45:02.639,4,-0.03,0.29,1.52,-80.4316,-80.146,-64.1846,175,75
2026-05-09 14:45:02.656,4,-0.01,0.28,1.33,-82.26159999999999,-115.02600000000001,-71.0746,175,75
2026-05-09 14:45:02.668,4,-0.11,0.41,1.06,-79.45159999999998,-105.576,-72.41460000000001,175,75
2026-05-09 14:45:02.682,4,-0.17,0.53,1.05,-79.0316,-87.226,-68.7546,175,75
2026-05-09 14:45:02.694,4,-0.23,0.63,1.11,-80.1816,-69.236,-64.7346,175,75
2026-05-09 14:45:02.707,4,-0.31,0.67,1.17,-85.0616,-56.676,-62.2346,175,75
2026-05-09 14:45:02.721,4,-0.32,0.7,1.2,-90.73159999999999,-55.026,-61.254599999999996,175,75
2026-05-09 14:45:02.732,4,-0.34,0.78,1.27,-99.0916,-56.186,-58.2046,175,75
2026-05-09 14:45:02.743,4,-0.31,0.84,1.29,-105.0016,-53.376,-56.504599999999996,175,75
2026-05-09 14:45:02.757,4,-0.26,0.89,1.3,-110.55159999999998,-49.296,-53.69460000000001,175,75
2026-05-09 14:45:02.769,4,-0.13,0.99,1.3,-113.8416,-35.936,-45.4046,175,75
2026-05-09 14:45:02.791,4,-0.05,0.99,1.3,-111.6516,-13.076,-40.8346,175,75
2026-05-09 14:45:02.806,4,0.15,0.87,1.42,-97.08159999999998,36.074,-37.354600000000005,175,75
2026-05-09 14:45:02.822,4,0.28,0.83,1.51,-87.8116,50.763999999999996,-39.9746,175,75
2026-05-09 14:45:02.848,4,0.49,1.1,1.94,-66.2216,65.584,-55.0346,175,75
2026-05-09 14:45:02.848,4,0.35,1.64,2.41,-64.88159999999999,66.434,-52.5346,175,75
2026-05-09 14:45:02.883,4,0.93,3.75,3.18,-99.58159999999998,16.254000000000005,-47.1746,175,75
2026-05-09 14:45:02.894,4,1.08,3.47,2.68,-77.9916,-95.146,-47.6546,175,75
2026-05-09 14:45:02.904,4,0.44,2.97,2.48,-65.73159999999999,-90.086,-35.644600000000004,175,75
2026-05-09 14:45:02.904,4,0.56,3.14,2.68,-105.1216,20.763999999999996,-19.0646,175,75
2026-05-09 14:45:02.925,4,1.31,3.09,2.66,-111.5916,2.1640000000000015,-7.114600000000003,175,75
2026-05-09 14:45:02.937,4,1.45,2.49,2.3,-69.1516,-94.96600000000001,4.295399999999997,175,75
2026-05-09 14:45:02.955,4,1.13,1.42,1.68,-33.84159999999999,3.024000000000001,9.355399999999998,175,75
2026-05-09 14:45:02.961,4,1.23,1.51,1.96,-48.6616,65.644,7.645399999999999,175,75
2026-05-09 14:45:02.985,4,1.29,1.72,2.24,-45.4916,48.384,4.845399999999998,175,75
2026-05-09 14:45:03.009,4,1.1,0.58,1.76,-21.771599999999992,-16.305999999999997,-35.7046,175,75
2026-05-09 14:45:03.021,4,1.13,0.27,1.44,-19.031599999999997,-33.926,-62.114599999999996,175,75
2026-05-09 14:45:03.031,4,1.01,0.19,1.23,-11.281599999999997,-52.096000000000004,-73.4546,175,75
2026-05-09 14:45:03.041,4,0.72,0.19,1.09,-2.0115999999999943,-48.686,-72.7846,175,75
2026-05-09 14:45:03.041,4,0.52,0.25,1.16,0.6084000000000032,-20.456000000000003,-64.30460000000001,175,75
2026-05-09 14:45:03.055,4,0.58,0.38,1.42,-2.681599999999996,7.653999999999996,-56.254599999999996,175,75
2026-05-09 14:45:03.078,4,0.84,0.6,1.74,-17.501599999999996,-4.235999999999997,-61.0146,175,75
2026-05-09 14:45:03.108,4,0.91,1.64,1.34,-143.17159999999998,-76.006,-75.58460000000001,175,75
2026-05-09 14:45:03.121,4,0.99,1.84,1.05,-147.8116,8.813999999999993,-52.6546,175,75
2026-05-09 14:45:03.168,4,0.76,0.85,1.94,-121.16159999999999,148.874,-43.394600000000004,175,75
2026-05-09 14:45:03.187,4,0.65,0.89,2.17,-118.7816,107.47399999999999,-48.3946,175,75
2026-05-09 14:45:03.229,4,0.43,1.17,1.65,-106.4716,-116.79599999999999,-64.6746,175,75
2026-05-09 14:45:03.241,4,0.29,1.22,1.35,-101.5916,-111.306,-58.2046,175,75
2026-05-09 14:45:03.258,4,0.12,1.2,1.08,-88.23159999999999,-53.136,-42.964600000000004,175,75
2026-05-09 14:45:03.273,4,0.08,1.09,1.04,-79.82159999999999,-8.506,-40.284600000000005,175,75
2026-05-09 14:45:03.295,4,-0.01,0.76,1.04,-69.82159999999999,20.823999999999998,-52.2346,175,75
2026-05-09 14:45:03.306,4,-0.09,0.64,1.06,-68.7816,31.013999999999996,-61.504599999999996,175,75
2026-05-09 14:45:03.316,4,-0.12,0.59,1.11,-71.16159999999999,40.644000000000005,-68.6346,175,75
2026-05-09 14:45:03.326,4,-0.15,0.6,1.17,-72.38159999999999,35.584,-80.83460000000001,175,75
2026-05-09 14:45:03.354,4,-0.24,0.64,1.38,-73.29159999999999,-31.616,-106.7446,175,75
2026-05-09 14:45:03.386,4,-0.34,0.7,1.37,-85.4916,-110.26599999999999,-121.01460000000002,175,75
2026-05-09 14:45:03.397,4,-0.38,0.74,1.32,-88.17159999999998,-133.626,-122.35459999999999,175,75
2026-05-09 14:45:03.414,4,-0.37,0.77,1.29,-89.70159999999998,-148.926,-122.4146,175,75
2026-05-09 14:45:03.425,4,-0.32,0.79,1.25,-92.5616,-168.74599999999998,-122.35459999999999,175,75
2026-05-09 14:45:03.432,4,-0.23,0.81,1.21,-94.1516,-179.046,-117.5346,175,75
2026-05-09 14:45:03.452,4,0.04,0.95,1.07,-92.8116,-178.686,-95.8946,175,75
2026-05-09 14:45:03.466,4,0.23,1.06,0.86,-89.0316,-141.736,-76.7446,175,75
2026-05-09 14:45:03.489,4,0.81,1.35,0.82,-73.48159999999999,34.544,-50.3446,175,75
2026-05-09 14:45:03.500,4,0.96,1.78,1.31,-75.73159999999999,90.274,-51.3146,175,75
2026-05-09 14:45:03.511,4,0.85,2.45,1.91,-93.54159999999999,105.95400000000001,-60.3446,175,75
2026-05-09 14:45:03.521,4,0.84,3.02,2.31,-115.73159999999999,94.064,-63.634600000000006,175,75
2026-05-09 14:45:03.538,4,1.09,3.06,2.61,-138.7216,-40.206,-52.8446,175,75
2026-05-09 14:45:03.550,4,1.0,3.39,2.6,-162.8716,-60.025999999999996,-45.83460000000001,175,75
2026-05-09 14:45:03.564,4,1.21,3.79,2.56,-189.5116,-47.466,-30.154600000000002,175,75
2026-05-09 14:45:03.576,4,1.58,3.16,2.15,-182.3216,-46.306,-2.4746000000000024,175,75
2026-05-09 14:45:03.603,4,1.58,1.26,1.98,-155.61159999999998,95.584,-3.1446000000000005,175,75
2026-05-09 14:45:03.653,4,1.15,0.97,2.83,-149.5116,-37.525999999999996,-59.244600000000005,175,75
2026-05-09 14:45:03.674,4,1.26,1.06,2.05,-137.2616,-123.926,-56.5646,175,75
2026-05-09 14:45:03.695,4,0.78,0.94,1.36,-102.38159999999999,-47.156,-38.4546,175,75
2026-05-09 14:45:03.706,4,0.76,0.78,1.48,-86.7116,19.854,-26.6246,175,75
2026-05-09 14:45:03.717,4,0.77,0.68,1.64,-73.36159999999998,13.933999999999997,-25.7046,175,75
2026-05-09 14:45:03.737,4,0.45,0.49,1.73,-56.2216,-47.525999999999996,-30.7046,175,75
2026-05-09 14:45:03.748,4,0.29,0.44,1.68,-57.681599999999996,-75.146,-35.2246,175,75
2026-05-09 14:45:03.776,4,0.06,0.77,1.42,-66.6516,-154.236,-32.4746,175,75
2026-05-09 14:45:03.798,4,0.04,0.87,1.27,-71.4716,-146.426,-30.3446,175,75
2026-05-09 14:45:03.817,4,0.07,0.96,1.05,-74.51159999999999,-86.916,-22.354600000000005,175,75
2026-05-09 14:45:03.828,4,0.05,0.93,1.01,-76.10159999999999,-52.766,-20.034600000000005,175,75
2026-05-09 14:45:03.833,4,-0.01,0.81,1.03,-80.55160000000001,-3.8659999999999997,-19.9146,175,75
2026-05-09 14:45:03.850,4,-0.06,0.72,1.1,-86.4716,24.483999999999995,-22.724600000000002,175,75
2026-05-09 14:45:03.863,4,-0.13,0.68,1.18,-93.66159999999999,43.513999999999996,-27.4146,175,75
2026-05-09 14:45:03.863,4,-0.18,0.67,1.28,-101.5316,59.123999999999995,-32.2946,175,75
2026-05-09 14:45:03.876,4,-0.18,0.73,1.4,-107.08159999999998,66.074,-37.2346,175,75
2026-05-09 14:45:03.899,4,-0.14,0.82,1.5,-110.18159999999997,54.244,-40.3446,175,75
2026-05-09 14:45:03.899,4,-0.11,0.84,1.54,-109.21159999999998,41.56399999999999,-40.0946,175,75
2026-05-09 14:45:03.912,4,-0.04,0.82,1.55,-103.48159999999999,31.623999999999995,-40.1546,175,75
2026-05-09 14:45:03.922,4,0.04,0.78,1.6,-97.8116,24.664,-40.7646,175,75
2026-05-09 14:45:03.932,4,0.1,0.72,1.63,-91.16159999999999,18.694000000000003,-44.3046,175,75
2026-05-09 14:45:03.967,4,0.48,0.89,1.61,-63.291599999999995,12.354,-48.5146,175,75
2026-05-09 14:45:03.977,4,0.61,0.98,1.57,-52.261599999999994,31.013999999999996,-46.5646,175,75
2026-05-09 14:45:03.987,4,0.69,1.09,1.61,-38.6016,53.513999999999996,-45.3446,175,75
2026-05-09 14:45:03.999,4,0.71,1.25,1.8,-25.86159999999999,85.094,-45.3446,175,75
2026-05-09 14:45:04.015,4,0.7,1.43,2.09,-22.9916,109.244,-48.2046,175,75
2026-05-09 14:45:04.020,4,0.73,1.78,2.5,-24.091599999999993,98.57400000000001,-50.464600000000004,175,75
2026-05-09 14:45:04.031,4,0.64,2.18,2.81,-27.14159999999999,42.714,-47.8446,175,75
2026-05-09 14:45:04.044,4,0.53,2.68,2.98,-41.2216,-28.806,-39.1846,175,75
2026-05-09 14:45:04.044,4,0.71,2.93,2.83,-62.14159999999999,-63.866,-28.934600000000003,175,75
2026-05-09 14:45:04.056,4,1.02,2.73,2.35,-70.98159999999999,-89.476,-18.084600000000002,175,75
2026-05-09 14:45:04.066,4,1.07,2.14,1.82,-58.0516,-63.256,-11.924600000000002,175,75
2026-05-09 14:45:04.077,4,0.96,1.64,1.63,-46.53159999999999,25.584000000000003,-8.084600000000002,175,75
2026-05-09 14:45:04.098,4,0.79,1.49,2.25,-48.9716,80.82400000000001,-12.724600000000002,175,75
2026-05-09 14:45:04.136,4,0.83,0.86,1.97,-35.98159999999999,-43.016,-23.144600000000004,175,75
2026-05-09 14:45:04.140,4,0.98,0.54,1.64,-36.401599999999995,-30.396,-38.4546,175,75
2026-05-09 14:45:04.164,4,0.96,0.34,1.32,-26.401599999999995,16.683999999999997,-64.4246,175,75
2026-05-09 14:45:04.175,4,0.73,0.69,1.42,-21.651599999999995,27.474000000000004,-67.6546,175,75
2026-05-09 14:45:04.194,4,0.62,1.04,1.52,-22.141599999999997,33.934,-67.0446,175,75
2026-05-09 14:45:04.220,4,0.75,1.1,1.52,-28.231599999999993,35.763999999999996,-69.3646,175,75
2026-05-09 14:45:04.231,4,0.78,0.97,1.54,-35.5516,23.084000000000003,-81.2546,175,75
2026-05-09 14:45:04.234,4,0.64,0.98,1.64,-47.20159999999999,-4.725999999999999,-89.1846,175,75
2026-05-09 14:45:04.244,4,0.56,1.18,1.77,-70.73159999999999,-35.756,-82.1746,175,75
2026-05-09 14:45:04.267,4,0.97,1.69,1.59,-92.5016,-62.766,-47.5946,175,75
2026-05-09 14:45:04.285,4,1.2,1.73,1.33,-89.58159999999998,-29.476,-36.4346,175,75
2026-05-09 14:45:04.297,4,1.22,1.56,1.26,-90.49159999999998,10.524000000000001,-33.6346,175,75
2026-05-09 14:45:04.310,4,1.08,1.33,1.35,-96.16159999999999,41.623999999999995,-29.854600000000005,175,75
2026-05-09 14:45:04.346,4,0.83,1.08,1.63,-86.95159999999998,1.2539999999999978,-21.744600000000005,175,75
2026-05-09 14:45:04.364,4,0.79,1.05,1.6,-90.3116,-30.456,-29.614600000000003,175,75
2026-05-09 14:45:04.388,4,0.5,1.1,1.26,-88.9716,-66.486,-44.3046,175,75
2026-05-09 14:45:04.406,4,0.2,1.04,0.98,-88.48159999999999,-41.486000000000004,-52.1746,175,75
2026-05-09 14:45:04.436,4,-0.1,0.7,0.97,-89.0916,4.484000000000002,-74.6746,175,75
2026-05-09 14:45:04.456,4,-0.23,0.5,1.14,-89.1516,-6.426000000000002,-89.2446,175,75
2026-05-09 14:45:04.470,4,-0.29,0.47,1.23,-91.95159999999998,-31.486,-96.9246,175,75
2026-05-09 14:45:04.481,4,-0.38,0.57,1.28,-108.29159999999999,-86.976,-107.9046,175,75
2026-05-09 14:45:04.503,4,-0.39,0.68,1.23,-116.6516,-103.256,-110.3446,175,75
2026-05-09 14:45:04.548,4,-0.2,0.91,1.28,-135.18159999999997,-80.696,-90.0346,175,75
2026-05-09 14:45:04.608,4,1.05,1.11,1.29,-79.2716,58.45399999999999,-61.6846,175,75
2026-05-09 14:45:04.646,4,1.36,3.49,2.62,-91.77159999999998,12.414000000000001,-26.5646,175,75
2026-05-09 14:45:04.680,4,1.3,3.45,2.97,-160.86159999999998,-6.485999999999997,0.14539999999999864,175,75
2026-05-09 14:45:04.680,4,1.98,2.77,2.32,-162.3216,-82.956,28.9854,175,75
2026-05-09 14:45:04.692,4,2.06,1.66,1.43,-114.21159999999998,-65.576,38.1354,175,75
2026-05-09 14:45:04.709,4,1.99,0.53,1.05,-93.29159999999999,152.904,21.795399999999997,175,75
2026-05-09 14:45:04.718,4,1.97,0.13,1.53,-103.29159999999999,280.70399999999995,5.205399999999997,175,75
2026-05-09 14:45:04.740,4,1.15,0.28,3.17,-99.45159999999998,190.644,-43.6946,175,75
