Time,ID,Ax,Ay,Az,Gx,Gy,Gz,Height,Weight
2026-05-11 17:56:47.918,4,0.14,-0.21,1.18,0.6595999999999975,-281.0708,-2.8924000000000003,175,75
2026-05-11 17:56:47.918,4,0.25,-0.48,2.71,36.879599999999996,264.5392,54.367599999999996,175,75
2026-05-11 17:56:47.918,4,-0.98,-2.3,-0.07,-73.4204,-7.7708,-19.6524,175,75
2026-05-11 17:56:47.918,4,-0.78,-2.23,0.1,-68.91040000000001,95.14920000000001,12.597599999999998,175,75
2026-05-11 17:56:47.918,4,-0.49,-1.97,0.35,-70.9204,148.6892,21.257599999999996,175,75
2026-05-11 17:56:47.918,4,-0.33,-1.81,0.64,-73.2404,189.5392,19.9176,175,75
2026-05-11 17:56:47.918,4,-0.29,-1.45,2.86,31.6396,-213.1408,46.3776,175,75
2026-05-11 17:56:47.918,4,-0.28,-1.09,2.56,52.6696,-402.7708,51.5676,175,75
2026-05-11 17:56:47.918,4,-0.42,-0.96,1.95,62.3096,-509.05080000000004,53.02759999999999,175,75
2026-05-11 17:56:47.918,4,-0.44,-0.05,0.33,28.949599999999997,-340.4008,24.3076,175,75
2026-05-11 17:56:47.918,4,-0.35,0.38,0.05,47.1896,-125.0908,31.8076,175,75
2026-05-11 17:56:47.919,4,-0.33,0.42,0.07,64.1396,0.27919999999999967,36.4976,175,75
2026-05-11 17:56:47.919,4,-0.44,-0.05,0.56,-17.9404,32.709199999999996,-24.2924,175,75
2026-05-11 17:56:47.919,4,-0.61,-0.27,0.54,-42.57040000000001,35.3392,-28.922400000000003,175,75
2026-05-11 17:56:47.919,4,-0.81,-1.63,0.69,-110.5004,42.779199999999996,83.02759999999999,175,75
2026-05-11 17:56:47.919,4,-0.66,-1.82,0.79,-101.6604,83.1392,94.7376,175,75
2026-05-11 17:56:47.920,4,-0.78,-2.41,1.09,-75.6204,178.4492,84.1876,175,75
2026-05-11 17:56:47.920,4,-0.91,-3.0,1.22,-52.2004,228.5092,86.9276,175,75
2026-05-11 17:56:47.920,4,-0.9,-3.25,1.39,-30.2504,253.86919999999998,81.5676,175,75
2026-05-11 17:56:47.920,4,-0.58,-2.85,1.72,-10.740400000000001,242.95919999999998,52.8476,175,75
2026-05-11 17:56:47.920,4,0.07,-1.49,1.86,32.7996,-50.640800000000006,-3.3724000000000007,175,75
2026-05-11 17:56:47.928,4,0.01,-1.38,1.7,32.1196,-92.4708,-18.9224,175,75
2026-05-11 17:56:47.978,4,-0.09,-1.22,1.48,30.479599999999998,-88.2008,-33.4424,175,75
2026-05-11 17:56:47.978,4,-0.07,-0.93,1.29,41.1496,-31.4308,-42.8924,175,75
2026-05-11 17:56:47.981,4,-0.03,-0.21,1.17,63.709599999999995,108.0792,-39.1724,175,75
2026-05-11 17:56:48.056,4,-0.03,0.03,1.19,62.6096,161.8592,-34.5324,175,75
2026-05-11 17:56:48.056,4,0.47,0.02,1.94,11.699599999999997,-0.7008000000000003,-19.2924,175,75
2026-05-11 17:56:48.085,4,0.48,0.07,1.61,-5.860400000000002,-115.5808,-23.6224,175,75
2026-05-11 17:56:48.085,4,-0.09,0.21,1.41,-59.580400000000004,-214.1808,44.187599999999996,175,75
2026-05-11 17:56:48.085,4,0.57,-0.06,0.87,-15.0104,-170.88080000000002,-23.6824,175,75
2026-05-11 17:56:48.141,4,-0.2,-0.38,0.38,-90.8604,-13.4408,-33.5024,175,75
2026-05-11 17:56:48.141,4,-0.3,-0.4,0.53,-121.7804,26.1292,-19.2924,175,75
2026-05-11 17:56:48.141,4,-0.34,-0.43,0.68,-146.9604,21.9192,-3.7424,175,75
2026-05-11 17:56:48.424,4,-0.73,-1.37,0.68,-111.2904,-72.1608,6.9276,175,75
2026-05-11 17:56:48.424,4,-0.83,-1.46,0.56,-77.63040000000001,1.2491999999999999,16.7476,175,75
2026-05-11 17:56:48.424,4,-0.7,-1.85,1.16,7.489599999999999,250.6992,39.4276,175,75
2026-05-11 17:56:48.424,4,-0.43,-1.81,1.37,22.8596,197.2292,39.9176,175,75
2026-05-11 17:56:48.424,4,-0.15,-1.82,1.41,39.6896,76.3692,36.7476,175,75
2026-05-11 17:56:48.425,4,-0.16,-1.64,0.93,47.0596,-70.7608,29.3076,175,75
2026-05-11 17:56:48.426,4,-0.32,-1.44,0.87,49.5596,-58.320800000000006,33.4576,175,75
2026-05-11 17:56:48.426,4,-0.37,-1.25,1.08,53.589600000000004,-35.9408,42.2376,175,75
2026-05-11 17:56:48.426,4,-0.2,-1.08,1.43,54.5596,-67.96079999999999,46.3176,175,75
2026-05-11 17:56:48.426,4,0.14,-0.87,1.8,54.25959999999999,-182.41080000000002,39.977599999999995,175,75
2026-05-11 17:56:48.426,4,0.38,-0.65,2.08,56.209599999999995,-362.6508,20.5276,175,75
2026-05-11 17:56:48.426,4,-0.7,-0.53,1.21,23.709600000000002,-707.3507999999999,-48.5024,175,75
2026-05-11 17:56:48.426,4,-0.92,-0.33,0.59,16.9996,-597.3507999999999,-49.5324,175,75
2026-05-11 17:56:48.427,4,-0.83,-0.11,0.2,17.8596,-436.8608,-42.6424,175,75
2026-05-11 17:56:48.427,4,-0.44,0.02,0.06,30.659599999999998,-60.5808,-16.482400000000002,175,75
2026-05-11 17:56:48.427,4,-0.28,-0.21,0.44,38.7096,141.4992,-6.792400000000001,175,75
2026-05-11 17:56:48.822,4,-0.11,-0.44,1.34,45.3596,323.0192,1.437599999999998,175,75
2026-05-11 17:56:48.822,4,-0.07,-0.45,1.58,44.6896,328.19919999999996,3.5176,175,75
2026-05-11 17:56:48.822,4,0.02,-0.47,1.73,43.2796,303.3892,4.4276,175,75
2026-05-11 17:56:48.822,4,0.05,-0.45,1.62,41.0896,116.3092,-8.862400000000001,175,75
2026-05-11 17:56:48.822,4,-0.01,-0.46,1.46,40.6596,71.8592,-15.2024,175,75
2026-05-11 17:56:48.822,4,-0.2,-0.62,1.14,31.5796,-7.8308,-27.8324,175,75
2026-05-11 17:56:48.823,4,-0.93,-0.66,0.69,-10.800400000000002,-148.69080000000002,-29.2924,175,75
2026-05-11 17:56:48.823,4,-1.55,-0.62,0.53,-82.5104,-320.5808,36.687599999999996,175,75
2026-05-11 17:56:48.823,4,-1.18,-1.02,0.69,-91.0504,-407.5308,49.60759999999999,175,75
2026-05-11 17:56:48.823,4,-1.31,-1.7,0.57,-98.3604,-460.3308,57.35759999999999,175,75
2026-05-11 17:56:48.823,4,-1.52,-1.77,0.22,-94.5204,-416.1308,70.0376,175,75
2026-05-11 17:56:48.823,4,-1.68,-1.61,-0.09,-90.6204,-329.8508,80.6476,175,75
2026-05-11 17:56:48.823,4,-1.9,-1.31,-0.25,-86.6604,-117.7708,90.3476,175,75
2026-05-11 17:56:48.823,4,-1.32,-1.55,0.56,-47.2004,279.3592,131.6276,175,75
2026-05-11 17:56:48.823,4,0.1,-1.24,1.72,1.8195999999999977,238.9992,12.9076,175,75
2026-05-11 17:56:48.823,4,-0.08,-0.8,1.77,16.3296,197.64919999999998,-12.7624,175,75
2026-05-11 17:56:48.823,4,0.19,-0.12,2.12,7.0596,136.0092,5.527599999999998,175,75
2026-05-11 17:56:48.908,4,-0.22,-0.33,1.71,-31.2904,119.78920000000001,35.4676,175,75
2026-05-11 17:56:48.908,4,-0.29,-0.41,1.72,-23.730400000000003,134.23919999999998,45.0976,175,75
2026-05-11 17:56:48.908,4,-0.3,-0.63,1.79,-9.460400000000002,119.78920000000001,55.587599999999995,175,75
2026-05-11 17:56:48.909,4,-0.26,-0.78,1.85,-3.1804000000000023,69.0592,57.6576,175,75
2026-05-11 17:56:48.909,4,-0.19,-0.8,1.86,-5.560400000000001,-15.8808,55.3476,175,75
2026-05-11 17:56:48.909,4,-0.12,-0.73,1.74,-12.390400000000001,-159.3008,45.6476,175,75
2026-05-11 17:56:48.929,4,-1.06,-1.41,0.1,6.8796,-236.3708,8.8776,175,75
2026-05-11 17:56:49.013,4,-0.5,-1.38,0.69,32.059599999999996,-132.7708,-63.4324,175,75
2026-05-11 17:56:49.032,4,-0.5,-1.25,0.71,26.3896,-100.0908,-70.5724,175,75
2026-05-11 17:56:49.041,4,-0.46,-1.12,0.73,24.8696,-52.8308,-76.3624,175,75
2026-05-11 17:56:49.052,4,-0.44,-0.57,0.9,40.1096,96.67920000000001,-86.2424,175,75
2026-05-11 17:56:49.064,4,-0.37,-0.28,1.07,56.50959999999999,166.9192,-83.7424,175,75
2026-05-11 17:56:49.074,4,-0.26,-0.05,1.31,71.4496,190.0292,-80.39240000000001,175,75
2026-05-11 17:56:49.102,4,-0.08,0.12,1.5,73.7096,170.39919999999998,-82.1524,175,75
2026-05-11 17:56:49.109,4,-0.09,0.33,1.67,66.4496,100.5192,-84.9024,175,75
2026-05-11 17:56:49.120,4,-0.2,0.32,1.68,54.6896,-9.9708,-63.4324,175,75
2026-05-11 17:56:49.131,4,-0.21,0.14,1.6,41.8196,-59.970800000000004,-47.5224,175,75
2026-05-11 17:56:49.142,4,-0.2,0.02,1.48,22.4296,-83.8708,-32.7024,175,75
2026-05-11 17:56:49.152,4,-0.2,-0.01,1.37,6.639599999999998,-79.79079999999999,-20.6924,175,75
2026-05-11 17:56:49.164,4,-0.18,-0.0,1.3,-2.270400000000002,-53.6908,-10.942400000000001,175,75
2026-05-11 17:56:49.191,4,-0.25,-0.02,1.26,-8.610400000000002,-6.4308,-4.532400000000001,175,75
2026-05-11 17:56:49.208,4,-0.5,0.09,1.01,-17.450400000000002,14.5992,-4.172400000000001,175,75
2026-05-11 17:56:49.219,4,-0.66,0.05,0.92,-25.9204,40.639199999999995,5.887600000000001,175,75
2026-05-11 17:56:49.242,4,-0.65,-0.45,1.07,-43.180400000000006,16.4292,38.2076,175,75
2026-05-11 17:56:49.303,4,-1.52,-2.09,0.23,-61.900400000000005,-277.0408,33.5776,175,75
2026-05-11 17:56:49.314,4,-1.52,-2.06,-0.02,-52.6304,-61.3108,45.3476,175,75
2026-05-11 17:56:49.340,4,-0.9,-2.17,0.68,-8.6704,240.0292,68.63759999999999,175,75
2026-05-11 17:56:49.355,4,-0.49,-2.09,1.04,4.1996,213.92919999999998,51.4376,175,75
2026-05-11 17:56:49.367,4,-0.3,-1.87,1.17,15.599599999999995,140.51919999999998,26.3176,175,75
2026-05-11 17:56:49.380,4,-0.28,-1.68,1.2,19.2596,77.09920000000001,4.187599999999998,175,75
2026-05-11 17:56:49.390,4,-0.33,-1.44,1.22,15.1096,24.9692,-14.1724,175,75
2026-05-11 17:56:49.401,4,-0.34,-1.24,1.24,15.299599999999998,-3.6308000000000002,-23.8624,175,75
2026-05-11 17:56:49.414,4,-0.2,-1.06,1.29,26.9996,-59.180800000000005,-34.8424,175,75
2026-05-11 17:56:49.426,4,-0.18,-1.06,1.27,29.8696,-79.3608,-43.562400000000004,175,75
2026-05-11 17:56:49.439,4,-0.25,-1.05,1.19,31.879599999999996,-76.1908,-50.452400000000004,175,75
2026-05-11 17:56:49.462,4,-0.33,-0.88,0.94,58.03959999999999,60.209199999999996,-47.5824,175,75
2026-05-11 17:56:49.472,4,-0.27,-0.62,0.94,72.3696,166.73919999999998,-40.3924,175,75
2026-05-11 17:56:49.484,4,-0.14,-0.43,1.02,80.7796,231.1292,-36.3024,175,75
2026-05-11 17:56:49.499,4,-0.1,-0.2,1.41,87.0596,322.5892,-29.1124,175,75
2026-05-11 17:56:49.510,4,-0.1,-0.18,1.55,86.3296,324.3592,-24.172400000000003,175,75
2026-05-11 17:56:49.562,4,-0.07,-0.14,1.67,74.8096,273.8692,-8.502400000000002,175,75
2026-05-11 17:56:49.574,4,-0.01,-0.2,1.69,64.3196,240.20919999999998,-1.1824000000000012,175,75
2026-05-11 17:56:49.574,4,0.06,-0.3,1.75,50.9096,204.3592,0.8275999999999986,175,75
2026-05-11 17:56:49.609,4,0.2,-0.39,1.8,29.0096,108.8692,-6.852400000000001,175,75
2026-05-11 17:56:49.616,4,0.19,-0.42,1.78,19.559599999999996,56.9192,-13.192400000000001,175,75
2026-05-11 17:56:49.633,4,0.09,-0.35,1.57,6.209599999999998,-75.15079999999999,-25.8124,175,75
2026-05-11 17:56:49.684,4,-0.0,-0.48,0.64,-17.1404,-245.70080000000002,-34.9624,175,75
2026-05-11 17:56:49.694,4,-0.17,-0.61,0.35,-32.3904,-238.26080000000002,-33.2524,175,75
2026-05-11 17:56:49.705,4,-0.25,-0.69,0.24,-49.400400000000005,-209.1808,-27.8324,175,75
2026-05-11 17:56:49.705,4,-0.32,-0.86,0.25,-71.2304,-172.9608,-19.5324,175,75
2026-05-11 17:56:49.715,4,-0.41,-1.15,0.3,-94.2204,-120.15079999999999,-6.9724,175,75
2026-05-11 17:56:49.725,4,-0.42,-1.46,0.27,-96.1104,-61.8008,4.977600000000001,175,75
2026-05-11 17:56:49.738,4,-0.42,-1.73,0.19,-80.68039999999999,11.3092,11.3176,175,75
2026-05-11 17:56:49.749,4,-0.51,-1.67,0.09,-48.6104,228.86919999999998,19.9176,175,75
2026-05-11 17:56:49.763,4,-0.59,-1.67,0.28,-32.8804,326.3692,28.577599999999997,175,75
2026-05-11 17:56:49.812,4,-0.6,-1.9,0.78,0.04959999999999809,443.25919999999996,41.437599999999996,175,75
2026-05-11 17:56:49.826,4,0.12,-2.07,2.16,77.6096,354.9692,73.7576,175,75
2026-05-11 17:56:49.835,4,0.49,-1.99,2.34,87.5496,189.7892,61.0176,175,75
2026-05-11 17:56:49.876,4,-0.13,-1.31,1.24,82.0596,-295.8808,-46.7324,175,75
2026-05-11 17:56:49.876,4,-0.29,-0.85,0.94,68.2196,-245.82080000000002,-58.0124,175,75
2026-05-11 17:56:49.893,4,-0.37,-0.21,0.79,58.099599999999995,-153.44080000000002,-56.7924,175,75
2026-05-11 17:56:49.904,4,-0.06,0.23,0.77,54.1396,-92.5908,-50.452400000000004,175,75
2026-05-11 17:56:49.930,4,0.01,0.23,0.91,60.6596,-46.610800000000005,-30.5124,175,75
2026-05-11 17:56:49.942,4,0.13,-0.2,1.08,34.4396,-121.5508,-27.9524,175,75
2026-05-11 17:56:49.953,4,-0.24,-0.13,0.85,-56.8404,-311.1308,-30.142400000000002,175,75
2026-05-11 17:56:49.964,4,-0.53,-0.01,0.46,-86.5304,-345.0308,-10.942400000000001,175,75
2026-05-11 17:56:49.964,4,-0.73,-0.04,0.03,-99.4604,-273.2608,19.1276,175,75
2026-05-11 17:56:49.989,4,-0.75,-0.51,-0.05,-105.5604,-15.0308,70.9576,175,75
2026-05-11 17:56:49.999,4,-0.49,-1.08,0.6,-132.2004,111.06920000000001,92.10759999999999,175,75
2026-05-11 17:56:50.036,4,-0.39,-1.55,0.98,-134.16039999999998,129.05919999999998,100.4076,175,75
2026-05-11 17:56:50.047,4,-0.28,-1.66,1.04,-123.5504,125.45920000000001,97.5376,175,75
2026-05-11 17:56:50.058,4,-0.22,-1.58,1.07,-110.99040000000001,118.4492,91.3776,175,75
2026-05-11 17:56:50.062,4,-0.14,-1.37,1.08,-93.3004,99.4192,82.0476,175,75
2026-05-11 17:56:50.079,4,-0.19,-1.57,1.12,-70.6204,93.2592,66.6876,175,75
2026-05-11 17:56:50.090,4,-0.34,-2.07,1.26,-50.8604,114.0592,53.2676,175,75
2026-05-11 17:56:50.101,4,-0.23,-2.41,1.5,-17.5104,101.42920000000001,35.8876,175,75
2026-05-11 17:56:50.113,4,-0.17,-2.18,1.54,3.4095999999999975,56.1892,23.517599999999995,175,75
2026-05-11 17:56:50.126,4,-0.12,-1.7,1.52,30.7196,23.3892,17.2376,175,75
2026-05-11 17:56:50.136,4,-0.08,-1.32,1.43,52.42959999999999,-3.8708,11.3776,175,75
2026-05-11 17:56:50.147,4,-0.11,-1.21,1.37,63.4096,-2.5908,6.4976,175,75
2026-05-11 17:56:50.147,4,-0.11,-1.08,1.33,72.1896,18.2592,3.457600000000001,175,75
2026-05-11 17:56:50.158,4,0.04,-0.86,1.32,80.2996,29.7292,-0.0823999999999998,175,75
2026-05-11 17:56:50.196,4,0.11,-0.72,1.38,83.5896,29.5392,-7.702400000000001,175,75
2026-05-11 17:56:50.207,4,0.16,-0.57,1.47,81.9396,18.9292,-16.7924,175,75
2026-05-11 17:56:50.219,4,0.25,-0.25,1.65,69.1996,-40.9408,-40.4524,175,75
2026-05-11 17:56:50.230,4,0.27,-0.09,1.7,61.9996,-94.1108,-53.6224,175,75
2026-05-11 17:56:50.257,4,-0.01,-0.09,1.26,64.7496,-179.3608,-67.0924,175,75
2026-05-11 17:56:50.258,4,-0.1,-0.1,1.12,60.7196,-145.5808,-61.4224,175,75
2026-05-11 17:56:50.266,4,-0.11,-0.08,1.05,50.7196,-92.8308,-52.4624,175,75
2026-05-11 17:56:50.281,4,-0.11,-0.09,1.07,44.379599999999996,-56.430800000000005,-44.1724,175,75
2026-05-11 17:56:50.303,4,-0.14,-0.17,1.21,23.8296,-2.6508000000000003,-28.8624,175,75
2026-05-11 17:56:50.315,4,-0.12,-0.16,1.28,13.0396,7.5291999999999994,-19.2924,175,75
2026-05-11 17:56:50.315,4,-0.09,-0.15,1.31,3.0396,-3.9908,-10.692400000000001,175,75
2026-05-11 17:56:50.326,4,-0.05,-0.15,1.28,-6.4704000000000015,-24.0508,-4.9024,175,75
2026-05-11 17:56:50.375,4,0.02,-0.21,1.14,-18.7904,-57.5908,1.0775999999999986,175,75
2026-05-11 17:56:50.376,4,-0.01,-0.34,1.0,-27.450400000000002,-80.5808,2.967599999999999,175,75
2026-05-11 17:56:50.409,4,-0.04,-0.43,0.85,-42.3904,-85.5808,2.4776000000000007,175,75
2026-05-11 17:56:50.410,4,-0.11,-0.51,0.69,-60.3804,-77.90079999999999,1.0775999999999986,175,75
2026-05-11 17:56:50.420,4,-0.31,-0.75,0.6,-72.4504,-37.8308,0.34759999999999813,175,75
2026-05-11 17:56:50.420,4,-0.5,-1.17,0.63,-72.88040000000001,31.4992,6.437599999999998,175,75
2026-05-11 17:56:50.433,4,-0.49,-1.56,0.68,-65.0704,77.4692,13.6376,175,75
2026-05-11 17:56:50.448,4,-0.45,-2.03,0.73,-48.4204,92.5292,22.297599999999996,175,75
2026-05-11 17:56:50.448,4,-0.44,-2.25,0.74,-34.3404,92.4092,25.2776,175,75
2026-05-11 17:56:50.473,4,-0.21,-1.22,0.64,-9.030400000000002,30.2792,9.8576,175,75
2026-05-11 17:56:50.473,4,-0.41,-1.5,0.69,1.0295999999999985,36.069199999999995,8.6376,175,75
2026-05-11 17:56:50.517,4,-0.32,-1.82,0.76,10.659599999999998,21.6792,11.0176,175,75
2026-05-11 17:56:50.517,4,-0.22,-1.91,0.78,11.449599999999997,-29.6608,2.047600000000001,175,75
2026-05-11 17:56:50.517,4,-0.33,-1.7,0.54,44.5596,-128.9308,-27.4024,175,75
2026-05-11 17:56:50.528,4,-0.4,-1.57,0.57,54.1396,-145.88080000000002,-34.8424,175,75
2026-05-11 17:56:50.543,4,-0.49,-1.37,0.99,28.0396,-222.7708,-45.4524,175,75
2026-05-11 17:56:50.562,4,-0.5,-1.22,1.24,8.2196,-303.2008,-48.4324,175,75
2026-05-11 17:56:50.575,4,-0.57,-1.08,1.33,-3.0604000000000013,-381.0008,-47.1524,175,75
2026-05-11 17:56:50.590,4,-0.6,-0.97,1.21,0.5396000000000001,-452.5908,-38.0124,175,75
2026-05-11 17:56:50.601,4,-0.6,-0.85,1.12,0.35960000000000036,-425.5808,-41.3624,175,75
2026-05-11 17:56:50.623,4,-0.48,-0.63,1.1,-2.9404000000000003,-384.7908,-48.8624,175,75
2026-05-11 17:56:50.628,4,-0.5,-0.4,1.09,-9.3404,-347.2208,-54.3524,175,75
2026-05-11 17:56:50.656,4,-0.46,0.19,0.69,-24.340400000000002,-81.8008,-33.1924,175,75
2026-05-11 17:56:50.687,4,-0.44,0.17,0.7,-2.080400000000001,213.1392,21.3776,175,75
2026-05-11 17:56:50.698,4,-0.41,-0.17,1.15,-7.630400000000002,382.7092,52.16759999999999,175,75
2026-05-11 17:56:50.721,4,-0.27,-0.27,1.48,-19.8304,421.3692,60.88759999999999,175,75
2026-05-11 17:56:50.721,4,-0.15,-0.31,1.64,-27.8804,402.2892,61.9276,175,75
2026-05-11 17:56:50.735,4,-0.04,-0.47,1.68,-35.1304,326.00919999999996,54.66759999999999,175,75
2026-05-11 17:56:50.770,4,-0.13,-0.7,1.07,-60.2504,157.89919999999998,26.257599999999996,175,75
2026-05-11 17:56:50.781,4,-0.35,-0.75,0.79,-65.6204,137.5292,18.327599999999997,175,75
2026-05-11 17:56:50.782,4,-0.56,-0.85,0.53,-68.0004,129.3592,18.517599999999995,175,75
2026-05-11 17:56:50.803,4,-0.94,-1.07,0.27,-96.4704,154.8492,38.8176,175,75
2026-05-11 17:56:50.816,4,-0.75,-1.34,0.23,-81.2904,179.4792,38.087599999999995,175,75
2026-05-11 17:56:50.838,4,-0.26,-1.41,1.05,-86.5904,80.39920000000001,5.217599999999999,175,75
2026-05-11 17:56:50.857,4,-0.28,-1.31,1.09,-92.3904,-55.5808,-7.8924,175,75
2026-05-11 17:56:50.872,4,-0.49,-1.36,1.01,-83.0004,-123.6908,-2.3424000000000014,175,75
2026-05-11 17:56:50.885,4,-0.48,-1.46,0.95,-57.2004,-102.5308,2.4776000000000007,175,75
2026-05-11 17:56:50.895,4,-0.36,-1.51,0.93,-18.2404,-51.4908,18.0276,175,75
2026-05-11 17:56:50.906,4,-0.2,-1.41,1.06,0.5995999999999988,-11.2508,7.967599999999999,175,75
2026-05-11 17:56:50.929,4,0.06,-1.03,1.04,44.869600000000005,5.9492,-25.4524,175,75
2026-05-11 17:56:50.937,4,-0.03,-0.89,0.92,58.7696,44.2992,-42.2824,175,75
2026-05-11 17:56:50.958,4,-0.51,-0.2,0.69,47.7996,206.0692,-32.4624,175,75
2026-05-11 17:56:50.969,4,-0.56,0.17,0.7,44.319599999999994,338.56919999999997,-10.572400000000002,175,75
2026-05-11 17:56:50.991,4,-0.26,0.05,1.42,47.1896,435.3992,35.587599999999995,175,75
2026-05-11 17:56:50.995,4,0.05,-0.32,1.78,25.839599999999997,331.3092,42.5376,175,75
2026-05-11 17:56:51.008,4,0.34,-0.69,2.07,-20.0104,128.5092,29.9176,175,75
2026-05-11 17:56:51.022,4,0.33,-0.84,2.09,-59.0904,-30.2708,11.077599999999999,175,75
2026-05-11 17:56:51.032,4,0.12,-0.83,1.87,-98.0004,-191.3108,-6.362400000000001,175,75
2026-05-11 17:56:51.045,4,-0.13,-0.72,1.55,-116.1104,-278.93080000000003,-7.342400000000001,175,75
2026-05-11 17:56:51.096,4,-0.37,-0.6,0.88,-103.6104,-281.8608,14.917599999999998,175,75
2026-05-11 17:56:51.096,4,-0.33,-0.66,0.54,-80.19040000000001,-215.5208,23.0276,175,75
2026-05-11 17:56:51.161,4,-0.21,-0.92,0.7,-81.8404,53.1992,51.3176,175,75
2026-05-11 17:56:51.174,4,0.1,-1.06,1.0,-81.96039999999999,1.9791999999999998,40.6476,175,75
2026-05-11 17:56:51.227,4,-0.06,-0.82,0.97,-94.1604,-99.0508,58.63759999999999,175,75
2026-05-11 17:56:51.260,4,-0.38,-1.61,0.85,-23.0604,112.09920000000001,31.7476,175,75
2026-05-11 17:56:51.271,4,-0.25,-1.6,1.13,-0.9904000000000011,140.51919999999998,29.7376,175,75
2026-05-11 17:56:51.282,4,0.17,-1.1,1.43,50.599599999999995,38.319199999999995,16.6276,175,75
2026-05-11 17:56:51.282,4,0.12,-1.05,1.39,58.7696,-36.430800000000005,-1.0023999999999997,175,75
2026-05-11 17:56:51.292,4,-0.14,-1.14,1.36,65.8396,-51.1908,-38.0724,175,75
2026-05-11 17:56:51.325,4,-0.14,-0.16,1.44,62.1896,-37.290800000000004,-58.6224,175,75
2026-05-11 17:56:51.336,4,-0.17,0.02,1.42,66.6396,-24.6008,-57.342400000000005,175,75
2026-05-11 17:56:51.363,4,-0.25,0.07,1.43,77.0596,7.7791999999999994,-49.9624,175,75
2026-05-11 17:56:51.380,4,-0.22,-0.06,1.53,82.7296,29.5992,-43.0724,175,75
2026-05-11 17:56:51.393,4,-0.13,-0.19,1.75,81.8796,18.5092,-36.1224,175,75
2026-05-11 17:56:51.408,4,-0.05,-0.25,1.94,75.2996,-41.5508,-30.7524,175,75
2026-05-11 17:56:51.419,4,-0.03,-0.29,2.02,66.5796,-101.8008,-29.412399999999998,175,75
2026-05-11 17:56:51.419,4,-0.06,-0.31,2.05,51.089600000000004,-180.70080000000002,-30.5124,175,75
2026-05-11 17:56:51.429,4,-0.12,-0.24,1.9,37.1896,-264.5408,-32.0324,175,75
2026-05-11 17:56:51.429,4,-0.15,-0.04,1.62,34.989599999999996,-309.4208,-29.352400000000003,175,75
2026-05-11 17:56:51.476,4,-0.22,0.15,0.87,42.9196,-291.8608,-22.642400000000002,175,75
2026-05-11 17:56:51.485,4,-0.32,0.11,0.52,30.1096,-209.3608,-18.0124,175,75
2026-05-11 17:56:51.515,4,-0.54,-0.16,0.14,-14.950400000000002,13.3892,-15.692400000000001,175,75
2026-05-11 17:56:51.539,4,-0.85,-0.52,0.04,-33.1804,196.8592,-7.6424,175,75
2026-05-11 17:56:51.555,4,-0.9,-1.51,0.05,-6.840400000000001,351.9792,11.3176,175,75
2026-05-11 17:56:51.578,4,-0.71,-2.01,0.65,-55.1304,257.4092,18.8176,175,75
2026-05-11 17:56:51.578,4,-0.63,-2.0,0.86,-65.3104,203.4492,37.5976,175,75
2026-05-11 17:56:51.589,4,-0.37,-1.99,0.98,-58.7304,89.17920000000001,62.2376,175,75
2026-05-11 17:56:51.592,4,-0.08,-2.05,0.92,-33.2404,-3.3808000000000002,58.697599999999994,175,75
2026-05-11 17:56:51.629,4,-0.09,-1.61,0.52,-0.13040000000000163,-75.40079999999999,29.427599999999998,175,75
2026-05-11 17:56:51.671,4,-0.05,-0.93,0.91,42.6696,108.7492,-3.0724,175,75
2026-05-11 17:56:51.682,4,-0.01,-0.77,1.04,58.709599999999995,140.8192,-5.262400000000001,175,75
2026-05-11 17:56:51.682,4,-0.01,-0.7,1.1,67.7996,155.5792,-5.942400000000001,175,75
2026-05-11 17:56:51.704,4,0.07,-0.63,1.16,80.9096,183.86919999999998,-0.5724,175,75
2026-05-11 17:56:51.704,4,0.14,-0.59,1.23,89.9296,192.95919999999998,-0.8124000000000002,175,75
2026-05-11 17:56:51.718,4,0.2,-0.61,1.34,93.8296,191.67919999999998,-6.122400000000001,175,75
2026-05-11 17:56:51.730,4,0.36,-0.53,1.48,89.4996,149.9092,-16.1224,175,75
2026-05-11 17:56:51.740,4,0.42,-0.42,1.54,82.0596,71.5592,-25.9424,175,75
2026-05-11 17:56:51.751,4,0.4,-0.38,1.47,75.7196,15.0292,-32.7024,175,75
2026-05-11 17:56:51.765,4,0.33,-0.36,1.35,67.5496,-23.2608,-38.5024,175,75
2026-05-11 17:56:51.775,4,0.24,-0.3,1.17,56.6396,-37.960800000000006,-43.6224,175,75
2026-05-11 17:56:51.790,4,0.15,-0.23,1.02,43.03959999999999,-11.3108,-46.4224,175,75
2026-05-11 17:56:51.801,4,0.09,-0.26,0.98,34.559599999999996,23.6892,-46.3024,175,75
2026-05-11 17:56:51.811,4,0.09,-0.32,1.0,29.6896,56.9792,-44.2924,175,75
2026-05-11 17:56:51.824,4,0.17,-0.43,1.18,4.079599999999999,71.0092,-46.7924,175,75
2026-05-11 17:56:51.835,4,0.22,-0.4,1.24,-11.3504,40.029199999999996,-49.9624,175,75
2026-05-11 17:56:51.845,4,0.29,-0.38,1.24,-22.270400000000002,-12.1608,-51.732400000000005,175,75
2026-05-11 17:56:51.855,4,0.37,-0.5,1.13,-35.9204,-93.6908,-53.562400000000004,175,75
2026-05-11 17:56:51.876,4,0.39,-0.6,0.75,-61.6604,-191.4908,-56.062400000000004,175,75
2026-05-11 17:56:51.887,4,0.36,-0.62,0.51,-75.5004,-222.10080000000002,-54.2924,175,75
2026-05-11 17:56:51.898,4,0.09,-0.81,0.26,-101.2304,-227.5308,-50.632400000000004,175,75
2026-05-11 17:56:51.921,4,-0.14,-1.17,0.24,-127.3304,-184.1808,-27.5824,175,75
2026-05-11 17:56:51.967,4,-0.18,-1.36,0.33,-125.8604,-182.8308,-18.5024,175,75
2026-05-11 17:56:51.992,4,-0.18,-1.59,0.42,-125.2504,-214.3608,-20.0824,175,75
2026-05-11 17:56:52.004,4,-0.27,-1.66,0.42,-125.9204,-232.16080000000002,-28.0124,175,75
2026-05-11 17:56:52.004,4,-0.51,-1.63,0.43,-123.3604,-205.2108,-31.1824,175,75
2026-05-11 17:56:52.051,4,-0.68,-1.41,0.99,-60.6804,-8.6308,-16.1824,175,75
2026-05-11 17:56:52.051,4,-0.48,-1.35,1.38,-28.6704,1.0691999999999997,-20.0824,175,75
2026-05-11 17:56:52.064,4,-0.15,-1.26,1.73,-0.6204000000000001,-62.530800000000006,-32.8324,175,75
2026-05-11 17:56:52.076,4,0.06,-1.14,1.85,13.0396,-131.6808,-42.8324,175,75
2026-05-11 17:56:52.088,4,0.14,-1.0,1.84,25.839599999999997,-185.0308,-65.4524,175,75
2026-05-11 17:56:52.098,4,0.15,-0.93,1.73,54.379599999999996,-156.0008,-108.25240000000001,175,75
2026-05-11 17:56:52.098,4,-0.74,-0.27,1.63,63.099599999999995,-114.79079999999999,-52.2824,175,75
2026-05-11 17:56:52.111,4,-0.58,0.38,1.55,64.00959999999999,6.9192,-30.142400000000002,175,75
2026-05-11 17:56:52.121,4,-0.34,0.08,1.69,88.0996,162.0392,13.3876,175,75
2026-05-11 17:56:52.132,4,-0.24,-0.39,1.88,92.8596,188.3192,26.7476,175,75
2026-05-11 17:56:52.155,4,-0.19,-0.57,2.03,67.6696,159.23919999999998,25.767599999999995,175,75
2026-05-11 17:56:52.166,4,-0.21,-0.35,2.15,20.229599999999998,14.9692,33.9976,175,75
2026-05-11 17:56:52.176,4,-0.09,-0.16,1.91,9.5596,-142.5908,42.4176,175,75
2026-05-11 17:56:52.176,4,-0.22,-0.37,1.34,12.189599999999999,-260.8808,44.547599999999996,175,75
2026-05-11 17:56:52.204,4,-0.42,-0.65,0.84,17.2496,-288.6308,45.9576,175,75
2026-05-11 17:56:52.204,4,-0.63,-0.87,0.37,9.8096,-253.7508,54.5476,175,75
2026-05-11 17:56:52.215,4,-0.69,-0.98,0.08,-1.7204000000000015,-200.88080000000002,64.85759999999999,175,75
2026-05-11 17:56:52.215,4,-0.65,-1.06,-0.2,-21.660400000000003,-116.2508,77.10759999999999,175,75
2026-05-11 17:56:52.226,4,-0.66,-1.17,-0.27,-34.3404,-34.540800000000004,84.4276,175,75
2026-05-11 17:56:52.236,4,-0.63,-1.34,-0.21,-39.2204,51.679199999999994,89.24759999999999,175,75
2026-05-11 17:56:52.248,4,-0.63,-1.43,-0.09,-40.5004,108.31920000000001,89.4276,175,75
2026-05-11 17:56:52.259,4,-0.45,-1.49,0.24,-34.2804,168.86919999999998,78.99759999999999,175,75
2026-05-11 17:56:52.272,4,-0.45,-1.82,0.41,-32.0204,193.80919999999998,72.2376,175,75
2026-05-11 17:56:52.284,4,-0.45,-2.08,0.57,-24.2204,222.70919999999998,71.74759999999999,175,75
2026-05-11 17:56:52.284,4,-0.43,-2.2,0.75,-8.1804,245.2792,72.1676,175,75
2026-05-11 17:56:52.294,4,-0.22,-2.01,1.05,16.449599999999997,234.05919999999998,63.577600000000004,175,75
2026-05-11 17:56:52.305,4,0.17,-1.6,1.2,33.099599999999995,152.58919999999998,46.3176,175,75
2026-05-11 17:56:52.305,4,0.46,-1.28,1.2,45.229600000000005,31.799200000000003,21.867599999999996,175,75
2026-05-11 17:56:52.324,4,0.6,-1.15,1.06,44.92959999999999,-96.0008,-17.1524,175,75
2026-05-11 17:56:52.335,4,0.37,-1.1,0.94,25.049599999999998,-149.85080000000002,-55.202400000000004,175,75
2026-05-11 17:56:52.338,4,0.05,-1.01,0.89,6.0295999999999985,-140.4008,-80.9324,175,75
2026-05-11 17:56:52.353,4,-0.14,-0.76,0.92,-5.990400000000001,-102.8308,-99.47240000000001,175,75
2026-05-11 17:56:52.364,4,-0.18,-0.59,0.98,-9.220400000000001,-77.10079999999999,-104.47240000000001,175,75
2026-05-11 17:56:52.374,4,-0.13,-0.39,1.09,-8.6704,-53.2008,-105.0224,175,75
2026-05-11 17:56:52.390,4,-0.05,-0.21,1.23,0.5396000000000001,-33.3208,-101.4224,175,75
2026-05-11 17:56:52.390,4,0.02,-0.1,1.37,13.339599999999997,-18.9908,-95.39240000000001,175,75
2026-05-11 17:56:52.465,4,0.04,-0.14,1.53,18.8296,-14.6008,-91.61240000000001,175,75
2026-05-11 17:56:52.465,4,-0.04,-0.15,1.57,16.449599999999997,-14.1108,-88.1324,175,75
2026-05-11 17:56:52.480,4,-0.13,-0.13,1.58,14.689599999999999,-6.3708,-79.9024,175,75
2026-05-11 17:56:52.506,4,-0.36,-0.17,1.59,6.759599999999999,42.89919999999999,-50.8724,175,75
2026-05-11 17:56:52.539,4,-0.4,-0.16,1.64,1.3295999999999992,78.1392,-31.852400000000003,175,75
2026-05-11 17:56:52.539,4,-0.37,-0.14,1.73,-3.360400000000002,102.09920000000001,-13.3724,175,75
2026-05-11 17:56:52.551,4,-0.29,-0.19,1.83,-8.490400000000001,97.95920000000001,-0.942400000000001,175,75
2026-05-11 17:56:52.562,4,-0.22,-0.23,1.88,-12.330400000000001,74.84920000000001,6.7476,175,75
2026-05-11 17:56:52.562,4,-0.17,-0.25,1.91,-15.9204,24.4792,10.827599999999999,175,75
2026-05-11 17:56:52.585,4,-0.19,-0.06,1.7,-13.970400000000001,-108.8108,21.8076,175,75
2026-05-11 17:56:52.599,4,-0.18,-0.03,1.5,-7.690400000000002,-166.5508,27.7776,175,75
2026-05-11 17:56:52.612,4,0.02,-0.25,1.05,-4.0904000000000025,-247.35080000000002,23.2076,175,75
2026-05-11 17:56:52.623,4,-0.58,-0.58,0.51,-51.3504,-213.44080000000002,16.077599999999997,175,75
2026-05-11 17:56:52.634,4,-0.65,-0.6,0.33,-65.8604,-115.9408,33.087599999999995,175,75
2026-05-11 17:56:52.634,4,-0.69,-0.64,0.33,-68.18039999999999,-31.6808,48.2676,175,75
2026-05-11 17:56:52.645,4,-0.48,-0.7,0.4,-59.0304,2.5892,56.6876,175,75
2026-05-11 17:56:52.657,4,-0.28,-0.94,0.55,-35.0704,-13.0808,59.7376,175,75
2026-05-11 17:56:52.670,4,-0.22,-1.26,0.6,-21.590400000000002,-52.35080000000001,54.7976,175,75
2026-05-11 17:56:52.680,4,-0.5,-1.71,0.64,-24.2204,-83.8108,40.4676,175,75
2026-05-11 17:56:52.693,4,-0.77,-2.03,0.65,-25.9204,-47.530800000000006,33.4576,175,75
2026-05-11 17:56:52.693,4,-0.76,-2.21,0.6,-15.800400000000002,-16.4908,33.2076,175,75
2026-05-11 17:56:52.706,4,-0.62,-2.35,0.52,12.249600000000001,2.7092,28.087599999999995,175,75
2026-05-11 17:56:52.706,4,-0.42,-2.19,0.48,28.8296,-2.2208,17.717599999999997,175,75
2026-05-11 17:56:52.718,4,-0.36,-1.89,0.48,38.4696,-6.5508,1.3775999999999993,175,75
2026-05-11 17:56:52.734,4,-0.45,-1.73,0.61,50.599599999999995,-5.2708,-49.232400000000005,175,75
2026-05-11 17:56:52.745,4,-0.53,-1.62,0.68,45.599599999999995,-2.2208,-69.4124,175,75
2026-05-11 17:56:52.749,4,-0.54,-1.4,0.78,44.4996,22.3492,-79.6524,175,75
2026-05-11 17:56:52.761,4,-0.45,-1.23,0.91,44.379599999999996,37.959199999999996,-83.1324,175,75
2026-05-11 17:56:52.772,4,-0.4,-1.03,1.0,45.4196,56.069199999999995,-84.7824,175,75
2026-05-11 17:56:52.803,4,-0.44,-0.62,1.24,76.3896,133.7492,-59.5324,175,75
2026-05-11 17:56:52.817,4,-0.03,-0.31,1.57,92.7996,81.3692,-35.5724,175,75
2026-05-11 17:56:52.846,4,0.07,-0.24,1.56,60.599599999999995,-184.1108,-50.3924,175,75
2026-05-11 17:56:52.870,4,-0.48,-0.06,1.04,15.839599999999997,-225.70080000000002,-44.9624,175,75
2026-05-11 17:56:52.885,4,-0.54,-0.02,0.86,5.9696,-157.41080000000002,-25.4524,175,75
2026-05-11 17:56:52.899,4,-0.45,-0.13,0.8,2.0595999999999997,-62.470800000000004,-3.2523999999999997,175,75
2026-05-11 17:56:52.904,4,-0.36,-0.21,0.87,-0.9904000000000011,-1.5508000000000002,6.437599999999998,175,75
2026-05-11 17:56:52.915,4,-0.25,-0.25,1.03,-4.4604,51.429199999999994,13.027599999999998,175,75
2026-05-11 17:56:52.925,4,-0.23,-0.27,1.23,-9.030400000000002,77.95920000000001,17.1676,175,75
2026-05-11 17:56:52.962,4,-0.33,-0.31,1.31,-24.5804,27.5292,26.257599999999996,175,75
2026-05-11 17:56:52.997,4,-0.45,-0.84,0.85,-48.0604,-52.1608,32.5976,175,75
2026-05-11 17:56:53.005,4,-0.51,-1.02,0.67,-57.2004,-39.110800000000005,35.587599999999995,175,75
2026-05-11 17:56:53.021,4,-0.56,-1.29,0.6,-55.620400000000004,2.7792000000000003,41.437599999999996,175,75
2026-05-11 17:56:53.032,4,-0.53,-1.5,0.64,-46.290400000000005,40.57919999999999,41.867599999999996,175,75
2026-05-11 17:56:53.054,4,-0.52,-1.32,0.82,-30.860400000000002,51.9192,22.357599999999998,175,75
2026-05-11 17:56:53.080,4,-0.69,-1.4,1.01,-23.180400000000002,74.4792,25.2776,175,75
2026-05-11 17:56:53.090,4,-0.63,-1.48,1.16,-12.080400000000001,82.03920000000001,30.587599999999995,175,75
2026-05-11 17:56:53.114,4,-0.24,-1.37,1.43,23.769599999999997,13.0792,25.8876,175,75
2026-05-11 17:56:53.125,4,-0.24,-1.22,1.43,36.6996,-26.0708,13.6376,175,75
2026-05-11 17:56:53.137,4,-0.45,-0.65,1.32,48.8296,4.8492,-0.2024000000000008,175,75
2026-05-11 17:56:53.162,4,-0.4,0.05,1.37,52.979600000000005,65.5792,4.8576,175,75
2026-05-11 17:56:53.174,4,-0.27,0.47,1.55,54.4396,68.92920000000001,26.867599999999996,175,75
2026-05-11 17:56:53.186,4,-0.33,-0.07,1.6,48.1596,36.7992,40.5276,175,75
2026-05-11 17:56:53.205,4,-0.24,-0.42,1.68,31.3896,-23.6308,52.77759999999999,175,75
2026-05-11 17:56:53.216,4,-0.16,-0.36,1.72,14.499600000000001,-123.0208,58.9376,175,75
2026-05-11 17:56:53.226,4,-0.21,-0.28,1.62,2.1895999999999987,-221.2508,64.24759999999999,175,75
2026-05-11 17:56:53.240,4,-0.33,-0.31,1.36,-8.790400000000002,-301.0008,67.4776,175,75
2026-05-11 17:56:53.251,4,-0.53,-0.41,0.95,-16.590400000000002,-340.4008,70.7076,175,75
2026-05-11 17:56:53.262,4,-0.69,-0.54,0.55,-20.3804,-323.0208,75.1576,175,75
2026-05-11 17:56:53.272,4,-0.85,-0.74,0.13,-21.5304,-235.2108,84.0676,175,75
2026-05-11 17:56:53.284,4,-0.89,-0.96,-0.07,-22.8104,-108.1408,92.77759999999999,175,75
2026-05-11 17:56:53.296,4,-0.91,-1.19,-0.04,-25.3804,66.06920000000001,101.74759999999999,175,75
2026-05-11 17:56:53.307,4,-0.78,-1.4,0.24,-23.6704,183.3892,106.3176,175,75
2026-05-11 17:56:53.320,4,-0.76,-1.54,0.5,-26.1704,221.0692,103.2676,175,75
2026-05-11 17:56:53.331,4,-0.66,-1.63,0.75,-26.9604,227.3492,93.4576,175,75
2026-05-11 17:56:53.353,4,-0.68,-2.0,0.91,-18.730400000000003,143.86919999999998,51.6876,175,75
2026-05-11 17:56:53.374,4,-0.52,-2.14,1.08,21.9396,158.3892,30.037599999999998,175,75
2026-05-11 17:56:53.427,4,-0.15,-1.71,1.15,59.7496,-2.9008000000000003,-41.1224,175,75
2026-05-11 17:56:53.439,4,-0.38,-1.49,1.09,61.089600000000004,-16.3108,-77.58239999999999,175,75
2026-05-11 17:56:53.449,4,-0.38,-1.26,1.15,56.209599999999995,14.909199999999998,-91.1824,175,75
2026-05-11 17:56:53.449,4,-0.3,-0.94,1.27,49.619600000000005,37.289199999999994,-99.9624,175,75
2026-05-11 17:56:53.481,4,0.05,-0.21,1.42,46.879599999999996,48.389199999999995,-112.7024,175,75
2026-05-11 17:56:53.495,4,-0.01,-0.05,1.49,56.75959999999999,54.2992,-120.0824,175,75
2026-05-11 17:56:53.508,4,0.0,0.13,1.57,64.9296,49.1192,-116.5424,175,75
2026-05-11 17:56:53.520,4,-0.08,0.27,1.64,63.709599999999995,6.619199999999999,-107.4624,175,75
2026-05-11 17:56:53.530,4,-0.2,0.22,1.65,56.9396,-26.4908,-97.4024,175,75
2026-05-11 17:56:53.541,4,-0.36,0.18,1.66,41.9396,-55.7608,-77.83239999999999,175,75
2026-05-11 17:56:53.564,4,-0.26,0.22,1.65,11.939599999999999,-100.5208,-22.3424,175,75
2026-05-11 17:56:53.579,4,-0.14,0.06,1.61,0.35960000000000036,-121.8608,-7.2224,175,75
2026-05-11 17:56:53.590,4,-0.12,0.05,1.56,-8.610400000000002,-132.04080000000002,0.5876000000000001,175,75
2026-05-11 17:56:53.601,4,-0.17,-0.15,1.4,-19.160400000000003,-124.60079999999999,8.327599999999999,175,75
2026-05-11 17:56:53.612,4,-0.26,-0.11,1.29,-21.0504,-106.3708,12.417599999999998,175,75
2026-05-11 17:56:53.624,4,-0.34,0.03,1.17,-21.110400000000002,-82.7708,17.477599999999995,175,75
2026-05-11 17:56:53.639,4,-0.42,0.07,1.05,-19.090400000000002,-63.3808,22.357599999999998,175,75
2026-05-11 17:56:53.646,4,-0.5,-0.04,0.93,-18.9704,-38.140800000000006,29.0676,175,75
2026-05-11 17:56:53.663,4,-0.59,-0.25,0.84,-27.8104,-4.300800000000001,33.9976,175,75
2026-05-11 17:56:53.677,4,-0.67,-0.44,0.81,-37.3904,39.969199999999994,37.7176,175,75
2026-05-11 17:56:53.677,4,-0.7,-0.63,0.9,-37.7504,84.4192,41.3176,175,75
2026-05-11 17:56:53.698,4,-0.7,-1.14,1.11,-14.770400000000002,104.4792,49.60759999999999,175,75
2026-05-11 17:56:53.732,4,-0.93,-1.92,0.92,13.769599999999997,-55.0908,41.3776,175,75
2026-05-11 17:56:53.753,4,-1.19,-1.93,0.74,3.8295999999999992,-49.6608,41.3776,175,75
2026-05-11 17:56:53.753,4,-1.29,-2.02,0.71,3.9496,7.7791999999999994,44.187599999999996,175,75
2026-05-11 17:56:53.796,4,-0.82,-1.97,0.69,41.3296,-4.7208000000000006,56.077600000000004,175,75
2026-05-11 17:56:53.796,4,-0.82,-1.82,0.67,45.4196,-11.1308,47.7776,175,75
2026-05-11 17:56:53.812,4,-0.71,-1.63,0.68,42.42959999999999,-21.8008,35.767599999999995,175,75
2026-05-11 17:56:53.817,4,-0.56,-1.49,0.69,36.3896,-46.9808,23.757599999999996,175,75
2026-05-11 17:56:53.836,4,-0.46,-1.42,0.69,29.199599999999997,-72.5308,9.1276,175,75
2026-05-11 17:56:53.871,4,-0.35,-1.13,0.73,8.099599999999999,-38.2008,-29.8424,175,75
2026-05-11 17:56:53.875,4,-0.36,-1.14,0.81,18.589599999999997,16.0692,-28.4424,175,75
2026-05-11 17:56:53.886,4,-0.24,-1.17,0.96,35.2296,68.3892,-22.3424,175,75
2026-05-11 17:56:53.893,4,-0.15,-1.1,1.13,41.3296,94.4192,-20.8724,175,75
2026-05-11 17:56:53.902,4,0.01,-0.89,1.28,42.979600000000005,101.6192,-23.1924,175,75
2026-05-11 17:56:53.939,4,0.14,-0.18,1.38,26.089599999999997,61.429199999999994,-41.4224,175,75
2026-05-11 17:56:54.017,4,0.08,0.0,1.33,20.1096,72.5292,-42.2224,175,75
2026-05-11 17:56:54.038,4,0.07,0.1,1.32,16.5796,81.5592,-37.7024,175,75
2026-05-11 17:56:54.049,4,0.05,0.13,1.31,9.139599999999998,85.14920000000001,-28.5024,175,75
2026-05-11 17:56:54.070,4,0.02,-0.13,1.3,-12.630400000000002,91.9192,-1.4824000000000002,175,75
2026-05-11 17:56:54.093,4,0.0,-0.33,1.57,-32.510400000000004,71.2492,29.857599999999998,175,75
2026-05-11 17:56:54.124,4,0.09,-0.38,1.72,-39.7704,11.1292,37.8476,175,75
2026-05-11 17:56:54.136,4,-0.23,-0.63,1.05,-46.7204,-156.98080000000002,15.4076,175,75
2026-05-11 17:56:54.157,4,-0.48,-0.45,0.4,-53.8504,-154.2408,4.2476,175,75
2026-05-11 17:56:54.168,4,-0.59,-0.57,0.29,-62.690400000000004,-141.0008,5.097599999999998,175,75
2026-05-11 17:56:54.197,4,-0.75,-1.6,0.55,-85.38040000000001,-7.9008,16.3176,175,75
2026-05-11 17:56:54.208,4,-1.02,-1.32,0.25,-78.9704,90.14920000000001,22.047599999999996,175,75
2026-05-11 17:56:54.214,4,-1.11,-1.36,0.33,-65.3104,174.6692,30.217599999999997,175,75
2026-05-11 17:56:54.218,4,-0.96,-1.47,0.64,-54.7004,250.7592,34.977599999999995,175,75
2026-05-11 17:56:54.234,4,-0.73,-1.58,0.97,-46.4704,278.50919999999996,34.547599999999996,175,75
2026-05-11 17:56:54.234,4,-0.54,-1.65,1.27,-28.360400000000002,264.5392,32.3576,175,75
2026-05-11 17:56:54.250,4,-0.54,-1.67,1.36,-12.630400000000002,228.9992,31.927599999999998,175,75
2026-05-11 17:56:54.261,4,-0.62,-1.62,1.39,2.729599999999998,192.2292,34.1276,175,75
2026-05-11 17:56:54.261,4,-0.66,-1.42,1.48,21.3296,143.0792,38.0276,175,75
2026-05-11 17:56:54.274,4,-0.36,-1.03,1.7,22.309599999999996,52.469199999999994,25.9576,175,75
2026-05-11 17:56:54.274,4,0.2,-0.6,1.92,15.3596,-88.1408,-5.8124,175,75
2026-05-11 17:56:54.287,4,0.27,-0.49,1.82,5.229599999999998,-225.76080000000002,-47.2824,175,75
2026-05-11 17:56:54.314,4,-0.45,0.15,1.03,74.1396,-12.8908,-30.2624,175,75
2026-05-11 17:56:54.324,4,-0.32,0.1,1.27,91.5796,74.1192,-12.6424,175,75
2026-05-11 17:56:54.324,4,-0.21,-0.15,1.51,76.6396,94.3592,-12.8324,175,75
2026-05-11 17:56:54.335,4,-0.18,-0.27,1.7,38.2196,64.4192,-19.2924,175,75
2026-05-11 17:56:54.353,4,-0.32,-0.27,1.69,-3.0004000000000026,-52.7708,-8.9824,175,75
2026-05-11 17:56:54.364,4,-0.38,-0.25,1.6,-16.840400000000002,-98.3808,3.027599999999998,175,75
2026-05-11 17:56:54.376,4,-0.36,-0.22,1.41,-24.6404,-139.3008,17.477599999999995,175,75
2026-05-11 17:56:54.376,4,-0.38,-0.31,1.24,-27.750400000000003,-155.6408,24.427599999999998,175,75
2026-05-11 17:56:54.386,4,-0.45,-0.45,1.03,-32.8804,-150.88080000000002,29.427599999999998,175,75
2026-05-11 17:56:54.432,4,-0.54,-0.75,0.69,-41.900400000000005,-109.3608,38.517599999999995,175,75
2026-05-11 17:56:54.443,4,-0.49,-0.84,0.59,-39.8904,-93.2008,43.8176,175,75
2026-05-11 17:56:54.443,4,-0.47,-1.03,0.53,-35.8004,-80.8808,48.327600000000004,175,75
2026-05-11 17:56:54.467,4,-0.57,-1.22,0.46,-38.550399999999996,-58.4408,51.867599999999996,175,75
2026-05-11 17:56:54.477,4,-0.64,-1.22,0.38,-41.4104,-24.1808,55.9576,175,75
2026-05-11 17:56:54.490,4,-0.66,-1.03,0.38,-36.8404,9.7892,61.13759999999999,175,75
2026-05-11 17:56:54.501,4,-0.59,-0.99,0.43,-39.5804,20.5792,57.5376,175,75
2026-05-11 17:56:54.613,4,-0.26,-1.46,1.31,35.1096,103.31920000000001,5.217599999999999,175,75
2026-05-11 17:56:54.624,4,-0.12,-1.16,1.43,57.0596,2.1692,-45.0824,175,75
2026-05-11 17:56:54.635,4,-0.22,-1.0,1.31,43.03959999999999,-86.3708,-90.8724,175,75
2026-05-11 17:56:54.645,4,-0.27,-0.8,1.22,40.4796,-73.8108,-96.5424,175,75
2026-05-11 17:56:54.645,4,-0.31,-0.61,1.23,47.7996,-32.470800000000004,-92.7624,175,75
2026-05-11 17:56:54.681,4,-0.3,-0.21,1.63,68.5296,58.8692,-64.9024,175,75
2026-05-11 17:56:54.681,4,-0.25,-0.2,1.76,64.1396,26.6792,-55.9324,175,75
2026-05-11 17:56:54.692,4,-0.21,-0.23,1.82,49.7496,-25.9408,-49.9624,175,75
2026-05-11 17:56:54.704,4,-0.2,-0.21,1.79,34.559599999999996,-77.29079999999999,-43.8024,175,75
2026-05-11 17:56:54.715,4,-0.26,-0.18,1.66,20.599599999999995,-108.2008,-35.0824,175,75
2026-05-11 17:56:54.727,4,-0.26,-0.13,1.51,13.4696,-114.7208,-25.572400000000002,175,75
2026-05-11 17:56:54.727,4,-0.32,-0.05,1.38,10.299599999999998,-100.2708,-11.3024,175,75
2026-05-11 17:56:54.736,4,-0.33,0.1,1.33,7.0596,-69.60079999999999,4.367599999999998,175,75
2026-05-11 17:56:54.751,4,-0.22,0.03,1.27,-4.580400000000001,-71.43079999999999,23.147599999999997,175,75
2026-05-11 17:56:54.769,4,-0.21,0.01,1.2,-14.090400000000002,-78.2008,21.927599999999998,175,75
2026-05-11 17:56:54.769,4,-0.25,-0.03,1.12,-23.3004,-93.9908,20.9576,175,75
2026-05-11 17:56:54.802,4,-0.7,-0.79,0.74,-62.940400000000004,-53.3808,23.937599999999996,175,75
2026-05-11 17:56:54.820,4,-0.76,-0.92,0.76,-66.9004,-19.6008,30.3476,175,75
2026-05-11 17:56:54.820,4,-0.75,-1.06,0.84,-62.7504,14.179200000000002,39.367599999999996,175,75
2026-05-11 17:56:54.831,4,-0.74,-1.2,0.95,-49.0304,30.399199999999997,46.437599999999996,175,75
2026-05-11 17:56:54.839,4,-0.73,-1.27,1.02,-33.6104,33.8092,46.5676,175,75
2026-05-11 17:56:54.855,4,-0.83,-1.36,0.97,-19.0304,40.7592,34.0676,175,75
2026-05-11 17:56:54.951,4,-0.84,-1.52,0.91,-8.550400000000002,48.749199999999995,24.9176,175,75
2026-05-11 17:56:54.961,4,-0.92,-1.87,0.94,4.929599999999997,56.3692,16.867599999999996,175,75
2026-05-11 17:56:54.961,4,-0.86,-2.13,1.07,10.839599999999997,61.3092,13.2676,175,75
2026-05-11 17:56:54.968,4,-0.75,-2.26,1.17,18.279600000000002,34.1192,9.8576,175,75
2026-05-11 17:56:54.992,4,-0.77,-2.2,1.07,45.1096,-10.1508,2.777599999999998,175,75
2026-05-11 17:56:55.003,4,-0.57,-1.72,0.88,82.6096,-26.4308,-39.0424,175,75
2026-05-11 17:56:55.015,4,-0.46,-1.58,0.89,78.5296,-38.6908,-54.1724,175,75
2026-05-11 17:56:55.026,4,-0.33,-1.15,0.85,65.9096,-85.5208,-85.4524,175,75
2026-05-11 17:56:55.046,4,-0.51,-0.8,0.6,55.7196,-1.1908000000000003,-84.8424,175,75
2026-05-11 17:56:55.059,4,-0.51,-0.7,0.68,57.119600000000005,68.9992,-68.7424,175,75
2026-05-11 17:56:55.059,4,-0.3,-0.57,0.92,56.3896,125.45920000000001,-47.7024,175,75
2026-05-11 17:56:55.068,4,-0.06,-0.4,1.14,52.369600000000005,119.3592,-36.3624,175,75
2026-05-11 17:56:55.086,4,0.0,-0.36,1.19,41.9996,78.1992,-36.0024,175,75
2026-05-11 17:56:55.104,4,-0.15,-0.1,0.92,5.7795999999999985,123.92920000000001,-38.0724,175,75
2026-05-11 17:56:55.120,4,-0.03,0.19,1.19,18.8896,258.9992,-12.522400000000001,175,75
2026-05-11 17:56:55.131,4,0.05,0.12,1.46,28.159599999999998,287.8392,-6.0624,175,75
2026-05-11 17:56:55.143,4,0.27,-0.11,1.76,24.2596,279.5392,-9.7224,175,75
2026-05-11 17:56:55.143,4,0.37,-0.27,1.92,9.5596,226.67919999999998,-20.7524,175,75
2026-05-11 17:56:55.153,4,0.39,-0.33,1.97,-2.8804000000000016,164.5392,-30.2624,175,75
2026-05-11 17:56:55.163,4,0.26,-0.35,1.89,-17.1404,81.3092,-38.312400000000004,175,75
2026-05-11 17:56:55.174,4,0.02,-0.42,1.69,-31.110400000000002,19.2392,-38.8024,175,75
2026-05-11 17:56:55.185,4,-0.1,-0.47,1.51,-35.440400000000004,-5.5808,-34.6524,175,75
2026-05-11 17:56:55.237,4,-0.23,-0.5,1.34,-36.4704,-23.4408,-28.6824,175,75
2026-05-11 17:56:55.237,4,-0.32,-0.67,1.15,-34.9504,-23.8108,-23.7424,175,75
2026-05-11 17:56:55.248,4,-0.39,-0.81,1.04,-35.9204,-22.2908,-17.1524,175,75
2026-05-11 17:56:55.272,4,-0.42,-1.31,0.89,-46.5304,-63.320800000000006,-4.112400000000001,175,75
2026-05-11 17:56:55.283,4,-0.41,-1.65,0.73,-40.620400000000004,-121.7408,-8.6224,175,75
2026-05-11 17:56:55.384,4,-1.04,-1.32,0.2,-9.3404,11.7392,-6.612400000000001,175,75
2026-05-11 17:56:55.388,4,-0.74,-1.35,0.57,3.4696,83.31920000000001,23.327599999999997,175,75
2026-05-11 17:56:55.411,4,-0.48,-1.52,0.98,2.429599999999997,55.9492,35.587599999999995,175,75
2026-05-11 17:56:55.411,4,-0.32,-1.49,1.24,11.819600000000001,-13.9308,41.1376,175,75
2026-05-11 17:56:55.411,4,-0.31,-1.29,1.29,21.449599999999997,-66.9808,38.1476,175,75
2026-05-11 17:56:55.438,4,-0.0,-0.7,1.4,40.2296,-115.8808,-3.7424,175,75
2026-05-11 17:56:55.461,4,0.05,-0.44,1.4,41.6396,-124.9708,-24.5924,175,75
2026-05-11 17:56:55.461,4,-0.2,-0.02,1.13,30.479599999999998,-115.2708,-44.5924,175,75
2026-05-11 17:56:55.472,4,-0.52,-0.09,0.91,18.339599999999997,-45.0908,-34.1124,175,75
2026-05-11 17:56:55.503,4,-0.93,-0.34,1.19,2.3695999999999984,359.5992,44.6076,175,75
2026-05-11 17:56:55.514,4,-0.94,-0.24,1.56,-6.900400000000001,407.4692,72.4176,175,75
2026-05-11 17:56:55.514,4,-0.8,-0.3,1.74,-7.330400000000001,354.4792,91.0776,175,75
2026-05-11 17:56:55.521,4,-0.72,-0.6,1.78,-10.380400000000002,250.33919999999998,104.1276,175,75
2026-05-11 17:56:55.528,4,-0.69,-1.0,1.52,-28.6704,115.7592,111.3776,175,75
2026-05-11 17:56:55.558,4,-0.48,-1.1,0.61,-64.6404,23.8692,117.8476,175,75
2026-05-11 17:56:55.571,4,-0.41,-1.0,0.23,-68.85040000000001,66.06920000000001,123.38759999999999,175,75
2026-05-11 17:56:55.582,4,-0.46,-1.21,0.07,-66.7804,155.0292,124.36760000000001,175,75
2026-05-11 17:56:55.582,4,-0.45,-1.42,0.07,-65.38040000000001,235.2792,121.6876,175,75
2026-05-11 17:56:55.604,4,-0.2,-1.81,0.47,-52.7504,372.2892,91.9876,175,75
2026-05-11 17:56:55.615,4,-0.14,-1.97,0.8,-40.2504,394.7892,86.5676,175,75
2026-05-11 17:56:55.627,4,0.13,-1.87,1.07,-19.4004,365.5792,80.88759999999999,175,75
2026-05-11 17:56:55.651,4,0.39,-1.66,1.33,44.00959999999999,290.69919999999996,75.3476,175,75
2026-05-11 17:56:55.658,4,0.5,-1.53,1.25,64.4996,234.4792,59.977599999999995,175,75
2026-05-11 17:56:55.705,4,0.25,-1.39,1.17,90.3596,183.1392,43.2076,175,75
2026-05-11 17:56:55.727,4,0.15,-1.07,1.67,81.9396,73.4492,35.7076,175,75
2026-05-11 17:56:55.739,4,0.29,-0.84,1.82,77.4896,-25.9408,29.6676,175,75
2026-05-11 17:56:55.739,4,0.29,-0.56,1.8,76.9996,-147.35080000000002,21.8076,175,75
2026-05-11 17:56:55.761,4,0.25,-0.41,1.63,80.1096,-208.9308,17.477599999999995,175,75
2026-05-11 17:56:55.778,4,0.01,-0.28,1.22,85.6596,-243.1408,14.307599999999999,175,75
2026-05-11 17:56:55.778,4,-0.31,-0.26,0.86,79.8096,-203.8108,19.367599999999996,175,75
2026-05-11 17:56:55.802,4,-0.55,-0.07,0.68,44.5596,31.859199999999998,48.4576,175,75
2026-05-11 17:56:55.812,4,-0.22,-0.1,1.24,27.1196,118.1992,66.9276,175,75
2026-05-11 17:56:55.824,4,-0.18,-0.15,1.46,18.099599999999995,101.9792,68.38759999999999,175,75
2026-05-11 17:56:55.834,4,-0.18,-0.19,1.64,4.689599999999999,37.2292,65.88759999999999,175,75
2026-05-11 17:56:55.834,4,-0.27,-0.19,1.62,-10.2504,-22.1608,66.6876,175,75
2026-05-11 17:56:55.854,4,-0.38,-0.16,1.53,-24.160400000000003,-55.7608,71.5676,175,75
2026-05-11 17:56:55.871,4,-0.41,-0.14,1.49,-34.6404,-61.1308,80.52759999999999,175,75
2026-05-11 17:56:55.881,4,-0.31,-0.15,1.56,-41.5304,-70.6408,89.0676,175,75
2026-05-11 17:56:55.892,4,-0.17,-0.18,1.63,-50.3804,-109.9708,93.02759999999999,175,75
2026-05-11 17:56:55.892,4,-0.09,-0.26,1.64,-55.010400000000004,-155.4608,92.5976,175,75
2026-05-11 17:56:55.902,4,-0.06,-0.48,1.51,-58.3004,-214.1108,88.2676,175,75
2026-05-11 17:56:55.920,4,-0.18,-0.65,1.36,-59.2204,-233.63080000000002,86.5676,175,75
2026-05-11 17:56:55.930,4,-0.21,-0.88,1.12,-55.8604,-226.6808,90.4076,175,75
2026-05-11 17:56:55.955,4,-0.19,-1.14,0.95,-51.900400000000005,-219.1808,92.5976,175,75
2026-05-11 17:56:55.955,4,-0.18,-1.44,0.81,-42.510400000000004,-206.07080000000002,94.3676,175,75
2026-05-11 17:56:55.965,4,-0.11,-1.81,0.65,-29.770400000000002,-194.60080000000002,97.2976,175,75
2026-05-11 17:56:56.045,4,-0.19,-2.38,0.26,-8.120400000000002,-45.820800000000006,102.1676,175,75
2026-05-11 17:56:56.045,4,-0.07,-2.17,0.3,3.2795999999999985,13.8092,91.1976,175,75
2026-05-11 17:56:56.071,4,-0.04,-2.13,0.57,32.059599999999996,72.5292,76.74759999999999,175,75
2026-05-11 17:56:56.085,4,0.26,-2.43,0.87,55.2996,42.469199999999994,52.2976,175,75
2026-05-11 17:56:56.107,4,0.13,-2.08,0.89,45.839600000000004,-157.41080000000002,-35.7524,175,75
2026-05-11 17:56:56.117,4,-0.11,-1.9,0.65,44.4996,-201.6108,-65.1424,175,75
2026-05-11 17:56:56.151,4,-0.54,-1.85,0.37,37.669599999999996,-212.10080000000002,-94.2924,175,75
2026-05-11 17:56:56.178,4,-0.82,-1.4,0.54,29.379599999999996,-138.38080000000002,-74.2924,175,75
2026-05-11 17:56:56.178,4,-0.88,-1.15,0.63,26.269599999999997,-89.7208,-53.7424,175,75
2026-05-11 17:56:56.203,4,-0.89,-0.72,0.66,23.279600000000002,-7.1008,-18.9224,175,75
2026-05-11 17:56:56.216,4,-0.83,-0.45,0.76,30.839599999999997,65.3392,8.207600000000001,175,75
2026-05-11 17:56:56.229,4,-0.44,-0.1,1.57,31.209600000000002,85.45920000000001,36.9276,175,75
2026-05-11 17:56:56.241,4,-0.32,-0.09,1.69,26.5096,30.2792,36.3776,175,75
2026-05-11 17:56:56.241,4,-0.27,-0.14,1.6,24.1396,-8.3208,37.7776,175,75
2026-05-11 17:56:56.252,4,-0.24,-0.27,1.48,27.2496,-14.1108,40.8276,175,75
2026-05-11 17:56:56.252,4,-0.22,-0.46,1.42,32.669599999999996,-2.0408000000000004,44.6676,175,75
2026-05-11 17:56:56.262,4,-0.19,-0.74,1.43,37.3696,26.8592,51.2576,175,75
2026-05-11 17:56:56.275,4,-0.09,-0.8,1.62,29.0796,54.789199999999994,59.24759999999999,175,75
2026-05-11 17:56:56.294,4,0.05,-0.57,1.73,13.0396,27.7092,47.7176,175,75
2026-05-11 17:56:56.305,4,0.05,-0.55,1.65,7.549599999999998,9.4192,44.187599999999996,175,75
2026-05-11 17:56:56.316,4,-0.03,-0.26,1.43,2.799599999999998,59.2392,39.8576,175,75
2026-05-11 17:56:56.324,4,0.01,-0.02,1.45,12.369599999999998,103.6292,34.2476,175,75
2026-05-11 17:56:56.336,4,-0.05,-0.14,1.43,11.509599999999999,75.5792,27.537599999999998,175,75
2026-05-11 17:56:56.336,4,-0.22,-0.53,1.25,-2.080400000000001,17.8992,23.697599999999994,175,75
2026-05-11 17:56:56.347,4,-0.47,-0.92,1.13,-22.6904,-18.2608,28.087599999999995,175,75
2026-05-11 17:56:56.358,4,-0.61,-1.39,1.17,-39.3404,-23.8108,40.0976,175,75
2026-05-11 17:56:56.369,4,-0.73,-1.78,1.09,-45.2504,-15.8808,44.0676,175,75
2026-05-11 17:56:56.369,4,-0.94,-1.81,0.8,-42.3904,36.1892,53.2676,175,75
2026-05-11 17:56:56.387,4,-1.0,-1.69,0.41,-19.6404,142.83919999999998,68.7576,175,75
2026-05-11 17:56:56.400,4,-1.1,-1.78,0.42,17.2496,271.3692,81.3776,175,75
2026-05-11 17:56:56.411,4,-0.93,-1.8,0.79,30.779600000000002,311.06919999999997,80.9576,175,75
2026-05-11 17:56:56.442,4,-0.47,-1.76,1.67,25.229599999999998,102.4692,52.10759999999999,175,75
2026-05-11 17:56:56.472,4,-0.71,-1.96,1.88,36.3896,-349.7208,4.057599999999999,175,75
2026-05-11 17:56:56.472,4,-0.93,-1.66,1.7,19.989599999999996,-413.3208,-19.4724,175,75
2026-05-11 17:56:56.489,4,-1.04,-1.2,1.53,19.379599999999996,-417.2208,-25.9424,175,75
2026-05-11 17:56:56.524,4,-0.96,-0.74,1.35,24.8696,-366.74080000000004,-20.0224,175,75
2026-05-11 17:56:56.533,4,-0.72,-0.43,1.2,31.1496,-294.4208,-13.3124,175,75
2026-05-11 17:56:56.551,4,-0.53,-0.12,0.96,40.7796,-203.38080000000002,-5.3324,175,75
2026-05-11 17:56:56.551,4,-0.57,0.12,0.78,47.5496,-90.15079999999999,5.467599999999999,175,75
2026-05-11 17:56:56.563,4,-0.59,0.31,0.67,56.3296,58.4492,16.867599999999996,175,75
2026-05-11 17:56:56.591,4,-1.04,0.02,1.75,65.2296,446.5592,63.327600000000004,175,75
2026-05-11 17:56:56.623,4,-1.34,-0.09,1.89,49.1396,386.6192,92.10759999999999,175,75
2026-05-11 17:56:56.623,4,-1.21,-0.11,1.97,30.229599999999998,305.69919999999996,119.9176,175,75
2026-05-11 17:56:56.667,4,-1.02,-0.82,1.44,6.6996,-8.870800000000001,140.0376,175,75
2026-05-11 17:56:56.667,4,-1.32,-1.02,1.01,3.5295999999999985,-11.7408,150.3476,175,75
2026-05-11 17:56:56.672,4,-1.5,-1.18,0.75,10.659599999999998,50.7592,166.1976,175,75
2026-05-11 17:56:56.686,4,-1.54,-1.4,0.61,12.119599999999998,161.67919999999998,175.70759999999999,175,75
2026-05-11 17:56:56.686,4,-1.49,-1.52,0.64,4.619599999999998,274.3592,181.6876,175,75
2026-05-11 17:56:56.700,4,-1.23,-1.77,0.81,-3.7904000000000018,357.7092,185.4076,175,75
2026-05-11 17:56:56.720,4,-0.94,-1.9,1.06,-16.110400000000002,375.1492,180.95759999999999,175,75
2026-05-11 17:56:56.724,4,-0.63,-1.85,1.32,-37.940400000000004,337.2292,159.3076,175,75
2026-05-11 17:56:56.736,4,-0.54,-1.98,1.52,-52.57040000000001,292.0392,142.5976,175,75
2026-05-11 17:56:56.758,4,-0.45,-2.27,1.67,-50.1904,221.9192,134.3076,175,75
2026-05-11 17:56:56.758,4,-0.33,-2.28,1.74,-45.9904,158.3892,124.9176,175,75
2026-05-11 17:56:56.780,4,-0.16,-2.1,1.71,-34.3404,98.56920000000001,110.8276,175,75
2026-05-11 17:56:56.780,4,-0.04,-1.89,1.63,-7.330400000000001,49.359199999999994,94.7376,175,75
2026-05-11 17:56:56.800,4,0.06,-1.68,1.54,25.909599999999998,12.8392,73.99759999999999,175,75
2026-05-11 17:56:56.811,4,0.14,-1.48,1.39,48.7696,-12.1008,40.8276,175,75
2026-05-11 17:56:56.823,4,0.14,-1.34,1.22,59.5596,-4.9108,14.6076,175,75
2026-05-11 17:56:56.827,4,0.07,-1.19,1.09,70.6596,42.529199999999996,-2.282400000000001,175,75
2026-05-11 17:56:56.850,4,0.05,-1.03,1.02,77.9196,101.9792,-11.182400000000001,175,75
2026-05-11 17:56:56.867,4,0.28,-0.14,1.0,84.0796,210.33919999999998,-10.8724,175,75
2026-05-11 17:56:56.876,4,0.32,0.14,0.96,86.2096,215.8192,-8.9224,175,75
2026-05-11 17:56:56.891,4,0.26,0.24,0.91,87.7296,225.14919999999998,-5.452400000000001,175,75
2026-05-11 17:56:56.901,4,0.17,0.07,0.85,78.5896,252.1692,-0.4524000000000008,175,75
2026-05-11 17:56:56.927,4,0.05,-0.27,1.1,25.299599999999998,338.62919999999997,16.6276,175,75
2026-05-11 17:56:56.940,4,0.17,-0.23,1.37,-3.490400000000001,327.8992,22.907599999999995,175,75
2026-05-11 17:56:56.949,4,0.25,-0.28,1.65,-39.3404,269.5392,32.907599999999995,175,75
2026-05-11 17:56:56.975,4,0.46,-0.38,1.98,-67.2004,30.3392,14.9776,175,75
2026-05-11 17:56:56.997,4,0.17,-0.22,1.93,-106.7804,-59.180800000000005,40.157599999999995,175,75
2026-05-11 17:56:57.007,4,0.59,-0.36,1.67,-75.2504,-66.5508,3.8176000000000005,175,75
2026-05-11 17:56:57.019,4,0.04,-0.44,1.61,-79.2804,-71.8608,1.687599999999998,175,75
2026-05-11 17:56:57.019,4,-0.02,-0.44,1.48,-89.2204,-27.2208,3.8775999999999993,175,75
2026-05-11 17:56:57.027,4,-0.01,-0.55,1.5,-89.7004,4.0592,10.4676,175,75
2026-05-11 17:56:57.037,4,-0.07,-0.7,1.54,-87.2704,16.6192,18.2076,175,75
2026-05-11 17:56:57.047,4,-0.13,-0.87,1.56,-81.4704,27.1692,29.1276,175,75
2026-05-11 17:56:57.060,4,-0.14,-1.08,1.55,-63.5504,24.5392,41.7476,175,75
2026-05-11 17:56:57.099,4,-0.19,-1.29,1.51,-40.7404,14.6692,51.0176,175,75
2026-05-11 17:56:57.123,4,-0.98,-1.53,1.13,86.3296,-566.0007999999999,24.857599999999998,175,75
2026-05-11 17:56:57.156,4,-1.59,-1.96,0.62,60.1696,-597.0408,0.8876000000000008,175,75
2026-05-11 17:56:57.170,4,-2.11,-2.22,0.09,43.589600000000004,-522.4108,-21.3024,175,75
2026-05-11 17:56:57.180,4,-2.1,-2.08,-0.43,48.1596,-359.7208,-37.9524,175,75
2026-05-11 17:56:57.240,4,-1.71,-1.22,-0.62,67.5496,-240.70080000000002,-36.9724,175,75
2026-05-11 17:56:57.250,4,-1.64,-0.75,-0.27,46.449600000000004,56.3692,-19.5924,175,75
2026-05-11 17:56:57.261,4,-1.13,-0.62,0.39,15.5396,238.2592,-8.1324,175,75
2026-05-11 17:56:57.287,4,-0.9,-0.47,0.83,11.879599999999996,264.3592,-4.042400000000001,175,75
2026-05-11 17:56:57.298,4,-0.69,-0.31,1.25,14.559599999999996,247.70919999999998,-2.4624000000000006,175,75
2026-05-11 17:56:57.309,4,-0.55,-0.07,1.53,31.269599999999997,194.4192,3.147599999999999,175,75
2026-05-11 17:56:57.309,4,-0.57,0.2,1.64,46.699600000000004,141.36919999999998,29.3076,175,75
2026-05-11 17:56:57.319,4,-0.34,0.33,1.66,56.3896,56.9792,38.0276,175,75
2026-05-11 17:56:57.319,4,-0.42,-0.24,1.36,64.7496,17.8392,48.5176,175,75
2026-05-11 17:56:57.349,4,-0.08,-0.69,1.64,40.7196,198.0792,85.5876,175,75
2026-05-11 17:56:57.361,4,0.11,-0.65,1.87,32.8596,160.8192,87.1676,175,75
2026-05-11 17:56:57.392,4,0.2,-0.66,1.86,15.9696,-12.1008,71.0776,175,75
2026-05-11 17:56:57.392,4,0.12,-0.63,1.7,10.599599999999995,-33.1408,66.4376,175,75
2026-05-11 17:56:57.406,4,0.06,-0.57,1.55,5.419599999999999,-31.0708,65.0376,175,75
2026-05-11 17:56:57.415,4,0.04,-0.52,1.39,1.269599999999997,-15.8208,66.3776,175,75
2026-05-11 17:56:57.429,4,0.03,-0.52,1.22,-3.1804000000000023,10.4592,70.1576,175,75
2026-05-11 17:56:57.436,4,-0.02,-0.7,1.1,-5.4404,38.389199999999995,73.02759999999999,175,75
2026-05-11 17:56:57.447,4,-0.02,-0.92,1.03,-10.6804,43.749199999999995,71.1976,175,75
2026-05-11 17:56:57.459,4,-0.11,-1.18,0.97,-18.550400000000003,30.4592,64.60759999999999,175,75
2026-05-11 17:56:57.473,4,-0.35,-1.58,0.93,-17.020400000000002,31.429199999999998,62.0476,175,75
2026-05-11 17:56:57.499,4,-0.47,-2.05,0.91,-6.290400000000002,28.5092,68.2076,175,75
2026-05-11 17:56:57.499,4,-0.6,-2.42,0.9,-4.8904,14.729199999999999,76.0776,175,75
2026-05-11 17:56:57.508,4,-0.59,-2.55,0.84,-8.790400000000002,-5.0908,77.4176,175,75
2026-05-11 17:56:57.521,4,-0.47,-2.1,0.8,-16.9604,-32.5308,66.8676,175,75
2026-05-11 17:56:57.532,4,-0.38,-1.54,0.76,-19.770400000000002,-47.10080000000001,55.7076,175,75
2026-05-11 17:56:57.559,4,-0.57,-1.73,0.7,2.6096000000000004,-37.530800000000006,58.38759999999999,175,75
2026-05-11 17:56:57.559,4,-0.45,-1.89,0.83,5.6595999999999975,-38.6908,59.1876,175,75
2026-05-11 17:56:57.572,4,-0.25,-1.53,0.98,-11.290400000000002,-77.29079999999999,43.5776,175,75
2026-05-11 17:56:57.582,4,-0.16,-1.17,1.04,-23.610400000000002,-118.0808,18.6376,175,75
2026-05-11 17:56:57.599,4,-0.18,-0.95,1.04,-28.000400000000003,-140.2708,0.8275999999999986,175,75
2026-05-11 17:56:57.621,4,-0.31,-0.73,1.04,-28.910400000000003,-138.9908,-9.592400000000001,175,75
2026-05-11 17:56:57.632,4,-0.44,-0.5,1.05,-10.380400000000002,-91.7408,-6.362400000000001,175,75
2026-05-11 17:56:57.632,4,-0.27,-0.34,1.09,18.8896,-19.5408,3.457600000000001,175,75
2026-05-11 17:56:57.676,4,0.09,-0.05,1.26,27.669599999999996,43.8692,-5.6324000000000005,175,75
2026-05-11 17:56:57.686,4,-0.1,0.25,1.31,20.779600000000002,73.4492,-7.5824,175,75
2026-05-11 17:56:57.686,4,-0.22,0.49,1.38,19.559599999999996,95.3392,-0.0823999999999998,175,75
2026-05-11 17:56:57.698,4,-0.23,0.58,1.43,22.1196,100.7592,9.307599999999999,175,75
2026-05-11 17:56:57.708,4,-0.33,0.38,1.48,22.3696,87.5892,16.4976,175,75
2026-05-11 17:56:57.719,4,-0.56,-0.18,1.52,14.0796,30.2792,10.827599999999999,175,75
2026-05-11 17:56:57.743,4,-0.99,-0.16,1.32,9.1996,-20.2108,5.347599999999998,175,75
2026-05-11 17:56:57.754,4,-1.21,0.0,1.1,12.369599999999998,-17.410800000000002,13.6376,175,75
2026-05-11 17:56:57.770,4,-1.44,-0.19,0.97,11.639600000000002,15.4592,28.8176,175,75
2026-05-11 17:56:57.782,4,-1.51,-0.7,0.99,6.639599999999998,65.5192,57.16759999999999,175,75
2026-05-11 17:56:57.793,4,-1.45,-1.17,1.06,1.5795999999999992,84.17920000000001,74.7376,175,75
2026-05-11 17:56:57.793,4,-1.43,-1.61,1.15,-6.4704000000000015,94.59920000000001,93.3276,175,75
2026-05-11 17:56:57.808,4,-1.42,-1.75,1.2,-16.9004,110.9492,116.3176,175,75
2026-05-11 17:56:57.847,4,-1.29,-1.61,1.19,13.099599999999995,168.92919999999998,154.9176,175,75
2026-05-11 17:56:57.857,4,-1.08,-1.97,1.34,18.0396,155.51919999999998,152.0476,175,75
2026-05-11 17:56:57.870,4,-0.8,-2.36,1.44,19.3196,84.84920000000001,138.3276,175,75
2026-05-11 17:56:57.882,4,-0.67,-2.31,1.42,18.099599999999995,13.6292,121.4976,175,75
2026-05-11 17:56:57.892,4,-0.57,-1.99,1.32,23.8896,-32.5308,105.0976,175,75
2026-05-11 17:56:57.903,4,-0.47,-1.72,1.2,38.2196,-62.710800000000006,88.8776,175,75
2026-05-11 17:56:57.905,4,-0.35,-1.51,1.05,57.489599999999996,-86.8608,67.4776,175,75
2026-05-11 17:56:57.916,4,-0.27,-1.34,0.91,69.8096,-94.54079999999999,44.9176,175,75
2026-05-11 17:56:57.937,4,-0.22,-1.24,0.8,74.6896,-87.7708,27.4176,175,75
2026-05-11 17:56:57.937,4,-0.22,-1.13,0.72,75.2296,-61.4908,14.8576,175,75
2026-05-11 17:56:57.952,4,-0.22,-1.02,0.65,74.8696,-12.3508,8.8776,175,75
2026-05-11 17:56:57.957,4,-0.22,-0.88,0.62,74.8696,39.9092,10.957600000000001,175,75
2026-05-11 17:56:57.975,4,-0.14,-0.66,0.72,74.8696,117.2292,24.427599999999998,175,75
2026-05-11 17:56:57.992,4,0.04,-0.44,1.02,66.6996,167.2892,33.3276,175,75
2026-05-11 17:56:58.003,4,0.07,-0.37,1.12,57.369600000000005,178.2592,36.437599999999996,175,75
2026-05-11 17:56:58.013,4,0.17,-0.31,1.23,51.209599999999995,182.2892,38.8776,175,75
2026-05-11 17:56:58.023,4,0.19,-0.28,1.31,45.53959999999999,181.42919999999998,39.4876,175,75
2026-05-11 17:56:58.040,4,0.22,-0.29,1.38,40.599599999999995,178.80919999999998,41.197599999999994,175,75
2026-05-11 17:56:58.050,4,0.25,-0.37,1.56,25.479599999999998,159.7892,37.2376,175,75
2026-05-11 17:56:58.065,4,0.24,-0.36,1.63,17.919599999999996,148.2592,34.3076,175,75
2026-05-11 17:56:58.085,4,0.25,-0.33,1.71,9.139599999999998,129.4792,30.0976,175,75
2026-05-11 17:56:58.085,4,0.23,-0.28,1.78,-0.5604000000000013,97.64920000000001,25.827599999999997,175,75
2026-05-11 17:56:58.101,4,0.24,-0.25,1.83,-8.910400000000001,66.0092,19.9176,175,75
2026-05-11 17:56:58.111,4,0.24,-0.2,1.87,-17.6904,21.0692,12.9676,175,75
2026-05-11 17:56:58.125,4,0.21,-0.18,1.85,-23.6704,-14.6608,6.687599999999998,175,75
2026-05-11 17:56:58.125,4,0.14,-0.2,1.75,-26.1704,-36.610800000000005,1.687599999999998,175,75
2026-05-11 17:56:58.139,4,0.03,-0.24,1.59,-28.000400000000003,-47.710800000000006,-2.702400000000001,175,75
2026-05-11 17:56:58.150,4,-0.1,-0.32,1.37,-23.180400000000002,-30.6408,-0.7523999999999997,175,75
2026-05-11 17:56:58.163,4,-0.26,-0.43,1.23,-16.230400000000003,-1.6108000000000002,6.627599999999999,175,75
2026-05-11 17:56:58.176,4,-0.33,-0.65,1.09,-10.0104,42.959199999999996,15.277599999999998,175,75
2026-05-11 17:56:58.187,4,-0.38,-0.96,0.98,-8.970400000000001,57.959199999999996,18.4576,175,75
2026-05-11 17:56:58.196,4,-0.5,-1.22,0.86,-2.450400000000002,77.89920000000001,21.3776,175,75
2026-05-11 17:56:58.210,4,-0.59,-1.68,0.7,8.339599999999997,130.5792,26.687599999999996,175,75
2026-05-11 17:56:58.221,4,-0.66,-1.68,0.56,17.1896,220.0292,33.6376,175,75
2026-05-11 17:56:58.231,4,-0.79,-1.18,0.51,24.809599999999996,280.6392,35.7076,175,75
2026-05-11 17:56:58.263,4,-0.5,-1.96,0.8,60.7796,304.7892,52.2976,175,75
2026-05-11 17:56:58.274,4,-0.16,-2.32,1.08,32.489599999999996,232.2892,27.717599999999997,175,75
2026-05-11 17:56:58.274,4,-0.18,-2.29,1.14,-5.010400000000001,92.28920000000001,3.027599999999998,175,75
2026-05-11 17:56:58.306,4,-0.52,-1.73,0.23,24.4996,18.4492,38.2076,175,75
2026-05-11 17:56:58.320,4,-0.36,-1.54,0.34,36.1496,47.89919999999999,54.5476,175,75
2026-05-11 17:56:58.356,4,-0.18,-1.42,0.61,27.8596,28.4492,57.2376,175,75
2026-05-11 17:56:58.368,4,-0.06,-1.35,0.85,5.9095999999999975,-51.8008,48.9376,175,75
2026-05-11 17:56:58.368,4,-0.02,-1.16,0.91,-12.940400000000002,-131.3108,36.7476,175,75
2026-05-11 17:56:58.379,4,-0.1,-0.95,0.83,-17.9404,-170.76080000000002,25.8876,175,75
2026-05-11 17:56:58.425,4,-0.28,-0.36,0.55,21.5796,36.5592,23.697599999999994,175,75
2026-05-11 17:56:58.439,4,-0.26,-0.24,0.73,41.9396,128.7492,33.697599999999994,175,75
2026-05-11 17:56:58.439,4,-0.16,-0.22,1.02,54.619600000000005,191.9792,43.9976,175,75
2026-05-11 17:56:58.449,4,0.09,-0.11,1.58,45.3596,176.0092,49.0676,175,75
2026-05-11 17:56:58.487,4,0.18,-0.29,1.79,32.059599999999996,81.0092,43.1476,175,75
2026-05-11 17:56:58.488,4,0.16,-0.53,1.82,15.779600000000002,-9.110800000000001,36.5676,175,75
2026-05-11 17:56:58.499,4,0.06,-0.62,1.7,0.04959999999999809,-67.2208,33.3876,175,75
2026-05-11 17:56:58.540,4,-0.02,-0.57,1.52,-6.290400000000002,-81.07079999999999,37.047599999999996,175,75
2026-05-11 17:56:58.540,4,-0.05,-0.55,1.41,8.2196,-24.5408,54.1876,175,75
2026-05-11 17:56:58.552,4,0.03,-0.54,1.54,13.6496,2.3491999999999997,58.327600000000004,175,75
2026-05-11 17:56:58.552,4,0.09,-0.57,1.67,10.5396,5.9492,53.5176,175,75
2026-05-11 17:56:58.563,4,0.12,-0.63,1.72,6.579599999999999,-10.2108,45.407599999999995,175,75
2026-05-11 17:56:58.563,4,0.1,-0.61,1.71,0.4195999999999991,-27.8308,38.8776,175,75
2026-05-11 17:56:58.608,4,0.07,-0.54,1.6,-2.020400000000002,-35.460800000000006,34.6076,175,75
2026-05-11 17:56:58.621,4,0.01,-0.47,1.46,0.2295999999999978,-31.0008,32.7776,175,75
2026-05-11 17:56:58.632,4,0.04,-0.64,1.18,4.689599999999999,-46.92080000000001,24.547599999999996,175,75
2026-05-11 17:56:58.645,4,-0.4,-1.13,0.96,-7.270400000000002,-102.5908,5.1576,175,75
2026-05-11 17:56:58.674,4,-0.8,-1.6,0.3,-54.8904,-82.4708,18.937599999999996,175,75
2026-05-11 17:56:58.689,4,-0.96,-1.44,0.15,-56.9604,-15.7008,48.8776,175,75
2026-05-11 17:56:58.699,4,-1.09,-1.26,0.13,-54.400400000000005,89.84920000000001,88.99759999999999,175,75
2026-05-11 17:56:58.700,4,-0.92,-1.17,0.32,-47.9404,176.61919999999998,115.1576,175,75
2026-05-11 17:56:58.710,4,-0.77,-1.26,0.69,-43.4904,197.70919999999998,128.9376,175,75
2026-05-11 17:56:58.724,4,-0.52,-1.49,0.96,-42.6904,167.0992,122.8476,175,75
2026-05-11 17:56:58.724,4,-0.51,-1.6,1.08,-40.7404,135.0292,114.85759999999999,175,75
2026-05-11 17:56:58.735,4,-0.43,-1.57,1.12,-33.4204,95.6392,104.3076,175,75
2026-05-11 17:56:58.735,4,-0.31,-1.4,1.16,-19.4004,58.319199999999995,93.2676,175,75
2026-05-11 17:56:58.750,4,-0.23,-1.17,1.25,-7.450400000000002,16.0692,77.35759999999999,175,75
2026-05-11 17:56:58.762,4,-0.13,-0.92,1.36,-3.3004,-28.9908,59.60759999999999,175,75
2026-05-11 17:56:58.767,4,-0.06,-0.69,1.42,-3.3004,-78.57079999999999,42.1076,175,75
2026-05-11 17:56:58.780,4,-0.09,-0.32,1.41,-9.160400000000001,-132.29080000000002,20.037599999999998,175,75
2026-05-11 17:56:58.793,4,-0.18,0.07,1.31,-9.830400000000001,-132.10080000000002,10.4076,175,75
2026-05-11 17:56:58.820,4,-0.42,0.49,1.07,22.979599999999998,28.4492,27.657599999999995,175,75
2026-05-11 17:56:58.827,4,-0.56,0.14,1.07,42.6096,126.7992,43.0276,175,75
2026-05-11 17:56:58.839,4,-0.59,-0.22,1.24,49.92959999999999,217.1692,60.88759999999999,175,75
2026-05-11 17:56:58.857,4,-0.44,-0.34,1.44,49.25959999999999,236.67919999999998,64.4876,175,75
2026-05-11 17:56:58.870,4,-0.41,-0.43,1.57,47.2496,198.9992,63.5176,175,75
2026-05-11 17:56:58.880,4,-0.43,-0.58,1.52,35.5396,136.36919999999998,52.8476,175,75
2026-05-11 17:56:58.884,4,-0.39,-0.8,1.34,21.879599999999996,76.5592,44.7376,175,75
2026-05-11 17:56:58.899,4,-0.51,-1.14,1.17,9.689599999999999,16.7392,45.587599999999995,175,75
2026-05-11 17:56:58.915,4,-0.55,-1.53,1.04,-11.290400000000002,-18.9308,53.2076,175,75
2026-05-11 17:56:58.915,4,-0.55,-1.59,0.88,-26.050400000000003,-29.2408,61.13759999999999,175,75
2026-05-11 17:56:58.928,4,-0.61,-1.33,0.59,-21.590400000000002,2.5292000000000003,78.8176,175,75
2026-05-11 17:56:58.941,4,-0.69,-1.22,0.44,-1.2904000000000018,63.749199999999995,99.6676,175,75
2026-05-11 17:56:58.960,4,-0.4,-1.29,0.55,12.249600000000001,152.4092,114.48759999999999,175,75
2026-05-11 17:56:58.973,4,-0.39,-1.73,0.74,11.269599999999997,152.5292,109.7976,175,75
2026-05-11 17:56:58.988,4,-0.46,-2.15,0.97,-0.8003999999999998,120.5192,111.49759999999999,175,75
2026-05-11 17:56:59.008,4,-0.31,-2.01,1.02,-14.220400000000001,65.39920000000001,107.8476,175,75
2026-05-11 17:56:59.008,4,-0.31,-1.77,0.86,-2.8804000000000016,13.8092,106.49759999999999,175,75
2026-05-11 17:56:59.042,4,-0.05,-1.35,0.99,20.5396,-62.10080000000001,98.8176,175,75
2026-05-11 17:56:59.054,4,0.09,-1.33,1.07,3.9496,-137.2208,70.88759999999999,175,75
2026-05-11 17:56:59.078,4,-0.12,-1.1,0.6,-8.610400000000002,-91.68079999999999,20.587599999999995,175,75
2026-05-11 17:56:59.096,4,-0.12,-0.88,0.62,8.099599999999999,48.929199999999994,18.517599999999995,175,75
2026-05-11 17:56:59.129,4,-0.0,-0.68,0.93,23.949599999999997,152.4092,17.7776,175,75
2026-05-11 17:56:59.139,4,0.05,-0.52,1.22,29.989599999999996,202.4692,14.547600000000001,175,75
2026-05-11 17:56:59.151,4,0.21,-0.15,1.78,37.8596,209.29919999999998,4.8576,175,75
2026-05-11 17:56:59.162,4,0.21,-0.16,1.92,41.6996,105.3392,-3.1324000000000005,175,75
2026-05-11 17:56:59.173,4,0.15,-0.18,1.83,36.6996,77.5292,-3.192400000000001,175,75
2026-05-11 17:56:59.183,4,0.14,-0.18,1.74,32.489599999999996,72.03920000000001,-0.4524000000000008,175,75
2026-05-11 17:56:59.183,4,0.12,-0.18,1.67,26.699599999999997,70.6392,1.687599999999998,175,75
2026-05-11 17:56:59.197,4,0.11,-0.16,1.64,21.029600000000002,75.6392,5.5876,175,75
2026-05-11 17:56:59.242,4,0.18,-0.09,1.56,16.449599999999997,82.95920000000001,11.1976,175,75
2026-05-11 17:56:59.253,4,0.0,-0.39,1.28,16.9396,73.56920000000001,3.147599999999999,175,75
2026-05-11 17:56:59.275,4,-0.25,-1.13,0.53,8.279599999999999,35.0892,-7.6424,175,75
2026-05-11 17:56:59.330,4,-0.82,-1.66,0.27,-53.180400000000006,-36.3108,13.5176,175,75
2026-05-11 17:56:59.343,4,-0.73,-1.08,0.16,-56.7804,-39.2408,25.767599999999995,175,75
2026-05-11 17:56:59.354,4,-0.95,-1.5,-0.12,-47.3304,-7.9608,50.1576,175,75
2026-05-11 17:56:59.354,4,-1.02,-1.79,-0.21,-72.0204,96.06920000000001,77.35759999999999,175,75
2026-05-11 17:56:59.367,4,-1.1,-1.94,0.05,-81.7204,239.9692,108.5176,175,75
2026-05-11 17:56:59.384,4,-1.02,-2.05,0.29,-78.3004,320.75919999999996,133.5176,175,75
2026-05-11 17:56:59.396,4,-0.46,-1.88,0.75,-59.7704,369.1192,149.9776,175,75
2026-05-11 17:56:59.407,4,-0.32,-1.71,0.97,-47.9404,352.5892,150.70759999999999,175,75
2026-05-11 17:56:59.426,4,0.32,-1.37,1.46,-45.5604,193.3892,123.38759999999999,175,75
2026-05-11 17:56:59.435,4,0.56,-1.13,1.54,-56.3504,73.0792,95.52759999999999,175,75
2026-05-11 17:56:59.445,4,0.56,-0.93,1.43,-60.8004,-20.8208,69.0676,175,75
2026-05-11 17:56:59.458,4,0.4,-0.75,1.15,-59.7704,-50.2708,53.577600000000004,175,75
2026-05-11 17:56:59.468,4,0.27,-0.59,0.89,-50.5604,-9.7208,51.4376,175,75
2026-05-11 17:56:59.483,4,0.19,-0.42,0.74,-40.9904,67.70920000000001,55.0376,175,75
2026-05-11 17:56:59.483,4,0.14,-0.27,0.7,-30.9904,165.08919999999998,61.13759999999999,175,75
2026-05-11 17:56:59.511,4,0.06,-0.36,1.19,-1.6604000000000028,409.4192,82.6576,175,75
2026-05-11 17:56:59.536,4,0.07,-0.53,1.5,-5.070400000000003,441.00919999999996,81.4376,175,75
2026-05-11 17:56:59.536,4,0.13,-0.65,1.86,-16.4704,422.1692,74.9176,175,75
2026-05-11 17:56:59.560,4,0.22,-0.65,2.08,-25.3804,359.6692,65.2176,175,75
2026-05-11 17:56:59.560,4,0.29,-0.65,2.21,-30.620400000000004,274.2392,55.1576,175,75
2026-05-11 17:56:59.573,4,0.33,-0.69,2.2,-29.520400000000002,163.9992,42.657599999999995,175,75
2026-05-11 17:56:59.583,4,0.27,-0.8,2.07,-27.8804,94.84920000000001,35.2776,175,75
2026-05-11 17:56:59.593,4,0.17,-0.9,1.88,-26.230400000000003,60.7592,33.3276,175,75
2026-05-11 17:56:59.604,4,0.14,-0.92,1.75,-22.570400000000003,65.5192,38.087599999999995,175,75
2026-05-11 17:56:59.640,4,0.18,-0.89,1.67,-14.400400000000001,87.28920000000001,45.0976,175,75
2026-05-11 17:56:59.650,4,0.3,-0.86,1.64,-5.130400000000002,109.1192,50.827600000000004,175,75
2026-05-11 17:56:59.662,4,0.7,-0.84,1.49,2.429599999999997,119.9092,32.657599999999995,175,75
2026-05-11 17:56:59.672,4,0.84,-0.84,1.35,-3.9704000000000015,110.0892,13.8176,175,75
2026-05-11 17:56:59.674,4,0.94,-0.93,1.2,-17.3904,103.4492,-3.442400000000001,175,75
2026-05-11 17:56:59.689,4,0.99,-1.07,1.06,-34.5204,105.7592,-16.7924,175,75
2026-05-11 17:56:59.710,4,0.94,-1.19,1.05,-50.5604,110.2792,-21.0024,175,75
2026-05-11 17:56:59.724,4,1.02,-1.31,1.07,-57.8804,107.1692,-17.2224,175,75
2026-05-11 17:56:59.724,4,1.07,-1.47,1.11,-63.8504,87.5292,-14.9024,175,75
2026-05-11 17:56:59.736,4,1.08,-1.49,1.16,-66.5904,78.0192,-11.4824,175,75
2026-05-11 17:56:59.752,4,1.11,-1.35,1.22,-65.9204,73.6892,-7.4024,175,75
2026-05-11 17:56:59.763,4,1.18,-1.26,1.25,-58.1804,72.34920000000001,-7.8324,175,75
2026-05-11 17:56:59.776,4,1.1,-1.3,1.24,-48.3604,68.0192,-14.9024,175,75
2026-05-11 17:56:59.782,4,0.98,-1.28,1.24,-39.8904,66.9192,-17.8324,175,75
2026-05-11 17:56:59.794,4,0.79,-1.25,1.29,-27.9404,81.9192,-12.7624,175,75
2026-05-11 17:56:59.827,4,0.65,-1.23,1.8,15.169599999999996,98.1992,36.9276,175,75
2026-05-11 17:56:59.843,4,0.65,-0.97,1.89,29.3196,-11.4308,36.4976,175,75
2026-05-11 17:56:59.853,4,0.5,-0.81,1.84,29.9296,-50.460800000000006,31.4976,175,75
2026-05-11 17:56:59.864,4,0.44,-0.54,1.81,26.209600000000002,-69.85079999999999,31.9876,175,75
2026-05-11 17:56:59.879,4,0.57,-0.04,1.6,21.3296,-95.40079999999999,24.3076,175,75
2026-05-11 17:56:59.895,4,0.51,0.15,1.36,29.0796,-76.1308,14.4276,175,75
2026-05-11 17:56:59.904,4,0.46,0.13,1.13,43.709599999999995,-23.0208,7.417599999999998,175,75
2026-05-11 17:56:59.927,4,0.39,-0.4,1.11,40.8396,98.0792,1.6275999999999993,175,75
2026-05-11 17:56:59.947,4,0.27,-0.59,1.26,-3.240400000000001,48.07919999999999,-16.0624,175,75
2026-05-11 17:56:59.961,4,0.47,-0.52,1.13,-32.8804,11.6792,-8.3124,175,75
2026-05-11 17:56:59.978,4,0.84,-0.4,0.92,-54.400400000000005,1.4291999999999996,1.3176000000000005,175,75
2026-05-11 17:56:59.987,4,1.13,-0.52,0.79,-62.1404,0.6392,-3.0124000000000013,175,75
2026-05-11 17:56:59.997,4,1.18,-0.76,0.79,-77.0804,-3.9308000000000005,-18.3724,175,75
2026-05-11 17:57:00.010,4,1.11,-0.93,0.85,-95.74040000000001,2.8392,-29.9024,175,75
2026-05-11 17:57:00.010,4,1.11,-1.06,0.95,-107.9404,13.1392,-34.5924,175,75
2026-05-11 17:57:00.024,4,1.11,-1.29,1.07,-114.7004,16.5592,-40.1424,175,75
2026-05-11 17:57:00.039,4,1.17,-1.38,1.13,-106.9604,20.3392,-41.9724,175,75
2026-05-11 17:57:00.050,4,1.16,-1.38,1.17,-95.74040000000001,19.2392,-42.6424,175,75
2026-05-11 17:57:00.054,4,1.14,-1.33,1.19,-80.5004,28.0192,-36.4224,175,75
2026-05-11 17:57:00.070,4,1.09,-1.33,1.19,-57.330400000000004,38.999199999999995,-28.5024,175,75
2026-05-11 17:57:00.076,4,0.93,-1.5,1.18,-35.6804,63.3192,-16.9124,175,75
2026-05-11 17:57:00.100,4,0.55,-1.89,1.43,-13.4204,117.4092,38.1476,175,75
2026-05-11 17:57:00.142,4,0.94,-1.58,1.74,-22.3304,9.4792,76.13759999999999,175,75
2026-05-11 17:57:00.152,4,0.8,-1.46,1.49,-13.120400000000002,16.8592,80.3476,175,75
2026-05-11 17:57:00.153,4,0.65,-1.39,1.33,-5.130400000000002,50.5192,86.49759999999999,175,75
2026-05-11 17:57:00.163,4,0.45,-1.27,1.23,3.9496,113.2592,101.2576,175,75
2026-05-11 17:57:00.172,4,0.17,-1.1,1.24,14.749600000000001,203.5692,128.5176,175,75
2026-05-11 17:57:00.183,4,0.23,-0.96,1.38,22.059599999999996,286.2492,156.2576,175,75
2026-05-11 17:57:00.199,4,0.26,-0.86,1.67,18.159599999999998,307.5892,171.3176,175,75
2026-05-11 17:57:00.219,4,0.62,-0.69,2.03,8.0396,279.7892,170.0376,175,75
2026-05-11 17:57:00.219,4,0.79,-0.54,2.25,-7.080400000000001,185.08919999999998,143.8776,175,75
2026-05-11 17:57:00.234,4,0.71,-0.42,2.28,-15.6204,87.03920000000001,114.9176,175,75
2026-05-11 17:57:00.266,4,0.72,-0.33,2.19,-18.910400000000003,21.4992,94.7976,175,75
2026-05-11 17:57:00.330,4,0.69,-0.26,2.06,-18.9704,-34.9108,71.4376,175,75
2026-05-11 17:57:00.349,4,0.56,-0.23,1.7,8.769599999999997,-18.8708,32.297599999999996,175,75
2026-05-11 17:57:00.359,4,0.64,-0.19,1.75,17.1196,17.2292,9.667599999999998,175,75
2026-05-11 17:57:00.371,4,0.62,-0.09,1.76,14.689599999999999,27.4692,2.297600000000001,175,75
2026-05-11 17:57:00.378,4,0.72,-0.04,1.74,3.4095999999999975,42.289199999999994,-5.3924,175,75
2026-05-11 17:57:00.390,4,0.74,-0.2,1.74,-1.5904000000000025,47.4092,-12.092400000000001,175,75
2026-05-11 17:57:00.390,4,0.75,-0.39,1.73,-8.0004,50.6992,-20.0224,175,75
2026-05-11 17:57:00.403,4,0.73,-0.63,1.77,-18.2404,51.7992,-33.8624,175,75
2026-05-11 17:57:00.403,4,0.66,-0.85,1.82,-23.610400000000002,44.7292,-41.2424,175,75
2026-05-11 17:57:00.414,4,0.78,-1.03,1.81,-24.2804,34.4792,-38.132400000000004,175,75
2026-05-11 17:57:00.414,4,0.74,-1.31,1.73,-19.520400000000002,11.1892,-39.0424,175,75
2026-05-11 17:57:00.425,4,0.64,-1.71,1.59,-14.2804,-14.8508,-35.2024,175,75
2026-05-11 17:57:00.442,4,0.63,-1.93,1.51,-36.7804,-54.3008,-13.682400000000001,175,75
2026-05-11 17:57:00.455,4,0.65,-1.71,1.52,-53.6704,-67.1608,0.1576000000000004,175,75
2026-05-11 17:57:00.484,4,0.87,-1.17,1.36,-56.7804,-106.0008,51.0176,175,75
2026-05-11 17:57:00.497,4,0.84,-1.72,1.14,-46.2304,-93.1408,72.9076,175,75
2026-05-11 17:57:00.503,4,0.91,-2.0,1.09,-45.3804,-68.4408,85.9576,175,75
2026-05-11 17:57:00.569,4,1.27,-2.22,1.2,-43.7304,-19.1808,98.8776,175,75
2026-05-11 17:57:00.569,4,1.4,-1.94,1.23,-31.230400000000003,-17.5308,93.5176,175,75
2026-05-11 17:57:00.580,4,1.46,-1.69,1.23,-15.6204,-8.5008,92.4776,175,75
2026-05-11 17:57:00.591,4,1.42,-1.57,1.26,0.9095999999999975,25.8192,92.77759999999999,175,75
2026-05-11 17:57:00.592,4,1.36,-1.54,1.62,1.2095999999999982,96.06920000000001,89.4276,175,75
2026-05-11 17:57:00.605,4,1.37,-1.38,1.96,-6.290400000000002,82.28920000000001,74.60759999999999,175,75
2026-05-11 17:57:00.616,4,1.32,-0.97,2.34,-8.550400000000002,-13.8108,42.297599999999996,175,75
2026-05-11 17:57:00.631,4,1.22,-0.77,2.38,-2.7504000000000026,-89.7208,19.2476,175,75
2026-05-11 17:57:00.640,4,1.05,-0.7,2.28,5.9696,-132.9008,6.867599999999998,175,75
2026-05-11 17:57:00.644,4,0.93,-0.85,2.07,18.0396,-166.4308,-5.1424,175,75
2026-05-11 17:57:00.653,4,0.83,-0.99,1.89,20.299599999999998,-178.38080000000002,-13.192400000000001,175,75
2026-05-11 17:57:00.680,4,0.71,-0.73,1.71,14.319600000000001,-165.76080000000002,-23.0124,175,75
2026-05-11 17:57:00.695,4,0.69,-0.52,1.64,13.279600000000002,-143.8108,-23.1924,175,75
2026-05-11 17:57:00.695,4,0.68,-0.37,1.54,13.6496,-108.32079999999999,-19.9024,175,75
2026-05-11 17:57:00.707,4,0.67,-0.31,1.46,15.599599999999995,-75.5208,-18.1924,175,75
2026-05-11 17:57:00.731,4,0.6,-0.38,1.35,20.9696,47.5892,-17.0324,175,75
2026-05-11 17:57:00.742,4,0.61,-0.4,1.4,18.099599999999995,88.8092,-18.8624,175,75
2026-05-11 17:57:00.754,4,0.72,-0.36,1.51,12.249600000000001,120.2792,-21.7324,175,75
2026-05-11 17:57:00.758,4,0.82,-0.31,1.58,11.509599999999999,126.9192,-30.142400000000002,175,75
2026-05-11 17:57:00.774,4,0.91,-0.39,1.59,11.699599999999997,120.7592,-40.812400000000004,175,75
2026-05-11 17:57:00.786,4,0.9,-0.72,1.49,13.949599999999997,114.53920000000001,-55.0824,175,75
2026-05-11 17:57:00.797,4,0.82,-1.13,1.41,16.029600000000002,122.4692,-62.6424,175,75
2026-05-11 17:57:00.809,4,0.79,-1.56,1.41,12.919599999999996,133.92919999999998,-62.0324,175,75
2026-05-11 17:57:00.840,4,0.96,-1.91,1.79,-22.0804,58.139199999999995,-62.0324,175,75
2026-05-11 17:57:00.854,4,1.14,-1.36,1.69,-34.9504,-62.8308,-68.9824,175,75
2026-05-11 17:57:00.870,4,1.1,-1.31,1.43,-33.4204,-82.04079999999999,-67.9524,175,75
2026-05-11 17:57:00.899,4,0.62,-1.61,1.41,-38.9704,17.7792,-40.6924,175,75
2026-05-11 17:57:00.942,4,0.67,-1.46,1.86,-28.4204,-45.2708,-0.5124000000000013,175,75
2026-05-11 17:57:00.949,4,0.71,-1.21,1.89,-10.070400000000001,-121.0008,12.417599999999998,175,75
2026-05-11 17:57:00.972,4,0.63,-0.9,1.55,17.2496,-201.7408,8.027599999999998,175,75
2026-05-11 17:57:00.984,4,0.57,-0.82,1.46,23.279600000000002,-193.8708,3.207600000000001,175,75
2026-05-11 17:57:00.984,4,0.49,-0.69,1.47,26.3896,-168.26080000000002,0.5876000000000001,175,75
2026-05-11 17:57:00.997,4,0.41,-0.47,1.57,27.549599999999998,-135.2108,0.7076000000000011,175,75
2026-05-11 17:57:01.037,4,0.19,-0.05,1.28,43.099599999999995,-68.6908,-23.3724,175,75
2026-05-11 17:57:01.078,4,0.41,-0.22,2.1,-11.900400000000001,-140.4008,-37.0924,175,75
2026-05-11 17:57:01.094,4,0.58,-0.39,2.02,-34.400400000000005,-297.5908,-49.1724,175,75
2026-05-11 17:57:01.116,4,0.64,-0.78,1.09,-58.1804,-521.1908,-65.5124,175,75
2026-05-11 17:57:01.140,4,0.33,-1.07,-0.01,-83.3604,-394.6008,-29.412399999999998,175,75
2026-05-11 17:57:01.153,4,0.3,-1.35,-0.29,-90.1904,-235.2108,-2.032400000000001,175,75
2026-05-11 17:57:01.184,4,0.82,-1.72,0.53,-72.1404,305.1492,33.697599999999994,175,75
2026-05-11 17:57:01.199,4,0.72,-1.93,0.9,-72.4504,341.00919999999996,29.6676,175,75
2026-05-11 17:57:01.210,4,0.63,-2.22,1.16,-67.2004,349.4792,37.657599999999995,175,75
2026-05-11 17:57:01.221,4,0.74,-2.48,1.45,-52.8104,319.5992,48.8776,175,75
2026-05-11 17:57:01.239,4,0.94,-2.47,1.75,-45.1304,211.8592,48.2076,175,75
2026-05-11 17:57:01.247,4,1.06,-2.19,1.85,-51.9604,106.4992,39.977599999999995,175,75
2026-05-11 17:57:01.279,4,0.75,-1.28,1.29,-34.8304,-80.46079999999999,31.197599999999994,175,75
2026-05-11 17:57:01.299,4,0.43,-1.11,1.07,-8.0004,8.1392,40.2776,175,75
2026-05-11 17:57:01.308,4,0.43,-0.96,1.21,3.7095999999999982,60.639199999999995,46.017599999999995,175,75
2026-05-11 17:57:01.330,4,0.52,-0.51,1.62,17.489599999999996,58.6892,40.8876,175,75
2026-05-11 17:57:01.371,4,0.49,0.14,1.69,37.669599999999996,-90.5808,5.037599999999999,175,75
2026-05-11 17:57:01.390,4,0.29,0.09,1.32,45.3596,-67.90079999999999,-5.5724,175,75
2026-05-11 17:57:01.401,4,0.21,-0.08,1.22,41.9396,-15.2708,-3.192400000000001,175,75
2026-05-11 17:57:01.413,4,0.2,-0.2,1.22,31.5796,43.139199999999995,-1.0624000000000002,175,75
2026-05-11 17:57:01.418,4,0.21,-0.2,1.31,18.409599999999998,88.31920000000001,-0.022400000000001086,175,75
2026-05-11 17:57:01.457,4,0.23,-0.12,1.46,-17.3904,123.31920000000001,3.937599999999998,175,75
2026-05-11 17:57:01.457,4,0.26,-0.12,1.45,-32.4504,138.80919999999998,8.577599999999999,175,75
2026-05-11 17:57:01.480,4,0.29,-0.23,1.43,-45.010400000000004,164.23919999999998,13.457600000000001,175,75
2026-05-11 17:57:01.491,4,0.38,-0.39,1.45,-49.0304,190.0292,18.4576,175,75
2026-05-11 17:57:01.509,4,0.71,-0.79,1.53,-61.0504,173.1992,-4.352400000000001,175,75
2026-05-11 17:57:01.521,4,0.73,-1.08,1.54,-67.88040000000001,153.5092,-16.7924,175,75
2026-05-11 17:57:01.537,4,0.7,-1.51,1.62,-70.9904,106.9192,-23.5024,175,75
2026-05-11 17:57:01.549,4,0.68,-1.5,1.76,-66.9004,63.2592,-18.9224,175,75
2026-05-11 17:57:01.572,4,0.9,-0.95,1.79,-49.4604,-102.4708,-6.182400000000001,175,75
2026-05-11 17:57:01.588,4,0.86,-1.09,1.49,-24.340400000000002,-169.0508,3.5775999999999986,175,75
2026-05-11 17:57:01.599,4,0.74,-1.47,1.22,-6.840400000000001,-194.85080000000002,13.147599999999999,175,75
2026-05-11 17:57:01.610,4,0.64,-1.77,1.09,-1.4704000000000015,-187.29080000000002,29.797599999999996,175,75
2026-05-11 17:57:01.645,4,1.12,-1.65,1.1,53.589600000000004,-204.4208,53.1476,175,75
2026-05-11 17:57:01.659,4,1.19,-1.43,0.88,84.9296,-227.2208,39.547599999999996,175,75
2026-05-11 17:57:01.665,4,1.13,-1.23,0.55,111.0896,-186.6108,29.6676,175,75
2026-05-11 17:57:01.679,4,0.97,-1.13,0.38,124.3196,-105.6408,27.107599999999998,175,75
2026-05-11 17:57:01.687,4,0.8,-0.99,0.41,128.88959999999997,43.2592,34.4276,175,75
2026-05-11 17:57:01.702,4,0.76,-0.85,0.62,124.3796,149.5992,46.017599999999995,175,75
2026-05-11 17:57:01.733,4,0.73,-1.07,1.22,103.64959999999999,227.64919999999998,63.1476,175,75
2026-05-11 17:57:01.733,4,0.85,-1.17,1.43,86.2696,206.2492,66.6276,175,75
2026-05-11 17:57:01.803,4,0.79,-0.63,1.57,36.3896,26.9192,36.4976,175,75
2026-05-11 17:57:01.814,4,0.69,-0.69,1.54,32.919599999999996,15.699200000000001,27.107599999999998,175,75
2026-05-11 17:57:01.814,4,0.64,-0.75,1.6,26.449599999999997,13.4492,15.0376,175,75
2026-05-11 17:57:01.824,4,0.64,-0.73,1.69,22.2496,-11.5508,-1.0023999999999997,175,75
2026-05-11 17:57:01.834,4,0.66,-0.69,1.74,17.6096,-44.4808,-15.8724,175,75
2026-05-11 17:57:01.845,4,0.57,-0.55,1.51,1.0895999999999972,-100.0308,-42.8324,175,75
2026-05-11 17:57:01.863,4,0.49,-0.35,1.21,-17.5704,-52.8308,-43.3724,175,75
2026-05-11 17:57:01.873,4,0.46,-0.28,1.14,-24.8904,2.4692,-36.3624,175,75
2026-05-11 17:57:01.885,4,0.49,-0.3,1.14,-31.4704,76.6192,-26.0624,175,75
2026-05-11 17:57:01.885,4,0.6,-0.47,1.24,-35.6804,140.8892,-17.9524,175,75
2026-05-11 17:57:01.898,4,0.75,-0.66,1.29,-36.1104,165.45919999999998,-15.7524,175,75
2026-05-11 17:57:01.909,4,0.87,-0.97,1.28,-35.0704,174.7892,-20.142400000000002,175,75
2026-05-11 17:57:01.922,4,0.87,-1.29,1.23,-31.5304,185.0292,-22.462400000000002,175,75
2026-05-11 17:57:01.936,4,0.81,-1.5,1.3,-26.5304,215.20919999999998,-14.5324,175,75
2026-05-11 17:57:01.936,4,0.91,-1.55,1.48,-22.1404,228.6892,-7.1524,175,75
2026-05-11 17:57:01.956,4,1.14,-1.44,1.84,-17.3904,190.5792,-8.252400000000002,175,75
2026-05-11 17:57:01.979,4,1.19,-1.51,1.84,3.5895999999999972,-19.4808,-48.2524,175,75
2026-05-11 17:57:01.989,4,0.89,-1.61,1.63,3.6495999999999995,-58.2608,-51.302400000000006,175,75
2026-05-11 17:57:02.003,4,0.76,-1.61,1.54,-1.7204000000000015,-60.390800000000006,-40.2624,175,75
2026-05-11 17:57:02.014,4,0.7,-1.65,1.56,0.04959999999999809,-66.8608,-19.962400000000002,175,75
2026-05-11 17:57:02.026,4,0.77,-1.68,1.57,3.769599999999997,-101.9808,-0.7523999999999997,175,75
2026-05-11 17:57:02.048,4,0.82,-1.51,1.33,15.3596,-160.4008,19.6676,175,75
2026-05-11 17:57:02.057,4,0.77,-1.35,1.22,20.5396,-156.7408,18.937599999999996,175,75
2026-05-11 17:57:02.079,4,0.57,-1.03,1.27,26.3896,-95.0308,15.2176,175,75
2026-05-11 17:57:02.116,4,0.59,-0.27,1.65,20.049599999999998,-86.9208,0.8876000000000008,175,75
2026-05-11 17:57:02.123,4,0.61,-0.04,1.53,20.299599999999998,-119.6608,-8.0124,175,75
2026-05-11 17:57:02.140,4,0.47,0.11,1.34,21.3896,-129.6008,-15.4524,175,75
2026-05-11 17:57:02.150,4,0.16,0.2,1.2,18.949599999999997,-84.79079999999999,-17.462400000000002,175,75
2026-05-11 17:57:02.154,4,-0.05,0.21,1.1,21.3896,49.609199999999994,-4.292400000000001,175,75
2026-05-11 17:57:02.167,4,-0.15,0.07,1.19,16.3296,162.3492,5.467599999999999,175,75
2026-05-11 17:57:02.196,4,-0.1,-0.2,1.64,-6.0504,251.67919999999998,17.907599999999995,175,75
2026-05-11 17:57:02.196,4,0.1,-0.12,2.0,-21.4704,200.20919999999998,18.267599999999995,175,75
2026-05-11 17:57:02.207,4,0.3,-0.07,2.13,-26.5304,122.28920000000001,18.0276,175,75
2026-05-11 17:57:02.234,4,0.55,-0.26,2.09,-21.590400000000002,10.2092,18.147599999999997,175,75
2026-05-11 17:57:02.234,4,0.79,-0.66,1.8,-17.8104,-95.15079999999999,20.7076,175,75
2026-05-11 17:57:02.243,4,1.02,-1.07,1.44,-25.6204,-152.8308,7.777599999999998,175,75
2026-05-11 17:57:02.271,4,1.2,-1.37,1.05,-40.9204,-166.6808,-17.3424,175,75
2026-05-11 17:57:02.271,4,1.08,-1.43,0.82,-58.6104,-132.7708,-31.0624,175,75
2026-05-11 17:57:02.283,4,0.88,-1.43,0.68,-64.3404,-30.5208,-24.412399999999998,175,75
2026-05-11 17:57:02.296,4,0.94,-1.61,0.8,-56.1104,111.4992,3.387600000000001,175,75
2026-05-11 17:57:02.296,4,1.19,-1.83,1.05,-56.1104,154.5992,7.1076,175,75
2026-05-11 17:57:02.322,4,1.45,-1.99,1.31,-56.6604,133.6292,-11.182400000000001,175,75
2026-05-11 17:57:02.352,4,1.38,-2.21,1.49,-48.300399999999996,58.8692,-33.6224,175,75
2026-05-11 17:57:02.373,4,0.97,-2.5,1.56,-48.300399999999996,-75.0308,-31.9724,175,75
2026-05-11 17:57:02.373,4,0.92,-2.53,1.53,-49.4604,-117.7708,-26.0024,175,75
2026-05-11 17:57:02.388,4,0.88,-2.13,1.21,-39.0904,-202.8308,-4.172400000000001,175,75
2026-05-11 17:57:02.413,4,0.8,-1.59,0.98,-23.000400000000003,-103.9908,20.157599999999995,175,75
2026-05-11 17:57:02.413,4,0.58,-1.41,0.98,-8.550400000000002,-8.3808,36.017599999999995,175,75
2026-05-11 17:57:02.423,4,0.48,-1.17,1.08,8.279599999999999,75.7592,56.807599999999994,175,75
2026-05-11 17:57:02.459,4,0.49,-0.93,1.23,25.1096,138.6292,71.3776,175,75
2026-05-11 17:57:02.467,4,0.73,-0.53,1.6,49.4396,164.7892,55.217600000000004,175,75
2026-05-11 17:57:02.475,4,0.7,-0.32,1.66,55.9696,148.1992,43.8776,175,75
2026-05-11 17:57:02.511,4,0.4,-0.16,1.66,73.4696,133.5692,19.9176,175,75
2026-05-11 17:57:02.511,4,0.32,-0.18,1.73,78.4696,133.0792,18.327599999999997,175,75
2026-05-11 17:57:02.527,4,0.32,-0.21,1.84,86.5796,111.0092,13.457600000000001,175,75
2026-05-11 17:57:02.541,4,0.33,-0.25,1.91,90.7796,73.8692,4.797600000000001,175,75
2026-05-11 17:57:02.541,4,0.26,-0.27,1.99,90.7196,23.4492,-9.3524,175,75
2026-05-11 17:57:02.552,4,0.19,-0.26,2.03,86.2096,-28.2008,-22.642400000000002,175,75
2026-05-11 17:57:02.570,4,0.2,-0.23,2.01,77.2496,-85.0908,-33.4424,175,75
2026-05-11 17:57:02.580,4,0.22,-0.21,1.83,61.9996,-145.76080000000002,-44.0424,175,75
2026-05-11 17:57:02.591,4,0.22,-0.17,1.61,37.1896,-193.8708,-48.0124,175,75
2026-05-11 17:57:02.601,4,0.1,-0.08,1.37,6.1495999999999995,-206.8608,-45.5724,175,75
2026-05-11 17:57:02.613,4,0.09,0.06,1.1,-33.9104,-145.76080000000002,-25.8724,175,75
2026-05-11 17:57:02.617,4,0.17,0.07,0.93,-57.330400000000004,-48.2008,-3.3124000000000002,175,75
2026-05-11 17:57:02.627,4,0.37,-0.18,0.87,-59.7704,97.70920000000001,26.437599999999996,175,75
2026-05-11 17:57:02.646,4,0.76,-0.46,0.95,-59.7704,190.6992,36.8076,175,75
2026-05-11 17:57:02.646,4,0.92,-0.9,1.18,-65.68039999999999,239.7292,12.237599999999999,175,75
2026-05-11 17:57:02.662,4,1.01,-1.19,1.49,-64.5804,270.6392,-3.7424,175,75
2026-05-11 17:57:02.673,4,1.06,-1.39,1.91,-42.9404,254.4192,-15.3324,175,75
2026-05-11 17:57:02.684,4,1.24,-1.47,2.18,-22.6304,200.45919999999998,-19.9024,175,75
2026-05-11 17:57:02.712,4,1.35,-1.62,1.78,21.5096,-113.7508,-53.4324,175,75
2026-05-11 17:57:02.738,4,0.9,-1.75,1.1,22.979599999999998,-109.79079999999999,-39.5324,175,75
2026-05-11 17:57:02.800,4,0.82,-1.91,1.13,17.729599999999998,-56.860800000000005,-6.4824,175,75
2026-05-11 17:57:02.813,4,0.9,-2.07,1.36,12.919599999999996,-47.4108,13.027599999999998,175,75
2026-05-11 17:57:02.813,4,0.99,-2.24,1.62,3.5295999999999985,-103.93079999999999,22.047599999999996,175,75
2026-05-11 17:57:02.823,4,1.13,-2.21,1.68,-7.450400000000002,-183.8108,17.907599999999995,175,75
2026-05-11 17:57:02.824,4,1.35,-1.95,1.51,-13.610400000000002,-276.68080000000003,-2.0924000000000014,175,75
2026-05-11 17:57:02.839,4,1.26,-1.66,1.14,-6.900400000000001,-315.7608,-17.0324,175,75
2026-05-11 17:57:02.850,4,0.99,-1.45,0.76,12.489599999999996,-254.0508,-8.682400000000001,175,75
2026-05-11 17:57:02.855,4,0.68,-1.24,0.74,31.209600000000002,60.9492,41.867599999999996,175,75
2026-05-11 17:57:02.872,4,0.83,-1.01,1.39,17.3696,150.2792,51.6276,175,75
2026-05-11 17:57:02.882,4,0.89,-0.87,1.66,11.999600000000001,124.53920000000001,44.547599999999996,175,75
2026-05-11 17:57:02.906,4,0.75,-0.77,1.8,10.169599999999996,66.5592,32.5976,175,75
2026-05-11 17:57:02.906,4,0.53,-0.79,1.82,11.999600000000001,33.929199999999994,31.077599999999997,175,75
2026-05-11 17:57:02.918,4,0.3,-0.82,1.86,13.889600000000002,10.6992,33.697599999999994,175,75
2026-05-11 17:57:02.929,4,0.22,-0.78,2.06,12.189599999999999,-3.0208000000000004,36.5676,175,75
2026-05-11 17:57:02.973,4,0.34,-0.37,2.27,5.9696,-199.2408,4.4276,175,75
2026-05-11 17:57:03.015,4,0.37,-0.04,1.8,12.729599999999998,-320.5808,-31.7924,175,75
2026-05-11 17:57:03.015,4,0.28,0.06,1.59,15.299599999999998,-311.80080000000004,-33.7424,175,75
2026-05-11 17:57:03.015,4,0.22,0.05,1.32,34.989599999999996,-253.1408,-24.412399999999998,175,75
2026-05-11 17:57:03.027,4,0.29,-0.13,1.19,47.489599999999996,-183.0208,-12.0324,175,75
2026-05-11 17:57:03.038,4,0.43,-0.38,1.14,38.0396,-137.5908,-9.2924,175,75
2026-05-11 17:57:03.052,4,0.56,-0.59,1.05,6.209599999999998,-107.8308,-9.842400000000001,175,75
2026-05-11 17:57:03.052,4,0.67,-0.73,0.86,-19.8904,-77.5308,-8.252400000000002,175,75
2026-05-11 17:57:03.052,4,0.82,-0.83,0.66,-32.7504,-48.320800000000006,-7.5824,175,75
2026-05-11 17:57:03.116,4,0.92,-0.89,0.41,-48.790400000000005,-6.4308,-13.502400000000002,175,75
2026-05-11 17:57:03.141,4,0.58,-1.37,0.28,-86.1704,236.9792,-3.6824000000000012,175,75
2026-05-11 17:57:03.156,4,1.04,-1.37,1.56,-53.6104,126.6792,-36.3624,175,75
2026-05-11 17:57:03.162,4,0.69,-1.65,1.51,-42.4504,41.3092,-37.0324,175,75
2026-05-11 17:57:03.188,4,0.46,-1.71,1.52,-39.7704,-7.2208,-28.0124,175,75
2026-05-11 17:57:03.209,4,0.48,-1.45,1.68,-21.410400000000003,-164.1108,-3.442400000000001,175,75
2026-05-11 17:57:03.209,4,0.56,-1.33,1.66,-5.6204,-243.26080000000002,-6.122400000000001,175,75
2026-05-11 17:57:03.221,4,0.52,-1.26,1.56,11.509599999999999,-310.8208,-11.0624,175,75
2026-05-11 17:57:03.221,4,0.39,-1.2,1.42,24.559599999999996,-337.4708,-15.7524,175,75
2026-05-11 17:57:03.245,4,0.15,-0.7,1.1,49.5596,-261.49080000000004,-9.5324,175,75
2026-05-11 17:57:03.256,4,0.18,-0.33,1.0,51.209599999999995,-199.4208,-4.2324,175,75
2026-05-11 17:57:03.302,4,0.24,0.11,0.87,49.0796,-119.2408,-1.1224000000000007,175,75
2026-05-11 17:57:03.302,4,0.28,0.33,0.74,51.209599999999995,-37.7708,-3.2523999999999997,175,75
2026-05-11 17:57:03.323,4,0.15,0.15,0.58,55.1096,90.6992,1.3775999999999993,175,75
2026-05-11 17:57:03.325,4,-0.0,-0.29,0.57,52.7996,237.4092,19.977599999999995,175,75
2026-05-11 17:57:03.338,4,-0.01,-0.45,0.74,36.5096,369.7292,41.9276,175,75
2026-05-11 17:57:03.338,4,0.12,-0.34,0.98,14.139600000000002,442.7792,52.6576,175,75
2026-05-11 17:57:03.359,4,0.63,-0.42,1.51,-57.7504,402.4692,36.5676,175,75
2026-05-11 17:57:03.359,4,0.73,-0.63,1.62,-77.8104,351.3092,29.547599999999996,175,75
2026-05-11 17:57:03.369,4,0.87,-0.89,1.68,-92.4504,279.7292,17.2376,175,75
2026-05-11 17:57:03.375,4,0.99,-1.19,1.77,-110.5604,174.3592,-9.1724,175,75
2026-05-11 17:57:03.390,4,0.94,-1.47,1.83,-128.91039999999998,55.889199999999995,-43.1924,175,75
2026-05-11 17:57:03.425,4,0.82,-1.86,1.81,-146.66039999999998,-137.5308,-78.3124,175,75
2026-05-11 17:57:03.425,4,0.76,-2.04,1.74,-145.62040000000002,-241.4908,-96.4224,175,75
2026-05-11 17:57:03.437,4,0.67,-1.88,1.65,-141.72039999999998,-333.0808,-105.5124,175,75
2026-05-11 17:57:03.449,4,0.63,-1.48,1.41,-130.5004,-398.2608,-111.4824,175,75
2026-05-11 17:57:03.488,4,0.38,-1.8,0.7,-86.1104,-416.68080000000003,-82.0324,175,75
2026-05-11 17:57:03.532,4,0.27,-2.08,0.48,-73.0604,-345.5808,-48.2524,175,75
2026-05-11 17:57:03.532,4,0.26,-2.16,0.34,-62.330400000000004,-207.7108,-1.1224000000000007,175,75
2026-05-11 17:57:03.543,4,0.53,-1.43,0.4,-28.9704,49.179199999999994,73.2676,175,75
2026-05-11 17:57:03.554,4,0.78,-1.17,0.81,27.4296,239.9692,104.3676,175,75
2026-05-11 17:57:03.564,4,0.79,-1.14,1.39,39.1396,295.94919999999996,95.0976,175,75
2026-05-11 17:57:03.575,4,0.75,-1.04,1.66,45.6596,271.06919999999997,85.9576,175,75
2026-05-11 17:57:03.575,4,0.75,-0.85,1.86,55.4196,215.33919999999998,76.13759999999999,175,75
2026-05-11 17:57:03.635,4,0.73,-0.66,1.98,66.9396,143.6892,62.10759999999999,175,75
2026-05-11 17:57:03.635,4,0.68,-0.48,2.07,78.7096,83.6292,49.1276,175,75
2026-05-11 17:57:03.646,4,0.62,-0.32,2.13,89.3196,28.1992,35.5276,175,75
2026-05-11 17:57:03.658,4,0.55,-0.12,2.01,103.4096,-89.4208,2.9076000000000004,175,75
2026-05-11 17:57:03.687,4,0.07,0.02,1.05,56.819599999999994,-24.0508,-22.892400000000002,175,75
2026-05-11 17:57:03.707,4,0.0,0.08,1.04,18.949599999999997,144.7892,6.0176,175,75
2026-05-11 17:57:03.720,4,0.06,0.0,1.17,3.8295999999999992,209.05919999999998,18.937599999999996,175,75
2026-05-11 17:57:03.753,4,0.52,-0.39,1.62,-33.4204,193.1992,26.3176,175,75
2026-05-11 17:57:03.765,4,0.76,-0.68,1.65,-44.5804,121.2492,6.7476,175,75
2026-05-11 17:57:03.776,4,0.84,-0.95,1.54,-56.4104,56.499199999999995,-15.512400000000001,175,75
2026-05-11 17:57:03.786,4,0.86,-1.12,1.43,-63.1804,24.7892,-27.3424,175,75
2026-05-11 17:57:03.797,4,0.88,-1.29,1.35,-68.6104,16.3092,-29.2324,175,75
2026-05-11 17:57:03.820,4,1.08,-1.39,1.36,-65.68039999999999,-13.8108,-26.3024,175,75
2026-05-11 17:57:03.863,4,1.07,-1.56,0.97,-19.700400000000002,-54.360800000000005,-23.2524,175,75
2026-05-11 17:57:03.868,4,0.92,-1.79,0.8,-3.730400000000003,-29.1808,-14.352400000000001,175,75
2026-05-11 17:57:03.880,4,0.8,-1.97,0.72,11.269599999999997,20.1492,2.2375999999999987,175,75
2026-05-11 17:57:03.910,4,0.77,-2.18,0.81,33.0396,85.14920000000001,29.9176,175,75
2026-05-11 17:57:03.939,4,0.87,-2.19,1.06,51.9996,92.4692,49.24759999999999,175,75
2026-05-11 17:57:03.949,4,1.01,-1.95,1.23,59.6896,61.0092,53.8776,175,75
2026-05-11 17:57:03.961,4,1.16,-1.55,1.19,74.4396,-23.2608,40.157599999999995,175,75
2026-05-11 17:57:04.006,4,1.02,-1.51,1.06,74.8696,-16.7408,32.657599999999995,175,75
2026-05-11 17:57:04.019,4,0.9,-1.41,1.05,61.699600000000004,5.9492,27.967599999999997,175,75
2026-05-11 17:57:04.030,4,0.82,-1.18,1.2,41.8196,26.6792,25.217599999999997,175,75
2026-05-11 17:57:04.041,4,0.81,-0.66,1.56,19.379599999999996,-17.3508,17.7776,175,75
2026-05-11 17:57:04.053,4,0.82,-0.49,1.62,14.749600000000001,-47.8308,15.097599999999998,175,75
2026-05-11 17:57:04.070,4,0.75,-0.32,1.41,9.989599999999996,-89.54079999999999,-8.7424,175,75
2026-05-11 17:57:04.091,4,0.36,-0.53,1.25,8.339599999999997,16.9192,-7.342400000000001,175,75
2026-05-11 17:57:04.104,4,0.32,-0.58,1.36,8.589599999999997,63.62919999999999,-1.1824000000000012,175,75
2026-05-11 17:57:04.119,4,0.33,-0.63,1.78,17.979599999999998,91.5592,8.2676,175,75
2026-05-11 17:57:04.139,4,0.38,-0.67,1.87,27.059599999999996,58.749199999999995,3.7575999999999983,175,75
2026-05-11 17:57:04.150,4,0.38,-0.71,1.83,31.3296,23.8692,-5.5724,175,75
2026-05-11 17:57:04.150,4,0.34,-0.75,1.73,30.169599999999996,6.2492,-14.1724,175,75
2026-05-11 17:57:04.159,4,0.3,-0.74,1.56,25.1096,13.3192,-21.2424,175,75
2026-05-11 17:57:04.172,4,0.22,-0.73,1.39,16.3896,38.5092,-22.8324,175,75
2026-05-11 17:57:04.195,4,0.22,-0.62,1.14,-3.730400000000003,239.23919999999998,3.9976000000000003,175,75
2026-05-11 17:57:04.206,4,0.16,-0.61,1.33,-7.330400000000001,444.7892,26.5676,175,75
2026-05-11 17:57:04.213,4,0.26,-0.76,2.09,8.529599999999999,516.6792,52.9076,175,75
2026-05-11 17:57:04.226,4,0.88,-1.12,2.83,12.309599999999996,310.2792,43.8176,175,75
2026-05-11 17:57:04.248,4,1.29,-1.48,2.6,3.889599999999998,-6.3108,6.627599999999999,175,75
2026-05-11 17:57:04.248,4,1.23,-1.44,2.2,-9.280400000000002,-70.3308,-7.8324,175,75
2026-05-11 17:57:04.259,4,1.27,-1.27,1.76,-10.620400000000002,-81.3708,-12.092400000000001,175,75
2026-05-11 17:57:04.269,4,1.2,-1.27,1.55,-6.290400000000002,-50.0908,-8.072400000000002,175,75
2026-05-11 17:57:04.282,4,1.04,-1.4,1.47,0.5396000000000001,8.8692,8.937599999999998,175,75
2026-05-11 17:57:04.300,4,0.97,-1.56,1.59,5.9095999999999975,54.2992,32.657599999999995,175,75
2026-05-11 17:57:04.314,4,0.95,-1.69,1.82,4.989599999999999,71.7992,55.7676,175,75
2026-05-11 17:57:04.337,4,1.34,-1.52,1.99,16.879599999999996,-97.29079999999999,78.38759999999999,175,75
2026-05-11 17:57:04.350,4,1.29,-1.51,1.62,21.269599999999997,-120.6408,66.1976,175,75
2026-05-11 17:57:04.373,4,1.45,-1.26,1.62,14.319600000000001,-97.71079999999999,51.3776,175,75
2026-05-11 17:57:04.412,4,2.13,-0.52,1.66,-10.9204,-171.4908,-42.4624,175,75
2026-05-11 17:57:04.423,4,1.51,-0.21,1.06,-53.4904,-152.4708,-70.08239999999999,175,75
2026-05-11 17:57:04.438,4,0.78,-0.29,0.72,-77.7504,24.6692,-59.2924,175,75
2026-05-11 17:57:04.448,4,1.08,-0.67,0.93,-59.8904,136.9192,-57.6424,175,75
2026-05-11 17:57:04.460,4,1.63,-1.04,1.62,-49.5204,98.4492,-110.5724,175,75
2026-05-11 17:57:04.471,4,2.13,-0.93,1.86,-79.5204,-33.2008,-174.9024,175,75
2026-05-11 17:57:04.483,4,2.09,-0.72,1.61,-102.9404,-152.10080000000002,-216.3024,175,75
2026-05-11 17:57:04.520,4,1.43,-1.22,0.56,-163.91039999999998,-129.1108,-222.2224,175,75
2026-05-11 17:57:04.564,4,1.42,-1.8,0.66,-197.9404,15.639199999999999,-215.1424,175,75
2026-05-11 17:57:04.608,4,1.39,-2.06,0.78,-107.4504,86.6192,-205.5124,175,75
2026-05-11 17:57:04.640,4,1.06,-2.3,0.69,-93.6704,89.7292,-208.4424,175,75
2026-05-11 17:57:04.640,4,0.67,-2.15,0.88,-96.7204,127.2292,-185.6324,175,75
2026-05-11 17:57:04.667,4,0.67,-0.51,2.2,-110.6204,10.7592,-114.0424,175,75
2026-05-11 17:57:04.678,4,0.65,-0.36,2.15,-114.8304,-97.65079999999999,-105.3324,175,75
2026-05-11 17:57:04.678,4,0.61,-0.35,1.96,-115.74040000000001,-146.4308,-101.4224,175,75
2026-05-11 17:57:04.735,4,0.54,-0.28,1.69,-114.2804,-171.3108,-92.9524,175,75
2026-05-11 17:57:04.745,4,0.39,-0.19,1.43,-106.5304,-158.63080000000002,-77.4024,175,75
2026-05-11 17:57:04.750,4,0.28,-0.11,1.3,-95.8004,-105.8808,-59.592400000000005,175,75
2026-05-11 17:57:04.762,4,0.15,-0.02,1.28,-81.5304,-14.9708,-37.8324,175,75
2026-05-11 17:57:04.762,4,0.12,-0.01,1.39,-68.0004,54.7292,-22.642400000000002,175,75
2026-05-11 17:57:04.778,4,0.11,-0.09,1.54,-52.1404,111.3092,-9.412400000000002,175,75
2026-05-11 17:57:04.788,4,0.16,-0.14,1.79,-34.5804,139.29919999999998,-2.4624000000000006,175,75
2026-05-11 17:57:04.819,4,0.35,-0.26,1.81,-37.6304,-51.8008,-30.392400000000002,175,75
2026-05-11 17:57:04.832,4,0.3,-0.26,1.64,-52.8104,-104.7208,-41.7324,175,75
2026-05-11 17:57:04.843,4,0.11,-0.22,1.41,-78.0004,-127.4108,-47.8924,175,75
2026-05-11 17:57:04.853,4,-0.02,-0.23,1.25,-99.5804,-117.7708,-45.1424,175,75
2026-05-11 17:57:04.864,4,-0.08,-0.28,1.1,-127.3304,-71.4908,-34.4724,175,75
2026-05-11 17:57:04.878,4,0.03,-0.33,1.09,-138.97039999999998,-28.5008,-23.1924,175,75
2026-05-11 17:57:04.892,4,0.23,-0.51,1.23,-149.2804,24.1792,-13.502400000000002,175,75
2026-05-11 17:57:04.895,4,0.29,-0.64,1.36,-155.56040000000002,27.3492,-17.892400000000002,175,75
2026-05-11 17:57:04.908,4,0.37,-0.71,1.47,-163.0004,5.1492,-28.2524,175,75
2026-05-11 17:57:04.920,4,0.45,-0.8,1.47,-175.1904,-49.180800000000005,-48.6224,175,75
2026-05-11 17:57:04.937,4,0.47,-0.87,1.31,-180.0704,-82.65079999999999,-63.7424,175,75
2026-05-11 17:57:04.953,4,0.47,-0.98,1.12,-177.81040000000002,-89.7208,-71.9724,175,75
2026-05-11 17:57:04.961,4,0.45,-1.16,1.02,-174.0304,-86.1308,-79.7224,175,75
2026-05-11 17:57:04.976,4,0.5,-1.23,1.07,-179.4004,-98.0208,-91.1824,175,75
2026-05-11 17:57:04.976,4,0.54,-0.85,1.23,-199.6404,-152.04080000000002,-105.6324,175,75
2026-05-11 17:57:04.999,4,0.65,1.05,1.13,-253.73039999999997,-302.7708,-53.6824,175,75
2026-05-11 17:57:05.009,4,0.71,0.72,0.83,-244.4004,-365.4008,-25.6324,175,75
2026-05-11 17:57:05.020,4,0.61,0.43,0.62,-257.1404,-372.7708,-7.4024,175,75
2026-05-11 17:57:05.020,4,0.4,0.72,0.45,-292.7504,-279.7908,13.2676,175,75
2026-05-11 17:57:05.031,4,0.36,1.53,0.52,-297.0804,-158.7508,42.1676,175,75
2026-05-11 17:57:05.045,4,0.65,2.47,0.85,-247.5704,-24.9108,93.38759999999999,175,75
2026-05-11 17:57:05.056,4,1.03,2.26,1.13,-187.1404,1.3092,119.54759999999999,175,75
2026-05-11 17:57:05.068,4,1.25,1.57,1.37,-145.62040000000002,-19.9108,125.5276,175,75
2026-05-11 17:57:05.081,4,1.32,1.16,1.52,-135.8004,-60.0908,120.0976,175,75
2026-05-11 17:57:05.091,4,1.31,1.04,1.49,-130.0104,-89.3608,118.14760000000001,175,75
2026-05-11 17:57:05.099,4,1.24,0.79,1.33,-103.6104,-103.2008,121.86760000000001,175,75
2026-05-11 17:57:05.114,4,1.41,0.09,1.04,-63.9704,-68.93079999999999,118.26759999999999,175,75
2026-05-11 17:57:05.152,4,1.47,-0.07,1.02,-47.8104,-15.0308,95.0976,175,75
2026-05-11 17:57:05.152,4,1.42,0.04,1.12,-49.1604,13.0192,83.7576,175,75
2026-05-11 17:57:05.169,4,1.27,-0.05,1.22,-47.0204,44.179199999999994,70.5876,175,75
2026-05-11 17:57:05.207,4,0.96,-0.5,1.4,-40.620400000000004,72.95920000000001,51.807599999999994,175,75
2026-05-11 17:57:05.217,4,0.73,-0.68,1.49,-46.5304,79.1192,42.2376,175,75
2026-05-11 17:57:05.217,4,0.44,-0.76,1.62,-55.7404,88.7492,41.2576,175,75
2026-05-11 17:57:05.228,4,0.28,-0.63,1.9,-70.0104,83.0192,51.077600000000004,175,75
2026-05-11 17:57:05.240,4,0.35,-0.47,2.12,-82.63040000000001,22.0392,55.4076,175,75
2026-05-11 17:57:05.250,4,0.47,-0.42,2.18,-84.8904,-44.6608,56.2576,175,75
2026-05-11 17:57:05.250,4,0.58,-0.43,2.11,-83.3604,-119.79079999999999,52.477599999999995,175,75
2026-05-11 17:57:05.261,4,0.59,-0.49,1.91,-84.5804,-169.1808,45.407599999999995,175,75
2026-05-11 17:57:05.272,4,0.55,-0.56,1.67,-85.19040000000001,-180.82080000000002,39.9176,175,75
2026-05-11 17:57:05.284,4,0.53,-0.56,1.41,-82.3304,-148.0808,37.2376,175,75
2026-05-11 17:57:05.284,4,0.53,-0.52,1.32,-77.69040000000001,-93.1408,36.9276,175,75
2026-05-11 17:57:05.304,4,0.56,-0.51,1.34,-76.41040000000001,-59.9108,35.587599999999995,175,75
2026-05-11 17:57:05.328,4,0.7,-0.42,1.45,-81.1104,-65.7008,23.087599999999995,175,75
2026-05-11 17:57:05.328,4,0.75,-0.34,1.37,-87.9404,-97.1608,16.5676,175,75
2026-05-11 17:57:05.363,4,0.78,-0.2,1.09,-105.4404,-106.07079999999999,3.387600000000001,175,75
2026-05-11 17:57:05.377,4,0.65,-0.14,0.99,-113.24040000000001,-72.04079999999999,-1.0624000000000002,175,75
2026-05-11 17:57:05.377,4,0.46,0.23,1.09,-119.4604,-15.9408,4.057599999999999,175,75
2026-05-11 17:57:05.388,4,0.53,0.68,1.28,-122.8104,-0.8208000000000002,11.3776,175,75
2026-05-11 17:57:05.400,4,0.67,0.94,1.42,-115.1904,-23.2608,17.537599999999998,175,75
2026-05-11 17:57:05.404,4,0.82,0.88,1.39,-91.7204,-81.8608,24.977599999999995,175,75
2026-05-11 17:57:05.417,4,0.76,0.86,1.21,-77.69040000000001,-137.41080000000002,30.8876,175,75
2026-05-11 17:57:05.439,4,0.48,1.81,0.85,-86.5904,-66.0008,64.1876,175,75
2026-05-11 17:57:05.466,4,0.63,0.93,0.96,-60.8604,26.8592,102.9676,175,75
2026-05-11 17:57:05.482,4,0.79,0.56,1.18,-84.4004,8.6292,89.1876,175,75
2026-05-11 17:57:05.488,4,0.81,0.26,1.23,-96.7804,-41.8008,72.5376,175,75
2026-05-11 17:57:05.495,4,0.78,-0.17,1.15,-107.2004,-109.6608,53.38759999999999,175,75
2026-05-11 17:57:05.517,4,0.67,-0.58,0.98,-121.4704,-149.4208,39.547599999999996,175,75
2026-05-11 17:57:05.529,4,0.48,-0.83,0.84,-144.7004,-149.48080000000002,32.1676,175,75
2026-05-11 17:57:05.530,4,0.37,-0.85,0.81,-165.5004,-126.43079999999999,34.367599999999996,175,75
2026-05-11 17:57:05.551,4,0.37,-0.76,0.82,-185.1304,-95.46079999999999,41.9876,175,75
2026-05-11 17:57:05.573,4,0.4,-0.93,0.77,-189.6404,-88.0208,56.197599999999994,175,75
2026-05-11 17:57:05.599,4,0.6,-0.56,0.81,-220.0104,-112.96079999999999,59.1876,175,75
2026-05-11 17:57:05.631,4,0.72,-0.14,0.8,-226.8404,-153.0808,55.587599999999995,175,75
2026-05-11 17:57:05.688,4,1.09,0.67,0.04,-193.0004,-164.54080000000002,67.5976,175,75
2026-05-11 17:57:05.718,4,1.35,0.4,0.81,-130.0704,63.139199999999995,91.9276,175,75
2026-05-11 17:57:05.718,4,1.4,0.23,1.13,-114.6404,35.459199999999996,73.5776,175,75
2026-05-11 17:57:05.748,4,1.35,0.65,1.5,-108.3004,-6.1308,58.327600000000004,175,75
2026-05-11 17:57:05.771,4,1.51,0.11,1.81,-51.4704,-295.7608,19.4876,175,75
2026-05-11 17:57:05.782,4,1.06,0.14,1.13,-39.7704,-328.7508,4.737599999999999,175,75
2026-05-11 17:57:05.800,4,0.78,0.24,0.9,-33.4904,-246.6108,19.9176,175,75
2026-05-11 17:57:05.823,4,0.45,0.13,1.09,-17.1404,112.64920000000001,89.9176,175,75
2026-05-11 17:57:05.829,4,0.39,-0.02,1.45,-18.730400000000003,198.1992,104.1876,175,75
2026-05-11 17:57:05.852,4,0.34,-0.25,2.1,-40.2504,187.4092,93.4576,175,75
2026-05-11 17:57:05.889,4,0.09,-0.57,2.17,-55.3104,-106.2508,19.427599999999998,175,75
2026-05-11 17:57:05.902,4,-0.03,-0.26,1.92,-78.1204,-216.19080000000002,-3.6224000000000007,175,75
2026-05-11 17:57:05.932,4,-0.29,-0.39,1.45,-86.8404,-179.48080000000002,20.587599999999995,175,75
2026-05-11 17:57:05.947,4,-0.1,-0.45,1.43,-96.7804,-166.6808,24.1276,175,75
2026-05-11 17:57:05.952,4,0.01,-0.42,1.37,-107.9404,-173.26080000000002,21.8076,175,75
2026-05-11 17:57:05.974,4,0.08,-0.36,1.25,-112.6304,-172.10080000000002,22.297599999999996,175,75
2026-05-11 17:57:05.984,4,0.16,-0.3,1.11,-110.8604,-157.2208,28.517599999999995,175,75
2026-05-11 17:57:06.007,4,0.43,-0.12,0.69,-114.5804,-141.5508,28.9976,175,75
2026-05-11 17:57:06.021,4,0.58,0.41,0.69,-134.0304,-130.88080000000002,26.867599999999996,175,75
2026-05-11 17:57:06.032,4,0.67,0.97,0.69,-145.99040000000002,-132.35080000000002,31.3776,175,75
2026-05-11 17:57:06.054,4,0.67,1.59,0.57,-144.2804,-113.1408,53.02759999999999,175,75
2026-05-11 17:57:06.077,4,0.76,1.8,0.74,-128.5504,-4.2408,89.6676,175,75
2026-05-11 17:57:06.100,4,0.96,1.97,1.1,-95.6204,-29.5408,108.6976,175,75
2026-05-11 17:57:06.111,4,1.05,1.79,1.03,-79.2204,-69.4808,112.23759999999999,175,75
2026-05-11 17:57:06.201,4,1.26,1.31,0.72,-60.5604,-111.0008,129.4876,175,75
2026-05-11 17:57:06.212,4,1.38,1.08,0.62,-58.6104,-93.6308,130.5876,175,75
2026-05-11 17:57:06.212,4,1.42,0.92,0.59,-60.7404,-68.6908,126.4976,175,75
2026-05-11 17:57:06.212,4,1.39,0.67,0.65,-61.5304,-29.9108,117.23759999999999,175,75
2026-05-11 17:57:06.235,4,1.37,0.37,0.71,-59.580400000000004,-9.7908,106.49759999999999,175,75
2026-05-11 17:57:06.247,4,1.35,0.02,0.77,-60.0704,2.8992000000000004,86.3776,175,75
2026-05-11 17:57:06.247,4,1.21,-0.04,0.85,-64.5804,15.819199999999999,74.1876,175,75
2026-05-11 17:57:06.261,4,1.19,-0.06,0.98,-70.3104,29.3592,68.5776,175,75
2026-05-11 17:57:06.296,4,1.34,-0.21,1.04,-74.6404,2.2291999999999996,60.52759999999999,175,75
2026-05-11 17:57:06.307,4,1.19,-0.24,0.98,-82.2004,-30.8808,41.9276,175,75
2026-05-11 17:57:06.317,4,0.98,-0.12,0.94,-88.49040000000001,-14.7208,34.4876,175,75
2026-05-11 17:57:06.330,4,0.59,-0.12,1.22,-96.0504,57.779199999999996,38.7576,175,75
2026-05-11 17:57:06.341,4,0.49,-0.25,1.41,-99.7004,63.01919999999999,40.8876,175,75
2026-05-11 17:57:06.351,4,0.45,-0.37,1.67,-116.8404,-81.0008,45.8876,175,75
2026-05-11 17:57:06.366,4,0.47,-0.31,1.53,-117.1404,-134.1108,46.0776,175,75
2026-05-11 17:57:06.379,4,0.39,-0.34,1.32,-108.4204,-144.0508,44.8576,175,75
2026-05-11 17:57:06.390,4,0.35,-0.41,1.31,-103.7904,-128.3808,44.7376,175,75
2026-05-11 17:57:06.390,4,0.34,-0.47,1.39,-98.85040000000001,-114.3608,44.4276,175,75
2026-05-11 17:57:06.407,4,0.32,-0.49,1.45,-95.74040000000001,-114.79079999999999,45.4676,175,75
2026-05-11 17:57:06.407,4,0.31,-0.48,1.49,-94.7704,-122.4108,46.5676,175,75
2026-05-11 17:57:06.419,4,0.33,-0.47,1.49,-97.0804,-134.79080000000002,46.437599999999996,175,75
2026-05-11 17:57:06.431,4,0.35,-0.46,1.42,-104.1604,-156.8608,43.267599999999995,175,75
2026-05-11 17:57:06.442,4,0.29,-0.53,1.28,-117.0204,-171.7408,42.1076,175,75
2026-05-11 17:57:06.453,4,0.39,-0.66,1.3,-123.49040000000001,-183.0208,40.407599999999995,175,75
2026-05-11 17:57:06.453,4,0.47,-0.69,1.35,-130.99040000000002,-207.9008,35.7076,175,75
2026-05-11 17:57:06.463,4,0.65,-0.55,1.32,-139.4004,-256.6808,29.9176,175,75
2026-05-11 17:57:06.475,4,0.75,-0.33,1.17,-146.41039999999998,-309.5408,19.4876,175,75
2026-05-11 17:57:06.488,4,0.69,0.05,0.78,-147.0804,-337.4108,13.5176,175,75
2026-05-11 17:57:06.500,4,0.59,0.69,0.51,-148.6104,-277.2908,24.9176,175,75
2026-05-11 17:57:06.511,4,0.4,1.56,0.42,-157.2004,-166.4308,44.7376,175,75
2026-05-11 17:57:06.524,4,0.45,1.34,0.37,-125.6204,-23.5008,80.88759999999999,175,75
2026-05-11 17:57:06.534,4,0.4,0.96,0.71,-123.0004,76.3092,100.9576,175,75
2026-05-11 17:57:06.546,4,0.35,1.48,1.35,-143.6104,144.7892,114.60759999999999,175,75
2026-05-11 17:57:06.546,4,0.68,1.59,1.81,-145.8604,60.39919999999999,102.77759999999999,175,75
2026-05-11 17:57:06.557,4,0.39,1.49,1.92,-123.0604,-31.5508,104.0676,175,75
2026-05-11 17:57:06.570,4,0.44,1.48,1.88,-113.1804,-97.29079999999999,106.6876,175,75
2026-05-11 17:57:06.581,4,0.57,1.34,1.65,-107.0204,-166.4908,108.8176,175,75
2026-05-11 17:57:06.611,4,0.72,1.09,1.22,-90.5004,-195.3308,114.9776,175,75
2026-05-11 17:57:06.635,4,0.93,0.51,0.9,-68.5504,-161.3108,111.8676,175,75
2026-05-11 17:57:06.646,4,0.71,-0.56,0.88,-61.1704,-173.63080000000002,59.1276,175,75
2026-05-11 17:57:06.665,4,0.4,-1.18,0.51,-88.85040000000001,-162.7108,36.9876,175,75
2026-05-11 17:57:06.682,4,0.31,-0.93,0.41,-150.2504,-62.710800000000006,57.41759999999999,175,75
2026-05-11 17:57:06.692,4,0.23,-0.66,0.51,-171.23039999999997,-13.0208,68.99759999999999,175,75
2026-05-11 17:57:06.704,4,0.21,-0.58,0.82,-178.61040000000003,44.969199999999994,91.6276,175,75
2026-05-11 17:57:06.720,4,0.32,-0.66,1.09,-183.30040000000002,37.709199999999996,96.9276,175,75
2026-05-11 17:57:06.732,4,0.39,-0.27,1.47,-218.61040000000003,-133.38080000000002,70.88759999999999,175,75
2026-05-11 17:57:06.793,4,0.41,0.44,1.18,-210.0104,-272.7708,76.0776,175,75
2026-05-11 17:57:06.793,4,0.68,0.81,0.58,-169.0304,-319.8508,108.4576,175,75
2026-05-11 17:57:06.793,4,0.73,0.78,0.36,-157.9404,-335.9408,108.63759999999999,175,75
2026-05-11 17:57:06.809,4,0.57,0.82,0.2,-149.7704,-295.2108,123.08760000000001,175,75
2026-05-11 17:57:06.809,4,0.66,0.84,0.08,-132.5104,-222.16080000000002,145.2776,175,75
2026-05-11 17:57:06.820,4,1.02,0.69,0.04,-105.74040000000001,-133.38080000000002,159.7376,175,75
2026-05-11 17:57:06.854,4,1.71,0.87,0.39,-57.4504,-3.1408000000000005,130.8276,175,75
2026-05-11 17:57:06.877,4,1.92,0.66,0.81,-28.7904,-25.5808,82.1676,175,75
2026-05-11 17:57:06.887,4,1.9,0.61,0.98,-20.6204,-55.640800000000006,60.7676,175,75
2026-05-11 17:57:06.898,4,1.79,0.54,1.1,-10.860400000000002,-73.2008,42.657599999999995,175,75
2026-05-11 17:57:06.925,4,1.26,0.1,1.19,25.3596,-63.0808,14.667599999999998,175,75
2026-05-11 17:57:06.936,4,0.98,-0.18,1.26,46.0296,-18.0808,23.9976,175,75
2026-05-11 17:57:06.948,4,0.78,-0.32,1.32,45.53959999999999,14.6692,37.5976,175,75
2026-05-11 17:57:06.985,4,0.38,-0.01,1.61,-22.5104,141.79919999999998,65.7076,175,75
2026-05-11 17:57:06.998,4,0.27,-0.21,1.73,-35.7404,190.08919999999998,75.27759999999999,175,75
2026-05-11 17:57:07.010,4,0.2,-0.46,1.94,-55.5604,215.9492,77.77759999999999,175,75
2026-05-11 17:57:07.030,4,0.27,-0.73,2.39,-88.9104,131.1292,53.4576,175,75
2026-05-11 17:57:07.037,4,0.33,-0.68,2.55,-101.2304,24.2392,30.467599999999997,175,75
2026-05-11 17:57:07.063,4,0.32,-0.44,2.31,-110.5604,-160.0908,-6.362400000000001,175,75
2026-05-11 17:57:07.076,4,0.21,-0.3,2.02,-108.0004,-174.54080000000002,-11.9724,175,75
2026-05-11 17:57:07.084,4,0.08,-0.19,1.83,-102.8104,-151.98080000000002,-3.0724,175,75
2026-05-11 17:57:07.096,4,0.09,-0.21,1.71,-107.9404,-139.54080000000002,-3.192400000000001,175,75
2026-05-11 17:57:07.109,4,0.17,-0.21,1.62,-107.1404,-110.8808,0.27759999999999785,175,75
2026-05-11 17:57:07.131,4,-0.15,-0.28,1.91,-84.2804,-24.9708,24.187599999999996,175,75
2026-05-11 17:57:07.142,4,0.14,-0.3,2.04,-87.9404,-70.9408,7.3576,175,75
2026-05-11 17:57:07.152,4,0.24,-0.25,1.88,-80.19040000000001,-175.82080000000002,-15.2024,175,75
2026-05-11 17:57:07.163,4,0.13,-0.18,1.65,-74.7704,-234.2408,-25.2624,175,75
2026-05-11 17:57:07.177,4,0.07,-0.07,1.31,-81.96039999999999,-250.6408,-28.3724,175,75
2026-05-11 17:57:07.177,4,0.11,0.07,0.97,-93.3004,-238.20080000000002,-26.7924,175,75
2026-05-11 17:57:07.190,4,-0.01,0.25,0.78,-94.7704,-181.4908,-13.9824,175,75
2026-05-11 17:57:07.203,4,0.02,0.69,0.98,-94.4004,-85.3308,11.3176,175,75
2026-05-11 17:57:07.215,4,0.21,1.19,1.32,-105.0104,-80.21079999999999,19.427599999999998,175,75
2026-05-11 17:57:07.236,4,0.43,1.91,1.44,-111.2304,-217.35080000000002,14.367599999999998,175,75
2026-05-11 17:57:07.246,4,0.32,1.8,0.99,-106.5904,-279.30080000000004,18.577599999999997,175,75
2026-05-11 17:57:07.257,4,0.13,1.87,0.58,-108.3004,-227.29080000000002,36.5676,175,75
2026-05-11 17:57:07.269,4,0.17,1.96,0.52,-93.6104,-140.3308,65.4676,175,75
2026-05-11 17:57:07.281,4,0.23,1.98,0.74,-77.4504,-100.82079999999999,91.3776,175,75
2026-05-11 17:57:07.291,4,0.48,1.66,0.9,-66.5304,-131.9208,113.9376,175,75
2026-05-11 17:57:07.332,4,1.09,0.72,-0.2,-32.940400000000004,-95.7008,143.3876,175,75
2026-05-11 17:57:07.345,4,1.21,0.44,-0.04,-23.0604,-1.8008000000000002,144.8576,175,75
2026-05-11 17:57:07.359,4,1.44,0.12,0.33,-17.8104,31.679199999999998,132.4776,175,75
2026-05-11 17:57:07.367,4,1.49,-0.0,0.49,-28.6704,-1.4308,112.6576,175,75
2026-05-11 17:57:07.390,4,1.33,-0.22,0.48,-49.0904,-30.4608,92.1676,175,75
2026-05-11 17:57:07.405,4,1.17,-0.26,0.48,-64.16040000000001,2.0392,85.52759999999999,175,75
2026-05-11 17:57:07.429,4,1.04,0.21,0.91,-85.2504,83.7492,74.1276,175,75
2026-05-11 17:57:07.441,4,0.95,0.11,1.21,-83.9704,88.4492,66.9276,175,75
2026-05-11 17:57:07.461,4,0.68,-0.15,1.63,-90.8604,14.4192,46.017599999999995,175,75
2026-05-11 17:57:07.476,4,0.54,-0.35,1.62,-83.5504,-39.110800000000005,42.477599999999995,175,75
2026-05-11 17:57:07.497,4,0.38,-0.32,1.59,-78.0604,-62.960800000000006,47.7776,175,75
2026-05-11 17:57:07.497,4,0.34,-0.2,1.6,-74.8304,-66.0008,52.41759999999999,175,75
2026-05-11 17:57:07.518,4,0.26,-0.16,1.63,-62.0204,-80.7008,60.0976,175,75
2026-05-11 17:57:07.530,4,0.25,-0.33,1.62,-59.3404,-103.93079999999999,60.52759999999999,175,75
2026-05-11 17:57:07.535,4,0.2,-0.46,1.57,-63.0004,-116.2508,59.24759999999999,175,75
2026-05-11 17:57:07.544,4,0.15,-0.54,1.51,-70.0104,-122.5908,57.717600000000004,175,75
2026-05-11 17:57:07.556,4,0.12,-0.6,1.48,-81.8404,-122.1608,58.63759999999999,175,75
2026-05-11 17:57:07.570,4,0.11,-0.58,1.5,-90.99040000000001,-118.2608,60.3476,175,75
2026-05-11 17:57:07.587,4,0.13,-0.5,1.58,-98.5504,-123.1408,60.4076,175,75
2026-05-11 17:57:07.587,4,0.21,-0.36,1.66,-106.6604,-152.16080000000002,59.5476,175,75
2026-05-11 17:57:07.600,4,0.29,-0.32,1.72,-111.9604,-221.4908,53.9376,175,75
2026-05-11 17:57:07.614,4,0.35,-0.37,1.71,-118.1204,-307.8308,45.8876,175,75
2026-05-11 17:57:07.625,4,0.25,-0.37,1.61,-125.1304,-381.31080000000003,41.0776,175,75
2026-05-11 17:57:07.636,4,0.11,-0.19,1.22,-129.3404,-441.74080000000004,43.0276,175,75
2026-05-11 17:57:07.636,4,0.08,0.05,0.85,-127.3904,-452.4108,47.477599999999995,175,75
2026-05-11 17:57:07.679,4,-0.01,0.96,0.1,-98.1804,-161.19080000000002,101.5676,175,75
2026-05-11 17:57:07.691,4,0.13,1.34,0.37,-87.6304,13.5092,131.5576,175,75
2026-05-11 17:57:07.701,4,0.17,1.75,0.72,-91.7204,88.1392,141.2576,175,75
2026-05-11 17:57:07.724,4,0.44,1.2,1.29,-79.4004,51.6192,152.9676,175,75
2026-05-11 17:57:07.734,4,0.5,0.81,1.33,-63.7904,-27.1008,150.1576,175,75
2026-05-11 17:57:07.761,4,0.65,0.19,0.91,-44.4604,-199.91080000000002,126.01759999999999,175,75
2026-05-11 17:57:07.771,4,0.49,0.13,0.69,-50.9904,-206.7408,117.29759999999999,175,75
2026-05-11 17:57:07.783,4,0.45,-0.02,0.6,-53.2404,-180.5808,116.4376,175,75
2026-05-11 17:57:07.795,4,0.45,-0.21,0.59,-57.330400000000004,-143.8108,117.9076,175,75
2026-05-11 17:57:07.795,4,0.5,-0.42,0.62,-60.620400000000004,-110.7008,120.64760000000001,175,75
2026-05-11 17:57:07.806,4,0.52,-0.61,0.66,-72.94040000000001,-100.5208,120.1576,175,75
2026-05-11 17:57:07.831,4,0.36,-0.87,0.65,-103.4204,-85.3308,117.4776,175,75
2026-05-11 17:57:07.852,4,0.32,-0.93,0.74,-123.85040000000001,-36.1908,126.3776,175,75
2026-05-11 17:57:07.868,4,0.35,-0.9,0.82,-122.7504,-27.3508,127.23759999999999,175,75
2026-05-11 17:57:07.868,4,0.4,-0.86,0.86,-120.5004,-32.7708,125.2776,175,75
2026-05-11 17:57:07.878,4,0.45,-0.53,0.89,-127.6904,-51.3108,120.76759999999999,175,75
2026-05-11 17:57:07.890,4,0.53,0.0,0.95,-143.6704,-51.3708,125.4676,175,75
2026-05-11 17:57:07.916,4,0.67,0.77,1.08,-140.8604,-64.4208,130.3476,175,75
2026-05-11 17:57:07.937,4,0.74,0.53,1.1,-107.2704,-64.7908,133.0276,175,75
2026-05-11 17:57:07.945,4,0.85,0.49,1.19,-83.2404,-60.030800000000006,133.0876,175,75
2026-05-11 17:57:07.955,4,1.3,0.84,1.32,-62.0204,-59.360800000000005,134.0576,175,75
2026-05-11 17:57:07.967,4,1.58,0.99,1.31,-32.8104,-96.07079999999999,117.35759999999999,175,75
2026-05-11 17:57:07.980,4,1.2,1.1,0.76,20.659599999999998,-64.7208,78.99759999999999,175,75
2026-05-11 17:57:07.990,4,1.1,1.12,0.68,62.119600000000005,60.209199999999996,91.5676,175,75
2026-05-11 17:57:08.001,4,1.4,0.76,1.0,111.0896,162.0392,109.7976,175,75
2026-05-11 17:57:08.017,4,1.8,0.24,1.26,120.04960000000001,111.1892,89.1876,175,75
2026-05-11 17:57:08.032,4,1.69,-0.1,1.25,94.9296,5.5192,44.6676,175,75
2026-05-11 17:57:08.052,4,1.14,0.0,0.94,57.7996,-74.1108,2.2375999999999987,175,75
2026-05-11 17:57:08.062,4,0.95,0.09,0.8,33.5896,-70.2708,2.1075999999999997,175,75
2026-05-11 17:57:08.073,4,0.62,0.26,0.74,-8.730400000000001,-9.9108,17.717599999999997,175,75
2026-05-11 17:57:08.075,4,0.45,0.38,0.74,-33.4204,86.0092,40.6476,175,75
2026-05-11 17:57:08.091,4,0.29,0.2,0.96,-39.2204,224.6692,69.3676,175,75
2026-05-11 17:57:08.102,4,0.31,-0.08,1.3,-37.690400000000004,303.3892,80.7076,175,75
2026-05-11 17:57:08.106,4,0.37,-0.29,1.72,-40.5004,333.1392,77.8476,175,75
2026-05-11 17:57:08.132,4,0.48,-0.51,2.15,-49.1604,290.4592,56.867599999999996,175,75
2026-05-11 17:57:08.146,4,0.58,-0.66,2.37,-55.190400000000004,163.86919999999998,25.0976,175,75
2026-05-11 17:57:08.153,4,0.49,-0.7,2.36,-56.1104,62.109199999999994,3.3275999999999986,175,75
2026-05-11 17:57:08.175,4,0.07,-0.22,1.94,-73.9704,-129.7908,-29.9024,175,75
2026-05-11 17:57:08.182,4,0.08,-0.12,1.81,-81.0504,-160.0908,-26.912399999999998,175,75
2026-05-11 17:57:08.193,4,0.09,-0.1,1.54,-93.4204,-188.32080000000002,-22.282400000000003,175,75
2026-05-11 17:57:08.207,4,-0.04,-0.14,1.21,-104.4604,-161.13080000000002,-12.2824,175,75
2026-05-11 17:57:08.228,4,-0.12,-0.18,1.02,-115.1304,-72.90079999999999,4.6076,175,75
2026-05-11 17:57:08.241,4,-0.12,-0.23,1.1,-120.6804,10.3992,20.5276,175,75
2026-05-11 17:57:08.252,4,0.04,-0.25,1.34,-128.49040000000002,37.529199999999996,27.967599999999997,175,75
2026-05-11 17:57:08.263,4,0.26,-0.28,1.52,-142.9404,-7.2908,19.0676,175,75
2026-05-11 17:57:08.268,4,0.36,-0.11,1.53,-159.5804,-81.7408,2.597599999999998,175,75
2026-05-11 17:57:08.280,4,0.34,0.24,1.48,-172.1404,-126.5508,-6.792400000000001,175,75
2026-05-11 17:57:08.296,4,0.34,0.77,1.37,-182.81040000000002,-154.1108,-11.7924,175,75
2026-05-11 17:57:08.310,4,0.34,1.11,1.26,-168.61040000000003,-166.8608,-8.682400000000001,175,75
2026-05-11 17:57:08.336,4,-0.09,1.79,1.3,-147.7504,-100.0308,20.9576,175,75
2026-05-11 17:57:08.348,4,-0.32,1.76,1.47,-120.4404,-23.8708,57.0476,175,75
2026-05-11 17:57:08.361,4,-0.03,1.57,1.86,-69.0304,-37.8308,90.7676,175,75
2026-05-11 17:57:08.368,4,0.44,1.35,2.02,-26.2904,-169.3008,99.7376,175,75
2026-05-11 17:57:08.379,4,0.59,1.14,1.84,-0.860400000000002,-344.8508,88.5776,175,75
2026-05-11 17:57:08.392,4,0.66,1.09,1.39,9.989599999999996,-450.4608,83.4576,175,75
2026-05-11 17:57:08.414,4,0.71,1.08,0.08,24.809599999999996,-420.8208,101.3176,175,75
2026-05-11 17:57:08.430,4,0.89,0.83,-0.4,27.1196,-283.5008,121.1976,175,75
2026-05-11 17:57:08.453,4,1.15,0.35,-0.43,-12.200400000000002,-10.7008,144.42759999999998,175,75
2026-05-11 17:57:08.473,4,1.45,0.07,-0.01,-47.510400000000004,109.17920000000001,145.4676,175,75
2026-05-11 17:57:08.485,4,1.49,-0.11,0.15,-56.9604,118.56920000000001,134.0576,175,75
2026-05-11 17:57:08.485,4,1.49,-0.05,0.3,-66.96039999999999,129.4792,119.54759999999999,175,75
2026-05-11 17:57:08.495,4,1.5,0.13,0.44,-73.7904,138.9992,100.0976,175,75
2026-05-11 17:57:08.509,4,1.4,0.15,0.54,-73.2404,146.0692,81.6876,175,75
2026-05-11 17:57:08.524,4,1.15,-0.08,0.81,-67.0804,174.29919999999998,50.9576,175,75
2026-05-11 17:57:08.536,4,0.88,-0.15,1.07,-73.0004,192.5292,33.517599999999995,175,75
2026-05-11 17:57:08.548,4,0.68,-0.17,1.41,-82.7504,190.39919999999998,24.547599999999996,175,75
2026-05-11 17:57:08.558,4,0.59,-0.21,1.63,-88.24040000000001,158.1992,22.047599999999996,175,75
