Time,ID,Ax,Ay,Az,Gx,Gy,Gz,Height,Weight
2026-05-07 18:38:01.783,4,-0.3,-0.06,1.28,30.5074,-19.6664,11.5192,175,75
2026-05-07 18:38:01.819,4,-0.26,0.0,1.15,42.0274,-38.3264,1.9491999999999994,175,75
2026-05-07 18:38:01.908,4,-0.13,-0.41,1.28,80.44739999999999,-59.1764,-11.9508,175,75
2026-05-07 18:38:01.908,4,-0.12,-0.57,1.23,83.97739999999999,-58.136399999999995,-11.400799999999998,175,75
2026-05-07 18:38:01.923,4,-0.15,-0.91,1.16,86.23740000000001,-46.5564,-8.170800000000002,175,75
2026-05-07 18:38:01.955,4,-0.18,-0.94,1.19,78.6774,-46.5564,-10.490799999999998,175,75
2026-05-07 18:38:01.996,4,0.09,-0.16,1.39,52.7674,-102.9564,-45.1208,175,75
2026-05-07 18:38:02.022,4,0.23,-0.16,1.07,57.0874,-16.556399999999996,-55.370799999999996,175,75
2026-05-07 18:38:02.034,4,0.24,-0.06,1.16,61.5474,28.3236,-50.06080000000001,175,75
2026-05-07 18:38:02.047,4,0.35,-0.04,1.2,69.7774,46.863600000000005,-53.3008,175,75
2026-05-07 18:38:02.070,4,0.64,-0.2,1.27,90.7474,52.223600000000005,-65.3108,175,75
2026-05-07 18:38:02.115,4,0.56,-0.52,1.3,108.06739999999999,28.263600000000004,-84.4508,175,75
2026-05-07 18:38:02.177,4,0.55,-0.58,1.04,103.73740000000001,-106.9164,-126.89079999999998,175,75
2026-05-07 18:38:02.177,4,0.36,-0.4,0.77,82.69739999999999,-103.5064,-134.0308,175,75
2026-05-07 18:38:02.177,4,0.39,-0.33,0.67,70.26740000000001,-87.40639999999999,-132.5608,175,75
2026-05-07 18:38:02.188,4,0.37,-0.31,0.6,58.3674,-81.85640000000001,-132.2608,175,75
2026-05-07 18:38:02.201,4,0.25,-0.32,0.58,47.7674,-75.0264,-129.0908,175,75
2026-05-07 18:38:02.211,4,0.17,-0.29,0.6,33.0674,-66.9764,-120.61079999999998,175,75
2026-05-07 18:38:02.224,4,0.12,-0.23,0.59,21.7274,-63.3264,-114.82079999999999,175,75
2026-05-07 18:38:02.224,4,0.17,-0.17,0.55,14.5274,-68.8664,-107.93079999999999,175,75
2026-05-07 18:38:02.248,4,0.27,-0.1,0.41,9.287400000000002,-96.1264,-103.0508,175,75
2026-05-07 18:38:02.255,4,0.29,-0.06,0.18,5.1974,-129.84640000000002,-107.5008,175,75
2026-05-07 18:38:02.283,4,0.0,0.05,-0.12,5.9374,-126.6764,-96.10079999999999,175,75
2026-05-07 18:38:02.283,4,-0.35,0.18,-0.2,7.827400000000001,-54.9664,-65.43079999999999,175,75
2026-05-07 18:38:02.298,4,-0.42,0.23,-0.1,0.19740000000000002,71.2536,-20.800800000000002,175,75
2026-05-07 18:38:02.298,4,-0.09,0.16,0.05,-15.2226,82.8936,-5.800800000000001,175,75
2026-05-07 18:38:02.342,4,-1.71,0.09,-0.32,-74.0026,-53.386399999999995,17.9892,175,75
2026-05-07 18:38:02.377,4,0.79,0.18,2.03,-96.08260000000001,-16.9164,-35.1908,175,75
2026-05-07 18:38:02.388,4,0.45,0.13,1.11,-104.0026,-398.9364,-141.5908,175,75
2026-05-07 18:38:02.456,4,0.18,0.01,0.97,-124.1326,162.8936,-42.3808,175,75
2026-05-07 18:38:02.456,4,0.27,-0.23,1.12,-133.70260000000002,49.113600000000005,-61.470800000000004,175,75
2026-05-07 18:38:02.491,4,0.24,-0.31,0.86,-182.5426,-59.416399999999996,-69.5808,175,75
2026-05-07 18:38:02.502,4,0.35,-0.23,0.91,-197.3026,13.633600000000001,-57.56080000000001,175,75
2026-05-07 18:38:02.517,4,0.5,-0.19,0.96,-204.7426,46.8036,-52.870799999999996,175,75
2026-05-07 18:38:02.546,4,0.62,-0.59,1.14,-201.8726,70.4536,-50.06080000000001,175,75
2026-05-07 18:38:02.565,4,0.28,-0.65,1.33,-206.9926,75.8236,-61.0408,175,75
2026-05-07 18:38:02.611,4,0.16,-0.47,1.52,-209.0626,46.1336,-57.870799999999996,175,75
2026-05-07 18:38:02.638,4,0.15,-0.4,1.56,-207.5426,11.433599999999998,-59.510799999999996,175,75
2026-05-07 18:38:02.638,4,0.08,-0.32,1.57,-207.3026,-29.606399999999997,-58.6608,175,75
2026-05-07 18:38:02.651,4,0.01,-0.25,1.52,-203.2126,-48.0764,-51.34080000000001,175,75
2026-05-07 18:38:02.651,4,0.05,-0.2,1.49,-197.0526,-52.6564,-51.220800000000004,175,75
2026-05-07 18:38:02.660,4,0.22,-0.18,1.46,-197.7226,-65.7564,-53.3008,175,75
2026-05-07 18:38:02.676,4,0.1,-0.17,1.29,-204.8026,-102.5264,-52.20080000000001,175,75
2026-05-07 18:38:02.693,4,-0.21,-0.22,1.12,-210.8326,-88.1964,-54.9408,175,75
2026-05-07 18:38:02.736,4,-0.24,-0.15,1.09,-221.8726,-58.746399999999994,-56.470800000000004,175,75
2026-05-07 18:38:02.748,4,-0.24,-0.15,1.11,-237.0526,-7.776399999999999,-66.7708,175,75
2026-05-07 18:38:02.795,4,-0.01,-0.54,0.95,-253.82260000000002,34.6036,-73.1708,175,75
2026-05-07 18:38:02.810,4,0.06,-0.63,0.96,-255.1626,49.78360000000001,-87.8108,175,75
2026-05-07 18:38:02.810,4,-0.06,-0.66,1.02,-258.6426,58.9936,-93.54079999999999,175,75
2026-05-07 18:38:02.820,4,-0.18,-0.65,1.18,-264.6726,83.6936,-100.43079999999999,175,75
2026-05-07 18:38:02.829,4,-0.18,-0.58,1.36,-271.3826,83.3836,-106.3408,175,75
2026-05-07 18:38:02.930,4,0.14,-0.2,1.12,-255.2826,-67.9564,-97.1408,175,75
2026-05-07 18:38:02.930,4,0.08,-0.18,1.11,-253.45260000000002,-58.5664,-87.5608,175,75
2026-05-07 18:38:02.930,4,0.02,-0.14,1.15,-250.3426,-46.5564,-78.0508,175,75
2026-05-07 18:38:02.949,4,-0.09,-0.07,1.3,-241.5026,-28.6264,-71.1608,175,75
2026-05-07 18:38:02.962,4,-0.19,0.03,1.41,-227.3026,-39.3564,-71.8908,175,75
2026-05-07 18:38:02.962,4,-0.29,0.09,1.51,-209.3726,-58.6864,-79.51079999999999,175,75
2026-05-07 18:38:02.993,4,-0.44,0.18,1.65,-163.2126,-123.8064,-94.5808,175,75
2026-05-07 18:38:03.004,4,-0.62,0.16,1.68,-137.8426,-168.1964,-93.4208,175,75
2026-05-07 18:38:03.027,4,-1.12,-0.06,1.66,-57.2326,-239.9064,-68.8408,175,75
2026-05-07 18:38:03.037,4,-1.5,-0.08,1.74,-14.372599999999998,-252.4664,-51.95080000000001,175,75
2026-05-07 18:38:03.050,4,-1.93,-0.02,1.89,50.5674,-316.7364,-32.8108,175,75
2026-05-07 18:38:03.065,4,-1.89,-0.05,1.9,102.0874,-368.8064,-30.0608,175,75
2026-05-07 18:38:03.076,4,-1.71,-0.12,1.85,144.8974,-414.7264,-29.7008,175,75
2026-05-07 18:38:03.090,4,-1.62,-0.23,1.74,187.3974,-445.3364,-17.8108,175,75
2026-05-07 18:38:03.102,4,-1.57,-0.42,1.53,250.2574,-413.0164,27.379199999999997,175,75
2026-05-07 18:38:03.102,4,-1.41,-0.67,1.39,301.5474,-343.1964,65.3592,175,75
2026-05-07 18:38:03.145,4,-1.13,-1.04,1.37,359.4074,-241.0664,109.01920000000001,175,75
2026-05-07 18:38:03.181,4,-1.13,-1.67,2.04,511.4174,-130.57639999999998,324.74920000000003,175,75
2026-05-07 18:38:03.188,4,-1.24,-2.83,1.75,567.8874,-326.7364,441.0992,175,75
2026-05-07 18:38:03.212,4,-2.63,-7.26,0.92,860.0174,-531.1864,323.1692,175,75
2026-05-07 18:38:03.232,4,-1.54,-8.76,0.45,680.0174,-131.1264,209.32920000000001,175,75
2026-05-07 18:38:03.233,4,-0.25,-8.29,0.43,668.9174,-129.1764,236.7692,175,75
2026-05-07 18:38:03.251,4,0.34,-7.92,0.46,654.8974,-237.4064,323.6592,175,75
2026-05-07 18:38:03.266,4,-0.27,-7.46,0.36,636.4774,-347.3464,328.9592,175,75
2026-05-07 18:38:03.270,4,-1.03,-6.6,-0.04,533.0074,-318.4464,262.8592,175,75
2026-05-07 18:38:03.286,4,-1.01,-5.03,-0.45,366.4774,-270.69640000000004,156.7692,175,75
2026-05-07 18:38:03.286,4,-0.68,-3.55,-0.74,226.9674,-311.9164,67.2492,175,75
2026-05-07 18:38:03.328,4,-0.93,-2.52,-0.67,140.2574,-285.27639999999997,-35.610800000000005,175,75
2026-05-07 18:38:03.328,4,-0.52,-1.8,-0.46,120.8674,-69.6664,-102.5608,175,75
2026-05-07 18:38:03.359,4,0.99,-1.24,0.08,222.1574,-117.8364,-110.1908,175,75
2026-05-07 18:38:03.360,4,0.43,-0.92,0.11,273.6174,-190.75639999999999,-132.9908,175,75
2026-05-07 18:38:03.384,4,0.25,-0.59,-0.14,308.5574,-273.6864,-225.4908,175,75
2026-05-07 18:38:03.384,4,1.76,0.1,0.03,243.1274,-400.5164,-209.64079999999998,175,75
2026-05-07 18:38:03.384,4,-0.41,0.77,-0.89,140.8674,-480.0864,-114.27080000000001,175,75
2026-05-07 18:38:03.395,4,-1.0,0.65,-1.25,140.5074,-370.8264,-242.62079999999997,175,75
2026-05-07 18:38:03.409,4,-0.69,0.53,-1.33,194.7174,33.7536,-125.73079999999999,175,75
2026-05-07 18:38:03.488,4,-0.17,0.71,-0.33,34.1074,-272.1064,-168.11079999999998,175,75
2026-05-07 18:38:03.500,4,-1.21,0.53,-1.29,1.2974000000000006,-288.9364,-160.80079999999998,175,75
2026-05-07 18:38:03.549,4,-1.43,1.04,-0.52,-89.3126,505.58360000000005,-36.5308,175,75
2026-05-07 18:38:03.556,4,-0.81,0.74,0.07,-69.61259999999999,456.1336,-30.6708,175,75
2026-05-07 18:38:03.556,4,-0.1,0.14,0.35,-72.6026,269.2436,-72.26079999999999,175,75
2026-05-07 18:38:03.579,4,-0.74,0.09,0.61,-100.4126,78.6336,-127.3808,175,75
2026-05-07 18:38:03.616,4,-0.9,0.48,0.05,-139.86260000000001,-112.5264,-169.58079999999998,175,75
2026-05-07 18:38:03.626,4,-3.95,0.56,0.23,-143.3326,-211.7964,-30.3108,175,75
2026-05-07 18:38:03.649,4,-1.1,-0.18,1.98,-54.1926,-496.9764,-216.1008,175,75
2026-05-07 18:38:03.660,4,-0.39,0.22,1.9,-172.2426,-619.4164,-130.9808,175,75
2026-05-07 18:38:03.685,4,-0.19,0.02,-0.8,-351.56260000000003,-474.9064,-105.6108,175,75
2026-05-07 18:38:03.718,4,0.92,-1.91,-1.98,-273.2126,-99.0564,94.0792,175,75
2026-05-07 18:38:03.718,4,1.1,-2.67,-1.77,-299.8626,-36.4364,248.8392,175,75
2026-05-07 18:38:03.718,4,0.59,-3.02,-1.24,-350.8326,177.2836,404.0192,175,75
2026-05-07 18:38:03.763,4,0.8,-3.21,-0.42,-398.8826,394.8436,298.8992,175,75
2026-05-07 18:38:03.794,4,0.81,-4.29,0.69,-412.4226,428.5636,180.2992,175,75
2026-05-07 18:38:03.815,4,0.18,-5.99,0.66,-434.00260000000003,366.1336,-20.430800000000005,175,75
2026-05-07 18:38:03.827,4,0.18,-6.83,0.99,-481.56260000000003,397.8936,-200.2508,175,75
2026-05-07 18:38:03.839,4,0.06,-6.24,1.43,-507.84260000000006,482.95360000000005,-253.05079999999998,175,75
2026-05-07 18:38:03.839,4,-0.11,-5.62,1.87,-465.7126,530.8836,-305.3708,175,75
2026-05-07 18:38:03.880,4,0.32,-4.45,3.27,-363.5826,170.1536,-380.1208,175,75
2026-05-07 18:38:03.890,4,0.3,-3.99,3.12,-428.6426,25.523600000000002,-346.5908,175,75
2026-05-07 18:38:03.901,4,0.12,-3.44,2.55,-524.6726,-106.6164,-294.5108,175,75
2026-05-07 18:38:03.923,4,-0.69,-2.66,1.37,-576.1426,-71.4964,-223.17079999999999,175,75
2026-05-07 18:38:03.923,4,-0.83,-2.22,1.03,-546.8126,58.9336,-203.9008,175,75
2026-05-07 18:38:03.947,4,-0.75,-1.55,1.18,-444.1326,238.3836,-179.9408,175,75
2026-05-07 18:38:03.947,4,-0.72,-1.3,1.41,-388.3326,251.3736,-175.4908,175,75
2026-05-07 18:38:03.949,4,-0.68,-1.06,1.6,-331.9326,218.7536,-181.4008,175,75
2026-05-07 18:38:03.984,4,-0.88,-0.4,1.72,-230.95260000000002,-4.0564,-246.1008,175,75
2026-05-07 18:38:04.006,4,-1.38,0.44,1.36,-218.76260000000002,-65.15639999999999,-22.3808,175,75
2026-05-07 18:38:04.011,4,-1.38,0.31,1.21,-185.95260000000002,-41.0064,-57.9308,175,75
2026-05-07 18:38:04.041,4,-1.26,0.4,1.32,-133.76260000000002,-25.4564,-39.6408,175,75
2026-05-07 18:38:04.045,4,-1.34,0.46,1.36,-123.27260000000001,-11.436399999999999,-29.0908,175,75
2026-05-07 18:38:04.069,4,-1.34,0.47,1.4,-117.30260000000001,-9.476399999999998,-35.9808,175,75
2026-05-07 18:38:04.082,4,-1.29,0.47,1.42,-109.3126,-13.136399999999998,-43.110800000000005,175,75
2026-05-07 18:38:04.094,4,-1.23,0.34,1.35,-74.80260000000001,-19.056399999999996,-54.510799999999996,175,75
2026-05-07 18:38:04.109,4,-1.19,0.33,1.35,-51.1426,-1.5564,-63.480799999999995,175,75
2026-05-07 18:38:04.121,4,-1.19,0.36,1.38,-34.9826,7.893599999999999,-68.4208,175,75
2026-05-07 18:38:04.144,4,-1.16,0.4,1.41,-23.0926,8.383600000000001,-71.5308,175,75
2026-05-07 18:38:04.168,4,-1.1,0.43,1.4,0.6274000000000002,-10.156399999999998,-80.98079999999999,175,75
2026-05-07 18:38:04.178,4,-1.07,0.41,1.38,9.7774,-16.8564,-84.4508,175,75
2026-05-07 18:38:04.178,4,-1.01,0.38,1.36,20.3274,-20.7564,-87.6908,175,75
2026-05-07 18:38:04.190,4,-1.0,0.36,1.32,25.5674,-33.5664,-93.1708,175,75
2026-05-07 18:38:04.213,4,-1.06,0.33,1.18,46.9674,-46.3064,-98.3608,175,75
2026-05-07 18:38:04.226,4,-1.08,0.32,1.17,58.9774,-42.526399999999995,-94.82079999999999,175,75
2026-05-07 18:38:04.284,4,-1.08,0.3,1.27,79.9574,-34.1764,-75.3108,175,75
2026-05-07 18:38:04.310,4,-0.54,0.05,1.08,254.1674,-69.60640000000001,-2.7508,175,75
2026-05-07 18:38:04.344,4,-0.47,-0.12,1.06,297.7674,-92.8964,2.0092,175,75
2026-05-07 18:38:04.356,4,-0.63,-0.38,1.07,351.2374,-121.43639999999999,12.799199999999999,175,75
2026-05-07 18:38:04.378,4,-0.8,-0.54,1.12,443.6174,-202.3464,39.0192,175,75
2026-05-07 18:38:04.378,4,-0.88,-0.65,1.13,514.0474,-286.9164,71.0292,175,75
2026-05-07 18:38:04.388,4,-0.68,-1.35,1.04,665.5074,-452.7164,201.5192,175,75
2026-05-07 18:38:04.425,4,-0.66,-3.25,1.02,782.0874,-632.2264,335.6692,175,75
2026-05-07 18:38:04.440,4,-1.31,-5.08,1.16,896.9073999999999,-837.5864,140.1192,175,75
2026-05-07 18:38:04.485,4,-2.6,-5.55,-1.19,629.2874,-606.5564,-395.6708,175,75
2026-05-07 18:38:04.495,4,-0.63,-5.41,-1.22,812.8274,-277.1064,-298.7208,175,75
2026-05-07 18:38:04.506,4,-0.75,-5.13,-0.74,828.3674,-277.1664,-257.2608,175,75
2026-05-07 18:38:04.506,4,-0.64,-4.69,-0.17,781.2974,-268.8664,-234.0308,175,75
2026-05-07 18:38:04.517,4,0.29,-4.27,0.05,662.3974,-252.7164,-177.4408,175,75
2026-05-07 18:38:04.535,4,0.91,-3.98,-0.22,559.1674,-332.4664,-140.67079999999999,175,75
2026-05-07 18:38:04.555,4,-0.72,-3.72,-0.9,405.4474,-388.0764,-219.58079999999998,175,75
2026-05-07 18:38:04.584,4,-1.16,-0.96,-0.12,107.88740000000001,343.6336,-161.5308,175,75
2026-05-07 18:38:04.592,4,0.04,-0.41,0.45,154.2274,400.3336,-77.26079999999999,175,75
2026-05-07 18:38:04.604,4,0.75,-0.52,1.26,256.6074,271.4336,27.9892,175,75
2026-05-07 18:38:04.623,4,0.42,-1.64,1.57,274.2874,-79.5464,12.8592,175,75
2026-05-07 18:38:04.639,4,0.24,-1.81,1.05,202.0874,-191.4364,-13.420800000000002,175,75
2026-05-07 18:38:04.647,4,-0.19,-1.44,0.29,128.7974,-305.0864,-39.150800000000004,175,75
2026-05-07 18:38:04.688,4,-0.65,-0.94,-0.2,116.47739999999999,-347.7164,-55.4908,175,75
2026-05-07 18:38:04.699,4,-1.31,-0.44,-0.63,141.9074,-336.3664,-136.1008,175,75
2026-05-07 18:38:04.699,4,-1.62,-0.2,-0.78,177.4574,-262.52639999999997,-243.30079999999998,175,75
2026-05-07 18:38:04.710,4,0.57,0.33,-0.17,156.7874,-160.6364,-194.2108,175,75
2026-05-07 18:38:04.717,4,-0.86,1.25,-0.41,55.1974,-170.6364,-8.4808,175,75
2026-05-07 18:38:04.732,4,-0.45,1.12,-0.13,56.7274,-136.6164,-74.2708,175,75
2026-05-07 18:38:04.732,4,-0.35,0.88,-0.26,35.1374,-133.25639999999999,-9.2108,175,75
2026-05-07 18:38:04.752,4,-0.19,0.35,-0.52,37.3374,-143.8064,-24.8208,175,75
2026-05-07 18:38:04.752,4,-0.82,0.51,-0.63,5.2574000000000005,-67.40639999999999,-9.880799999999999,175,75
2026-05-07 18:38:04.763,4,-0.92,0.79,-0.68,-21.6926,45.2736,-1.8908000000000005,175,75
2026-05-07 18:38:04.784,4,-0.54,0.91,-0.82,-46.3826,177.8936,18.839199999999998,175,75
2026-05-07 18:38:04.831,4,-2.26,0.57,0.07,-46.7526,288.9936,89.8092,175,75
2026-05-07 18:38:04.834,4,-1.18,0.78,0.94,-44.7326,761.0036,76.0992,175,75
2026-05-07 18:38:04.897,4,-0.93,0.79,-0.55,-58.5226,-58.8064,-109.8808,175,75
2026-05-07 18:38:04.921,4,-1.05,0.26,0.61,-47.6026,287.3436,11.0292,175,75
2026-05-07 18:38:04.921,4,-0.03,-0.54,1.69,-100.77260000000001,309.4836,41.3992,175,75
2026-05-07 18:38:04.938,4,0.73,-0.21,2.66,-144.86260000000001,-139.78640000000001,-55.31080000000001,175,75
2026-05-07 18:38:04.955,4,0.96,0.1,2.04,-127.6626,-139.7264,-37.2008,175,75
2026-05-07 18:38:04.978,4,1.0,0.17,1.59,-121.3226,-82.5864,-30.6708,175,75
2026-05-07 18:38:05.063,4,0.27,0.5,2.02,-102.17259999999999,268.5036,56.5192,175,75
2026-05-07 18:38:05.087,4,0.08,-0.36,2.43,-45.2226,-86.9764,-31.470800000000004,175,75
2026-05-07 18:38:05.113,4,0.1,0.35,1.69,-39.3726,-317.9564,-96.65079999999999,175,75
2026-05-07 18:38:05.128,4,0.31,0.12,1.14,-42.3026,-172.1664,-75.73079999999999,175,75
2026-05-07 18:38:05.144,4,0.12,0.14,1.01,-67.11259999999999,-73.93639999999999,-80.9208,175,75
2026-05-07 18:38:05.144,4,-0.08,0.26,1.08,-81.6326,23.3836,-88.23079999999999,175,75
2026-05-07 18:38:05.155,4,-0.16,0.35,1.23,-79.49260000000001,115.58359999999999,-79.82079999999999,175,75
2026-05-07 18:38:05.178,4,-0.14,0.21,1.33,-68.8226,149.9736,-71.5308,175,75
2026-05-07 18:38:05.237,4,-0.08,-0.38,1.52,-56.812599999999996,160.3336,-73.54079999999999,175,75
2026-05-07 18:38:05.259,4,-0.04,-0.52,1.79,-97.8426,9.913600000000002,-180.80079999999998,175,75
2026-05-07 18:38:05.332,4,-0.05,-0.16,1.59,-121.93260000000001,-97.4664,-158.8408,175,75
2026-05-07 18:38:05.349,4,-0.06,-0.26,1.52,-137.8426,-79.90639999999999,-146.2208,175,75
2026-05-07 18:38:05.356,4,0.02,-0.16,1.56,-161.0826,-70.7564,-147.08079999999998,175,75
2026-05-07 18:38:05.367,4,0.36,0.09,1.6,-182.36260000000001,-70.4564,-143.9708,175,75
2026-05-07 18:38:05.447,4,0.4,0.08,1.4,-178.0326,-120.6964,-114.0308,175,75
2026-05-07 18:38:05.463,4,0.24,0.22,1.4,-182.9126,-99.9664,-102.9908,175,75
2026-05-07 18:38:05.463,4,0.1,0.18,1.28,-187.7226,-69.4164,-57.9908,175,75
2026-05-07 18:38:05.475,4,-0.11,0.15,1.36,-190.89260000000002,-56.5564,-64.0308,175,75
2026-05-07 18:38:05.500,4,-0.39,0.39,1.61,-174.3726,-89.5464,-78.60079999999999,175,75
2026-05-07 18:38:05.511,4,-1.11,0.59,1.25,-87.7826,-217.9564,-108.1108,175,75
2026-05-07 18:38:05.535,4,-1.9,0.27,1.51,-25.2226,-256.6764,-184.8208,175,75
2026-05-07 18:38:05.535,4,-2.44,0.43,1.62,-2.422599999999999,-287.5264,-210.55079999999998,175,75
2026-05-07 18:38:05.576,4,-2.16,0.06,1.75,153.9774,-302.7764,-194.5108,175,75
2026-05-07 18:38:05.576,4,-2.04,-0.13,1.7,197.1574,-326.4364,-173.7808,175,75
2026-05-07 18:38:05.586,4,-1.78,-0.28,1.58,238.79739999999998,-326.6764,-158.30079999999998,175,75
2026-05-07 18:38:05.586,4,-1.47,-0.42,1.41,291.4174,-325.39639999999997,-144.4508,175,75
2026-05-07 18:38:05.597,4,-1.22,-0.6,1.22,363.9174,-328.1964,-117.01079999999999,175,75
2026-05-07 18:38:05.617,4,-1.06,-0.92,0.99,470.3274,-330.1564,-48.6608,175,75
2026-05-07 18:38:05.638,4,-0.64,-3.55,0.77,718.2474,-484.3564,406.6992,175,75
2026-05-07 18:38:05.649,4,-2.88,-7.0,0.78,1004.9574,-977.1664,-114.39079999999998,175,75
2026-05-07 18:38:05.675,4,0.06,-9.46,-0.83,715.9374,-188.50639999999999,-164.7608,175,75
2026-05-07 18:38:05.688,4,0.76,-7.87,-1.16,686.2974,-391.1864,-92.62079999999999,175,75
2026-05-07 18:38:05.703,4,-0.98,-8.49,-1.46,941.9674,-523.8664,-26.830800000000004,175,75
2026-05-07 18:38:05.708,4,-2.5,-9.32,-1.2,945.5674,-364.8464,-14.3908,175,75
2026-05-07 18:38:05.731,4,-0.8,-7.6,-0.17,709.7774,-263.8664,-178.05079999999998,175,75
2026-05-07 18:38:05.743,4,0.32,-6.32,-0.34,563.6174,-435.8264,-62.010799999999996,175,75
2026-05-07 18:38:05.755,4,-0.63,-5.48,-0.49,528.6774,-691.2464,-83.4208,175,75
2026-05-07 18:38:05.761,4,-1.94,-4.78,-1.22,363.18739999999997,-791.5564,-122.6908,175,75
2026-05-07 18:38:05.776,4,-3.02,-3.49,-1.29,114.9574,-502.7164,-207.3208,175,75
2026-05-07 18:38:05.801,4,-0.43,-1.46,-1.17,-57.3626,-159.1164,-249.5808,175,75
2026-05-07 18:38:05.811,4,-0.76,-1.11,-1.3,3.1874000000000002,-271.6164,-243.4808,175,75
2026-05-07 18:38:05.835,4,-2.05,-0.61,-1.8,106.8474,-110.2164,-318.3008,175,75
2026-05-07 18:38:05.856,4,-2.2,-0.02,-1.2,206.60739999999998,356.0636,-411.2808,175,75
2026-05-07 18:38:05.867,4,-1.75,0.42,-0.53,261.5474,475.3336,-413.3608,175,75
2026-05-07 18:38:05.877,4,-0.44,1.69,0.58,91.8474,403.6336,22.6792,175,75
2026-05-07 18:38:05.888,4,-1.28,1.61,0.03,132.4574,323.8736,-146.3408,175,75
2026-05-07 18:38:05.910,4,-0.47,0.75,0.3,203.5574,93.1436,-88.3608,175,75
2026-05-07 18:38:05.936,4,-1.32,-0.27,-0.03,184.1674,-254.9064,-169.5108,175,75
2026-05-07 18:38:05.977,4,-1.84,1.12,-0.73,-65.71260000000001,-295.7564,-165.67079999999999,175,75
2026-05-07 18:38:05.988,4,-1.86,1.35,-0.8,-44.4326,-221.1264,-117.4408,175,75
2026-05-07 18:38:05.999,4,-1.9,1.18,-0.81,-44.1926,-129.84640000000002,-77.62079999999999,175,75
2026-05-07 18:38:06.009,4,-1.94,0.89,-0.72,-62.97259999999999,-4.116399999999999,-45.4908,175,75
2026-05-07 18:38:06.019,4,-1.47,0.68,-0.65,-92.30260000000001,106.9236,-32.0108,175,75
2026-05-07 18:38:06.036,4,-1.19,0.63,-0.54,-112.6026,146.9236,-30.000800000000005,175,75
2026-05-07 18:38:06.047,4,-1.15,0.55,-0.28,-131.20260000000002,182.7736,-26.2808,175,75
2026-05-07 18:38:06.047,4,-1.15,0.56,-0.25,-141.6326,185.0936,-27.620800000000003,175,75
2026-05-07 18:38:06.058,4,-1.43,0.54,-0.03,-150.95260000000002,199.24360000000001,-13.720799999999999,175,75
2026-05-07 18:38:06.068,4,-1.09,0.42,0.15,-158.3326,220.1536,13.1092,175,75
2026-05-07 18:38:06.080,4,-0.78,0.32,0.29,-152.48260000000002,152.7736,1.6991999999999994,175,75
2026-05-07 18:38:06.101,4,-1.04,0.17,0.36,-154.1926,-18.3264,-29.510800000000003,175,75
2026-05-07 18:38:06.112,4,-3.67,0.42,-0.24,-182.11260000000001,56.4336,57.6792,175,75
2026-05-07 18:38:06.134,4,3.09,-1.2,0.04,-159.5526,651.0636,-228.17079999999999,175,75
2026-05-07 18:38:06.134,4,3.2,-0.21,1.63,-288.2726,-439.2364,-77.9908,175,75
2026-05-07 18:38:06.173,4,0.62,0.12,0.46,-319.6726,-588.8664,-121.89079999999998,175,75
2026-05-07 18:38:06.173,4,0.16,-0.34,-0.37,-301.1426,-589.7864,-109.76079999999999,175,75
2026-05-07 18:38:06.186,4,0.38,-0.78,-1.14,-263.5226,-400.7564,28.1092,175,75
2026-05-07 18:38:06.210,4,1.31,-1.73,-1.09,-293.9426,26.983600000000003,208.7192,175,75
2026-05-07 18:38:06.221,4,1.84,-1.98,-0.58,-342.7826,161.8036,199.9392,175,75
2026-05-07 18:38:06.243,4,2.66,-2.43,0.18,-432.5426,254.36360000000002,164.8792,175,75
2026-05-07 18:38:06.266,4,2.37,-2.7,0.25,-494.9826,290.5836,199.9392,175,75
2026-05-07 18:38:06.276,4,1.96,-3.25,0.11,-521.6326,307.6536,199.2692,175,75
2026-05-07 18:38:06.287,4,1.01,-4.14,-0.14,-489.6726,320.4536,98.28920000000001,175,75
2026-05-07 18:38:06.297,4,0.59,-4.75,0.03,-420.1626,347.7136,-12.080800000000002,175,75
2026-05-07 18:38:06.319,4,-0.08,-4.57,1.11,-369.25260000000003,396.9236,-73.4208,175,75
2026-05-07 18:38:06.332,4,-0.39,-4.1,1.61,-360.7126,429.9136,-150.0008,175,75
2026-05-07 18:38:06.334,4,-0.33,-3.71,1.91,-357.3626,426.2536,-202.6208,175,75
2026-05-07 18:38:06.349,4,-0.3,-3.28,2.15,-352.3026,382.8336,-236.4008,175,75
2026-05-07 18:38:06.376,4,-0.28,-2.43,2.36,-347.7226,253.8736,-268.9008,175,75
2026-05-07 18:38:06.387,4,-0.34,-2.03,2.35,-358.4526,198.6336,-274.3308,175,75
2026-05-07 18:38:06.387,4,-0.43,-1.6,2.26,-359.9826,132.5936,-282.3808,175,75
2026-05-07 18:38:06.397,4,-0.57,-1.27,2.16,-349.8026,77.1036,-288.1108,175,75
2026-05-07 18:38:06.424,4,-0.89,-0.43,1.87,-262.7826,-23.8664,-312.6208,175,75
2026-05-07 18:38:06.449,4,-0.96,-0.04,1.72,-179.2526,-85.8264,-310.19079999999997,175,75
2026-05-07 18:38:06.460,4,-0.47,0.2,1.71,-166.0226,-102.9564,-247.87079999999997,175,75
2026-05-07 18:38:06.471,4,-0.46,0.56,1.65,-198.76260000000002,-133.32639999999998,-87.32079999999999,175,75
2026-05-07 18:38:06.482,4,-1.16,0.6,1.29,-203.5226,-106.9164,-4.700799999999999,175,75
2026-05-07 18:38:06.492,4,-1.33,0.22,1.08,-179.61260000000001,-35.886399999999995,-25.190800000000003,175,75
2026-05-07 18:38:06.517,4,-1.23,0.02,1.27,-118.0326,30.763600000000004,-45.8008,175,75
2026-05-07 18:38:06.517,4,-1.2,0.1,1.45,-94.86259999999999,33.9336,-49.8208,175,75
2026-05-07 18:38:06.538,4,-1.15,0.22,1.62,-78.33260000000001,-3.3263999999999996,-68.48079999999999,175,75
2026-05-07 18:38:06.555,4,-1.27,0.31,1.34,-63.1526,-62.4064,-85.1908,175,75
2026-05-07 18:38:06.565,4,-1.33,0.3,1.21,-51.4426,-51.5564,-87.87079999999999,175,75
2026-05-07 18:38:06.577,4,-1.35,0.29,1.13,-34.3726,-15.216399999999998,-93.3008,175,75
2026-05-07 18:38:06.611,4,-1.28,0.39,1.28,-10.102599999999999,31.0636,-93.54079999999999,175,75
2026-05-07 18:38:06.611,4,-1.32,0.41,1.38,-2.9125999999999994,24.843600000000002,-89.8808,175,75
2026-05-07 18:38:06.624,4,-1.38,0.41,1.47,4.957400000000001,13.933599999999998,-87.9908,175,75
2026-05-07 18:38:06.634,4,-1.42,0.41,1.53,10.1974,-3.2563999999999993,-89.9408,175,75
2026-05-07 18:38:06.646,4,-1.4,0.42,1.57,15.2574,-23.2564,-97.26079999999999,175,75
2026-05-07 18:38:06.660,4,-1.32,0.46,1.52,19.837400000000002,-47.776399999999995,-106.4108,175,75
2026-05-07 18:38:06.673,4,-1.24,0.48,1.43,26.4774,-75.0864,-113.60079999999999,175,75
2026-05-07 18:38:06.683,4,-1.2,0.49,1.33,32.9474,-89.7264,-118.17079999999999,175,75
2026-05-07 18:38:06.706,4,-1.16,0.46,1.21,44.7174,-87.40639999999999,-125.55079999999998,175,75
2026-05-07 18:38:06.716,4,-1.13,0.44,1.15,52.4574,-81.9164,-124.58079999999998,175,75
2026-05-07 18:38:06.727,4,-1.06,0.4,1.1,62.1574,-71.5564,-118.7808,175,75
2026-05-07 18:38:06.739,4,-0.93,0.34,1.0,79.10740000000001,-55.6964,-100.6108,175,75
2026-05-07 18:38:06.750,4,-0.89,0.29,0.95,108.1874,-32.526399999999995,-81.4708,175,75
2026-05-07 18:38:06.761,4,-0.65,0.28,0.97,152.2774,-0.4563999999999986,-67.32079999999999,175,75
2026-05-07 18:38:06.784,4,-0.26,0.08,1.05,274.5274,3.1435999999999993,-43.3008,175,75
2026-05-07 18:38:06.796,4,-0.39,-0.07,1.11,333.49739999999997,-15.636399999999998,-31.3408,175,75
2026-05-07 18:38:06.808,4,-0.63,-0.14,1.24,383.0674,-40.3364,-12.010800000000001,175,75
2026-05-07 18:38:06.822,4,-0.81,-0.15,1.33,449.3474,-101.3064,27.6192,175,75
2026-05-07 18:38:06.832,4,-0.9,-0.28,1.32,524.8374,-213.3264,95.6692,175,75
2026-05-07 18:38:06.843,4,-0.92,-0.71,1.27,629.4073999999999,-358.3864,209.5092,175,75
2026-05-07 18:38:06.850,4,-0.76,-1.34,1.35,709.2274,-491.9764,347.7992,175,75
2026-05-07 18:38:06.868,4,-0.52,-2.39,1.52,762.5174,-655.9464,513.1092,175,75
2026-05-07 18:38:06.879,4,-0.87,-5.78,2.21,975.9974,-1058.7464,133.4692,175,75
2026-05-07 18:38:06.891,4,-2.59,-7.55,1.81,1063.1874,-1062.7764000000002,-8.780800000000001,175,75
2026-05-07 18:38:06.908,4,-1.3,-7.89,0.33,867.3374,-784.2964,11.9492,175,75
2026-05-07 18:38:06.920,4,-2.03,-7.2,-0.26,726.8474,-880.9464,-105.4908,175,75
2026-05-07 18:38:06.931,4,-3.75,-6.78,-1.16,784.2874,-713.3264,-284.0908,175,75
2026-05-07 18:38:06.931,4,-3.82,-7.64,-1.8,874.2874,-493.5064,-384.8208,175,75
2026-05-07 18:38:06.946,4,-2.88,-8.83,-2.19,933.3074,-291.3664,-400.7308,175,75
2026-05-07 18:38:06.966,4,0.12,-6.04,-1.54,820.0174,-81.12639999999999,-163.9008,175,75
2026-05-07 18:38:06.976,4,0.15,-4.94,-0.94,790.7474,-215.75639999999999,-158.7808,175,75
2026-05-07 18:38:06.994,4,0.15,-4.12,-0.8,669.8974,-243.8064,-102.5608,175,75
2026-05-07 18:38:28.306,4,-0.66,-0.85,0.67,-226.9926,122.71360000000001,-96.9508,175,75
2026-05-07 18:38:28.344,4,-0.68,-0.52,0.82,-208.1526,95.3936,-75.6108,175,75
2026-05-07 18:38:28.356,4,-0.72,-0.46,0.77,-179.7426,68.0836,-68.9708,175,75
2026-05-07 18:38:28.405,4,-0.72,-0.43,0.68,-154.2526,61.983599999999996,-58.84080000000001,175,75
2026-05-07 18:38:28.413,4,-0.72,-0.38,0.69,-131.7526,64.42360000000001,-53.84080000000001,175,75
2026-05-07 18:38:28.423,4,-0.72,-0.34,0.74,-117.9726,59.363600000000005,-52.750800000000005,175,75
2026-05-07 18:38:28.434,4,-0.7,-0.29,0.78,-106.6926,50.333600000000004,-51.7708,175,75
2026-05-07 18:38:28.446,4,-0.68,-0.21,0.84,-92.23259999999999,28.083600000000004,-46.5308,175,75
2026-05-07 18:38:28.458,4,-0.67,-0.17,0.87,-85.1026,13.503599999999999,-42.500800000000005,175,75
2026-05-07 18:38:28.481,4,-0.67,-0.13,0.87,-70.5926,-10.7564,-34.0308,175,75
2026-05-07 18:38:28.515,4,-0.64,-0.08,0.85,-45.4726,-41.1864,-18.480800000000002,175,75
2026-05-07 18:38:28.529,4,-0.61,-0.05,0.84,-38.0326,-43.5064,-16.040799999999997,175,75
2026-05-07 18:38:28.529,4,-0.59,-0.02,0.84,-29.552599999999998,-47.2264,-11.7108,175,75
2026-05-07 18:38:28.541,4,-0.59,0.0,0.84,-23.0926,-50.636399999999995,-7.440800000000001,175,75
2026-05-07 18:38:28.561,4,-0.6,0.02,0.84,-12.662600000000001,-52.8364,-2.1408000000000005,175,75
2026-05-07 18:38:28.564,4,-0.6,0.03,0.82,-1.5025999999999993,-54.4764,3.8392,175,75
2026-05-07 18:38:28.576,4,-0.6,0.03,0.82,11.6674,-55.9464,10.6092,175,75
2026-05-07 18:38:28.594,4,-0.59,0.03,0.82,22.2774,-56.9764,16.0992,175,75
2026-05-07 18:38:28.594,4,-0.6,0.02,0.8,34.407399999999996,-57.4664,22.3792,175,75
2026-05-07 18:38:28.603,4,-0.58,0.01,0.8,47.0274,-57.0464,28.1092,175,75
2026-05-07 18:38:28.617,4,-0.56,0.01,0.8,60.2674,-57.106399999999994,34.0192,175,75
2026-05-07 18:38:28.667,4,-0.49,-0.18,0.74,133.85739999999998,-60.3964,58.0492,175,75
2026-05-07 18:38:28.667,4,-0.5,-0.26,0.72,161.9074,-60.6964,67.3092,175,75
2026-05-07 18:38:28.685,4,-0.5,-0.35,0.71,189.2274,-62.1064,77.3092,175,75
2026-05-07 18:38:28.706,4,-0.44,-0.6,0.65,244.9574,-75.15639999999999,100.1192,175,75
2026-05-07 18:38:28.775,4,-0.52,-0.83,0.59,317.2774,-118.8664,70.4892,175,75
2026-05-07 18:38:28.786,4,-0.53,-0.84,0.62,315.5074,-119.9664,61.7692,175,75
2026-05-07 18:38:28.830,4,-0.51,-0.82,0.57,274.2874,-97.8364,56.5192,175,75
2026-05-07 18:38:28.863,4,-0.35,-0.94,0.47,246.0574,-37.9564,52.7392,175,75
2026-05-07 18:38:28.881,4,-0.38,-0.98,0.43,228.2474,-21.8564,48.0492,175,75
2026-05-07 18:38:28.891,4,-0.53,-0.92,0.38,185.8674,12.833600000000004,27.9192,175,75
2026-05-07 18:38:28.942,4,-0.6,-0.58,0.45,99.9574,41.4936,14.9992,175,75
2026-05-07 18:38:28.961,4,-0.61,-0.54,0.5,70.26740000000001,66.7436,24.139200000000002,175,75
2026-05-07 18:38:28.971,4,-0.61,-0.53,0.53,59.0474,76.4336,25.6092,175,75
2026-05-07 18:38:28.983,4,-0.63,-0.51,0.57,47.5174,84.1136,24.569200000000002,175,75
2026-05-07 18:38:29.009,4,-0.61,-0.42,0.65,28.1274,84.2436,19.3292,175,75
2026-05-07 18:38:29.039,4,-0.54,-0.26,0.71,6.3574,49.2436,10.6692,175,75
2026-05-07 18:38:29.048,4,-0.53,-0.23,0.7,0.6874000000000002,36.7436,7.2492,175,75
2026-05-07 18:38:29.060,4,-0.53,-0.2,0.69,-4.8026,27.9536,4.0792,175,75
2026-05-07 18:38:29.073,4,-0.52,-0.16,0.67,-12.842600000000001,19.2436,-0.4307999999999996,175,75
2026-05-07 18:38:29.083,4,-0.52,-0.13,0.65,-19.2526,16.193600000000004,-3.0508000000000006,175,75
2026-05-07 18:38:29.094,4,-0.52,-0.12,0.64,-24.3726,16.0036,-5.310799999999999,175,75
2026-05-07 18:38:29.103,4,-0.52,-0.11,0.63,-27.782600000000002,18.083600000000004,-7.9308,175,75
2026-05-07 18:38:29.116,4,-0.52,-0.12,0.63,-30.4726,19.913600000000002,-9.940800000000001,175,75
2026-05-07 18:38:29.154,4,-0.56,-0.19,0.62,-34.4326,26.2536,-18.360800000000005,175,75
2026-05-07 18:38:29.165,4,-0.57,-0.22,0.61,-34.4326,27.7136,-20.730800000000002,175,75
2026-05-07 18:38:29.177,4,-0.58,-0.26,0.6,-34.4326,30.0336,-23.1708,175,75
2026-05-07 18:38:29.177,4,-0.58,-0.31,0.59,-32.9726,33.3236,-26.1008,175,75
2026-05-07 18:38:29.188,4,-0.58,-0.34,0.58,-31.632599999999996,35.1536,-28.6008,175,75
2026-05-07 18:38:29.223,4,-0.58,-0.44,0.58,-31.812599999999996,40.333600000000004,-42.5608,175,75
2026-05-07 18:38:29.235,4,-0.59,-0.45,0.59,-33.7026,37.593599999999995,-48.3008,175,75
2026-05-07 18:38:29.235,4,-0.61,-0.45,0.61,-35.9526,34.723600000000005,-53.3008,175,75
2026-05-07 18:38:29.246,4,-0.62,-0.45,0.64,-39.312599999999996,30.4536,-60.000800000000005,175,75
2026-05-07 18:38:29.258,4,-0.62,-0.45,0.67,-43.2726,24.4236,-64.2708,175,75
2026-05-07 18:38:29.271,4,-0.64,-0.44,0.7,-50.0426,12.8936,-67.01079999999999,175,75
2026-05-07 18:38:29.282,4,-0.66,-0.44,0.73,-56.562599999999996,-1.436399999999999,-67.93079999999999,175,75
2026-05-07 18:38:29.294,4,-0.66,-0.47,0.73,-61.8726,-14.786399999999999,-68.7808,175,75
2026-05-07 18:38:29.302,4,-0.65,-0.51,0.72,-66.3226,-25.696399999999997,-69.5808,175,75
2026-05-07 18:38:29.381,4,-0.65,-0.65,0.64,-112.9126,-49.0564,-70.2508,175,75
2026-05-07 18:38:29.391,4,-0.66,-0.64,0.64,-121.6926,-49.8464,-69.0308,175,75
2026-05-07 18:38:29.400,4,-0.67,-0.63,0.63,-127.9126,-49.2964,-67.3808,175,75
2026-05-07 18:38:29.426,4,-0.7,-0.6,0.63,-139.98260000000002,-42.5864,-61.220800000000004,175,75
2026-05-07 18:38:29.433,4,-0.7,-0.58,0.63,-144.67260000000002,-36.7964,-56.280800000000006,175,75
2026-05-07 18:38:29.476,4,-0.69,-0.57,0.62,-151.26260000000002,-14.476399999999998,-40.1208,175,75
2026-05-07 18:38:29.487,4,-0.68,-0.56,0.63,-151.9926,-6.796399999999998,-36.7708,175,75
2026-05-07 18:38:29.499,4,-0.66,-0.55,0.64,-152.2426,-0.8863999999999983,-33.970800000000004,175,75
2026-05-07 18:38:29.510,4,-0.65,-0.54,0.64,-151.8126,3.9936000000000007,-30.550800000000002,175,75
2026-05-07 18:38:29.517,4,-0.65,-0.52,0.65,-150.2226,9.303600000000003,-26.650800000000004,175,75
2026-05-07 18:38:29.545,4,-0.58,-0.57,0.66,-140.95260000000002,15.6436,-18.8408,175,75
2026-05-07 18:38:29.552,4,-0.56,-0.64,0.68,-134.67260000000002,13.873600000000003,-17.690800000000003,175,75
2026-05-07 18:38:29.594,4,-0.61,-0.69,0.71,-109.55260000000001,-0.4563999999999986,-27.260800000000003,175,75
2026-05-07 18:38:29.605,4,-0.66,-0.62,0.73,-96.08260000000001,-13.386399999999998,-32.500800000000005,175,75
2026-05-07 18:38:29.605,4,-0.67,-0.53,0.74,-86.14259999999999,-24.726399999999998,-37.5608,175,75
2026-05-07 18:38:29.670,4,-0.36,0.02,0.73,-55.0426,-40.276399999999995,-14.7008,175,75
2026-05-07 18:38:29.683,4,-0.33,0.08,0.72,-46.2626,-17.5264,-5.2508,175,75
2026-05-07 18:38:29.693,4,-0.33,0.09,0.73,-39.312599999999996,2.223600000000001,-0.9208000000000016,175,75
2026-05-07 18:38:29.708,4,-0.34,0.07,0.73,-33.8226,16.3136,3.2292000000000005,175,75
2026-05-07 18:38:29.720,4,-0.37,0.03,0.74,-26.9926,31.9236,8.4092,175,75
2026-05-07 18:38:29.729,4,-0.42,-0.04,0.75,-20.1626,44.78360000000001,14.0792,175,75
2026-05-07 18:38:29.748,4,-0.49,-0.19,0.75,-6.262599999999999,54.843599999999995,21.0292,175,75
2026-05-07 18:38:29.754,4,-0.52,-0.27,0.75,1.9674000000000005,55.8836,22.5592,175,75
2026-05-07 18:38:29.768,4,-0.53,-0.34,0.76,12.6974,55.643600000000006,24.199199999999998,175,75
2026-05-07 18:38:29.798,4,-0.52,-0.46,0.76,33.1274,44.483599999999996,25.6692,175,75
2026-05-07 18:38:29.822,4,-0.49,-0.47,0.75,46.2374,33.3236,19.8092,175,75
2026-05-07 18:38:29.834,4,-0.47,-0.43,0.76,50.0774,27.343600000000002,16.3992,175,75
2026-05-07 18:38:29.861,4,-0.44,-0.21,0.79,51.7874,3.4436000000000035,19.8792,175,75
2026-05-07 18:38:29.882,4,-0.48,-0.16,0.76,55.1974,0.45360000000000156,27.129199999999997,175,75
2026-05-07 18:38:29.906,4,-0.48,-0.16,0.77,58.7374,7.5336,33.0492,175,75
2026-05-07 18:38:29.916,4,-0.49,-0.16,0.79,61.0574,9.543599999999998,35.1192,175,75
2026-05-07 18:38:29.939,4,-0.5,-0.2,0.81,69.4074,1.803600000000003,38.5292,175,75
2026-05-07 18:38:29.951,4,-0.5,-0.22,0.81,72.82740000000001,-6.6763999999999974,39.1392,175,75
2026-05-07 18:38:29.962,4,-0.51,-0.25,0.8,77.0274,-19.1764,39.9392,175,75
2026-05-07 18:38:29.974,4,-0.53,-0.28,0.77,81.47739999999999,-30.086399999999998,39.8092,175,75
2026-05-07 18:38:29.996,4,-0.55,-0.3,0.7,90.6274,-41.6164,39.9992,175,75
2026-05-07 18:38:30.010,4,-0.55,-0.31,0.68,95.7474,-40.4564,41.5192,175,75
2026-05-07 18:38:30.021,4,-0.53,-0.34,0.68,99.5874,-36.5564,42.2492,175,75
2026-05-07 18:38:30.032,4,-0.49,-0.35,0.7,101.9074,-36.0664,42.9192,175,75
2026-05-07 18:38:30.038,4,-0.5,-0.36,0.71,103.1874,-38.0164,43.2892,175,75
2026-05-07 18:38:30.054,4,-0.5,-0.39,0.72,105.13740000000001,-40.886399999999995,43.0492,175,75
2026-05-07 18:38:30.064,4,-0.5,-0.41,0.72,106.1174,-44.666399999999996,42.4392,175,75
2026-05-07 18:38:30.079,4,-0.5,-0.43,0.72,107.94739999999999,-54.9664,41.0292,175,75
2026-05-07 18:38:30.114,4,-0.46,-0.44,0.71,109.5274,-58.9364,39.9992,175,75
2026-05-07 18:38:30.125,4,-0.43,-0.45,0.71,108.85740000000001,-60.1564,39.3292,175,75
2026-05-07 18:38:30.141,4,-0.43,-0.45,0.71,106.1174,-65.15639999999999,34.8792,175,75
2026-05-07 18:38:30.152,4,-0.43,-0.44,0.72,105.01740000000001,-67.10640000000001,32.4992,175,75
2026-05-07 18:38:30.165,4,-0.42,-0.43,0.72,103.4374,-69.90639999999999,30.6692,175,75
2026-05-07 18:38:30.185,4,-0.42,-0.41,0.7,99.7774,-73.7464,28.4692,175,75
2026-05-07 18:38:30.197,4,-0.43,-0.41,0.67,97.1574,-71.9764,27.7392,175,75
2026-05-07 18:38:30.207,4,-0.42,-0.4,0.67,95.01740000000001,-68.13640000000001,26.519199999999998,175,75
2026-05-07 18:38:30.219,4,-0.42,-0.4,0.67,92.63740000000001,-62.776399999999995,26.3992,175,75
2026-05-07 18:38:30.229,4,-0.4,-0.39,0.67,89.3474,-57.4664,25.5492,175,75
2026-05-07 18:38:30.240,4,-0.39,-0.4,0.68,86.9674,-54.2364,25.2992,175,75
2026-05-07 18:38:30.247,4,-0.37,-0.41,0.68,83.4974,-50.8264,23.9592,175,75
2026-05-07 18:38:30.264,4,-0.37,-0.41,0.68,80.01740000000001,-49.2964,21.769199999999998,175,75
2026-05-07 18:38:30.278,4,-0.37,-0.42,0.69,75.44739999999999,-48.6864,17.9892,175,75
2026-05-07 18:38:30.302,4,-0.36,-0.4,0.7,68.06739999999999,-50.4564,13.049199999999999,175,75
2026-05-07 18:38:30.322,4,-0.38,-0.4,0.7,59.7774,-52.8964,9.8092,175,75
2026-05-07 18:38:30.333,4,-0.39,-0.41,0.7,55.8674,-53.5664,7.8591999999999995,175,75
2026-05-07 18:38:30.335,4,-0.39,-0.42,0.71,51.5474,-55.026399999999995,5.969200000000001,175,75
2026-05-07 18:38:30.376,4,-0.41,-0.38,0.7,35.7474,-60.9464,-0.4307999999999996,175,75
2026-05-07 18:38:30.387,4,-0.42,-0.37,0.68,32.0874,-60.8264,-0.5508000000000006,175,75
2026-05-07 18:38:30.399,4,-0.43,-0.35,0.66,29.107400000000002,-58.4464,-0.4307999999999996,175,75
2026-05-07 18:38:30.427,4,-0.47,-0.35,0.61,24.2874,-45.2164,7.0092,175,75
2026-05-07 18:38:30.438,4,-0.47,-0.37,0.58,23.6774,-36.6164,11.8292,175,75
2026-05-07 18:38:30.446,4,-0.48,-0.4,0.57,23.1274,-28.8664,14.7492,175,75
2026-05-07 18:38:30.481,4,-0.44,-0.58,0.45,25.197400000000002,8.9936,29.449199999999998,175,75
2026-05-07 18:38:30.511,4,-0.39,-0.63,0.37,17.3974,65.1536,12.6192,175,75
2026-05-07 18:38:30.522,4,-0.41,-0.51,0.4,7.157400000000001,84.9736,3.3491999999999997,175,75
2026-05-07 18:38:30.529,4,-0.4,-0.36,0.49,-7.5426,103.87360000000001,-3.4208000000000016,175,75
2026-05-07 18:38:30.552,4,-0.43,-0.18,0.6,-26.3226,114.4836,-5.610799999999999,175,75
2026-05-07 18:38:30.552,4,-0.47,-0.08,0.67,-40.5326,116.06360000000001,-5.9808,175,75
2026-05-07 18:38:30.561,4,-0.52,-0.05,0.72,-53.5226,115.0336,-7.1408000000000005,175,75
2026-05-07 18:38:30.580,4,-0.56,-0.06,0.77,-65.6526,110.27359999999999,-10.490799999999998,175,75
2026-05-07 18:38:30.591,4,-0.59,-0.11,0.8,-79.98259999999999,104.84360000000001,-15.190800000000001,175,75
2026-05-07 18:38:30.602,4,-0.63,-0.16,0.82,-93.58260000000001,102.83359999999999,-18.050800000000002,175,75
2026-05-07 18:38:30.612,4,-0.64,-0.21,0.82,-101.14259999999999,101.80359999999999,-20.0608,175,75
2026-05-07 18:38:30.616,4,-0.65,-0.26,0.81,-107.17259999999999,100.9436,-21.5908,175,75
2026-05-07 18:38:30.637,4,-0.65,-0.35,0.81,-111.14259999999999,99.24360000000001,-24.150800000000004,175,75
2026-05-07 18:38:30.637,4,-0.65,-0.44,0.81,-113.8226,96.5536,-27.080800000000004,175,75
2026-05-07 18:38:30.646,4,-0.64,-0.53,0.81,-116.4426,92.5336,-30.370800000000003,175,75
2026-05-07 18:38:30.662,4,-0.65,-0.61,0.8,-119.2526,88.0836,-34.4508,175,75
2026-05-07 18:38:30.684,4,-0.69,-0.76,0.79,-121.6926,75.4536,-47.5608,175,75
2026-05-07 18:38:30.684,4,-0.7,-0.78,0.8,-122.23259999999999,65.5236,-55.860800000000005,175,75
2026-05-07 18:38:30.706,4,-0.69,-0.77,0.79,-121.8726,28.023600000000002,-80.8608,175,75
2026-05-07 18:38:30.716,4,-0.69,-0.74,0.77,-120.4726,10.153600000000004,-86.8308,175,75
2026-05-07 18:38:30.745,4,-0.67,-0.63,0.71,-118.27260000000001,-28.996399999999998,-92.87079999999999,175,75
2026-05-07 18:38:30.745,4,-0.68,-0.58,0.68,-119.3726,-37.2264,-90.98079999999999,175,75
2026-05-07 18:38:30.764,4,-0.68,-0.53,0.65,-120.2226,-40.2164,-87.26079999999999,175,75
2026-05-07 18:38:30.769,4,-0.68,-0.49,0.64,-120.2226,-40.6964,-82.26079999999999,175,75
2026-05-07 18:38:30.789,4,-0.67,-0.45,0.64,-119.55260000000001,-40.3964,-76.5308,175,75
2026-05-07 18:38:30.821,4,-0.68,-0.38,0.69,-120.77260000000001,-41.9764,-62.4408,175,75
2026-05-07 18:38:30.831,4,-0.71,-0.36,0.69,-119.55260000000001,-40.4564,-56.0408,175,75
2026-05-07 18:38:30.851,4,-0.74,-0.33,0.69,-117.05260000000001,-37.6564,-49.70080000000001,175,75
2026-05-07 18:38:30.851,4,-0.77,-0.3,0.69,-113.39259999999999,-33.1964,-42.500800000000005,175,75
2026-05-07 18:38:30.868,4,-0.8,-0.27,0.71,-105.71260000000001,-23.446399999999997,-32.500800000000005,175,75
2026-05-07 18:38:30.881,4,-0.81,-0.26,0.71,-96.5626,-13.9964,-25.430800000000005,175,75
2026-05-07 18:38:30.885,4,-0.85,-0.26,0.75,-86.8726,-4.7864,-15.7308,175,75
2026-05-07 18:38:30.900,4,-0.88,-0.26,0.78,-78.0326,1.313600000000001,-6.530800000000001,175,75
2026-05-07 18:38:30.912,4,-0.88,-0.26,0.81,-69.80260000000001,1.313600000000001,-2.380799999999999,175,75
2026-05-07 18:38:30.923,4,-0.85,-0.25,0.82,-61.752599999999994,-4.476399999999998,0.4192,175,75
2026-05-07 18:38:30.959,4,-0.81,-0.18,0.74,-30.412599999999998,-3.8064,16.8892,175,75
2026-05-07 18:38:30.969,4,-0.81,-0.16,0.76,-19.4326,12.163600000000002,26.0292,175,75
2026-05-07 18:38:30.991,4,-0.77,-0.14,0.85,-1.5625999999999998,29.543599999999998,38.5292,175,75
2026-05-07 18:38:31.002,4,-0.75,-0.14,0.87,5.9374,25.6436,42.1292,175,75
2026-05-07 18:38:31.019,4,-0.77,-0.16,0.83,20.9974,6.863599999999998,46.5792,175,75
2026-05-07 18:38:31.039,4,-0.76,-0.17,0.74,34.3474,-1.3663999999999987,48.4092,175,75
2026-05-07 18:38:31.081,4,-0.74,-0.17,0.71,47.3974,26.3136,69.2692,175,75
2026-05-07 18:38:31.096,4,-0.73,-0.19,0.69,49.6574,28.263600000000004,72.0092,175,75
2026-05-07 18:38:31.096,4,-0.72,-0.2,0.65,53.9174,33.5636,76.8292,175,75
2026-05-07 18:38:31.108,4,-0.73,-0.21,0.63,59.4074,42.7136,84.7492,175,75
2026-05-07 18:38:31.129,4,-0.7,-0.23,0.62,63.2474,60.8236,95.4192,175,75
2026-05-07 18:38:31.140,4,-0.63,-0.28,0.62,64.4674,73.6336,99.4492,175,75
2026-05-07 18:38:31.140,4,-0.59,-0.3,0.64,65.6874,79.2436,100.7292,175,75
2026-05-07 18:38:31.151,4,-0.57,-0.32,0.65,65.50739999999999,84.42360000000001,103.89920000000001,175,75
2026-05-07 18:38:31.166,4,-0.54,-0.33,0.68,63.2474,87.1036,104.6892,175,75
2026-05-07 18:38:31.166,4,-0.55,-0.34,0.7,61.1174,81.9836,103.4692,175,75
2026-05-07 18:38:31.186,4,-0.56,-0.36,0.72,59.8974,76.0036,102.5592,175,75
2026-05-07 18:38:31.212,4,-0.58,-0.46,0.74,64.28739999999999,54.17360000000001,103.6592,175,75
2026-05-07 18:38:31.225,4,-0.53,-0.58,0.72,72.82740000000001,36.1336,99.9992,175,75
2026-05-07 18:38:31.236,4,-0.55,-0.6,0.7,74.4674,37.223600000000005,101.45920000000001,175,75
2026-05-07 18:38:31.247,4,-0.56,-0.59,0.7,73.6174,45.093599999999995,101.9492,175,75
2026-05-07 18:38:31.257,4,-0.52,-0.57,0.71,70.32740000000001,44.973600000000005,103.34920000000001,175,75
2026-05-07 18:38:31.276,4,-0.48,-0.57,0.76,65.4474,26.4936,99.3292,175,75
2026-05-07 18:38:31.287,4,-0.44,-0.54,0.78,53.9774,-17.836399999999998,88.1092,175,75
2026-05-07 18:38:31.305,4,-0.51,-0.5,0.72,45.7474,-38.9964,83.5892,175,75
2026-05-07 18:38:31.310,4,-0.6,-0.47,0.67,37.3374,-41.8564,80.48920000000001,175,75
2026-05-07 18:38:31.365,4,0.78,-0.72,0.79,-10.5326,-138.6864,-23.050800000000002,175,75
2026-05-07 18:38:31.373,4,-0.09,-0.66,0.52,-46.1426,-169.1764,-51.7708,175,75
2026-05-07 18:38:31.393,4,-0.18,-0.45,0.58,-67.11259999999999,29.843600000000002,-7.0108000000000015,175,75
2026-05-07 18:38:31.407,4,-0.13,-0.74,0.67,-72.7826,-46.5564,-35.1908,175,75
2026-05-07 18:38:31.412,4,-0.5,-0.74,0.77,-65.77260000000001,-58.8664,-18.720800000000004,175,75
2026-05-07 18:38:31.429,4,-0.84,-0.66,0.83,-73.1526,-41.0064,-16.220800000000004,175,75
2026-05-07 18:38:31.452,4,-1.01,-0.38,0.9,-71.26259999999999,-13.0764,-7.0108000000000015,175,75
2026-05-07 18:38:31.452,4,-1.0,-0.31,0.88,-57.9126,-26.4364,-4.7608000000000015,175,75
2026-05-07 18:38:31.465,4,-1.06,-0.29,0.85,-48.1526,-45.7564,-5.4308,175,75
2026-05-07 18:38:31.491,4,-1.16,-0.24,0.76,-37.6626,-51.496399999999994,-1.7707999999999995,175,75
2026-05-07 18:38:31.515,4,-1.22,-0.16,0.73,-19.1326,-43.4464,6.889200000000001,175,75
2026-05-07 18:38:31.542,4,-1.14,-0.18,0.59,-14.802599999999998,-51.6164,15.9092,175,75
2026-05-07 18:38:31.543,4,-1.15,-0.19,0.48,-18.5826,-55.886399999999995,22.249200000000002,175,75
2026-05-07 18:38:31.578,4,-1.22,-0.08,0.49,-7.3026,52.4136,69.0792,175,75
2026-05-07 18:38:31.594,4,-1.19,-0.1,0.69,5.747400000000001,78.1436,84.7492,175,75
2026-05-07 18:38:31.609,4,-1.14,-0.12,0.9,12.7574,81.31360000000001,96.5792,175,75
2026-05-07 18:38:31.618,4,-1.08,-0.14,1.03,14.0474,61.373599999999996,99.87920000000001,175,75
2026-05-07 18:38:31.634,4,-1.06,-0.11,1.1,19.5274,25.273600000000002,99.9992,175,75
2026-05-07 18:38:31.646,4,-1.11,-0.05,1.11,29.2874,0.8236000000000026,102.4992,175,75
2026-05-07 18:38:31.660,4,-1.13,-0.04,1.07,38.9774,-3.0763999999999996,105.5492,175,75
2026-05-07 18:38:31.670,4,-1.12,-0.05,1.03,49.9574,3.9335999999999984,110.9692,175,75
2026-05-07 18:38:31.686,4,-1.1,-0.08,1.0,61.2974,15.2136,117.4992,175,75
2026-05-07 18:38:31.712,4,-0.79,-0.35,0.82,77.94739999999999,5.643599999999999,106.9492,175,75
2026-05-07 18:38:31.735,4,-0.66,-0.47,0.64,76.41739999999999,-19.906399999999998,90.4192,175,75
2026-05-07 18:38:31.735,4,-0.52,-0.65,0.41,67.6374,-41.0664,69.2692,175,75
2026-05-07 18:38:31.753,4,-0.47,-0.79,0.24,55.9974,-53.3264,49.569199999999995,175,75
2026-05-07 18:38:31.768,4,-0.49,-0.89,0.1,37.1574,-56.6164,31.0292,175,75
2026-05-07 18:38:31.784,4,-0.68,-0.82,0.06,13.737400000000001,-40.886399999999995,24.0792,175,75
2026-05-07 18:38:31.784,4,-0.98,-0.7,0.25,8.307400000000001,26.7436,34.3292,175,75
2026-05-07 18:38:31.820,4,-0.88,-0.66,1.21,18.0674,26.2536,44.2692,175,75
2026-05-07 18:38:31.834,4,-0.97,-0.69,1.05,16.5474,-43.386399999999995,28.6592,175,75
2026-05-07 18:38:31.872,4,-1.04,-0.58,0.52,2.2174000000000005,51.613600000000005,27.1892,175,75
2026-05-07 18:38:31.882,4,-0.98,-0.59,0.71,4.8974,71.4336,28.4092,175,75
2026-05-07 18:38:31.892,4,-0.95,-0.63,0.9,6.7874,61.31360000000001,20.6092,175,75
2026-05-07 18:38:31.914,4,-0.88,-0.63,1.1,-1.0825999999999993,-43.386399999999995,-18.7808,175,75
2026-05-07 18:38:31.925,4,-0.91,-0.58,0.97,-8.522599999999999,-86.6164,-36.400800000000004,175,75
2026-05-07 18:38:31.936,4,-0.97,-0.54,0.76,-13.762599999999999,-88.3264,-44.3308,175,75
2026-05-07 18:38:31.951,4,-0.97,-0.47,0.68,-17.482599999999998,-61.5564,-42.2008,175,75
2026-05-07 18:38:31.965,4,-0.92,-0.42,0.72,-17.5426,-42.2264,-39.7008,175,75
2026-05-07 18:38:31.976,4,-0.93,-0.36,0.83,-18.4526,-37.0464,-36.9508,175,75
2026-05-07 18:38:31.986,4,-0.98,-0.31,0.91,-20.7126,-39.236399999999996,-35.3708,175,75
2026-05-07 18:38:31.986,4,-1.02,-0.24,0.91,-21.9926,-43.9964,-32.8108,175,75
2026-05-07 18:38:32.009,4,-1.06,-0.16,0.88,-19.552599999999998,-45.7564,-28.660800000000002,175,75
2026-05-07 18:38:32.034,4,-1.1,-0.08,0.83,-14.0626,-42.526399999999995,-21.830800000000004,175,75
2026-05-07 18:38:32.073,4,-1.11,0.15,0.89,18.977400000000003,-27.4664,11.699200000000001,175,75
2026-05-07 18:38:32.086,4,-1.4,0.26,0.92,38.7374,-27.1064,35.1192,175,75
2026-05-07 18:38:32.108,4,-1.35,0.13,0.74,56.4774,-28.0764,47.5592,175,75
2026-05-07 18:38:32.133,4,-1.2,-0.48,0.21,41.8474,-95.3964,10.8492,175,75
2026-05-07 18:38:32.161,4,-1.4,-0.65,-0.07,-24.4326,-12.586399999999998,12.5592,175,75
2026-05-07 18:38:32.171,4,-1.5,-0.12,0.35,-14.192599999999999,147.1036,49.139199999999995,175,75
2026-05-07 18:38:32.181,4,-1.22,-0.1,0.81,10.3874,200.7036,65.9092,175,75
2026-05-07 18:38:32.192,4,-0.94,-0.33,1.24,32.397400000000005,161.9836,64.7492,175,75
2026-05-07 18:38:32.202,4,-0.77,-0.62,1.43,19.3474,-42.4664,10.9092,175,75
2026-05-07 18:38:32.218,4,-0.85,-0.55,1.14,5.327400000000001,-100.1564,-8.2308,175,75
2026-05-07 18:38:32.229,4,-0.96,-0.45,0.82,1.4174000000000002,-115.0264,-14.580800000000002,175,75
2026-05-07 18:38:32.246,4,-1.09,-0.3,0.46,10.1974,-52.106399999999994,-5.550800000000001,175,75
2026-05-07 18:38:32.259,4,-1.08,-0.33,0.52,13.737400000000001,-13.7464,2.9892000000000003,175,75
2026-05-07 18:38:32.263,4,-1.07,-0.33,0.67,10.8674,-6.496399999999998,6.949199999999999,175,75
2026-05-07 18:38:32.277,4,-1.06,-0.36,0.77,-0.8325999999999993,-26.976399999999998,1.9491999999999994,175,75
2026-05-07 18:38:32.288,4,-1.1,-0.35,0.75,-7.662599999999999,-44.7264,-1.4007999999999985,175,75
2026-05-07 18:38:32.305,4,-1.14,-0.31,0.64,-12.7226,-50.6964,-2.0808000000000018,175,75
2026-05-07 18:38:32.307,4,-1.19,-0.25,0.54,-15.342600000000001,-36.0064,2.0092,175,75
2026-05-07 18:38:32.330,4,-1.19,-0.2,0.52,-11.3226,-2.106399999999997,9.0792,175,75
2026-05-07 18:38:32.330,4,-1.15,-0.18,0.58,-5.832599999999999,12.653600000000004,13.1692,175,75
2026-05-07 18:38:32.355,4,-1.1,-0.18,0.67,-1.5025999999999993,13.383600000000001,14.6292,175,75
2026-05-07 18:38:32.369,4,-1.03,-0.2,0.64,-8.762599999999999,-10.026399999999999,6.219200000000001,175,75
2026-05-07 18:38:32.382,4,-1.08,-0.19,0.64,0.0774000000000008,-22.406399999999998,4.2692,175,75
2026-05-07 18:38:32.393,4,-1.1,-0.21,0.6,-1.9325999999999999,-16.6764,3.4692000000000007,175,75
2026-05-07 18:38:32.397,4,-1.08,-0.21,0.59,0.19740000000000002,-13.196399999999997,3.2292000000000005,175,75
2026-05-07 18:38:32.423,4,-1.11,-0.25,0.64,2.9474000000000005,-10.946399999999997,4.199199999999999,175,75
2026-05-07 18:38:32.430,4,-1.09,-0.28,0.68,1.9674000000000005,-9.8464,4.449199999999999,175,75
2026-05-07 18:38:32.449,4,-1.05,-0.33,0.67,-1.5025999999999993,-21.976399999999998,1.3392,175,75
2026-05-07 18:38:32.460,4,-1.08,-0.35,0.67,-4.9826,-28.1364,0.6091999999999995,175,75
2026-05-07 18:38:32.473,4,-1.1,-0.33,0.64,-7.662599999999999,-19.4164,1.3392,175,75
2026-05-07 18:38:32.485,4,-1.08,-0.35,0.66,-6.262599999999999,-10.516399999999997,2.3092000000000006,175,75
2026-05-07 18:38:32.496,4,-1.07,-0.39,0.72,-2.6026,-4.0564,2.3092000000000006,175,75
2026-05-07 18:38:32.511,4,-1.02,-0.36,0.72,-8.5826,-16.976399999999998,-0.0007999999999999119,175,75
2026-05-07 18:38:32.533,4,-1.11,-0.35,0.72,-11.5626,-44.5464,-8.900799999999998,175,75
2026-05-07 18:38:32.544,4,-1.17,-0.3,0.69,-11.5626,-44.236399999999996,-7.990799999999998,175,75
2026-05-07 18:38:32.548,4,-1.18,-0.25,0.66,-9.432599999999999,-39.6064,-6.280800000000001,175,75
2026-05-07 18:38:32.562,4,-1.17,-0.24,0.62,-8.272599999999999,-36.3064,-4.5108000000000015,175,75
2026-05-07 18:38:32.572,4,-1.16,-0.25,0.6,-6.6326,-33.7464,-3.1708000000000016,175,75
2026-05-07 18:38:32.585,4,-1.17,-0.24,0.56,-4.9826,-28.3264,-0.8607999999999993,175,75
2026-05-07 18:38:32.602,4,-1.16,-0.23,0.55,-3.2725999999999997,-19.906399999999998,2.0692000000000004,175,75
2026-05-07 18:38:32.602,4,-1.14,-0.23,0.57,-1.5625999999999998,-12.656399999999998,3.8992000000000004,175,75
2026-05-07 18:38:32.618,4,-1.14,-0.24,0.6,0.2574000000000005,-8.136399999999998,6.5792,175,75
2026-05-07 18:38:32.644,4,-1.1,-0.27,0.68,2.8874000000000004,-10.156399999999998,6.639200000000001,175,75
2026-05-07 18:38:32.655,4,-1.1,-0.27,0.67,4.0474000000000006,-16.066399999999998,5.6692,175,75
2026-05-07 18:38:32.667,4,-1.11,-0.27,0.65,4.4674000000000005,-17.5264,5.299200000000001,175,75
2026-05-07 18:38:32.670,4,-1.1,-0.27,0.65,4.5274,-15.3364,4.809200000000001,175,75
2026-05-07 18:38:32.679,4,-1.1,-0.29,0.66,4.587400000000001,-13.016399999999997,5.1792,175,75
2026-05-07 18:38:32.693,4,-1.09,-0.28,0.67,2.3974,-13.7464,4.629199999999999,175,75
2026-05-07 18:38:32.707,4,-1.09,-0.29,0.69,1.2374000000000005,-14.6664,3.8992000000000004,175,75
2026-05-07 18:38:32.722,4,-1.09,-0.3,0.69,0.017400000000000304,-15.026399999999999,3.7192000000000007,175,75
2026-05-07 18:38:32.736,4,-1.08,-0.29,0.7,-0.3426,-13.5064,3.7791999999999994,175,75
2026-05-07 18:38:32.770,4,-1.08,-0.29,0.71,-1.6326,-18.7464,1.1592000000000002,175,75
2026-05-07 18:38:32.770,4,-1.09,-0.29,0.7,-1.4425999999999997,-16.6164,0.1791999999999998,175,75
2026-05-07 18:38:32.787,4,-1.08,-0.3,0.69,-1.2626,-19.4164,-1.040799999999999,175,75
2026-05-07 18:38:32.807,4,-1.1,-0.27,0.65,-1.3826,-21.1864,-2.200799999999999,175,75
2026-05-07 18:38:32.830,4,-1.12,-0.26,0.64,0.9974000000000003,-14.966399999999998,-0.2507999999999999,175,75
2026-05-07 18:38:32.844,4,-1.1,-0.25,0.65,0.5074000000000005,-14.356399999999999,-0.8607999999999993,175,75
2026-05-07 18:38:32.855,4,-1.12,-0.24,0.64,0.7474000000000003,-15.946399999999999,-0.3708000000000009,175,75
2026-05-07 18:38:32.873,4,-1.14,-0.25,0.65,1.6674000000000002,-15.946399999999999,-0.3708000000000009,175,75
2026-05-07 18:38:32.877,4,-1.14,-0.25,0.65,1.6674000000000002,-13.2564,0.2992000000000008,175,75
2026-05-07 18:38:32.877,4,-1.14,-0.25,0.66,0.9374000000000002,-11.7364,0.1791999999999998,175,75
2026-05-07 18:38:32.888,4,-1.14,-0.25,0.67,0.9974000000000003,-12.7164,0.2392000000000003,175,75
2026-05-07 18:38:32.911,4,-1.12,-0.24,0.67,2.0874000000000006,-11.796399999999998,-1.1008000000000013,175,75
2026-05-07 18:38:32.933,4,-1.15,-0.23,0.62,0.3274000000000008,-18.196399999999997,-4.030800000000001,175,75
2026-05-07 18:38:32.933,4,-1.06,-0.26,0.6,1.3574000000000002,-6.1264,-3.0508000000000006,175,75
2026-05-07 18:38:32.945,4,-1.1,-0.29,0.64,-0.5926,-11.616399999999999,-3.4808000000000003,175,75
2026-05-07 18:38:32.958,4,-1.14,-0.29,0.68,0.6874000000000002,-7.7164,-2.2608000000000015,175,75
2026-05-07 18:38:32.981,4,-1.06,-0.26,0.69,-0.5926,-4.1763999999999974,-3.4208000000000016,175,75
2026-05-07 18:38:32.991,4,-1.02,-0.27,0.65,-1.4425999999999997,-23.3864,-7.7508,175,75
2026-05-07 18:38:32.991,4,-1.12,-0.28,0.62,-0.1625999999999994,-26.6164,-7.440800000000001,175,75
2026-05-07 18:38:33.003,4,-1.15,-0.3,0.61,0.3874000000000004,-14.606399999999999,-4.450799999999999,175,75
2026-05-07 18:38:33.023,4,-1.06,-0.3,0.66,-1.0825999999999993,-6.616399999999999,-1.8308000000000018,175,75
2026-05-07 18:38:33.049,4,-1.1,-0.31,0.67,-0.4125999999999994,-17.656399999999998,-4.6408000000000005,175,75
2026-05-07 18:38:33.062,4,-1.1,-0.29,0.66,-1.6326,-18.016399999999997,-4.6408000000000005,175,75
2026-05-07 18:38:33.062,4,-1.09,-0.27,0.65,-1.8125999999999998,-17.8964,-3.780800000000001,175,75
2026-05-07 18:38:33.089,4,-1.1,-0.24,0.65,-0.4725999999999999,-15.3364,-2.3208,175,75
2026-05-07 18:38:33.099,4,-1.08,-0.24,0.64,0.3874000000000004,-12.7164,-1.1008000000000013,175,75
2026-05-07 18:38:33.099,4,-1.08,-0.24,0.64,1.7274000000000003,-14.966399999999998,-1.530800000000001,175,75
2026-05-07 18:38:33.111,4,-1.09,-0.25,0.64,1.7874000000000003,-17.5264,-1.530800000000001,175,75
2026-05-07 18:38:33.122,4,-1.11,-0.25,0.64,0.3874000000000004,-18.016399999999997,-1.7108000000000008,175,75
2026-05-07 18:38:33.122,4,-1.15,-0.24,0.64,0.2574000000000005,-15.5764,-0.1908000000000012,175,75
2026-05-07 18:38:33.133,4,-1.15,-0.21,0.65,1.4774000000000003,-10.516399999999997,2.2492,175,75
2026-05-07 18:38:33.155,4,-1.09,-0.21,0.65,2.9474000000000005,-11.796399999999998,2.3092000000000006,175,75
2026-05-07 18:38:33.188,4,-1.13,-0.25,0.62,4.1074,-9.7864,2.9192,175,75
2026-05-07 18:38:33.199,4,-1.1,-0.25,0.62,3.3074000000000003,-12.586399999999998,1.8292000000000002,175,75
2026-05-07 18:38:33.199,4,-1.12,-0.26,0.63,4.3474,-15.3364,1.2192000000000007,175,75
2026-05-07 18:38:33.210,4,-1.13,-0.26,0.63,4.7774,-12.526399999999999,1.6392000000000007,175,75
2026-05-07 18:38:33.222,4,-1.1,-0.27,0.63,4.287400000000001,-10.636399999999998,1.8292000000000002,175,75
2026-05-07 18:38:33.236,4,-1.1,-0.27,0.63,4.837400000000001,-12.3464,1.1592000000000002,175,75
2026-05-07 18:38:33.251,4,-1.09,-0.27,0.64,5.2574000000000005,-13.7464,0.059200000000000585,175,75
2026-05-07 18:38:33.275,4,-1.1,-0.26,0.6,4.0474000000000006,-14.056399999999998,0.1191999999999993,175,75
2026-05-07 18:38:33.275,4,-1.12,-0.29,0.63,7.2774,-4.296399999999998,0.7891999999999992,175,75
2026-05-07 18:38:33.300,4,-1.1,-0.26,0.58,1.6074000000000002,-12.526399999999999,-0.49079999999999835,175,75
2026-05-07 18:38:33.302,4,-1.07,-0.23,0.65,9.8374,-7.4664,1.6991999999999994,175,75
2026-05-07 18:38:33.330,4,-1.05,-0.23,0.63,7.6974,-16.1864,-2.0108000000000015,175,75
2026-05-07 18:38:33.336,4,-1.05,-0.27,0.61,4.837400000000001,-20.696399999999997,-4.0908,175,75
2026-05-07 18:38:33.370,4,-1.14,-0.26,0.6,4.2274,-11.976399999999998,0.059200000000000585,175,75
2026-05-07 18:38:33.377,4,-1.11,-0.26,0.63,5.8074,-9.0564,1.6991999999999994,175,75
2026-05-07 18:38:33.385,4,-1.1,-0.28,0.63,5.6874,-12.586399999999998,2.0692000000000004,175,75
2026-05-07 18:38:33.393,4,-1.11,-0.29,0.63,4.0474000000000006,-14.966399999999998,1.3392,175,75
2026-05-07 18:38:33.405,4,-1.12,-0.26,0.62,3.7374000000000005,-14.296399999999998,2.6191999999999993,175,75
2026-05-07 18:38:33.422,4,-1.12,-0.25,0.63,4.3474,-11.366399999999999,4.3292,175,75
2026-05-07 18:38:33.434,4,-1.11,-0.23,0.64,6.417400000000001,-9.0564,5.3591999999999995,175,75
2026-05-07 18:38:33.445,4,-1.1,-0.23,0.64,7.337400000000001,-10.5764,4.9392,175,75
2026-05-07 18:38:33.445,4,-1.09,-0.23,0.63,7.6374,-13.3264,4.629199999999999,175,75
2026-05-07 18:38:33.456,4,-1.1,-0.24,0.63,7.6374,-15.636399999999998,3.5991999999999997,175,75
2026-05-07 18:38:33.467,4,-1.13,-0.23,0.61,7.3974,-14.4164,4.5092,175,75
2026-05-07 18:38:33.490,4,-1.14,-0.22,0.62,7.577400000000001,-9.176399999999997,5.8492,175,75
2026-05-07 18:38:33.503,4,-1.14,-0.24,0.64,9.5874,-6.246399999999998,6.699199999999999,175,75
2026-05-07 18:38:33.507,4,-1.14,-0.26,0.65,9.1074,-9.2364,6.5792,175,75
2026-05-07 18:38:33.530,4,-1.13,-0.25,0.65,7.9474,-11.186399999999999,5.969200000000001,175,75
2026-05-07 18:38:33.541,4,-1.13,-0.25,0.62,6.8474,-12.2864,5.6692,175,75
2026-05-07 18:38:33.541,4,-1.13,-0.25,0.63,7.577400000000001,-9.8464,6.5792,175,75
2026-05-07 18:38:33.559,4,-1.12,-0.25,0.64,7.6374,-9.476399999999998,6.2791999999999994,175,75
2026-05-07 18:38:33.569,4,-1.12,-0.26,0.66,7.827400000000001,-13.016399999999997,5.3591999999999995,175,75
2026-05-07 18:38:33.593,4,-1.13,-0.25,0.64,7.2774,-18.0764,4.449199999999999,175,75
2026-05-07 18:38:33.604,4,-1.12,-0.24,0.62,8.4974,-16.3664,5.059200000000001,175,75
2026-05-07 18:38:33.617,4,-1.12,-0.24,0.62,9.657399999999999,-14.476399999999998,5.1792,175,75
2026-05-07 18:38:33.628,4,-1.11,-0.24,0.63,10.0774,-16.1864,5.2392,175,75
2026-05-07 18:38:33.641,4,-1.12,-0.24,0.63,9.717400000000001,-18.9364,4.5692,175,75
2026-05-07 18:38:33.650,4,-1.14,-0.24,0.62,9.5874,-20.946399999999997,4.879199999999999,175,75
2026-05-07 18:38:33.656,4,-1.15,-0.23,0.61,9.1674,-19.236399999999996,5.8492,175,75
2026-05-07 18:38:33.669,4,-1.14,-0.22,0.62,9.1674,-17.2864,7.379199999999999,175,75
2026-05-07 18:38:33.679,4,-1.14,-0.22,0.62,9.7774,-14.966399999999998,8.9592,175,75
2026-05-07 18:38:33.705,4,-1.14,-0.22,0.63,9.5874,-15.886399999999998,10.549199999999999,175,75
2026-05-07 18:38:33.718,4,-1.13,-0.22,0.63,8.7974,-13.446399999999997,11.889199999999999,175,75
2026-05-07 18:38:33.741,4,-1.13,-0.22,0.64,8.307400000000001,-14.236399999999998,12.1892,175,75
2026-05-07 18:38:33.741,4,-1.12,-0.21,0.66,10.1974,-11.186399999999999,13.2292,175,75
2026-05-07 18:38:33.773,4,-1.16,-0.22,0.64,8.8574,-22.5264,9.8792,175,75
2026-05-07 18:38:33.800,4,-1.18,-0.23,0.64,8.6774,-29.2364,7.379199999999999,175,75
2026-05-07 18:38:33.813,4,-1.25,-0.21,0.62,13.067400000000001,-13.386399999999998,10.4892,175,75
2026-05-07 18:38:33.841,4,-1.21,-0.28,0.65,8.4974,-7.586399999999998,12.1892,175,75
2026-05-07 18:38:33.869,4,-1.14,-0.3,0.71,2.2174000000000005,-12.7164,8.4092,175,75
2026-05-07 18:38:33.879,4,-1.16,-0.29,0.72,2.3974,-19.7864,5.789199999999999,175,75
2026-05-07 18:38:33.891,4,-1.14,-0.28,0.7,-0.2825999999999995,-24.3564,3.5991999999999997,175,75
2026-05-07 18:38:33.894,4,-1.15,-0.25,0.67,-0.8925999999999998,-26.4364,1.7691999999999997,175,75
2026-05-07 18:38:33.916,4,-1.16,-0.25,0.64,-0.1625999999999994,-28.016399999999997,-0.0007999999999999119,175,75
2026-05-07 18:38:33.941,4,-1.16,-0.23,0.62,2.6374000000000004,-24.726399999999998,0.9092000000000002,175,75
2026-05-07 18:38:33.963,4,-1.16,-0.23,0.62,4.1074,-23.016399999999997,1.7691999999999997,175,75
2026-05-07 18:38:33.963,4,-1.14,-0.24,0.61,3.8574,-22.406399999999998,1.7691999999999997,175,75
2026-05-07 18:38:33.988,4,-1.17,-0.25,0.61,4.167400000000001,-22.226399999999998,2.4391999999999996,175,75
2026-05-07 18:38:34.001,4,-1.18,-0.25,0.64,3.7374000000000005,-18.5064,2.6792,175,75
2026-05-07 18:38:34.012,4,-1.18,-0.23,0.67,3.9174,-20.6364,2.799200000000001,175,75
2026-05-07 18:38:34.029,4,-1.16,-0.21,0.65,4.5274,-24.906399999999998,1.0991999999999997,175,75
2026-05-07 18:38:34.064,4,-1.15,-0.21,0.6,5.1374,-24.2364,0.8491999999999997,175,75
2026-05-07 18:38:34.064,4,-1.17,-0.22,0.6,5.0174,-21.8564,1.6392000000000007,175,75
2026-05-07 18:38:34.086,4,-1.17,-0.22,0.65,3.8574,-18.1364,2.9192,175,75
2026-05-07 18:38:34.097,4,-1.15,-0.23,0.65,3.6174000000000004,-20.336399999999998,2.6191999999999993,175,75
2026-05-07 18:38:34.111,4,-1.16,-0.24,0.64,2.6974000000000005,-23.446399999999997,2.1891999999999996,175,75
2026-05-07 18:38:34.151,4,-1.15,-0.22,0.64,4.587400000000001,-24.2364,1.3392,175,75
2026-05-07 18:38:34.161,4,-1.17,-0.23,0.62,5.327400000000001,-25.6364,0.4892000000000003,175,75
2026-05-07 18:38:34.161,4,-1.19,-0.24,0.61,4.6574,-23.6864,0.4892000000000003,175,75
2026-05-07 18:38:34.174,4,-1.19,-0.23,0.62,4.6574,-19.726399999999998,0.9692000000000007,175,75
2026-05-07 18:38:34.191,4,-1.19,-0.23,0.63,5.0174,-19.2964,1.2192000000000007,175,75
2026-05-07 18:38:34.202,4,-1.18,-0.23,0.64,5.6874,-19.6664,0.8491999999999997,175,75
2026-05-07 18:38:34.213,4,-1.16,-0.23,0.64,4.587400000000001,-23.016399999999997,-0.49079999999999835,175,75
2026-05-07 18:38:34.224,4,-1.16,-0.22,0.63,5.2574000000000005,-24.5464,-1.1608,175,75
2026-05-07 18:38:34.243,4,-1.16,-0.23,0.6,4.587400000000001,-24.7864,-1.9507999999999992,175,75
2026-05-07 18:38:34.255,4,-1.17,-0.22,0.61,4.0474000000000006,-22.9564,-2.0108000000000015,175,75
2026-05-07 18:38:34.264,4,-1.18,-0.23,0.64,3.1274000000000006,-20.946399999999997,-1.7108000000000008,175,75
2026-05-07 18:38:34.291,4,-1.17,-0.21,0.65,2.6974000000000005,-22.1064,-2.8107999999999986,175,75
2026-05-07 18:38:34.291,4,-1.17,-0.22,0.64,2.6974000000000005,-24.5464,-3.8407999999999998,175,75
2026-05-07 18:38:34.304,4,-1.19,-0.22,0.62,3.3074000000000003,-24.5464,-3.6608,175,75
2026-05-07 18:38:34.314,4,-1.2,-0.21,0.63,2.2774000000000005,-22.3464,-3.8407999999999998,175,75
2026-05-07 18:38:34.342,4,-1.21,-0.2,0.65,3.4374000000000002,-20.5764,-3.9007999999999985,175,75
2026-05-07 18:38:34.355,4,-1.22,-0.21,0.67,4.2274,-21.9164,-4.2707999999999995,175,75
2026-05-07 18:38:34.375,4,-1.19,-0.2,0.68,4.7774,-27.656399999999998,-5.9808,175,75
2026-05-07 18:38:34.387,4,-1.2,-0.2,0.65,4.7774,-31.7964,-7.1408000000000005,175,75
2026-05-07 18:38:34.415,4,-1.22,-0.2,0.62,7.157400000000001,-22.836399999999998,-3.780800000000001,175,75
2026-05-07 18:38:34.439,4,-1.24,-0.23,0.66,7.2174000000000005,-21.1864,-1.8908000000000005,175,75
2026-05-07 18:38:34.451,4,-1.2,-0.24,0.65,6.0574,-21.7964,-1.4007999999999985,175,75
2026-05-07 18:38:34.451,4,-1.22,-0.24,0.65,4.7174000000000005,-24.4164,-1.3407999999999998,175,75
2026-05-07 18:38:34.463,4,-1.2,-0.21,0.64,5.5674,-17.5264,0.6692,175,75
2026-05-07 18:38:34.492,4,-1.14,-0.22,0.63,5.747400000000001,-19.906399999999998,0.6091999999999995,175,75
2026-05-07 18:38:34.492,4,-1.15,-0.22,0.62,5.6874,-21.2464,0.2392000000000003,175,75
2026-05-07 18:38:34.509,4,-1.16,-0.22,0.63,4.837400000000001,-19.7864,-0.2507999999999999,175,75
2026-05-07 18:38:34.517,4,-1.16,-0.23,0.63,4.287400000000001,-19.3564,-0.9208000000000016,175,75
2026-05-07 18:38:34.532,4,-1.17,-0.24,0.64,3.6774000000000004,-20.696399999999997,-2.200799999999999,175,75
2026-05-07 18:38:34.562,4,-1.18,-0.26,0.64,2.6974000000000005,-18.626399999999997,-2.690800000000001,175,75
2026-05-07 18:38:34.573,4,-1.18,-0.25,0.64,2.5774000000000004,-17.7764,-2.9307999999999996,175,75
2026-05-07 18:38:34.585,4,-1.16,-0.25,0.64,1.8474000000000004,-19.1164,-4.1507999999999985,175,75
2026-05-07 18:38:34.593,4,-1.16,-0.25,0.63,1.1774000000000004,-21.9164,-5.550800000000001,175,75
2026-05-07 18:38:34.611,4,-1.18,-0.24,0.64,0.3874000000000004,-20.2764,-6.040799999999999,175,75
2026-05-07 18:38:34.633,4,-1.18,-0.22,0.66,0.4474,-19.2964,-6.530800000000001,175,75
2026-05-07 18:38:34.652,4,-1.19,-0.23,0.63,1.4174000000000002,-24.0564,-7.620800000000001,175,75
2026-05-07 18:38:34.652,4,-1.2,-0.22,0.62,1.5474000000000006,-20.5764,-7.0108000000000015,175,75
2026-05-07 18:38:34.683,4,-1.18,-0.22,0.64,2.2174000000000005,-18.2564,-5.9808,175,75
2026-05-07 18:38:34.688,4,-1.19,-0.22,0.65,2.5174000000000003,-21.0064,-6.470799999999999,175,75
2026-05-07 18:38:34.713,4,-1.2,-0.22,0.65,2.0874000000000006,-19.476399999999998,-5.800800000000001,175,75
2026-05-07 18:38:34.724,4,-1.19,-0.22,0.66,4.4074,-19.3564,-4.940800000000001,175,75
2026-05-07 18:38:34.749,4,-1.19,-0.22,0.65,3.7374000000000005,-20.946399999999997,-4.5108000000000015,175,75
2026-05-07 18:38:34.761,4,-1.18,-0.21,0.64,4.1074,-19.1164,-3.9707999999999988,175,75
2026-05-07 18:38:34.773,4,-1.18,-0.21,0.65,5.2574000000000005,-17.4664,-3.1107999999999993,175,75
2026-05-07 18:38:34.773,4,-1.18,-0.23,0.66,5.1974,-17.406399999999998,-2.7508,175,75
2026-05-07 18:38:34.784,4,-1.17,-0.23,0.66,5.5074000000000005,-19.5464,-2.9307999999999996,175,75
2026-05-07 18:38:34.795,4,-1.16,-0.23,0.66,5.327400000000001,-21.7964,-3.540799999999999,175,75
2026-05-07 18:38:34.811,4,-1.16,-0.22,0.64,5.997400000000001,-23.3864,-4.330800000000002,175,75
2026-05-07 18:38:34.816,4,-1.17,-0.22,0.63,6.3574,-23.5064,-4.210800000000001,175,75
2026-05-07 18:38:34.829,4,-1.21,-0.2,0.64,7.2174000000000005,-20.3964,-2.380799999999999,175,75
2026-05-07 18:38:34.840,4,-1.13,-0.18,0.65,10.807400000000001,-14.236399999999998,-2.9907999999999983,175,75
2026-05-07 18:38:34.854,4,-1.11,-0.26,0.64,9.287400000000002,-28.566399999999998,-6.280800000000001,175,75
2026-05-07 18:38:34.870,4,-1.2,-0.23,0.64,11.2974,-19.476399999999998,-4.5108000000000015,175,75
2026-05-07 18:38:34.882,4,-1.18,-0.23,0.63,8.4974,-29.2964,-5.860799999999999,175,75
2026-05-07 18:38:34.894,4,-1.18,-0.18,0.64,14.1674,-11.066399999999998,-3.3607999999999993,175,75
2026-05-07 18:38:34.936,4,-1.24,-0.25,0.61,7.0274,-5.336399999999998,-1.4707999999999988,175,75
2026-05-07 18:38:34.944,4,-1.17,-0.24,0.63,5.077400000000001,0.5836000000000006,-0.06080000000000041,175,75
2026-05-07 18:38:34.956,4,-1.16,-0.23,0.66,5.997400000000001,-2.656399999999998,-0.4307999999999996,175,75
2026-05-07 18:38:34.983,4,-1.17,-0.24,0.68,5.2574000000000005,-11.976399999999998,-2.8107999999999986,175,75
2026-05-07 18:38:34.994,4,-1.2,-0.24,0.68,6.0574,-10.336399999999998,-2.1408000000000005,175,75
2026-05-07 18:38:35.004,4,-1.21,-0.24,0.69,7.2774,-5.886399999999998,-0.7308000000000003,175,75
2026-05-07 18:38:35.008,4,-1.19,-0.23,0.68,9.2274,-4.296399999999998,-0.6107999999999993,175,75
2026-05-07 18:38:35.040,4,-1.16,-0.25,0.65,12.397400000000001,-10.7564,-1.9507999999999992,175,75
2026-05-07 18:38:35.049,4,-1.17,-0.24,0.67,13.307400000000001,-9.6664,-1.530800000000001,175,75
2026-05-07 18:38:35.057,4,-1.16,-0.22,0.67,15.2574,-9.476399999999998,-1.4007999999999985,175,75
2026-05-07 18:38:35.071,4,-1.15,-0.23,0.65,17.157400000000003,-15.5764,-2.3208,175,75
2026-05-07 18:38:35.088,4,-1.17,-0.23,0.64,18.2474,-16.0064,-2.3208,175,75
2026-05-07 18:38:35.099,4,-1.19,-0.22,0.65,19.587400000000002,-12.836399999999998,-1.040799999999999,175,75
2026-05-07 18:38:35.111,4,-1.2,-0.21,0.66,20.017400000000002,-11.246399999999998,0.7891999999999992,175,75
2026-05-07 18:38:35.111,4,-1.2,-0.21,0.67,21.5474,-7.226399999999998,1.6392000000000007,175,75
2026-05-07 18:38:35.150,4,-1.19,-0.23,0.64,23.6174,-12.526399999999999,0.4192,175,75
2026-05-07 18:38:35.161,4,-1.21,-0.23,0.64,22.947400000000002,-8.0764,1.1592000000000002,175,75
2026-05-07 18:38:35.170,4,-1.19,-0.22,0.64,23.2474,-3.8064,2.129199999999999,175,75
2026-05-07 18:38:35.191,4,-1.17,-0.23,0.65,24.0474,-5.5764,1.5191999999999997,175,75
2026-05-07 18:38:35.202,4,-1.17,-0.25,0.65,25.197400000000002,-5.8264,1.0291999999999994,175,75
2026-05-07 18:38:35.219,4,-1.18,-0.29,0.7,24.0474,-2.106399999999997,0.6091999999999995,175,75
2026-05-07 18:38:35.232,4,-1.16,-0.29,0.72,22.5774,-3.5063999999999993,-0.1208000000000009,175,75
2026-05-07 18:38:35.267,4,-1.13,-0.27,0.72,23.7374,-6.006399999999999,-2.870800000000001,175,75
2026-05-07 18:38:35.267,4,-1.11,-0.27,0.72,23.4974,-8.686399999999999,-3.6008000000000013,175,75
2026-05-07 18:38:35.282,4,-1.09,-0.27,0.7,22.947400000000002,-13.0764,-4.8208,175,75
2026-05-07 18:38:35.296,4,-1.09,-0.27,0.69,21.1774,-17.1064,-6.280800000000001,175,75
2026-05-07 18:38:35.296,4,-1.13,-0.27,0.68,20.197400000000002,-17.406399999999998,-6.040799999999999,175,75
2026-05-07 18:38:35.306,4,-1.15,-0.26,0.67,18.7974,-13.386399999999998,-6.530800000000001,175,75
2026-05-07 18:38:35.326,4,-1.12,-0.24,0.68,20.7474,-8.136399999999998,-4.3908000000000005,175,75
2026-05-07 18:38:35.349,4,-1.14,-0.28,0.71,18.6774,-9.296399999999998,-3.6008000000000013,175,75
2026-05-07 18:38:35.360,4,-1.14,-0.28,0.7,18.2474,-8.566399999999998,-3.7207999999999988,175,75
2026-05-07 18:38:35.375,4,-1.15,-0.27,0.72,20.5674,-8.996399999999998,-3.4808000000000003,175,75
2026-05-07 18:38:35.387,4,-1.15,-0.27,0.72,20.9374,-8.016399999999997,-4.580800000000002,175,75
2026-05-07 18:38:35.397,4,-1.17,-0.27,0.72,22.697400000000002,-2.1663999999999994,-3.6608,175,75
2026-05-07 18:38:35.409,4,-1.16,-0.27,0.75,25.1374,0.5236000000000018,-3.8407999999999998,175,75
2026-05-07 18:38:35.419,4,-1.18,-0.28,0.77,27.2174,-0.8263999999999996,-4.210800000000001,175,75
2026-05-07 18:38:35.431,4,-1.12,-0.27,0.7,22.8874,-11.496399999999998,-6.040799999999999,175,75
2026-05-07 18:38:35.447,4,-1.15,-0.27,0.7,23.4374,-17.836399999999998,-7.560799999999999,175,75
2026-05-07 18:38:35.447,4,-1.21,-0.28,0.69,25.5074,-10.156399999999998,-5.190800000000001,175,75
2026-05-07 18:38:35.458,4,-1.22,-0.27,0.71,23.5574,-0.8263999999999996,-2.9907999999999983,175,75
2026-05-07 18:38:35.470,4,-1.17,-0.24,0.73,22.6374,4.243600000000001,-2.620800000000001,175,75
2026-05-07 18:38:35.478,4,-1.13,-0.25,0.72,24.3474,1.9236000000000004,-2.440800000000001,175,75
2026-05-07 18:38:35.484,4,-1.16,-0.28,0.73,23.5574,-3.1363999999999983,-2.200799999999999,175,75
2026-05-07 18:38:35.506,4,-1.22,-0.28,0.76,21.9674,0.9436,-0.2507999999999999,175,75
2026-05-07 18:38:35.531,4,-1.18,-0.24,0.76,15.1374,-10.5764,-0.1908000000000012,175,75
2026-05-07 18:38:35.552,4,-1.16,-0.24,0.77,12.9474,-7.046399999999998,-0.2507999999999999,175,75
2026-05-07 18:38:35.552,4,-1.12,-0.24,0.76,10.5674,-12.7164,-2.8107999999999986,175,75
2026-05-07 18:38:35.566,4,-1.06,-0.2,0.77,9.1074,-17.5264,-4.330800000000002,175,75
2026-05-07 18:38:35.577,4,-1.13,-0.18,0.76,8.4374,-29.906399999999998,-7.200799999999999,175,75
2026-05-07 18:38:35.608,4,-1.15,-0.26,0.72,9.9574,-10.636399999999998,-2.7508,175,75
2026-05-07 18:38:35.634,4,-1.27,-0.35,0.73,5.8074,-3.196399999999997,-0.6107999999999993,175,75
2026-05-07 18:38:35.648,4,-1.21,-0.38,0.82,-1.1425999999999998,-0.6363999999999983,2.0692000000000004,175,75
2026-05-07 18:38:35.670,4,-1.13,-0.35,0.83,0.017400000000000304,-4.416399999999999,2.4391999999999996,175,75
2026-05-07 18:38:35.685,4,-1.11,-0.33,0.84,-0.6525999999999996,-13.0764,1.5191999999999997,175,75
2026-05-07 18:38:35.721,4,-1.09,-0.21,0.72,-3.522599999999999,-49.9664,-5.610799999999999,175,75
2026-05-07 18:38:35.747,4,-1.16,-0.24,0.72,3.4374000000000002,-23.5064,-1.040799999999999,175,75
2026-05-07 18:38:35.771,4,-1.17,-0.26,0.8,5.8674,-32.5864,-3.780800000000001,175,75
2026-05-07 18:38:35.781,4,-1.17,-0.28,0.79,4.5274,-44.1164,-6.470799999999999,175,75
2026-05-07 18:38:35.793,4,-1.17,-0.28,0.77,3.0674,-54.7864,-9.0908,175,75
2026-05-07 18:38:35.806,4,-1.17,-0.27,0.72,1.6674000000000002,-61.246399999999994,-10.8008,175,75
2026-05-07 18:38:35.808,4,-1.21,-0.26,0.67,1.2374000000000005,-59.8464,-9.8208,175,75
2026-05-07 18:38:35.813,4,-1.21,-0.25,0.64,1.6674000000000002,-49.2364,-7.5008,175,75
2026-05-07 18:38:35.857,4,-1.17,-0.26,0.72,4.0474000000000006,-33.8664,-3.6008000000000013,175,75
2026-05-07 18:38:35.868,4,-1.14,-0.27,0.72,0.7474000000000003,-42.8364,-6.280800000000001,175,75
2026-05-07 18:38:35.901,4,-1.18,-0.25,0.69,4.1074,-35.6964,-4.330800000000002,175,75
2026-05-07 18:38:35.916,4,-1.16,-0.27,0.7,6.0574,-26.976399999999998,-2.9907999999999983,175,75
2026-05-07 18:38:35.926,4,-1.13,-0.29,0.73,8.3674,-20.6364,-1.4707999999999988,175,75
2026-05-07 18:38:35.926,4,-1.12,-0.3,0.76,8.9774,-19.1764,-2.200799999999999,175,75
2026-05-07 18:38:35.995,4,-1.14,-0.3,0.78,8.1274,-42.8364,-6.8908000000000005,175,75
2026-05-07 18:38:36.010,4,-1.17,-0.31,0.77,8.3674,-39.7264,-5.4308,175,75
2026-05-07 18:38:36.028,4,-1.14,-0.32,0.81,7.3974,-35.7564,-5.9808,175,75
2026-05-07 18:38:36.041,4,-1.14,-0.31,0.81,6.2974000000000006,-40.5164,-7.620800000000001,175,75
2026-05-07 18:38:36.053,4,-1.13,-0.32,0.83,8.0074,-42.8964,-9.030800000000001,175,75
2026-05-07 18:38:36.053,4,-1.09,-0.33,0.82,9.287400000000002,-49.1164,-11.220799999999999,175,75
2026-05-07 18:38:36.080,4,-1.14,-0.28,0.81,9.1674,-62.4664,-12.2008,175,75
2026-05-07 18:38:36.080,4,-1.11,-0.32,0.77,9.1674,-51.246399999999994,-13.3608,175,75
2026-05-07 18:38:36.085,4,-1.1,-0.3,0.73,8.067400000000001,-52.4664,-12.9308,175,75
2026-05-07 18:38:36.099,4,-1.14,-0.29,0.76,11.7274,-44.5464,-9.940800000000001,175,75
2026-05-07 18:38:36.121,4,-1.13,-0.33,0.8,9.2274,-38.0764,-8.3608,175,75
2026-05-07 18:38:36.121,4,-1.13,-0.3,0.82,8.9174,-38.9964,-7.560799999999999,175,75
2026-05-07 18:38:36.139,4,-1.13,-0.29,0.79,10.0174,-37.9564,-7.440800000000001,175,75
2026-05-07 18:38:36.150,4,-1.15,-0.29,0.79,10.807400000000001,-35.3364,-5.670800000000002,175,75
2026-05-07 18:38:36.162,4,-1.16,-0.29,0.81,12.7574,-29.1164,-2.9907999999999983,175,75
2026-05-07 18:38:36.172,4,-1.16,-0.31,0.84,12.6374,-26.066399999999998,-1.7707999999999995,175,75
2026-05-07 18:38:36.182,4,-1.14,-0.32,0.87,12.4574,-28.6264,-2.5008,175,75
2026-05-07 18:38:36.182,4,-1.12,-0.32,0.88,11.5474,-38.0764,-5.370800000000001,175,75
2026-05-07 18:38:36.193,4,-1.16,-0.3,0.87,11.967400000000001,-47.166399999999996,-7.9308,175,75
2026-05-07 18:38:36.205,4,-1.18,-0.29,0.84,12.157399999999999,-47.8364,-8.8408,175,75
2026-05-07 18:38:36.218,4,-1.17,-0.28,0.82,12.5174,-43.8064,-8.2308,175,75
2026-05-07 18:38:36.230,4,-1.14,-0.25,0.85,13.6174,-33.1964,-5.120800000000001,175,75
2026-05-07 18:38:36.244,4,-1.17,-0.28,0.84,13.4374,-33.3264,-5.2508,175,75
2026-05-07 18:38:36.255,4,-1.17,-0.31,0.86,11.8474,-42.4664,-6.950799999999999,175,75
2026-05-07 18:38:36.278,4,-1.16,-0.28,0.85,10.4474,-45.5764,-8.170800000000002,175,75
2026-05-07 18:38:36.289,4,-1.17,-0.27,0.85,12.397400000000001,-44.416399999999996,-8.900799999999998,175,75
2026-05-07 18:38:36.302,4,-1.08,-0.21,0.9,15.8674,-37.8964,-6.6507999999999985,175,75
2026-05-07 18:38:36.337,4,-1.2,-0.35,0.8,10.627400000000002,-35.3364,-3.6608,175,75
2026-05-07 18:38:36.346,4,-1.17,-0.28,0.84,11.6674,-37.1064,-2.9907999999999983,175,75
2026-05-07 18:38:36.359,4,-1.19,-0.29,0.86,14.2874,-36.2464,-3.8407999999999998,175,75
2026-05-07 18:38:36.379,4,-1.21,-0.28,0.87,10.807400000000001,-33.7464,-6.100800000000001,175,75
2026-05-07 18:38:36.391,4,-1.22,-0.31,0.86,10.3274,-30.0264,-5.060799999999999,175,75
2026-05-07 18:38:36.395,4,-1.2,-0.32,0.87,9.9574,-26.5564,-2.8107999999999986,175,75
2026-05-07 18:38:36.406,4,-1.18,-0.3,0.87,10.0774,-24.906399999999998,-1.280800000000001,175,75
2026-05-07 18:38:36.423,4,-1.15,-0.29,0.87,10.5674,-25.156399999999998,-0.1908000000000012,175,75
2026-05-07 18:38:36.433,4,-1.14,-0.29,0.89,10.9974,-25.4564,0.7891999999999992,175,75
2026-05-07 18:38:36.433,4,-1.15,-0.3,0.89,10.0774,-26.1864,-0.31079999999999863,175,75
2026-05-07 18:38:36.466,4,-1.15,-0.31,0.88,9.0474,-31.5564,-2.380799999999999,175,75
2026-05-07 18:38:36.477,4,-1.16,-0.33,0.88,10.9374,-29.9664,-1.9507999999999992,175,75
2026-05-07 18:38:36.494,4,-1.15,-0.33,0.89,11.7274,-21.4364,-1.1008000000000013,175,75
2026-05-07 18:38:36.505,4,-1.15,-0.32,0.92,12.4574,-23.016399999999997,-1.1008000000000013,175,75
2026-05-07 18:38:36.522,4,-1.16,-0.33,0.93,12.7574,-25.516399999999997,-2.0108000000000015,175,75
2026-05-07 18:38:36.532,4,-1.13,-0.32,0.91,11.8474,-30.336399999999998,-3.7207999999999988,175,75
2026-05-07 18:38:36.548,4,-1.13,-0.31,0.9,11.3574,-32.346399999999996,-4.580800000000002,175,75
2026-05-07 18:38:36.559,4,-1.15,-0.28,0.89,10.9974,-31.5564,-3.3607999999999993,175,75
2026-05-07 18:38:36.571,4,-1.15,-0.26,0.88,10.3874,-29.726399999999998,-2.7508,175,75
2026-05-07 18:38:36.573,4,-1.15,-0.28,0.88,9.1674,-27.226399999999998,-3.540799999999999,175,75
2026-05-07 18:38:36.589,4,-1.18,-0.31,0.88,8.6174,-25.086399999999998,-3.8407999999999998,175,75
2026-05-07 18:38:36.601,4,-1.21,-0.32,0.92,8.7974,-19.9664,-2.3208,175,75
2026-05-07 18:38:36.612,4,-1.2,-0.33,0.93,8.737400000000001,-19.2964,-2.0108000000000015,175,75
2026-05-07 18:38:36.624,4,-1.18,-0.33,0.93,9.407399999999999,-20.946399999999997,-2.2608000000000015,175,75
2026-05-07 18:38:36.635,4,-1.15,-0.31,0.91,9.407399999999999,-22.5264,-2.5607999999999986,175,75
2026-05-07 18:38:36.662,4,-1.17,-0.28,0.91,5.3874,-21.066399999999998,-4.030800000000001,175,75
2026-05-07 18:38:36.679,4,-1.19,-0.29,0.93,4.6574,-19.1164,-3.6608,175,75
2026-05-07 18:38:36.694,4,-1.18,-0.3,0.94,4.7174000000000005,-19.6064,-3.4208000000000016,175,75
2026-05-07 18:38:36.694,4,-1.16,-0.3,0.95,5.1974,-19.1764,-2.870800000000001,175,75
2026-05-07 18:38:36.708,4,-1.14,-0.3,0.93,6.907400000000001,-17.406399999999998,-3.8407999999999998,175,75
2026-05-07 18:38:36.718,4,-1.13,-0.27,0.95,8.4974,-15.636399999999998,-1.530800000000001,175,75
2026-05-07 18:38:36.728,4,-1.15,-0.29,0.94,9.1074,-20.2764,-5.550800000000001,175,75
2026-05-07 18:38:36.742,4,-1.21,-0.31,0.91,7.2174000000000005,-25.946399999999997,-6.4007999999999985,175,75
2026-05-07 18:38:36.754,4,-1.23,-0.33,0.91,6.7274,-23.0764,-4.700799999999999,175,75
2026-05-07 18:38:36.766,4,-1.2,-0.31,0.92,5.747400000000001,-17.3464,-2.440800000000001,175,75
2026-05-07 18:38:36.802,4,-1.18,-0.31,0.94,3.9174,-18.196399999999997,-2.7508,175,75
2026-05-07 18:38:36.814,4,-1.16,-0.31,0.93,3.3674000000000004,-21.126399999999997,-4.700799999999999,175,75
2026-05-07 18:38:36.825,4,-1.17,-0.31,0.92,3.1874000000000002,-24.4164,-5.550800000000001,175,75
2026-05-07 18:38:36.870,4,-1.12,-0.3,0.92,4.287400000000001,-19.2964,-0.9208000000000016,175,75
2026-05-07 18:38:36.881,4,-1.12,-0.31,0.91,5.9374,-24.5464,-1.6507999999999985,175,75
2026-05-07 18:38:36.910,4,-1.14,-0.31,0.9,6.4774,-27.0464,-1.8308000000000018,175,75
2026-05-07 18:38:36.926,4,-1.17,-0.31,0.9,6.7274,-25.946399999999997,-1.9507999999999992,175,75
2026-05-07 18:38:36.972,4,-1.17,-0.32,0.93,8.9774,-23.3264,-1.8908000000000005,175,75
2026-05-07 18:38:36.985,4,-1.17,-0.31,0.94,8.557400000000001,-21.2464,-1.280800000000001,175,75
2026-05-07 18:38:36.985,4,-1.13,-0.31,0.93,7.9474,-23.2564,-2.0808000000000018,175,75
2026-05-07 18:38:37.003,4,-1.14,-0.31,0.92,8.4974,-23.8064,-2.0808000000000018,175,75
2026-05-07 18:38:37.021,4,-1.17,-0.31,0.95,6.2974000000000006,-21.066399999999998,-1.9507999999999992,175,75
2026-05-07 18:38:37.033,4,-1.17,-0.32,0.95,5.997400000000001,-20.336399999999998,-1.3407999999999998,175,75
2026-05-07 18:38:37.060,4,-1.17,-0.31,0.96,7.3974,-24.5464,-1.4007999999999985,175,75
2026-05-07 18:38:37.073,4,-1.19,-0.31,0.95,7.4574,-24.906399999999998,-1.7707999999999995,175,75
2026-05-07 18:38:37.092,4,-1.15,-0.3,0.94,8.0074,-26.0064,-1.8908000000000005,175,75
2026-05-07 18:38:37.118,4,-1.17,-0.31,0.94,9.467400000000001,-19.476399999999998,-0.06080000000000041,175,75
2026-05-07 18:38:37.129,4,-1.17,-0.31,0.95,9.467400000000001,-19.236399999999996,0.1191999999999993,175,75
2026-05-07 18:38:37.159,4,-1.17,-0.29,0.93,10.5674,-23.6864,-0.6708000000000016,175,75
2026-05-07 18:38:37.189,4,-1.19,-0.27,0.91,8.557400000000001,-19.236399999999996,0.4892000000000003,175,75
2026-05-07 18:38:37.213,4,-1.2,-0.29,0.92,8.0074,-16.0064,0.9692000000000007,175,75
2026-05-07 18:38:37.213,4,-1.19,-0.31,0.93,7.6974,-14.606399999999999,1.0291999999999994,175,75
2026-05-07 18:38:37.236,4,-1.19,-0.31,0.96,6.7274,-17.1664,-0.1208000000000009,175,75
2026-05-07 18:38:37.259,4,-1.18,-0.32,0.97,5.077400000000001,-20.2764,-1.7707999999999995,175,75
2026-05-07 18:38:37.271,4,-1.19,-0.32,0.97,4.6574,-19.8464,-1.8908000000000005,175,75
2026-05-07 18:38:37.285,4,-1.18,-0.31,0.97,3.8574,-19.726399999999998,-2.2608000000000015,175,75
2026-05-07 18:38:37.285,4,-1.18,-0.3,0.97,3.4374000000000002,-20.7564,-1.8908000000000005,175,75
2026-05-07 18:38:37.305,4,-1.18,-0.31,0.97,3.4974000000000003,-19.5464,-1.7108000000000008,175,75
2026-05-07 18:38:37.330,4,-1.16,-0.32,0.98,3.8574,-19.4164,-3.0508000000000006,175,75
2026-05-07 18:38:37.340,4,-1.16,-0.32,0.97,3.6174000000000004,-21.8564,-3.7207999999999988,175,75
2026-05-07 18:38:37.351,4,-1.17,-0.32,0.96,4.0474000000000006,-22.8964,-4.450799999999999,175,75
2026-05-07 18:38:37.355,4,-1.18,-0.31,0.96,4.1074,-20.516399999999997,-3.2308000000000003,175,75
2026-05-07 18:38:37.369,4,-1.16,-0.31,0.96,4.287400000000001,-17.9564,-2.0808000000000018,175,75
2026-05-07 18:38:37.395,4,-1.16,-0.31,0.95,5.077400000000001,-20.7564,-2.5607999999999986,175,75
2026-05-07 18:38:37.407,4,-1.17,-0.29,0.95,5.4474,-22.4664,-3.4808000000000003,175,75
2026-05-07 18:38:37.422,4,-1.18,-0.3,0.93,5.077400000000001,-19.8464,-2.8107999999999986,175,75
2026-05-07 18:38:37.435,4,-1.19,-0.3,0.94,5.077400000000001,-16.126399999999997,-1.6507999999999985,175,75
2026-05-07 18:38:37.445,4,-1.19,-0.31,0.96,5.5074000000000005,-13.446399999999997,-0.6708000000000016,175,75
2026-05-07 18:38:37.483,4,-1.19,-0.3,0.95,4.8974,-21.4964,-2.9307999999999996,175,75
2026-05-07 18:38:37.487,4,-1.19,-0.3,0.94,4.4074,-21.066399999999998,-2.870800000000001,175,75
2026-05-07 18:38:37.509,4,-1.19,-0.3,0.96,4.2274,-16.7964,-1.4007999999999985,175,75
2026-05-07 18:38:37.523,4,-1.18,-0.3,0.96,3.7374000000000005,-18.9364,-2.380799999999999,175,75
2026-05-07 18:38:37.563,4,-1.18,-0.31,0.94,3.7974000000000006,-18.8664,-3.2308000000000003,175,75
2026-05-07 18:38:37.578,4,-1.18,-0.31,0.97,4.0474000000000006,-12.106399999999997,-0.2507999999999999,175,75
2026-05-07 18:38:37.602,4,-1.14,-0.3,0.95,4.7774,-19.4164,-1.7108000000000008,175,75
2026-05-07 18:38:37.617,4,-1.15,-0.3,0.94,4.8974,-21.066399999999998,-1.5907999999999998,175,75
2026-05-07 18:38:37.631,4,-1.18,-0.28,0.94,4.5274,-19.2964,-0.8607999999999993,175,75
2026-05-07 18:38:37.642,4,-1.19,-0.28,0.95,3.9174,-17.7164,-0.4307999999999996,175,75
2026-05-07 18:38:37.668,4,-1.2,-0.3,0.95,3.6174000000000004,-19.1764,-1.3407999999999998,175,75
2026-05-07 18:38:37.692,4,-1.19,-0.3,0.96,3.7374000000000005,-18.5064,-0.9808000000000003,175,75
2026-05-07 18:38:37.692,4,-1.19,-0.31,0.94,3.8574,-17.226399999999998,-0.6107999999999993,175,75
2026-05-07 18:38:37.716,4,-1.18,-0.31,0.95,3.0074000000000005,-17.7164,-1.2207999999999988,175,75
2026-05-07 18:38:37.745,4,-1.16,-0.3,0.94,2.6374000000000004,-19.9664,-1.9507999999999992,175,75
2026-05-07 18:38:37.770,4,-1.17,-0.31,0.95,3.4374000000000002,-19.3564,-1.4707999999999988,175,75
2026-05-07 18:38:37.772,4,-1.17,-0.31,0.94,3.9774000000000003,-20.696399999999997,-2.0808000000000018,175,75
2026-05-07 18:38:37.790,4,-1.17,-0.3,0.94,3.7974000000000006,-21.0064,-1.530800000000001,175,75
2026-05-07 18:38:37.800,4,-1.17,-0.29,0.94,4.1074,-18.806399999999996,-0.49079999999999835,175,75
2026-05-07 18:38:37.826,4,-1.17,-0.29,0.93,4.7174000000000005,-17.5264,0.2992000000000008,175,75
2026-05-07 18:38:37.826,4,-1.18,-0.29,0.93,5.0174,-17.7764,0.3591999999999995,175,75
2026-05-07 18:38:37.835,4,-1.18,-0.3,0.93,4.6574,-17.406399999999998,-0.0007999999999999119,175,75
2026-05-07 18:38:37.854,4,-1.2,-0.29,0.94,4.287400000000001,-14.966399999999998,0.9692000000000007,175,75
2026-05-07 18:38:37.869,4,-1.19,-0.3,0.95,4.167400000000001,-15.026399999999999,0.7891999999999992,175,75
2026-05-07 18:38:37.904,4,-1.19,-0.3,0.95,4.8974,-17.5264,0.059200000000000585,175,75
2026-05-07 18:38:37.916,4,-1.19,-0.31,0.96,4.6574,-16.7964,0.2392000000000003,175,75
2026-05-07 18:38:37.930,4,-1.18,-0.31,0.96,4.957400000000001,-17.656399999999998,-0.06080000000000041,175,75
2026-05-07 18:38:37.938,4,-1.18,-0.3,0.97,5.2574000000000005,-18.2564,-0.1908000000000012,175,75
2026-05-07 18:38:37.947,4,-1.17,-0.3,0.96,5.1974,-19.1164,-0.4307999999999996,175,75
2026-05-07 18:38:37.958,4,-1.17,-0.3,0.94,5.1374,-20.5764,-0.6107999999999993,175,75
2026-05-07 18:38:37.983,4,-1.18,-0.3,0.94,4.957400000000001,-17.226399999999998,-0.31079999999999863,175,75
2026-05-07 18:38:37.997,4,-1.19,-0.3,0.95,4.837400000000001,-17.4664,-0.1208000000000009,175,75
2026-05-07 18:38:38.011,4,-1.18,-0.3,0.94,5.1374,-18.7464,-0.06080000000000041,175,75
2026-05-07 18:38:38.023,4,-1.18,-0.3,0.93,5.327400000000001,-20.156399999999998,-0.5508000000000006,175,75
2026-05-07 18:38:38.036,4,-1.19,-0.3,0.93,4.8974,-18.9964,-0.5508000000000006,175,75
2026-05-07 18:38:38.049,4,-1.2,-0.3,0.94,4.4074,-15.3364,-0.1208000000000009,175,75
2026-05-07 18:38:38.094,4,-1.2,-0.29,0.96,4.3474,-18.5064,-1.6507999999999985,175,75
2026-05-07 18:38:38.108,4,-1.19,-0.29,0.95,3.9174,-19.236399999999996,-1.280800000000001,175,75
2026-05-07 18:38:38.108,4,-1.19,-0.31,0.95,3.7974000000000006,-18.566399999999998,-0.7308000000000003,175,75
2026-05-07 18:38:38.119,4,-1.19,-0.3,0.95,3.1274000000000006,-17.656399999999998,-0.8607999999999993,175,75
2026-05-07 18:38:38.139,4,-1.18,-0.31,0.96,3.0674,-17.836399999999998,-1.1008000000000013,175,75
2026-05-07 18:38:38.149,4,-1.19,-0.31,0.96,2.6374000000000004,-18.6864,-1.8308000000000018,175,75
2026-05-07 18:38:38.157,4,-1.18,-0.31,0.95,3.1274000000000006,-19.6664,-2.5008,175,75
2026-05-07 18:38:38.163,4,-1.19,-0.3,0.96,3.6174000000000004,-18.566399999999998,-2.5607999999999986,175,75
2026-05-07 18:38:38.177,4,-1.18,-0.3,0.96,3.1874000000000002,-17.836399999999998,-2.9907999999999983,175,75
2026-05-07 18:38:38.191,4,-1.18,-0.3,0.96,3.4374000000000002,-19.7864,-3.540799999999999,175,75
2026-05-07 18:38:38.210,4,-1.19,-0.3,0.95,3.8574,-20.2764,-3.4808000000000003,175,75
2026-05-07 18:38:38.210,4,-1.18,-0.3,0.94,3.5574000000000003,-18.2564,-2.9307999999999996,175,75
2026-05-07 18:38:38.232,4,-1.19,-0.3,0.94,4.167400000000001,-16.8564,-2.200799999999999,175,75
2026-05-07 18:38:38.247,4,-1.2,-0.3,0.94,4.0474000000000006,-17.586399999999998,-2.620800000000001,175,75
2026-05-07 18:38:38.247,4,-1.2,-0.29,0.95,3.9174,-18.2564,-2.3208,175,75
2026-05-07 18:38:38.267,4,-1.19,-0.29,0.94,4.5274,-18.7464,-2.3208,175,75
2026-05-07 18:38:38.293,4,-1.2,-0.28,0.94,5.5674,-16.9164,-1.4007999999999985,175,75
2026-05-07 18:38:38.304,4,-1.2,-0.29,0.94,4.7774,-18.1364,-1.8908000000000005,175,75
2026-05-07 18:38:38.316,4,-1.21,-0.29,0.96,4.6574,-18.0764,-2.3208,175,75
2026-05-07 18:38:38.327,4,-1.21,-0.29,0.96,3.7974000000000006,-18.3864,-2.5008,175,75
2026-05-07 18:38:38.335,4,-1.21,-0.29,0.96,3.8574,-18.2564,-2.9307999999999996,175,75
2026-05-07 18:38:38.350,4,-1.22,-0.3,0.96,3.9174,-18.0764,-2.690800000000001,175,75
2026-05-07 18:38:38.358,4,-1.2,-0.3,0.96,3.9174,-15.516399999999999,-1.7108000000000008,175,75
2026-05-07 18:38:38.384,4,-1.18,-0.29,0.95,4.7174000000000005,-21.4364,-2.620800000000001,175,75
2026-05-07 18:38:38.398,4,-1.19,-0.28,0.93,4.7174000000000005,-20.3964,-2.0808000000000018,175,75
2026-05-07 18:38:38.407,4,-1.2,-0.28,0.92,5.1374,-18.3264,-1.530800000000001,175,75
2026-05-07 18:38:38.416,4,-1.2,-0.29,0.92,5.1974,-16.1864,-0.8008000000000006,175,75
2026-05-07 18:38:38.424,4,-1.21,-0.29,0.94,4.7774,-14.966399999999998,-0.6708000000000016,175,75
2026-05-07 18:38:38.435,4,-1.2,-0.29,0.95,4.8974,-15.156399999999998,-0.8008000000000006,175,75
2026-05-07 18:38:38.459,4,-1.2,-0.3,0.96,4.7174000000000005,-16.066399999999998,-1.4007999999999985,175,75
2026-05-07 18:38:38.481,4,-1.21,-0.28,0.95,4.0474000000000006,-20.946399999999997,-3.0508000000000006,175,75
2026-05-07 18:38:38.481,4,-1.21,-0.29,0.95,4.0474000000000006,-18.2564,-2.7508,175,75
2026-05-07 18:38:38.495,4,-1.2,-0.3,0.94,3.2474000000000003,-18.626399999999997,-3.0508000000000006,175,75
2026-05-07 18:38:38.528,4,-1.21,-0.29,0.94,2.2774000000000005,-16.306399999999996,-2.620800000000001,175,75
2026-05-07 18:38:38.539,4,-1.19,-0.3,0.94,2.2774000000000005,-15.7564,-2.0808000000000018,175,75
2026-05-07 18:38:38.539,4,-1.18,-0.3,0.97,2.7574000000000005,-15.216399999999998,-1.8908000000000005,175,75
2026-05-07 18:38:38.547,4,-1.19,-0.3,0.97,2.5174000000000003,-15.636399999999998,-2.2608000000000015,175,75
2026-05-07 18:38:38.568,4,-1.19,-0.31,0.96,3.5574000000000003,-23.3864,-4.7608000000000015,175,75
2026-05-07 18:38:38.582,4,-1.19,-0.3,0.94,3.3074000000000003,-24.9664,-5.4308,175,75
2026-05-07 18:38:38.615,4,-1.2,-0.29,0.92,4.0474000000000006,-19.1764,-4.7608000000000015,175,75
2026-05-07 18:38:38.633,4,-1.21,-0.29,0.92,3.5574000000000003,-17.0464,-4.210800000000001,175,75
2026-05-07 18:38:38.644,4,-1.2,-0.29,0.93,3.4374000000000002,-16.4364,-3.9707999999999988,175,75
2026-05-07 18:38:38.656,4,-1.19,-0.28,0.93,3.7974000000000006,-19.476399999999998,-4.210800000000001,175,75
2026-05-07 18:38:38.656,4,-1.19,-0.29,0.93,4.4674000000000005,-20.5764,-4.3908000000000005,175,75
2026-05-07 18:38:38.672,4,-1.18,-0.29,0.91,4.837400000000001,-20.5764,-3.780800000000001,175,75
2026-05-07 18:38:38.720,4,-1.18,-0.29,0.95,6.1774000000000004,-17.4664,-1.9507999999999992,175,75
2026-05-07 18:38:38.742,4,-1.18,-0.29,0.95,6.2374,-17.2864,-1.9507999999999992,175,75
2026-05-07 18:38:38.742,4,-1.19,-0.3,0.95,6.3574,-17.406399999999998,-1.7108000000000008,175,75
2026-05-07 18:38:38.769,4,-1.19,-0.29,0.95,6.1774000000000004,-16.4364,-1.280800000000001,175,75
2026-05-07 18:38:38.780,4,-1.19,-0.29,0.95,6.907400000000001,-18.446399999999997,-1.8908000000000005,175,75
2026-05-07 18:38:38.791,4,-1.2,-0.3,0.95,6.5474000000000006,-19.056399999999996,-2.440800000000001,175,75
2026-05-07 18:38:38.801,4,-1.22,-0.3,0.96,5.5074000000000005,-19.056399999999996,-2.690800000000001,175,75
2026-05-07 18:38:38.833,4,-1.19,-0.29,0.96,4.4674000000000005,-20.516399999999997,-3.6008000000000013,175,75
2026-05-07 18:38:38.839,4,-1.17,-0.28,0.96,5.1374,-22.3464,-4.450799999999999,175,75
2026-05-07 18:38:38.849,4,-1.2,-0.31,0.95,4.0474000000000006,-23.6864,-5.310799999999999,175,75
2026-05-07 18:38:38.859,4,-1.2,-0.31,0.95,2.6374000000000004,-19.1164,-4.7608000000000015,175,75
2026-05-07 18:38:38.871,4,-1.19,-0.3,0.95,1.9074000000000004,-17.586399999999998,-4.2707999999999995,175,75
2026-05-07 18:38:38.899,4,-1.15,-0.29,0.96,2.8274000000000004,-19.4164,-4.880799999999999,175,75
2026-05-07 18:38:38.932,4,-1.19,-0.32,0.92,3.4374000000000002,-20.8264,-4.5108000000000015,175,75
2026-05-07 18:38:38.956,4,-1.19,-0.28,0.93,2.8274000000000004,-16.066399999999998,-2.9307999999999996,175,75
2026-05-07 18:38:38.956,4,-1.19,-0.29,0.93,3.3674000000000004,-18.3864,-3.0508000000000006,175,75
2026-05-07 18:38:38.980,4,-1.2,-0.3,0.94,4.167400000000001,-17.7164,-1.7707999999999995,175,75
2026-05-07 18:38:38.991,4,-1.2,-0.3,0.95,3.1274000000000006,-15.7564,-1.280800000000001,175,75
2026-05-07 18:38:38.991,4,-1.18,-0.29,0.95,3.3674000000000004,-16.306399999999996,-1.4007999999999985,175,75
2026-05-07 18:38:39.015,4,-1.2,-0.31,0.93,3.4974000000000003,-21.4364,-3.7207999999999988,175,75
2026-05-07 18:38:39.015,4,-1.2,-0.3,0.93,2.1574000000000004,-18.9964,-4.1507999999999985,175,75
2026-05-07 18:38:39.025,4,-1.2,-0.29,0.94,2.0874000000000006,-18.196399999999997,-4.2707999999999995,175,75
2026-05-07 18:38:39.039,4,-1.21,-0.29,0.95,2.6374000000000004,-16.556399999999996,-3.2308000000000003,175,75
2026-05-07 18:38:39.060,4,-1.18,-0.29,0.95,2.8874000000000004,-16.2464,-2.9307999999999996,175,75
2026-05-07 18:38:39.073,4,-1.17,-0.3,0.94,3.4974000000000003,-17.9564,-2.3208,175,75
2026-05-07 18:38:39.073,4,-1.17,-0.29,0.94,3.8574,-18.1364,-2.200799999999999,175,75
2026-05-07 18:38:39.102,4,-1.17,-0.29,0.94,4.287400000000001,-19.3564,-1.6507999999999985,175,75
2026-05-07 18:38:39.116,4,-1.18,-0.29,0.93,4.7174000000000005,-18.9964,-1.1608,175,75
2026-05-07 18:38:39.126,4,-1.2,-0.28,0.95,4.957400000000001,-15.5764,0.1191999999999993,175,75
2026-05-07 18:38:39.126,4,-1.21,-0.29,0.96,5.5074000000000005,-14.056399999999998,0.2992000000000008,175,75
2026-05-07 18:38:39.139,4,-1.2,-0.3,0.97,5.3874,-15.8264,-0.3708000000000009,175,75
2026-05-07 18:38:39.166,4,-1.19,-0.3,0.96,4.167400000000001,-22.1664,-2.440800000000001,175,75
2026-05-07 18:38:39.177,4,-1.19,-0.3,0.94,3.3074000000000003,-22.2864,-2.620800000000001,175,75
2026-05-07 18:38:39.184,4,-1.2,-0.3,0.93,3.0074000000000005,-20.516399999999997,-2.1408000000000005,175,75
2026-05-07 18:38:39.200,4,-1.2,-0.29,0.93,2.6374000000000004,-16.736399999999996,-1.3407999999999998,175,75
2026-05-07 18:38:39.224,4,-1.19,-0.3,0.94,2.9474000000000005,-18.806399999999996,-1.9507999999999992,175,75
2026-05-07 18:38:39.244,4,-1.19,-0.29,0.92,2.6974000000000005,-20.336399999999998,-3.1107999999999993,175,75
2026-05-07 18:38:39.255,4,-1.2,-0.29,0.93,2.9474000000000005,-17.3464,-1.7707999999999995,175,75
2026-05-07 18:38:39.266,4,-1.19,-0.29,0.94,3.4974000000000003,-15.696399999999999,-0.6708000000000016,175,75
2026-05-07 18:38:39.279,4,-1.16,-0.29,0.94,4.2274,-17.2864,-0.3708000000000009,175,75
2026-05-07 18:38:39.286,4,-1.17,-0.29,0.93,5.5074000000000005,-20.2764,-0.9808000000000003,175,75
2026-05-07 18:38:39.319,4,-1.2,-0.3,0.91,6.1174,-18.446399999999997,-0.0007999999999999119,175,75
2026-05-07 18:38:39.340,4,-1.21,-0.3,0.93,6.7874,-12.7164,1.5792000000000002,175,75
2026-05-07 18:38:39.352,4,-1.21,-0.31,0.94,8.2474,-11.496399999999998,1.9491999999999994,175,75
2026-05-07 18:38:39.358,4,-1.2,-0.32,0.95,8.8574,-12.776399999999999,2.0092,175,75
2026-05-07 18:38:39.373,4,-1.19,-0.3,0.96,8.1874,-17.2864,0.1191999999999993,175,75
2026-05-07 18:38:39.407,4,-1.22,-0.28,0.97,7.3974,-18.566399999999998,0.9092000000000002,175,75
2026-05-07 18:38:39.407,4,-1.21,-0.27,0.97,7.2174000000000005,-18.0764,1.1592000000000002,175,75
2026-05-07 18:38:39.422,4,-1.2,-0.26,0.98,6.417400000000001,-20.5764,1.0291999999999994,175,75
2026-05-07 18:38:39.433,4,-1.21,-0.25,0.98,5.627400000000001,-22.586399999999998,0.1191999999999993,175,75
2026-05-07 18:38:39.443,4,-1.23,-0.25,0.96,4.2274,-22.8964,-1.280800000000001,175,75
2026-05-07 18:38:39.458,4,-1.25,-0.26,0.96,2.7574000000000005,-21.3664,-1.8908000000000005,175,75
2026-05-07 18:38:39.479,4,-1.25,-0.24,0.97,-0.1625999999999994,-19.726399999999998,-0.3708000000000009,175,75
2026-05-07 18:38:39.502,4,-1.21,-0.25,0.99,-3.522599999999999,-18.0764,1.9491999999999994,175,75
2026-05-07 18:38:39.513,4,-1.21,-0.25,0.99,-4.192599999999999,-21.126399999999997,2.0692000000000004,175,75
2026-05-07 18:38:39.533,4,-1.17,-0.26,0.96,-2.8426,-26.066399999999998,1.9491999999999994,175,75
2026-05-07 18:38:39.545,4,-1.17,-0.26,0.92,-0.1625999999999994,-24.8464,2.8591999999999995,175,75
2026-05-07 18:38:39.557,4,-1.18,-0.17,1.0,6.8474,0.33360000000000056,12.3792,175,75
2026-05-07 18:38:39.562,4,-1.04,-0.15,0.84,-5.5326,-30.696399999999997,-1.4707999999999988,175,75
2026-05-07 18:38:39.590,4,-1.21,-0.33,0.76,4.957400000000001,-0.08639999999999759,9.9992,175,75
2026-05-07 18:38:39.602,4,-1.21,-0.26,0.86,-4.0626,26.803600000000003,15.1792,175,75
2026-05-07 18:38:39.627,4,-1.08,-0.28,0.91,-1.8725999999999994,16.803600000000003,6.459199999999999,175,75
2026-05-07 18:38:39.640,4,-1.08,-0.31,0.86,-8.272599999999999,20.7036,1.2791999999999994,175,75
2026-05-07 18:38:39.654,4,-0.93,-0.28,0.8,-17.7226,44.363600000000005,-3.2308000000000003,175,75
2026-05-07 18:38:39.666,4,-0.8,-0.2,0.79,-28.6426,63.6936,-12.690800000000001,175,75
2026-05-07 18:38:39.688,4,-0.74,-0.17,0.86,-51.6326,101.1936,-32.6908,175,75
2026-05-07 18:38:39.699,4,-0.52,-0.19,0.87,-62.912600000000005,98.4436,-48.6608,175,75
2026-05-07 18:38:39.724,4,-0.52,-0.19,0.91,-88.45259999999999,8.023600000000002,-106.5308,175,75
2026-05-07 18:38:39.724,4,-0.7,-0.13,0.94,-86.3826,5.453600000000002,-114.0908,175,75
2026-05-07 18:38:39.737,4,-0.93,-0.07,0.97,-79.86259999999999,6.493600000000001,-108.1108,175,75
2026-05-07 18:38:39.751,4,-1.12,-0.06,0.96,-58.7626,21.1336,-93.3008,175,75
2026-05-07 18:38:39.784,4,-1.11,-0.02,0.98,-15.712599999999998,24.053600000000003,-76.4708,175,75
2026-05-07 18:38:39.784,4,-1.22,0.05,1.01,-8.0926,14.483600000000003,-67.7508,175,75
2026-05-07 18:38:39.807,4,-1.01,-0.05,0.87,17.6374,-38.0764,-72.3808,175,75
2026-05-07 18:38:39.819,4,-0.92,-0.17,0.71,20.6274,-92.8964,-77.5608,175,75
2026-05-07 18:38:39.845,4,-1.18,-0.42,0.41,7.3974,-121.0664,-68.60079999999999,175,75
2026-05-07 18:38:39.853,4,-1.2,-0.5,0.32,7.087400000000001,-61.246399999999994,-58.720800000000004,175,75
2026-05-07 18:38:39.863,4,-1.21,-0.53,0.35,-2.172599999999999,-26.1864,-56.280800000000006,175,75
2026-05-07 18:38:39.905,4,-1.2,-0.22,0.48,-66.4426,77.8936,-82.1408,175,75
2026-05-07 18:38:39.926,4,-1.1,-0.08,0.62,-62.97259999999999,99.4836,-40.610800000000005,175,75
2026-05-07 18:38:39.950,4,-1.22,-0.1,0.71,-53.5826,119.7836,-24.8208,175,75
2026-05-07 18:38:39.962,4,-1.26,-0.11,0.87,-37.8426,114.84360000000001,-5.310799999999999,175,75
2026-05-07 18:38:39.985,4,-1.26,-0.09,1.0,-7.7226,60.2736,7.9192,175,75
2026-05-07 18:38:39.996,4,-1.11,-0.09,1.03,5.1974,6.253599999999999,11.0992,175,75
2026-05-07 18:38:39.996,4,-1.05,-0.06,1.08,12.217400000000001,-61.1864,15.299199999999999,175,75
2026-05-07 18:38:40.007,4,-1.07,-0.06,1.03,26.1774,-110.57639999999999,18.9592,175,75
2026-05-07 18:38:40.027,4,-0.97,-0.14,0.92,40.5674,-158.0764,9.6892,175,75
2026-05-07 18:38:40.053,4,-1.0,-0.21,0.51,45.5074,-213.7464,14.1992,175,75
2026-05-07 18:38:40.063,4,-1.02,-0.24,0.39,45.8074,-195.8264,21.4592,175,75
2026-05-07 18:38:40.076,4,-1.05,-0.28,0.33,45.0774,-173.3264,25.1792,175,75
2026-05-07 18:38:40.087,4,-0.99,-0.34,0.3,42.8274,-125.82639999999999,32.6792,175,75
2026-05-07 18:38:40.118,4,-0.76,-0.49,0.5,32.8274,-36.0064,36.1592,175,75
2026-05-07 18:38:40.131,4,-0.85,-0.5,0.6,22.6374,-38.2564,32.7992,175,75
2026-05-07 18:38:40.144,4,-0.94,-0.49,0.68,14.7174,-46.7364,27.1892,175,75
2026-05-07 18:38:40.181,4,-1.05,-0.52,0.84,4.287400000000001,-88.0764,16.2792,175,75
2026-05-07 18:38:40.194,4,-1.02,-0.58,0.86,3.9774000000000003,-110.1564,6.3392,175,75
2026-05-07 18:38:40.205,4,-1.08,-0.61,0.85,1.3574000000000002,-134.1764,-2.690800000000001,175,75
2026-05-07 18:38:40.215,4,-1.13,-0.59,0.81,-4.192599999999999,-142.28640000000001,-7.690800000000001,175,75
2026-05-07 18:38:40.226,4,-1.2,-0.55,0.77,-12.4226,-139.2964,-14.150799999999998,175,75
2026-05-07 18:38:40.226,4,-1.22,-0.49,0.7,-15.532599999999999,-134.3564,-18.050800000000002,175,75
2026-05-07 18:38:40.240,4,-1.25,-0.41,0.64,-11.752600000000001,-119.9664,-15.0008,175,75
2026-05-07 18:38:40.248,4,-1.17,-0.37,0.63,-0.4125999999999994,-80.15639999999999,-4.580800000000002,175,75
2026-05-07 18:38:40.258,4,-1.16,-0.38,0.63,2.8874000000000004,-60.6964,6.3392,175,75
2026-05-07 18:38:40.270,4,-1.24,-0.43,0.63,2.7574000000000005,-26.4364,18.5992,175,75
2026-05-07 18:38:40.284,4,-1.25,-0.51,0.64,0.8674000000000004,20.4536,24.269199999999998,175,75
2026-05-07 18:38:40.296,4,-1.19,-0.52,0.66,-0.1025999999999998,41.8036,26.949199999999998,175,75
2026-05-07 18:38:40.321,4,-1.2,-0.57,0.71,-0.5325999999999995,64.6636,30.7292,175,75
2026-05-07 18:38:40.328,4,-1.24,-0.57,0.73,-3.7026000000000003,67.6536,30.1192,175,75
2026-05-07 18:38:40.351,4,-1.23,-0.56,0.82,-9.7426,57.53360000000001,31.339199999999998,175,75
2026-05-07 18:38:40.370,4,-1.32,-0.62,0.88,-8.1526,26.863599999999998,34.5692,175,75
2026-05-07 18:38:40.418,4,-1.28,-0.62,0.71,-1.6925999999999997,-34.666399999999996,21.1592,175,75
2026-05-07 18:38:40.430,4,-1.26,-0.55,0.73,4.4074,-30.2764,23.6592,175,75
2026-05-07 18:38:40.473,4,-1.02,-0.6,1.06,18.2474,-68.4464,16.2192,175,75
2026-05-07 18:38:40.501,4,-0.8,-0.57,0.99,12.5174,-137.7764,-8.4808,175,75
2026-05-07 18:38:40.523,4,-1.04,-0.38,0.74,7.3974,-126.18639999999999,-10.120800000000001,175,75
2026-05-07 18:38:40.559,4,-1.05,-0.42,0.82,16.967399999999998,-92.5864,-1.530800000000001,175,75
2026-05-07 18:38:40.570,4,-0.99,-0.42,0.84,15.6274,-100.6964,-7.200799999999999,175,75
2026-05-07 18:38:40.624,4,-1.33,-0.22,0.52,3.9774000000000003,-62.8964,-4.580800000000002,175,75
2026-05-07 18:38:40.641,4,-1.29,-0.16,0.57,19.1074,-3.686399999999999,5.4192,175,75
2026-05-07 18:38:40.679,4,-1.01,-0.3,0.97,10.4474,-89.2364,-9.580800000000002,175,75
2026-05-07 18:38:40.683,4,-1.15,-0.18,0.9,6.8474,-121.3664,-9.760800000000001,175,75
2026-05-07 18:38:40.694,4,-1.21,-0.12,0.79,6.7874,-114.6664,-17.2008,175,75
2026-05-07 18:38:40.715,4,-1.12,-0.14,0.79,3.6174000000000004,-104.6064,-4.8208,175,75
2026-05-07 18:38:40.739,4,-1.1,-0.24,0.82,5.2574000000000005,-76.6764,-7.870800000000001,175,75
2026-05-07 18:38:40.794,4,-1.12,-0.22,0.84,-0.7725999999999997,37.6536,10.3592,175,75
2026-05-07 18:38:40.822,4,-1.0,-0.27,0.93,5.077400000000001,99.7836,18.6592,175,75
2026-05-07 18:38:40.842,4,-1.01,-0.28,0.92,5.077400000000001,108.6336,20.6692,175,75
2026-05-07 18:38:40.842,4,-1.05,-0.29,0.83,2.9474000000000005,125.8236,19.0192,175,75
2026-05-07 18:38:40.854,4,-1.04,-0.3,0.72,1.1774000000000004,154.3036,18.8992,175,75
2026-05-07 18:38:40.884,4,-1.11,-0.32,0.63,3.1874000000000002,235.5836,24.9392,175,75
2026-05-07 18:38:40.894,4,-1.14,-0.34,0.67,6.0574,277.7736,26.0292,175,75
2026-05-07 18:38:40.894,4,-1.18,-0.33,0.71,4.8974,289.1136,25.5492,175,75
2026-05-07 18:38:40.919,4,-1.29,-0.33,0.82,2.5774000000000004,308.1436,19.3892,175,75
2026-05-07 18:38:40.937,4,-1.28,-0.36,0.96,6.1174,309.4836,21.0292,175,75
2026-05-07 18:38:40.950,4,-1.25,-0.36,0.92,7.337400000000001,265.4536,15.6692,175,75
2026-05-07 18:38:40.974,4,-1.23,-0.38,0.86,14.4674,204.1736,1.6991999999999994,175,75
2026-05-07 18:38:40.997,4,-1.13,-0.4,0.7,23.857400000000002,152.4736,5.8492,175,75
2026-05-07 18:38:41.020,4,-1.13,-0.35,0.72,21.8474,150.0936,17.4992,175,75
2026-05-07 18:38:41.036,4,-0.96,-0.3,0.56,9.0474,108.5036,18.1692,175,75
2026-05-07 18:38:41.050,4,-0.94,-0.27,0.44,3.1874000000000002,100.64359999999999,19.1992,175,75
2026-05-07 18:38:41.058,4,-0.96,-0.27,0.35,0.3274000000000008,135.2736,23.5292,175,75
2026-05-07 18:38:41.095,4,-1.02,-0.2,0.38,-13.8826,234.17360000000002,34.7492,175,75
2026-05-07 18:38:41.145,4,-0.76,-0.32,0.66,8.737400000000001,-69.7864,-18.8408,175,75
2026-05-07 18:38:41.156,4,-0.83,-0.31,0.5,14.0474,-133.07639999999998,-36.470800000000004,175,75
2026-05-07 18:38:41.187,4,-0.94,-0.13,0.21,8.067400000000001,-136.1864,-35.860800000000005,175,75
2026-05-07 18:38:41.194,4,-1.0,-0.1,0.15,8.1874,-97.3464,-25.0608,175,75
2026-05-07 18:38:41.211,4,-1.02,-0.07,0.16,10.9374,-29.0564,-7.620800000000001,175,75
2026-05-07 18:38:41.216,4,-0.96,-0.08,0.28,11.967400000000001,27.163600000000002,8.049199999999999,175,75
2026-05-07 18:38:41.253,4,-0.82,-0.12,0.57,6.8474,-48.5064,-6.040799999999999,175,75
2026-05-07 18:38:41.286,4,-0.87,-0.15,0.45,1.9674000000000005,-102.2264,-20.190800000000003,175,75
2026-05-07 18:38:41.300,4,-0.94,-0.15,0.43,-2.2425999999999995,-98.6264,-19.510800000000003,175,75
2026-05-07 18:38:41.311,4,-1.0,-0.16,0.44,-3.0926,-84.9664,-15.0008,175,75
2026-05-07 18:38:41.321,4,-0.96,-0.2,0.47,-3.762599999999999,-82.7164,-15.670800000000002,175,75
2026-05-07 18:38:41.332,4,-0.96,-0.25,0.51,-3.0325999999999995,-105.6364,-21.3408,175,75
2026-05-07 18:38:41.345,4,-1.03,-0.26,0.54,0.2574000000000005,-129.4764,-23.900800000000004,175,75
2026-05-07 18:38:41.356,4,-1.04,-0.27,0.57,1.1174000000000004,-152.40640000000002,-27.3208,175,75
2026-05-07 18:38:41.367,4,-1.05,-0.27,0.62,-0.3426,-176.6764,-29.760800000000003,175,75
2026-05-07 18:38:41.382,4,-0.97,-0.26,0.76,-5.832599999999999,-253.6264,-35.8008,175,75
2026-05-07 18:38:41.393,4,-0.98,-0.26,0.81,-5.8926,-296.1264,-39.7608,175,75
2026-05-07 18:38:41.405,4,-0.98,-0.25,0.82,-5.412599999999999,-338.5664,-45.250800000000005,175,75
2026-05-07 18:38:41.430,4,-1.1,-0.24,0.7,-1.4425999999999997,-388.8064,-49.390800000000006,175,75
2026-05-07 18:38:41.461,4,-1.28,-0.24,0.39,4.0474000000000006,-305.6964,-45.4908,175,75
2026-05-07 18:38:41.475,4,-1.37,-0.24,0.48,2.4574000000000003,-207.7164,-21.1008,175,75
2026-05-07 18:38:41.484,4,-1.24,-0.27,0.61,3.4974000000000003,-181.4964,-18.110800000000005,175,75
2026-05-07 18:38:41.502,4,-1.11,-0.28,0.73,2.5774000000000004,-190.5764,-17.930800000000005,175,75
2026-05-07 18:38:41.514,4,-1.11,-0.29,0.77,-0.5325999999999995,-208.9364,-16.040799999999997,175,75
2026-05-07 18:38:41.514,4,-1.15,-0.33,0.75,-4.1326,-212.6564,-19.2708,175,75
2026-05-07 18:38:41.533,4,-1.13,-0.37,0.66,-10.8926,-198.50639999999999,-20.000800000000005,175,75
2026-05-07 18:38:41.543,4,-1.18,-0.38,0.57,-15.712599999999998,-179.6064,-14.0908,175,75
2026-05-07 18:38:41.560,4,-1.19,-0.41,0.41,-19.8626,-150.0264,-12.9308,175,75
2026-05-07 18:38:41.571,4,-1.24,-0.46,0.37,-17.052599999999998,-64.1164,-16.3408,175,75
2026-05-07 18:38:41.582,4,-1.02,-0.4,0.52,0.19740000000000002,35.7636,4.199199999999999,175,75
2026-05-07 18:38:41.592,4,-0.85,-0.41,0.91,14.4074,86.7436,23.4692,175,75
2026-05-07 18:38:41.598,4,-0.87,-0.47,1.18,17.0274,79.2436,17.3092,175,75
2026-05-07 18:38:41.611,4,-0.87,-0.52,1.31,16.2374,38.2636,5.7292000000000005,175,75
2026-05-07 18:38:41.618,4,-0.99,-0.49,1.26,17.087400000000002,-38.8064,-12.2008,175,75
2026-05-07 18:38:41.634,4,-1.11,-0.43,1.13,20.8074,-79.4764,-24.8208,175,75
2026-05-07 18:38:41.650,4,-1.25,-0.29,0.76,21.7274,-100.2764,-22.3808,175,75
2026-05-07 18:38:41.672,4,-1.37,-0.24,0.64,15.8674,-71.6764,-9.150799999999998,175,75
2026-05-07 18:38:41.709,4,-1.19,-0.28,0.76,11.057400000000001,-18.2564,-1.7707999999999995,175,75
2026-05-07 18:38:41.709,4,-1.15,-0.26,0.82,12.397400000000001,-14.606399999999999,-4.450799999999999,175,75
2026-05-07 18:38:41.731,4,-1.09,-0.21,0.89,15.9374,-17.9564,-3.7207999999999988,175,75
2026-05-07 18:38:41.755,4,-1.21,-0.18,0.8,9.3474,-39.416399999999996,-5.190800000000001,175,75
2026-05-07 18:38:41.765,4,-1.23,-0.16,0.7,9.2274,-29.476399999999998,-2.1408000000000005,175,75
2026-05-07 18:38:41.780,4,-1.26,-0.17,0.68,17.087400000000002,0.27360000000000184,7.1892,175,75
2026-05-07 18:38:41.803,4,-1.23,-0.22,0.84,14.227400000000001,6.6736,5.6091999999999995,175,75
2026-05-07 18:38:41.816,4,-1.28,-0.21,0.89,15.9974,-0.8863999999999983,4.389200000000001,175,75
2026-05-07 18:38:41.831,4,-1.27,-0.2,0.89,16.3574,-9.476399999999998,2.2492,175,75
2026-05-07 18:38:41.856,4,-1.25,-0.17,0.73,11.8474,-11.436399999999999,-1.8908000000000005,175,75
2026-05-07 18:38:41.895,4,-1.14,-0.18,0.84,7.2174000000000005,32.4136,7.0092,175,75
2026-05-07 18:38:41.907,4,-1.13,-0.19,0.9,5.4474,26.613599999999998,6.949199999999999,175,75
2026-05-07 18:38:41.919,4,-1.12,-0.22,0.97,6.5474000000000006,20.153600000000004,4.139200000000001,175,75
2026-05-07 18:38:41.930,4,-1.07,-0.25,0.99,3.6174000000000004,3.7535999999999987,0.8491999999999997,175,75
2026-05-07 18:38:41.941,4,-1.08,-0.26,0.96,0.3274000000000008,-10.886399999999998,-2.200799999999999,175,75
2026-05-07 18:38:41.950,4,-1.14,-0.26,0.9,-0.9525999999999994,-19.7864,-3.3607999999999993,175,75
2026-05-07 18:38:41.974,4,-1.2,-0.32,0.87,3.9774000000000003,-3.3263999999999996,-2.200799999999999,175,75
2026-05-07 18:38:41.985,4,-1.17,-0.38,0.86,3.1274000000000006,2.593600000000002,-5.670800000000002,175,75
2026-05-07 18:38:41.997,4,-1.13,-0.4,0.87,5.327400000000001,6.003599999999999,-11.470799999999999,175,75
2026-05-07 18:38:42.007,4,-1.08,-0.39,0.89,6.5474000000000006,3.6936000000000035,-12.3208,175,75
2026-05-07 18:38:42.029,4,-1.14,-0.34,0.89,8.4974,8.693600000000004,-9.760800000000001,175,75
2026-05-07 18:38:42.029,4,-1.13,-0.35,0.87,9.717400000000001,15.583600000000004,-5.800800000000001,175,75
2026-05-07 18:38:42.043,4,-1.11,-0.38,0.84,9.9574,19.663600000000002,-2.3208,175,75
2026-05-07 18:38:42.054,4,-1.11,-0.39,0.78,12.157399999999999,34.42360000000001,4.449199999999999,175,75
2026-05-07 18:38:42.069,4,-1.14,-0.39,0.76,13.2474,51.67360000000001,12.7392,175,75
2026-05-07 18:38:42.082,4,-1.19,-0.39,0.72,11.6074,65.8236,15.1792,175,75
2026-05-07 18:38:42.092,4,-1.23,-0.39,0.75,11.4774,80.8836,16.2792,175,75
2026-05-07 18:38:42.105,4,-1.03,-0.42,0.9,18.1874,82.5936,11.3992,175,75
2026-05-07 18:38:42.131,4,-1.05,-0.37,0.84,2.8874000000000004,-2.8363999999999976,-0.9808000000000003,175,75
2026-05-07 18:38:42.155,4,-1.06,-0.3,0.61,10.6874,20.273600000000002,4.9392,175,75
2026-05-07 18:38:42.194,4,-1.07,-0.34,0.66,12.6974,85.7636,16.5192,175,75
2026-05-07 18:38:42.217,4,-1.08,-0.28,0.71,7.9474,48.56360000000001,11.0292,175,75
2026-05-07 18:38:42.243,4,-1.1,-0.28,0.68,11.7274,37.593599999999995,7.9192,175,75
2026-05-07 18:38:42.260,4,-1.09,-0.28,0.75,8.067400000000001,41.983599999999996,2.7392000000000003,175,75
2026-05-07 18:38:42.272,4,-1.03,-0.25,0.79,7.4574,30.8236,2.0092,175,75
2026-05-07 18:38:42.290,4,-1.08,-0.26,0.64,11.1174,23.1436,6.0992,175,75
2026-05-07 18:38:42.327,4,-1.07,-0.27,0.69,12.3374,48.81360000000001,8.049199999999999,175,75
2026-05-07 18:38:42.358,4,-1.08,-0.25,0.67,5.747400000000001,20.2136,2.8591999999999995,175,75
2026-05-07 18:38:42.394,4,-1.1,-0.25,0.6,-5.832599999999999,2.4136000000000024,-6.040799999999999,175,75
2026-05-07 18:38:42.408,4,-1.08,-0.21,0.61,-4.432599999999999,6.863599999999998,-4.330800000000002,175,75
2026-05-07 18:38:42.415,4,-1.1,-0.21,0.63,-4.3726,6.613599999999998,-3.4208000000000016,175,75
2026-05-07 18:38:42.427,4,-1.16,-0.24,0.66,-3.4526000000000003,8.9936,-3.3008000000000006,175,75
2026-05-07 18:38:42.462,4,-1.15,-0.22,0.78,4.0474000000000006,5.823599999999999,-0.5508000000000006,175,75
2026-05-07 18:38:42.467,4,-1.14,-0.23,0.82,8.1874,-1.6163999999999987,-0.31079999999999863,175,75
2026-05-07 18:38:42.490,4,-1.14,-0.32,0.77,7.8874,-21.0064,-2.5008,175,75
2026-05-07 18:38:42.513,4,-1.12,-0.32,0.66,5.9374,-25.4564,-4.0908,175,75
2026-05-07 18:38:42.526,4,-1.2,-0.31,0.62,5.9374,-11.366399999999999,0.9092000000000002,175,75
2026-05-07 18:38:42.540,4,-1.2,-0.33,0.65,8.6774,6.9236,3.5991999999999997,175,75
2026-05-07 18:38:42.550,4,-1.15,-0.33,0.72,8.6774,12.833600000000004,5.549200000000001,175,75
2026-05-07 18:38:42.561,4,-1.13,-0.33,0.76,6.2974000000000006,5.643599999999999,7.4992,175,75
2026-05-07 18:38:42.566,4,-1.15,-0.33,0.77,5.4474,-1.9163999999999994,7.799200000000001,175,75
2026-05-07 18:38:42.580,4,-1.14,-0.34,0.74,5.8674,-8.8064,7.8591999999999995,175,75
2026-05-07 18:38:42.614,4,-1.16,-0.33,0.66,5.0174,-13.566399999999998,9.139199999999999,175,75
2026-05-07 18:38:42.625,4,-1.14,-0.33,0.65,5.1374,-14.476399999999998,7.2492,175,75
2026-05-07 18:38:42.636,4,-1.15,-0.31,0.64,3.6774000000000004,-19.8464,6.1592,175,75
2026-05-07 18:38:42.647,4,-1.18,-0.3,0.66,2.3974,-21.3664,5.119199999999999,175,75
2026-05-07 18:38:42.662,4,-1.13,-0.3,0.65,-1.2626,-26.5564,1.3392,175,75
2026-05-07 18:38:42.672,4,-1.12,-0.28,0.61,-3.1525999999999996,-34.236399999999996,-3.3607999999999993,175,75
2026-05-07 18:38:42.683,4,-1.13,-0.25,0.57,-3.0926,-28.996399999999998,-2.440800000000001,175,75
2026-05-07 18:38:42.696,4,-1.13,-0.23,0.57,-2.9125999999999994,-18.446399999999997,1.0991999999999997,175,75
2026-05-07 18:38:42.711,4,-1.11,-0.23,0.57,-3.4526000000000003,-11.366399999999999,2.7392000000000003,175,75
2026-05-07 18:38:42.732,4,-1.08,-0.25,0.63,-2.4825999999999997,4.4236,5.7292000000000005,175,75
2026-05-07 18:38:42.732,4,-1.07,-0.25,0.66,-1.2025999999999994,-0.6363999999999983,3.4092000000000002,175,75
2026-05-07 18:38:42.751,4,-1.07,-0.24,0.69,1.7874000000000003,-6.246399999999998,3.1091999999999995,175,75
2026-05-07 18:38:42.763,4,-1.05,-0.26,0.71,2.9474000000000005,-15.696399999999999,1.6991999999999994,175,75
2026-05-07 18:38:42.763,4,-1.04,-0.26,0.69,2.1574000000000004,-27.4664,-1.280800000000001,175,75
2026-05-07 18:38:42.776,4,-1.06,-0.26,0.66,1.2374000000000005,-33.1964,-1.8908000000000005,175,75
2026-05-07 18:38:42.786,4,-1.1,-0.25,0.63,-0.1625999999999994,-31.066399999999998,-2.0108000000000015,175,75
2026-05-07 18:38:42.804,4,-1.08,-0.24,0.61,-0.9525999999999994,-29.7864,-2.0108000000000015,175,75
2026-05-07 18:38:42.826,4,-1.06,-0.28,0.71,-1.6925999999999997,-21.306399999999996,-2.380799999999999,175,75
2026-05-07 18:38:42.855,4,-1.05,-0.24,0.7,2.2174000000000005,-44.0564,-6.710800000000001,175,75
2026-05-07 18:38:42.866,4,-1.05,-0.23,0.66,5.5674,-43.9364,-4.450799999999999,175,75
2026-05-07 18:38:42.890,4,-1.06,-0.23,0.65,10.5674,-31.496399999999998,1.1592000000000002,175,75
2026-05-07 18:38:42.906,4,-1.05,-0.27,0.69,9.1674,-23.8664,0.2392000000000003,175,75
2026-05-07 18:38:42.916,4,-1.03,-0.28,0.77,5.9374,-24.7864,-5.120800000000001,175,75
2026-05-07 18:38:42.931,4,-1.03,-0.28,0.75,2.2174000000000005,-43.136399999999995,-10.310799999999999,175,75
2026-05-07 18:38:42.954,4,-1.18,-0.28,0.55,-0.9525999999999994,-43.0764,-11.280800000000001,175,75
2026-05-07 18:38:42.972,4,-1.23,-0.25,0.56,0.1374000000000004,-21.4964,-5.490799999999998,175,75
2026-05-07 18:38:42.983,4,-1.26,-0.23,0.61,0.6874000000000002,-6.066399999999998,0.5492000000000008,175,75
2026-05-07 18:38:42.984,4,-1.27,-0.23,0.68,1.9074000000000004,0.21359999999999957,4.3292,175,75
2026-05-07 18:38:42.998,4,-1.27,-0.24,0.76,3.9774000000000003,-0.02639999999999887,7.8591999999999995,175,75
2026-05-07 18:38:43.010,4,-1.24,-0.27,0.78,4.587400000000001,-17.836399999999998,9.449200000000001,175,75
2026-05-07 18:38:43.033,4,-1.21,-0.26,0.63,3.2474000000000003,-54.8464,2.799200000000001,175,75
2026-05-07 18:38:43.033,4,-1.22,-0.22,0.55,3.9174,-58.626400000000004,3.2891999999999992,175,75
2026-05-07 18:38:43.043,4,-1.27,-0.21,0.48,7.8874,-39.8464,4.2692,175,75
2026-05-07 18:38:43.053,4,-1.27,-0.23,0.53,11.787400000000002,-5.2164,11.0992,175,75
2026-05-07 18:38:43.063,4,-1.23,-0.26,0.62,9.3474,14.7836,17.0092,175,75
2026-05-07 18:38:43.073,4,-1.17,-0.29,0.7,5.997400000000001,13.933599999999998,12.1892,175,75
2026-05-07 18:38:43.097,4,-1.09,-0.32,0.79,3.0674,-20.2764,2.9192,175,75
2026-05-07 18:38:43.114,4,-1.1,-0.32,0.8,4.837400000000001,-19.236399999999996,0.7292000000000005,175,75
2026-05-07 18:38:43.114,4,-1.13,-0.29,0.84,6.1174,-14.786399999999999,4.7492,175,75
2026-05-07 18:38:43.125,4,-1.09,-0.31,0.87,7.5174,-25.4564,3.4092000000000002,175,75
2026-05-07 18:38:43.136,4,-1.02,-0.33,0.87,7.157400000000001,-49.7264,-4.330800000000002,175,75
2026-05-07 18:38:43.151,4,-1.03,-0.32,0.83,7.087400000000001,-60.9464,-8.0508,175,75
2026-05-07 18:38:43.163,4,-1.03,-0.27,0.68,4.1074,-57.8364,-10.7308,175,75
2026-05-07 18:38:43.200,4,-1.01,-0.24,0.68,12.5174,-26.976399999999998,1.4591999999999992,175,75
2026-05-07 18:38:43.213,4,-1.02,-0.31,0.67,5.327400000000001,-25.516399999999997,-1.1608,175,75
2026-05-07 18:38:43.225,4,-1.09,-0.26,0.63,2.2774000000000005,-30.086399999999998,-11.470799999999999,175,75
2026-05-07 18:38:43.239,4,-1.1,-0.21,0.58,3.4374000000000002,-28.746399999999998,-9.6408,175,75
2026-05-07 18:38:43.250,4,-1.09,-0.22,0.51,0.6874000000000002,-15.456399999999999,-6.830800000000002,175,75
2026-05-07 18:38:43.261,4,-1.06,-0.27,0.49,-0.9525999999999994,5.093600000000002,-2.380799999999999,175,75
2026-05-07 18:38:43.283,4,-1.12,-0.31,0.57,-5.5326,17.593600000000002,-1.9507999999999992,175,75
2026-05-07 18:38:43.297,4,-1.12,-0.33,0.6,-9.1326,20.583600000000004,-3.4208000000000016,175,75
2026-05-07 18:38:43.315,4,-1.05,-0.33,0.6,-14.8626,8.693600000000004,-8.4808,175,75
2026-05-07 18:38:43.325,4,-1.33,-0.24,0.65,-9.6126,22.7136,-2.2608000000000015,175,75
2026-05-07 18:38:43.362,4,-1.16,-0.2,0.69,-9.3726,48.81360000000001,2.799200000000001,175,75
2026-05-07 18:38:43.374,4,-1.07,-0.25,0.71,-7.9726,39.6636,3.7791999999999994,175,75
2026-05-07 18:38:43.388,4,-1.04,-0.29,0.67,-5.2226,0.7636000000000003,-3.9707999999999988,175,75
2026-05-07 18:38:43.399,4,-1.12,-0.25,0.69,-1.5625999999999998,-12.7164,-10.060799999999999,175,75
2026-05-07 18:38:43.413,4,-0.98,-0.26,0.64,-4.4925999999999995,-36.4964,-17.500800000000005,175,75
2026-05-07 18:38:43.429,4,-1.21,-0.2,0.61,-7.842599999999999,-53.8664,-20.0608,175,75
2026-05-07 18:38:43.452,4,-1.21,-0.12,0.54,-3.8826,-12.4664,-5.800800000000001,175,75
2026-05-07 18:38:43.466,4,-1.21,-0.14,0.56,-1.5025999999999993,4.053600000000003,-1.7707999999999995,175,75
2026-05-07 18:38:43.470,4,-1.21,-0.16,0.61,0.7474000000000003,19.663600000000002,2.6191999999999993,175,75
2026-05-07 18:38:43.486,4,-1.19,-0.22,0.79,7.6974,18.083600000000004,10.2392,175,75
2026-05-07 18:38:43.513,4,-1.25,-0.26,0.83,20.3274,-10.3964,12.9892,175,75
2026-05-07 18:38:43.532,4,-1.21,-0.3,0.82,31.1774,-44.3564,9.199200000000001,175,75
2026-05-07 18:38:43.532,4,-1.19,-0.33,0.76,32.2774,-75.8264,0.7292000000000005,175,75
2026-05-07 18:38:43.544,4,-1.2,-0.34,0.66,26.1774,-97.9564,-9.330800000000002,175,75
2026-05-07 18:38:43.555,4,-1.24,-0.29,0.54,18.977400000000003,-100.0264,-15.310799999999999,175,75
2026-05-07 18:38:43.585,4,-1.27,-0.14,0.57,22.8274,-6.3064,13.6592,175,75
2026-05-07 18:38:43.599,4,-1.16,-0.28,0.87,26.2974,4.363599999999998,23.9592,175,75
2026-05-07 18:38:43.612,4,-1.13,-0.31,0.97,28.3674,-23.9364,17.3792,175,75
2026-05-07 18:38:43.621,4,-1.08,-0.33,0.99,31.7874,-66.3664,9.5692,175,75
2026-05-07 18:38:43.644,4,-1.16,-0.29,0.72,34.1674,-143.6264,-14.580800000000002,175,75
2026-05-07 18:38:43.655,4,-1.15,-0.24,0.59,32.8874,-137.7164,-16.3408,175,75
2026-05-07 18:38:43.666,4,-1.16,-0.22,0.51,29.1674,-115.3364,-11.1608,175,75
2026-05-07 18:38:43.676,4,-1.2,-0.22,0.46,22.3974,-78.9964,-3.0508000000000006,175,75
2026-05-07 18:38:43.690,4,-1.25,-0.23,0.51,19.3474,-39.1164,4.5092,175,75
2026-05-07 18:38:43.702,4,-1.18,-0.24,0.64,17.7574,-4.606399999999997,12.6792,175,75
2026-05-07 18:38:43.708,4,-1.13,-0.26,0.79,17.3974,9.1736,19.0192,175,75
2026-05-07 18:38:43.740,4,-1.14,-0.32,0.9,19.717399999999998,-49.2364,7.2492,175,75
2026-05-07 18:38:43.753,4,-1.27,-0.29,0.76,21.4774,-75.2764,1.0291999999999994,175,75
2026-05-07 18:38:43.776,4,-1.26,-0.3,0.66,20.5674,-61.9764,8.5292,175,75
2026-05-07 18:38:43.776,4,-1.28,-0.28,0.6,18.9174,-46.0664,9.9992,175,75
2026-05-07 18:38:43.789,4,-1.22,-0.26,0.56,15.1374,-33.4464,8.1692,175,75
2026-05-07 18:38:43.806,4,-1.19,-0.2,0.61,11.787400000000002,-18.5064,4.5692,175,75
2026-05-07 18:38:43.821,4,-1.07,-0.2,0.68,6.1174,-8.136399999999998,6.3992,175,75
2026-05-07 18:38:43.831,4,-0.99,-0.27,0.73,1.6674000000000002,1.1936,6.889200000000001,175,75
2026-05-07 18:38:43.849,4,-1.2,-0.36,0.58,1.3574000000000002,33.9336,31.2192,175,75
2026-05-07 18:38:43.884,4,-1.79,-0.28,0.55,2.9474000000000005,224.5436,77.0092,175,75
2026-05-07 18:38:43.922,4,-0.86,-0.47,1.12,-10.2226,-72.2264,2.1891999999999996,175,75
2026-05-07 18:38:43.933,4,-0.66,-0.35,0.87,7.7574000000000005,-223.1364,-61.34080000000001,175,75
2026-05-07 18:38:43.938,4,-0.57,-0.15,0.7,18.3674,-277.2264,-73.7208,175,75
2026-05-07 18:38:43.960,4,-0.82,0.02,0.45,20.6874,-256.7364,-41.1008,175,75
2026-05-07 18:38:43.991,4,-1.06,-0.26,0.55,20.3874,39.483599999999996,6.219200000000001,175,75
2026-05-07 18:38:43.998,4,-1.02,-0.29,0.83,17.517400000000002,52.593599999999995,12.1292,175,75
2026-05-07 18:38:44.023,4,-0.9,-0.45,0.97,23.1874,-105.7564,-20.730800000000002,175,75
2026-05-07 18:38:44.037,4,-0.97,-0.45,0.76,4.6574,-200.5764,-59.2108,175,75
2026-05-07 18:38:44.061,4,-0.96,-0.4,0.65,-6.932599999999999,-200.8264,-64.51079999999999,175,75
2026-05-07 18:38:44.067,4,-0.99,-0.37,0.57,-12.302599999999998,-189.0564,-65.8608,175,75
2026-05-07 18:38:44.093,4,-1.09,-0.36,0.52,-18.3326,-167.1664,-63.970800000000004,175,75
2026-05-07 18:38:44.121,4,-1.5,-0.4,0.46,-42.0526,-94.6664,-45.4908,175,75
2026-05-07 18:38:44.153,4,-0.95,-0.5,0.72,-34.8626,0.27360000000000184,-50.8008,175,75
2026-05-07 18:38:44.153,4,-0.89,-0.51,0.8,-46.3826,-36.6164,-48.6608,175,75
2026-05-07 18:38:44.176,4,-1.26,-0.49,0.36,-97.8426,-51.4364,-38.4808,175,75
2026-05-07 18:38:44.220,4,-1.4,-0.76,0.4,-137.2426,-23.626399999999997,-3.1107999999999993,175,75
2026-05-07 18:38:44.284,4,-1.59,-0.69,0.41,-180.89260000000002,19.843600000000002,45.1192,175,75
2026-05-07 18:38:44.296,4,-1.52,-0.55,0.27,-174.61260000000001,48.203599999999994,57.249199999999995,175,75
2026-05-07 18:38:44.323,4,-1.42,-0.36,0.47,-161.9326,80.0936,65.4192,175,75
2026-05-07 18:38:44.334,4,-1.31,-0.29,0.6,-153.45260000000002,75.4536,62.8592,175,75
2026-05-07 18:38:44.344,4,-1.29,-0.2,0.68,-142.6026,55.1536,60.0592,175,75
2026-05-07 18:38:44.360,4,-1.35,-0.12,0.71,-130.95260000000002,32.1636,58.4092,175,75
2026-05-07 18:38:44.371,4,-1.46,-0.03,0.73,-120.5926,24.2436,61.3392,175,75
2026-05-07 18:38:44.375,4,-1.52,0.04,0.76,-103.76259999999999,33.8136,66.2792,175,75
2026-05-07 18:38:44.390,4,-1.45,0.09,0.81,-83.70259999999999,49.843599999999995,68.8392,175,75
2026-05-07 18:38:44.394,4,-0.98,0.05,1.04,-36.6326,142.4136,41.5792,175,75
2026-05-07 18:38:44.407,4,0.3,0.21,2.15,18.3674,164.6036,29.199199999999998,175,75
2026-05-07 18:38:44.419,4,0.02,0.41,2.53,56.2974,-22.656399999999998,27.9892,175,75
2026-05-07 18:38:44.433,4,-0.9,0.38,2.12,96.1174,-231.4964,-47.3808,175,75
2026-05-07 18:38:44.449,4,-1.39,0.24,0.85,85.50739999999999,-269.3564,-83.48079999999999,175,75
2026-05-07 18:38:44.466,4,-1.23,0.08,-0.09,118.85740000000001,-121.43639999999999,-49.3308,175,75
2026-05-07 18:38:44.486,4,-1.39,-0.06,-0.19,134.4674,-18.9364,-15.920800000000002,175,75
2026-05-07 18:38:44.501,4,-1.27,-0.23,-0.1,123.6774,43.2636,8.8392,175,75
2026-05-07 18:38:44.511,4,-1.15,-0.37,0.01,97.63740000000001,18.693600000000004,10.1792,175,75
