Time,ID,Ax,Ay,Az,Gx,Gy,Gz,Height,Weight
2026-05-07 18:34:13.331,4,-0.19,-0.22,1.41,60.967800000000004,-72.5362,-0.938600000000001,175,75
2026-05-07 18:34:13.344,4,-0.24,-0.27,1.4,65.23780000000001,-63.696200000000005,-2.038599999999999,175,75
2026-05-07 18:34:13.357,4,-0.24,-0.32,1.43,68.8978,-59.9762,-1.9085999999999999,175,75
2026-05-07 18:34:13.361,4,-0.19,-0.39,1.5,76.8178,-73.0262,-7.8886,175,75
2026-05-07 18:34:13.506,4,-0.08,-0.53,1.32,119.62780000000001,-28.5062,-29.348599999999998,175,75
2026-05-07 18:34:13.506,4,-0.06,-0.54,1.33,121.4578,-24.3662,-26.3686,175,75
2026-05-07 18:34:13.547,4,0.06,-0.49,1.2,125.4178,-66.6762,-39.2286,175,75
2026-05-07 18:34:13.556,4,0.06,-0.46,1.08,117.6778,-84.4862,-45.3886,175,75
2026-05-07 18:34:13.564,4,0.07,-0.44,0.99,110.65780000000001,-85.7662,-46.4286,175,75
2026-05-07 18:34:13.573,4,0.15,-0.46,0.85,100.4178,-78.3262,-46.7286,175,75
2026-05-07 18:34:13.597,4,0.15,-0.47,0.74,90.2978,-68.9362,-48.6186,175,75
2026-05-07 18:34:13.597,4,0.05,-0.42,0.64,73.2878,-51.7462,-47.708600000000004,175,75
2026-05-07 18:34:13.624,4,0.08,-0.13,0.6,33.037800000000004,-32.5362,-46.7286,175,75
2026-05-07 18:34:13.649,4,0.23,0.22,0.55,2.7977999999999996,-52.9562,-59.7786,175,75
2026-05-07 18:34:13.676,4,0.04,0.48,0.33,-21.412200000000002,-46.986200000000004,-77.8886,175,75
2026-05-07 18:34:13.698,4,0.11,0.41,-0.06,-55.9222,-39.6662,-90.2086,175,75
2026-05-07 18:34:13.745,4,-0.18,0.12,-0.07,-104.1522,34.5438,-70.7586,175,75
2026-05-07 18:34:13.745,4,0.02,-0.02,-0.19,-121.4122,42.8338,-89.3486,175,75
2026-05-07 18:34:13.798,4,-3.51,0.21,0.63,-98.5422,542.0438,-67.7686,175,75
2026-05-07 18:34:13.814,4,3.99,-0.72,1.31,-167.69219999999999,598.9938,67.6614,175,75
2026-05-07 18:34:13.844,4,-0.31,-1.49,2.91,-41.1722,-288.6962,-217.8286,175,75
2026-05-07 18:34:13.855,4,-0.01,-1.44,1.02,-215.6222,-326.4962,-219.2286,175,75
2026-05-07 18:34:13.855,4,0.01,-1.35,0.44,-251.6522,-289.6662,-253.6786,175,75
2026-05-07 18:34:13.905,4,-0.52,-1.48,0.36,-161.9622,408.8638,-40.5686,175,75
2026-05-07 18:34:13.905,4,-0.31,-1.68,1.07,-207.2622,525.0838,-5.688600000000001,175,75
2026-05-07 18:34:13.918,4,-0.12,-1.71,1.64,-205.2522,490.8838,0.46140000000000114,175,75
2026-05-07 18:34:13.951,4,-0.26,-1.62,2.24,-88.3022,60.14379999999999,-93.0086,175,75
2026-05-07 18:34:13.966,4,-0.45,-1.02,1.84,-184.5222,-20.706200000000003,-114.1686,175,75
2026-05-07 18:34:13.978,4,-0.47,-0.76,1.83,-171.5322,-42.5962,-115.6286,175,75
2026-05-07 18:34:13.990,4,-0.44,-0.5,1.88,-135.3722,-62.3562,-95.9986,175,75
2026-05-07 18:34:14.000,4,-0.49,-0.35,1.87,-120.37219999999999,-79.4262,-86.9786,175,75
2026-05-07 18:34:14.008,4,-0.46,-0.24,1.73,-123.1822,-92.77619999999999,-89.8386,175,75
2026-05-07 18:34:14.040,4,-0.52,-0.09,1.13,-120.01219999999999,-86.61619999999999,-82.0386,175,75
2026-05-07 18:34:14.070,4,-0.4,0.0,1.28,-137.0822,149.66379999999998,-57.578599999999994,175,75
2026-05-07 18:34:14.106,4,-0.19,0.08,1.49,-146.1122,41.913799999999995,-111.7886,175,75
2026-05-07 18:34:14.181,4,-0.26,-0.59,1.04,-198.91219999999998,61.9138,-134.1686,175,75
2026-05-07 18:34:14.222,4,0.23,-0.65,1.21,-200.8622,50.0238,-109.1686,175,75
2026-05-07 18:34:14.222,4,0.21,-0.75,1.21,-202.9322,41.0038,-105.0186,175,75
2026-05-07 18:34:14.222,4,0.12,-0.75,1.24,-212.4522,32.7138,-99.2286,175,75
2026-05-07 18:34:14.232,4,0.0,-0.56,1.3,-225.3122,24.663799999999995,-93.5586,175,75
2026-05-07 18:34:14.263,4,0.19,-0.23,1.36,-227.2622,-7.9562,-76.7886,175,75
2026-05-07 18:34:14.304,4,0.22,-0.3,1.29,-214.2822,-51.0662,-67.2786,175,75
2026-05-07 18:34:14.326,4,0.24,-0.33,1.23,-220.1322,-71.00619999999999,-69.4786,175,75
2026-05-07 18:34:14.326,4,0.23,-0.18,1.2,-227.8722,-63.3862,-68.1886,175,75
2026-05-07 18:34:14.348,4,0.03,-0.07,1.17,-217.7522,-55.156200000000005,-59.65860000000001,175,75
2026-05-07 18:34:14.348,4,-0.14,-0.04,1.2,-220.19219999999999,-61.0062,-59.1686,175,75
2026-05-07 18:34:14.369,4,-0.38,0.05,1.22,-217.8722,-93.75619999999999,-59.108599999999996,175,75
2026-05-07 18:34:14.425,4,-0.42,0.09,1.2,-213.0022,-109.5462,-62.578599999999994,175,75
2026-05-07 18:34:14.425,4,-0.19,0.21,1.17,-224.4622,-99.5462,-66.4286,175,75
2026-05-07 18:34:14.425,4,-0.29,0.29,1.1,-231.9022,-89.97619999999999,-63.738600000000005,175,75
2026-05-07 18:34:14.444,4,-0.45,0.31,1.13,-227.69219999999999,-30.276200000000003,-72.3986,175,75
2026-05-07 18:34:14.456,4,-0.54,0.32,1.25,-222.8122,-1.2561999999999998,-70.8186,175,75
2026-05-07 18:34:14.482,4,-1.07,0.37,1.74,-170.8622,-78.2062,-101.9786,175,75
2026-05-07 18:34:14.506,4,-1.13,0.4,1.66,-157.4522,-152.9562,-116.5486,175,75
2026-05-07 18:34:14.517,4,-1.21,0.48,1.47,-146.9622,-230.9462,-132.4586,175,75
2026-05-07 18:34:14.530,4,-1.28,0.61,1.24,-140.3722,-274.7862,-131.2386,175,75
2026-05-07 18:34:14.530,4,-1.34,0.68,1.06,-131.2922,-280.21619999999996,-122.39859999999999,175,75
2026-05-07 18:34:14.569,4,-1.41,0.36,0.71,-48.9722,-163.2662,-77.0986,175,75
2026-05-07 18:34:14.569,4,-1.43,0.11,0.77,3.7678000000000003,-117.47619999999999,-49.8386,175,75
2026-05-07 18:34:14.588,4,-1.39,-0.18,0.89,67.73780000000001,-108.02619999999999,-23.1886,175,75
2026-05-07 18:34:14.622,4,-1.16,-0.56,0.98,147.0678,-158.8162,5.2814,175,75
2026-05-07 18:34:14.653,4,-0.66,-2.21,0.69,418.4678,-315.15619999999996,242.7214,175,75
2026-05-07 18:34:14.653,4,-0.89,-3.64,1.08,514.9878,-272.4162,279.8514,175,75
2026-05-07 18:34:14.664,4,-1.44,-4.68,1.23,604.0178,-311.3762,151.7414,175,75
2026-05-07 18:34:14.687,4,-0.05,-5.2,0.87,539.4978,-16.4962,147.2914,175,75
2026-05-07 18:34:14.705,4,0.39,-5.2,0.87,597.4878,-115.27619999999999,229.1814,175,75
2026-05-07 18:34:14.714,4,0.11,-5.75,0.87,704.2578,-244.4862,294.0014,175,75
2026-05-07 18:34:14.752,4,-0.3,-7.15,0.62,728.2178,-207.3562,260.28139999999996,175,75
2026-05-07 18:34:14.780,4,-0.43,-6.66,0.52,699.4378,-272.1062,247.9614,175,75
2026-05-07 18:34:14.791,4,-0.56,-5.89,0.31,593.5278,-380.45619999999997,158.2114,175,75
2026-05-07 18:34:14.791,4,-0.33,-4.94,-0.1,483.4078,-438.5062,96.6214,175,75
2026-05-07 18:34:14.801,4,-0.65,-3.93,-0.68,350.6578,-571.0062,14.6114,175,75
2026-05-07 18:34:14.814,4,-1.54,-3.14,-0.89,255.6578,-606.4362,-97.0986,175,75
2026-05-07 18:34:14.826,4,-2.3,-2.23,-0.97,167.1878,-345.70619999999997,-229.8386,175,75
2026-05-07 18:34:14.848,4,-0.79,-1.78,-0.95,135.4778,-115.4562,-302.5186,175,75
2026-05-07 18:34:14.858,4,-0.32,-1.55,-0.82,133.4078,-130.0962,-328.31859999999995,175,75
2026-05-07 18:34:14.875,4,-0.73,-1.05,-0.79,148.6478,-145.8862,-330.3886,175,75
2026-05-07 18:34:14.875,4,-0.81,-0.64,-0.82,164.4978,-124.1762,-319.34860000000003,175,75
2026-05-07 18:34:14.886,4,-0.28,0.22,-0.74,129.9278,-112.8962,-113.67859999999999,175,75
2026-05-07 18:34:14.905,4,-1.53,0.69,-1.18,194.1978,50.5738,-138.6186,175,75
2026-05-07 18:34:14.916,4,-1.44,0.99,-1.02,227.1878,189.2338,-35.0786,175,75
2026-05-07 18:34:14.932,4,-0.94,0.49,-0.77,287.7378,286.1238,-5.628599999999999,175,75
2026-05-07 18:34:14.947,4,-0.76,-0.09,-0.66,273.8978,186.00379999999998,-8.188600000000001,175,75
2026-05-07 18:34:14.961,4,-0.99,-0.32,-0.61,213.9578,24.903799999999997,-38.5586,175,75
2026-05-07 18:34:14.969,4,-1.31,-0.03,-0.64,95.5378,-111.9862,-72.7086,175,75
2026-05-07 18:34:15.017,4,-1.49,1.11,-1.4,-29.5222,-172.5362,-38.2586,175,75
2026-05-07 18:34:15.040,4,-1.75,1.0,-1.58,-85.1922,92.2838,11.2614,175,75
2026-05-07 18:34:15.054,4,-1.62,1.11,-1.04,-118.6022,360.5738,47.8414,175,75
2026-05-07 18:34:15.099,4,-0.8,0.58,0.09,-144.0922,462.16380000000004,51.4414,175,75
2026-05-07 18:34:15.099,4,-0.61,0.4,0.33,-155.9822,387.7138,27.0514,175,75
2026-05-07 18:34:15.110,4,-0.56,0.28,0.51,-177.5122,269.72380000000004,-15.448599999999999,175,75
2026-05-07 18:34:15.123,4,-0.61,0.24,0.53,-201.1722,156.1838,-51.4286,175,75
2026-05-07 18:34:15.133,4,-3.14,0.75,0.73,-219.2822,-88.63619999999999,4.9214,175,75
2026-05-07 18:34:15.142,4,-1.51,0.27,-0.03,-161.8422,290.6338,-69.7786,175,75
2026-05-07 18:34:15.170,4,0.87,-0.39,0.74,-200.6822,-277.2262,-138.4386,175,75
2026-05-07 18:34:15.195,4,-0.11,-0.0,0.37,-280.5022,-485.52619999999996,-186.3686,175,75
2026-05-07 18:34:15.206,4,0.24,-0.32,-0.13,-286.1022,-407.0462,-144.2886,175,75
2026-05-07 18:34:15.230,4,0.38,-1.36,-0.83,-252.5122,-226.9862,-58.2586,175,75
2026-05-07 18:34:15.230,4,0.79,-2.4,-0.91,-245.3122,-112.8962,21.8114,175,75
2026-05-07 18:34:15.239,4,0.83,-3.18,-0.67,-257.3222,-23.026200000000003,157.6614,175,75
2026-05-07 18:34:15.249,4,0.5,-3.74,-0.41,-309.2822,123.6238,265.2214,175,75
2026-05-07 18:34:15.283,4,1.18,-4.51,1.24,-431.2922,443.7438,-176.9686,175,75
2026-05-07 18:34:15.296,4,1.72,-4.39,1.58,-466.9022,443.0738,-127.51859999999999,175,75
2026-05-07 18:34:15.310,4,1.56,-4.85,1.74,-436.1722,358.3238,-102.7686,175,75
2026-05-07 18:34:15.320,4,1.04,-5.19,1.71,-410.2522,326.0638,-140.8186,175,75
2026-05-07 18:34:15.324,4,0.29,-5.65,1.79,-428.3622,340.6338,-203.3186,175,75
2026-05-07 18:34:15.357,4,-0.46,-5.23,2.16,-404.0922,300.1438,-335.20860000000005,175,75
2026-05-07 18:34:15.369,4,-0.34,-4.7,2.25,-396.4722,261.79380000000003,-361.05859999999996,175,75
2026-05-07 18:34:15.373,4,-0.17,-4.11,2.22,-393.4222,185.82379999999998,-356.1186,175,75
2026-05-07 18:34:15.406,4,-0.53,-2.77,1.66,-390.1322,74.5438,-289.83860000000004,175,75
2026-05-07 18:34:15.412,4,-0.6,-2.36,1.42,-393.2422,87.52380000000001,-274.5386,175,75
2026-05-07 18:34:15.421,4,-0.75,-1.91,1.2,-396.7822,124.23380000000002,-264.04859999999996,175,75
2026-05-07 18:34:15.435,4,-0.87,-1.45,1.04,-377.7522,167.9538,-266.05859999999996,175,75
2026-05-07 18:34:15.459,4,-1.0,-0.81,0.96,-289.0922,223.32379999999998,-275.5086,175,75
2026-05-07 18:34:15.469,4,-1.01,-0.5,1.03,-215.1322,228.07379999999998,-279.1086,175,75
2026-05-07 18:34:15.473,4,-0.95,-0.25,1.18,-147.9322,206.1238,-285.9986,175,75
2026-05-07 18:34:15.496,4,-0.62,0.49,1.62,-158.3622,58.1338,-63.5586,175,75
2026-05-07 18:34:15.518,4,-1.37,0.51,1.24,-112.5722,-28.9962,-111.2986,175,75
2026-05-07 18:34:15.536,4,-1.25,0.51,1.19,-83.0022,-46.9262,-104.3486,175,75
2026-05-07 18:34:15.555,4,-1.47,0.6,1.09,-81.7822,-44.2462,-61.1786,175,75
2026-05-07 18:34:15.595,4,-1.25,0.62,1.08,-42.8122,-25.526200000000003,-66.1186,175,75
2026-05-07 18:34:15.598,4,-1.33,0.58,1.08,-32.4522,-21.7462,-64.8986,175,75
2026-05-07 18:34:15.616,4,-1.45,0.54,1.08,-27.0822,-7.1062,-66.6086,175,75
2026-05-07 18:34:15.625,4,-1.5,0.5,1.11,-23.4222,38.3238,-71.2986,175,75
2026-05-07 18:34:15.647,4,-1.41,0.51,1.16,-18.8522,56.4338,-74.2886,175,75
2026-05-07 18:34:15.658,4,-1.35,0.51,1.19,-11.472199999999999,52.8338,-79.9586,175,75
2026-05-07 18:34:15.680,4,-1.31,0.49,1.21,10.5378,36.2438,-93.7386,175,75
2026-05-07 18:34:15.700,4,-1.25,0.47,1.22,17.677799999999998,35.8838,-98.8686,175,75
2026-05-07 18:34:15.709,4,-1.18,0.48,1.25,27.607799999999997,27.583799999999997,-104.5386,175,75
2026-05-07 18:34:15.723,4,-1.14,0.48,1.25,32.857800000000005,17.3438,-107.0386,175,75
2026-05-07 18:34:15.777,4,-1.18,0.5,1.23,45.177800000000005,-33.1462,-112.33860000000001,175,75
2026-05-07 18:34:15.777,4,-1.16,0.49,1.19,48.7078,-40.5862,-108.18860000000001,175,75
2026-05-07 18:34:15.797,4,-1.12,0.41,1.05,67.7978,-45.586200000000005,-88.7386,175,75
2026-05-07 18:34:15.817,4,-1.07,0.36,1.03,102.9178,-32.1662,-71.5486,175,75
2026-05-07 18:34:15.817,4,-1.03,0.37,1.06,122.73780000000001,-33.1462,-65.6886,175,75
2026-05-07 18:34:15.848,4,-0.94,0.36,1.07,192.0678,-57.5962,-41.1786,175,75
2026-05-07 18:34:15.860,4,-0.79,0.19,1.03,326.0278,-99.5462,-10.938600000000001,175,75
2026-05-07 18:34:15.877,4,-0.74,0.11,0.96,394.5678,-143.5662,10.3414,175,75
2026-05-07 18:34:15.900,4,-0.73,-0.37,0.76,587.6078,-254.9162,103.8814,175,75
2026-05-07 18:34:15.918,4,-0.68,-0.76,0.66,658.7078,-294.3662,144.6714,175,75
2026-05-07 18:34:15.930,4,-0.61,-1.4,0.62,748.4678,-307.65619999999996,211.3214,175,75
2026-05-07 18:34:15.941,4,-0.19,-2.07,0.73,810.4178,-303.7562,318.33140000000003,175,75
2026-05-07 18:34:15.953,4,-0.04,-2.63,0.98,849.0178,-335.76619999999997,457.17139999999995,175,75
2026-05-07 18:34:15.953,4,-0.47,-3.34,1.31,892.7378,-406.9262,527.9614,175,75
2026-05-07 18:34:15.967,4,-1.7,-5.51,2.0,1053.1578,-688.4462,282.66139999999996,175,75
2026-05-07 18:34:15.978,4,-2.57,-6.49,1.64,1025.2977999999998,-550.6462,137.0514,175,75
2026-05-07 18:34:16.006,4,-0.57,-6.76,-0.12,714.4978,-489.6062,29.4314,175,75
2026-05-07 18:34:16.006,4,-0.51,-6.2,-0.41,769.7478,-528.6962,55.6514,175,75
2026-05-07 18:34:16.028,4,-0.81,-5.96,-0.34,811.2678,-528.2062,77.8414,175,75
2026-05-07 18:34:16.032,4,-1.19,-5.61,-0.15,722.9778,-466.6762,65.8314,175,75
2026-05-07 18:34:16.054,4,-0.77,-4.18,0.07,456.2678,-398.4462,-48.498599999999996,175,75
2026-05-07 18:34:16.062,4,-0.32,-3.39,-0.14,320.8478,-415.45619999999997,-117.64859999999999,175,75
2026-05-07 18:34:16.071,4,-0.64,-2.72,-0.27,231.0278,-384.2462,-170.5686,175,75
2026-05-07 18:34:16.085,4,-0.96,-2.16,-0.42,181.9978,-272.89619999999996,-204.5386,175,75
2026-05-07 18:34:16.122,4,-0.76,-1.2,-0.09,214.0178,108.44380000000001,-117.8286,175,75
2026-05-07 18:34:16.136,4,-0.64,-1.09,0.39,182.1878,65.7538,-20.6286,175,75
2026-05-07 18:34:16.158,4,-0.61,-1.32,0.61,171.2678,-170.64620000000002,-66.6086,175,75
2026-05-07 18:34:16.181,4,-0.84,-0.51,0.5,103.9578,-346.9862,-67.4586,175,75
2026-05-07 18:34:16.191,4,-0.87,-0.1,0.38,85.1778,-358.08619999999996,-60.4486,175,75
2026-05-07 18:34:16.202,4,-0.73,0.29,0.21,67.9178,-356.1962,-54.8386,175,75
2026-05-07 18:34:16.214,4,-0.69,0.58,0.01,53.217800000000004,-345.64619999999996,-55.208600000000004,175,75
2026-05-07 18:34:16.227,4,-0.76,0.74,-0.25,40.967800000000004,-297.77619999999996,-54.2286,175,75
2026-05-07 18:34:16.238,4,-0.94,0.69,-0.46,39.6878,-204.11620000000002,-43.6786,175,75
2026-05-07 18:34:16.256,4,-0.91,0.42,-0.26,44.8678,2.463799999999999,5.1014,175,75
2026-05-07 18:34:16.269,4,-0.73,0.34,0.05,28.5278,25.5738,11.5014,175,75
2026-05-07 18:34:16.286,4,-0.56,0.4,0.41,-0.012199999999999989,-1.4362000000000004,12.5414,175,75
2026-05-07 18:34:16.311,4,-0.3,0.61,0.71,-38.7922,-150.64620000000002,-23.2586,175,75
2026-05-07 18:34:16.352,4,-0.24,1.05,0.21,-65.6822,-85.33619999999999,-37.5786,175,75
2026-05-07 18:34:16.397,4,0.25,0.38,1.06,-65.0722,15.5738,-65.9986,175,75
2026-05-07 18:34:16.416,4,0.49,0.18,1.23,-74.4022,-102.0462,-88.0086,175,75
2026-05-07 18:34:16.430,4,0.6,-0.13,1.13,-72.26219999999999,-121.00619999999999,-87.7686,175,75
2026-05-07 18:34:16.476,4,0.98,-0.15,1.09,-83.0022,43.803799999999995,-17.398600000000002,175,75
2026-05-07 18:34:16.499,4,1.13,0.02,1.17,-71.0422,89.2938,-3.7986000000000004,175,75
2026-05-07 18:34:16.509,4,1.18,0.04,1.19,-67.3922,122.7138,1.6814,175,75
2026-05-07 18:34:16.520,4,0.96,-0.0,1.18,-66.2922,148.7438,6.071400000000001,175,75
2026-05-07 18:34:16.520,4,0.72,-0.02,1.23,-69.4022,159.41379999999998,11.9914,175,75
2026-05-07 18:34:16.532,4,0.5,-0.02,1.37,-78.5422,162.8338,18.5114,175,75
2026-05-07 18:34:16.547,4,0.45,-0.03,1.54,-84.5222,150.94379999999998,24.0614,175,75
2026-05-07 18:34:16.571,4,0.62,-0.08,1.94,-77.6922,110.63380000000001,25.6514,175,75
2026-05-07 18:34:16.579,4,0.67,-0.08,2.01,-75.3122,66.97380000000001,13.3914,175,75
2026-05-07 18:34:16.593,4,0.63,-0.11,1.96,-70.6822,4.1738,-10.878599999999999,175,75
2026-05-07 18:34:16.640,4,-0.16,0.35,1.32,-31.292200000000005,-74.72619999999999,-43.6786,175,75
2026-05-07 18:34:16.651,4,0.01,0.45,1.38,-26.9022,-37.4762,-44.348600000000005,175,75
2026-05-07 18:34:16.666,4,0.17,0.54,1.42,-30.3122,-44.9162,-51.90860000000001,175,75
2026-05-07 18:34:16.669,4,0.08,0.51,1.37,-29.092200000000002,-77.16619999999999,-67.5786,175,75
2026-05-07 18:34:16.682,4,-0.12,0.44,1.25,-27.0222,-104.91619999999999,-82.1586,175,75
2026-05-07 18:34:16.695,4,-0.28,0.36,1.15,-31.7122,-113.8162,-89.4786,175,75
2026-05-07 18:34:16.714,4,-0.43,0.32,1.08,-39.282199999999996,-109.05619999999999,-91.9086,175,75
2026-05-07 18:34:16.726,4,-0.66,0.32,1.04,-51.102199999999996,-52.656200000000005,-87.5186,175,75
2026-05-07 18:34:16.753,4,-0.18,0.38,1.14,-51.782199999999996,16.793799999999997,-87.2186,175,75
2026-05-07 18:34:16.772,4,0.07,0.12,1.07,-51.962199999999996,16.4938,-91.1786,175,75
2026-05-07 18:34:16.784,4,0.13,-0.13,0.99,-58.0622,4.9038,-94.7786,175,75
2026-05-07 18:34:16.795,4,-0.15,-0.28,0.91,-73.9122,-15.2762,-86.7286,175,75
2026-05-07 18:34:16.806,4,-0.22,-0.19,0.91,-89.8922,24.3538,-70.6886,175,75
2026-05-07 18:34:16.850,4,0.61,-0.03,1.26,-135.19219999999999,131.7938,-37.3386,175,75
2026-05-07 18:34:16.850,4,0.55,-0.19,1.4,-157.0222,140.0838,-40.8786,175,75
2026-05-07 18:34:16.861,4,0.56,-0.23,1.52,-184.8922,137.8338,-48.8686,175,75
2026-05-07 18:34:16.883,4,0.53,-0.07,1.57,-198.0022,69.2938,-52.3386,175,75
2026-05-07 18:34:16.897,4,0.35,-0.03,1.52,-194.5222,25.0238,-47.578599999999994,175,75
2026-05-07 18:34:16.908,4,0.28,-0.13,1.46,-205.6822,-4.426200000000001,-50.328599999999994,175,75
2026-05-07 18:34:16.920,4,0.24,-0.26,1.39,-220.2522,-30.8262,-55.8186,175,75
2026-05-07 18:34:16.933,4,0.22,-0.3,1.39,-224.0322,-59.5462,-71.2986,175,75
2026-05-07 18:34:16.943,4,0.16,-0.24,1.45,-223.0022,-85.4562,-78.9886,175,75
2026-05-07 18:34:16.956,4,0.03,-0.15,1.51,-220.7422,-117.41619999999999,-88.3186,175,75
2026-05-07 18:34:16.969,4,-0.12,-0.01,1.54,-211.8422,-159.7862,-107.4586,175,75
2026-05-07 18:34:16.986,4,-0.28,0.15,1.48,-196.7122,-209.6662,-125.20859999999999,175,75
2026-05-07 18:34:17.050,4,-2.01,0.21,1.4,-71.23219999999999,-273.26619999999997,-98.9286,175,75
2026-05-07 18:34:17.053,4,-2.29,0.14,1.55,-39.282199999999996,-258.1462,-79.0486,175,75
2026-05-07 18:34:17.068,4,-2.35,0.15,1.76,1.2678,-269.9762,-87.9486,175,75
2026-05-07 18:34:17.082,4,-2.27,0.14,2.0,43.7678,-300.52619999999996,-107.5186,175,75
2026-05-07 18:34:17.082,4,-2.07,0.17,2.19,78.2178,-331.4962,-103.5586,175,75
2026-05-07 18:34:17.093,4,-1.9,0.2,2.23,115.5978,-373.4462,-39.6586,175,75
2026-05-07 18:34:17.116,4,-2.08,-0.2,1.72,244.4378,-223.6962,65.1014,175,75
2026-05-07 18:34:17.138,4,-1.68,-0.41,1.75,315.9678,-92.8962,119.9814,175,75
2026-05-07 18:34:17.138,4,-1.24,-0.63,1.95,363.0978,-6.0062,181.5014,175,75
2026-05-07 18:34:17.160,4,-0.99,-1.15,2.24,417.1278,-11.3762,296.81140000000005,175,75
2026-05-07 18:34:17.187,4,-0.7,-1.95,1.95,464.6278,-76.0662,383.82140000000004,175,75
2026-05-07 18:34:17.197,4,-0.32,-3.8,2.21,507.0678,-296.1362,538.7614,175,75
2026-05-07 18:34:17.221,4,-2.78,-7.79,1.84,755.1778,-587.6562,321.20140000000004,175,75
2026-05-07 18:34:17.256,4,-1.1,-8.19,0.34,603.5878,-546.8661999999999,47.1714,175,75
2026-05-07 18:34:17.256,4,-0.48,-7.88,0.07,643.0378,-655.3362,80.3414,175,75
2026-05-07 18:34:17.267,4,-0.86,-7.67,-0.02,680.9678,-763.8162,87.9614,175,75
2026-05-07 18:34:17.279,4,-1.38,-7.56,-0.27,650.9678,-726.6161999999999,42.7214,175,75
2026-05-07 18:34:17.296,4,-1.27,-5.95,-1.28,379.4978,-354.6062,-49.7786,175,75
2026-05-07 18:34:17.307,4,-0.8,-4.54,-1.7,276.1478,-226.61620000000002,-61.7286,175,75
2026-05-07 18:34:17.319,4,-0.78,-3.36,-1.91,239.80780000000001,-176.2562,-70.5086,175,75
2026-05-07 18:34:17.341,4,-1.25,-2.37,-1.67,247.8578,-54.8562,-80.0186,175,75
2026-05-07 18:34:17.355,4,-1.05,-1.76,-1.07,288.8278,125.7538,-79.7786,175,75
2026-05-07 18:34:17.355,4,-0.54,-1.53,-0.61,304.5678,155.57379999999998,-95.3286,175,75
2026-05-07 18:34:17.396,4,1.7,0.84,0.39,68.2878,-120.3962,2.7814000000000014,175,75
2026-05-07 18:34:17.403,4,-0.43,1.1,-0.67,62.857800000000005,-240.27620000000002,-132.3986,175,75
2026-05-07 18:34:17.422,4,-1.42,0.91,-1.48,145.3578,-48.446200000000005,-85.4486,175,75
2026-05-07 18:34:17.436,4,-1.62,0.6,-1.53,160.5378,160.82379999999998,-86.7886,175,75
2026-05-07 18:34:17.479,4,0.05,0.73,0.57,42.857800000000005,158.44379999999998,-48.79859999999999,175,75
2026-05-07 18:34:17.500,4,-0.0,0.6,0.62,57.4878,-29.2462,-86.1186,175,75
2026-05-07 18:34:17.500,4,-0.29,0.44,0.44,60.2378,-201.49620000000002,-125.5086,175,75
2026-05-07 18:34:17.518,4,-0.61,0.37,0.1,34.6878,-313.6962,-154.1086,175,75
2026-05-07 18:34:17.539,4,-1.33,0.69,-0.66,-52.752199999999995,-302.2262,-155.1486,175,75
2026-05-07 18:34:17.550,4,-1.41,0.83,-0.84,-70.4322,-205.33620000000002,-133.0086,175,75
2026-05-07 18:34:17.566,4,-1.31,0.92,-0.89,-77.6322,-88.63619999999999,-110.3886,175,75
2026-05-07 18:34:17.577,4,-1.16,0.92,-0.74,-79.1522,-3.6962,-86.1186,175,75
2026-05-07 18:34:17.619,4,-1.03,0.78,-0.42,-84.34219999999999,54.053799999999995,-71.1186,175,75
2026-05-07 18:34:17.652,4,-0.93,0.67,0.09,-115.37219999999999,13.6838,-73.0686,175,75
2026-05-07 18:34:17.667,4,-1.16,0.45,-0.41,-171.9622,-4.4862,-102.8286,175,75
2026-05-07 18:34:17.677,4,-1.44,0.5,-0.49,-182.69219999999999,131.6738,-66.9086,175,75
2026-05-07 18:34:17.688,4,-2.51,0.35,-0.26,-196.9622,88.2538,19.5514,175,75
2026-05-07 18:34:17.726,4,4.13,-0.68,0.82,-173.7322,440.5138,10.1014,175,75
2026-05-07 18:34:17.726,4,-0.49,-0.55,2.65,-91.59219999999999,-377.2262,-187.2186,175,75
2026-05-07 18:34:17.737,4,-1.25,-0.12,2.87,-175.2522,-404.9162,-166.2386,175,75
2026-05-07 18:34:17.783,4,-0.14,-0.31,-1.08,-231.8422,-208.08620000000002,-48.738600000000005,175,75
2026-05-07 18:34:17.795,4,0.29,-1.44,-0.72,-227.6322,1.0038,33.5114,175,75
2026-05-07 18:34:17.806,4,0.81,-2.13,-0.38,-275.3722,70.69380000000001,72.9614,175,75
2026-05-07 18:34:17.806,4,1.05,-2.65,-0.02,-324.2822,78.44380000000001,107.8414,175,75
2026-05-07 18:34:17.839,4,0.63,-3.8,0.58,-413.9722,214.1738,-32.8886,175,75
2026-05-07 18:34:17.850,4,1.78,-3.61,0.69,-443.8522,355.1438,-87.3986,175,75
2026-05-07 18:34:17.850,4,2.24,-3.74,0.91,-479.1522,374.66380000000004,-47.6486,175,75
2026-05-07 18:34:17.869,4,1.82,-4.06,1.12,-465.6222,353.9938,-0.07860000000000156,175,75
2026-05-07 18:34:17.882,4,1.08,-4.7,1.38,-377.0822,266.91380000000004,-83.3186,175,75
2026-05-07 18:34:17.907,4,0.64,-4.49,2.02,-379.0922,319.1138,-197.4586,175,75
2026-05-07 18:34:17.918,4,0.61,-4.04,2.22,-405.6822,282.40380000000005,-229.8386,175,75
2026-05-07 18:34:17.929,4,0.45,-2.86,2.06,-404.2822,155.82379999999998,-236.2386,175,75
2026-05-07 18:34:17.929,4,0.29,-2.5,1.92,-407.2022,126.73380000000002,-230.4486,175,75
2026-05-07 18:34:17.942,4,0.14,-2.13,1.78,-405.1322,116.36380000000001,-228.6186,175,75
2026-05-07 18:34:17.942,4,-0.02,-1.72,1.64,-388.30219999999997,107.22380000000001,-234.4086,175,75
2026-05-07 18:34:17.952,4,-0.24,-1.31,1.51,-352.6322,110.8238,-251.4286,175,75
2026-05-07 18:34:17.976,4,-0.47,-0.59,1.33,-220.3722,111.30380000000001,-292.5186,175,75
2026-05-07 18:34:17.988,4,-0.59,-0.37,1.38,-173.91219999999998,107.4638,-303.7386,175,75
2026-05-07 18:34:17.991,4,0.11,0.03,1.83,-171.5322,94.2338,-213.1286,175,75
2026-05-07 18:34:18.002,4,-0.4,0.64,1.77,-223.4822,50.0838,-15.688600000000001,175,75
2026-05-07 18:34:18.016,4,-0.96,0.64,1.59,-205.7422,50.693799999999996,-30.208599999999997,175,75
2026-05-07 18:34:18.028,4,-0.93,0.46,1.53,-155.5022,10.3938,-79.1086,175,75
2026-05-07 18:34:18.038,4,-0.87,0.38,1.57,-125.8622,-25.8262,-70.5086,175,75
2026-05-07 18:34:18.055,4,-1.25,0.34,1.32,-99.8222,-51.3162,-48.988600000000005,175,75
2026-05-07 18:34:18.077,4,-1.33,0.42,1.2,-92.3922,-25.706200000000003,-63.79859999999999,175,75
2026-05-07 18:34:18.087,4,-1.26,0.54,1.15,-80.4322,6.0638000000000005,-68.0086,175,75
2026-05-07 18:34:18.087,4,-1.19,0.64,1.14,-64.0322,39.2938,-58.128600000000006,175,75
2026-05-07 18:34:18.100,4,-1.22,0.64,1.13,-50.6222,59.5438,-58.3186,175,75
2026-05-07 18:34:18.113,4,-1.24,0.58,1.15,-37.2022,79.11380000000001,-68.4386,175,75
2026-05-07 18:34:18.126,4,-1.24,0.51,1.18,-26.962200000000003,91.49380000000001,-77.3986,175,75
2026-05-07 18:34:18.147,4,-1.39,0.48,1.29,-11.2322,77.58380000000001,-85.4486,175,75
2026-05-07 18:34:18.170,4,-1.42,0.57,1.34,4.4378,52.7138,-88.9286,175,75
2026-05-07 18:34:18.178,4,-1.38,0.58,1.31,12.9178,42.7738,-86.2386,175,75
2026-05-07 18:34:18.188,4,-1.3,0.57,1.26,23.407799999999998,37.6438,-82.0986,175,75
2026-05-07 18:34:18.201,4,-1.23,0.53,1.2,32.7978,41.9738,-80.0786,175,75
2026-05-07 18:34:18.211,4,-1.17,0.49,1.18,39.6278,48.6838,-79.3486,175,75
2026-05-07 18:34:18.223,4,-1.12,0.46,1.18,43.5278,53.803799999999995,-79.5386,175,75
2026-05-07 18:34:18.235,4,-1.08,0.45,1.2,45.967800000000004,54.233799999999995,-80.5086,175,75
2026-05-07 18:34:18.250,4,-1.03,0.46,1.2,52.677800000000005,39.1738,-84.8386,175,75
2026-05-07 18:34:18.261,4,-1.05,0.45,1.2,59.4378,24.6038,-81.7886,175,75
2026-05-07 18:34:18.272,4,-1.1,0.42,1.2,63.7078,8.993799999999998,-75.9386,175,75
2026-05-07 18:34:18.285,4,-1.1,0.4,1.19,63.8278,-6.4362,-70.8186,175,75
2026-05-07 18:34:18.303,4,-1.09,0.41,1.16,68.2178,-20.456200000000003,-62.768600000000006,175,75
2026-05-07 18:34:18.303,4,-1.07,0.43,1.13,82.12780000000001,-34.8562,-52.8886,175,75
2026-05-07 18:34:18.327,4,-1.06,0.4,1.12,99.1978,-41.9262,-45.5086,175,75
2026-05-07 18:34:18.327,4,-1.03,0.37,1.12,114.3178,-44.486200000000004,-35.9986,175,75
2026-05-07 18:34:18.339,4,-1.02,0.33,1.15,138.6478,-51.4962,-20.0786,175,75
2026-05-07 18:34:18.351,4,-0.97,0.28,1.2,181.2678,-65.1562,-6.7286,175,75
2026-05-07 18:34:18.381,4,-0.81,0.2,1.3,277.4878,-146.0062,16.261400000000002,175,75
2026-05-07 18:34:18.398,4,-0.75,0.09,1.23,344.6278,-199.9762,38.8814,175,75
2026-05-07 18:34:18.398,4,-0.7,-0.05,1.1,408.0978,-257.3562,57.9014,175,75
2026-05-07 18:34:18.409,4,-0.71,-0.23,0.99,470.8478,-312.71619999999996,78.2714,175,75
2026-05-07 18:34:18.427,4,-0.77,-0.52,0.83,554.3178,-369.4262,109.5514,175,75
2026-05-07 18:34:18.438,4,-0.79,-0.9,0.72,630.1778,-394.6662,140.5214,175,75
2026-05-07 18:34:18.448,4,-0.69,-1.41,0.67,706.5178,-414.5462,199.4314,175,75
2026-05-07 18:34:18.448,4,-0.47,-1.98,0.72,761.3878,-429.9762,294.67139999999995,175,75
2026-05-07 18:34:18.459,4,-0.63,-2.43,0.9,791.0878,-476.0062,412.29139999999995,175,75
2026-05-07 18:34:18.473,4,-0.96,-3.44,1.2,819.9278,-580.3362,491.8714,175,75
2026-05-07 18:34:18.494,4,-1.72,-5.58,1.58,924.0778,-910.0962,222.0514,175,75
2026-05-07 18:34:18.494,4,-4.22,-6.9,0.84,929.6878,-834.7862,-36.1786,175,75
2026-05-07 18:34:18.505,4,-3.01,-7.06,-0.4,708.7678,-444.7862,-198.9886,175,75
2026-05-07 18:34:18.516,4,-1.01,-6.08,-0.96,571.0878,-296.9862,-248.8686,175,75
2026-05-07 18:34:18.527,4,0.69,-5.24,-1.39,575.0478,-332.77619999999996,-136.0586,175,75
2026-05-07 18:34:18.549,4,0.11,-4.79,-1.27,756.9978,-468.6962,7.3514,175,75
2026-05-07 18:34:18.560,4,-1.48,-5.4,-0.46,744.4378,-240.4562,58.0914,175,75
2026-05-07 18:34:18.572,4,-0.9,-4.75,-0.28,506.8778,-75.58619999999999,-27.708599999999997,175,75
2026-05-07 18:34:18.597,4,-0.3,-2.72,-0.38,290.3578,-127.6562,-98.1886,175,75
2026-05-07 18:34:18.619,4,-1.01,-1.64,-0.14,276.4578,-139.36620000000002,-127.8886,175,75
2026-05-07 18:34:18.636,4,-0.24,-1.45,0.26,252.9778,-122.41619999999999,-174.5986,175,75
2026-05-07 18:34:18.642,4,0.31,-1.34,0.45,204.4378,-164.24620000000002,-116.9086,175,75
2026-05-07 18:34:18.668,4,-0.29,-1.05,0.25,153.1578,-206.49620000000002,-17.708599999999997,175,75
2026-05-07 18:34:18.668,4,-0.68,-1.16,0.1,149.6878,-202.2862,-34.1086,175,75
2026-05-07 18:34:18.679,4,-0.75,-1.18,0.01,153.7678,-201.80620000000002,-62.3386,175,75
2026-05-07 18:34:18.701,4,-0.85,-1.08,0.0,160.3578,-203.14620000000002,-87.8886,175,75
2026-05-07 18:34:18.701,4,-0.96,-0.93,0.04,164.0778,-203.02620000000002,-120.93860000000001,175,75
2026-05-07 18:34:18.714,4,-0.58,-0.58,0.19,142.7378,-213.6962,-124.46860000000001,175,75
2026-05-07 18:34:18.726,4,-0.43,-0.12,0.16,95.2978,-243.99620000000002,-68.0086,175,75
2026-05-07 18:34:18.751,4,-0.67,0.63,-0.27,61.147800000000004,-216.74620000000002,-59.348600000000005,175,75
2026-05-07 18:34:18.774,4,-0.8,0.58,-0.43,57.7978,-143.5662,-43.79859999999999,175,75
2026-05-07 18:34:18.785,4,-0.83,0.52,-0.33,23.7078,3.383799999999999,-2.648600000000002,175,75
2026-05-07 18:34:18.807,4,-0.05,0.53,-0.1,-12.4522,54.6038,-3.4985999999999997,175,75
2026-05-07 18:34:18.823,4,-0.13,0.39,-0.32,-31.9622,2.463799999999999,-33.4386,175,75
2026-05-07 18:34:18.830,4,-2.8,0.69,0.03,-51.6522,-82.47619999999999,19.4914,175,75
2026-05-07 18:34:18.842,4,-1.64,0.53,-0.57,-70.8622,355.3938,27.351399999999998,175,75
2026-05-07 18:34:18.856,4,1.56,0.27,-0.08,-63.672200000000004,449.41380000000004,66.0714,175,75
2026-05-07 18:34:18.865,4,0.2,0.67,1.18,-47.6922,123.9338,15.9514,175,75
2026-05-07 18:34:18.877,4,0.52,0.56,2.46,-22.752200000000002,-36.6162,-56.238600000000005,175,75
2026-05-07 18:34:18.877,4,0.32,0.75,1.89,-69.2122,-316.3762,-92.7086,175,75
2026-05-07 18:34:18.893,4,-0.01,0.55,0.98,-95.3122,-379.6662,-142.5786,175,75
2026-05-07 18:34:18.919,4,0.06,0.61,-0.04,-83.9722,-275.70619999999997,-129.6586,175,75
2026-05-07 18:34:18.919,4,-0.32,0.71,-0.42,-50.7422,-117.47619999999999,-99.7186,175,75
2026-05-07 18:34:18.922,4,-0.75,0.47,-0.02,-29.822200000000002,142.7738,-44.958600000000004,175,75
2026-05-07 18:34:18.951,4,0.31,-0.5,1.66,-117.2022,155.0238,-11.3686,175,75
2026-05-07 18:34:18.966,4,0.87,-0.99,2.28,-122.3922,-104.1762,-85.8786,175,75
2026-05-07 18:34:18.978,4,0.55,-0.67,1.94,-132.6322,-211.9862,-90.1486,175,75
2026-05-07 18:34:18.989,4,0.67,-0.44,1.3,-153.3622,-136.0062,-82.2786,175,75
2026-05-07 18:34:19.000,4,0.72,-0.21,1.04,-143.1222,-31.066200000000002,-53.6786,175,75
2026-05-07 18:34:19.010,4,0.67,-0.24,0.98,-133.5422,75.5138,-22.278599999999997,175,75
2026-05-07 18:34:19.021,4,0.58,-0.51,1.08,-126.6522,203.32379999999998,-3.6186000000000007,175,75
2026-05-07 18:34:19.036,4,0.36,-0.6,1.38,-128.6722,293.3238,10.4014,175,75
2026-05-07 18:34:19.050,4,0.2,-0.52,1.94,-134.8922,371.73380000000003,32.291399999999996,175,75
2026-05-07 18:34:19.061,4,0.22,-0.44,2.35,-137.2622,355.6338,38.761399999999995,175,75
2026-05-07 18:34:19.073,4,0.34,-0.45,2.75,-122.4522,220.1438,16.5014,175,75
2026-05-07 18:34:19.084,4,0.26,-0.55,2.84,-90.5622,43.6838,-28.3786,175,75
2026-05-07 18:34:19.084,4,0.06,-0.54,2.64,-70.6822,-70.7062,-60.328599999999994,175,75
2026-05-07 18:34:19.103,4,0.07,-0.32,2.3,-67.6922,-168.6362,-85.7586,175,75
2026-05-07 18:34:19.114,4,0.14,-0.06,1.98,-62.752199999999995,-216.1362,-84.2886,175,75
2026-05-07 18:34:19.128,4,0.11,0.04,1.71,-52.8722,-223.5662,-70.8786,175,75
2026-05-07 18:34:19.139,4,0.04,0.05,1.46,-44.7622,-214.36620000000002,-61.54859999999999,175,75
2026-05-07 18:34:19.149,4,-0.07,0.03,1.29,-43.182199999999995,-185.21620000000001,-57.2786,175,75
2026-05-07 18:34:19.150,4,-0.16,0.09,1.22,-47.142199999999995,-147.2262,-51.0586,175,75
2026-05-07 18:34:19.161,4,-0.18,0.18,1.19,-52.932199999999995,-104.5462,-48.9286,175,75
2026-05-07 18:34:19.177,4,-0.03,0.29,1.27,-61.1722,-49.7862,-54.348600000000005,175,75
2026-05-07 18:34:19.188,4,0.11,0.38,1.35,-71.4722,-20.336199999999998,-58.498599999999996,175,75
2026-05-07 18:34:19.199,4,0.09,0.48,1.43,-79.8922,-3.8162000000000003,-70.7586,175,75
2026-05-07 18:34:19.221,4,-0.04,0.47,1.46,-78.6022,-12.5962,-102.7086,175,75
2026-05-07 18:34:19.231,4,-0.06,0.33,1.39,-75.3122,-21.9862,-112.70859999999999,175,75
2026-05-07 18:34:19.246,4,-0.15,0.17,1.29,-74.8222,-38.8762,-119.83860000000001,175,75
2026-05-07 18:34:19.256,4,-0.16,-0.01,1.23,-72.0222,-31.986200000000004,-126.96860000000001,175,75
2026-05-07 18:34:19.266,4,-0.08,-0.16,1.21,-69.9522,-17.2862,-133.2586,175,75
2026-05-07 18:34:19.278,4,0.01,-0.31,1.22,-66.5322,1.6137999999999995,-143.0686,175,75
2026-05-07 18:34:19.293,4,-0.0,-0.36,1.22,-64.2822,0.2137999999999991,-148.0686,175,75
2026-05-07 18:34:19.303,4,-0.1,-0.46,1.19,-73.6722,-0.33619999999999983,-130.5086,175,75
2026-05-07 18:34:19.336,4,0.31,-0.27,1.27,-80.8622,27.223799999999997,-107.3386,175,75
2026-05-07 18:34:19.336,4,0.61,-0.01,1.43,-86.2922,26.613799999999998,-100.3286,175,75
2026-05-07 18:34:19.358,4,0.68,-0.02,1.46,-122.5722,-2.2262000000000004,-86.8486,175,75
2026-05-07 18:34:19.370,4,0.57,-0.31,1.35,-141.5322,-2.1662,-87.4586,175,75
2026-05-07 18:34:19.386,4,0.4,-0.34,1.18,-144.5222,21.973799999999997,-83.5586,175,75
2026-05-07 18:34:19.403,4,0.33,-0.13,1.18,-142.8122,28.623799999999996,-80.2086,175,75
2026-05-07 18:34:19.415,4,0.23,0.02,1.22,-146.6522,32.5838,-69.4086,175,75
2026-05-07 18:34:19.427,4,0.14,0.03,1.26,-150.6822,31.183799999999998,-62.768600000000006,175,75
2026-05-07 18:34:19.433,4,-0.01,-0.03,1.35,-148.91219999999998,16.183799999999998,-64.8386,175,75
2026-05-07 18:34:19.446,4,-0.11,-0.01,1.42,-140.5622,-14.6662,-70.9986,175,75
2026-05-07 18:34:19.461,4,-0.31,0.17,1.47,-114.2822,-109.66619999999999,-95.4486,175,75
2026-05-07 18:34:19.477,4,-0.42,0.25,1.43,-101.59219999999999,-151.3762,-100.5686,175,75
2026-05-07 18:34:19.487,4,-0.6,0.28,1.35,-90.4322,-173.8162,-105.3286,175,75
2026-05-07 18:34:19.510,4,-1.0,0.46,1.32,-71.2922,-188.6362,-108.1286,175,75
2026-05-07 18:34:19.522,4,-1.16,0.53,1.36,-60.252199999999995,-193.99620000000002,-106.6086,175,75
2026-05-07 18:34:19.534,4,-1.33,0.51,1.36,-44.462199999999996,-209.9762,-102.7686,175,75
2026-05-07 18:34:19.545,4,-1.55,0.47,1.37,-25.802200000000003,-218.2062,-93.9886,175,75
2026-05-07 18:34:19.556,4,-1.61,0.3,1.41,2.3678,-200.64620000000002,-84.2286,175,75
2026-05-07 18:34:19.566,4,-1.77,0.24,1.55,19.197799999999997,-215.64620000000002,-64.8386,175,75
2026-05-07 18:34:19.598,4,-1.85,0.25,1.82,63.5878,-268.26619999999997,-77.7086,175,75
2026-05-07 18:34:19.609,4,-1.9,0.28,1.78,117.1878,-313.26619999999997,-52.458600000000004,175,75
2026-05-07 18:34:19.622,4,-1.83,0.17,1.64,160.7878,-293.20619999999997,-29.468600000000002,175,75
2026-05-07 18:34:19.646,4,-1.45,-0.19,1.31,228.8278,-222.4162,34.8514,175,75
2026-05-07 18:34:19.654,4,-1.27,-0.41,1.22,260.9078,-177.4162,63.5114,175,75
2026-05-07 18:34:19.664,4,-1.14,-0.62,1.2,293.0378,-131.1962,91.3214,175,75
2026-05-07 18:34:19.671,4,-0.92,-0.88,1.26,321.7578,-83.50619999999999,121.2614,175,75
2026-05-07 18:34:19.690,4,-0.58,-1.31,1.32,343.9578,-35.1562,177.7214,175,75
2026-05-07 18:34:19.708,4,-0.47,-1.58,1.28,363.4078,-48.1462,221.2014,175,75
2026-05-07 18:34:19.739,4,-1.36,-5.22,1.52,646.2678,-587.7762,176.6814,175,75
2026-05-07 18:34:19.739,4,-1.76,-6.35,1.05,692.5478,-481.3762,191.0714,175,75
2026-05-07 18:34:19.761,4,-1.48,-6.41,0.37,576.0878,-414.3062,79.3714,175,75
2026-05-07 18:34:19.791,4,-1.03,-6.22,-0.05,648.4078,-569.1161999999999,25.8314,175,75
2026-05-07 18:34:19.795,4,-1.15,-6.26,-0.27,640.7878,-572.5362,29.5514,175,75
2026-05-07 18:34:19.812,4,-1.04,-5.75,-0.81,533.6478,-342.0462,23.761400000000002,175,75
2026-05-07 18:34:19.834,4,-0.49,-4.78,-1.17,458.7678,-156.67620000000002,63.2714,175,75
2026-05-07 18:34:19.875,4,-1.27,-2.47,-0.77,346.7578,84.2938,68.9414,175,75
2026-05-07 18:34:19.886,4,-1.1,-2.07,-0.18,306.6378,127.77380000000001,8.4514,175,75
2026-05-07 18:34:19.897,4,-0.65,-1.85,0.25,261.9978,83.13380000000001,-58.738600000000005,175,75
2026-05-07 18:34:19.909,4,-0.39,-1.58,0.5,215.7878,-1.3162000000000003,-126.36859999999999,175,75
2026-05-07 18:34:19.919,4,-0.24,-1.28,0.58,170.3578,-100.6462,-207.5786,175,75
2026-05-07 18:34:19.919,4,-0.23,-0.87,0.48,138.2878,-199.11620000000002,-290.3886,175,75
2026-05-07 18:34:19.936,4,0.72,0.58,0.62,46.2678,-363.8162,-18.3786,175,75
2026-05-07 18:34:19.980,4,-0.86,0.53,-0.85,189.3778,38.3238,-59.108599999999996,175,75
2026-05-07 18:34:20.001,4,-0.62,0.44,-0.55,176.4578,159.2338,-31.848599999999998,175,75
2026-05-07 18:34:20.001,4,-0.59,0.48,-0.24,157.3678,189.78379999999999,-34.7786,175,75
2026-05-07 18:34:20.015,4,-0.48,0.61,0.14,141.7578,152.9538,-35.0786,175,75
2026-05-07 18:34:20.054,4,-0.4,0.3,0.16,126.51780000000001,-250.27620000000002,-106.3686,175,75
2026-05-07 18:34:20.057,4,-0.64,0.31,-0.05,88.0378,-326.3762,-128.7386,175,75
2026-05-07 18:34:20.069,4,-0.93,0.52,-0.38,26.2078,-373.4462,-144.1086,175,75
2026-05-07 18:34:20.096,4,-1.23,0.95,-0.86,-47.932199999999995,-228.99620000000002,-111.8486,175,75
2026-05-07 18:34:20.107,4,-1.13,0.99,-1.0,-64.34219999999999,-91.9862,-88.0086,175,75
2026-05-07 18:34:20.130,4,-1.19,0.74,-0.6,-83.0022,120.02380000000001,-50.938599999999994,175,75
2026-05-07 18:34:20.140,4,-0.75,0.52,-0.55,-106.6522,175.63379999999998,-57.708600000000004,175,75
2026-05-07 18:34:20.154,4,-1.14,0.6,-0.22,-133.2422,236.6138,-48.438599999999994,175,75
2026-05-07 18:34:20.162,4,-1.06,0.5,-0.0,-133.1822,282.7738,-31.178600000000003,175,75
2026-05-07 18:34:20.179,4,-1.21,0.35,0.19,-132.8722,243.8038,-21.3686,175,75
2026-05-07 18:34:20.195,4,0.32,0.33,0.2,-93.7922,597.2238,-34.2886,175,75
2026-05-07 18:34:20.217,4,3.83,-1.14,1.79,-124.2122,41.0038,-60.8186,175,75
2026-05-07 18:34:20.276,4,-0.39,-1.08,-0.61,-133.5422,-194.36620000000002,-7.3386,175,75
2026-05-07 18:34:20.336,4,1.01,-1.8,1.41,-314.8222,23.2538,108.0214,175,75
2026-05-07 18:34:20.345,4,1.29,-2.06,1.1,-338.6722,-12.286200000000001,82.3514,175,75
2026-05-07 18:34:20.366,4,1.62,-2.25,-0.24,-346.4722,43.9338,28.031399999999998,175,75
2026-05-07 18:34:20.389,4,1.57,-2.73,0.14,-433.5422,431.5538,111.4414,175,75
2026-05-07 18:34:20.408,4,1.7,-3.09,0.88,-481.2922,507.9538,181.8114,175,75
2026-05-07 18:34:20.420,4,1.28,-3.4,1.42,-528.0622,500.8838,267.4814,175,75
2026-05-07 18:34:20.434,4,-0.63,-4.77,1.83,-203.0622,48.5638,-205.5086,175,75
2026-05-07 18:34:20.446,4,0.25,-4.0,1.86,-310.1322,365.5738,-196.2986,175,75
2026-05-07 18:34:20.460,4,0.58,-3.08,2.19,-471.9622,283.6238,-261.66859999999997,175,75
2026-05-07 18:34:20.470,4,0.31,-2.53,1.97,-481.8422,241.1238,-278.31859999999995,175,75
2026-05-07 18:34:20.481,4,0.32,-1.98,1.73,-406.3522,176.91379999999998,-268.43859999999995,175,75
2026-05-07 18:34:20.493,4,0.17,-1.68,1.56,-343.9722,134.72379999999998,-269.59860000000003,175,75
2026-05-07 18:34:20.519,4,-0.25,-1.21,1.46,-232.3922,127.10379999999999,-298.67859999999996,175,75
2026-05-07 18:34:20.550,4,-0.28,-0.39,1.6,-176.5322,88.9338,-354.5386,175,75
2026-05-07 18:34:20.571,4,-0.33,0.63,1.58,-209.7622,16.433799999999998,-105.5686,175,75
2026-05-07 18:34:20.578,4,-0.81,0.68,1.4,-177.2022,23.1338,-95.7586,175,75
2026-05-07 18:34:20.603,4,-0.63,0.49,1.5,-92.5722,-8.696200000000001,-117.0386,175,75
2026-05-07 18:34:20.623,4,-0.87,0.5,1.43,-84.4022,-32.2262,-89.6586,175,75
2026-05-07 18:34:20.638,4,-1.22,0.53,1.25,-66.2922,-36.1962,-94.2886,175,75
2026-05-07 18:34:20.658,4,-1.47,0.58,1.14,-37.2622,12.5238,-83.1286,175,75
2026-05-07 18:34:20.663,4,-1.48,0.6,1.15,-27.0222,43.8638,-80.3886,175,75
2026-05-07 18:34:20.680,4,-1.41,0.6,1.2,-14.1522,75.33380000000001,-74.7786,175,75
2026-05-07 18:34:20.695,4,-1.38,0.59,1.26,-4.8222,78.86380000000001,-70.8786,175,75
2026-05-07 18:34:20.706,4,-1.43,0.56,1.34,8.5278,65.27380000000001,-71.5486,175,75
2026-05-07 18:34:20.719,4,-1.48,0.51,1.4,24.9878,44.233799999999995,-80.4486,175,75
2026-05-07 18:34:20.730,4,-1.53,0.47,1.41,36.6378,5.633799999999999,-90.5086,175,75
2026-05-07 18:34:20.752,4,-1.74,0.44,1.24,51.2078,-45.0362,-100.8186,175,75
2026-05-07 18:34:20.765,4,-1.99,0.4,1.08,65.1778,-43.2062,-104.5986,175,75
2026-05-07 18:34:20.794,4,-1.96,0.33,1.19,95.4178,-23.816200000000002,-101.1786,175,75
2026-05-07 18:34:20.806,4,-1.95,0.28,1.27,104.8078,-38.9962,-97.3986,175,75
2026-05-07 18:34:20.819,4,-1.91,0.24,1.33,118.5878,-70.6462,-99.7186,175,75
2026-05-07 18:34:20.857,4,-1.79,0.28,1.02,155.9078,-162.4162,-113.0086,175,75
2026-05-07 18:34:20.871,4,-1.73,0.34,0.97,171.2078,-145.27620000000002,-107.3386,175,75
2026-05-07 18:34:20.871,4,-1.58,0.41,0.96,191.4578,-122.83619999999999,-98.1286,175,75
2026-05-07 18:34:20.888,4,-1.44,0.44,0.98,221.08780000000002,-111.61619999999999,-77.5786,175,75
2026-05-07 18:34:20.901,4,-1.38,0.36,1.02,258.6478,-115.4562,-51.848600000000005,175,75
2026-05-07 18:34:20.941,4,-0.73,-0.15,0.86,427.5478,-213.02620000000002,-5.328600000000002,175,75
2026-05-07 18:34:20.950,4,-0.31,-0.43,0.56,527.4278,-205.58620000000002,48.8214,175,75
2026-05-07 18:34:20.961,4,-0.25,-0.75,0.25,591.0278,-216.67620000000002,93.2114,175,75
2026-05-07 18:34:20.974,4,-0.17,-1.11,0.03,636.2678,-218.99620000000002,111.4414,175,75
2026-05-07 18:34:20.987,4,0.26,-1.74,-0.28,673.2878,-182.77620000000002,147.78140000000002,175,75
2026-05-07 18:34:20.998,4,1.01,-2.44,-0.22,690.7178,-87.47619999999999,250.2214,175,75
2026-05-07 18:34:21.042,4,-0.89,-6.16,1.47,934.9278,-387.83619999999996,102.1714,175,75
2026-05-07 18:34:21.051,4,1.47,-6.27,1.06,673.4078,-82.8962,272.90139999999997,175,75
2026-05-07 18:34:21.059,4,0.93,-6.47,1.18,513.4678,-510.70619999999997,240.3414,175,75
2026-05-07 18:34:21.073,4,-0.16,-6.29,0.41,530.7878,-616.8661999999999,181.8714,175,75
2026-05-07 18:34:21.089,4,-0.57,-6.19,-0.75,526.3878,-706.4362,-1.6085999999999991,175,75
2026-05-07 18:34:21.101,4,-0.75,-5.15,-1.13,432.5478,-611.9262,-79.2286,175,75
2026-05-07 18:34:21.112,4,-0.85,-4.16,-1.08,372.8578,-571.8661999999999,-138.3186,175,75
2026-05-07 18:34:21.125,4,-0.82,-3.21,-0.91,309.6278,-564.7862,-196.4886,175,75
2026-05-07 18:34:21.138,4,-1.14,-2.36,-0.74,233.58780000000002,-567.7162,-251.7286,175,75
2026-05-07 18:34:21.168,4,0.26,-1.4,-0.52,107.8578,-308.08619999999996,-280.2686,175,75
2026-05-07 18:34:21.178,4,0.21,-0.85,-0.52,66.0878,-294.5462,-154.1686,175,75
2026-05-07 18:34:21.188,4,-0.88,-0.71,-0.68,84.8678,-207.83620000000002,-164.6586,175,75
2026-05-07 18:34:21.198,4,-0.76,-0.61,-0.7,110.3578,-95.0362,-212.5186,175,75
2026-05-07 18:34:21.210,4,-0.41,-0.36,-0.43,113.5278,-15.3962,-191.2386,175,75
2026-05-07 18:34:21.234,4,-0.91,-0.03,-0.12,93.76780000000001,31.6738,-177.3386,175,75
2026-05-07 18:34:21.268,4,-0.68,0.58,0.06,84.6878,24.7838,-161.3686,175,75
2026-05-07 18:34:21.281,4,-0.69,0.43,0.04,85.7178,77.9538,-152.3386,175,75
2026-05-07 18:34:21.292,4,-0.75,0.24,0.16,84.4378,134.72379999999998,-143.1286,175,75
2026-05-07 18:34:21.337,4,-0.57,0.19,0.66,41.4578,157.8938,-142.3386,175,75
2026-05-07 18:34:21.349,4,-0.53,0.24,0.7,39.9878,119.17380000000001,-145.3886,175,75
2026-05-07 18:34:21.360,4,-0.52,0.19,0.65,39.9878,58.7438,-149.5386,175,75
2026-05-07 18:34:21.397,4,-0.75,-0.21,0.54,-35.7422,9.9638,-111.2986,175,75
2026-05-07 18:34:21.411,4,-0.36,0.23,0.86,-64.09219999999999,32.163799999999995,-76.2986,175,75
2026-05-07 18:34:21.424,4,0.31,0.49,0.89,-66.3522,-10.2762,-66.9786,175,75
2026-05-07 18:34:21.432,4,0.45,0.34,0.45,-62.752199999999995,-87.3562,-77.5786,175,75
2026-05-07 18:34:21.440,4,0.55,-0.03,-0.27,-63.73219999999999,-73.38619999999999,-90.9386,175,75
2026-05-07 18:34:21.450,4,-0.77,0.1,-0.65,-89.1522,136.3638,-47.218599999999995,175,75
2026-05-07 18:34:21.462,4,-2.69,0.14,-0.3,-111.3522,394.47380000000004,58.6314,175,75
2026-05-07 18:34:21.473,4,-1.91,-0.08,0.63,-94.5822,1037.2838,98.2114,175,75
2026-05-07 18:34:21.516,4,-0.32,0.26,2.24,-151.2322,-284.9762,-108.3186,175,75
2026-05-07 18:34:21.526,4,0.64,0.22,0.89,-201.7122,-469.3062,-185.9386,175,75
2026-05-07 18:34:21.542,4,0.02,0.43,0.39,-154.4022,-426.8662,-154.4086,175,75
2026-05-07 18:34:21.554,4,-0.26,0.28,-0.47,-81.7122,-134.5462,-53.0086,175,75
2026-05-07 18:34:21.554,4,-0.45,0.11,-0.26,-82.0822,62.7138,-24.348599999999998,175,75
2026-05-07 18:34:21.578,4,-0.32,0.04,0.43,-129.8922,276.3638,-3.8686000000000007,175,75
2026-05-07 18:34:21.578,4,0.29,0.07,1.01,-167.2622,346.6138,-7.948599999999999,175,75
2026-05-07 18:34:21.597,4,0.59,0.22,1.61,-137.4522,190.3938,-66.1186,175,75
2026-05-07 18:34:21.616,4,0.47,0.23,1.6,-105.98219999999999,54.6038,-110.20859999999999,175,75
2026-05-07 18:34:21.628,4,0.34,0.17,1.5,-99.7022,-6.1362000000000005,-135.0786,175,75
2026-05-07 18:34:21.647,4,0.18,0.02,1.14,-117.2022,-7.046200000000001,-148.0086,175,75
2026-05-07 18:34:21.658,4,0.02,-0.08,1.07,-113.9122,11.673799999999998,-142.2786,175,75
2026-05-07 18:34:21.665,4,-0.08,-0.2,1.0,-107.3222,38.013799999999996,-134.1686,175,75
2026-05-07 18:34:21.705,4,-0.11,-0.92,0.93,-106.23219999999999,109.41380000000001,-96.3686,175,75
2026-05-07 18:34:21.748,4,0.39,-0.61,1.42,-119.0322,-19.2462,-105.7586,175,75
2026-05-07 18:34:21.772,4,-0.01,-0.83,1.11,-106.23219999999999,-108.3262,-109.83860000000001,175,75
2026-05-07 18:34:21.792,4,-0.07,-0.5,0.88,-154.1522,-44.7862,-85.2686,175,75
2026-05-07 18:34:21.804,4,-0.04,-0.44,0.83,-165.8622,-16.066200000000002,-69.1086,175,75
2026-05-07 18:34:21.826,4,-0.02,-0.62,0.93,-172.3222,65.5738,-50.5686,175,75
2026-05-07 18:34:21.850,4,-0.07,-0.5,1.19,-210.19219999999999,85.33380000000001,-62.3386,175,75
2026-05-07 18:34:21.890,4,-0.14,-0.24,1.1,-208.6122,-49.056200000000004,-92.4586,175,75
2026-05-07 18:34:21.911,4,-0.14,-0.24,0.98,-216.8422,-37.1662,-96.2986,175,75
2026-05-07 18:34:21.912,4,-0.15,-0.27,0.86,-223.6722,-10.036200000000001,-98.6786,175,75
2026-05-07 18:34:21.957,4,-0.1,-0.67,0.89,-236.2322,117.9538,-109.2886,175,75
2026-05-07 18:34:21.962,4,-0.04,-0.74,0.96,-241.6522,150.3938,-121.23859999999999,175,75
2026-05-07 18:34:21.977,4,0.01,-0.78,1.04,-252.5122,160.82379999999998,-140.6886,175,75
2026-05-07 18:34:21.998,4,-0.07,-0.84,1.17,-268.6022,148.5638,-172.7686,175,75
2026-05-07 18:34:22.042,4,-0.37,-0.9,1.5,-242.0822,58.623799999999996,-200.7586,175,75
2026-05-07 18:34:22.055,4,-0.43,-0.57,1.73,-232.8722,-2.4762000000000004,-223.8686,175,75
2026-05-07 18:34:22.064,4,-0.31,-0.16,1.87,-234.5822,-74.7862,-218.9886,175,75
2026-05-07 18:34:22.085,4,-0.27,0.24,1.56,-231.0422,-204.4862,-168.7986,175,75
2026-05-07 18:34:22.096,4,-0.26,0.22,1.22,-212.7522,-233.7562,-147.7086,175,75
2026-05-07 18:34:22.120,4,-0.3,0.2,0.93,-194.0322,-210.8262,-112.39859999999999,175,75
2026-05-07 18:34:22.120,4,-0.39,0.21,0.83,-184.7022,-158.6962,-86.7886,175,75
2026-05-07 18:34:22.133,4,-0.48,0.17,0.83,-175.1322,-96.3762,-72.9486,175,75
2026-05-07 18:34:22.143,4,-0.59,0.04,0.99,-157.2622,-27.2262,-53.2586,175,75
2026-05-07 18:34:22.169,4,-0.93,-0.06,1.58,-106.3522,12.6438,-17.7686,175,75
2026-05-07 18:34:22.181,4,-1.13,-0.01,1.8,-86.3522,-40.9462,-9.348600000000001,175,75
2026-05-07 18:34:22.213,4,-1.55,0.01,1.56,32.9778,-294.7862,46.7414,175,75
2026-05-07 18:34:22.231,4,-1.71,-0.08,1.54,76.1478,-284.3662,76.6814,175,75
2026-05-07 18:34:22.244,4,-1.86,-0.21,1.61,118.2178,-243.08620000000002,124.0014,175,75
2026-05-07 18:34:22.252,4,-1.77,-0.33,1.64,151.5178,-243.8162,167.0514,175,75
2026-05-07 18:34:22.263,4,-1.75,-0.49,1.62,184.4378,-274.4862,189.5514,175,75
2026-05-07 18:34:22.275,4,-1.72,-0.73,1.53,237.6778,-257.6562,221.8114,175,75
2026-05-07 18:34:22.309,4,-1.19,-1.7,1.8,349.2578,-21.6762,394.6114,175,75
2026-05-07 18:34:22.326,4,-1.0,-2.11,2.1,383.0378,9.723799999999999,435.77139999999997,175,75
2026-05-07 18:34:22.343,4,-1.32,-2.86,2.31,397.6778,-118.2662,552.2914,175,75
2026-05-07 18:34:22.355,4,-1.59,-3.52,2.26,413.3478,-214.17620000000002,580.0414,175,75
2026-05-07 18:34:22.366,4,-2.17,-4.72,2.2,486.5178,-344.6062,552.2314,175,75
2026-05-07 18:34:22.378,4,-2.91,-5.89,2.05,568.5878,-399.4862,502.9614,175,75
2026-05-07 18:34:22.389,4,-3.21,-6.92,1.81,601.4578,-371.8062,420.83140000000003,175,75
2026-05-07 18:34:22.399,4,-2.86,-7.35,1.4,541.6978,-238.3262,291.56140000000005,175,75
2026-05-07 18:34:22.402,4,-1.56,-7.25,1.1,454.2578,-141.9862,206.5014,175,75
2026-05-07 18:34:22.417,4,0.01,-6.63,0.84,425.3578,-114.11619999999999,259.1214,175,75
2026-05-07 18:34:22.429,4,0.4,-6.16,0.74,440.8478,-203.02620000000002,356.56140000000005,175,75
2026-05-07 18:34:22.440,4,-0.64,-5.74,0.52,467.8578,-260.3962,395.53139999999996,175,75
2026-05-07 18:34:22.461,4,-1.25,-5.4,0.3,398.5878,-142.9562,349.9814,175,75
2026-05-07 18:34:22.471,4,-1.23,-4.37,0.18,280.5378,16.733800000000002,233.5114,175,75
2026-05-07 18:34:22.486,4,-0.56,-2.81,0.69,243.8878,7.893800000000001,110.8914,175,75
2026-05-07 18:34:22.497,4,-0.29,-2.52,1.0,261.8178,-64.72619999999999,90.8914,175,75
2026-05-07 18:34:22.507,4,0.12,-2.29,1.25,252.9178,-199.7862,69.06139999999999,175,75
2026-05-07 18:34:22.531,4,0.04,-1.56,0.71,170.0478,-399.9762,22.4814,175,75
2026-05-07 18:34:22.542,4,-0.16,-1.09,0.14,151.5778,-429.2462,-64.5986,175,75
2026-05-07 18:34:22.559,4,-0.21,-0.74,-0.27,164.3778,-423.20619999999997,-174.0486,175,75
2026-05-07 18:34:22.570,4,1.14,0.24,-0.1,135.9678,-426.1362,-58.378600000000006,175,75
2026-05-07 18:34:22.570,4,-0.26,0.82,-0.62,123.0378,-380.33619999999996,10.2814,175,75
2026-05-07 18:34:22.584,4,-0.05,1.17,-0.73,133.8278,-232.2262,-57.8886,175,75
2026-05-07 18:34:22.611,4,0.14,0.9,-0.75,133.5278,52.8938,-11.4286,175,75
2026-05-07 18:34:22.642,4,-0.0,0.44,-0.04,61.7578,91.1238,-47.708600000000004,175,75
2026-05-07 18:34:22.654,4,-0.04,0.62,0.04,49.6878,76.8538,-59.5386,175,75
2026-05-07 18:34:22.668,4,-0.06,0.78,0.05,50.9078,38.7438,-65.9386,175,75
2026-05-07 18:34:22.671,4,-0.17,0.78,0.05,57.067800000000005,-8.0262,-73.1286,175,75
2026-05-07 18:34:22.689,4,-0.23,0.69,0.03,54.0178,-28.636200000000002,-77.0986,175,75
2026-05-07 18:34:22.695,4,-0.19,0.6,-0.06,40.8478,-40.7062,-82.8286,175,75
2026-05-07 18:34:22.708,4,-0.28,0.58,-0.29,13.1578,-70.6462,-105.5686,175,75
2026-05-07 18:34:22.723,4,-0.49,0.64,-0.48,-5.7421999999999995,-46.196200000000005,-108.2586,175,75
2026-05-07 18:34:22.736,4,-0.57,0.63,-0.62,-22.0222,-9.786200000000001,-106.7886,175,75
2026-05-07 18:34:22.742,4,-0.7,0.6,-0.62,-45.8022,47.4638,-96.7286,175,75
2026-05-07 18:34:22.756,4,-0.81,0.62,-0.48,-62.2022,116.1238,-90.5086,175,75
2026-05-07 18:34:22.768,4,-0.83,0.65,-0.22,-81.84219999999999,136.85379999999998,-69.4086,175,75
2026-05-07 18:34:22.778,4,-0.15,0.35,-0.26,-95.8022,130.5138,-93.3186,175,75
2026-05-07 18:34:22.778,4,-0.39,0.42,-0.14,-123.1822,76.91380000000001,-111.5486,175,75
2026-05-07 18:34:22.790,4,-0.8,0.56,-0.07,-140.19219999999999,133.6838,-105.5086,175,75
2026-05-07 18:34:22.801,4,-0.6,0.53,-0.13,-141.7822,151.91379999999998,-101.6086,175,75
2026-05-07 18:34:22.826,4,-3.79,0.22,-0.68,-108.2422,344.41380000000004,-72.4586,175,75
2026-05-07 18:34:22.837,4,1.23,0.5,0.64,-80.9222,758.0738,-52.518600000000006,175,75
2026-05-07 18:34:22.849,4,3.04,-0.4,1.19,-151.7122,141.0638,17.9014,175,75
2026-05-07 18:34:22.871,4,-0.96,0.18,1.99,-196.5322,-494.7862,-198.1886,175,75
2026-05-07 18:34:22.882,4,-0.77,0.12,0.5,-258.0622,-652.8362,-284.04859999999996,175,75
2026-05-07 18:34:22.897,4,-0.99,0.02,-0.91,-193.4222,-380.33619999999996,-114.5386,175,75
2026-05-07 18:34:22.908,4,-0.67,-0.92,-1.15,-144.7022,-97.83619999999999,-44.4786,175,75
2026-05-07 18:34:22.933,4,0.37,-2.24,-0.15,-170.0722,89.3538,78.8214,175,75
2026-05-07 18:34:22.945,4,0.24,-2.33,0.51,-225.5622,108.44380000000001,116.6214,175,75
2026-05-07 18:34:22.960,4,0.52,-2.29,0.81,-328.4222,125.08380000000001,-26.668599999999998,175,75
2026-05-07 18:34:22.968,4,0.89,-2.63,0.8,-379.4022,128.8638,-85.6286,175,75
2026-05-07 18:34:22.980,4,1.06,-2.89,0.66,-429.0322,159.1138,-34.0486,175,75
2026-05-07 18:34:22.991,4,0.95,-2.87,0.54,-448.4222,199.66379999999998,50.891400000000004,175,75
2026-05-07 18:34:22.999,4,0.77,-2.89,0.42,-456.5922,269.29380000000003,142.66140000000001,175,75
2026-05-07 18:34:23.011,4,0.48,-3.02,0.43,-458.0622,327.4638,195.2214,175,75
2026-05-07 18:34:23.052,4,-1.06,-5.39,1.02,-286.9022,479.78380000000004,-221.3686,175,75
2026-05-07 18:34:23.063,4,-0.66,-4.76,1.8,-380.6222,453.3238,-324.04859999999996,175,75
2026-05-07 18:34:23.073,4,-0.63,-4.23,2.08,-377.4522,395.6938,-368.9886,175,75
2026-05-07 18:34:23.089,4,-0.36,-3.89,2.16,-354.2122,319.72380000000004,-376.7886,175,75
2026-05-07 18:34:23.099,4,-0.14,-3.57,2.18,-357.0822,223.5638,-356.9086,175,75
2026-05-07 18:34:23.110,4,-0.2,-3.22,2.07,-389.2122,145.5138,-315.7586,175,75
2026-05-07 18:34:23.142,4,-0.47,-2.29,1.3,-428.6022,77.4638,-249.0486,175,75
2026-05-07 18:34:23.145,4,-0.56,-2.01,1.09,-419.7622,93.9338,-240.32860000000002,175,75
2026-05-07 18:34:23.156,4,-0.69,-1.69,0.94,-394.8922,128.8638,-234.7186,175,75
2026-05-07 18:34:23.178,4,-0.71,-1.38,0.91,-351.9022,172.6438,-234.8986,175,75
2026-05-07 18:34:23.190,4,-0.71,-1.16,0.95,-312.3922,192.28379999999999,-237.94860000000003,175,75
2026-05-07 18:34:23.202,4,-0.7,-0.95,1.04,-270.5022,200.75379999999998,-243.9886,175,75
2026-05-07 18:34:23.202,4,-0.68,-0.71,1.16,-216.2322,192.4638,-257.7686,175,75
2026-05-07 18:34:23.217,4,-0.68,-0.54,1.26,-181.9022,172.0438,-268.92859999999996,175,75
2026-05-07 18:34:23.225,4,-0.59,-0.33,1.4,-153.5422,133.9938,-280.2686,175,75
2026-05-07 18:34:23.237,4,-0.0,0.12,1.71,-188.0022,59.2938,-172.5186,175,75
2026-05-07 18:34:23.247,4,-0.45,0.49,1.51,-222.7522,-2.8962000000000003,-64.2286,175,75
2026-05-07 18:34:23.257,4,-0.9,0.44,1.21,-203.3622,-12.536200000000001,-71.7886,175,75
2026-05-07 18:34:23.272,4,-0.91,0.25,1.06,-159.9522,-23.9362,-108.18860000000001,175,75
2026-05-07 18:34:23.283,4,-0.88,0.17,1.08,-134.5822,-31.4362,-106.9786,175,75
2026-05-07 18:34:23.324,4,-1.04,0.36,1.16,-132.4522,10.1438,-83.7386,175,75
2026-05-07 18:34:23.380,4,-1.62,0.24,1.18,-93.12219999999999,-45.0962,-97.3986,175,75
2026-05-07 18:34:23.397,4,-1.84,0.21,1.1,-82.5722,-40.7662,-106.5486,175,75
2026-05-07 18:34:23.407,4,-2.03,0.21,1.08,-71.84219999999999,-31.4962,-110.99860000000001,175,75
2026-05-07 18:34:23.414,4,-2.2,0.23,1.14,-53.1222,-10.1562,-110.26859999999999,175,75
2026-05-07 18:34:23.426,4,-2.22,0.26,1.26,-32.8722,-0.7062000000000008,-104.7786,175,75
2026-05-07 18:34:23.446,4,-2.19,0.28,1.4,-16.592200000000002,-22.836199999999998,-98.9886,175,75
2026-05-07 18:34:23.470,4,-2.14,0.22,1.49,10.1778,-123.44619999999999,-89.2886,175,75
2026-05-07 18:34:23.470,4,-2.13,0.17,1.43,23.5278,-156.2562,-85.9986,175,75
2026-05-07 18:34:23.482,4,-2.08,0.15,1.33,44.1978,-178.4462,-84.0486,175,75
2026-05-07 18:34:23.493,4,-2.0,0.21,1.27,61.7578,-189.11620000000002,-79.8386,175,75
2026-05-07 18:34:23.506,4,-1.89,0.32,1.23,81.4578,-193.14620000000002,-65.8186,175,75
2026-05-07 18:34:23.520,4,-1.74,0.42,1.21,104.4378,-183.08620000000002,-45.628600000000006,175,75
2026-05-07 18:34:23.537,4,-1.51,0.44,1.16,154.6878,-181.0662,-21.9086,175,75
2026-05-07 18:34:23.548,4,-1.45,0.42,1.19,187.30780000000001,-178.2662,-12.1586,175,75
2026-05-07 18:34:23.558,4,-1.33,0.38,1.19,218.0378,-173.8162,-1.0585999999999984,175,75
2026-05-07 18:34:23.580,4,-1.02,0.07,1.12,297.6778,-185.27620000000002,30.651400000000002,175,75
2026-05-07 18:34:23.595,4,-0.93,-0.1,0.99,337.1878,-202.5962,41.6214,175,75
2026-05-07 18:34:23.595,4,-0.82,-0.25,0.84,381.2678,-196.80620000000002,45.3414,175,75
2026-05-07 18:34:23.611,4,-0.72,-0.36,0.67,442.4878,-173.2062,64.1814,175,75
2026-05-07 18:34:23.633,4,-0.56,-0.69,0.37,548.0378,-130.2762,133.88139999999999,175,75
2026-05-07 18:34:23.633,4,-0.32,-1.14,0.28,617.9178,-106.00619999999999,172.2314,175,75
2026-05-07 18:34:23.649,4,0.15,-1.74,0.16,668.2878,-134.9162,247.8414,175,75
2026-05-07 18:34:23.659,4,0.6,-2.26,0.13,691.3878,-185.4562,356.6214,175,75
2026-05-07 18:34:23.677,4,1.06,-2.95,0.33,702.4878,-204.11620000000002,550.2214,175,75
2026-05-07 18:34:23.677,4,0.98,-3.71,0.52,687.9778,-299.7262,709.5514,175,75
2026-05-07 18:34:23.688,4,0.04,-7.76,0.79,877.0678,-601.2562,243.4514,175,75
2026-05-07 18:34:23.699,4,-1.8,-5.83,0.55,752.5478,-216.9862,35.8314,175,75
2026-05-07 18:34:23.718,4,2.24,-6.32,-0.06,442.9178,-322.89619999999996,127.2914,175,75
2026-05-07 18:34:23.723,4,-0.0,-5.43,-0.6,500.1778,-598.3862,110.8314,175,75
2026-05-07 18:34:23.737,4,-0.07,-5.68,-1.52,597.3078,-513.6362,47.4214,175,75
2026-05-07 18:34:23.748,4,0.17,-5.82,-1.8,578.7678,-420.39619999999996,18.031399999999998,175,75
2026-05-07 18:34:23.765,4,0.2,-5.4,-1.95,536.5778,-300.52619999999996,18.8814,175,75
2026-05-07 18:34:23.765,4,0.02,-4.41,-1.73,502.3678,-166.1362,8.7614,175,75
2026-05-07 18:34:23.800,4,-0.33,-3.15,-0.59,443.9578,-86.9862,-25.208599999999997,175,75
2026-05-07 18:34:23.811,4,-0.48,-2.7,-0.25,371.4578,-150.33620000000002,-57.3986,175,75
2026-05-07 18:34:23.811,4,-0.47,-2.37,-0.14,279.0778,-221.74620000000002,-112.45859999999999,175,75
2026-05-07 18:34:23.837,4,-0.15,-1.62,-0.3,70.3578,-226.0062,-233.6786,175,75
2026-05-07 18:34:23.845,4,0.0,-1.38,-0.38,44.4378,-218.3862,-257.5186,175,75
2026-05-07 18:34:23.862,4,0.12,-0.96,-0.41,50.2978,-216.86620000000002,-256.4886,175,75
2026-05-07 18:34:23.871,4,0.18,-0.38,-0.27,56.817800000000005,-234.24620000000002,-161.7886,175,75
2026-05-07 18:34:23.880,4,-0.76,0.03,-0.31,86.3278,-226.61620000000002,-129.5386,175,75
2026-05-07 18:34:23.901,4,-0.82,0.13,-0.21,90.7878,-212.77620000000002,-162.4586,175,75
2026-05-07 18:34:23.911,4,-0.95,0.57,-0.23,22.9778,-163.4462,-140.9986,175,75
2026-05-07 18:34:23.932,4,-0.9,0.74,-0.27,12.3678,-86.3762,-132.1586,175,75
2026-05-07 18:34:23.944,4,-0.88,0.83,-0.25,15.107800000000001,6.553799999999999,-111.6086,175,75
2026-05-07 18:34:23.956,4,-0.86,0.85,-0.15,15.9078,84.5438,-98.6786,175,75
2026-05-07 18:34:23.966,4,-0.86,0.84,0.06,1.9978,152.5838,-86.0586,175,75
2026-05-07 18:34:23.977,4,-0.85,0.88,0.3,-15.8622,198.7438,-80.9986,175,75
2026-05-07 18:34:23.988,4,-0.72,0.98,0.47,-31.0422,212.22379999999998,-78.1286,175,75
2026-05-07 18:34:24.002,4,-0.72,1.04,0.54,-30.6822,187.9538,-82.3386,175,75
2026-05-07 18:34:24.002,4,-0.73,0.98,0.53,-24.5822,171.0638,-83.1286,175,75
2026-05-07 18:34:24.016,4,-0.53,0.67,0.52,-19.9522,174.47379999999998,-96.6686,175,75
2026-05-07 18:34:24.038,4,-0.37,0.36,0.55,-31.9622,160.3338,-105.1486,175,75
2026-05-07 18:34:24.062,4,-3.21,0.53,1.12,-56.5922,211.85379999999998,-70.0786,175,75
2026-05-07 18:34:24.071,4,-0.81,0.14,0.56,-36.8422,592.2838,-94.5386,175,75
2026-05-07 18:34:24.082,4,2.1,0.17,2.18,-80.0722,503.8038,21.3214,175,75
2026-05-07 18:34:24.100,4,-0.78,-0.46,3.26,4.1978,-501.4362,-257.2786,175,75
2026-05-07 18:34:24.117,4,-0.91,-0.24,1.59,-97.3922,-219.9762,-152.4586,175,75
2026-05-07 18:34:24.157,4,0.02,-0.08,0.77,-15.802200000000001,136.1838,-69.4786,175,75
2026-05-07 18:34:24.169,4,0.07,-0.25,1.33,-63.0622,264.23380000000003,-12.708599999999997,175,75
2026-05-07 18:34:24.184,4,0.21,-0.3,1.51,-74.5222,258.8638,-8.258600000000001,175,75
2026-05-07 18:34:24.199,4,0.43,-0.31,1.65,-65.4322,215.3938,-13.7986,175,75
2026-05-07 18:34:24.210,4,0.44,-0.21,1.72,-58.852199999999996,88.99380000000001,-41.7886,175,75
2026-05-07 18:34:24.222,4,0.31,-0.07,1.71,-66.7822,-22.8962,-69.7186,175,75
2026-05-07 18:34:24.244,4,0.23,0.11,1.31,-102.7522,-183.3862,-94.4786,175,75
2026-05-07 18:34:24.255,4,0.19,0.05,1.07,-109.8222,-205.4562,-97.3986,175,75
2026-05-07 18:34:24.266,4,0.09,0.04,0.93,-114.34219999999999,-201.67620000000002,-95.5686,175,75
2026-05-07 18:34:24.287,4,0.14,0.21,0.84,-127.26219999999999,-153.8162,-88.0086,175,75
2026-05-07 18:34:24.300,4,0.33,0.46,0.85,-144.0922,-99.30619999999999,-82.4586,175,75
2026-05-07 18:34:24.310,4,0.47,0.61,0.86,-152.5122,-63.266200000000005,-81.5486,175,75
2026-05-07 18:34:24.326,4,0.55,0.6,0.77,-134.7022,-21.4362,-95.0186,175,75
2026-05-07 18:34:24.343,4,0.24,0.1,0.59,-117.4522,22.4638,-106.0586,175,75
2026-05-07 18:34:24.363,4,0.03,-0.13,0.58,-118.1822,69.72380000000001,-103.0686,175,75
2026-05-07 18:34:24.363,4,-0.05,-0.29,0.61,-122.0822,108.38380000000001,-100.1486,175,75
2026-05-07 18:34:24.373,4,-0.12,-0.41,0.68,-124.0322,130.3338,-101.4286,175,75
2026-05-07 18:34:24.387,4,-0.22,-0.45,0.82,-119.8922,134.66379999999998,-98.0686,175,75
2026-05-07 18:34:24.397,4,-0.23,-0.47,0.97,-116.4122,134.66379999999998,-92.5186,175,75
2026-05-07 18:34:24.401,4,-0.13,-0.51,1.15,-120.5622,128.6238,-85.7586,175,75
2026-05-07 18:34:24.417,4,0.03,-0.5,1.38,-136.9622,105.3938,-81.6686,175,75
2026-05-07 18:34:24.428,4,0.21,-0.41,1.57,-153.1822,74.2938,-85.2086,175,75
2026-05-07 18:34:24.453,4,0.58,-0.36,1.65,-180.6222,-114.6062,-110.20859999999999,175,75
2026-05-07 18:34:24.468,4,0.37,-0.5,1.32,-183.8522,-191.3762,-117.5786,175,75
2026-05-07 18:34:24.479,4,0.13,-0.57,0.96,-193.6722,-193.7562,-104.4786,175,75
2026-05-07 18:34:24.479,4,-0.11,-0.54,0.69,-205.8622,-143.14620000000002,-83.7386,175,75
2026-05-07 18:34:24.492,4,-0.26,-0.48,0.56,-215.1322,-68.5662,-64.8386,175,75
2026-05-07 18:34:24.505,4,-0.3,-0.41,0.6,-223.4222,48.8638,-39.6586,175,75
2026-05-07 18:34:24.517,4,-0.17,-0.41,0.81,-231.2322,128.0138,-20.8786,175,75
2026-05-07 18:34:24.527,4,-0.06,-0.47,1.1,-243.6122,160.63379999999998,-15.818600000000004,175,75
2026-05-07 18:34:24.539,4,-0.01,-0.55,1.35,-250.3722,144.41379999999998,-28.7986,175,75
2026-05-07 18:34:24.550,4,0.01,-0.58,1.57,-251.1122,101.0638,-47.768600000000006,175,75
2026-05-07 18:34:24.566,4,-0.01,-0.5,1.72,-246.5322,37.1038,-70.5686,175,75
2026-05-07 18:34:24.576,4,-0.05,-0.37,1.78,-242.0822,-25.0362,-88.0086,175,75
2026-05-07 18:34:24.588,4,-0.1,-0.22,1.75,-237.3222,-87.2862,-100.1486,175,75
2026-05-07 18:34:24.599,4,-0.15,-0.04,1.53,-232.8122,-147.2862,-104.8986,175,75
2026-05-07 18:34:24.605,4,-0.16,0.03,1.29,-233.3022,-159.7862,-99.7786,175,75
2026-05-07 18:34:24.616,4,-0.17,0.05,1.08,-233.0622,-146.0062,-89.1086,175,75
2026-05-07 18:34:24.642,4,-0.08,-0.15,0.73,-227.5122,-30.766199999999998,-74.7186,175,75
2026-05-07 18:34:24.651,4,-0.03,-0.26,0.72,-229.5222,22.3438,-75.1486,175,75
2026-05-07 18:34:24.673,4,-0.3,-0.33,1.08,-234.1522,154.66379999999998,-82.5186,175,75
2026-05-07 18:34:24.686,4,-0.37,-0.27,1.37,-227.69219999999999,174.9638,-83.3186,175,75
2026-05-07 18:34:24.697,4,-0.44,-0.26,1.52,-216.41219999999998,153.50379999999998,-90.2086,175,75
2026-05-07 18:34:24.700,4,-0.47,-0.26,1.64,-198.3022,88.5038,-105.9986,175,75
2026-05-07 18:34:24.712,4,-0.44,-0.27,1.7,-182.8122,24.723799999999997,-124.2286,175,75
2026-05-07 18:34:24.723,4,-0.35,-0.3,1.69,-171.3522,-22.2862,-143.9286,175,75
2026-05-07 18:34:24.734,4,-0.47,-0.26,1.65,-165.5022,-83.9962,-151.6086,175,75
2026-05-07 18:34:24.794,4,-1.38,0.06,1.48,-53.9722,-279.2462,-35.3286,175,75
2026-05-07 18:34:24.828,4,-1.14,-0.16,1.11,28.767799999999998,-268.26619999999997,74.8514,175,75
2026-05-07 18:34:24.850,4,-1.3,-0.59,1.42,125.4178,-121.4362,182.1714,175,75
2026-05-07 18:34:24.852,4,-1.33,-0.71,1.73,159.4978,-94.7862,228.0314,175,75
2026-05-07 18:34:24.887,4,-1.37,-0.94,2.11,235.2978,-204.6062,283.03139999999996,175,75
2026-05-07 18:34:24.887,4,-1.31,-1.13,1.94,271.3278,-267.1662,303.82140000000004,175,75
2026-05-07 18:34:24.897,4,-1.23,-1.28,1.67,296.2078,-297.2262,328.7614,175,75
2026-05-07 18:34:24.924,4,-1.03,-1.57,1.08,341.1478,-277.3562,385.4614,175,75
2026-05-07 18:34:24.942,4,-1.17,-1.77,0.84,383.8278,-199.11620000000002,402.90139999999997,175,75
2026-05-07 18:34:24.972,4,-1.21,-2.19,0.99,452.6078,-117.41619999999999,405.7114,175,75
2026-05-07 18:34:24.983,4,-1.35,-2.44,1.17,458.5878,-131.8662,434.43140000000005,175,75
2026-05-07 18:34:24.983,4,-1.65,-2.81,1.36,466.8778,-177.6562,464.79139999999995,175,75
2026-05-07 18:34:25.003,4,-1.97,-3.56,1.58,488.6478,-267.3562,457.9614,175,75
2026-05-07 18:34:25.018,4,-2.38,-5.56,1.73,484.5678,-472.1062,404.3714,175,75
2026-05-07 18:34:25.030,4,-2.72,-5.97,1.48,430.1078,-518.9362,377.42139999999995,175,75
2026-05-07 18:34:25.041,4,-3.13,-5.87,0.8,309.9878,-474.4262,277.66139999999996,175,75
2026-05-07 18:34:25.057,4,-2.85,-5.5,0.01,241.3278,-356.2562,166.8114,175,75
2026-05-07 18:34:25.068,4,-2.04,-4.88,-0.61,222.4878,-255.7062,111.8714,175,75
2026-05-07 18:34:25.073,4,-0.89,-4.16,-1.04,218.0378,-139.6662,95.4614,175,75
2026-05-07 18:34:25.093,4,0.12,-3.22,-1.32,224.1978,-69.36619999999999,124.9814,175,75
2026-05-07 18:34:25.093,4,-0.38,-2.49,-1.29,244.0178,-18.026200000000003,128.2714,175,75
2026-05-07 18:34:25.117,4,-0.94,-2.07,-0.98,250.0478,81.61380000000001,105.4014,175,75
2026-05-07 18:34:25.133,4,-1.09,-1.75,-0.37,231.9378,191.1238,56.5614,175,75
2026-05-07 18:34:25.159,4,-0.35,-1.14,1.08,110.3578,193.7438,-146.5486,175,75
2026-05-07 18:34:25.177,4,0.38,0.7,1.68,-132.3222,-86.55619999999999,137.5414,175,75
2026-05-07 18:34:25.188,4,-0.44,0.75,1.39,-95.0722,-191.61620000000002,-4.348600000000001,175,75
2026-05-07 18:34:25.198,4,0.32,1.05,1.52,-42.932199999999995,-315.0362,-62.9486,175,75
2026-05-07 18:34:25.208,4,0.15,1.15,1.34,-15.4322,-479.8562,-10.2686,175,75
2026-05-07 18:34:25.224,4,-0.13,0.86,0.92,-12.812199999999999,-518.2062,-49.04859999999999,175,75
2026-05-07 18:34:25.235,4,-0.25,0.67,0.53,-39.4022,-499.7862,-86.7886,175,75
2026-05-07 18:34:25.248,4,-0.32,0.81,0.0,-86.7822,-346.4362,-98.0086,175,75
2026-05-07 18:34:25.258,4,-0.3,0.99,-0.04,-84.34219999999999,-270.64619999999996,-98.7986,175,75
2026-05-07 18:34:25.269,4,-0.29,1.1,-0.0,-70.1922,-202.1662,-86.1786,175,75
2026-05-07 18:34:25.288,4,-0.37,1.0,0.13,-51.4122,-128.5662,-67.8286,175,75
2026-05-07 18:34:25.290,4,-0.39,0.8,0.24,-49.7622,-87.22619999999999,-61.54859999999999,175,75
2026-05-07 18:34:25.309,4,-0.33,0.57,0.36,-65.1922,-57.2262,-64.3486,175,75
2026-05-07 18:34:25.319,4,-0.32,0.49,0.43,-79.9522,-56.1362,-70.7586,175,75
2026-05-07 18:34:25.331,4,-0.36,0.47,0.47,-87.26219999999999,-57.5962,-75.9386,175,75
2026-05-07 18:34:25.343,4,-0.43,0.38,0.54,-93.6022,-49.4262,-75.6886,175,75
2026-05-07 18:34:25.355,4,-0.46,0.28,0.56,-97.9322,-45.4562,-78.3786,175,75
2026-05-07 18:34:25.374,4,-0.47,0.23,0.61,-102.0222,-47.1662,-80.5686,175,75
2026-05-07 18:34:25.387,4,-0.49,0.23,0.65,-107.0822,-55.336200000000005,-83.4386,175,75
2026-05-07 18:34:25.399,4,-0.54,0.26,0.68,-114.4622,-66.61619999999999,-86.9786,175,75
2026-05-07 18:34:25.401,4,-0.61,0.3,0.69,-120.5622,-73.8162,-86.6686,175,75
2026-05-07 18:34:25.418,4,-0.69,0.32,0.68,-123.48219999999999,-68.75619999999999,-81.3686,175,75
2026-05-07 18:34:25.429,4,-0.7,0.29,0.64,-125.8022,-57.4162,-76.6686,175,75
2026-05-07 18:34:25.445,4,-0.72,0.25,0.61,-130.3722,-47.8962,-71.3686,175,75
2026-05-07 18:34:25.452,4,-0.79,0.21,0.61,-133.4222,-31.6762,-65.8186,175,75
2026-05-07 18:34:25.468,4,-0.8,0.18,0.61,-132.8122,-10.3962,-61.54859999999999,175,75
2026-05-07 18:34:25.479,4,-0.75,0.13,0.64,-131.5922,11.973799999999999,-53.128600000000006,175,75
2026-05-07 18:34:25.479,4,-0.68,0.05,0.67,-130.5622,28.863799999999998,-47.0386,175,75
2026-05-07 18:34:25.493,4,-0.56,-0.1,0.69,-129.5822,40.7538,-45.4486,175,75
2026-05-07 18:34:25.516,4,-0.52,-0.44,0.67,-128.3022,37.5838,-41.9086,175,75
2026-05-07 18:34:25.522,4,-0.46,-0.71,0.64,-125.8622,57.4038,-38.9286,175,75
2026-05-07 18:34:25.538,4,-0.36,-0.96,0.58,-128.3022,64.72380000000001,-37.5186,175,75
2026-05-07 18:34:25.549,4,-0.4,-1.29,0.53,-139.1522,54.413799999999995,-34.9586,175,75
2026-05-07 18:34:25.559,4,-0.55,-1.59,0.58,-156.6522,60.0238,-20.388599999999997,175,75
2026-05-07 18:34:25.569,4,-0.61,-1.91,0.7,-174.4622,81.30380000000001,24.7914,175,75
2026-05-07 18:34:25.581,4,-0.65,-2.12,0.81,-179.9522,78.0738,61.9914,175,75
2026-05-07 18:34:25.593,4,-0.86,-2.39,0.98,-168.6722,53.7438,63.7614,175,75
2026-05-07 18:34:25.605,4,-1.14,-2.52,1.04,-164.2122,71.7938,6.6814,175,75
2026-05-07 18:34:25.624,4,-0.48,-2.22,1.25,-222.3222,211.0638,-65.6286,175,75
2026-05-07 18:34:25.640,4,0.06,-1.95,1.47,-222.4522,171.1838,-37.2786,175,75
2026-05-07 18:34:25.655,4,-0.36,-1.75,1.46,-213.3022,97.16380000000001,82.4214,175,75
2026-05-07 18:34:25.666,4,-0.68,-1.81,1.41,-208.5422,105.7538,107.8414,175,75
2026-05-07 18:34:25.681,4,-0.85,-1.71,1.37,-189.2822,99.72380000000001,84.5514,175,75
2026-05-07 18:34:25.704,4,-0.85,-1.58,1.32,-162.8722,95.69380000000001,35.8314,175,75
2026-05-07 18:34:25.710,4,-0.77,-1.36,1.36,-130.5022,100.3938,-5.938600000000001,175,75
2026-05-07 18:34:25.722,4,-0.56,-1.06,1.43,-94.0322,79.8438,-30.9386,175,75
2026-05-07 18:34:25.748,4,-0.21,-0.69,1.61,-83.0022,26.183799999999998,1.3813999999999993,175,75
2026-05-07 18:34:25.753,4,-0.41,-0.41,1.61,-84.1522,-2.7162000000000006,59.0614,175,75
2026-05-07 18:34:25.753,4,-0.59,-0.3,1.52,-64.8222,-9.786200000000001,75.6514,175,75
2026-05-07 18:34:25.764,4,-0.61,-0.32,1.42,-20.622200000000003,-41.0062,57.1114,175,75
2026-05-07 18:34:25.777,4,-0.54,-0.36,1.37,2.3678,-75.8262,52.9614,175,75
2026-05-07 18:34:25.789,4,-0.56,-0.33,1.26,6.5778,-94.66619999999999,61.6814,175,75
2026-05-07 18:34:25.794,4,-0.65,-0.25,1.1,8.4678,-99.5462,65.7114,175,75
2026-05-07 18:34:25.808,4,-0.67,-0.15,0.97,13.2878,-89.05619999999999,60.5314,175,75
2026-05-07 18:34:25.819,4,-0.65,0.01,0.9,20.2978,-66.9262,60.9514,175,75
2026-05-07 18:34:25.840,4,-0.6,0.3,0.88,27.0678,-23.566200000000002,77.6614,175,75
2026-05-07 18:34:25.866,4,-0.59,0.41,0.88,29.747799999999998,16.2438,85.0414,175,75
2026-05-07 18:34:25.877,4,-0.58,0.43,0.9,28.037799999999997,41.4938,86.5614,175,75
2026-05-07 18:34:25.888,4,-0.58,0.46,0.94,25.2978,62.64379999999999,86.4414,175,75
2026-05-07 18:34:25.893,4,-0.55,0.51,1.01,20.357799999999997,80.7538,84.00139999999999,175,75
2026-05-07 18:34:25.910,4,-0.57,0.61,1.08,14.8078,82.52380000000001,79.00139999999999,175,75
2026-05-07 18:34:25.920,4,-0.59,0.67,1.12,11.3878,82.22380000000001,74.79140000000001,175,75
2026-05-07 18:34:25.931,4,-0.59,0.7,1.14,9.5678,81.6738,71.3814,175,75
2026-05-07 18:34:25.942,4,-0.57,0.68,1.14,7.7978000000000005,74.72380000000001,67.6614,175,75
2026-05-07 18:34:25.958,4,-0.58,0.59,1.11,4.4978,60.6938,61.9314,175,75
2026-05-07 18:34:25.968,4,-0.62,0.52,1.1,-0.5022,51.913799999999995,52.5414,175,75
2026-05-07 18:34:25.979,4,-0.61,0.51,1.08,-6.5322,49.843799999999995,42.4214,175,75
2026-05-07 18:34:25.991,4,-0.59,0.52,1.08,-11.5922,48.3838,37.0514,175,75
2026-05-07 18:34:26.001,4,-0.56,0.55,1.1,-16.842200000000002,45.6338,30.651400000000002,175,75
2026-05-07 18:34:26.018,4,-0.54,0.48,1.14,-12.2622,34.5438,27.9014,175,75
2026-05-07 18:34:26.029,4,-0.52,0.38,1.15,-6.8422,19.113799999999998,24.6714,175,75
2026-05-07 18:34:26.044,4,-0.5,0.26,1.12,-2.4522000000000004,-2.1062000000000003,18.1514,175,75
2026-05-07 18:34:26.061,4,-0.46,0.06,1.06,3.0378,-27.776200000000003,15.0414,175,75
2026-05-07 18:34:26.061,4,-0.37,-0.17,0.96,12.2478,-39.0562,17.5414,175,75
2026-05-07 18:34:26.072,4,-0.28,-0.42,0.86,23.8278,-46.376200000000004,18.8214,175,75
2026-05-07 18:34:26.089,4,-0.23,-0.72,0.75,39.6878,-52.7162,26.5614,175,75
2026-05-07 18:34:26.099,4,-0.26,-1.0,0.66,55.6578,-43.3262,40.1014,175,75
2026-05-07 18:34:26.105,4,-0.25,-1.22,0.61,67.3678,-17.776200000000003,52.0514,175,75
2026-05-07 18:34:26.130,4,-0.05,-1.51,0.53,114.37780000000001,34.413799999999995,51.1314,175,75
2026-05-07 18:34:26.151,4,0.0,-1.65,0.54,143.7678,38.623799999999996,56.6814,175,75
2026-05-07 18:34:26.167,4,-0.08,-1.81,0.63,165.7178,32.2238,92.7214,175,75
2026-05-07 18:34:26.167,4,-0.17,-1.94,0.82,167.4878,24.3538,129.6714,175,75
2026-05-07 18:34:26.178,4,-0.32,-2.02,1.04,154.2578,-3.9962,143.76139999999998,175,75
2026-05-07 18:34:26.189,4,-0.41,-2.08,1.33,131.8178,-76.00619999999999,123.5714,175,75
2026-05-07 18:34:26.221,4,-0.63,-2.11,1.75,141.4578,-328.3862,-111.6086,175,75
2026-05-07 18:34:26.225,4,-0.27,-1.66,1.58,116.4578,-370.76619999999997,-245.56859999999998,175,75
2026-05-07 18:34:26.240,4,0.78,-1.0,1.71,106.51780000000001,-450.45619999999997,-292.33860000000004,175,75
2026-05-07 18:34:26.246,4,0.91,0.07,1.83,101.26780000000001,-571.0062,-143.4386,175,75
2026-05-07 18:34:26.257,4,-0.02,0.52,1.06,167.7978,-605.8262,-125.6286,175,75
2026-05-07 18:34:26.272,4,0.47,0.55,0.68,178.0378,-618.0262,-181.0586,175,75
2026-05-07 18:34:26.295,4,0.05,-0.14,-0.65,124.62780000000001,-308.4462,-154.5986,175,75
2026-05-07 18:34:26.295,4,0.42,-0.65,-1.13,128.7678,-77.6562,-158.1286,175,75
2026-05-07 18:34:26.315,4,0.57,-1.28,-1.18,132.7378,145.3938,-142.5786,175,75
2026-05-07 18:34:26.329,4,0.03,-1.56,-0.85,125.5978,321.79380000000003,-129.1686,175,75
2026-05-07 18:34:26.340,4,-0.31,-1.7,-0.3,109.37780000000001,503.13380000000006,-127.0986,175,75
2026-05-07 18:34:26.352,4,-0.48,-1.67,0.53,79.0778,662.9538,-142.2186,175,75
2026-05-07 18:34:26.352,4,-0.73,-1.43,1.17,58.5278,722.5238,-152.0386,175,75
2026-05-07 18:34:26.363,4,-0.71,-1.18,1.53,42.7378,701.4938,-149.4086,175,75
2026-05-07 18:34:26.381,4,-0.33,-0.85,1.93,22.7378,534.4738,-139.5386,175,75
2026-05-07 18:34:26.382,4,-0.24,-0.8,2.01,25.717799999999997,315.3938,-146.1186,175,75
2026-05-07 18:34:26.394,4,-0.47,-1.08,1.84,59.2578,57.583800000000004,-187.2786,175,75
2026-05-07 18:34:26.407,4,-0.67,-1.55,1.44,84.01780000000001,-119.1762,-215.7586,175,75
2026-05-07 18:34:26.427,4,-0.76,-1.77,1.09,71.4578,-183.3862,-203.3786,175,75
2026-05-07 18:34:26.436,4,-0.8,-1.86,0.6,22.4878,-168.4462,-169.7186,175,75
2026-05-07 18:34:26.448,4,-0.93,-1.73,0.26,-25.802200000000003,-126.6762,-161.8486,175,75
2026-05-07 18:34:26.470,4,-1.47,-1.01,-0.08,-49.642199999999995,36.553799999999995,-231.7286,175,75
2026-05-07 18:34:26.496,4,-0.55,-0.32,0.63,-8.9122,111.61380000000001,-239.2286,175,75
2026-05-07 18:34:26.524,4,-1.23,0.31,0.04,-111.4122,14.473799999999999,-134.8986,175,75
2026-05-07 18:34:26.538,4,-1.01,0.27,-0.13,-79.5822,28.863799999999998,-151.3686,175,75
2026-05-07 18:34:26.549,4,-1.17,0.33,-0.18,-74.9522,66.1838,-85.0786,175,75
2026-05-07 18:34:26.561,4,-1.41,0.27,-0.21,-84.8922,110.02380000000001,-81.4286,175,75
2026-05-07 18:34:26.561,4,-1.17,0.27,-0.11,-110.98219999999999,122.04380000000002,-89.8986,175,75
2026-05-07 18:34:26.577,4,-0.96,0.37,-0.03,-147.2622,103.74380000000001,-82.7686,175,75
2026-05-07 18:34:26.600,4,-0.88,0.52,-0.1,-150.2522,104.7838,-83.0686,175,75
2026-05-07 18:34:26.612,4,-0.76,0.42,-0.38,-157.2622,113.38380000000001,-87.3986,175,75
2026-05-07 18:34:26.623,4,-1.05,0.25,-0.52,-164.5822,134.72379999999998,-87.0986,175,75
2026-05-07 18:34:26.636,4,-1.62,-0.13,-0.45,-183.91219999999998,347.7738,-46.608599999999996,175,75
2026-05-07 18:34:26.658,4,-1.03,-0.48,-0.43,-191.9022,438.3238,-66.2986,175,75
2026-05-07 18:34:26.670,4,-1.26,-0.68,-0.11,-208.9722,434.47380000000004,-77.0386,175,75
2026-05-07 18:34:26.672,4,-2.57,-0.58,0.19,-220.6822,374.23380000000003,-14.168599999999998,175,75
2026-05-07 18:34:26.687,4,-2.71,-0.54,-0.52,-179.4622,627.9538,-10.3886,175,75
2026-05-07 18:34:26.692,4,-0.89,-0.76,0.71,-144.7622,789.6638,-64.5986,175,75
2026-05-07 18:34:26.704,4,3.25,-1.78,2.32,-174.7622,484.29380000000003,-13.258600000000001,175,75
2026-05-07 18:34:26.711,4,0.11,-2.03,3.32,-119.4622,-447.3562,-230.2086,175,75
2026-05-07 18:34:26.727,4,-1.24,-1.65,1.74,-167.1422,-255.8262,-205.3886,175,75
2026-05-07 18:34:26.737,4,-0.33,-1.45,0.41,-277.2622,-293.20619999999997,-164.1686,175,75
2026-05-07 18:34:26.748,4,-1.12,-1.21,0.0,-322.8722,-288.8762,-151.5486,175,75
2026-05-07 18:34:26.760,4,-1.22,-1.21,-0.7,-320.4322,-19.6662,-95.3886,175,75
2026-05-07 18:34:26.772,4,-0.77,-1.33,-0.83,-284.7022,199.0538,-5.758600000000001,175,75
2026-05-07 18:34:26.782,4,-0.94,-1.4,-0.18,-221.7822,358.3238,96.4414,175,75
2026-05-07 18:34:26.786,4,-0.78,-1.49,0.34,-177.0222,381.3638,152.6614,175,75
2026-05-07 18:34:26.804,4,-0.87,-1.6,0.87,-162.2622,320.5738,166.8714,175,75
2026-05-07 18:34:26.804,4,-0.93,-1.74,1.25,-169.5222,228.0138,148.2714,175,75
2026-05-07 18:34:26.824,4,-1.12,-1.77,1.34,-202.6322,73.86380000000001,71.7414,175,75
2026-05-07 18:34:26.840,4,-1.36,-1.59,1.06,-238.9722,27.583799999999997,-10.0186,175,75
2026-05-07 18:34:26.862,4,-1.16,-1.1,0.49,-263.0622,59.113800000000005,-135.9986,175,75
2026-05-07 18:34:26.873,4,-1.08,-0.83,0.41,-239.7022,94.66380000000001,-169.8986,175,75
2026-05-07 18:34:26.884,4,-0.89,-0.6,0.5,-205.0122,128.13379999999998,-163.6786,175,75
2026-05-07 18:34:26.895,4,-0.0,-0.41,0.96,-223.0622,137.3438,-28.6186,175,75
2026-05-07 18:34:26.908,4,-0.54,-0.48,0.66,-281.0422,134.5438,119.0614,175,75
2026-05-07 18:34:26.916,4,-0.61,-1.13,0.38,-287.0822,181.6138,138.2714,175,75
2026-05-07 18:34:26.923,4,-0.48,-1.65,0.3,-291.0422,240.0838,185.8314,175,75
2026-05-07 18:34:26.934,4,-0.6,-1.81,0.34,-298.0622,288.0138,208.9414,175,75
2026-05-07 18:34:26.955,4,-0.74,-1.91,0.54,-295.1922,354.0538,184.4314,175,75
2026-05-07 18:34:26.975,4,-0.78,-2.12,0.95,-245.8622,359.84380000000004,114.4914,175,75
2026-05-07 18:34:26.975,4,-0.77,-2.2,1.2,-205.19219999999999,320.8838,75.3414,175,75
2026-05-07 18:34:26.987,4,-0.84,-2.21,1.42,-159.3422,238.25379999999998,13.331399999999999,175,75
2026-05-07 18:34:26.997,4,-1.06,-2.16,1.57,-121.4722,132.5238,-78.4986,175,75
2026-05-07 18:34:27.011,4,-1.13,-2.04,1.57,-121.6522,75.08380000000001,-164.0486,175,75
2026-05-07 18:34:27.023,4,-0.95,-1.76,1.45,-153.6722,48.5638,-237.0986,175,75
2026-05-07 18:34:27.034,4,-0.75,-1.43,1.3,-179.7022,29.543799999999997,-284.95860000000005,175,75
2026-05-07 18:34:27.045,4,-0.67,-1.15,1.17,-181.2922,23.623799999999996,-303.3786,175,75
2026-05-07 18:34:27.062,4,-0.61,-0.78,1.07,-154.8222,32.8338,-297.57860000000005,175,75
2026-05-07 18:34:27.073,4,-0.56,-0.52,1.12,-122.8122,46.6738,-272.94860000000006,175,75
2026-05-07 18:34:27.073,4,0.15,-0.11,1.51,-132.0822,32.7738,-153.3786,175,75
2026-05-07 18:34:27.084,4,-0.3,0.25,1.48,-168.1822,7.1038000000000014,-0.9985999999999997,175,75
2026-05-07 18:34:27.096,4,-0.78,0.11,1.32,-164.6422,5.633799999999999,-8.558599999999998,175,75
2026-05-07 18:34:27.101,4,-0.76,-0.12,1.27,-148.0022,-9.0562,-56.848600000000005,175,75
2026-05-07 18:34:27.119,4,-0.68,-0.28,1.3,-125.1322,-48.5062,-91.4286,175,75
2026-05-07 18:34:27.127,4,-0.85,-0.17,1.36,-123.8522,-56.806200000000004,-80.6286,175,75
2026-05-07 18:34:27.149,4,-1.3,0.1,1.44,-134.0922,-16.066200000000002,-84.7786,175,75
2026-05-07 18:34:27.172,4,-1.35,0.2,1.55,-136.2322,13.5038,-83.3786,175,75
2026-05-07 18:34:27.182,4,-1.32,0.14,1.69,-128.1222,22.833799999999997,-71.0586,175,75
2026-05-07 18:34:27.194,4,-1.28,-0.02,1.71,-118.9122,-6.4362,-72.0386,175,75
2026-05-07 18:34:27.219,4,-1.2,-0.21,1.69,-104.34219999999999,-54.8562,-80.7586,175,75
2026-05-07 18:34:27.241,4,-0.89,-0.44,1.28,-44.892199999999995,-164.6662,-95.0186,175,75
2026-05-07 18:34:27.256,4,-0.81,-0.48,1.09,-15.312199999999999,-182.5362,-80.8186,175,75
2026-05-07 18:34:27.275,4,-0.78,-0.53,0.95,14.1378,-189.05620000000002,-65.5686,175,75
2026-05-07 18:34:27.288,4,-0.79,-0.63,0.75,64.3178,-181.1962,-40.3286,175,75
2026-05-07 18:34:27.312,4,-0.68,-0.58,0.67,123.6478,-164.6662,-15.878599999999999,175,75
2026-05-07 18:34:27.323,4,-0.63,-0.54,0.69,153.2178,-158.9362,6.321400000000001,175,75
2026-05-07 18:34:27.336,4,-0.57,-0.53,0.7,179.1978,-161.0062,28.0914,175,75
2026-05-07 18:34:27.336,4,-0.55,-0.52,0.7,199.2578,-168.14620000000002,40.4614,175,75
2026-05-07 18:34:27.349,4,-0.51,-0.52,0.67,216.9378,-171.1362,50.3414,175,75
2026-05-07 18:34:27.360,4,-0.42,-0.54,0.63,233.2878,-163.8762,59.1814,175,75
2026-05-07 18:34:27.375,4,-0.32,-0.53,0.59,252.0678,-145.8262,69.5514,175,75
2026-05-07 18:34:27.385,4,-0.25,-0.48,0.56,264.9278,-128.6962,77.9614,175,75
2026-05-07 18:34:27.395,4,-0.19,-0.42,0.52,279.5678,-98.9362,90.7714,175,75
2026-05-07 18:34:27.406,4,-0.17,-0.41,0.49,291.3278,-65.0962,103.3914,175,75
2026-05-07 18:34:27.420,4,-0.22,-0.46,0.48,301.0878,-26.0062,116.4414,175,75
2026-05-07 18:34:27.432,4,-0.32,-0.56,0.51,306.7578,22.403799999999997,131.2014,175,75
2026-05-07 18:34:27.464,4,-0.41,-0.84,0.65,298.5278,71.61380000000001,151.3214,175,75
2026-05-07 18:34:27.472,4,-0.43,-0.87,0.67,297.3678,59.473800000000004,146.38139999999999,175,75
2026-05-07 18:34:27.488,4,-0.44,-0.88,0.7,293.2178,41.303799999999995,137.4814,175,75
2026-05-07 18:34:27.497,4,-0.4,-0.86,0.71,280.9678,24.113799999999998,122.9014,175,75
2026-05-07 18:34:27.509,4,-0.35,-0.74,0.67,233.9578,-28.206200000000003,95.1014,175,75
2026-05-07 18:34:27.520,4,-0.34,-0.62,0.61,211.1478,-42.2862,83.3914,175,75
2026-05-07 18:34:27.535,4,-0.32,-0.52,0.59,182.30780000000001,-50.2162,74.1814,175,75
2026-05-07 18:34:27.556,4,-0.34,-0.6,0.58,128.4078,-31.196199999999997,74.1214,175,75
2026-05-07 18:34:27.567,4,-0.4,-0.77,0.57,107.48780000000001,-10.6462,84.4914,175,75
2026-05-07 18:34:27.579,4,-0.44,-1.05,0.55,94.4378,16.613799999999998,98.7014,175,75
2026-05-07 18:34:27.587,4,-0.48,-1.31,0.55,104.5678,28.5038,122.4814,175,75
2026-05-07 18:34:27.598,4,-0.6,-1.49,0.66,120.1778,30.2138,142.1714,175,75
2026-05-07 18:34:27.609,4,-0.65,-1.61,0.81,100.2978,27.403799999999997,137.2914,175,75
2026-05-07 18:34:27.623,4,-0.72,-1.61,0.86,55.537800000000004,14.6638,99.3714,175,75
2026-05-07 18:34:27.635,4,-0.76,-1.56,0.8,-0.7422,8.3238,37.6014,175,75
2026-05-07 18:34:27.646,4,-0.67,-1.48,0.71,-24.282200000000003,2.5237999999999996,-3.5585999999999984,175,75
2026-05-07 18:34:27.646,4,-0.56,-1.36,0.65,-26.842200000000002,-14.1162,-38.6186,175,75
2026-05-07 18:34:27.666,4,-0.45,-1.12,0.77,0.5378000000000001,-43.9962,-100.8186,175,75
2026-05-07 18:34:27.687,4,-0.26,-0.73,1.35,-51.532199999999996,-56.376200000000004,-24.168599999999998,175,75
2026-05-07 18:34:27.708,4,-0.47,-0.57,1.43,-68.3622,-77.22619999999999,-18.318600000000004,175,75
2026-05-07 18:34:27.710,4,-0.5,-0.6,1.48,-52.2022,-104.30619999999999,-31.428600000000003,175,75
2026-05-07 18:34:27.727,4,-0.49,-0.63,1.52,-24.642200000000003,-154.05620000000002,-37.7686,175,75
2026-05-07 18:34:27.728,4,-0.54,-0.62,1.5,-8.7922,-209.24620000000002,-44.8386,175,75
2026-05-07 18:34:27.737,4,-0.62,-0.55,1.35,-5.8622,-265.45619999999997,-60.7586,175,75
2026-05-07 18:34:27.770,4,-0.7,-0.34,0.67,-18.3622,-274.7262,-66.2386,175,75
2026-05-07 18:34:27.782,4,-0.71,-0.31,0.34,-23.9722,-236.1362,-66.1186,175,75
2026-05-07 18:34:27.782,4,-0.74,-0.29,0.09,-27.0822,-164.9762,-69.8986,175,75
2026-05-07 18:34:27.806,4,-0.83,-0.14,0.25,-16.532200000000003,59.6638,-42.0386,175,75
2026-05-07 18:34:27.813,4,-0.78,-0.1,0.54,-22.4522,134.41379999999998,-33.2586,175,75
2026-05-07 18:34:27.828,4,-0.78,0.01,0.95,-42.0822,161.3038,-29.2286,175,75
2026-05-07 18:34:27.840,4,-0.85,0.17,1.21,-50.9222,136.4338,-33.4986,175,75
2026-05-07 18:34:27.851,4,-0.78,0.39,1.37,-43.6722,83.74380000000001,-43.9286,175,75
2026-05-07 18:34:27.875,4,-0.8,0.71,1.36,-35.682199999999995,-62.3562,-44.4786,175,75
2026-05-07 18:34:27.887,4,-0.91,0.8,1.25,-40.9222,-99.5462,-46.608599999999996,175,75
2026-05-07 18:34:27.899,4,-0.97,0.85,1.1,-51.9022,-102.5962,-43.9286,175,75
2026-05-07 18:34:27.910,4,-0.99,0.81,0.96,-57.6322,-74.66619999999999,-34.6586,175,75
2026-05-07 18:34:27.921,4,-0.99,0.69,0.9,-56.532199999999996,-45.2762,-24.108600000000003,175,75
2026-05-07 18:34:27.926,4,-0.98,0.49,0.95,-58.4822,-16.5562,-15.818600000000004,175,75
2026-05-07 18:34:27.957,4,-0.86,0.35,1.16,-72.3222,-41.4962,-22.458599999999997,175,75
2026-05-07 18:34:27.969,4,-0.81,0.34,1.15,-66.59219999999999,-88.9962,-26.178600000000003,175,75
2026-05-07 18:34:27.979,4,-0.8,0.31,1.07,-62.2022,-122.1062,-28.0086,175,75
2026-05-07 18:34:27.992,4,-0.81,0.28,0.95,-60.1922,-136.9862,-30.388599999999997,175,75
2026-05-07 18:34:28.002,4,-0.75,0.19,0.8,-58.1222,-125.27619999999999,-31.9086,175,75
2026-05-07 18:34:28.016,4,-0.74,0.08,0.74,-56.962199999999996,-106.4362,-29.168599999999998,175,75
2026-05-07 18:34:28.017,4,-0.78,0.01,0.74,-59.642199999999995,-88.5662,-27.5186,175,75
2026-05-07 18:34:28.028,4,-0.85,-0.06,0.85,-64.5222,-63.7562,-26.2986,175,75
2026-05-07 18:34:28.043,4,-0.83,-0.14,0.97,-63.9122,-48.1462,-19.4086,175,75
2026-05-07 18:34:28.069,4,-0.84,-0.56,1.06,-51.1722,-86.9262,6.321400000000001,175,75
2026-05-07 18:34:28.082,4,-0.87,-0.92,0.96,-41.782199999999996,-108.1462,26.7414,175,75
2026-05-07 18:34:28.094,4,-0.84,-1.25,0.86,-38.852199999999996,-118.9962,48.391400000000004,175,75
2026-05-07 18:34:28.094,4,-0.78,-1.51,0.77,-41.1722,-120.58619999999999,70.6514,175,75
2026-05-07 18:34:28.109,4,-0.74,-1.68,0.66,-46.8422,-114.4262,87.9614,175,75
2026-05-07 18:34:28.117,4,-0.84,-1.68,0.53,-46.8422,-82.9562,73.4514,175,75
2026-05-07 18:34:28.144,4,-0.81,-1.28,0.44,-13.6122,19.3538,-31.788600000000002,175,75
2026-05-07 18:34:28.154,4,-0.46,-1.11,0.55,9.8678,55.2738,-65.2086,175,75
2026-05-07 18:34:28.165,4,0.14,-0.93,0.83,7.6078,52.2238,-21.3686,175,75
2026-05-07 18:34:28.176,4,0.0,-0.77,0.78,-14.892199999999999,18.5638,80.53139999999999,175,75
2026-05-07 18:34:28.190,4,-0.31,-0.88,0.63,-11.0422,18.3238,113.0914,175,75
2026-05-07 18:34:28.192,4,-0.42,-1.15,0.47,11.3278,32.2838,124.5514,175,75
2026-05-07 18:34:28.208,4,-0.46,-1.43,0.44,39.8678,48.803799999999995,146.38139999999999,175,75
2026-05-07 18:34:28.219,4,-0.57,-1.5,0.43,49.8078,62.89379999999999,162.2914,175,75
2026-05-07 18:34:28.229,4,-0.7,-1.47,0.43,52.7978,78.6838,159.7314,175,75
2026-05-07 18:34:28.241,4,-0.79,-1.41,0.44,57.427800000000005,93.3238,137.9614,175,75
2026-05-07 18:34:28.252,4,-0.8,-1.34,0.48,70.1078,97.6438,102.7214,175,75
2026-05-07 18:34:28.264,4,-0.73,-1.27,0.54,91.3978,88.3238,59.3114,175,75
2026-05-07 18:34:28.265,4,-0.65,-1.15,0.64,114.8678,66.8538,9.1214,175,75
2026-05-07 18:34:28.281,4,-0.59,-1.02,0.73,123.76780000000001,48.1338,-28.6186,175,75
2026-05-07 18:34:28.302,4,-0.35,-0.88,0.9,114.2578,30.693799999999996,-48.988600000000005,175,75
2026-05-07 18:34:28.302,4,0.04,-0.46,1.07,58.3478,-6.4362,26.011400000000002,175,75
2026-05-07 18:34:28.324,4,-0.27,-0.09,0.94,21.5778,-51.9262,75.7714,175,75
2026-05-07 18:34:28.324,4,-0.46,-0.03,0.82,25.657799999999998,-63.266200000000005,68.0914,175,75
2026-05-07 18:34:28.344,4,-0.47,-0.1,0.71,54.2578,-48.7562,47.901399999999995,175,75
2026-05-07 18:34:28.360,4,-0.45,-0.06,0.71,39.1378,-24.6062,55.8914,175,75
2026-05-07 18:34:28.380,4,-0.45,0.17,0.7,0.5378000000000001,25.4538,43.5714,175,75
2026-05-07 18:34:28.397,4,-0.4,0.35,0.73,-10.312199999999999,44.7238,38.8814,175,75
2026-05-07 18:34:28.419,4,-0.43,0.56,0.81,-28.4222,63.9338,34.791399999999996,175,75
2026-05-07 18:34:28.431,4,-0.54,0.64,0.89,-48.2422,75.5738,26.6214,175,75
2026-05-07 18:34:28.444,4,-0.58,0.64,0.92,-54.462199999999996,82.2838,24.851399999999998,175,75
2026-05-07 18:34:28.444,4,-0.62,0.62,0.97,-58.4822,87.9538,23.2114,175,75
2026-05-07 18:34:28.472,4,-0.65,0.61,1.04,-60.8022,93.6838,21.5014,175,75
2026-05-07 18:34:28.483,4,-0.64,0.61,1.1,-58.3022,92.4638,18.6314,175,75
2026-05-07 18:34:28.495,4,-0.61,0.59,1.16,-53.3022,85.27380000000001,13.0914,175,75
2026-05-07 18:34:28.495,4,-0.58,0.55,1.18,-49.642199999999995,75.8238,8.1514,175,75
2026-05-07 18:34:28.529,4,-0.53,0.25,1.15,-36.6522,-4.546200000000001,-31.3686,175,75
2026-05-07 18:34:28.566,4,-0.66,-0.08,1.06,-2.3922,-128.3862,-71.7286,175,75
2026-05-07 18:34:28.577,4,-0.8,-0.25,1.0,17.0678,-173.7562,-78.0686,175,75
2026-05-07 18:34:28.588,4,-0.92,-0.48,0.95,38.5278,-210.52620000000002,-81.9786,175,75
2026-05-07 18:34:28.588,4,-1.04,-0.75,0.88,57.7978,-243.7562,-81.4286,175,75
2026-05-07 18:34:28.602,4,-1.11,-1.07,0.81,69.5678,-295.33619999999996,-62.518600000000006,175,75
2026-05-07 18:34:28.612,4,-1.28,-1.33,0.74,63.3478,-379.4862,-8.7986,175,75
2026-05-07 18:34:28.629,4,-1.55,-1.48,0.68,48.3478,-434.5462,27.7214,175,75
2026-05-07 18:34:28.641,4,-1.99,-1.59,0.6,24.627799999999997,-500.39619999999996,-12.398600000000002,175,75
2026-05-07 18:34:28.648,4,-2.72,-1.55,0.54,-1.7821999999999998,-517.7162,-154.1086,175,75
2026-05-07 18:34:28.667,4,-2.92,-1.29,0.47,-32.5122,-416.3762,-272.33860000000004,175,75
2026-05-07 18:34:28.670,4,-2.41,-0.85,0.48,-55.3122,-287.2262,-355.20860000000005,175,75
2026-05-07 18:34:28.679,4,-1.83,-0.42,0.52,-49.462199999999996,-236.3762,-402.3986,175,75
2026-05-07 18:34:28.686,4,0.04,0.34,1.04,-31.292200000000005,-244.4862,-327.45860000000005,175,75
2026-05-07 18:34:28.709,4,-0.66,1.39,1.32,-59.3422,-299.6662,45.3414,175,75
2026-05-07 18:34:28.725,4,-1.66,-0.2,1.22,101.6378,-68.9362,-12.948599999999999,175,75
2026-05-07 18:34:28.744,4,-1.32,-1.04,1.65,97.48780000000001,-40.6462,52.6014,175,75
2026-05-07 18:34:28.744,4,-1.35,-1.37,1.79,95.1078,-66.6762,104.9214,175,75
2026-05-07 18:34:28.768,4,-1.67,-1.99,2.22,172.6778,-303.4462,118.5114,175,75
2026-05-07 18:34:28.800,4,-2.18,-2.08,1.87,172.30780000000001,-425.76619999999997,-7.1586,175,75
2026-05-07 18:34:28.812,4,-1.91,-1.6,1.42,122.48780000000001,-371.4962,-67.3386,175,75
2026-05-07 18:34:28.812,4,-1.55,-1.25,1.17,119.37780000000001,-346.3762,-96.2986,175,75
2026-05-07 18:34:28.824,4,-1.13,-0.93,0.92,167.2478,-335.33619999999996,-109.77860000000001,175,75
2026-05-07 18:34:28.838,4,-0.65,-0.81,0.81,231.0278,-311.2562,-93.9286,175,75
2026-05-07 18:34:28.863,4,-0.34,-0.98,0.73,261.4578,-225.33620000000002,85.5914,175,75
2026-05-07 18:34:28.874,4,-0.47,-1.25,0.59,260.1078,-159.24620000000002,82.1714,175,75
2026-05-07 18:34:28.887,4,-0.47,-1.57,0.66,261.8178,-38.1462,70.1014,175,75
2026-05-07 18:34:28.910,4,-0.55,-1.42,0.75,254.8678,-27.596200000000003,25.4014,175,75
2026-05-07 18:34:28.925,4,-0.11,-1.12,1.02,251.08780000000002,-99.05619999999999,-42.6486,175,75
2026-05-07 18:34:28.940,4,0.15,-0.81,1.18,224.0178,-186.0062,9.0014,175,75
2026-05-07 18:34:28.940,4,-0.24,-0.64,1.03,202.6078,-263.7562,33.9414,175,75
2026-05-07 18:34:28.962,4,-0.36,-0.81,0.63,188.5278,-363.9362,-37.3986,175,75
2026-05-07 18:34:28.984,4,-0.45,-0.68,0.36,154.2578,-382.0462,-42.6486,175,75
2026-05-07 18:34:28.995,4,-0.53,-0.51,0.17,124.8678,-357.59619999999995,-54.7786,175,75
2026-05-07 18:34:28.995,4,-0.52,-0.31,0.05,95.65780000000001,-325.64619999999996,-62.3986,175,75
2026-05-07 18:34:29.015,4,-0.57,0.09,-0.05,29.197799999999997,-219.6062,-53.378600000000006,175,75
2026-05-07 18:34:29.037,4,-0.5,0.16,0.01,9.2578,-151.0062,-42.5786,175,75
2026-05-07 18:34:29.054,4,-0.42,0.16,0.11,-3.3621999999999996,-107.77619999999999,-36.6086,175,75
2026-05-07 18:34:29.075,4,-0.29,0.3,0.44,-51.0422,-87.2862,-56.4286,175,75
2026-05-07 18:34:29.088,4,-0.18,0.43,0.39,-59.9522,-93.44619999999999,-66.8486,175,75
2026-05-07 18:34:29.098,4,-0.2,0.55,0.35,-65.1922,-76.55619999999999,-65.0786,175,75
2026-05-07 18:34:29.120,4,-0.08,0.68,0.54,-67.8122,53.193799999999996,-45.268600000000006,175,75
2026-05-07 18:34:29.142,4,0.27,0.28,0.75,-82.4522,50.0238,-79.1086,175,75
2026-05-07 18:34:29.148,4,-0.21,0.42,0.87,-86.1722,97.58380000000001,-79.0486,175,75
2026-05-07 18:34:29.171,4,-3.67,0.77,1.16,-55.1322,85.02380000000001,-75.9386,175,75
2026-05-07 18:34:29.199,4,-0.19,-1.21,3.91,47.4878,-395.76619999999997,-251.6086,175,75
2026-05-07 18:34:29.209,4,0.11,-0.52,2.19,-29.1522,-400.58619999999996,-197.7086,175,75
2026-05-07 18:34:29.219,4,-0.13,-0.38,1.2,-83.0022,-467.3562,-241.4886,175,75
2026-05-07 18:34:29.236,4,-0.01,-0.32,0.61,-69.09219999999999,-337.0462,-186.1786,175,75
2026-05-07 18:34:29.265,4,-0.44,-0.7,0.27,-19.1522,53.3238,-66.6086,175,75
2026-05-07 18:34:29.281,4,-0.09,-0.56,1.45,-76.84219999999999,278.8638,7.541399999999999,175,75
2026-05-07 18:34:29.319,4,0.05,-0.89,1.62,-2.5721999999999996,-124.05619999999999,-39.4686,175,75
2026-05-07 18:34:29.325,4,0.02,-0.79,1.43,0.1078,-200.58620000000002,-55.5086,175,75
2026-05-07 18:34:29.337,4,-0.18,-0.56,1.21,-8.4222,-244.05620000000002,-54.1686,175,75
2026-05-07 18:34:29.355,4,-0.34,-0.39,1.04,-13.4822,-249.11620000000002,-40.3886,175,75
2026-05-07 18:34:29.355,4,-0.44,-0.29,0.9,-15.5022,-242.1062,-21.668599999999998,175,75
2026-05-07 18:34:29.367,4,-0.59,-0.23,0.85,-14.8222,-210.7662,1.811399999999999,175,75
2026-05-07 18:34:29.375,4,-0.57,-0.22,0.87,-15.742199999999999,-144.9762,19.7314,175,75
2026-05-07 18:34:29.385,4,-0.35,-0.15,0.93,-25.982200000000002,-76.9262,25.4614,175,75
2026-05-07 18:34:29.417,4,-0.09,0.39,0.93,-45.432199999999995,-8.5062,25.4014,175,75
2026-05-07 18:34:29.433,4,-0.1,0.53,0.87,-44.212199999999996,21.6738,24.4914,175,75
2026-05-07 18:34:29.433,4,-0.11,0.64,0.8,-44.7622,85.88380000000001,24.1814,175,75
2026-05-07 18:34:29.463,4,-0.25,0.64,0.88,-58.3622,191.4338,20.8914,175,75
2026-05-07 18:34:29.464,4,-0.31,0.58,1.0,-63.3022,217.0438,16.2014,175,75
2026-05-07 18:34:29.476,4,-0.32,0.46,1.17,-68.7922,226.1838,5.461399999999999,175,75
2026-05-07 18:34:29.490,4,-0.26,0.28,1.29,-70.98219999999999,218.8638,-7.458600000000001,175,75
2026-05-07 18:34:29.528,4,-0.15,-0.33,1.48,-78.0022,96.7338,-51.9786,175,75
2026-05-07 18:34:29.562,4,-0.02,-0.61,1.41,-86.23219999999999,-58.086200000000005,-67.8886,175,75
2026-05-07 18:34:29.575,4,0.16,-0.44,1.42,-89.4022,-84.30619999999999,-75.8786,175,75
2026-05-07 18:34:29.575,4,0.29,-0.25,1.42,-96.3522,-105.6462,-78.7986,175,75
2026-05-07 18:34:29.597,4,0.35,-0.08,1.36,-106.2922,-122.47619999999999,-78.4986,175,75
2026-05-07 18:34:29.608,4,0.29,-0.02,1.18,-116.1722,-138.02620000000002,-71.8486,175,75
2026-05-07 18:34:29.646,4,0.09,-0.39,0.64,-99.4022,-24.7862,-31.968600000000002,175,75
2026-05-07 18:34:29.646,4,0.09,-0.43,0.68,-98.0022,28.3238,-20.998600000000003,175,75
2026-05-07 18:34:29.693,4,0.31,-0.4,1.24,-118.8522,41.0038,-5.268599999999999,175,75
2026-05-07 18:34:29.693,4,0.29,-0.46,1.25,-116.59219999999999,-18.206200000000003,-8.7986,175,75
2026-05-07 18:34:29.714,4,0.2,-0.45,1.17,-112.6322,-62.5962,-14.6586,175,75
2026-05-07 18:34:29.714,4,0.1,-0.35,1.07,-111.3522,-83.8762,-18.928600000000003,175,75
2026-05-07 18:34:29.730,4,0.03,-0.17,1.0,-112.26219999999999,-73.50619999999999,-13.678600000000003,175,75
2026-05-07 18:34:29.751,4,-0.07,-0.03,0.98,-110.4322,-53.6362,-2.098600000000001,175,75
2026-05-07 18:34:29.772,4,-0.16,0.06,1.04,-101.4122,-33.0262,10.8314,175,75
2026-05-07 18:34:29.786,4,-0.26,0.08,1.14,-89.2122,-27.2262,17.9014,175,75
2026-05-07 18:34:29.795,4,-0.36,0.07,1.27,-71.84219999999999,-45.7062,19.9214,175,75
2026-05-07 18:34:29.795,4,-0.45,0.06,1.35,-54.892199999999995,-59.056200000000004,14.311399999999999,175,75
2026-05-07 18:34:29.849,4,-1.05,0.52,1.57,23.467799999999997,-156.92620000000002,27.601399999999998,175,75
2026-05-07 18:34:29.856,4,-1.1,0.63,1.63,34.747800000000005,-166.4362,41.501400000000004,175,75
2026-05-07 18:34:29.868,4,-1.09,0.69,1.69,56.3278,-163.02620000000002,49.1814,175,75
2026-05-07 18:34:29.889,4,-1.13,0.56,1.69,90.5378,-186.3762,62.2914,175,75
2026-05-07 18:34:29.911,4,-1.21,0.28,1.54,134.9278,-161.2562,82.23140000000001,175,75
2026-05-07 18:34:29.933,4,-1.14,0.12,1.43,158.4678,-156.67620000000002,99.4314,175,75
2026-05-07 18:34:29.944,4,-1.18,-0.21,1.23,203.3478,-112.0462,135.8314,175,75
2026-05-07 18:34:29.955,4,-1.13,-0.47,1.14,225.1778,-76.7462,166.6814,175,75
2026-05-07 18:34:29.971,4,-1.18,-0.85,1.01,240.9678,-51.376200000000004,214.4914,175,75
2026-05-07 18:34:29.993,4,-1.09,-1.6,0.83,245.6578,2.7737999999999996,354.3714,175,75
2026-05-07 18:34:30.033,4,-1.39,-2.75,0.91,260.5978,-95.7662,506.07140000000004,175,75
2026-05-07 18:34:30.078,4,-1.38,-2.64,0.77,134.3778,94.2938,235.2814,175,75
2026-05-07 18:34:30.102,4,-1.42,-2.12,0.94,158.8878,8.133799999999999,249.1214,175,75
2026-05-07 18:34:30.125,4,-1.54,-1.99,0.79,103.2878,-48.696200000000005,211.2614,175,75
2026-05-07 18:34:30.140,4,-1.45,-1.86,0.63,57.857800000000005,-40.4562,168.2114,175,75
2026-05-07 18:34:30.152,4,-0.95,-1.5,0.49,24.8678,-12.1662,53.5714,175,75
2026-05-07 18:34:30.164,4,-0.73,-1.29,0.56,41.8778,-18.9962,-13.128599999999999,175,75
2026-05-07 18:34:30.179,4,-0.63,-1.12,0.66,59.567800000000005,-29.6062,-72.1586,175,75
2026-05-07 18:34:30.194,4,-0.56,-0.95,0.77,69.7478,-39.7862,-122.70859999999999,175,75
2026-05-07 18:34:30.194,4,0.31,-0.64,1.22,51.6378,-62.4762,-130.5686,175,75
2026-05-07 18:34:30.223,4,-0.66,0.52,0.9,-74.8922,-198.2662,56.6214,175,75
2026-05-07 18:34:30.238,4,-0.44,0.42,0.76,-30.5622,-218.3862,-7.648600000000002,175,75
2026-05-07 18:34:30.251,4,-0.17,0.41,0.77,-14.4622,-232.3562,20.8914,175,75
2026-05-07 18:34:30.293,4,-0.33,0.67,0.62,-64.9522,-87.7162,13.0314,175,75
2026-05-07 18:34:30.321,4,-0.36,0.68,0.82,-66.23219999999999,-84.36619999999999,-0.2685999999999993,175,75
2026-05-07 18:34:30.332,4,-0.35,0.63,0.87,-72.1422,-99.11619999999999,-6.368600000000001,175,75
2026-05-07 18:34:30.345,4,-0.36,0.59,0.88,-76.4722,-122.7162,-14.108600000000003,175,75
2026-05-07 18:34:30.355,4,-0.37,0.57,0.85,-76.6522,-141.61620000000002,-19.348599999999998,175,75
2026-05-07 18:34:30.366,4,-0.38,0.55,0.77,-75.37219999999999,-151.1362,-21.668599999999998,175,75
2026-05-07 18:34:30.388,4,-0.42,0.46,0.63,-76.7122,-135.5262,-25.3286,175,75
2026-05-07 18:34:30.416,4,-0.46,0.42,0.63,-79.4022,-86.00619999999999,-27.398600000000002,175,75
2026-05-07 18:34:30.416,4,-0.45,0.43,0.68,-80.6822,-67.5362,-27.648600000000002,175,75
2026-05-07 18:34:30.449,4,-0.46,0.43,0.83,-82.5722,-62.9562,-31.488599999999998,175,75
2026-05-07 18:34:30.460,4,-0.48,0.44,0.89,-83.12219999999999,-74.72619999999999,-34.5386,175,75
2026-05-07 18:34:30.471,4,-0.5,0.44,0.9,-84.0322,-88.9962,-38.1286,175,75
2026-05-07 18:34:30.477,4,-0.52,0.44,0.89,-84.4022,-104.66619999999999,-41.2386,175,75
2026-05-07 18:34:30.483,4,-0.54,0.44,0.86,-84.4622,-113.1462,-41.3686,175,75
2026-05-07 18:34:30.493,4,-0.58,0.4,0.85,-86.2922,-116.80619999999999,-41.9686,175,75
2026-05-07 18:34:30.514,4,-0.65,0.36,0.85,-89.76219999999999,-112.22619999999999,-38.5586,175,75
2026-05-07 18:34:30.537,4,-0.76,0.33,0.89,-91.0422,-103.38619999999999,-29.958599999999997,175,75
2026-05-07 18:34:30.540,4,-0.81,0.22,0.93,-86.2922,-83.5662,-17.888599999999997,175,75
2026-05-07 18:34:30.576,4,-0.68,-0.67,0.67,-62.6922,-38.3262,-8.128599999999999,175,75
2026-05-07 18:34:30.586,4,-0.85,-1.11,0.62,-72.2022,0.8238000000000003,0.40139999999999887,175,75
2026-05-07 18:34:30.596,4,-0.91,-1.47,0.67,-93.8522,37.0438,23.6314,175,75
2026-05-07 18:34:30.597,4,-0.97,-1.73,0.79,-120.8622,58.7438,73.8814,175,75
2026-05-07 18:34:30.624,4,-1.64,-1.92,1.28,-159.3422,45.7538,153.8814,175,75
2026-05-07 18:34:30.635,4,-2.15,-2.1,1.47,-114.0322,-39.1162,13.211400000000001,175,75
2026-05-07 18:34:30.645,4,-2.32,-2.28,1.54,-91.84219999999999,4.8438,-119.4086,175,75
2026-05-07 18:34:30.654,4,-1.48,-2.24,1.63,-131.2322,83.5038,-174.3486,175,75
2026-05-07 18:34:30.687,4,-0.97,-1.58,1.62,-136.9022,-117.5362,-60.208600000000004,175,75
2026-05-07 18:34:30.710,4,-1.12,-1.58,1.44,-125.2522,-196.49620000000002,-19.2286,175,75
2026-05-07 18:34:30.720,4,-1.63,-1.67,1.03,-161.1122,-193.5062,-8.258600000000001,175,75
2026-05-07 18:34:30.745,4,-1.58,-1.6,0.88,-158.1822,-148.6962,-37.6486,175,75
2026-05-07 18:34:30.756,4,-1.33,-1.51,0.79,-133.7922,-111.7462,-86.9086,175,75
2026-05-07 18:34:30.770,4,-1.02,-1.36,0.78,-93.0622,-92.5962,-124.4086,175,75
2026-05-07 18:34:30.773,4,-0.86,-1.2,0.84,-63.182199999999995,-90.1562,-136.7286,175,75
2026-05-07 18:34:30.795,4,-0.77,-1.04,0.9,-45.1922,-96.7462,-143.6786,175,75
2026-05-07 18:34:30.795,4,-0.71,-0.89,0.9,-36.712199999999996,-109.66619999999999,-150.9386,175,75
2026-05-07 18:34:30.802,4,-0.67,-0.77,0.89,-30.4322,-122.2862,-155.8186,175,75
2026-05-07 18:34:30.815,4,-0.4,-0.53,0.94,-29.7622,-147.71620000000001,-122.8286,175,75
2026-05-07 18:34:30.831,4,-0.46,-0.31,0.91,-34.462199999999996,-162.2862,-72.5186,175,75
2026-05-07 18:34:30.838,4,-0.67,-0.22,0.83,-28.122200000000003,-158.99620000000002,-54.598600000000005,175,75
2026-05-07 18:34:30.848,4,-0.72,-0.26,0.77,-10.1922,-145.1562,-68.1286,175,75
2026-05-07 18:34:30.863,4,-0.66,-0.28,0.79,-0.07220000000000004,-141.61620000000002,-74.9586,175,75
2026-05-07 18:34:30.876,4,-0.6,-0.22,0.85,5.2978000000000005,-145.7662,-73.7386,175,75
2026-05-07 18:34:30.889,4,-0.62,-0.11,0.86,5.7878,-156.80620000000002,-70.6886,175,75
2026-05-07 18:34:30.901,4,-0.62,-0.02,0.87,7.3078,-163.9362,-75.5086,175,75
2026-05-07 18:34:30.923,4,-0.59,0.17,0.83,12.3078,-183.5062,-83.9886,175,75
2026-05-07 18:34:30.923,4,-0.6,0.26,0.81,11.937800000000001,-187.0462,-83.6786,175,75
2026-05-07 18:34:30.934,4,-0.63,0.33,0.77,10.4178,-183.6362,-83.7986,175,75
2026-05-07 18:34:30.949,4,-0.66,0.38,0.74,7.127800000000001,-172.83620000000002,-84.9586,175,75
2026-05-07 18:34:30.976,4,-0.7,0.46,0.72,1.3878,-153.3262,-84.8986,175,75
2026-05-07 18:34:30.988,4,-0.73,0.54,0.74,-4.2122,-135.21620000000001,-83.5586,175,75
2026-05-07 18:34:30.998,4,-0.77,0.65,0.79,-12.8722,-113.50619999999999,-82.0386,175,75
2026-05-07 18:34:30.998,4,-0.81,0.78,0.89,-18.302200000000003,-90.6462,-84.2286,175,75
2026-05-07 18:34:31.019,4,-0.85,0.85,0.94,-17.0822,-88.38619999999999,-86.2386,175,75
2026-05-07 18:34:31.041,4,-0.94,0.96,1.05,-11.5922,-100.0362,-94.2286,175,75
2026-05-07 18:34:31.077,4,-1.07,0.9,1.12,-0.31220000000000003,-158.8762,-110.4486,175,75
2026-05-07 18:34:31.087,4,-1.21,0.83,1.12,9.437800000000001,-202.3562,-120.5086,175,75
2026-05-07 18:34:31.087,4,-1.32,0.8,1.13,15.1778,-236.3162,-128.8686,175,75
2026-05-07 18:34:31.096,4,-1.42,0.76,1.12,18.9578,-270.27619999999996,-139.0486,175,75
2026-05-07 18:34:31.135,4,-1.65,0.58,0.82,38.897800000000004,-346.9262,-140.5086,175,75
2026-05-07 18:34:31.150,4,-1.7,0.47,0.75,42.7978,-354.6062,-130.6286,175,75
2026-05-07 18:34:31.182,4,-1.78,0.02,0.67,65.1078,-327.1062,-100.0786,175,75
2026-05-07 18:34:31.194,4,-1.63,-0.23,0.64,85.1778,-324.9762,-78.0086,175,75
2026-05-07 18:34:31.194,4,-1.46,-0.55,0.59,108.2178,-341.8662,-50.7586,175,75
2026-05-07 18:34:31.209,4,-1.27,-0.89,0.53,123.6478,-368.6962,-25.818600000000004,175,75
2026-05-07 18:34:31.232,4,-1.03,-1.31,0.46,131.5178,-413.5662,23.761400000000002,175,75
2026-05-07 18:34:31.244,4,-0.91,-1.75,0.37,128.8878,-445.39619999999996,106.2614,175,75
2026-05-07 18:34:31.254,4,-0.97,-2.14,0.28,114.0778,-453.08619999999996,205.8314,175,75
2026-05-07 18:34:31.254,4,-1.24,-2.46,0.21,94.0778,-435.58619999999996,237.1714,175,75
2026-05-07 18:34:31.280,4,-2.63,-2.83,0.12,110.4778,-360.58619999999996,-99.1686,175,75
2026-05-07 18:34:31.303,4,-1.79,-2.26,0.02,61.9378,-142.5362,-193.1886,175,75
2026-05-07 18:34:31.316,4,-0.31,-1.34,0.2,76.1478,-158.2662,-197.7686,175,75
2026-05-07 18:34:31.331,4,-0.22,-1.25,0.27,140.4778,-154.9762,-140.3286,175,75
2026-05-07 18:34:31.341,4,0.26,-1.44,0.37,193.7078,-143.6362,-76.1186,175,75
2026-05-07 18:34:31.341,4,0.46,-1.82,0.56,212.9778,-176.3762,16.8114,175,75
2026-05-07 18:34:31.355,4,-0.05,-1.96,0.78,191.8178,-174.11620000000002,97.0514,175,75
2026-05-07 18:34:31.366,4,-0.58,-1.94,0.99,137.4278,-109.30619999999999,154.6714,175,75
2026-05-07 18:34:31.366,4,-0.76,-1.9,1.15,83.0978,-69.0562,139.5514,175,75
2026-05-07 18:34:31.391,4,-0.77,-2.11,1.31,94.8078,-146.86620000000002,35.8314,175,75
2026-05-07 18:34:31.391,4,-1.01,-2.36,1.33,171.8778,-281.7462,-81.9786,175,75
2026-05-07 18:34:31.413,4,-0.92,-2.23,1.08,202.5478,-305.15619999999996,-134.7786,175,75
2026-05-07 18:34:31.421,4,-0.59,-1.96,0.83,165.5978,-315.33619999999996,-137.0986,175,75
2026-05-07 18:34:31.436,4,-0.61,-1.7,0.55,153.8278,-311.8662,-119.77860000000001,175,75
2026-05-07 18:34:31.453,4,-0.63,-1.54,0.31,179.4978,-284.4862,-103.6786,175,75
2026-05-07 18:34:31.453,4,-0.57,-1.45,0.16,216.6378,-265.52619999999996,-109.4086,175,75
2026-05-07 18:34:31.483,4,-0.67,-1.07,0.37,242.6778,-161.61620000000002,-210.9986,175,75
2026-05-07 18:34:31.496,4,-0.71,-0.86,0.48,229.6878,-166.86620000000002,-247.51860000000002,175,75
2026-05-07 18:34:31.508,4,-0.31,0.25,0.79,115.2978,-271.5562,-80.8186,175,75
2026-05-07 18:34:31.530,4,-1.02,0.53,0.41,106.3978,-315.09619999999995,-121.17859999999999,175,75
2026-05-07 18:34:31.542,4,-0.55,0.77,0.26,104.8078,-346.0662,-172.8286,175,75
2026-05-07 18:34:31.552,4,-0.72,0.96,0.05,76.9978,-335.52619999999996,-144.9586,175,75
2026-05-07 18:34:31.559,4,-1.25,0.93,-0.17,49.1378,-251.0662,-151.4286,175,75
2026-05-07 18:34:31.570,4,-1.47,0.92,-0.24,19.197799999999997,-49.9162,-132.9486,175,75
2026-05-07 18:34:31.583,4,-1.47,0.96,-0.11,12.187800000000001,94.8438,-94.5386,175,75
2026-05-07 18:34:31.583,4,-1.25,0.95,0.23,13.7078,212.10379999999998,-63.6786,175,75
2026-05-07 18:34:31.597,4,-0.8,0.85,0.69,0.5378000000000001,248.8638,-47.6486,175,75
2026-05-07 18:34:31.621,4,-0.48,0.67,0.99,-13.7322,164.1738,-66.9086,175,75
2026-05-07 18:34:31.650,4,-0.49,0.18,0.89,-9.892199999999999,-39.7862,-109.6586,175,75
2026-05-07 18:34:31.650,4,-0.32,0.06,0.64,-18.5422,-63.446200000000005,-121.7286,175,75
2026-05-07 18:34:31.661,4,-0.25,-0.03,0.36,-26.592200000000002,-62.2262,-130.5086,175,75
2026-05-07 18:34:31.672,4,-0.5,-0.1,0.1,-31.1722,-2.9562,-116.2986,175,75
2026-05-07 18:34:31.693,4,-0.37,-0.33,0.33,-45.682199999999995,219.78379999999999,-56.6686,175,75
2026-05-07 18:34:31.711,4,-0.43,-0.43,0.72,-63.9722,263.7438,-32.1586,175,75
2026-05-07 18:34:31.713,4,0.1,-0.65,0.93,-78.48219999999999,277.8938,-35.0186,175,75
2026-05-07 18:34:31.729,4,0.02,-0.62,1.27,-93.7922,229.1738,-32.0986,175,75
2026-05-07 18:34:31.741,4,0.31,-0.69,1.36,-89.8222,153.9938,-45.1486,175,75
2026-05-07 18:34:31.751,4,-1.56,-0.57,1.02,-91.9022,-147.1662,-0.9985999999999997,175,75
2026-05-07 18:34:31.768,4,0.55,-0.86,0.5,0.4178,251.3638,-89.4786,175,75
2026-05-07 18:34:31.773,4,2.67,-0.8,1.8,-105.8622,194.72379999999998,70.5914,175,75
2026-05-07 18:34:31.786,4,-0.39,-1.13,2.31,-95.98219999999999,-220.7062,-145.3286,175,75
2026-05-07 18:34:31.802,4,0.85,-0.4,1.89,-134.4022,-143.6962,-119.0486,175,75
2026-05-07 18:34:31.817,4,-0.03,-0.0,1.01,-160.6222,-262.4762,-153.0086,175,75
2026-05-07 18:34:31.840,4,0.05,-0.18,0.26,-116.1722,-16.8662,-64.9586,175,75
2026-05-07 18:34:31.850,4,-0.38,-0.18,0.55,-124.34219999999999,115.1438,-53.79859999999999,175,75
2026-05-07 18:34:31.857,4,-0.02,-0.06,1.0,-150.4322,229.5438,-42.0986,175,75
2026-05-07 18:34:31.869,4,0.28,0.2,1.43,-159.8922,215.75379999999998,-61.6686,175,75
2026-05-07 18:34:31.880,4,0.34,0.29,1.71,-141.2322,162.3438,-85.2686,175,75
2026-05-07 18:34:31.893,4,0.29,0.31,1.8,-120.8022,74.72380000000001,-118.1286,175,75
2026-05-07 18:34:31.904,4,-0.07,0.37,1.77,-108.5422,-4.426200000000001,-147.0386,175,75
2026-05-07 18:34:31.915,4,-0.35,0.32,1.53,-106.2922,-43.2062,-158.7986,175,75
2026-05-07 18:34:31.952,4,-0.5,-0.83,0.77,-116.84219999999999,62.7738,-94.2886,175,75
2026-05-07 18:34:31.970,4,-0.37,-1.13,1.19,-106.9022,167.0438,-65.0186,175,75
2026-05-07 18:34:31.988,4,-0.23,-0.93,1.66,-111.0422,130.75379999999998,-99.0486,175,75
2026-05-07 18:34:32.004,4,0.04,-0.65,1.93,-128.0622,9.353800000000001,-134.7186,175,75
2026-05-07 18:34:32.029,4,-0.0,-0.37,1.23,-114.76219999999999,-241.74620000000002,-101.9786,175,75
2026-05-07 18:34:32.040,4,-0.07,-0.5,0.96,-108.2422,-209.4862,-83.4386,175,75
2026-05-07 18:34:32.051,4,-0.12,-0.57,0.68,-104.76219999999999,-104.4862,-66.2386,175,75
2026-05-07 18:34:32.065,4,-0.08,-0.52,0.63,-106.0422,0.1438000000000006,-58.3186,175,75
2026-05-07 18:34:32.084,4,-0.08,-0.41,0.73,-104.8222,83.6838,-52.15860000000001,175,75
2026-05-07 18:34:32.106,4,-0.22,-0.27,1.16,-104.4622,155.88379999999998,-50.7586,175,75
2026-05-07 18:34:32.116,4,-0.29,-0.18,1.34,-108.8522,155.75379999999998,-61.238600000000005,175,75
2026-05-07 18:34:32.127,4,-0.32,-0.06,1.52,-112.3222,138.6238,-72.0386,175,75
2026-05-07 18:34:32.140,4,-0.32,0.07,1.63,-113.5422,98.9338,-80.4486,175,75
2026-05-07 18:34:32.150,4,-0.38,0.17,1.68,-113.4222,51.1838,-87.7686,175,75
2026-05-07 18:34:32.161,4,-0.44,0.23,1.66,-111.3522,11.1838,-95.0186,175,75
2026-05-07 18:34:32.161,4,-0.49,0.25,1.61,-108.6722,-26.0062,-99.8986,175,75
2026-05-07 18:34:32.190,4,-0.73,0.17,1.48,-103.0622,-64.9162,-89.7186,175,75
2026-05-07 18:34:32.190,4,-0.8,0.1,1.43,-98.9122,-54.3662,-82.7086,175,75
2026-05-07 18:34:32.211,4,-0.88,-0.0,1.38,-93.3622,-43.5662,-75.8786,175,75
2026-05-07 18:34:32.211,4,-0.91,-0.09,1.35,-88.1822,-38.3262,-70.5686,175,75
2026-05-07 18:34:32.223,4,-0.93,-0.21,1.31,-80.3122,-35.1562,-64.9586,175,75
2026-05-07 18:34:32.245,4,-0.85,-0.4,1.2,-62.142199999999995,-40.8262,-61.7886,175,75
2026-05-07 18:34:32.259,4,-0.84,-0.43,1.14,-51.532199999999996,-60.586200000000005,-60.8186,175,75
2026-05-07 18:34:32.271,4,-0.83,-0.46,1.08,-42.142199999999995,-86.9862,-48.498599999999996,175,75
2026-05-07 18:34:32.293,4,-0.76,-0.27,0.97,-50.0122,-123.02619999999999,-12.458599999999997,175,75
2026-05-07 18:34:32.303,4,-0.73,-0.14,0.91,-52.572199999999995,-132.1662,15.5914,175,75
2026-05-07 18:34:32.314,4,-0.79,-0.06,0.9,-36.4122,-119.4862,58.4514,175,75
2026-05-07 18:34:32.324,4,-0.76,-0.12,0.97,-6.5922,-110.94619999999999,94.6114,175,75
2026-05-07 18:34:32.347,4,-0.74,-0.28,1.12,29.8678,-160.7062,131.9314,175,75
2026-05-07 18:34:32.364,4,-0.73,-0.36,1.1,48.5878,-200.52620000000002,147.5414,175,75
2026-05-07 18:34:32.374,4,-0.73,-0.45,1.03,79.5678,-241.3162,165.5914,175,75
2026-05-07 18:34:32.388,4,-0.75,-0.51,0.96,113.8278,-265.8262,177.1714,175,75
2026-05-07 18:34:32.393,4,-0.8,-0.56,0.93,145.6578,-274.3662,187.4214,175,75
2026-05-07 18:34:32.407,4,-0.88,-0.59,0.93,169.0178,-266.7462,200.8914,175,75
2026-05-07 18:34:32.420,4,-0.98,-0.57,0.94,189.6278,-240.8862,216.3814,175,75
2026-05-07 18:34:32.432,4,-0.92,-0.59,0.97,213.5278,-191.49620000000002,230.4014,175,75
2026-05-07 18:34:32.432,4,-0.66,-0.59,0.9,226.5778,-152.2862,240.9514,175,75
2026-05-07 18:34:32.445,4,-0.43,-0.52,0.8,228.58780000000002,-112.1062,255.4014,175,75
2026-05-07 18:34:32.455,4,-0.28,-0.42,0.76,224.1378,-49.7862,270.83140000000003,175,75
2026-05-07 18:34:32.464,4,-0.2,-0.33,0.8,219.1378,32.6438,282.2314,175,75
2026-05-07 18:34:32.477,4,-0.14,-0.22,0.95,211.3278,150.4538,297.90139999999997,175,75
2026-05-07 18:34:32.499,4,-0.18,-0.26,1.29,203.58780000000002,277.04380000000003,314.2414,175,75
2026-05-07 18:34:32.509,4,-0.28,-0.43,1.96,193.4078,432.40380000000005,341.3814,175,75
2026-05-07 18:34:32.542,4,-0.31,-1.56,2.73,161.9978,240.2738,395.77139999999997,175,75
2026-05-07 18:34:32.542,4,-0.56,-2.09,2.49,219.80780000000001,206.7938,395.16139999999996,175,75
2026-05-07 18:34:32.553,4,-0.45,-2.75,2.45,251.6978,264.0538,426.7414,175,75
2026-05-07 18:34:32.566,4,-0.14,-3.35,2.81,219.6878,327.5238,452.05139999999994,175,75
2026-05-07 18:34:32.580,4,-0.01,-3.51,3.52,187.8578,290.8838,400.53139999999996,175,75
2026-05-07 18:34:32.593,4,-0.16,-3.46,4.5,208.1578,121.4338,211.9314,175,75
2026-05-07 18:34:32.603,4,-0.23,-3.44,4.68,239.1978,21.6738,35.4014,175,75
2026-05-07 18:34:32.603,4,0.59,-3.38,4.54,233.2878,-63.7562,-107.5786,175,75
2026-05-07 18:34:32.624,4,1.76,-2.42,4.22,129.6278,-255.7062,-15.078600000000002,175,75
2026-05-07 18:34:32.628,4,1.0,-2.51,2.99,106.3978,-263.5062,-0.6285999999999987,175,75
2026-05-07 18:34:32.639,4,0.95,-3.26,2.48,97.7978,-298.9962,-83.7986,175,75
2026-05-07 18:34:32.650,4,0.79,-3.34,2.11,82.6078,-330.45619999999997,-124.89859999999999,175,75
2026-05-07 18:34:32.662,4,0.38,-3.01,1.76,73.15780000000001,-342.4162,-197.5186,175,75
2026-05-07 18:34:32.675,4,0.16,-2.91,1.61,72.9178,-349.3062,-274.34860000000003,175,75
2026-05-07 18:34:32.686,4,-0.08,-2.84,1.41,66.2078,-353.02619999999996,-376.42859999999996,175,75
2026-05-07 18:34:32.701,4,-0.18,-2.69,1.32,51.5778,-331.9862,-431.4886,175,75
2026-05-07 18:34:32.720,4,-0.31,-2.39,1.26,33.9578,-303.7562,-478.9886,175,75
2026-05-07 18:34:32.725,4,-0.48,-1.97,1.21,21.6378,-254.9762,-521.1786000000001,175,75
2026-05-07 18:34:32.739,4,-0.56,-1.6,1.08,22.7978,-205.52620000000002,-554.8386,175,75
2026-05-07 18:34:32.749,4,-0.58,-1.25,0.91,40.717800000000004,-155.0962,-574.2286,175,75
2026-05-07 18:34:32.771,4,-0.19,-0.46,0.87,105.65780000000001,-106.86619999999999,-471.29859999999996,175,75
2026-05-07 18:34:32.780,4,-0.91,-0.14,0.81,84.9278,-87.6562,-341.54859999999996,175,75
2026-05-07 18:34:32.795,4,-1.7,-0.19,0.63,85.8478,43.2538,-306.54859999999996,175,75
2026-05-07 18:34:32.830,4,-1.51,-0.34,0.86,102.7978,164.2938,-269.5386,175,75
2026-05-07 18:34:32.837,4,-1.3,-0.4,1.12,119.9278,167.3438,-223.2586,175,75
2026-05-07 18:34:32.873,4,-1.95,-0.7,0.81,166.9378,-243.5062,-293.55859999999996,175,75
2026-05-07 18:34:32.888,4,-2.21,-0.55,0.49,118.15780000000001,-151.0062,-293.4986,175,75
2026-05-07 18:34:32.897,4,-1.87,-0.34,0.5,88.2878,-61.986200000000004,-297.0386,175,75
2026-05-07 18:34:32.910,4,-1.37,-0.07,0.67,67.6778,-30.1562,-242.0986,175,75
2026-05-07 18:34:32.920,4,-1.42,0.12,0.62,58.287800000000004,-3.3262,-178.0086,175,75
2026-05-07 18:34:32.931,4,-1.63,-0.01,0.46,81.0278,41.303799999999995,-179.7786,175,75
2026-05-07 18:34:32.942,4,-1.56,-0.15,0.46,96.3278,68.6838,-183.2586,175,75
2026-05-07 18:34:32.954,4,-1.69,-0.15,0.58,87.5478,111.7938,-154.9586,175,75
2026-05-07 18:34:32.964,4,-1.6,0.03,0.74,64.3778,154.1738,-133.4986,175,75
2026-05-07 18:34:32.976,4,-1.37,0.14,0.81,61.0278,148.8038,-117.21860000000001,175,75
2026-05-07 18:34:32.990,4,-1.22,0.2,0.83,63.217800000000004,102.9538,-97.4586,175,75
2026-05-07 18:34:33.001,4,-1.42,0.16,0.91,62.4878,52.8938,-87.7086,175,75
2026-05-07 18:34:33.015,4,-1.5,0.04,0.76,49.6878,-29.2462,-91.3686,175,75
2026-05-07 18:34:33.015,4,-1.1,-0.14,0.46,44.8678,-81.3162,-123.49860000000001,175,75
2026-05-07 18:34:33.027,4,-4.81,0.83,1.24,8.4678,-279.6662,-22.098599999999998,175,75
2026-05-07 18:34:33.037,4,-1.81,1.47,-0.21,9.437800000000001,357.8338,-54.718599999999995,175,75
2026-05-07 18:34:33.047,4,2.09,0.97,0.7,-2.5721999999999996,586.9738,157.5414,175,75
2026-05-07 18:34:33.080,4,-1.66,1.2,3.12,-25.622200000000003,-382.77619999999996,-65.5686,175,75
2026-05-07 18:34:33.087,4,-1.45,1.59,1.48,-167.9322,-311.3762,-128.9886,175,75
2026-05-07 18:34:33.099,4,0.03,1.95,0.63,-104.4622,-261.5562,-65.6886,175,75
2026-05-07 18:34:33.131,4,-0.92,1.91,0.88,14.0778,487.5838,114.4914,175,75
2026-05-07 18:34:33.145,4,0.08,1.64,1.67,-24.7022,608.6238000000001,171.5614,175,75
2026-05-07 18:34:33.155,4,0.52,1.34,2.35,-16.4722,554.4138,185.3414,175,75
2026-05-07 18:34:33.177,4,0.71,0.74,3.61,38.4078,68.5038,53.0914,175,75
2026-05-07 18:34:33.189,4,0.37,1.13,2.84,9.9278,-38.3862,19.851399999999998,175,75
2026-05-07 18:34:33.216,4,0.47,1.18,1.77,54.4378,-97.16619999999999,8.8814,175,75
2026-05-07 18:34:33.226,4,0.37,1.29,1.6,41.2678,-41.1962,12.5414,175,75
2026-05-07 18:34:33.240,4,0.26,1.41,1.59,37.607800000000005,0.5738000000000003,23.4514,175,75
2026-05-07 18:34:33.254,4,0.24,1.37,1.79,37.3678,52.8938,49.3714,175,75
2026-05-07 18:34:33.265,4,0.56,1.17,2.05,27.1878,59.6038,54.8514,175,75
2026-05-07 18:34:33.276,4,0.66,1.11,2.18,22.677799999999998,27.4638,42.1714,175,75
2026-05-07 18:34:33.287,4,0.67,1.23,2.24,20.717799999999997,-33.3862,18.5714,175,75
2026-05-07 18:34:33.299,4,0.07,2.15,2.21,14.437800000000001,-117.47619999999999,6.131399999999999,175,75
2026-05-07 18:34:33.312,4,0.13,2.71,1.92,1.3878,-246.4362,-12.278599999999997,175,75
2026-05-07 18:34:33.326,4,0.22,2.19,1.64,-21.3522,-243.14620000000002,15.5314,175,75
2026-05-07 18:34:33.340,4,0.5,1.05,1.02,4.9278,-43.9362,57.3514,175,75
2026-05-07 18:34:33.340,4,1.03,0.62,1.07,16.3278,130.69379999999998,62.4214,175,75
2026-05-07 18:34:33.358,4,0.75,0.79,1.36,-7.2021999999999995,226.1238,65.28139999999999,175,75
2026-05-07 18:34:33.373,4,0.21,1.16,1.65,-14.0322,281.73380000000003,77.29140000000001,175,75
2026-05-07 18:34:33.373,4,-0.12,1.33,2.05,-8.972199999999999,281.85380000000004,92.2314,175,75
2026-05-07 18:34:33.413,4,-0.06,0.52,2.49,-19.282200000000003,-124.91619999999999,-0.938600000000001,175,75
2026-05-07 18:34:33.426,4,-0.19,0.6,2.29,-12.7522,-263.7562,-33.1286,175,75
2026-05-07 18:34:33.451,4,-0.5,1.09,1.88,-17.872200000000003,-275.09619999999995,-15.148600000000002,175,75
2026-05-07 18:34:33.462,4,-0.47,1.26,1.59,-18.912200000000002,-196.55620000000002,13.151399999999999,175,75
2026-05-07 18:34:33.472,4,-0.49,1.35,1.35,-8.1822,-43.266200000000005,58.0314,175,75
2026-05-07 18:34:33.483,4,-0.58,1.17,1.29,6.5178,93.38380000000001,98.3314,175,75
2026-05-07 18:34:33.483,4,-0.77,0.93,1.5,17.857799999999997,218.8638,135.8314,175,75
2026-05-07 18:34:33.503,4,-0.93,0.77,1.91,10.107800000000001,311.73380000000003,170.8314,175,75
2026-05-07 18:34:33.514,4,-0.99,0.6,2.38,-14.2122,336.1838,196.7414,175,75
2026-05-07 18:34:33.525,4,-0.65,0.31,2.86,-5.3122,165.69379999999998,159.4914,175,75
2026-05-07 18:34:33.537,4,-0.86,0.12,2.92,21.8178,-105.6462,100.5214,175,75
2026-05-07 18:34:33.537,4,-0.99,0.09,2.32,12.5478,-170.4562,96.5614,175,75
2026-05-07 18:34:33.550,4,-0.92,0.05,1.79,0.4178,-180.4562,89.9214,175,75
2026-05-07 18:34:33.567,4,-1.0,-0.03,1.54,-6.2322,-163.8162,97.5414,175,75
2026-05-07 18:34:33.587,4,-1.02,-0.13,1.56,-40.6222,-24.6062,152.1114,175,75
2026-05-07 18:34:33.600,4,-0.86,-0.31,1.67,-49.462199999999996,4.1137999999999995,166.0114,175,75
2026-05-07 18:34:33.611,4,-0.76,-0.57,1.87,-46.712199999999996,21.613799999999998,171.3814,175,75
2026-05-07 18:34:33.622,4,-0.61,-0.88,2.12,-36.782199999999996,6.973799999999999,175.9514,175,75
2026-05-07 18:34:33.632,4,-0.69,-1.01,2.04,-30.802200000000003,-10.8262,187.1714,175,75
2026-05-07 18:34:33.654,4,-0.75,-1.31,1.61,-21.532200000000003,-65.3962,202.1714,175,75
2026-05-07 18:34:33.666,4,-0.57,-1.52,1.5,-11.4122,-110.0962,221.8714,175,75
2026-05-07 18:34:33.677,4,-0.55,-1.61,1.36,-0.3722000000000001,-163.2062,236.9314,175,75
2026-05-07 18:34:33.687,4,-0.51,-1.61,1.21,13.7678,-175.8862,264.6714,175,75
2026-05-07 18:34:33.700,4,-0.12,-1.69,1.22,35.4178,-101.80619999999999,294.4914,175,75
2026-05-07 18:34:33.717,4,0.41,-1.43,1.24,89.01780000000001,12.6438,329.18140000000005,175,75
2026-05-07 18:34:33.730,4,0.19,-1.45,1.19,127.1878,24.663799999999995,354.8514,175,75
2026-05-07 18:34:33.739,4,-0.04,-1.73,1.41,164.9878,-10.036200000000001,368.8814,175,75
2026-05-07 18:34:33.759,4,-0.05,-2.31,2.15,205.9078,-267.3562,378.70140000000004,175,75
2026-05-07 18:34:33.773,4,0.21,-2.45,2.07,232.3678,-320.76619999999997,359.1214,175,75
2026-05-07 18:34:33.791,4,0.71,-2.37,1.83,248.0978,-270.9462,354.2414,175,75
2026-05-07 18:34:33.791,4,1.04,-2.29,1.35,280.7178,-192.5362,343.70140000000004,175,75
2026-05-07 18:34:33.812,4,0.78,-2.39,1.05,344.7478,-145.39620000000002,365.04139999999995,175,75
2026-05-07 18:34:33.823,4,0.42,-2.78,1.22,367.9178,-131.0062,361.81140000000005,175,75
2026-05-07 18:34:33.830,4,0.29,-3.0,1.74,367.5478,-122.16619999999999,334.1214,175,75
2026-05-07 18:34:33.851,4,0.74,-2.58,2.39,368.3478,-314.7262,306.7414,175,75
2026-05-07 18:34:33.869,4,0.64,-2.82,1.95,377.1878,-363.02619999999996,275.77139999999997,175,75
2026-05-07 18:34:33.869,4,0.68,-2.96,1.5,392.3078,-368.6362,256.7414,175,75
2026-05-07 18:34:33.882,4,0.74,-2.79,1.15,415.9678,-350.9462,237.2314,175,75
2026-05-07 18:34:33.905,4,0.75,-2.61,1.01,429.7478,-312.89619999999996,215.7714,175,75
2026-05-07 18:34:33.920,4,0.36,-2.31,1.03,393.8978,-239.4862,151.1314,175,75
2026-05-07 18:34:33.941,4,0.14,-2.08,0.98,332.0678,-171.3162,48.4514,175,75
2026-05-07 18:34:33.941,4,0.21,-1.95,0.85,304.0178,-181.0662,-15.568600000000004,175,75
2026-05-07 18:34:33.953,4,0.28,-1.61,0.71,269.0178,-236.3162,-84.5986,175,75
2026-05-07 18:34:33.969,4,0.32,-1.17,0.76,238.8878,-286.3762,-70.2686,175,75
2026-05-07 18:34:33.980,4,-0.16,-0.93,0.64,216.2678,-294.3062,-49.2286,175,75
2026-05-07 18:34:33.995,4,-0.54,-0.89,0.47,201.8778,-240.58620000000002,-67.6486,175,75
2026-05-07 18:34:34.021,4,-0.62,-0.61,0.29,162.2478,-143.8162,-69.3486,175,75
2026-05-07 18:34:34.032,4,-0.66,-0.45,0.28,160.3578,-133.3862,-68.4386,175,75
2026-05-07 18:34:34.044,4,-0.74,-0.3,0.28,162.0678,-117.3562,-64.3486,175,75
2026-05-07 18:34:34.062,4,-0.84,-0.16,0.29,162.4278,-96.00619999999999,-60.078599999999994,175,75
2026-05-07 18:34:34.072,4,-0.88,-0.06,0.27,156.6978,-86.55619999999999,-59.65860000000001,175,75
2026-05-07 18:34:34.083,4,-0.97,0.07,0.22,147.4278,-88.2062,-59.1686,175,75
2026-05-07 18:34:34.084,4,-1.14,0.26,0.16,137.6778,-85.7062,-58.6186,175,75
2026-05-07 18:34:34.095,4,-1.29,0.41,0.11,129.8678,-68.0862,-52.098600000000005,175,75
2026-05-07 18:34:34.110,4,-1.37,0.54,0.08,124.7478,-42.2262,-44.8386,175,75
2026-05-07 18:34:34.117,4,-1.42,0.58,0.1,128.46779999999998,-23.206200000000003,-33.3786,175,75
2026-05-07 18:34:34.130,4,-1.46,0.51,0.17,133.9578,-21.1962,-20.208599999999997,175,75
2026-05-07 18:34:34.140,4,-1.46,0.37,0.24,135.2978,-35.7062,-12.278599999999997,175,75
2026-05-07 18:34:34.183,4,-1.6,0.41,0.23,60.9078,-87.7162,4.981400000000001,175,75
2026-05-07 18:34:34.195,4,-1.57,0.42,0.2,47.9778,-71.1362,16.0714,175,75
2026-05-07 18:34:34.206,4,-1.5,0.37,0.16,25.717799999999997,-53.876200000000004,27.4814,175,75
2026-05-07 18:34:34.206,4,-1.56,0.32,0.15,11.0878,-38.0862,37.6014,175,75
2026-05-07 18:34:34.235,4,-1.7,0.3,0.22,4.1378,3.1937999999999995,59.5514,175,75
2026-05-07 18:34:34.246,4,-1.81,0.3,0.31,-7.082199999999999,-3.1462000000000003,79.00139999999999,175,75
2026-05-07 18:34:34.289,4,-2.18,0.09,-0.72,-73.9122,429.35380000000004,102.9014,175,75
2026-05-07 18:34:34.351,4,-0.67,-0.01,-0.64,-214.9522,-539.7262,39.0614,175,75
2026-05-07 18:34:34.362,4,-0.49,-0.17,-1.45,-189.1522,-465.8862,112.7814,175,75
2026-05-07 18:34:34.365,4,-1.0,-0.58,-1.96,-138.7322,-138.6962,219.9214,175,75
2026-05-07 18:34:34.376,4,-0.27,-1.1,-1.62,-110.62219999999999,275.6938,278.33140000000003,175,75
2026-05-07 18:34:34.390,4,0.68,-1.32,-0.69,-143.5422,366.1238,249.8514,175,75
2026-05-07 18:34:34.433,4,2.61,-1.71,0.93,-159.2822,38.7438,137.78140000000002,175,75
2026-05-07 18:34:34.451,4,4.0,-1.16,1.29,-224.2822,-102.9562,106.3214,175,75
2026-05-07 18:34:34.468,4,3.37,-0.54,0.5,-306.0422,-206.67620000000002,86.5014,175,75
2026-05-07 18:34:34.477,4,3.3,-1.1,-0.5,-265.6822,-99.05619999999999,57.3514,175,75
2026-05-07 18:34:34.510,4,3.1,-1.87,-0.04,-286.4722,118.19380000000001,41.011399999999995,175,75
