Time,ID,Ax,Ay,Az,Gx,Gy,Gz,Height,Weight
2026-05-09 16:11:49.818,4,-0.59,-0.14,1.3,-3.4754000000000005,-25.214000000000002,3.994,175,75
2026-05-09 16:11:49.829,4,-0.58,-0.13,1.26,-5.2954,-22.954,4.484,175,75
2026-05-09 16:11:49.841,4,-0.57,-0.14,1.24,-6.7654,-18.994,4.914000000000001,175,75
2026-05-09 16:11:49.853,4,-0.56,-0.15,1.22,-8.4054,-15.334000000000001,4.604,175,75
2026-05-09 16:11:49.863,4,-0.53,-0.19,1.19,-14.2654,-8.144000000000002,2.044,175,75
2026-05-09 16:11:49.876,4,-0.53,-0.19,1.18,-17.0654,-3.814,0.764,175,75
2026-05-09 16:11:49.888,4,-0.54,-0.17,1.19,-17.7354,1.5559999999999974,-0.02599999999999999,175,75
2026-05-09 16:11:49.899,4,-0.55,-0.1,1.25,-14.2654,9.965999999999998,1.8639999999999999,175,75
2026-05-09 16:11:49.916,4,-0.54,-0.02,1.3,-7.1854000000000005,11.796,6.314,175,75
2026-05-09 16:11:49.916,4,-0.51,0.02,1.33,-1.8854000000000006,4.905999999999999,11.734,175,75
2026-05-09 16:11:49.938,4,-0.51,0.02,1.32,1.714599999999999,-3.684000000000001,16.924,175,75
2026-05-09 16:11:49.948,4,-0.51,0.13,1.31,5.794599999999999,12.715999999999998,26.804,175,75
2026-05-09 16:11:49.959,4,-0.53,0.25,1.36,8.6046,30.096,33.873999999999995,175,75
2026-05-09 16:11:49.973,4,-0.55,0.41,1.41,10.4946,52.226,42.044,175,75
2026-05-09 16:11:49.990,4,-0.64,0.6,1.49,14.274600000000001,79.726,58.994,175,75
2026-05-09 16:11:50.002,4,-0.75,0.65,1.55,21.284599999999998,104.116,76.314,175,75
2026-05-09 16:11:50.013,4,-0.81,0.53,1.56,27.934600000000003,121.066,87.774,175,75
2026-05-09 16:11:50.047,4,-1.11,-0.68,1.38,65.3746,151.736,84.114,175,75
2026-05-09 16:11:50.069,4,-1.31,-1.35,1.41,81.8346,68.146,48.873999999999995,175,75
2026-05-09 16:11:50.095,4,-1.5,-1.54,1.44,85.3746,-7.104000000000001,18.084,175,75
2026-05-09 16:11:50.107,4,-1.38,-1.37,1.3,13.234599999999999,-75.214,-32.526,175,75
2026-05-09 16:11:50.122,4,-1.15,-1.03,1.16,-9.0154,-67.224,-27.406000000000002,175,75
2026-05-09 16:11:50.130,4,-0.93,-0.8,1.13,-1.8854000000000006,-27.834000000000003,2.894,175,75
2026-05-09 16:11:50.146,4,-0.75,-0.76,1.2,-1.5154000000000005,4.425999999999998,16.134,175,75
2026-05-09 16:11:50.182,4,-0.3,-0.41,1.3,-29.565399999999997,-36.314,-17.046000000000003,175,75
2026-05-09 16:11:50.195,4,-0.33,-0.25,1.3,-30.2354,-47.284000000000006,-23.566000000000003,175,75
2026-05-09 16:11:50.195,4,-0.38,-0.06,1.28,-28.895400000000002,-54.233999999999995,-29.606,175,75
2026-05-09 16:11:50.215,4,-0.38,0.16,1.24,-24.075400000000002,-56.004000000000005,-31.856,175,75
2026-05-09 16:11:50.226,4,-0.29,0.39,1.17,-14.3254,-49.054,-25.636000000000003,175,75
2026-05-09 16:11:50.244,4,-0.22,0.55,1.12,-6.885400000000001,-35.154,-16.616,175,75
2026-05-09 16:11:50.268,4,0.04,0.82,1.21,17.3846,71.556,13.084,175,75
2026-05-09 16:11:50.289,4,0.08,0.89,1.36,17.0146,89.35600000000001,15.884,175,75
2026-05-09 16:11:50.341,4,0.16,1.36,1.6,-10.2954,81.186,5.094,175,75
2026-05-09 16:11:50.400,4,-0.02,0.6,1.5,39.4546,74.176,-39.236000000000004,175,75
2026-05-09 16:11:50.427,4,-0.3,0.41,1.51,51.5946,-21.734,-73.446,175,75
2026-05-09 16:11:50.441,4,-0.41,0.22,1.47,55.9846,-68.264,-87.106,175,75
2026-05-09 16:11:50.441,4,-0.54,-0.07,1.39,61.104600000000005,-119.114,-99.546,175,75
2026-05-09 16:11:50.454,4,-0.79,-0.49,1.32,65.1846,-193.564,-106.126,175,75
2026-05-09 16:11:50.495,4,-1.4,-2.27,0.57,69.3346,-256.254,-74.96600000000001,175,75
2026-05-09 16:11:50.508,4,-1.35,-2.85,0.29,76.8346,-184.60399999999998,-69.236,175,75
2026-05-09 16:11:50.508,4,-1.24,-3.11,0.23,62.9346,-103.014,-80.82600000000001,175,75
2026-05-09 16:11:50.576,4,-1.23,-0.52,1.64,-80.4254,83.74600000000001,-37.226,175,75
2026-05-09 16:11:50.589,4,-1.11,-0.69,1.89,-40.9054,44.116,-18.446,175,75
2026-05-09 16:11:50.589,4,-1.01,-0.97,1.97,-24.7554,0.7659999999999982,-7.585999999999999,175,75
2026-05-09 16:11:50.620,4,-0.7,-0.67,1.64,-36.5754,-145.214,-42.046,175,75
2026-05-09 16:11:50.643,4,-0.68,-0.35,1.52,-17.4354,-140.88400000000001,-34.116,175,75
2026-05-09 16:11:50.654,4,-0.72,-0.19,1.48,0.9245999999999999,-118.014,-28.386000000000003,175,75
2026-05-09 16:11:50.664,4,-0.71,0.05,1.62,9.024600000000001,-70.70400000000001,-25.336000000000002,175,75
2026-05-09 16:11:50.677,4,-0.67,0.15,1.72,-0.8453999999999997,-67.95400000000001,-25.766000000000002,175,75
2026-05-09 16:11:50.720,4,-0.47,0.34,1.66,-7.795400000000001,-127.714,-23.506,175,75
2026-05-09 16:11:50.720,4,-0.45,0.43,1.47,-2.9254000000000007,-141.254,-17.656000000000002,175,75
2026-05-09 16:11:50.784,4,-0.24,0.92,1.33,27.324600000000004,26.185999999999996,19.724,175,75
2026-05-09 16:11:50.784,4,-0.2,0.99,1.4,29.334600000000002,27.596,23.874,175,75
2026-05-09 16:11:50.955,4,-0.1,0.7,1.24,27.2646,68.07600000000001,43.384,175,75
2026-05-09 16:11:50.955,4,-0.17,0.09,1.07,27.8146,51.79600000000001,39.174,175,75
2026-05-09 16:11:51.160,4,-0.38,-1.23,1.66,-15.9054,77.656,-33.936,175,75
2026-05-09 16:11:51.160,4,-0.3,-0.97,1.75,-40.2954,-32.714,-48.626000000000005,175,75
2026-05-09 16:11:51.161,4,-0.4,-0.76,1.28,-75.7254,-90.39399999999999,-49.726,175,75
2026-05-09 16:11:51.161,4,-0.48,-0.63,1.34,-65.2954,-45.094,-33.626000000000005,175,75
2026-05-09 16:11:51.161,4,-0.63,-0.57,1.44,-53.8354,-23.994,-25.456000000000003,175,75
2026-05-09 16:11:51.161,4,-0.79,-0.55,1.57,-44.6254,-9.114,-20.026,175,75
2026-05-09 16:11:51.161,4,-0.86,-0.54,1.68,-29.995400000000004,7.9559999999999995,-11.126,175,75
2026-05-09 16:11:51.162,4,-0.95,-0.77,1.79,12.5646,-21.984,-0.8260000000000001,175,75
2026-05-09 16:11:51.162,4,-1.31,-0.65,1.92,25.184600000000003,-59.724000000000004,-0.636,175,75
2026-05-09 16:11:51.162,4,-1.32,-0.49,1.98,29.5146,-86.124,10.764000000000001,175,75
2026-05-09 16:11:51.165,4,-1.37,-0.53,1.99,42.2646,-121.67399999999999,29.233999999999998,175,75
2026-05-09 16:11:51.283,4,-1.02,-0.63,1.72,36.284600000000005,-47.284000000000006,51.134,175,75
2026-05-09 16:11:51.283,4,-0.86,-0.41,1.65,38.6646,-25.034,56.674,175,75
2026-05-09 16:11:51.283,4,-0.72,-0.17,1.56,43.2946,12.225999999999996,64.974,175,75
2026-05-09 16:11:51.283,4,-0.52,-0.04,1.45,44.7046,58.266000000000005,62.224,175,75
2026-05-09 16:11:51.283,4,-0.19,0.79,1.33,23.6646,118.816,35.034,175,75
2026-05-09 16:11:51.295,4,-0.19,0.95,1.3,11.714599999999999,137.286,34.784,175,75
2026-05-09 16:11:52.058,4,0.11,0.18,1.31,-5.4854,120.27600000000001,28.814,175,75
2026-05-09 16:11:52.059,4,0.12,0.11,1.22,-4.5054,92.776,17.953999999999997,175,75
2026-05-09 16:11:52.059,4,-0.08,-0.01,1.23,-6.885400000000001,72.656,-0.33599999999999997,175,75
2026-05-09 16:11:52.059,4,-0.21,-0.13,1.24,-4.2054,51.24600000000001,-8.626,175,75
2026-05-09 16:11:52.059,4,-0.93,-0.63,1.05,-3.4054,-56.794,-39.236000000000004,175,75
2026-05-09 16:11:52.059,4,-0.97,-0.48,1.06,-5.9054,-40.513999999999996,-35.026,175,75
2026-05-09 16:11:52.059,4,-0.86,-0.32,1.07,-7.7354,-7.834000000000001,-29.056,175,75
2026-05-09 16:11:52.059,4,-0.63,-0.15,1.09,-8.8954,16.185999999999996,-22.836000000000002,175,75
2026-05-09 16:11:52.059,4,-0.49,-0.02,1.12,-8.1054,29.666,-21.306,175,75
2026-05-09 16:11:52.059,4,-0.46,1.82,1.85,-11.455400000000001,34.54599999999999,-32.526,175,75
2026-05-09 16:11:52.059,4,-0.37,1.63,1.84,6.1046,13.075999999999997,-27.046000000000003,175,75
2026-05-09 16:11:52.060,4,-2.57,-2.84,0.72,-57.9854,-59.843999999999994,-98.866,175,75
2026-05-09 16:11:52.060,4,-0.95,-0.53,1.62,-27.495400000000004,154.356,73.874,175,75
2026-05-09 16:11:52.060,4,-0.37,0.38,1.05,-10.2354,40.57599999999999,44.244,175,75
2026-05-09 16:11:52.060,4,-0.19,0.52,1.44,8.7846,150.576,58.324,175,75
2026-05-09 16:11:52.060,4,-0.02,0.61,1.69,25.0646,139.116,57.594,175,75
2026-05-09 16:11:52.060,4,0.05,0.63,1.83,31.404600000000002,83.876,51.314,175,75
2026-05-09 16:11:52.060,4,0.03,0.63,1.81,26.5946,13.075999999999997,40.094,175,75
2026-05-09 16:11:52.060,4,-0.01,0.66,1.66,23.0546,-20.514,30.093999999999998,175,75
2026-05-09 16:11:52.060,4,0.01,0.72,1.5,27.934600000000003,-21.064,25.034,175,75
2026-05-09 16:11:52.062,4,-0.17,0.88,1.73,60.55460000000001,70.336,-14.056,175,75
2026-05-09 16:11:52.062,4,-0.23,0.82,1.82,58.2346,36.376000000000005,-26.246000000000002,175,75
2026-05-09 16:11:52.062,4,-0.37,0.74,1.87,56.4046,-17.774,-43.806000000000004,175,75
2026-05-09 16:11:52.179,4,-1.49,-1.05,1.58,73.66460000000001,-215.034,-31.306,175,75
2026-05-09 16:11:52.179,4,-1.74,-2.8,1.29,90.1246,-149.904,45.763999999999996,175,75
2026-05-09 16:11:52.179,4,-0.33,-1.05,2.09,30.1246,115.27600000000001,-22.836000000000002,175,75
2026-05-09 16:11:52.179,4,-0.49,-0.66,1.97,15.554599999999999,73.686,123.444,175,75
2026-05-09 16:11:52.264,4,-0.91,-1.0,1.68,59.94460000000001,-12.654,61.804,175,75
2026-05-09 16:11:52.264,4,-0.34,-0.36,1.44,0.7945999999999991,59.666,51.494,175,75
2026-05-09 16:11:52.264,4,-0.01,0.77,1.46,4.634599999999999,71.49600000000001,29.604,175,75
2026-05-09 16:11:52.265,4,-0.04,1.32,1.51,5.0046,66.006,38.263999999999996,175,75
2026-05-09 16:11:52.281,4,0.1,1.16,1.38,19.4546,83.32600000000001,63.693999999999996,175,75
2026-05-09 16:11:52.293,4,0.23,0.86,1.32,23.424599999999998,88.626,64.604,175,75
2026-05-09 16:11:52.426,4,0.32,0.78,1.34,21.9546,108.016,58.873999999999995,175,75
2026-05-09 16:11:52.426,4,0.38,0.94,1.43,16.714599999999997,132.716,52.224,175,75
2026-05-09 16:11:52.426,4,0.45,1.08,1.52,13.6046,145.706,43.504,175,75
2026-05-09 16:11:52.426,4,0.43,1.08,1.57,14.5146,133.996,37.954,175,75
2026-05-09 16:11:52.426,4,0.28,0.62,1.47,22.8146,98.686,24.304,175,75
2026-05-09 16:11:52.426,4,0.22,0.26,1.32,31.104600000000005,104.666,11.194,175,75
2026-05-09 16:11:52.794,4,0.04,-0.23,1.25,47.9946,113.506,-14.786,175,75
2026-05-09 16:11:52.794,4,-0.16,-0.57,1.29,58.1746,102.956,-31.066000000000003,175,75
2026-05-09 16:11:52.794,4,-0.43,-0.9,1.39,62.0146,78.876,-47.166000000000004,175,75
2026-05-09 16:11:52.794,4,-0.64,-1.15,1.44,59.7646,49.726,-54.966,175,75
2026-05-09 16:11:52.794,4,-0.97,-1.34,1.57,51.7746,-9.484000000000002,-57.466,175,75
2026-05-09 16:11:52.794,4,-1.27,-1.2,1.51,-20.4254,-126.25399999999999,-115.156,175,75
2026-05-09 16:11:52.795,4,-1.26,-0.95,1.38,-55.175399999999996,-120.944,-103.806,175,75
2026-05-09 16:11:52.795,4,-1.4,-0.85,1.29,-53.535399999999996,-54.903999999999996,-65.756,175,75
2026-05-09 16:11:52.795,4,-1.43,-1.08,1.46,-22.0054,68.816,-26.796000000000003,175,75
2026-05-09 16:11:52.795,4,-1.32,-1.19,1.62,-20.845399999999998,59.54600000000001,-28.626,175,75
2026-05-09 16:11:52.795,4,-1.32,-1.07,1.81,-36.5154,-12.774000000000001,-38.506,175,75
2026-05-09 16:11:52.795,4,-1.36,-0.68,1.85,-42.7354,-40.574,-40.336,175,75
2026-05-09 16:11:52.795,4,-1.14,-0.13,1.77,-9.9954,-17.594,-11.006,175,75
2026-05-09 16:11:52.795,4,-0.81,0.22,1.42,4.214599999999999,16.126,-9.666,175,75
2026-05-09 16:11:52.795,4,-0.65,0.48,1.37,8.9046,69.176,-7.526,175,75
2026-05-09 16:11:52.796,4,-0.62,0.64,1.46,7.9946,91.006,-4.845999999999999,175,75
2026-05-09 16:11:52.796,4,-0.35,1.12,1.61,16.104599999999998,48.74600000000001,-1.556,175,75
2026-05-09 16:11:52.796,4,-0.37,1.22,1.58,13.5446,35.215999999999994,-3.386,175,75
2026-05-09 16:11:52.796,4,-0.32,1.27,1.64,20.2446,10.215999999999998,-0.5760000000000001,175,75
2026-05-09 16:11:52.796,4,-0.32,1.09,1.57,24.9446,-9.484000000000002,1.554,175,75
2026-05-09 16:11:52.834,4,-0.62,-2.23,1.19,38.354600000000005,20.276,9.054,175,75
2026-05-09 16:11:52.834,4,-0.83,-2.76,1.28,35.7346,13.075999999999997,25.034,175,75
2026-05-09 16:11:52.844,4,-1.24,-2.82,1.44,28.6646,3.565999999999999,21.134,175,75
2026-05-09 16:11:52.878,4,-0.64,-1.09,1.48,-97.9854,-34.724000000000004,21.924,175,75
2026-05-09 16:11:52.889,4,-0.81,-1.07,1.36,-67.00540000000001,25.516000000000002,15.334,175,75
2026-05-09 16:11:52.899,4,-0.6,-0.94,1.57,-55.4854,110.886,12.474,175,75
2026-05-09 16:11:52.915,4,-0.5,-0.67,1.78,-60.3654,135.39600000000002,20.093999999999998,175,75
2026-05-09 16:11:52.928,4,-0.47,-0.39,1.91,-52.4354,89.60600000000001,6.864000000000001,175,75
2026-05-09 16:11:52.939,4,-0.46,-0.15,1.94,-41.8254,26.246,-2.106,175,75
2026-05-09 16:11:52.952,4,-0.53,0.03,1.85,-33.3454,-6.984000000000002,-0.5760000000000001,175,75
2026-05-09 16:11:52.989,4,-0.41,0.17,1.46,12.5646,17.715999999999998,-1.066,175,75
2026-05-09 16:11:52.989,4,-0.41,0.22,1.43,21.224600000000002,36.616,-1.676,175,75
2026-05-09 16:11:53.014,4,-0.32,0.41,1.51,26.104600000000005,74.846,-1.556,175,75
2026-05-09 16:11:53.029,4,-0.26,0.58,1.58,25.0646,78.016,-2.286,175,75
2026-05-09 16:11:53.047,4,-0.21,0.72,1.63,25.1246,69.546,-3.936,175,75
2026-05-09 16:11:53.047,4,-0.18,0.79,1.64,23.964600000000004,61.316,-5.085999999999999,175,75
2026-05-09 16:11:53.080,4,-0.16,0.87,1.61,21.834600000000002,47.286,-9.606,175,75
2026-05-09 16:11:53.080,4,-0.16,0.9,1.58,22.2646,43.016000000000005,-12.225999999999999,175,75
2026-05-09 16:11:53.090,4,-0.16,0.92,1.55,23.4846,40.096000000000004,-15.575999999999999,175,75
2026-05-09 16:11:53.102,4,-0.19,0.91,1.51,25.004600000000003,38.93599999999999,-19.906000000000002,175,75
2026-05-09 16:11:53.115,4,-0.24,0.85,1.48,28.174599999999998,36.376000000000005,-26.306,175,75
2026-05-09 16:11:53.130,4,-0.3,0.72,1.49,29.574600000000004,28.935999999999996,-36.246,175,75
2026-05-09 16:11:53.151,4,-0.42,0.59,1.53,23.724600000000002,1.855999999999998,-48.256,175,75
2026-05-09 16:11:53.162,4,-0.52,0.59,1.51,14.214599999999999,-38.624,-46.246,175,75
2026-05-09 16:11:53.179,4,-0.55,0.53,1.46,9.9446,-48.144000000000005,-42.776,175,75
2026-05-09 16:11:53.179,4,-0.64,0.29,1.39,4.5146,-48.994,-40.516,175,75
2026-05-09 16:11:53.190,4,-0.74,-0.02,1.41,-1.1554000000000002,-31.124000000000002,-39.116,175,75
2026-05-09 16:11:53.201,4,-0.76,-0.43,1.41,-6.7654,-10.644000000000002,-38.746,175,75
2026-05-09 16:11:53.225,4,-0.76,-0.98,1.45,-8.4054,-19.904,-38.256,175,75
2026-05-09 16:11:53.226,4,-0.86,-1.58,1.49,-2.4354000000000005,-54.664,-25.886000000000003,175,75
2026-05-09 16:11:53.240,4,-0.99,-2.3,1.4,16.1646,-63.623999999999995,-12.225999999999999,175,75
2026-05-09 16:11:53.252,4,-1.2,-2.5,1.34,15.3146,-54.843999999999994,-15.086,175,75
2026-05-09 16:11:53.276,4,-1.29,-1.67,1.45,-26.035400000000003,0.7059999999999995,-44.356,175,75
2026-05-09 16:11:53.288,4,-0.94,-1.14,1.54,-26.395400000000002,30.575999999999997,-0.9460000000000001,175,75
2026-05-09 16:11:53.294,4,-0.85,-1.0,1.51,1.464599999999999,29.725999999999996,38.384,175,75
2026-05-09 16:11:53.316,4,-0.81,-1.08,1.49,22.3846,36.066,45.524,175,75
2026-05-09 16:11:53.316,4,-0.71,-1.08,1.51,19.394599999999997,68.32600000000001,49.364,175,75
2026-05-09 16:11:53.329,4,-0.57,-0.87,1.57,9.5146,100.036,54.604,175,75
2026-05-09 16:11:53.337,4,-0.46,-0.6,1.68,10.184600000000001,102.656,53.934,175,75
2026-05-09 16:11:53.394,4,-0.19,0.91,1.9,18.114600000000003,8.506,32.594,175,75
2026-05-09 16:11:53.408,4,-0.2,1.19,1.92,15.984599999999999,-11.314000000000002,31.003999999999998,175,75
2026-05-09 16:11:53.408,4,-0.2,1.35,1.89,18.2346,-27.284,34.844,175,75
2026-05-09 16:11:53.430,4,-0.16,1.37,1.83,21.654600000000002,-34.174,38.384,175,75
2026-05-09 16:11:53.441,4,-0.04,1.3,1.68,23.964600000000004,-31.064,41.984,175,75
2026-05-09 16:11:53.441,4,0.07,1.29,1.52,21.404600000000002,-7.404000000000002,42.534,175,75
2026-05-09 16:11:53.459,4,0.13,1.3,1.38,20.674599999999998,36.316,42.044,175,75
2026-05-09 16:11:53.477,4,-0.03,1.07,1.31,34.574600000000004,121.49600000000001,47.653999999999996,175,75
2026-05-09 16:11:53.488,4,-0.13,0.82,1.35,42.6846,152.776,48.324,175,75
2026-05-09 16:11:53.505,4,-0.19,0.54,1.4,48.4246,168.566,43.083999999999996,175,75
2026-05-09 16:11:53.529,4,-0.35,-0.22,1.47,63.4846,147.406,14.234,175,75
2026-05-09 16:11:53.541,4,-0.46,-0.63,1.49,69.1546,110.826,0.524,175,75
2026-05-09 16:11:53.541,4,-0.58,-1.01,1.51,72.0746,65.21600000000001,-11.975999999999999,175,75
2026-05-09 16:11:53.549,4,-0.71,-1.44,1.57,73.7246,8.265999999999998,-30.026,175,75
2026-05-09 16:11:53.569,4,-0.95,-1.7,1.65,62.8146,-73.384,-38.866,175,75
2026-05-09 16:11:53.576,4,-1.18,-1.52,1.62,39.7046,-130.454,-63.566,175,75
2026-05-09 16:11:53.588,4,-1.15,-0.9,1.52,-18.2254,-191.434,-102.166,175,75
2026-05-09 16:11:53.600,4,-0.85,-0.4,1.33,-57.1854,-183.624,-80.156,175,75
2026-05-09 16:11:53.606,4,-0.82,-0.21,1.08,-60.605399999999996,-119.234,-33.196,175,75
2026-05-09 16:11:53.644,4,-0.89,-1.21,1.42,-13.4754,134.666,23.384,175,75
2026-05-09 16:11:53.659,4,-0.89,-1.21,1.63,-25.0554,75.21600000000001,7.954000000000001,175,75
2026-05-09 16:11:53.670,4,-0.91,-0.94,1.69,-31.9454,1.186,-8.866,175,75
2026-05-09 16:11:53.681,4,-0.87,-0.73,1.62,-31.095399999999998,-23.324,-9.546,175,75
2026-05-09 16:11:53.718,4,-0.62,-0.39,1.34,-1.2753999999999994,52.346000000000004,2.774,175,75
2026-05-09 16:11:53.730,4,-0.58,-0.31,1.39,-4.3254,82.71600000000001,2.104,175,75
2026-05-09 16:11:53.752,4,-0.53,-0.04,1.55,-9.6254,123.566,-2.286,175,75
2026-05-09 16:11:53.752,4,-0.48,0.1,1.62,-8.285400000000001,127.346,-4.476,175,75
2026-05-09 16:11:53.767,4,-0.36,0.47,1.73,-5.425400000000001,106.676,-10.086,175,75
2026-05-09 16:11:53.789,4,-0.28,0.69,1.71,-1.3954000000000004,88.206,-13.806,175,75
2026-05-09 16:11:53.801,4,-0.21,0.88,1.64,3.4846000000000004,73.016,-17.226000000000003,175,75
2026-05-09 16:11:53.822,4,-0.22,1.13,1.58,12.7446,96.676,-25.156000000000002,175,75
2026-05-09 16:11:53.835,4,-0.2,1.14,1.63,14.6346,114.96600000000001,-29.786,175,75
2026-05-09 16:11:53.847,4,-0.19,1.11,1.74,15.0646,122.286,-36.676,175,75
2026-05-09 16:11:53.847,4,-0.17,1.04,1.89,17.3846,111.67600000000002,-46.126000000000005,175,75
2026-05-09 16:11:53.870,4,-0.2,0.97,2.06,20.4946,63.566,-56.856,175,75
2026-05-09 16:11:53.876,4,-0.26,0.95,2.13,23.964600000000004,6.125999999999998,-60.456,175,75
2026-05-09 16:11:53.889,4,-0.34,0.85,2.1,27.324600000000004,-77.104,-62.346000000000004,175,75
2026-05-09 16:11:53.895,4,-0.41,0.69,1.95,28.294600000000003,-137.534,-60.576,175,75
2026-05-09 16:11:53.908,4,-0.51,0.29,1.65,29.154600000000002,-177.594,-55.826,175,75
2026-05-09 16:11:53.920,4,-0.58,-0.13,1.42,32.2046,-165.82399999999998,-51.496,175,75
2026-05-09 16:11:53.932,4,-0.55,-0.73,1.18,40.5546,-116.614,-54.846000000000004,175,75
2026-05-09 16:11:53.942,4,-0.45,-1.31,1.07,45.854600000000005,-78.684,-54.056000000000004,175,75
2026-05-09 16:11:53.954,4,-0.41,-1.75,1.1,50.3746,-59.724000000000004,-49.056000000000004,175,75
2026-05-09 16:11:53.956,4,-0.45,-2.15,1.24,52.8746,-60.274,-37.166000000000004,175,75
2026-05-09 16:11:53.969,4,-0.71,-2.13,1.43,47.2046,-57.403999999999996,-46.856,175,75
2026-05-09 16:11:53.978,4,-0.78,-1.69,1.55,27.7446,-57.343999999999994,-66.676,175,75
2026-05-09 16:11:53.995,4,-0.54,-1.19,1.53,0.37459999999999916,-80.944,-51.126000000000005,175,75
2026-05-09 16:11:54.010,4,-0.52,-1.1,1.29,-1.7654000000000005,-99.664,-14.056,175,75
2026-05-09 16:11:54.033,4,-0.65,-1.24,1.02,9.7646,-69.904,10.154,175,75
2026-05-09 16:11:54.045,4,-0.72,-1.27,0.92,12.3846,28.446,24.663999999999998,175,75
2026-05-09 16:11:54.045,4,-0.63,-1.08,1.0,0.9846000000000004,145.576,37.474,175,75
2026-05-09 16:11:54.056,4,-0.44,-0.79,1.22,-8.955400000000001,229.606,50.704,175,75
2026-05-09 16:11:54.066,4,-0.34,-0.52,1.44,-4.6854000000000005,238.016,57.894,175,75
2026-05-09 16:11:54.089,4,-0.36,-0.26,1.61,-0.9054000000000002,184.17600000000002,56.064,175,75
2026-05-09 16:11:54.099,4,-0.38,-0.2,1.57,-5.2354,167.346,52.344,175,75
2026-05-09 16:11:54.105,4,-0.35,-0.15,1.48,-2.1854000000000005,158.566,49.244,175,75
2026-05-09 16:11:54.124,4,-0.32,-0.07,1.44,4.214599999999999,161.316,45.884,175,75
2026-05-09 16:11:54.139,4,-0.29,0.05,1.46,6.044599999999999,166.92600000000002,43.204,175,75
2026-05-09 16:11:54.139,4,-0.23,0.27,1.55,7.2646,167.406,38.384,175,75
2026-05-09 16:11:54.159,4,-0.17,0.45,1.62,9.7646,155.216,33.263999999999996,175,75
2026-05-09 16:11:54.174,4,-0.11,0.65,1.66,14.9446,122.83600000000001,24.913999999999998,175,75
2026-05-09 16:11:54.174,4,-0.09,0.78,1.63,17.3846,89.546,15.704,175,75
2026-05-09 16:11:54.192,4,-0.12,0.88,1.52,16.654600000000002,67.46600000000001,3.564,175,75
2026-05-09 16:11:54.210,4,-0.15,0.92,1.41,18.114600000000003,72.46600000000001,-1.976,175,75
2026-05-09 16:11:54.223,4,-0.16,0.93,1.32,25.1246,91.556,-6.4959999999999996,175,75
2026-05-09 16:11:54.238,4,-0.21,0.84,1.32,32.6846,121.376,-15.516,175,75
2026-05-09 16:11:54.254,4,-0.25,0.76,1.41,34.824600000000004,128.936,-22.166,175,75
2026-05-09 16:11:54.266,4,-0.27,0.65,1.57,38.1746,114.48599999999999,-33.626000000000005,175,75
2026-05-09 16:11:54.279,4,-0.3,0.6,1.69,36.4046,65.57600000000001,-44.666000000000004,175,75
2026-05-09 16:11:54.279,4,-0.37,0.57,1.75,31.1646,15.096,-51.916000000000004,175,75
2026-05-09 16:11:54.289,4,-0.44,0.52,1.77,24.4546,-34.234,-57.346000000000004,175,75
2026-05-09 16:11:54.308,4,-0.55,0.39,1.68,16.5946,-85.64399999999999,-61.246,175,75
2026-05-09 16:11:54.308,4,-0.65,0.2,1.58,11.1046,-117.404,-63.076,175,75
2026-05-09 16:11:54.318,4,-0.76,-0.1,1.49,4.8246,-136.374,-64.666,175,75
2026-05-09 16:11:54.340,4,-0.9,-0.54,1.44,-2.3754,-131.374,-63.076,175,75
2026-05-09 16:11:54.351,4,-0.96,-1.06,1.44,-3.1054000000000004,-116.67399999999999,-54.726,175,75
2026-05-09 16:11:54.351,4,-0.95,-1.51,1.49,0.24460000000000015,-124.664,-44.356,175,75
2026-05-09 16:11:54.361,4,-0.99,-2.02,1.57,6.524600000000001,-156.064,-29.296000000000003,175,75
2026-05-09 16:11:54.377,4,-1.18,-2.3,1.69,-0.8453999999999997,-193.994,-28.566000000000003,175,75
2026-05-09 16:11:54.389,4,-1.16,-2.02,1.74,-38.2254,-201.614,-47.466,175,75
2026-05-09 16:11:54.399,4,-0.84,-1.54,1.62,-78.2854,-202.224,-50.696,175,75
2026-05-09 16:11:54.411,4,-0.58,-1.06,1.3,-88.4054,-184.964,-12.286,175,75
2026-05-09 16:11:54.454,4,-0.72,-0.84,1.06,-57.5554,-123.994,22.834,175,75
2026-05-09 16:11:54.454,4,-0.88,-0.77,1.01,-11.6454,11.186,50.214,175,75
2026-05-09 16:11:54.454,4,-0.78,-0.77,1.17,2.0746,132.466,70.03399999999999,175,75
2026-05-09 16:11:54.464,4,-0.4,-0.61,1.59,-4.1454,201.736,82.28399999999999,175,75
2026-05-09 16:11:54.474,4,-0.23,-0.42,1.69,-6.215400000000001,167.716,76.984,175,75
2026-05-09 16:11:54.475,4,-0.16,-0.18,1.69,-8.2254,135.156,72.344,175,75
2026-05-09 16:11:54.493,4,-0.06,0.14,1.55,-10.785400000000001,141.736,62.954,175,75
2026-05-09 16:11:54.509,4,0.05,0.43,1.47,-11.3954,163.266,57.284,175,75
2026-05-09 16:11:54.529,4,0.1,0.84,1.49,-10.6654,184.786,53.994,175,75
2026-05-09 16:11:54.540,4,0.01,1.1,1.58,-8.0454,194.906,53.443999999999996,175,75
2026-05-09 16:11:54.540,4,-0.07,1.24,1.69,-3.4754000000000005,199.726,52.653999999999996,175,75
2026-05-09 16:11:54.551,4,-0.06,1.26,1.78,2.6845999999999997,197.776,52.044,175,75
2026-05-09 16:11:54.563,4,0.02,1.18,1.88,10.1246,178.326,48.814,175,75
2026-05-09 16:11:54.563,4,0.07,1.1,1.92,13.9046,154.236,42.414,175,75
2026-05-09 16:11:54.604,4,-0.04,0.83,1.9,17.4446,48.016000000000005,10.644,175,75
2026-05-09 16:11:54.614,4,-0.19,0.6,1.82,25.794600000000003,2.8959999999999972,-1.366,175,75
2026-05-09 16:11:54.630,4,-0.3,0.19,1.67,37.0146,-36.494,-16.856,175,75
2026-05-09 16:11:54.643,4,-0.41,-0.34,1.5,48.1146,-62.464,-35.946,175,75
2026-05-09 16:11:54.655,4,-0.54,-0.86,1.39,56.3446,-84.544,-50.696,175,75
2026-05-09 16:11:54.667,4,-0.74,-1.52,1.36,60.3746,-117.404,-61.306000000000004,175,75
2026-05-09 16:11:54.667,4,-1.17,-1.97,1.51,44.8846,-168.934,-57.466,175,75
2026-05-09 16:11:54.686,4,-1.61,-1.78,1.48,0.06460000000000043,-191.124,-77.046,175,75
2026-05-09 16:11:54.699,4,-1.59,-0.97,1.47,-65.2954,-198.204,-117.106,175,75
2026-05-09 16:11:54.709,4,-1.01,-0.33,1.38,-102.6154,-157.894,-96.066,175,75
2026-05-09 16:11:54.720,4,-0.86,0.03,1.12,-88.2854,-65.034,-13.936,175,75
2026-05-09 16:11:54.731,4,-0.96,-0.15,1.05,-45.2354,1.1259999999999977,7.534000000000001,175,75
2026-05-09 16:11:54.744,4,-0.95,-0.68,1.26,-4.9954,54.786,19.663999999999998,175,75
2026-05-09 16:11:54.767,4,-1.06,-0.95,1.65,-26.455399999999997,14.666,12.534,175,75
2026-05-09 16:11:54.784,4,-0.91,-0.58,1.64,-18.345399999999998,-68.874,-7.585999999999999,175,75
2026-05-09 16:11:54.799,4,-0.84,-0.41,1.54,-11.6454,-95.094,-3.2560000000000002,175,75
2026-05-09 16:11:54.809,4,-0.82,-0.34,1.42,-7.2554,-102.28399999999999,-1.246,175,75
2026-05-09 16:11:54.821,4,-0.78,-0.33,1.36,-5.6654,-94.484,-1.186,175,75
2026-05-09 16:11:54.821,4,-0.67,-0.28,1.36,-7.4954,-74.234,0.704,175,75
2026-05-09 16:11:54.834,4,-0.55,-0.21,1.4,-10.4254,-68.56400000000001,1.8639999999999999,175,75
2026-05-09 16:11:54.846,4,-0.46,-0.13,1.45,-14.5054,-81.06400000000001,0.21400000000000002,175,75
2026-05-09 16:11:54.857,4,-0.43,-0.03,1.46,-18.1054,-93.684,-2.166,175,75
2026-05-09 16:11:54.868,4,-0.42,0.11,1.47,-23.2254,-104.114,-3.386,175,75
2026-05-09 16:11:54.878,4,-0.39,0.29,1.43,-24.5654,-105.574,-2.586,175,75
2026-05-09 16:11:54.902,4,-0.31,0.58,1.39,-20.0554,-96.494,0.944,175,75
2026-05-09 16:11:54.921,4,-0.29,0.69,1.37,-17.4354,-90.454,1.984,175,75
2026-05-09 16:11:54.921,4,-0.28,0.79,1.37,-15.0554,-80.45400000000001,1.984,175,75
2026-05-09 16:11:54.932,4,-0.29,0.87,1.39,-12.9254,-68.20400000000001,2.104,175,75
2026-05-09 16:11:54.944,4,-0.28,0.94,1.4,-10.0554,-55.944,2.344,175,75
2026-05-09 16:11:54.955,4,-0.26,1.02,1.44,-7.0054,-45.644000000000005,1.804,175,75
2026-05-09 16:11:54.966,4,-0.27,1.07,1.49,-4.2654000000000005,-38.814,-0.27599999999999997,175,75
2026-05-09 16:11:54.972,4,-0.3,1.08,1.56,-1.6454000000000004,-34.724000000000004,-1.616,175,75
2026-05-09 16:11:54.986,4,-0.33,1.06,1.67,-0.05540000000000056,-37.224000000000004,-3.936,175,75
2026-05-09 16:11:54.997,4,-0.36,1.04,1.73,1.1646,-51.064,-6.675999999999999,175,75
2026-05-09 16:11:55.009,4,-0.39,0.96,1.79,3.054599999999999,-79.114,-8.936,175,75
2026-05-09 16:11:55.022,4,-0.43,0.81,1.79,5.614599999999999,-116.374,-9.475999999999999,175,75
2026-05-09 16:11:55.022,4,-0.53,0.58,1.75,7.624599999999999,-156.374,-10.086,175,75
2026-05-09 16:11:55.045,4,-0.83,-0.11,1.62,4.1546,-213.624,-8.016,175,75
2026-05-09 16:11:55.056,4,-0.95,-0.7,1.52,0.31460000000000043,-212.164,-2.716,175,75
2026-05-09 16:11:55.067,4,-0.96,-1.35,1.46,0.37459999999999916,-198.07399999999998,4.054,175,75
2026-05-09 16:11:55.067,4,-0.9,-2.11,1.45,3.1746,-196.374,18.694,175,75
2026-05-09 16:11:55.090,4,-1.01,-3.16,1.49,6.4046,-227.594,60.583999999999996,175,75
2026-05-09 16:11:55.100,4,-1.44,-3.08,1.52,-9.8154,-222.654,55.704,175,75
2026-05-09 16:11:55.111,4,-1.59,-1.97,1.53,-56.645399999999995,-165.884,-22.716,175,75
2026-05-09 16:11:55.111,4,-0.53,-1.1,1.58,-88.9554,-112.164,-28.626,175,75
2026-05-09 16:11:55.139,4,-0.66,-0.41,1.17,-27.1854,-61.123999999999995,107.344,175,75
2026-05-09 16:11:55.150,4,-0.64,-0.6,1.17,18.604599999999998,15.096,87.894,175,75
2026-05-09 16:11:55.175,4,-0.43,-0.54,1.34,-0.6053999999999995,118.26599999999999,106.984,175,75
2026-05-09 16:11:55.175,4,-0.33,-0.39,1.48,-12.9854,154.606,106.064,175,75
2026-05-09 16:11:55.187,4,-0.19,-0.28,1.6,-6.3354,137.286,93.934,175,75
2026-05-09 16:11:55.197,4,-0.11,-0.18,1.69,4.884599999999999,95.036,87.594,175,75
2026-05-09 16:11:55.197,4,-0.16,-0.1,1.65,11.1046,45.156000000000006,81.554,175,75
2026-05-09 16:11:55.210,4,-0.23,-0.07,1.54,10.6746,21.556,73.144,175,75
2026-05-09 16:11:55.220,4,-0.27,-0.05,1.42,10.4946,16.376,66.434,175,75
2026-05-09 16:11:55.238,4,-0.23,0.06,1.35,9.214599999999999,45.946,59.304,175,75
2026-05-09 16:11:55.261,4,-0.14,0.18,1.44,1.8346,52.956,53.934,175,75
2026-05-09 16:11:55.261,4,-0.05,0.29,1.54,-4.1454,44.236000000000004,47.833999999999996,175,75
2026-05-09 16:11:55.279,4,0.04,0.51,1.65,-13.1654,-7.894000000000002,33.024,175,75
2026-05-09 16:11:55.308,4,0.0,0.71,1.61,-14.0154,-67.284,17.953999999999997,175,75
2026-05-09 16:11:55.330,4,-0.0,0.71,1.42,-5.4854,-89.604,8.754,175,75
2026-05-09 16:11:55.343,4,-0.02,0.67,1.33,-2.9854000000000003,-82.654,3.874,175,75
2026-05-09 16:11:55.356,4,-0.04,0.6,1.26,-1.8254000000000001,-64.354,-3.076,175,75
2026-05-09 16:11:55.356,4,-0.06,0.55,1.27,-2.1254,-49.114000000000004,-9.725999999999999,175,75
2026-05-09 16:11:55.377,4,-0.1,0.53,1.34,-5.1154,-36.184,-19.906000000000002,175,75
2026-05-09 16:11:55.377,4,-0.13,0.54,1.41,-6.9454,-35.884,-26.366,175,75
2026-05-09 16:11:55.408,4,-0.27,0.49,1.5,-6.6454,-65.944,-32.656,175,75
2026-05-09 16:11:55.414,4,-0.39,0.35,1.5,-5.6654,-79.054,-32.226,175,75
2026-05-09 16:11:55.430,4,-0.56,0.11,1.52,-7.4354000000000005,-89.42399999999999,-32.226,175,75
2026-05-09 16:11:55.436,4,-0.74,-0.21,1.59,-12.3154,-100.884,-30.576,175,75
2026-05-09 16:11:55.453,4,-0.86,-0.55,1.64,-13.595400000000001,-114.544,-28.626,175,75
2026-05-09 16:11:55.461,4,-0.92,-0.93,1.66,-10.9754,-135.094,-26.366,175,75
2026-05-09 16:11:55.476,4,-0.96,-1.53,1.66,-1.6454000000000004,-170.82399999999998,-20.336000000000002,175,75
2026-05-09 16:11:55.510,4,-1.01,-2.06,1.66,6.4046,-213.624,-14.786,175,75
2026-05-09 16:11:55.510,4,-1.22,-2.43,1.71,2.4445999999999994,-248.874,-11.616,175,75
2026-05-09 16:11:55.521,4,-1.51,-2.29,1.81,-21.1554,-247.594,-23.506,175,75
2026-05-09 16:11:55.521,4,-1.48,-1.73,1.88,-49.2654,-235.57399999999998,-41.916000000000004,175,75
2026-05-09 16:11:55.531,4,-1.05,-1.06,1.84,-63.1654,-242.164,-27.406000000000002,175,75
2026-05-09 16:11:55.546,4,-1.04,-0.7,1.38,-8.3454,-204.904,49.544,175,75
2026-05-09 16:11:55.563,4,-1.08,-0.83,1.2,15.6746,-104.054,61.924,175,75
2026-05-09 16:11:55.567,4,-0.96,-0.82,1.17,14.574599999999998,11.675999999999998,73.384,175,75
2026-05-09 16:11:55.577,4,-0.82,-0.68,1.29,13.3546,84.906,81.064,175,75
2026-05-09 16:11:55.590,4,-0.57,-0.47,1.47,19.6346,124.23599999999999,80.764,175,75
2026-05-09 16:11:55.611,4,-0.32,-0.05,1.67,20.5546,90.516,68.994,175,75
2026-05-09 16:11:55.613,4,-0.29,0.21,1.71,15.1246,69.96600000000001,62.653999999999996,175,75
2026-05-09 16:11:55.627,4,-0.25,0.61,1.72,7.5646,54.846000000000004,54.724,175,75
2026-05-09 16:11:55.639,4,-0.18,0.98,1.73,4.634599999999999,45.456,53.024,175,75
2026-05-09 16:11:55.661,4,-0.11,1.26,1.76,7.9946,29.295999999999996,56.193999999999996,175,75
2026-05-09 16:11:55.673,4,-0.01,1.27,1.79,18.2346,-8.074000000000002,61.554,175,75
2026-05-09 16:11:55.682,4,0.03,1.07,1.76,14.8846,-31.854,60.153999999999996,175,75
2026-05-09 16:11:55.691,4,0.04,0.93,1.69,6.6546,-44.424,54.604,175,75
2026-05-09 16:11:55.709,4,0.04,0.87,1.64,-1.3354,-51.674,46.924,175,75
2026-05-09 16:11:55.709,4,-0.03,0.86,1.6,-4.5654,-51.124,41.744,175,75
2026-05-09 16:11:55.719,4,-0.15,0.77,1.57,-0.8453999999999997,-40.944,38.814,175,75
2026-05-09 16:11:55.733,4,-0.24,0.61,1.57,8.4246,-35.334,38.263999999999996,175,75
2026-05-09 16:11:55.744,4,-0.33,0.31,1.56,25.2446,-49.664,35.454,175,75
2026-05-09 16:11:55.764,4,-0.39,0.0,1.49,37.7446,-75.824,28.994,175,75
2026-05-09 16:11:55.764,4,-0.45,-0.4,1.35,45.3146,-101.494,17.534,175,75
2026-05-09 16:11:55.788,4,-0.72,-1.19,1.07,38.8446,-77.95400000000001,-16.126,175,75
2026-05-09 16:11:55.812,4,-0.88,-1.31,1.12,31.044600000000003,-37.344,-18.506,175,75
2026-05-09 16:11:55.812,4,-1.06,-1.13,1.37,17.324599999999997,-4.604000000000001,-24.666,175,75
2026-05-09 16:11:55.821,4,-0.98,-0.73,1.64,-6.1554,-8.014000000000001,-39.966,175,75
2026-05-09 16:11:55.840,4,-0.82,-0.45,1.77,-30.9754,-45.884,-25.636000000000003,175,75
2026-05-09 16:11:55.865,4,-0.9,-0.67,1.58,-25.785400000000003,-76.924,-3.5060000000000002,175,75
2026-05-09 16:11:55.877,4,-0.94,-0.87,1.51,-26.645400000000002,-39.354,-0.756,175,75
2026-05-09 16:11:55.877,4,-0.89,-0.84,1.53,-34.1454,-8.684000000000001,-3.626,175,75
2026-05-09 16:11:55.890,4,-0.81,-0.71,1.59,-35.6054,-8.144000000000002,-7.526,175,75
2026-05-09 16:11:55.902,4,-0.77,-0.61,1.62,-30.1154,-20.394000000000002,-9.606,175,75
2026-05-09 16:11:55.932,4,-0.76,-0.55,1.56,-21.8854,-33.384,-12.466,175,75
2026-05-09 16:11:55.932,4,-0.72,-0.52,1.46,-20.665399999999998,-30.034,-16.496000000000002,175,75
2026-05-09 16:11:55.943,4,-0.66,-0.36,1.34,-24.9954,7.405999999999999,-26.246000000000002,175,75
2026-05-09 16:11:55.960,4,-0.6,-0.2,1.34,-25.665399999999998,40.096000000000004,-28.936,175,75
2026-05-09 16:11:55.970,4,-0.53,-0.02,1.4,-26.885399999999997,69.116,-29.116,175,75
2026-05-09 16:11:55.981,4,-0.46,0.14,1.49,-27.315399999999997,82.71600000000001,-29.546000000000003,175,75
2026-05-09 16:11:56.006,4,-0.26,0.45,1.6,-22.9854,60.156000000000006,-33.016,175,75
2026-05-09 16:11:56.020,4,-0.21,0.59,1.57,-21.5154,36.126000000000005,-35.696,175,75
2026-05-09 16:11:56.027,4,-0.23,0.72,1.51,-20.845399999999998,24.965999999999998,-38.506,175,75
2026-05-09 16:11:56.039,4,-0.26,0.87,1.47,-20.2954,30.946,-38.996,175,75
2026-05-09 16:11:56.058,4,-0.26,1.02,1.48,-18.6554,46.85600000000001,-36.976,175,75
2026-05-09 16:11:56.070,4,-0.24,1.12,1.52,-17.6154,54.176,-35.946,175,75
2026-05-09 16:11:56.081,4,-0.22,1.19,1.57,-17.8654,55.946,-37.286,175,75
2026-05-09 16:11:56.096,4,-0.23,1.21,1.63,-17.9854,45.396,-38.506,175,75
2026-05-09 16:11:56.096,4,-0.25,1.15,1.66,-15.0554,31.736,-37.106,175,75
2026-05-09 16:11:56.106,4,-0.28,1.02,1.67,-10.0554,14.906000000000002,-35.156,175,75
2026-05-09 16:11:56.125,4,-0.34,0.79,1.67,-10.115400000000001,-9.114,-36.736000000000004,175,75
2026-05-09 16:11:56.133,4,-0.53,0.53,1.69,-13.2254,-28.934,-37.586,175,75
2026-05-09 16:11:56.150,4,-0.72,0.21,1.75,-12.3154,-43.204,-38.076,175,75
2026-05-09 16:11:56.156,4,-0.88,-0.16,1.81,-7.9854,-55.214,-37.406,175,75
2026-05-09 16:11:56.172,4,-1.01,-0.66,1.86,0.6745999999999999,-77.284,-35.216,175,75
2026-05-09 16:11:56.172,4,-1.04,-1.45,1.83,14.574599999999998,-130.154,-29.056,175,75
2026-05-09 16:11:56.200,4,-1.32,-2.81,1.73,21.9546,-235.704,10.584,175,75
2026-05-09 16:11:56.211,4,-1.76,-2.93,1.7,5.374599999999999,-220.82399999999998,22.043999999999997,175,75
2026-05-09 16:11:56.221,4,-1.95,-2.13,1.65,-30.845399999999998,-165.704,-27.406000000000002,175,75
2026-05-09 16:11:56.221,4,-1.3,-1.36,1.57,-61.0954,-127.714,-82.046,175,75
2026-05-09 16:11:56.242,4,-0.17,-0.59,1.43,-64.5654,-104.724,2.534,175,75
2026-05-09 16:11:56.242,4,-0.56,-0.41,1.16,-26.575400000000002,-73.444,84.78399999999999,175,75
2026-05-09 16:11:56.266,4,-0.96,-0.7,1.01,25.1246,5.395999999999997,84.78399999999999,175,75
2026-05-09 16:11:56.266,4,-0.8,-1.13,1.17,44.2746,162.286,79.974,175,75
2026-05-09 16:11:56.276,4,-0.56,-1.08,1.47,23.2346,252.65599999999998,89.604,175,75
2026-05-09 16:11:56.300,4,-0.37,-0.85,1.72,16.044600000000003,241.066,75.584,175,75
2026-05-09 16:11:56.300,4,-0.22,-0.62,1.92,18.904600000000002,154.17600000000002,60.583999999999996,175,75
2026-05-09 16:11:56.312,4,-0.29,-0.51,1.93,16.3446,89.666,55.644,175,75
2026-05-09 16:11:56.327,4,-0.44,-0.43,1.83,8.114600000000001,48.385999999999996,43.384,175,75
2026-05-09 16:11:56.336,4,-0.45,-0.29,1.72,2.8146000000000004,38.995999999999995,29.843999999999998,175,75
2026-05-09 16:11:56.356,4,-0.37,-0.06,1.67,0.49460000000000015,39.666,24.424,175,75
2026-05-09 16:11:56.364,4,-0.26,0.4,1.71,0.12459999999999916,33.816,19.604,175,75
2026-05-09 16:11:56.377,4,-0.2,0.63,1.73,1.1646,21.316,15.394,175,75
2026-05-09 16:11:56.388,4,-0.16,0.85,1.72,1.6546000000000003,3.936,11.254,175,75
2026-05-09 16:11:56.406,4,-0.16,0.99,1.68,4.3946000000000005,-6.4940000000000015,8.444,175,75
2026-05-09 16:11:56.413,4,-0.19,1.06,1.62,10.2446,-4.604000000000001,7.224,175,75
2026-05-09 16:11:56.430,4,-0.17,1.04,1.56,18.114600000000003,2.346,6.804,175,75
2026-05-09 16:11:56.433,4,-0.14,0.98,1.49,29.9446,11.736,5.214,175,75
2026-05-09 16:11:56.449,4,-0.13,0.92,1.44,35.9846,15.825999999999997,2.4739999999999998,175,75
2026-05-09 16:11:56.468,4,-0.15,0.82,1.37,39.7046,25.276,-3.446,175,75
2026-05-09 16:11:56.472,4,-0.2,0.72,1.36,41.1646,40.396,-10.155999999999999,175,75
2026-05-09 16:11:56.483,4,-0.21,0.64,1.39,41.0446,51.49600000000001,-18.076,175,75
2026-05-09 16:11:56.500,4,-0.23,0.6,1.48,39.214600000000004,48.07600000000001,-23.866,175,75
2026-05-09 16:11:56.511,4,-0.27,0.58,1.56,37.5646,28.816,-28.136000000000003,175,75
2026-05-09 16:11:56.522,4,-0.28,0.54,1.58,34.824600000000004,0.5760000000000005,-31.736,175,75
2026-05-09 16:11:56.532,4,-0.32,0.44,1.55,30.854600000000005,-27.224,-33.746,175,75
2026-05-09 16:11:56.544,4,-0.4,0.29,1.54,27.8146,-42.344,-35.086,175,75
2026-05-09 16:11:56.563,4,-0.55,0.01,1.55,24.6346,-53.444,-37.526,175,75
2026-05-09 16:11:56.590,4,-0.82,-1.21,1.6,21.1646,-104.604,-38.806000000000004,175,75
2026-05-09 16:11:56.590,4,-0.87,-1.89,1.57,28.6646,-140.454,-26.976000000000003,175,75
2026-05-09 16:11:56.603,4,-1.01,-2.67,1.47,33.0546,-172.404,-11.676,175,75
2026-05-09 16:11:56.621,4,-1.34,-2.74,1.48,12.3846,-170.704,-22.106,175,75
2026-05-09 16:11:56.629,4,-1.41,-1.97,1.54,-38.4054,-136.494,-66.736,175,75
2026-05-09 16:11:56.639,4,-0.89,-1.23,1.57,-71.2754,-108.75399999999999,-65.636,175,75
2026-05-09 16:11:56.655,4,-0.7,-0.74,1.39,-54.145399999999995,-84.354,17.043999999999997,175,75
2026-05-09 16:11:56.665,4,-0.91,-0.86,1.18,-6.0954,-34.354,45.333999999999996,175,75
2026-05-09 16:11:56.687,4,-0.86,-1.12,1.21,9.274600000000001,56.986000000000004,47.774,175,75
2026-05-09 16:11:56.702,4,-0.38,-0.59,1.54,-23.4054,151.796,38.144,175,75
2026-05-09 16:11:56.718,4,-0.24,-0.05,1.71,-20.4854,127.406,32.714,175,75
2026-05-09 16:11:56.761,4,-0.17,1.66,1.82,-10.6654,45.706,19.543999999999997,175,75
2026-05-09 16:11:56.786,4,-0.16,0.9,1.6,20.9846,31.496,32.474,175,75
2026-05-09 16:11:56.795,4,-0.09,0.77,1.6,15.0646,39.605999999999995,26.733999999999998,175,75
2026-05-09 16:11:56.810,4,-0.05,0.83,1.65,6.1646,51.49600000000001,18.933999999999997,175,75
2026-05-09 16:11:56.810,4,0.02,0.98,1.72,0.6745999999999999,57.836,11.374,175,75
2026-05-09 16:11:56.831,4,0.06,1.03,1.76,4.5746,38.93599999999999,4.974,175,75
2026-05-09 16:11:56.831,4,-0.04,0.86,1.74,10.1246,6.065999999999999,1.004,175,75
2026-05-09 16:11:56.877,4,-0.62,-0.62,1.35,24.0246,-3.934000000000001,-24.726000000000003,175,75
2026-05-09 16:11:56.892,4,-0.72,-0.97,1.41,30.004600000000003,-0.03400000000000247,-29.356,175,75
2026-05-09 16:11:56.898,4,-0.86,-1.2,1.54,29.334600000000002,-7.1640000000000015,-29.846,175,75
2026-05-09 16:11:56.910,4,-1.11,-1.4,1.82,20.794600000000003,-35.824,-33.566,175,75
2026-05-09 16:11:56.919,4,-1.25,-1.16,2.01,-4.3254,-91.854,-52.896,175,75
2026-05-09 16:11:56.935,4,-1.06,-0.65,2.0,-41.5154,-163.444,-64.116,175,75
2026-05-09 16:11:56.957,4,-1.08,-0.33,1.56,-41.9454,-181.554,-20.156000000000002,175,75
2026-05-09 16:11:56.959,4,-1.21,-0.54,1.35,-12.0654,-116.184,0.034000000000000016,175,75
2026-05-09 16:11:56.973,4,-1.2,-0.82,1.35,5.0046,-39.964,13.084,175,75
2026-05-09 16:11:56.996,4,-1.13,-0.91,1.48,4.0245999999999995,9.175999999999998,16.314,175,75
2026-05-09 16:11:56.996,4,-1.06,-0.79,1.61,1.5245999999999995,18.145999999999997,13.814,175,75
2026-05-09 16:11:57.021,4,-0.9,-0.49,1.68,13.054599999999999,-24.174,16.613999999999997,175,75
2026-05-09 16:11:57.021,4,-0.92,-0.45,1.61,18.114600000000003,-34.484,20.884,175,75
2026-05-09 16:11:57.034,4,-0.92,-0.45,1.53,19.6346,-27.654,22.163999999999998,175,75
2026-05-09 16:11:57.050,4,-0.85,-0.42,1.47,17.934600000000003,-9.174000000000001,23.694,175,75
2026-05-09 16:11:57.060,4,-0.7,-0.27,1.44,12.9946,19.545999999999996,27.343999999999998,175,75
2026-05-09 16:11:57.065,4,-0.57,-0.12,1.49,10.3746,37.536,29.663999999999998,175,75
2026-05-09 16:11:57.099,4,-0.37,0.14,1.57,5.554599999999999,33.206,25.944,175,75
2026-05-09 16:11:57.111,4,-0.33,0.26,1.58,2.134599999999999,21.435999999999996,21.804,175,75
2026-05-09 16:11:57.117,4,-0.3,0.41,1.59,0.18459999999999965,11.675999999999998,17.654,175,75
2026-05-09 16:11:57.123,4,-0.27,0.54,1.59,0.18459999999999965,4.425999999999998,15.094000000000001,175,75
2026-05-09 16:11:57.137,4,-0.24,0.69,1.58,1.8346,-4.2940000000000005,13.444,175,75
2026-05-09 16:11:57.149,4,-0.2,0.85,1.56,4.3346,-16.924,12.044,175,75
2026-05-09 16:11:57.157,4,-0.2,0.94,1.52,6.284599999999999,-22.224,11.614,175,75
2026-05-09 16:11:57.169,4,-0.22,1.02,1.49,8.2946,-20.944000000000003,10.944,175,75
2026-05-09 16:11:57.180,4,-0.22,1.09,1.49,10.734599999999999,-11.434000000000001,11.004,175,75
2026-05-09 16:11:57.190,4,-0.25,1.11,1.53,13.234599999999999,-2.0440000000000005,11.554,175,75
2026-05-09 16:11:57.214,4,-0.3,1.08,1.61,15.2446,-1.0040000000000013,14.784,175,75
2026-05-09 16:11:57.224,4,-0.36,0.82,1.68,13.114600000000001,-29.354,19.363999999999997,175,75
2026-05-09 16:11:57.239,4,-0.4,0.64,1.65,12.2646,-43.144000000000005,20.453999999999997,175,75
2026-05-09 16:11:57.251,4,-0.5,0.27,1.55,15.0646,-40.513999999999996,21.924,175,75
2026-05-09 16:11:57.273,4,-0.58,-0.29,1.47,22.2046,-27.164,18.503999999999998,175,75
2026-05-09 16:11:57.273,4,-0.64,-0.76,1.43,27.684600000000003,-19.784000000000002,14.604000000000001,175,75
2026-05-09 16:11:57.284,4,-0.78,-1.38,1.47,31.104600000000005,-21.004,14.234,175,75
2026-05-09 16:11:57.295,4,-0.93,-1.91,1.56,29.4546,-35.884,23.753999999999998,175,75
2026-05-09 16:11:57.298,4,-1.1,-2.46,1.64,27.504600000000003,-50.704,40.524,175,75
2026-05-09 16:11:57.315,4,-1.35,-2.5,1.68,4.5746,-74.544,24.363999999999997,175,75
2026-05-09 16:11:57.333,4,-0.53,-1.25,1.58,-71.0954,-61.254000000000005,-13.866,175,75
2026-05-09 16:11:57.348,4,-0.45,-0.85,1.43,-74.0754,-26.184,45.824,175,75
2026-05-09 16:11:57.366,4,-0.78,-0.95,1.39,-9.205400000000001,105.886,69.17399999999999,175,75
2026-05-09 16:11:57.376,4,-0.67,-0.93,1.58,-12.0654,157.776,72.894,175,75
2026-05-09 16:11:57.385,4,-0.44,-0.66,1.8,-23.775399999999998,166.376,62.414,175,75
2026-05-09 16:11:57.397,4,-0.3,-0.37,1.89,-24.8154,124.11600000000001,48.634,175,75
2026-05-09 16:11:57.410,4,-0.27,-0.08,1.87,-22.3754,68.686,42.044,175,75
2026-05-09 16:11:57.431,4,-0.33,0.08,1.76,-19.8154,42.346000000000004,35.644,175,75
2026-05-09 16:11:57.431,4,-0.35,0.17,1.59,-18.165399999999998,38.016000000000005,25.154,175,75
2026-05-09 16:11:57.443,4,-0.33,0.22,1.44,-19.075400000000002,55.21600000000001,16.374,175,75
2026-05-09 16:11:57.456,4,-0.32,0.27,1.39,-19.2654,86.436,9.364,175,75
2026-05-09 16:11:57.490,4,-0.18,0.6,1.55,6.594599999999998,134.17600000000002,3.564,175,75
2026-05-09 16:11:57.500,4,-0.15,0.68,1.6,12.504599999999998,123.326,-0.45599999999999996,175,75
2026-05-09 16:11:57.510,4,-0.15,0.74,1.62,14.454600000000001,112.46600000000001,-5.276,175,75
2026-05-09 16:11:57.524,4,-0.15,0.82,1.6,14.6346,95.396,-18.386000000000003,175,75
2026-05-09 16:11:57.538,4,-0.12,0.83,1.58,16.1646,85.276,-24.116,175,75
2026-05-09 16:11:57.550,4,-0.13,0.82,1.56,17.2646,71.186,-30.396,175,75
2026-05-09 16:11:57.567,4,-0.19,0.76,1.56,16.464599999999997,60.156000000000006,-38.806000000000004,175,75
2026-05-09 16:11:57.567,4,-0.2,0.69,1.58,17.1346,49.60600000000001,-47.896,175,75
2026-05-09 16:11:57.583,4,-0.19,0.58,1.59,20.3746,21.435999999999996,-57.286,175,75
2026-05-09 16:11:57.593,4,-0.23,0.5,1.6,19.8846,-20.574,-66.856,175,75
2026-05-09 16:11:57.609,4,-0.3,0.42,1.58,14.3346,-65.094,-76.006,175,75
2026-05-09 16:11:57.629,4,-0.55,0.28,1.52,-2.3754,-118.444,-89.606,175,75
2026-05-09 16:11:57.635,4,-0.63,0.26,1.52,-10.8454,-120.824,-89.906,175,75
2026-05-09 16:11:57.652,4,-0.68,0.21,1.5,-17.6154,-118.814,-87.226,175,75
2026-05-09 16:11:57.653,4,-0.76,0.1,1.53,-20.7254,-118.204,-82.586,175,75
2026-05-09 16:11:57.675,4,-1.02,-0.53,1.61,-13.1054,-95.334,-71.496,175,75
2026-05-09 16:11:57.692,4,-1.05,-0.98,1.66,-3.9554,-86.374,-62.836,175,75
2026-05-09 16:11:57.700,4,-1.02,-1.49,1.68,6.224600000000001,-105.824,-49.296,175,75
2026-05-09 16:11:57.711,4,-1.1,-1.95,1.69,11.6546,-143.564,-36.916000000000004,175,75
2026-05-09 16:11:57.727,4,-1.32,-2.14,1.69,7.684600000000001,-160.274,-32.106,175,75
2026-05-09 16:11:57.727,4,-1.46,-1.77,1.63,-14.5654,-137.774,-45.756,175,75
2026-05-09 16:11:57.738,4,-1.2,-1.3,1.54,-28.2254,-120.824,-47.956,175,75
2026-05-09 16:11:57.759,4,-0.97,-1.05,1.33,-11.275400000000001,-101.494,-2.586,175,75
2026-05-09 16:11:57.771,4,-1.03,-1.18,1.14,17.0146,-48.994,29.604,175,75
2026-05-09 16:11:57.789,4,-1.01,-1.34,1.11,25.5546,24.426,40.454,175,75
2026-05-09 16:11:57.789,4,-0.83,-1.31,1.17,15.614600000000001,89.666,41.804,175,75
2026-05-09 16:11:57.793,4,-0.6,-1.1,1.28,2.2045999999999992,130.64600000000002,42.714,175,75
2026-05-09 16:11:57.798,4,-0.42,-0.83,1.41,-4.385400000000001,140.766,43.504,175,75
2026-05-09 16:11:57.830,4,-0.19,-0.03,1.75,-11.035400000000001,96.926,41.744,175,75
2026-05-09 16:11:57.842,4,-0.14,0.47,1.86,-16.825400000000002,70.036,35.583999999999996,175,75
2026-05-09 16:11:57.873,4,-0.03,1.51,1.75,-3.8954000000000004,-3.3240000000000016,25.394,175,75
2026-05-09 16:11:57.890,4,-0.03,1.32,1.6,11.894599999999999,7.776,27.654,175,75
2026-05-09 16:11:57.901,4,0.02,1.07,1.52,20.924599999999998,26.066,29.054,175,75
2026-05-09 16:11:57.912,4,0.09,0.92,1.5,20.1246,44.056,23.444,175,75
2026-05-09 16:11:57.917,4,0.11,0.95,1.53,12.7446,53.016000000000005,14.304,175,75
2026-05-09 16:11:57.950,4,0.09,0.99,1.57,6.4046,53.266000000000005,5.094,175,75
2026-05-09 16:11:57.955,4,0.0,0.88,1.6,6.224600000000001,41.245999999999995,0.274,175,75
2026-05-09 16:11:57.955,4,-0.12,0.56,1.57,13.1746,18.446,-4.055999999999999,175,75
2026-05-09 16:11:57.970,4,-0.2,0.3,1.51,17.1346,3.565999999999999,-10.216,175,75
2026-05-09 16:11:57.977,4,-0.31,-0.07,1.43,20.1246,-6.7940000000000005,-19.296000000000003,175,75
2026-05-09 16:11:57.993,4,-0.59,-0.66,1.47,22.2046,-8.934000000000001,-30.886000000000003,175,75
2026-05-09 16:11:58.007,4,-0.66,-0.89,1.53,19.7646,-25.154,-34.056000000000004,175,75
2026-05-09 16:11:58.020,4,-0.75,-1.11,1.6,10.184600000000001,-64.664,-38.446,175,75
2026-05-09 16:11:58.031,4,-0.93,-1.18,1.6,-9.6254,-109.844,-44.726,175,75
2026-05-09 16:11:58.095,4,-1.02,-0.71,1.38,-1.8854000000000006,-15.454,10.094000000000001,175,75
2026-05-09 16:11:58.111,4,-1.08,-0.94,1.58,4.0946,-5.214,17.043999999999997,175,75
2026-05-09 16:11:58.118,4,-1.07,-0.81,1.63,2.874599999999999,-5.824000000000002,17.474,175,75
2026-05-09 16:11:58.140,4,-1.0,-0.66,1.63,8.2946,-16.554000000000002,21.433999999999997,175,75
2026-05-09 16:11:58.140,4,-0.95,-0.59,1.61,11.6546,-22.894000000000002,25.453999999999997,175,75
2026-05-09 16:11:58.159,4,-0.89,-0.51,1.54,12.3846,-18.994,30.644,175,75
2026-05-09 16:11:58.159,4,-0.82,-0.46,1.5,11.774600000000001,-7.1640000000000015,33.873999999999995,175,75
2026-05-09 16:11:58.169,4,-0.67,-0.35,1.46,11.8346,12.715999999999998,36.984,175,75
2026-05-09 16:11:58.185,4,-0.58,-0.28,1.44,11.464599999999999,25.096,37.534,175,75
2026-05-09 16:11:58.185,4,-0.51,-0.21,1.43,11.2246,34.236000000000004,36.373999999999995,175,75
2026-05-09 16:11:58.204,4,-0.43,-0.11,1.43,10.8546,42.956,31.674,175,75
2026-05-09 16:11:58.222,4,-0.3,0.1,1.4,6.524600000000001,45.57600000000001,18.694,175,75
2026-05-09 16:11:58.240,4,-0.27,0.19,1.4,4.214599999999999,43.995999999999995,14.664,175,75
2026-05-09 16:11:58.255,4,-0.22,0.42,1.39,0.06460000000000043,40.706,6.2540000000000004,175,75
2026-05-09 16:11:58.266,4,-0.19,0.56,1.4,-2.8654,40.456,2.284,175,75
2026-05-09 16:11:58.277,4,-0.18,0.72,1.44,-4.9354000000000005,42.715999999999994,-0.27599999999999997,175,75
2026-05-09 16:11:58.305,4,-0.14,1.03,1.59,-3.8954000000000004,37.166,-3.196,175,75
2026-05-09 16:11:58.315,4,-0.11,1.15,1.65,-4.2054,21.126,-6.366,175,75
2026-05-09 16:11:58.349,4,-0.17,1.14,1.74,-3.4754000000000005,-34.234,-14.786,175,75
2026-05-09 16:11:58.349,4,-0.24,0.99,1.71,-3.1654,-59.784000000000006,-16.496000000000002,175,75
2026-05-09 16:11:58.379,4,-0.33,0.75,1.62,-3.5954000000000006,-88.50399999999999,-14.846,175,75
2026-05-09 16:11:58.379,4,-0.47,0.36,1.47,-0.6654,-91.92399999999999,-9.296,175,75
2026-05-09 16:11:58.390,4,-0.6,-0.2,1.31,8.844599999999998,-65.944,-9.725999999999999,175,75
2026-05-09 16:11:58.402,4,-0.62,-0.97,1.27,21.3446,-22.954,-14.296,175,75
2026-05-09 16:11:58.415,4,-0.6,-1.58,1.33,24.8846,-5.334000000000001,-13.136,175,75
2026-05-09 16:11:58.430,4,-0.61,-2.16,1.47,22.2046,-22.654,-5.156,175,75
2026-05-09 16:11:58.457,4,-1.01,-1.58,1.75,-28.535400000000003,-123.324,-57.896,175,75
2026-05-09 16:11:58.480,4,-0.55,-0.78,1.16,-57.4954,-101.064,24.543999999999997,175,75
2026-05-09 16:11:58.500,4,-0.84,-0.99,0.86,-14.935400000000001,18.266000000000002,46.614,175,75
2026-05-09 16:11:58.500,4,-0.79,-1.25,0.98,3.9046000000000003,126.066,54.054,175,75
2026-05-09 16:11:58.520,4,-0.62,-1.21,1.43,-5.1154,210.516,57.774,175,75
2026-05-09 16:11:58.532,4,-0.49,-0.96,1.75,-11.8254,196.92600000000002,43.634,175,75
2026-05-09 16:11:58.532,4,-0.34,-0.66,1.97,-10.9054,132.536,27.043999999999997,175,75
2026-05-09 16:11:58.545,4,-0.28,-0.43,2.03,-9.5654,63.99600000000001,17.834,175,75
2026-05-09 16:11:58.562,4,-0.31,-0.0,1.83,-12.7954,-23.504,2.2239999999999998,175,75
2026-05-09 16:11:58.607,4,-0.3,0.16,1.71,-14.205400000000001,-27.954,-2.286,175,75
2026-05-09 16:11:58.607,4,-0.2,0.45,1.56,-5.7854,-1.314,-3.686,175,75
2026-05-09 16:11:58.618,4,-0.08,0.56,1.59,7.9946,9.486,-9.905999999999999,175,75
2026-05-09 16:11:58.626,4,-0.08,0.62,1.59,8.6046,5.035999999999998,-16.186,175,75
2026-05-09 16:11:58.646,4,-0.09,0.69,1.55,8.5446,1.9259999999999984,-21.556,175,75
2026-05-09 16:11:58.654,4,-0.12,0.84,1.42,11.594599999999998,5.885999999999999,-29.416,175,75
2026-05-09 16:11:58.668,4,-0.14,0.89,1.34,14.574599999999998,18.816,-31.366,175,75
2026-05-09 16:11:58.680,4,-0.18,0.89,1.27,18.724600000000002,44.486000000000004,-32.106,175,75
2026-05-09 16:11:58.692,4,-0.17,0.85,1.22,24.2746,76.986,-34.176,175,75
2026-05-09 16:11:58.702,4,-0.17,0.76,1.22,27.504600000000003,101.616,-37.226,175,75
2026-05-09 16:11:58.716,4,-0.16,0.65,1.24,27.9946,121.856,-44.606,175,75
2026-05-09 16:11:58.730,4,-0.16,0.57,1.28,26.044600000000003,132.286,-52.586,175,75
2026-05-09 16:11:58.740,4,-0.16,0.51,1.36,23.964600000000004,132.956,-61.736000000000004,175,75
2026-05-09 16:11:58.747,4,-0.16,0.44,1.47,20.674599999999998,113.99600000000001,-72.226,175,75
2026-05-09 16:11:58.759,4,-0.17,0.36,1.56,15.7946,76.556,-81.676,175,75
2026-05-09 16:11:58.774,4,-0.2,0.31,1.61,11.8346,41.79599999999999,-88.566,175,75
2026-05-09 16:11:58.774,4,-0.23,0.23,1.61,7.504599999999998,3.0760000000000005,-93.016,175,75
2026-05-09 16:11:58.787,4,-0.26,0.1,1.58,1.2845999999999993,-33.074,-95.456,175,75
2026-05-09 16:11:58.795,4,-0.31,-0.13,1.5,-5.9754000000000005,-62.714,-98.446,175,75
2026-05-09 16:11:58.811,4,-0.37,-0.41,1.43,-10.9754,-73.324,-101.916,175,75
2026-05-09 16:11:58.822,4,-0.42,-0.77,1.39,-15.4854,-72.654,-101.306,175,75
2026-05-09 16:11:58.834,4,-0.45,-1.11,1.4,-18.8354,-70.094,-95.696,175,75
2026-05-09 16:11:58.834,4,-0.46,-1.48,1.42,-19.6254,-81.854,-86.556,175,75
2026-05-09 16:11:58.847,4,-0.47,-1.78,1.47,-20.4254,-110.884,-77.526,175,75
2026-05-09 16:11:58.859,4,-0.55,-1.93,1.48,-26.035400000000003,-142.594,-72.956,175,75
2026-05-09 16:11:58.870,4,-0.62,-1.75,1.36,-39.995400000000004,-153.814,-73.566,175,75
2026-05-09 16:11:58.880,4,-0.57,-1.32,1.17,-49.7554,-115.944,-57.286,175,75
2026-05-09 16:11:58.893,4,-0.61,-1.08,1.0,-33.7154,-31.314,-12.895999999999999,175,75
2026-05-09 16:11:58.904,4,-0.68,-1.1,0.94,-11.8254,42.956,17.043999999999997,175,75
2026-05-09 16:11:58.923,4,-0.69,-1.23,1.08,11.714599999999999,145.156,47.284,175,75
2026-05-09 16:11:58.923,4,-0.61,-1.22,1.34,18.424599999999998,205.276,63.754,175,75
2026-05-09 16:11:58.939,4,-0.48,-1.08,1.68,25.614600000000003,220.64600000000002,71.064,175,75
2026-05-09 16:11:58.951,4,-0.33,-0.9,1.92,38.4246,180.156,67.774,175,75
2026-05-09 16:11:58.972,4,-0.17,-0.59,1.96,40.0046,77.596,47.414,175,75
2026-05-09 16:11:58.998,4,-0.1,-0.33,1.85,35.6746,37.465999999999994,34.914,175,75
2026-05-09 16:11:58.998,4,-0.04,0.02,1.76,34.4546,11.986,25.944,175,75
2026-05-09 16:11:59.008,4,-0.0,0.34,1.73,33.1746,-0.2740000000000009,22.284,175,75
2026-05-09 16:11:59.020,4,0.02,0.84,1.7,31.5946,-7.344000000000001,17.834,175,75
2026-05-09 16:11:59.034,4,-0.01,1.23,1.7,34.0246,-8.324000000000002,16.924,175,75
2026-05-09 16:11:59.044,4,-0.1,1.43,1.66,44.7646,-8.684000000000001,18.084,175,75
2026-05-09 16:11:59.061,4,-0.15,1.35,1.58,54.0246,-5.644000000000002,22.953999999999997,175,75
2026-05-09 16:11:59.064,4,-0.17,1.14,1.48,57.44460000000001,5.035999999999998,27.284,175,75
2026-05-09 16:11:59.075,4,-0.18,0.91,1.37,57.2646,22.465999999999998,29.054,175,75
2026-05-09 16:11:59.091,4,-0.19,0.73,1.27,52.3846,58.93600000000001,25.944,175,75
2026-05-09 16:11:59.104,4,-0.21,0.71,1.25,48.0546,97.286,24.233999999999998,175,75
2026-05-09 16:11:59.104,4,-0.25,0.74,1.3,48.1746,140.826,26.134,175,75
2026-05-09 16:11:59.120,4,-0.3,0.71,1.45,57.8146,169.906,30.884,175,75
2026-05-09 16:11:59.137,4,-0.35,0.58,1.59,65.3146,162.166,35.153999999999996,175,75
2026-05-09 16:11:59.151,4,-0.41,0.41,1.66,67.2646,140.886,34.844,175,75
2026-05-09 16:11:59.151,4,-0.47,0.18,1.65,66.2846,113.26599999999999,30.093999999999998,175,75
2026-05-09 16:11:59.160,4,-0.53,-0.05,1.59,65.9246,96.24600000000001,25.584,175,75
2026-05-09 16:11:59.174,4,-0.63,-0.35,1.51,68.2346,91.126,22.894,175,75
2026-05-09 16:11:59.186,4,-0.69,-0.75,1.43,72.9346,93.936,20.334,175,75
2026-05-09 16:11:59.201,4,-0.8,-1.48,1.39,75.3746,94.546,28.144,175,75
2026-05-09 16:11:59.210,4,-0.87,-1.66,1.44,71.8946,85.036,31.194,175,75
2026-05-09 16:11:59.225,4,-0.91,-1.67,1.48,62.134600000000006,69.296,27.224,175,75
2026-05-09 16:11:59.240,4,-0.84,-1.48,1.45,41.894600000000004,48.146,18.634,175,75
2026-05-09 16:11:59.240,4,-0.67,-1.23,1.32,25.0646,38.266000000000005,23.564,175,75
2026-05-09 16:11:59.252,4,-0.62,-1.09,1.14,25.0646,58.68600000000001,40.763999999999996,175,75
2026-05-09 16:11:59.265,4,-0.65,-1.04,1.03,29.6346,115.51599999999999,54.724,175,75
2026-05-09 16:11:59.295,4,-0.61,-0.97,1.12,24.8846,189.42600000000002,61.434,175,75
2026-05-09 16:11:59.306,4,-0.53,-0.89,1.25,20.004599999999996,219.42600000000002,62.044,175,75
2026-05-09 16:11:59.306,4,-0.47,-0.8,1.37,19.154600000000002,221.736,59.844,175,75
2026-05-09 16:11:59.306,4,-0.42,-0.7,1.47,20.924599999999998,203.206,55.034,175,75
2026-05-09 16:11:59.332,4,-0.35,-0.43,1.45,22.2646,155.766,39.114,175,75
2026-05-09 16:11:59.344,4,-0.31,-0.25,1.39,24.2746,159.666,33.324,175,75
2026-05-09 16:11:59.360,4,-0.2,0.02,1.37,27.8146,171.856,23.634,175,75
2026-05-09 16:11:59.378,4,-0.18,0.13,1.39,27.0146,173.816,16.863999999999997,175,75
2026-05-09 16:11:59.378,4,-0.17,0.24,1.39,26.044600000000003,174.606,10.944,175,75
2026-05-09 16:11:59.400,4,-0.19,0.38,1.39,25.794600000000003,175.766,4.174,175,75
2026-05-09 16:11:59.400,4,-0.19,0.48,1.39,26.224600000000002,175.39600000000002,-1.066,175,75
2026-05-09 16:11:59.420,4,-0.22,0.57,1.39,26.5246,176.006,-4.965999999999999,175,75
2026-05-09 16:11:59.435,4,-0.27,0.69,1.44,26.5946,179.17600000000002,-6.856,175,75
2026-05-09 16:11:59.449,4,-0.27,0.83,1.53,28.354600000000005,182.166,-8.565999999999999,175,75
2026-05-09 16:11:59.461,4,-0.24,0.93,1.6,31.3446,176.736,-8.996,175,75
2026-05-09 16:11:59.472,4,-0.19,1.05,1.7,38.354600000000005,157.166,-10.575999999999999,175,75
2026-05-09 16:11:59.483,4,-0.14,1.13,1.74,46.284600000000005,125.76599999999999,-12.895999999999999,175,75
2026-05-09 16:11:59.483,4,-0.12,1.14,1.74,52.9346,98.386,-15.276,175,75
2026-05-09 16:11:59.489,4,-0.1,1.1,1.7,60.7946,75.036,-18.076,175,75
2026-05-09 16:11:59.501,4,-0.09,0.99,1.62,71.16460000000001,58.206,-20.766000000000002,175,75
2026-05-09 16:11:59.507,4,-0.14,0.81,1.57,83.3546,49.846000000000004,-24.966,175,75
2026-05-09 16:11:59.525,4,-0.22,0.6,1.55,94.8846,43.446,-32.466,175,75
2026-05-09 16:11:59.527,4,-0.4,0.36,1.57,100.2446,32.105999999999995,-38.806000000000004,175,75
2026-05-09 16:11:59.541,4,-0.52,0.08,1.51,104.2146,20.706,-42.346000000000004,175,75
2026-05-09 16:11:59.575,4,-0.65,-1.31,1.07,135.3146,34.116,-68.136,175,75
2026-05-09 16:11:59.575,4,-0.88,-2.33,1.13,138.8446,34.29599999999999,-64.356,175,75
2026-05-09 16:11:59.600,4,-1.6,-2.92,1.5,123.2946,35.766000000000005,-28.136000000000003,175,75
2026-05-09 16:11:59.611,4,-2.61,-2.43,1.92,93.8446,2.225999999999999,-32.046,175,75
2026-05-09 16:11:59.611,4,-2.78,-1.92,1.93,47.074600000000004,-50.214,-102.166,175,75
2026-05-09 16:11:59.623,4,-2.14,-1.67,1.68,-29.0154,-107.834,-211.066,175,75
2026-05-09 16:11:59.636,4,-0.64,-1.39,1.58,-84.7554,-97.714,-203.746,175,75
2026-05-09 16:11:59.646,4,-0.33,-0.77,1.33,-110.05539999999999,-38.204,-19.056,175,75
2026-05-09 16:11:59.658,4,-1.29,-0.63,1.07,-63.285399999999996,71.926,42.594,175,75
2026-05-09 16:11:59.669,4,-1.3,-0.76,1.26,-15.9054,131.556,-1.736,175,75
2026-05-09 16:11:59.676,4,-0.92,-0.68,1.69,-12.9854,161.556,9.054,175,75
2026-05-09 16:11:59.706,4,-0.79,-0.42,1.8,-26.705399999999997,160.036,33.204,175,75
2026-05-09 16:11:59.707,4,-0.74,-0.08,1.8,-18.345399999999998,112.166,22.953999999999997,175,75
2026-05-09 16:11:59.721,4,-0.65,0.4,1.6,27.504600000000003,80.886,23.264,175,75
2026-05-09 16:11:59.733,4,-0.66,0.49,1.49,42.0146,114.356,21.433999999999997,175,75
2026-05-09 16:11:59.748,4,-0.55,0.51,1.47,56.2846,150.946,24.483999999999998,175,75
2026-05-09 16:11:59.760,4,-0.46,0.5,1.56,64.6346,167.956,30.453999999999997,175,75
2026-05-09 16:11:59.773,4,-0.37,0.49,1.63,64.2746,152.956,31.984,175,75
2026-05-09 16:11:59.773,4,-0.27,0.51,1.67,55.6746,110.76599999999999,29.604,175,75
2026-05-09 16:11:59.793,4,-0.24,0.58,1.6,37.5046,48.266000000000005,25.884,175,75
2026-05-09 16:11:59.803,4,-0.24,0.65,1.45,27.2646,14.725999999999996,19.724,175,75
2026-05-09 16:11:59.807,4,-0.23,0.72,1.32,22.684600000000003,16.376,18.814,175,75
2026-05-09 16:11:59.818,4,-0.22,0.75,1.12,21.044600000000003,43.07599999999999,22.593999999999998,175,75
2026-05-09 16:11:59.847,4,-0.19,0.74,1.05,13.844599999999998,111.79599999999999,21.613999999999997,175,75
2026-05-09 16:11:59.855,4,-0.21,0.72,1.14,12.684600000000001,149.546,20.214,175,75
2026-05-09 16:11:59.867,4,-0.17,0.7,1.25,18.424599999999998,161.436,17.593999999999998,175,75
2026-05-09 16:11:59.888,4,-0.18,0.67,1.31,21.9546,155.036,12.834,175,75
2026-05-09 16:11:59.888,4,-0.19,0.62,1.37,24.154600000000002,141.92600000000002,4.604,175,75
2026-05-09 16:11:59.906,4,-0.22,0.6,1.4,26.404600000000002,127.71600000000001,-1.796,175,75
2026-05-09 16:11:59.906,4,-0.27,0.6,1.43,32.074600000000004,108.016,-8.506,175,75
2026-05-09 16:11:59.929,4,-0.33,0.59,1.43,36.9546,89.60600000000001,-11.186,175,75
2026-05-09 16:11:59.929,4,-0.4,0.56,1.4,43.1146,70.21600000000001,-12.895999999999999,175,75
2026-05-09 16:11:59.948,4,-0.57,0.4,1.23,51.6546,38.93599999999999,-15.766,175,75
2026-05-09 16:11:59.948,4,-0.73,0.21,1.03,56.104600000000005,29.355999999999998,-17.106,175,75
2026-05-09 16:11:59.981,4,-1.23,-0.53,0.59,72.6846,129.116,-7.045999999999999,175,75
2026-05-09 16:11:59.986,4,-1.39,-1.04,0.62,73.2346,215.516,2.954,175,75
2026-05-09 16:12:00.000,4,-1.43,-1.55,0.94,59.0946,282.286,9.914,175,75
2026-05-09 16:12:00.010,4,-1.56,-1.79,1.38,36.8346,276.736,16.674,175,75
2026-05-09 16:12:00.021,4,-1.83,-1.73,1.84,11.344599999999998,181.316,-3.566,175,75
2026-05-09 16:12:00.042,4,-2.01,-1.55,2.09,-22.7954,39.666,-47.046,175,75
2026-05-09 16:12:00.059,4,-1.54,-0.93,1.98,-129.3854,-142.344,-68.866,175,75
2026-05-09 16:12:00.067,4,-1.25,-0.54,1.62,-145.4854,-188.144,-29.666,175,75
2026-05-09 16:12:00.090,4,-1.15,-0.37,1.28,-118.2854,-180.454,-13.266,175,75
2026-05-09 16:12:00.090,4,-0.94,-0.32,1.05,-82.2554,-123.684,-11.006,175,75
2026-05-09 16:12:00.108,4,-0.75,-0.23,0.95,-55.175399999999996,-56.434,-0.8260000000000001,175,75
2026-05-09 16:12:00.108,4,-0.66,-0.09,0.93,-29.2654,31.435999999999996,6.674,175,75
2026-05-09 16:12:00.120,4,-0.58,0.05,1.05,-9.6854,106.126,5.3340000000000005,175,75
2026-05-09 16:12:00.137,4,-0.53,0.24,1.33,5.4946,173.566,7.774,175,75
2026-05-09 16:12:00.149,4,-0.49,0.39,1.61,11.344599999999998,192.226,7.894,175,75
2026-05-09 16:12:00.149,4,-0.48,0.51,1.85,14.5146,174.546,2.654,175,75
2026-05-09 16:12:00.182,4,-0.48,0.7,2.11,7.9946,108.936,-4.906,175,75
2026-05-09 16:12:00.182,4,-0.48,0.85,2.2,-3.2854,55.275999999999996,-6.366,175,75
2026-05-09 16:12:00.197,4,-0.33,1.18,2.12,-25.3654,-38.684,-2.046,175,75
2026-05-09 16:12:00.206,4,-0.23,1.33,1.88,-20.785400000000003,-63.81400000000001,10.644,175,75
2026-05-09 16:12:00.237,4,-0.27,1.03,1.34,4.0245999999999995,2.105999999999998,48.754,175,75
2026-05-09 16:12:00.250,4,-0.33,0.78,1.23,7.5646,42.775999999999996,52.954,175,75
2026-05-09 16:12:00.261,4,-0.38,0.45,1.11,12.4446,93.74600000000001,51.064,175,75
2026-05-09 16:12:00.275,4,-0.45,0.09,1.04,19.7046,141.006,41.804,175,75
2026-05-09 16:12:00.275,4,-0.53,-0.3,1.03,30.5546,171.556,27.953999999999997,175,75
2026-05-09 16:12:00.297,4,-0.67,-0.63,1.06,40.2446,177.286,16.733999999999998,175,75
2026-05-09 16:12:00.309,4,-0.93,-1.02,1.14,52.2046,159.846,8.694,175,75
2026-05-09 16:12:00.309,4,-1.22,-1.25,1.26,63.1746,131.006,18.084,175,75
2026-05-09 16:12:00.319,4,-1.42,-1.42,1.33,73.1146,97.406,25.154,175,75
2026-05-09 16:12:00.329,4,-1.55,-1.46,1.41,77.5046,27.715999999999998,7.654000000000001,175,75
2026-05-09 16:12:00.340,4,-1.49,-1.3,1.41,62.2046,-36.254000000000005,-32.836,175,75
2026-05-09 16:12:00.364,4,-0.9,-0.89,1.36,13.5446,-100.944,-66.186,175,75
2026-05-09 16:12:00.364,4,-0.58,-0.53,1.19,-24.3854,-113.074,-14.905999999999999,175,75
2026-05-09 16:12:00.377,4,-0.89,-0.47,0.83,-36.8254,-94.114,14.114,175,75
2026-05-09 16:12:00.387,4,-0.96,-0.72,0.66,-24.4454,-43.934,-1.006,175,75
2026-05-09 16:12:00.398,4,-0.93,-0.87,0.69,-20.1154,22.956,8.084,175,75
2026-05-09 16:12:00.408,4,-1.03,-0.82,0.82,-21.095399999999998,82.71600000000001,17.654,175,75
2026-05-09 16:12:00.421,4,-1.05,-0.63,1.03,-16.1554,125.64600000000002,10.394,175,75
2026-05-09 16:12:00.438,4,-0.74,-0.27,1.4,0.49460000000000015,98.266,6.3740000000000006,175,75
2026-05-09 16:12:00.445,4,-0.72,-0.13,1.46,4.944599999999999,61.24600000000001,7.954000000000001,175,75
2026-05-09 16:12:00.460,4,-0.69,-0.02,1.45,7.444599999999999,44.666,1.924,175,75
2026-05-09 16:12:00.475,4,-0.63,0.13,1.44,9.1546,43.876000000000005,-0.39599999999999996,175,75
2026-05-09 16:12:00.495,4,-0.58,0.26,1.42,12.5646,45.57600000000001,-2.046,175,75
2026-05-09 16:12:00.495,4,-0.56,0.37,1.44,16.834600000000002,47.10600000000001,-4.726,175,75
2026-05-09 16:12:00.505,4,-0.53,0.47,1.47,21.654600000000002,51.85600000000001,-6.555999999999999,175,75
2026-05-09 16:12:00.505,4,-0.49,0.55,1.51,27.2046,54.846000000000004,-9.176,175,75
2026-05-09 16:12:00.522,4,-0.43,0.62,1.54,33.9046,49.056,-14.296,175,75
2026-05-09 16:12:00.533,4,-0.38,0.71,1.57,38.964600000000004,31.795999999999996,-21.306,175,75
2026-05-09 16:12:00.558,4,-0.38,0.8,1.58,41.714600000000004,19.295999999999996,-25.766000000000002,175,75
2026-05-09 16:12:00.578,4,-0.41,1.07,1.53,44.0246,2.8959999999999972,-32.526,175,75
2026-05-09 16:12:00.626,4,-0.42,1.21,1.5,50.1246,5.096,-33.076,175,75
2026-05-09 16:12:00.626,4,-0.47,1.19,1.51,54.5146,-6.064000000000002,-31.186,175,75
2026-05-09 16:12:00.626,4,-0.51,1.12,1.52,56.4046,-13.874000000000002,-30.276,175,75
2026-05-09 16:12:00.637,4,-0.59,1.0,1.53,57.8746,-19.664,-24.606,175,75
2026-05-09 16:12:00.660,4,-0.62,0.82,1.49,60.244600000000005,-27.404,-18.936,175,75
2026-05-09 16:12:00.704,4,-0.67,0.61,1.42,63.114599999999996,-38.564,-17.466,175,75
2026-05-09 16:12:00.738,4,-0.84,-0.09,1.24,71.0446,-50.644000000000005,-26.736,175,75
2026-05-09 16:12:00.754,4,-0.99,-0.65,1.17,74.8846,-56.733999999999995,-27.956000000000003,175,75
2026-05-09 16:12:00.766,4,-1.07,-1.15,1.14,75.4946,-56.554,-21.246000000000002,175,75
2026-05-09 16:12:00.777,4,-1.17,-1.66,1.13,74.8846,-46.854,-3.806,175,75
2026-05-09 16:12:00.788,4,-1.69,-2.09,1.13,2.874599999999999,-38.564,-18.016000000000002,175,75
2026-05-09 16:12:00.792,4,-1.63,-1.71,1.06,-32.6154,-25.644000000000002,-75.946,175,75
2026-05-09 16:12:00.813,4,-0.8,-1.28,1.08,-60.3654,20.156000000000002,-86.436,175,75
2026-05-09 16:12:00.813,4,-0.42,-0.82,1.14,-80.8454,65.886,25.884,175,75
2026-05-09 16:12:00.816,4,-0.81,-0.7,1.09,-74.8154,95.096,62.414,175,75
2026-05-09 16:12:00.835,4,-0.93,-0.81,1.16,-57.0054,112.596,33.504,175,75
2026-05-09 16:12:00.846,4,-0.59,-0.68,1.57,-72.5554,150.156,32.534,175,75
2026-05-09 16:12:00.867,4,-0.4,0.0,1.74,-48.535399999999996,102.656,19.054,175,75
2026-05-09 16:12:00.867,4,-0.35,0.22,1.74,-32.2554,78.566,22.773999999999997,175,75
2026-05-09 16:12:00.878,4,-0.39,0.36,1.68,-17.1254,63.816,21.494,175,75
2026-05-09 16:12:00.883,4,-0.38,0.43,1.53,4.5146,65.516,21.613999999999997,175,75
2026-05-09 16:12:00.898,4,-0.35,0.46,1.48,10.614600000000001,86.376,24.543999999999997,175,75
2026-05-09 16:12:00.907,4,-0.27,0.56,1.48,12.504599999999998,116.436,28.144,175,75
2026-05-09 16:12:00.927,4,-0.17,0.75,1.55,16.5246,145.156,32.344,175,75
2026-05-09 16:12:00.940,4,-0.11,0.78,1.57,26.224600000000002,146.556,32.344,175,75
2026-05-09 16:12:00.940,4,-0.09,0.71,1.56,34.574600000000004,143.626,28.994,175,75
2026-05-09 16:12:00.945,4,-0.09,0.59,1.54,40.3746,142.956,21.314,175,75
2026-05-09 16:12:00.965,4,-0.11,0.47,1.53,47.2646,139.056,8.564,175,75
2026-05-09 16:12:00.982,4,-0.19,0.38,1.56,58.5446,109.906,-15.516,175,75
2026-05-09 16:12:00.990,4,-0.31,0.4,1.62,63.7846,79.116,-28.626,175,75
2026-05-09 16:12:01.000,4,-0.41,0.43,1.67,68.4846,46.676,-38.746,175,75
2026-05-09 16:12:01.023,4,-0.49,0.42,1.67,71.2246,13.325999999999997,-48.196,175,75
2026-05-09 16:12:01.040,4,-0.65,0.31,1.61,71.7746,-38.934,-61.186,175,75
2026-05-09 16:12:01.047,4,-0.9,0.14,1.56,71.5246,-88.50399999999999,-69.356,175,75
2026-05-09 16:12:01.059,4,-1.17,-0.01,1.48,67.5046,-123.50399999999999,-66.856,175,75
2026-05-09 16:12:01.070,4,-1.36,-0.4,1.15,59.634600000000006,-95.274,-42.466,175,75
2026-05-09 16:12:01.084,4,-1.37,-0.75,1.05,67.3246,-58.873999999999995,-33.136,175,75
2026-05-09 16:12:01.094,4,-1.33,-1.18,1.06,74.2746,-36.374,-25.696,175,75
2026-05-09 16:12:01.104,4,-1.46,-1.69,1.21,66.9546,-34.724000000000004,-6.736,175,75
2026-05-09 16:12:01.115,4,-1.73,-1.8,1.31,49.0246,-41.674,5.394,175,75
2026-05-09 16:12:01.126,4,-2.02,-1.66,1.4,28.0546,-47.344,4.664000000000001,175,75
2026-05-09 16:12:01.136,4,-1.98,-1.33,1.42,10.9246,-48.444,-17.586000000000002,175,75
2026-05-09 16:12:01.140,4,-1.57,-1.12,1.38,5.9846,-56.92400000000001,-22.526,175,75
2026-05-09 16:12:01.164,4,-1.16,-0.93,1.34,7.444599999999999,-64.054,12.474,175,75
2026-05-09 16:12:01.164,4,-1.16,-0.83,1.2,13.3546,-58.56400000000001,63.083999999999996,175,75
2026-05-09 16:12:01.169,4,-1.35,-0.89,1.08,26.044600000000003,-22.344,78.084,175,75
2026-05-09 16:12:01.193,4,-1.25,-0.94,1.08,32.4446,51.616,65.03399999999999,175,75
2026-05-09 16:12:01.224,4,-0.92,-0.72,1.18,22.2646,110.70599999999999,69.304,175,75
2026-05-09 16:12:01.234,4,-0.75,-0.35,1.32,12.4446,141.736,76.744,175,75
2026-05-09 16:12:01.244,4,-0.67,-0.05,1.47,12.504599999999998,144.666,71.864,175,75
2026-05-09 16:12:01.244,4,-0.57,0.31,1.72,10.7946,135.946,64.114,175,75
2026-05-09 16:12:01.256,4,-0.51,0.54,1.86,5.794599999999999,114.23599999999999,55.274,175,75
2026-05-09 16:12:01.278,4,-0.41,0.99,1.97,-5.425400000000001,-7.594000000000001,33.504,175,75
2026-05-09 16:12:01.288,4,-0.47,1.05,1.87,-4.5654,-65.884,34.844,175,75
2026-05-09 16:12:01.302,4,-0.48,0.98,1.72,5.4946,-85.64399999999999,43.994,175,75
2026-05-09 16:12:01.302,4,-0.43,0.89,1.6,14.024600000000001,-85.514,52.224,175,75
2026-05-09 16:12:01.313,4,-0.36,0.79,1.47,16.3446,-83.144,58.814,175,75
2026-05-09 16:12:01.323,4,-0.29,0.75,1.35,14.094599999999998,-73.624,65.214,175,75
2026-05-09 16:12:01.335,4,-0.26,0.76,1.2,9.6346,-54.054,73.084,175,75
2026-05-09 16:12:01.348,4,-0.28,0.74,1.05,7.504599999999998,-24.724,82.474,175,75
2026-05-09 16:12:01.362,4,-0.31,0.65,0.92,8.484599999999999,17.596,91.254,175,75
2026-05-09 16:12:01.373,4,-0.34,0.46,0.81,12.8146,72.776,96.67399999999999,175,75
2026-05-09 16:12:01.373,4,-0.39,0.16,0.75,19.8846,135.276,93.324,175,75
2026-05-09 16:12:01.396,4,-0.43,-0.66,0.96,29.6346,239.60600000000002,61.744,175,75
2026-05-09 16:12:01.407,4,-0.51,-0.86,1.14,35.7946,233.936,49.914,175,75
2026-05-09 16:12:01.407,4,-0.62,-1.03,1.33,45.0646,208.14600000000002,43.693999999999996,175,75
2026-05-09 16:12:01.418,4,-0.73,-1.11,1.49,55.4346,169.666,35.583999999999996,175,75
2026-05-09 16:12:01.428,4,-0.69,-1.03,1.57,51.714600000000004,108.876,14.664,175,75
2026-05-09 16:12:01.439,4,-0.58,-0.77,1.47,19.214599999999997,26.066,-7.226,175,75
2026-05-09 16:12:01.451,4,-0.69,-0.59,1.29,-4.4454,2.225999999999999,-13.136,175,75
2026-05-09 16:12:01.461,4,-0.77,-0.58,1.18,-12.3154,24.846,-14.235999999999999,175,75
2026-05-09 16:12:01.469,4,-0.81,-0.71,1.17,-15.1754,63.566,-14.296,175,75
2026-05-09 16:12:01.485,4,-0.88,-0.79,1.37,-19.8154,78.506,-22.526,175,75
2026-05-09 16:12:01.504,4,-0.94,-0.7,1.6,-20.3654,51.006,-36.066,175,75
2026-05-09 16:12:01.518,4,-0.96,-0.53,1.69,-16.4554,-0.2140000000000022,-46.616,175,75
2026-05-09 16:12:01.529,4,-0.98,-0.37,1.68,-13.2854,-51.983999999999995,-52.956,175,75
2026-05-09 16:12:01.529,4,-0.95,-0.23,1.57,-13.5354,-79.664,-54.786,175,75
2026-05-09 16:12:01.551,4,-0.92,-0.09,1.39,-14.205400000000001,-83.874,-54.176,175,75
2026-05-09 16:12:01.560,4,-0.88,0.04,1.23,-10.2354,-59.42400000000001,-51.246,175,75
2026-05-09 16:12:01.560,4,-0.84,0.16,1.15,-0.8453999999999997,-14.544,-47.526,175,75
2026-05-09 16:12:01.582,4,-0.77,0.3,1.18,14.6346,44.96600000000001,-44.476,175,75
2026-05-09 16:12:01.594,4,-0.65,0.38,1.35,27.7446,74.846,-49.906,175,75
2026-05-09 16:12:01.614,4,-0.61,0.52,1.55,40.0046,46.43600000000001,-66.916,175,75
2026-05-09 16:12:01.630,4,-0.68,0.82,1.55,41.5246,-33.994,-77.406,175,75
2026-05-09 16:12:01.654,4,-0.69,1.03,1.47,34.394600000000004,-46.494,-71.976,175,75
2026-05-09 16:12:01.661,4,-0.71,1.22,1.4,30.0646,-36.984,-65.21600000000001,175,75
2026-05-09 16:12:01.687,4,-0.69,1.29,1.37,25.614600000000003,14.906000000000002,-38.866,175,75
2026-05-09 16:12:01.698,4,-0.61,1.16,1.4,22.504599999999996,39.056,-26.736,175,75
2026-05-09 16:12:01.698,4,-0.59,0.98,1.42,22.324599999999997,50.036,-20.026,175,75
2026-05-09 16:12:01.735,4,-0.66,0.29,1.48,38.2946,34.846000000000004,-29.606,175,75
2026-05-09 16:12:01.735,4,-0.81,-0.14,1.47,49.214600000000004,6.925999999999998,-45.946,175,75
2026-05-09 16:12:01.749,4,-1.05,-0.71,1.48,62.994600000000005,-25.274,-57.656,175,75
2026-05-09 16:12:01.768,4,-1.23,-1.19,1.48,72.5046,-46.674,-54.176,175,75
2026-05-09 16:12:01.786,4,-1.27,-1.63,1.43,80.6146,-71.614,-38.626000000000005,175,75
2026-05-09 16:12:01.796,4,-1.43,-2.29,1.1,68.1746,-132.22400000000002,-27.716,175,75
2026-05-09 16:12:01.808,4,-1.48,-1.96,0.93,13.964599999999999,-103.264,-70.156,175,75
2026-05-09 16:12:01.819,4,-0.96,-1.36,0.91,-45.9054,-36.374,-69.296,175,75
2026-05-09 16:12:01.843,4,-1.08,-0.5,1.01,-71.8854,104.056,35.524,175,75
2026-05-09 16:12:01.855,4,-0.94,-0.48,1.23,-58.2254,137.836,35.583999999999996,175,75
2026-05-09 16:12:01.866,4,-0.68,-0.45,1.59,-65.7854,151.92600000000002,54.174,175,75
2026-05-09 16:12:01.877,4,-0.6,-0.36,1.78,-77.0654,134.116,54.054,175,75
2026-05-09 16:12:01.877,4,-0.48,-0.24,1.86,-72.6754,97.046,41.614,175,75
2026-05-09 16:12:01.897,4,-0.34,-0.07,1.86,-56.7054,48.446,34.424,175,75
2026-05-09 16:12:01.906,4,-0.3,0.08,1.77,-40.0554,12.535999999999998,32.594,175,75
2026-05-09 16:12:01.935,4,-0.35,0.23,1.61,-25.4854,0.09600000000000009,27.834,175,75
2026-05-09 16:12:01.948,4,-0.34,0.31,1.46,-17.7354,16.496,24.424,175,75
2026-05-09 16:12:01.963,4,-0.38,0.35,1.33,-0.6654,81.85600000000001,22.834,175,75
2026-05-09 16:12:01.963,4,-0.4,0.36,1.42,1.464599999999999,109.11600000000001,23.874,175,75
2026-05-09 16:12:01.963,4,-0.38,0.44,1.57,-2.3754,130.64600000000002,24.363999999999997,175,75
2026-05-09 16:12:01.973,4,-0.33,0.53,1.68,-6.9454,127.226,22.163999999999998,175,75
2026-05-09 16:12:01.990,4,-0.26,0.68,1.83,-10.2354,101.49600000000001,20.523999999999997,175,75
2026-05-09 16:12:02.000,4,-0.2,0.77,1.89,-7.0054,71.926,17.773999999999997,175,75
2026-05-09 16:12:02.013,4,-0.16,0.8,1.94,-0.9754000000000005,40.706,13.564,175,75
2026-05-09 16:12:02.038,4,-0.1,0.67,1.96,22.8146,-58.56400000000001,-11.735999999999999,175,75
2026-05-09 16:12:02.050,4,-0.15,0.61,1.9,28.0546,-108.014,-24.726000000000003,175,75
2026-05-09 16:12:02.084,4,-0.39,0.58,1.67,29.7646,-190.454,-44.116,175,75
2026-05-09 16:12:02.084,4,-0.48,0.57,1.48,31.654600000000002,-198.384,-46.796,175,75
2026-05-09 16:12:02.096,4,-0.6,0.52,1.29,38.2946,-175.514,-47.836,175,75
2026-05-09 16:12:02.096,4,-0.64,0.45,1.23,45.4346,-143.994,-50.696,175,75
2026-05-09 16:12:02.118,4,-0.7,0.35,1.29,49.6346,-101.794,-52.656,175,75
2026-05-09 16:12:02.140,4,-1.18,-0.24,1.83,35.4346,-159.904,-41.856,175,75
2026-05-09 16:12:02.163,4,-1.38,-0.57,1.84,22.6246,-212.164,-27.656000000000002,175,75
2026-05-09 16:12:02.186,4,-1.57,-1.5,1.52,5.374599999999999,-216.614,-5.4559999999999995,175,75
2026-05-09 16:12:02.231,4,-0.92,-1.21,1.59,9.6346,7.535999999999998,-14.966,175,75
2026-05-09 16:12:02.231,4,-0.72,-0.98,1.72,12.324599999999998,9.666,3.204,175,75
2026-05-09 16:12:02.252,4,-0.55,-0.86,1.91,22.0146,-73.444,4.604,175,75
2026-05-09 16:12:02.253,4,-0.46,-0.8,1.86,9.3346,-110.214,1.8639999999999999,175,75
2026-05-09 16:12:02.283,4,-0.39,-0.45,1.56,-6.885400000000001,-148.814,-2.956,175,75
2026-05-09 16:12:02.310,4,-0.35,-0.21,1.4,0.49460000000000015,-135.094,-5.276,175,75
2026-05-09 16:12:02.314,4,-0.31,0.34,1.29,9.1546,-62.534000000000006,-3.866,175,75
2026-05-09 16:12:02.335,4,-0.28,0.65,1.28,6.6546,-26.374000000000002,-2.106,175,75
2026-05-09 16:12:02.335,4,-0.3,0.85,1.29,4.1546,-1.9239999999999995,1.8639999999999999,175,75
2026-05-09 16:12:02.350,4,-0.33,0.98,1.27,5.1846,30.215999999999998,9.234,175,75
2026-05-09 16:12:02.358,4,-0.3,1.01,1.23,10.7946,66.556,20.093999999999998,175,75
2026-05-09 16:12:02.377,4,-0.25,0.98,1.19,12.5646,93.686,28.753999999999998,175,75
2026-05-09 16:12:02.377,4,-0.2,0.97,1.17,10.2446,119.05600000000001,34.604,175,75
2026-05-09 16:12:02.405,4,-0.15,1.02,1.22,5.1846,157.346,41.984,175,75
2026-05-09 16:12:02.405,4,-0.08,1.06,1.31,5.614599999999999,198.386,49.974,175,75
2026-05-09 16:12:02.419,4,-0.05,1.02,1.44,8.964599999999999,226.186,55.214,175,75
2026-05-09 16:12:02.429,4,-0.07,0.86,1.6,10.614600000000001,235.946,56.004,175,75
2026-05-09 16:12:02.441,4,-0.09,0.67,1.7,8.9046,228.266,53.693999999999996,175,75
2026-05-09 16:12:02.450,4,-0.14,0.37,1.78,9.9446,199.786,42.224,175,75
2026-05-09 16:12:02.474,4,-0.2,-0.3,1.73,28.0546,134.846,7.0440000000000005,175,75
2026-05-09 16:12:02.483,4,-0.29,-0.75,1.68,40.4946,97.71600000000001,-15.276,175,75
2026-05-09 16:12:02.489,4,-0.52,-1.44,1.7,52.324600000000004,24.355999999999998,-39.846000000000004,175,75
2026-05-09 16:12:02.509,4,-0.88,-1.9,1.78,49.9446,-36.254000000000005,-47.656,175,75
2026-05-09 16:12:02.509,4,-1.33,-2.15,1.87,40.9846,-86.124,-49.966,175,75
2026-05-09 16:12:02.524,4,-1.8,-1.87,2.0,19.0946,-148.994,-67.406,175,75
2026-05-09 16:12:02.533,4,-1.99,-1.4,2.03,-14.5654,-202.164,-98.866,175,75
2026-05-09 16:12:02.561,4,-1.65,-0.93,1.88,-66.2154,-246.494,-116.796,175,75
2026-05-09 16:12:02.561,4,-1.07,-0.65,1.59,-92.7354,-245.704,-82.836,175,75
2026-05-09 16:12:02.565,4,-0.78,-0.61,1.09,-72.7354,-179.964,-28.076,175,75
2026-05-09 16:12:02.592,4,-0.75,-0.8,0.9,-34.3254,-67.404,-22.896,175,75
2026-05-09 16:12:02.592,4,-0.83,-0.84,1.03,-12.435400000000001,86.796,-11.366,175,75
2026-05-09 16:12:02.598,4,-0.95,-0.71,1.34,-3.6554,218.816,5.704000000000001,175,75
2026-05-09 16:12:02.610,4,-0.92,-0.58,1.66,8.964599999999999,270.45599999999996,12.534,175,75
2026-05-09 16:12:02.621,4,-0.82,-0.42,1.99,23.0546,235.886,16.194,175,75
2026-05-09 16:12:02.630,4,-0.73,-0.28,2.14,24.7646,139.786,15.334,175,75
2026-05-09 16:12:02.651,4,-0.73,-0.12,1.99,7.934600000000001,19.906000000000002,1.6139999999999999,175,75
2026-05-09 16:12:02.663,4,-0.7,-0.01,1.86,9.454600000000001,-12.284,-5.396,175,75
2026-05-09 16:12:02.693,4,-0.67,0.09,1.77,14.3346,-33.074,-9.606,175,75
2026-05-09 16:12:02.697,4,-0.65,0.2,1.65,18.784599999999998,-54.114000000000004,-14.846,175,75
2026-05-09 16:12:02.737,4,-0.64,0.42,1.45,20.5546,-59.724000000000004,-16.126,175,75
2026-05-09 16:12:02.737,4,-0.61,0.5,1.35,19.7046,-49.174,-14.666,175,75
2026-05-09 16:12:02.800,4,-0.37,0.98,1.28,18.354599999999998,109.29599999999999,8.754,175,75
2026-05-09 16:12:02.800,4,-0.26,1.09,1.37,17.6246,129.546,12.474,175,75
2026-05-09 16:12:02.813,4,-0.16,1.17,1.44,16.714599999999997,135.156,13.934000000000001,175,75
2026-05-09 16:12:02.829,4,-0.1,1.25,1.5,16.3446,131.496,13.874,175,75
2026-05-09 16:12:02.839,4,-0.07,1.3,1.57,19.4546,122.656,11.864,175,75
2026-05-09 16:12:02.839,4,-0.06,1.26,1.59,25.5546,113.626,8.024000000000001,175,75
2026-05-09 16:12:02.850,4,-0.12,1.09,1.64,29.214600000000004,94.546,-0.6960000000000001,175,75
2026-05-09 16:12:02.860,4,-0.28,0.81,1.71,28.544600000000003,53.626000000000005,-12.225999999999999,175,75
2026-05-09 16:12:02.870,4,-0.5,0.51,1.77,24.334600000000002,-5.574000000000002,-18.136000000000003,175,75
2026-05-09 16:12:02.882,4,-0.83,-0.37,1.58,26.5946,-72.044,-18.806,175,75
2026-05-09 16:12:02.902,4,-0.9,-1.02,1.44,34.3346,-77.284,-20.826,175,75
2026-05-09 16:12:02.913,4,-0.85,-2.43,1.37,34.7646,-96.854,-6.186,175,75
2026-05-09 16:12:02.913,4,-1.05,-2.9,1.46,15.2446,-119.604,-3.136,175,75
2026-05-09 16:12:02.967,4,-1.32,-1.97,1.62,-55.3654,-138.624,-79.236,175,75
2026-05-09 16:12:02.983,4,-0.53,-1.23,1.53,-99.2054,-140.644,-56.916000000000004,175,75
2026-05-09 16:12:02.997,4,-0.63,-0.91,1.22,-93.9554,-111.494,21.863999999999997,175,75
2026-05-09 16:12:03.016,4,-0.88,-0.94,1.0,-65.6054,-45.094,42.164,175,75
2026-05-09 16:12:03.016,4,-0.84,-0.99,1.02,-39.8154,55.82600000000001,48.204,175,75
2026-05-09 16:12:03.041,4,-0.45,-0.68,1.58,-50.9054,199.846,70.584,175,75
2026-05-09 16:12:03.050,4,-0.31,-0.41,1.88,-40.9754,167.286,56.864,175,75
2026-05-09 16:12:03.052,4,-0.25,-0.15,2.02,-27.2554,104.486,51.254,175,75
2026-05-09 16:12:03.075,4,-0.3,0.01,1.99,-21.575400000000002,60.096000000000004,46.924,175,75
2026-05-09 16:12:03.075,4,-0.33,0.09,1.88,-18.165399999999998,36.926,39.114,175,75
2026-05-09 16:12:03.086,4,-0.31,0.13,1.56,-7.0654,45.516000000000005,30.453999999999997,175,75
2026-05-09 16:12:03.097,4,-0.3,0.17,1.49,0.6745999999999999,83.936,28.503999999999998,175,75
2026-05-09 16:12:03.120,4,-0.14,0.44,1.65,-2.7354000000000003,135.216,27.534,175,75
2026-05-09 16:12:03.131,4,-0.07,0.68,1.77,-4.5054,113.566,22.714,175,75
2026-05-09 16:12:03.141,4,0.03,0.78,1.73,18.2346,85.276,21.064,175,75
2026-05-09 16:12:03.181,4,-0.09,0.64,1.53,32.5646,71.926,-7.286,175,75
2026-05-09 16:12:03.194,4,-0.13,0.64,1.53,35.9846,77.46600000000001,-17.106,175,75
2026-05-09 16:12:03.204,4,-0.19,0.67,1.6,37.6246,73.386,-32.406,175,75
2026-05-09 16:12:03.228,4,-0.31,0.77,1.78,38.0546,33.016000000000005,-46.556000000000004,175,75
2026-05-09 16:12:03.228,4,-0.32,0.78,1.81,41.464600000000004,-11.984000000000002,-52.226,175,75
2026-05-09 16:12:03.241,4,-0.37,0.7,1.78,43.2346,-48.013999999999996,-55.696,175,75
2026-05-09 16:12:03.252,4,-0.52,0.45,1.68,45.0046,-87.464,-63.866,175,75
2026-05-09 16:12:03.267,4,-0.77,0.12,1.62,44.214600000000004,-100.884,-69.786,175,75
2026-05-09 16:12:03.290,4,-1.05,-0.83,1.61,43.1746,-101.064,-67.46600000000001,175,75
2026-05-09 16:12:03.303,4,-1.08,-1.39,1.64,44.1546,-118.684,-61.186,175,75
2026-05-09 16:12:03.343,4,-1.3,-2.44,1.69,33.1746,-183.07399999999998,-30.216,175,75
2026-05-09 16:12:03.355,4,-1.65,-2.38,1.65,-1.8854000000000006,-194.60399999999998,-34.786,175,75
2026-05-09 16:12:03.405,4,-0.75,-1.12,1.34,16.654600000000002,122.656,67.654,175,75
2026-05-09 16:12:03.405,4,-0.51,-0.88,1.43,9.214599999999999,135.156,62.534,175,75
2026-05-09 16:12:03.441,4,-0.34,-0.36,1.48,14.574599999999998,127.46600000000001,54.784,175,75
2026-05-09 16:12:03.467,4,-0.32,-0.07,1.55,8.9046,141.246,51.064,175,75
2026-05-09 16:12:03.467,4,-0.23,0.21,1.65,3.7246000000000006,149.42600000000002,48.263999999999996,175,75
2026-05-09 16:12:03.481,4,-0.13,0.52,1.77,0.06460000000000043,145.216,46.554,175,75
2026-05-09 16:12:03.496,4,0.02,1.16,2.0,0.6145999999999994,86.126,36.554,175,75
2026-05-09 16:12:03.496,4,0.03,1.32,2.06,6.954600000000001,40.215999999999994,28.503999999999998,175,75
2026-05-09 16:12:03.508,4,0.02,1.27,2.02,14.1546,-4.5440000000000005,21.194,175,75
2026-05-09 16:12:03.540,4,0.0,0.95,1.82,10.8546,-43.013999999999996,4.174,175,75
2026-05-09 16:12:03.550,4,-0.09,1.0,1.83,1.4046000000000003,-35.454,-4.6659999999999995,175,75
2026-05-09 16:12:03.567,4,-0.18,1.15,1.92,1.464599999999999,-30.334000000000003,-4.545999999999999,175,75
2026-05-09 16:12:03.567,4,-0.22,1.16,1.97,15.184600000000001,-44.964,3.024,175,75
2026-05-09 16:12:03.571,4,-0.22,0.88,1.85,36.104600000000005,-87.654,12.104000000000001,175,75
2026-05-09 16:12:03.601,4,-0.29,-0.33,1.17,62.504599999999996,-98.624,-7.9559999999999995,175,75
2026-05-09 16:12:03.605,4,-0.38,-0.92,0.92,75.55460000000001,-41.064,-29.476000000000003,175,75
2026-05-09 16:12:03.623,4,-0.56,-1.57,0.85,80.8546,55.82600000000001,-42.406,175,75
2026-05-09 16:12:03.687,4,-0.69,-0.34,2.06,-8.0454,11.006,-61.676,175,75
2026-05-09 16:12:03.687,4,-0.61,-0.08,1.66,-28.0454,-84.114,-15.086,175,75
2026-05-09 16:12:03.698,4,-0.71,-0.5,1.4,-11.2154,-49.234,-10.825999999999999,175,75
2026-05-09 16:12:03.700,4,-0.74,-0.86,1.33,-9.1454,-3.2040000000000006,-6.305999999999999,175,75
2026-05-09 16:12:03.745,4,-0.89,-0.75,1.66,-10.365400000000001,11.855999999999998,-27.526,175,75
2026-05-09 16:12:03.745,4,-0.88,-0.51,1.78,-3.7754000000000003,-15.334000000000001,-27.466,175,75
2026-05-09 16:12:03.766,4,-0.73,-0.24,1.57,-0.8453999999999997,-84.724,-20.336000000000002,175,75
2026-05-09 16:12:03.787,4,-0.7,-0.17,1.37,-3.1054000000000004,-68.994,-15.026,175,75
2026-05-09 16:12:03.807,4,-0.67,-0.1,1.23,-3.1054000000000004,-20.824,-9.296,175,75
2026-05-09 16:12:03.807,4,-0.6,-0.0,1.22,-1.5754000000000001,44.176,-1.496,175,75
2026-05-09 16:12:03.818,4,-0.56,0.06,1.31,-0.4854000000000003,82.536,3.564,175,75
2026-05-09 16:12:03.829,4,-0.5,0.15,1.47,1.2845999999999993,102.406,6.2540000000000004,175,75
2026-05-09 16:12:03.840,4,-0.42,0.24,1.62,2.7446,85.276,5.154000000000001,175,75
2026-05-09 16:12:03.851,4,-0.37,0.35,1.67,0.43459999999999965,42.775999999999996,0.764,175,75
2026-05-09 16:12:03.862,4,-0.4,0.5,1.63,-4.4454,7.346,-2.5260000000000002,175,75
2026-05-09 16:12:03.874,4,-0.42,0.69,1.51,-7.6754,-0.5139999999999993,-1.916,175,75
2026-05-09 16:12:03.877,4,-0.39,0.82,1.43,-7.0054,3.9959999999999987,0.824,175,75
2026-05-09 16:12:03.885,4,-0.36,0.93,1.36,-5.7854,14.906000000000002,4.174,175,75
2026-05-09 16:12:03.901,4,-0.33,1.05,1.31,-3.3454000000000006,39.176,8.754,175,75
2026-05-09 16:12:03.911,4,-0.31,1.1,1.32,-0.9754000000000005,66.49600000000001,11.984,175,75
2026-05-09 16:12:03.919,4,-0.3,1.12,1.39,2.3246,96.616,14.114,175,75
2026-05-09 16:12:03.966,4,-0.25,0.89,2.01,-2.0654000000000003,63.566,10.824,175,75
2026-05-09 16:12:03.966,4,-0.26,0.73,2.04,-4.4454,33.016000000000005,10.944,175,75
2026-05-09 16:12:03.975,4,-0.37,0.36,1.98,-3.4054,8.745999999999999,7.774,175,75
2026-05-09 16:12:04.002,4,-0.42,-0.12,1.89,3.2346000000000004,4.236000000000001,0.644,175,75
2026-05-09 16:12:04.015,4,-0.48,-0.73,1.85,13.3546,4.605999999999998,-5.826,175,75
2026-05-09 16:12:04.026,4,-0.42,-1.58,1.79,25.794600000000003,9.116,-20.026,175,75
2026-05-09 16:12:04.036,4,-0.51,-2.53,1.92,32.8746,-8.014000000000001,-17.956000000000003,175,75
2026-05-09 16:12:04.036,4,-0.93,-2.85,2.12,37.1346,-35.034,-18.686,175,75
2026-05-09 16:12:04.052,4,-1.2,-2.3,2.21,20.1246,-87.53399999999999,-70.886,175,75
2026-05-09 16:12:04.064,4,-0.85,-1.8,2.12,-7.9254,-148.264,-111.366,175,75
2026-05-09 16:12:04.073,4,-0.35,-1.34,1.97,-35.7854,-206.184,-90.276,175,75
2026-05-09 16:12:04.082,4,-0.54,-1.02,1.5,-34.0154,-215.394,-23.386000000000003,175,75
2026-05-09 16:12:04.093,4,-0.77,-1.03,1.18,-10.115400000000001,-159.484,-11.065999999999999,175,75
2026-05-09 16:12:04.110,4,-0.73,-1.04,1.08,8.234599999999999,-57.593999999999994,-3.5060000000000002,175,75
2026-05-09 16:12:04.123,4,-0.58,-0.9,1.22,1.5245999999999995,46.986000000000004,17.104,175,75
2026-05-09 16:12:04.135,4,-0.48,-0.63,1.48,-6.6454,106.986,25.273999999999997,175,75
2026-05-09 16:12:04.137,4,-0.33,-0.3,1.73,0.8545999999999996,85.646,20.453999999999997,175,75
2026-05-09 16:12:04.171,4,-0.37,0.18,1.73,14.394599999999999,7.405999999999999,19.363999999999997,175,75
2026-05-09 16:12:04.183,4,-0.41,0.27,1.59,18.904600000000002,-0.33399999999999963,16.314,175,75
2026-05-09 16:12:04.185,4,-0.42,0.31,1.48,23.114600000000003,7.285999999999998,15.154,175,75
2026-05-09 16:12:04.207,4,-0.4,0.33,1.34,26.654600000000002,26.496,16.494,175,75
2026-05-09 16:12:04.207,4,-0.39,0.33,1.29,30.434600000000003,53.016000000000005,19.233999999999998,175,75
2026-05-09 16:12:04.219,4,-0.36,0.39,1.32,30.5546,93.936,20.884,175,75
2026-05-09 16:12:04.230,4,-0.31,0.58,1.51,19.2746,124.96600000000001,22.224,175,75
2026-05-09 16:12:04.254,4,-0.21,0.85,1.72,12.684600000000001,96.186,25.823999999999998,175,75
2026-05-09 16:12:04.267,4,-0.16,0.88,1.7,15.6746,67.536,26.983999999999998,175,75
2026-05-09 16:12:04.310,4,-0.24,0.57,1.37,25.924599999999998,32.596000000000004,17.474,175,75
2026-05-09 16:12:04.321,4,-0.3,0.43,1.28,29.0246,48.32600000000001,11.254,175,75
2026-05-09 16:12:04.321,4,-0.37,0.33,1.29,30.2446,67.226,2.954,175,75
2026-05-09 16:12:04.345,4,-0.43,0.43,1.48,26.3446,85.82600000000001,-7.226,175,75
2026-05-09 16:12:04.369,4,-0.39,0.58,1.59,24.9446,63.446,-11.616,175,75
2026-05-09 16:12:04.369,4,-0.39,0.66,1.62,21.284599999999998,40.396,-14.666,175,75
2026-05-09 16:12:04.384,4,-0.45,0.7,1.59,14.9446,23.386,-17.956000000000003,175,75
2026-05-09 16:12:04.393,4,-0.54,0.65,1.59,12.2646,22.105999999999998,-20.576,175,75
2026-05-09 16:12:04.408,4,-0.64,0.52,1.6,10.184600000000001,19.605999999999998,-22.346,175,75
2026-05-09 16:12:04.417,4,-0.71,0.36,1.64,6.044599999999999,13.935999999999996,-22.286,175,75
2026-05-09 16:12:04.433,4,-0.78,0.14,1.64,-0.785400000000001,5.2159999999999975,-21.736,175,75
2026-05-09 16:12:04.433,4,-0.78,-0.1,1.61,-6.455400000000001,-1.6739999999999995,-24.296000000000003,175,75
2026-05-09 16:12:04.442,4,-0.85,-0.38,1.6,-10.4254,-3.934000000000001,-26.366,175,75
2026-05-09 16:12:04.459,4,-0.9,-1.07,1.71,-15.115400000000001,2.346,-24.666,175,75
2026-05-09 16:12:04.469,4,-0.88,-1.5,1.77,-26.395400000000002,-28.624000000000002,-20.396,175,75
2026-05-09 16:12:04.491,4,-0.9,-1.94,1.62,-51.7054,-88.75399999999999,-14.846,175,75
2026-05-09 16:12:04.502,4,-0.9,-1.94,1.5,-62.3154,-81.004,-12.106,175,75
2026-05-09 16:12:04.520,4,-0.82,-1.67,1.41,-68.8354,-42.464,-4.845999999999999,175,75
2026-05-09 16:12:04.533,4,-0.53,-1.0,1.45,-55.9054,30.946,28.084,175,75
2026-05-09 16:12:04.546,4,-0.51,-0.88,1.47,-46.5754,48.74600000000001,37.534,175,75
2026-05-09 16:12:04.559,4,-0.52,-0.81,1.55,-39.3254,75.646,40.274,175,75
2026-05-09 16:12:04.578,4,-0.47,-0.7,1.66,-36.2154,99.486,38.024,175,75
2026-05-09 16:12:04.591,4,-0.39,-0.59,1.73,-33.4754,105.646,32.284,175,75
2026-05-09 16:12:04.591,4,-0.31,-0.41,1.81,-29.6254,100.766,24.233999999999998,175,75
2026-05-09 16:12:04.616,4,-0.25,0.08,1.98,-22.0054,78.386,12.164,175,75
2026-05-09 16:12:04.626,4,-0.23,0.44,2.08,-18.1054,56.736000000000004,7.774,175,75
2026-05-09 16:12:04.637,4,-0.21,0.78,2.14,-14.4454,30.156000000000002,5.034000000000001,175,75
2026-05-09 16:12:04.652,4,-0.17,1.06,2.15,-11.705400000000001,2.105999999999998,2.104,175,75
2026-05-09 16:12:04.670,4,-0.14,1.35,1.91,-3.1054000000000004,-50.214,-0.02599999999999999,175,75
2026-05-09 16:12:04.684,4,-0.14,1.21,1.64,6.044599999999999,-48.994,0.944,175,75
2026-05-09 16:12:04.696,4,-0.18,0.88,1.31,16.3446,10.096,-0.02599999999999999,175,75
2026-05-09 16:12:04.696,4,-0.2,0.71,1.25,18.724600000000002,67.166,-4.545999999999999,175,75
2026-05-09 16:12:04.706,4,-0.22,0.54,1.28,20.004599999999996,118.326,-11.856,175,75
2026-05-09 16:12:04.718,4,-0.24,0.42,1.38,21.834600000000002,143.566,-18.936,175,75
2026-05-09 16:12:04.743,4,-0.31,0.16,1.65,30.0646,124.48599999999999,-32.466,175,75
2026-05-09 16:12:04.744,4,-0.34,-0.0,1.7,33.7246,84.546,-37.286,175,75
2026-05-09 16:12:04.756,4,-0.39,-0.3,1.68,35.0646,25.575999999999997,-45.756,175,75
2026-05-09 16:12:04.784,4,-0.43,-0.64,1.6,29.154600000000002,-20.094,-55.886,175,75
2026-05-09 16:12:04.797,4,-0.49,-1.06,1.53,9.274600000000001,-61.554,-66.436,175,75
2026-05-09 16:12:04.821,4,-0.62,-0.8,1.49,-21.7654,-127.224,-70.336,175,75
2026-05-09 16:12:04.828,4,-0.71,-0.56,1.35,-32.3754,-134.544,-62.106,175,75
2026-05-09 16:12:04.848,4,-0.74,-0.52,1.23,-27.925400000000003,-119.114,-47.956,175,75
2026-05-09 16:12:04.858,4,-0.79,-0.61,1.16,-19.075400000000002,-90.154,-33.506,175,75
2026-05-09 16:12:04.872,4,-0.8,-0.73,1.15,-13.775400000000001,-53.20400000000001,-24.606,175,75
2026-05-09 16:12:04.882,4,-0.77,-0.76,1.22,-14.625399999999999,-18.684,-20.086000000000002,175,75
2026-05-09 16:12:04.893,4,-0.68,-0.55,1.42,-5.545400000000001,-5.094000000000001,-15.766,175,75
2026-05-09 16:12:04.915,4,-0.65,-0.45,1.46,0.6145999999999994,-17.104,-11.916,175,75
2026-05-09 16:12:04.919,4,-0.65,-0.39,1.44,3.964599999999999,-24.114,-9.056,175,75
2026-05-09 16:12:04.934,4,-0.63,-0.32,1.41,6.524600000000001,-25.334000000000003,-6.066,175,75
2026-05-09 16:12:04.941,4,-0.58,-0.22,1.4,7.0745999999999984,-18.874000000000002,-2.956,175,75
2026-05-09 16:12:04.955,4,-0.52,-0.12,1.41,5.614599999999999,-14.964000000000002,-0.516,175,75
2026-05-09 16:12:04.967,4,-0.49,0.03,1.45,2.0145999999999997,-13.264000000000001,1.434,175,75
2026-05-09 16:12:04.979,4,-0.46,0.18,1.49,-0.7254000000000005,-15.154,2.774,175,75
2026-05-09 16:12:05.004,4,-0.44,0.36,1.52,-2.7954,-18.874000000000002,5.154000000000001,175,75
2026-05-09 16:12:05.004,4,-0.42,0.59,1.55,-4.1454,-22.224,8.264000000000001,175,75
2026-05-09 16:12:05.015,4,-0.4,0.77,1.55,-4.9354000000000005,-22.344,10.824,175,75
2026-05-09 16:12:05.025,4,-0.4,0.92,1.56,-5.7254000000000005,-17.954,13.324,175,75
2026-05-09 16:12:05.035,4,-0.41,1.03,1.58,-5.7254000000000005,-10.214,14.174000000000001,175,75
2026-05-09 16:12:05.035,4,-0.42,1.12,1.62,-6.2754,-1.3740000000000023,15.524000000000001,175,75
2026-05-09 16:12:05.072,4,-0.44,1.25,1.78,-0.6053999999999995,18.325999999999997,25.214,175,75
2026-05-09 16:12:05.072,4,-0.42,1.19,1.84,7.3245999999999984,18.935999999999996,30.334,175,75
2026-05-09 16:12:05.088,4,-0.49,1.0,1.87,16.224600000000002,13.876000000000001,34.604,175,75
2026-05-09 16:12:05.104,4,-0.72,0.13,1.87,37.4446,5.645999999999997,35.644,175,75
2026-05-09 16:12:05.118,4,-0.76,-0.61,1.84,54.4546,-1.9840000000000018,33.564,175,75
2026-05-09 16:12:05.132,4,-0.72,-1.25,1.8,63.2946,-16.004,33.324,175,75
2026-05-09 16:12:05.146,4,-0.7,-2.1,1.74,64.2146,-45.094,40.763999999999996,175,75
2026-05-09 16:12:05.146,4,-0.84,-2.58,1.71,55.3146,-63.144000000000005,51.134,175,75
2026-05-09 16:12:05.195,4,-0.17,-1.19,1.5,-19.3854,-69.904,25.453999999999997,175,75
2026-05-09 16:12:05.210,4,-0.59,-1.54,0.98,26.104600000000005,10.645999999999997,70.03399999999999,175,75
2026-05-09 16:12:05.231,4,-0.38,-1.52,1.09,7.934600000000001,93.266,68.384,175,75
2026-05-09 16:12:05.231,4,-0.24,-1.22,1.22,-13.2254,128.206,63.693999999999996,175,75
2026-05-09 16:12:05.243,4,-0.13,-0.89,1.35,-21.5154,129.296,55.763999999999996,175,75
2026-05-09 16:12:05.255,4,-0.07,-0.55,1.46,-23.1054,101.986,47.534,175,75
2026-05-09 16:12:05.268,4,-0.1,-0.31,1.48,-26.575400000000002,77.896,39.114,175,75
2026-05-09 16:12:05.278,4,-0.1,-0.05,1.46,-33.6554,74.786,32.833999999999996,175,75
2026-05-09 16:12:05.306,4,0.01,0.4,1.48,-25.4854,91.316,36.804,175,75
2026-05-09 16:12:05.321,4,0.15,0.55,1.49,-5.425400000000001,64.846,31.003999999999998,175,75
2026-05-09 16:12:05.333,4,0.14,0.51,1.44,-1.5154000000000005,62.04600000000001,23.323999999999998,175,75
2026-05-09 16:12:05.354,4,0.1,0.52,1.39,-0.6053999999999995,71.926,15.034,175,75
2026-05-09 16:12:05.366,4,0.05,0.64,1.39,-1.0953999999999997,90.156,7.714,175,75
2026-05-09 16:12:05.376,4,-0.01,0.81,1.5,3.8446,108.626,0.15400000000000003,175,75
2026-05-09 16:12:05.387,4,-0.01,0.84,1.58,12.1346,104.666,-3.746,175,75
2026-05-09 16:12:05.412,4,0.02,0.72,1.66,23.114600000000003,67.046,-19.296000000000003,175,75
2026-05-09 16:12:05.424,4,0.0,0.63,1.64,23.6646,47.596000000000004,-29.476000000000003,175,75
2026-05-09 16:12:05.434,4,-0.05,0.52,1.6,25.1246,29.236,-42.106,175,75
2026-05-09 16:12:05.451,4,-0.25,0.37,1.61,24.2746,-1.4939999999999998,-69.056,175,75
2026-05-09 16:12:05.461,4,-0.38,0.38,1.65,21.5946,-18.324,-75.82600000000001,175,75
2026-05-09 16:12:05.481,4,-0.65,0.57,1.75,14.8846,-59.903999999999996,-72.166,175,75
2026-05-09 16:12:05.492,4,-0.65,0.62,1.66,11.524600000000001,-61.184,-63.506,175,75
2026-05-09 16:12:05.513,4,-0.71,0.46,1.53,14.454600000000001,-43.684,-55.576,175,75
2026-05-09 16:12:05.524,4,-0.9,0.15,1.49,21.044600000000003,-14.964000000000002,-53.806000000000004,175,75
2026-05-09 16:12:05.524,4,-1.13,-0.21,1.59,25.0646,21.005999999999997,-51.856,175,75
2026-05-09 16:12:05.551,4,-1.22,-0.59,1.76,29.0246,47.775999999999996,-46.006,175,75
2026-05-09 16:12:05.580,4,-1.51,-1.92,1.98,37.4446,-145.394,-18.136000000000003,175,75
2026-05-09 16:12:05.589,4,-1.76,-2.09,1.85,11.594599999999998,-156.254,-12.895999999999999,175,75
2026-05-09 16:12:05.601,4,-1.74,-1.92,1.73,-14.5654,-135.394,-18.196,175,75
2026-05-09 16:12:05.616,4,-1.42,-1.5,1.61,-34.2654,-108.14399999999999,-20.276,175,75
2026-05-09 16:12:05.638,4,-0.91,-1.05,1.47,-24.6254,-75.334,25.093999999999998,175,75
2026-05-09 16:12:05.650,4,-0.89,-0.94,1.28,5.374599999999999,-24.844,73.324,175,75
2026-05-09 16:12:05.654,4,-0.93,-1.04,1.22,23.114600000000003,27.105999999999998,83.444,175,75
2026-05-09 16:12:05.665,4,-0.78,-1.16,1.33,29.0946,106.006,93.564,175,75
2026-05-09 16:12:05.691,4,-0.44,-1.01,1.49,31.044600000000003,117.106,83.444,175,75
2026-05-09 16:12:05.701,4,-0.39,-0.83,1.49,31.654600000000002,95.096,74.724,175,75
2026-05-09 16:12:05.723,4,-0.34,-0.41,1.43,21.5946,112.71600000000001,64.42399999999999,175,75
2026-05-09 16:12:05.747,4,-0.03,0.27,1.53,6.464599999999999,154.966,66.254,175,75
2026-05-09 16:12:05.761,4,0.12,0.66,1.61,-0.4854000000000003,162.406,69.544,175,75
2026-05-09 16:12:05.783,4,0.33,1.42,1.68,-1.6454000000000004,153.686,70.944,175,75
2026-05-09 16:12:05.783,4,0.31,1.53,1.6,12.0146,157.836,71.064,175,75
2026-05-09 16:12:05.806,4,0.19,0.96,1.49,33.354600000000005,211.006,67.224,175,75
2026-05-09 16:12:05.820,4,0.15,0.78,1.55,34.7646,238.566,56.744,175,75
2026-05-09 16:12:05.843,4,-0.06,0.5,2.18,78.9046,182.656,-12.405999999999999,175,75
2026-05-09 16:12:05.855,4,-0.17,0.29,2.24,88.66460000000001,107.776,-35.396,175,75
2026-05-09 16:12:05.866,4,-0.37,0.11,2.21,92.8746,38.266000000000005,-54.416000000000004,175,75
2026-05-09 16:12:05.901,4,-0.97,-0.71,1.12,80.1846,-124.964,-107.046,175,75
2026-05-09 16:12:05.912,4,-1.16,-0.86,0.95,70.7346,-66.254,-104.056,175,75
2026-05-09 16:12:05.923,4,-1.4,-0.83,1.12,52.1346,39.116,-85.946,175,75
2026-05-09 16:12:05.950,4,-1.33,-0.5,1.71,31.104600000000005,33.93599999999999,-64.416,175,75
2026-05-09 16:12:05.978,4,-1.68,-0.67,1.48,-13.775400000000001,-191.004,-54.606,175,75
2026-05-09 16:12:05.983,4,-1.7,-0.61,1.31,-21.4554,-168.814,-50.456,175,75
2026-05-09 16:12:05.994,4,-1.51,-0.39,1.19,-20.5454,-123.204,-37.346000000000004,175,75
2026-05-09 16:12:06.007,4,-1.28,-0.18,1.21,-14.9954,-84.78399999999999,-15.946,175,75
2026-05-09 16:12:06.018,4,-1.11,-0.09,1.23,-10.115400000000001,-64.844,-2.406,175,75
2026-05-09 16:12:06.045,4,-0.89,-0.14,1.25,-1.0953999999999997,-51.494,9.114,175,75
2026-05-09 16:12:06.057,4,-0.84,-0.18,1.19,-1.5154000000000005,-42.224000000000004,9.844000000000001,175,75
2026-05-09 16:12:06.077,4,-0.73,-0.03,1.19,-5.6054,-2.224,14.724,175,75
2026-05-09 16:12:06.091,4,-0.61,0.07,1.26,-9.0754,11.986,19.604,175,75
2026-05-09 16:12:06.103,4,-0.5,0.21,1.39,-15.0554,8.815999999999999,23.634,175,75
2026-05-09 16:12:06.117,4,-0.39,0.38,1.47,-20.3654,-6.554,25.034,175,75
2026-05-09 16:12:06.143,4,-0.22,0.67,1.46,-32.9254,-44.054,22.043999999999997,175,75
2026-05-09 16:12:06.154,4,-0.19,0.8,1.42,-38.3454,-44.484,20.823999999999998,175,75
2026-05-09 16:12:06.165,4,-0.18,0.89,1.41,-40.1754,-35.944,21.374,175,75
2026-05-09 16:12:06.173,4,-0.15,0.99,1.42,-38.7754,-20.034000000000002,22.534,175,75
2026-05-09 16:12:06.187,4,-0.12,1.05,1.47,-35.6054,-9.844000000000001,24.304,175,75
2026-05-09 16:12:06.219,4,-0.2,1.04,1.7,-37.3154,-1.434000000000001,22.474,175,75
2026-05-09 16:12:06.248,4,-0.22,0.65,1.61,-17.0054,-2.464000000000002,40.943999999999996,175,75
2026-05-09 16:12:06.258,4,-0.29,0.25,1.51,-3.5354,1.6759999999999984,41.804,175,75
2026-05-09 16:12:06.269,4,-0.43,-0.46,1.46,12.1346,19.115999999999996,34.784,175,75
2026-05-09 16:12:06.282,4,-0.42,-1.31,1.46,20.614600000000003,53.146,21.733999999999998,175,75
2026-05-09 16:12:06.295,4,-0.56,-3.14,1.75,21.9546,26.795999999999996,40.704,175,75
2026-05-09 16:12:06.307,4,-1.05,-3.11,1.9,10.3746,-8.934000000000001,20.703999999999997,175,75
2026-05-09 16:12:06.323,4,-1.2,-2.35,1.95,-20.6054,-40.214,-51.556000000000004,175,75
2026-05-09 16:12:06.358,4,-0.38,-0.84,1.45,-89.2654,-104.42399999999999,16.733999999999998,175,75
2026-05-09 16:12:06.368,4,-0.56,-0.86,1.27,-49.9954,-67.224,6.614000000000001,175,75
2026-05-09 16:12:06.379,4,-0.41,-0.92,1.39,-27.2554,24.115999999999996,12.104000000000001,175,75
2026-05-09 16:12:06.390,4,-0.38,-0.83,1.52,-34.8754,68.206,18.814,175,75
2026-05-09 16:12:06.403,4,-0.34,-0.42,1.77,-24.325400000000002,34.056,-4.356,175,75
2026-05-09 16:12:06.413,4,-0.36,-0.19,1.76,-18.8354,17.836000000000002,-3.386,175,75
2026-05-09 16:12:06.423,4,-0.34,0.03,1.66,-10.365400000000001,5.8260000000000005,-5.396,175,75
2026-05-09 16:12:06.436,4,-0.3,0.15,1.57,-4.2054,4.725999999999999,-6.1259999999999994,175,75
2026-05-09 16:12:06.460,4,-0.27,0.22,1.46,12.5646,44.29600000000001,-6.736,175,75
2026-05-09 16:12:06.492,4,-0.29,0.37,1.75,17.9946,32.956,-21.066000000000003,175,75
2026-05-09 16:12:06.504,4,-0.3,0.49,1.81,14.9446,2.655999999999999,-25.826,175,75
2026-05-09 16:12:06.512,4,-0.32,0.66,1.79,10.3746,-40.884,-31.306,175,75
2026-05-09 16:12:06.533,4,-0.35,0.77,1.7,7.204600000000001,-68.754,-35.026,175,75
2026-05-09 16:12:06.551,4,-0.4,0.82,1.57,5.4946,-82.774,-38.386,175,75
2026-05-09 16:12:06.567,4,-0.55,0.72,1.32,13.7846,-51.004000000000005,-37.046,175,75
2026-05-09 16:12:06.576,4,-0.57,0.67,1.27,16.1646,-30.574,-32.526,175,75
2026-05-09 16:12:06.591,4,-0.56,0.63,1.24,14.9446,-9.234000000000002,-29.116,175,75
2026-05-09 16:12:06.604,4,-0.54,0.6,1.23,10.184600000000001,15.886,-27.956000000000003,175,75
2026-05-09 16:12:06.627,4,-0.49,0.62,1.32,3.7246000000000006,52.286,-23.866,175,75
2026-05-09 16:12:06.627,4,-0.46,0.61,1.39,2.8146000000000004,57.46600000000001,-20.696,175,75
2026-05-09 16:12:06.638,4,-0.42,0.55,1.5,1.6546000000000003,45.156000000000006,-18.016000000000002,175,75
2026-05-09 16:12:06.648,4,-0.4,0.4,1.59,-1.2154000000000007,19.545999999999996,-17.406000000000002,175,75
2026-05-09 16:12:06.670,4,-0.39,0.2,1.63,-5.055400000000001,-20.154,-20.216,175,75
2026-05-09 16:12:06.686,4,-0.44,-0.27,1.43,-17.3154,-107.654,-27.656000000000002,175,75
2026-05-09 16:12:06.702,4,-0.48,-0.51,1.28,-20.0554,-114.664,-24.726000000000003,175,75
2026-05-09 16:12:06.712,4,-0.5,-0.76,1.15,-20.2354,-103.264,-18.996000000000002,175,75
2026-05-09 16:12:06.723,4,-0.48,-1.08,1.04,-16.0954,-71.554,-9.116,175,75
2026-05-09 16:12:06.723,4,-0.43,-1.36,1.05,-11.6454,-43.624,-0.756,175,75
2026-05-09 16:12:06.734,4,-0.39,-1.58,1.2,-12.0654,-28.264000000000003,5.094,175,75
2026-05-09 16:12:06.750,4,-0.38,-1.65,1.39,-20.845399999999998,-35.884,4.974,175,75
2026-05-09 16:12:06.772,4,-0.38,-1.58,1.48,-30.425400000000003,-65.70400000000001,1.554,175,75
2026-05-09 16:12:06.784,4,-0.33,-1.45,1.34,-37.1854,-105.214,2.164,175,75
2026-05-09 16:12:06.784,4,-0.25,-1.29,1.02,-37.6754,-104.544,14.484,175,75
2026-05-09 16:12:06.800,4,-0.22,-1.21,0.74,-31.455399999999997,-55.45400000000001,29.363999999999997,175,75
2026-05-09 16:12:06.800,4,-0.22,-1.16,0.53,-22.5554,26.926,43.564,175,75
2026-05-09 16:12:06.815,4,-0.26,-1.08,0.53,-15.2354,168.816,59.364,175,75
2026-05-09 16:12:06.828,4,-0.27,-1.0,0.77,-13.6554,268.38599999999997,68.264,175,75
2026-05-09 16:12:06.828,4,-0.22,-0.9,1.15,-9.6854,339.726,70.704,175,75
2026-05-09 16:12:06.841,4,-0.16,-0.8,1.44,-4.9954,341.616,65.704,175,75
2026-05-09 16:12:06.850,4,-0.13,-0.64,1.7,-4.1454,302.106,57.224,175,75
2026-05-09 16:12:06.861,4,-0.15,-0.46,1.81,-8.8954,261.376,47.653999999999996,175,75
2026-05-09 16:12:06.872,4,-0.13,-0.17,1.83,-13.4054,233.506,38.934,175,75
2026-05-09 16:12:06.884,4,-0.08,0.2,1.82,-9.8754,225.096,35.884,175,75
2026-05-09 16:12:06.896,4,-0.08,0.53,1.84,-0.785400000000001,226.556,33.384,175,75
2026-05-09 16:12:06.908,4,-0.11,0.78,1.9,7.5646,231.986,29.913999999999998,175,75
2026-05-09 16:12:06.919,4,-0.18,1.08,2.01,19.7646,235.946,23.503999999999998,175,75
2026-05-09 16:12:06.932,4,-0.32,1.26,2.04,32.7446,217.836,18.023999999999997,175,75
2026-05-09 16:12:06.943,4,-0.6,1.11,1.99,55.854600000000005,194.546,13.204,175,75
2026-05-09 16:12:06.955,4,-0.85,0.75,1.94,77.8746,186.066,10.944,175,75
2026-05-09 16:12:06.980,4,-1.23,-0.15,1.91,98.2346,165.39600000000002,6.0040000000000004,175,75
2026-05-09 16:12:06.989,4,-1.22,-0.19,1.89,97.8746,156.986,7.954000000000001,175,75
2026-05-09 16:12:07.001,4,-1.1,-0.16,1.84,101.0446,136.376,10.214,175,75
2026-05-09 16:12:07.012,4,-0.96,-0.12,1.76,102.8146,104.96600000000001,13.564,175,75
2026-05-09 16:12:07.023,4,-0.87,-0.11,1.65,98.9646,76.556,18.264,175,75
2026-05-09 16:12:07.023,4,-0.87,-0.12,1.53,91.8346,67.226,26.134,175,75
2026-05-09 16:12:07.034,4,-0.96,-0.16,1.41,86.1046,84.96600000000001,32.534,175,75
2026-05-09 16:12:07.047,4,-0.93,-0.15,1.43,83.5446,106.796,40.274,175,75
2026-05-09 16:12:07.076,4,-0.67,-0.23,1.52,85.1846,84.486,51.614,175,75
2026-05-09 16:12:07.102,4,-0.63,-0.54,1.24,79.2146,34.426,37.104,175,75
2026-05-09 16:12:07.113,4,-0.62,-0.64,1.09,78.05460000000001,41.855999999999995,32.344,175,75
2026-05-09 16:12:07.123,4,-0.63,-0.72,0.98,76.6546,66.926,29.483999999999998,175,75
2026-05-09 16:12:07.123,4,-0.62,-0.77,0.95,74.2146,99.236,27.834,175,75
2026-05-09 16:12:07.151,4,-0.45,-0.77,1.15,60.3746,147.106,21.733999999999998,175,75
2026-05-09 16:12:07.151,4,-0.33,-0.74,1.27,51.464600000000004,138.506,15.034,175,75
2026-05-09 16:12:07.191,4,-0.15,-0.38,1.43,14.6346,53.74600000000001,-13.806,175,75
2026-05-09 16:12:07.231,4,-0.18,0.33,1.36,-6.5754,-10.514000000000001,-47.286,175,75
2026-05-09 16:12:07.255,4,-0.2,0.69,1.3,-9.1454,-9.724,-52.586,175,75
2026-05-09 16:12:07.269,4,-0.2,1.04,1.28,-1.455400000000001,19.236,-51.856,175,75
2026-05-09 16:12:07.299,4,-0.16,1.19,1.34,8.9046,51.006,-51.126000000000005,175,75
2026-05-09 16:12:07.311,4,-0.16,1.15,1.42,15.184600000000001,57.46600000000001,-51.796,175,75
2026-05-09 16:12:07.321,4,-0.21,1.01,1.49,17.5646,46.79600000000001,-52.716,175,75
2026-05-09 16:12:07.332,4,-0.28,0.85,1.52,16.714599999999997,33.266000000000005,-52.656,175,75
2026-05-09 16:12:07.347,4,-0.36,0.48,1.39,14.024600000000001,6.736000000000001,-52.346000000000004,175,75
2026-05-09 16:12:07.357,4,-0.47,0.18,1.31,13.054599999999999,10.096,-51.736000000000004,175,75
2026-05-09 16:12:07.386,4,-0.7,-1.17,1.32,20.1246,64.786,-51.556000000000004,175,75
2026-05-09 16:12:07.403,4,-0.71,-1.86,1.46,20.614600000000003,61.986000000000004,-41.126000000000005,175,75
2026-05-09 16:12:07.403,4,-0.77,-2.46,1.64,19.0246,31.435999999999996,-22.166,175,75
2026-05-09 16:12:07.414,4,-1.06,-2.86,1.79,10.184600000000001,-24.424,-10.026,175,75
2026-05-09 16:12:07.427,4,-1.41,-2.47,1.77,-24.5054,-80.394,-53.136,175,75
2026-05-09 16:12:07.438,4,-0.98,-1.9,1.5,-73.3454,-94.42399999999999,-99.476,175,75
2026-05-09 16:12:07.448,4,-0.39,-1.37,1.2,-90.4854,-68.144,-32.106,175,75
2026-05-09 16:12:07.471,4,-0.8,-1.02,0.92,-68.2854,22.535999999999998,22.474,175,75
2026-05-09 16:12:07.481,4,-0.79,-0.86,1.06,-39.9354,149.726,21.253999999999998,175,75
2026-05-09 16:12:07.504,4,-0.46,-0.41,1.74,-45.2354,231.92600000000002,41.193999999999996,175,75
2026-05-09 16:12:07.515,4,-0.38,-0.23,1.94,-37.3754,186.556,31.314,175,75
2026-05-09 16:12:07.515,4,-0.3,-0.05,2.03,-29.995400000000004,121.126,25.154,175,75
2026-05-09 16:12:07.527,4,-0.3,0.1,1.93,-25.2954,60.456,20.394,175,75
2026-05-09 16:12:07.555,4,-0.3,0.17,1.6,-13.8954,30.096,9.114,175,75
2026-05-09 16:12:07.567,4,-0.29,0.19,1.45,-5.425400000000001,49.35600000000001,5.884,175,75
2026-05-09 16:12:07.581,4,-0.21,0.31,1.45,-0.4854000000000003,103.32600000000001,2.2239999999999998,175,75
2026-05-09 16:12:07.606,4,-0.12,0.43,1.64,-1.035400000000001,94.116,-10.216,175,75
2026-05-09 16:12:07.618,4,-0.11,0.45,1.68,-2.7354000000000003,67.226,-18.686,175,75
2026-05-09 16:12:07.628,4,-0.11,0.46,1.67,-5.175400000000001,41.316,-27.046000000000003,175,75
2026-05-09 16:12:07.641,4,-0.17,0.53,1.56,-12.865400000000001,9.725999999999999,-43.446,175,75
2026-05-09 16:12:07.651,4,-0.2,0.59,1.54,-13.0454,9.905999999999999,-49.296,175,75
2026-05-09 16:12:07.663,4,-0.19,0.63,1.53,-9.8154,8.445999999999998,-54.296,175,75
2026-05-09 16:12:07.677,4,-0.18,0.66,1.53,-6.705400000000001,0.2759999999999998,-59.416000000000004,175,75
2026-05-09 16:12:07.700,4,-0.19,0.72,1.45,-6.6454,-17.834,-76.306,175,75
2026-05-09 16:12:07.722,4,-0.18,0.77,1.36,-7.4954,-6.3740000000000006,-86.556,175,75
2026-05-09 16:12:07.732,4,-0.19,0.78,1.35,-9.6254,2.4659999999999975,-88.746,175,75
2026-05-09 16:12:07.743,4,-0.19,0.8,1.38,-14.0154,16.435999999999996,-93.256,175,75
2026-05-09 16:12:07.755,4,-0.17,0.81,1.43,-17.6754,23.996,-96.916,175,75
2026-05-09 16:12:07.767,4,-0.16,0.79,1.53,-19.3854,19.605999999999998,-101.126,175,75
2026-05-09 16:12:07.781,4,-0.15,0.71,1.6,-19.145400000000002,-4.784000000000001,-104.666,175,75
2026-05-09 16:12:07.802,4,-0.19,0.29,1.56,-24.7554,-88.994,-112.586,175,75
2026-05-09 16:12:07.823,4,-0.29,-0.62,1.24,-17.8654,-137.104,-99.846,175,75
2026-05-09 16:12:07.864,4,0.22,-2.46,1.04,3.7246000000000006,-102.774,-40.696,175,75
2026-05-09 16:12:07.864,4,0.28,-2.31,1.16,-14.4454,-126.554,-43.566,175,75
2026-05-09 16:12:07.875,4,0.86,-1.54,1.12,-66.0954,-115.094,-53.446,175,75
2026-05-09 16:12:07.887,4,1.5,-1.08,0.8,-89.44539999999999,-37.714,-27.716,175,75
2026-05-09 16:12:07.901,4,2.08,-0.74,0.33,-65.2354,116.436,-3.566,175,75
2026-05-09 16:12:07.911,4,2.4,-0.69,0.29,-21.9454,292.40599999999995,7.8340000000000005,175,75
2026-05-09 16:12:07.937,4,2.2,-1.09,1.16,-30.665399999999998,562.106,-7.286,175,75
2026-05-09 16:12:07.948,4,2.05,-1.3,1.65,-25.0554,596.676,-32.776,175,75
2026-05-09 16:12:07.959,4,2.24,-1.56,2.34,6.044599999999999,526.376,-56.976,175,75
2026-05-09 16:12:07.981,4,1.3,-2.1,3.62,152.7446,381.986,-121.616,175,75
2026-05-09 16:12:07.993,4,1.49,-2.06,3.87,153.5446,221.986,-186.976,175,75
2026-05-09 16:12:08.003,4,1.53,-1.83,3.56,124.5146,87.226,-230.026,175,75
2026-05-09 16:12:08.024,4,1.33,-1.63,2.18,131.9546,-33.814,-280.636,175,75
2026-05-09 16:12:08.036,4,1.26,-1.68,1.78,143.7246,-43.263999999999996,-285.886,175,75
2026-05-09 16:12:08.056,4,1.01,-1.68,1.53,144.3946,-59.903999999999996,-299.416,175,75
2026-05-09 16:12:08.056,4,0.75,-1.57,1.43,138.2946,-66.614,-308.866,175,75
2026-05-09 16:12:08.065,4,0.51,-1.42,1.36,133.1146,-64.294,-316.186,175,75
2026-05-09 16:12:08.077,4,0.37,-1.32,1.28,126.28460000000001,-67.714,-323.866,175,75
2026-05-09 16:12:08.092,4,0.17,-1.19,1.15,113.4246,-67.594,-333.566,175,75
2026-05-09 16:12:08.099,4,0.05,-1.13,1.04,107.2646,-61.254000000000005,-337.656,175,75
2026-05-09 16:12:08.111,4,-0.04,-1.1,0.96,104.5746,-57.044,-337.166,175,75
2026-05-09 16:12:08.139,4,-0.41,-1.15,0.64,96.3446,-20.574,-331.796,175,75
2026-05-09 16:12:08.151,4,-0.48,-1.11,0.65,99.5146,10.035999999999998,-325.636,175,75
2026-05-09 16:12:08.171,4,-0.5,-1.07,0.81,108.1146,34.54599999999999,-314.846,175,75
2026-05-09 16:12:08.181,4,-0.59,-0.99,0.97,110.3146,14.785999999999998,-306.366,175,75
2026-05-09 16:12:08.192,4,-0.73,-0.83,1.09,101.5946,-26.314,-297.776,175,75
2026-05-09 16:12:08.202,4,-0.88,-0.52,1.1,77.8746,-73.324,-279.176,175,75
2026-05-09 16:12:08.216,4,-0.93,-0.29,1.02,55.6746,-92.224,-262.836,175,75
2026-05-09 16:12:08.241,4,-0.92,0.42,0.97,1.2246000000000006,-63.263999999999996,-200.156,175,75
2026-05-09 16:12:08.252,4,-0.88,0.7,1.11,-20.6054,-43.144000000000005,-173.936,175,75
2026-05-09 16:12:08.279,4,-0.59,1.13,1.35,-87.1854,-87.654,-115.276,175,75
2026-05-09 16:12:08.290,4,-0.56,1.09,1.28,-98.2854,-91.184,-98.07600000000001,175,75
2026-05-09 16:12:08.301,4,-0.55,0.98,1.18,-105.2354,-72.714,-78.32600000000001,175,75
2026-05-09 16:12:08.311,4,-0.57,0.87,1.12,-110.4854,-37.224000000000004,-64.056,175,75
2026-05-09 16:12:08.328,4,-0.59,0.79,1.07,-113.8954,8.875999999999998,-54.666000000000004,175,75
2026-05-09 16:12:08.356,4,-0.56,0.65,1.06,-110.1754,146.316,-35.086,175,75
2026-05-09 16:12:08.387,4,-0.48,0.47,1.37,-99.6254,207.536,-48.256,175,75
2026-05-09 16:12:08.399,4,-0.49,0.47,1.49,-98.1654,188.936,-58.996,175,75
2026-05-09 16:12:08.399,4,-0.55,0.52,1.63,-97.6154,150.096,-71.976,175,75
2026-05-09 16:12:08.411,4,-0.62,0.61,1.74,-97.7354,114.96600000000001,-82.46600000000001,175,75
2026-05-09 16:12:08.433,4,-0.6,0.78,1.81,-96.4554,82.656,-89.476,175,75
2026-05-09 16:12:08.466,4,-0.51,1.37,2.0,-81.2754,0.8260000000000005,-72.656,175,75
2026-05-09 16:12:08.476,4,-0.33,1.61,2.02,-74.9354,-16.374000000000002,-58.196,175,75
2026-05-09 16:12:08.476,4,-0.06,1.86,2.05,-67.1254,-22.774,-40.026,175,75
2026-05-09 16:12:08.496,4,0.28,2.16,2.14,-55.3654,-10.644000000000002,-20.946,175,75
2026-05-09 16:12:08.509,4,0.5,2.45,2.38,-47.7954,5.5760000000000005,-10.825999999999999,175,75
2026-05-09 16:12:08.520,4,0.82,2.65,2.6,-52.3754,8.265999999999998,-5.826,175,75
2026-05-09 16:12:08.531,4,1.07,2.69,2.73,-59.5654,-26.734,4.844,175,75
2026-05-09 16:12:08.556,4,1.32,2.83,2.63,-65.4254,-18.264000000000003,31.194,175,75
2026-05-09 16:12:08.568,4,1.49,2.78,2.59,-65.1754,17.895999999999997,43.564,175,75
2026-05-09 16:12:08.579,4,1.68,2.29,2.54,-47.2554,54.35600000000001,61.674,175,75
2026-05-09 16:12:08.589,4,1.69,1.78,2.57,-32.3154,83.266,66.614,175,75
2026-05-09 16:12:08.613,4,1.55,1.11,2.81,-25.605400000000003,130.946,39.174,175,75
2026-05-09 16:12:08.624,4,1.39,0.99,2.93,-21.7054,110.826,25.764,175,75
2026-05-09 16:12:08.635,4,1.09,0.92,2.94,-17.1254,66.436,11.924000000000001,175,75
2026-05-09 16:12:08.661,4,0.68,0.81,2.36,-17.0654,-54.42400000000001,-28.746000000000002,175,75
2026-05-09 16:12:08.693,4,0.41,1.1,1.7,-18.535400000000003,-91.064,-43.686,175,75
2026-05-09 16:12:08.728,4,0.09,0.79,1.42,-17.1854,-65.514,-27.466,175,75
2026-05-09 16:12:08.751,4,0.04,0.57,1.48,-11.0954,-72.594,-24.966,175,75
2026-05-09 16:12:08.773,4,0.01,0.55,1.5,-17.0054,-93.994,-28.996000000000002,175,75
2026-05-09 16:12:08.773,4,-0.01,0.65,1.43,-29.075400000000002,-123.814,-32.776,175,75
2026-05-09 16:12:08.796,4,-0.03,0.77,1.24,-37.7354,-138.994,-31.796000000000003,175,75
2026-05-09 16:12:08.807,4,-0.06,0.81,1.04,-39.995400000000004,-121.124,-24.966,175,75
2026-05-09 16:12:08.817,4,-0.06,0.79,0.91,-36.6454,-66.554,-13.746,175,75
2026-05-09 16:12:08.828,4,-0.01,0.71,0.93,-35.6054,-11.064000000000002,-3.936,175,75
2026-05-09 16:12:08.839,4,0.06,0.63,1.05,-38.1054,44.786,-0.086,175,75
2026-05-09 16:12:08.840,4,0.14,0.62,1.2,-41.8854,73.876,-1.976,175,75
2026-05-09 16:12:08.881,4,0.32,0.85,1.66,-51.9454,76.006,-31.556,175,75
2026-05-09 16:12:08.892,4,0.39,0.93,1.73,-48.6554,78.206,-40.636,175,75
2026-05-09 16:12:08.904,4,0.38,1.03,1.81,-42.675399999999996,78.016,-47.286,175,75
2026-05-09 16:12:08.908,4,0.32,1.23,1.96,-38.2254,70.276,-51.976,175,75
2026-05-09 16:12:08.939,4,0.41,2.35,2.5,-54.6254,7.105999999999998,-55.276,175,75
2026-05-09 16:12:08.989,4,0.65,2.32,2.28,-54.3854,-68.874,-21.306,175,75
2026-05-09 16:12:08.989,4,0.78,2.31,2.26,-66.0354,-39.664,-11.436,175,75
2026-05-09 16:12:08.999,4,0.93,2.24,2.29,-66.5754,-27.104,-1.916,175,75
2026-05-09 16:12:09.014,4,1.01,2.07,2.26,-58.105399999999996,-25.704,8.504,175,75
2026-05-09 16:12:09.030,4,1.01,1.79,2.19,-47.2554,-24.784,15.644,175,75
2026-05-09 16:12:09.042,4,0.97,1.45,2.08,-40.8454,-9.054,19.663999999999998,175,75
2026-05-09 16:12:09.042,4,0.93,1.24,2.01,-39.8154,24.115999999999996,19.483999999999998,175,75
2026-05-09 16:12:09.053,4,0.93,1.16,2.0,-36.5754,49.35600000000001,19.543999999999997,175,75
2026-05-09 16:12:09.080,4,1.01,0.97,2.06,-15.7254,81.316,11.924000000000001,175,75
2026-05-09 16:12:09.101,4,0.91,0.6,2.03,6.6546,63.446,-13.506,175,75
2026-05-09 16:12:09.101,4,0.8,0.51,2.0,10.434600000000001,51.85600000000001,-28.326,175,75
2026-05-09 16:12:09.115,4,0.73,0.55,1.99,13.6046,33.68599999999999,-46.796,175,75
2026-05-09 16:12:09.126,4,0.64,0.71,2.01,18.964599999999997,-3.144000000000002,-64.666,175,75
2026-05-09 16:12:09.142,4,0.59,0.86,2.02,17.934600000000003,-35.034,-74.606,175,75
2026-05-09 16:12:09.155,4,0.56,0.97,1.97,12.3846,-76.854,-84.666,175,75
2026-05-09 16:12:09.181,4,0.43,1.13,1.81,-21.7054,-151.984,-96.436,175,75
2026-05-09 16:12:09.192,4,0.44,1.32,1.74,-45.2954,-162.404,-91.976,175,75
2026-05-09 16:12:09.203,4,0.52,1.53,1.68,-66.1554,-163.874,-81.736,175,75
2026-05-09 16:12:09.214,4,0.65,1.72,1.6,-83.8954,-143.38400000000001,-61.306000000000004,175,75
2026-05-09 16:12:09.214,4,0.81,1.7,1.51,-89.6854,-111.854,-42.956,175,75
2026-05-09 16:12:09.226,4,0.95,1.51,1.4,-89.0154,-73.874,-26.436,175,75
2026-05-09 16:12:09.236,4,1.02,1.29,1.34,-88.7754,-24.724,-14.606,175,75
2026-05-09 16:12:09.248,4,1.03,1.22,1.38,-92.4954,27.715999999999998,-4.965999999999999,175,75
2026-05-09 16:12:09.260,4,0.99,1.27,1.55,-94.8754,66.556,1.6139999999999999,175,75
2026-05-09 16:12:09.274,4,0.96,1.24,1.69,-94.3854,77.956,4.174,175,75
2026-05-09 16:12:09.285,4,0.91,1.13,1.84,-94.8754,70.57600000000001,4.484,175,75
2026-05-09 16:12:09.296,4,0.86,1.04,1.95,-98.6554,48.626000000000005,0.704,175,75
2026-05-09 16:12:09.307,4,0.84,1.02,1.96,-103.4054,18.685999999999996,-4.175999999999999,175,75
2026-05-09 16:12:09.317,4,0.8,1.0,1.87,-100.9054,-21.004,-11.006,175,75
2026-05-09 16:12:09.331,4,0.69,0.97,1.74,-95.3654,-49.114000000000004,-15.886,175,75
2026-05-09 16:12:09.340,4,0.58,0.93,1.67,-92.3154,-60.944,-19.726000000000003,175,75
2026-05-09 16:12:09.351,4,0.47,0.9,1.61,-89.3854,-71.924,-25.086000000000002,175,75
2026-05-09 16:12:09.378,4,0.33,0.84,1.51,-83.9554,-93.684,-35.636,175,75
2026-05-09 16:12:09.387,4,0.26,0.82,1.44,-79.5654,-85.764,-38.076,175,75
2026-05-09 16:12:09.401,4,0.25,0.8,1.36,-76.94539999999999,-64.664,-41.916000000000004,175,75
2026-05-09 16:12:09.408,4,0.24,0.81,1.26,-75.4854,-41.924,-45.696,175,75
2026-05-09 16:12:09.415,4,0.21,0.86,1.17,-71.0954,-17.164,-49.416000000000004,175,75
2026-05-09 16:12:09.430,4,0.09,0.88,1.14,-63.5954,10.215999999999998,-50.396,175,75
2026-05-09 16:12:09.464,4,-0.11,0.77,1.35,-57.0054,46.126000000000005,-51.246,175,75
2026-05-09 16:12:09.474,4,-0.11,0.75,1.46,-58.3454,26.376,-55.456,175,75
2026-05-09 16:12:09.494,4,-0.07,0.75,1.55,-62.4954,-0.9440000000000026,-59.416000000000004,175,75
2026-05-09 16:12:09.507,4,0.04,0.78,1.62,-68.8954,-38.504000000000005,-64.296,175,75
2026-05-09 16:12:09.519,4,0.15,0.83,1.6,-73.5354,-77.714,-65.946,175,75
2026-05-09 16:12:09.519,4,0.24,0.91,1.55,-74.5654,-100.884,-63.016,175,75
2026-05-09 16:12:09.536,4,0.36,1.0,1.45,-70.4254,-109.17399999999999,-54.236000000000004,175,75
2026-05-09 16:12:09.548,4,0.53,1.04,1.39,-62.1254,-90.03399999999999,-44.906,175,75
2026-05-09 16:12:09.558,4,0.59,1.24,1.58,-62.1254,-56.373999999999995,-41.006,175,75
2026-05-09 16:12:09.571,4,0.62,1.56,1.8,-70.2354,-29.424,-39.966,175,75
2026-05-09 16:12:09.583,4,0.76,2.0,2.02,-82.55539999999999,-10.824000000000002,-34.666000000000004,175,75
2026-05-09 16:12:09.593,4,1.1,2.52,2.2,-91.94539999999999,-15.824000000000002,-25.576,175,75
2026-05-09 16:12:09.615,4,1.4,1.97,2.2,-90.2354,8.745999999999999,-12.895999999999999,175,75
2026-05-09 16:12:09.633,4,1.55,2.05,2.46,-109.8754,45.57600000000001,-23.196,175,75
2026-05-09 16:12:09.643,4,1.58,2.24,2.75,-120.6654,20.156000000000002,-31.856,175,75
2026-05-09 16:12:09.659,4,1.51,1.98,2.74,-117.6154,-35.154,-22.166,175,75
2026-05-09 16:12:09.671,4,1.44,1.55,2.55,-116.94539999999999,-49.604,-16.976000000000003,175,75
2026-05-09 16:12:09.681,4,1.48,1.35,2.44,-121.2154,-32.654,-16.126,175,75
2026-05-09 16:12:09.696,4,1.56,1.26,2.36,-120.1154,-1.7340000000000018,-12.405999999999999,175,75
2026-05-09 16:12:09.709,4,1.59,1.18,2.36,-106.5154,14.785999999999998,-15.456,175,75
2026-05-09 16:12:09.719,4,1.45,1.15,2.39,-98.7154,17.346,-22.776,175,75
2026-05-09 16:12:09.719,4,1.32,1.13,2.36,-100.7254,10.765999999999998,-31.366,175,75
2026-05-09 16:12:09.731,4,1.21,1.09,2.26,-105.05539999999999,-3.3840000000000003,-39.476,175,75
2026-05-09 16:12:09.742,4,1.06,1.01,2.04,-108.0454,-13.754000000000001,-49.236000000000004,175,75
2026-05-09 16:12:09.752,4,0.86,0.9,1.8,-108.2254,-13.384,-57.406,175,75
2026-05-09 16:12:09.763,4,0.59,0.82,1.65,-105.9754,-8.874,-63.806000000000004,175,75
2026-05-09 16:12:09.775,4,0.36,0.77,1.6,-103.7754,4.116,-67.71600000000001,175,75
2026-05-09 16:12:09.801,4,0.21,0.69,1.65,-102.7354,10.765999999999998,-71.436,175,75
2026-05-09 16:12:09.822,4,0.08,0.46,1.74,-99.6254,-86.434,-80.396,175,75
2026-05-09 16:12:09.834,4,0.04,0.39,1.71,-99.44539999999999,-123.564,-82.896,175,75
2026-05-09 16:12:09.834,4,0.01,0.35,1.66,-101.8254,-155.214,-83.746,175,75
2026-05-09 16:12:09.860,4,-0.09,0.55,1.4,-119.5054,-207.774,-83.196,175,75
2026-05-09 16:12:09.867,4,-0.09,0.68,1.2,-122.55539999999999,-199.114,-78.196,175,75
2026-05-09 16:12:09.883,4,-0.08,0.76,1.0,-117.7954,-170.644,-67.046,175,75
2026-05-09 16:12:09.895,4,-0.11,0.78,0.89,-107.4954,-115.574,-49.846000000000004,175,75
2026-05-09 16:12:09.907,4,-0.15,0.76,0.9,-100.05539999999999,-55.394000000000005,-38.746,175,75
2026-05-09 16:12:09.919,4,-0.13,0.73,1.02,-94.6254,5.5760000000000005,-27.656000000000002,175,75
2026-05-09 16:12:09.924,4,-0.08,0.71,1.18,-90.7854,43.266000000000005,-21.006,175,75
2026-05-09 16:12:09.935,4,-0.02,0.69,1.31,-88.7154,58.32600000000001,-18.446,175,75
2026-05-09 16:12:09.942,4,0.02,0.7,1.44,-88.4754,63.07600000000001,-17.166,175,75
2026-05-09 16:12:09.956,4,0.04,0.76,1.56,-90.9754,66.006,-18.566000000000003,175,75
2026-05-09 16:12:09.971,4,0.13,0.91,1.66,-91.8254,73.506,-25.636000000000003,175,75
2026-05-09 16:12:09.982,4,0.26,1.06,1.71,-85.2954,80.036,-29.846,175,75
2026-05-09 16:12:09.993,4,0.35,1.14,1.71,-76.2754,87.046,-31.856,175,75
2026-05-09 16:12:10.007,4,0.43,1.2,1.7,-65.36540000000001,96.49600000000001,-33.746,175,75
2026-05-09 16:12:10.007,4,0.45,1.26,1.71,-54.2654,106.376,-34.236000000000004,175,75
2026-05-09 16:12:10.023,4,0.37,1.38,1.85,-40.7254,125.70599999999999,-34.846000000000004,175,75
2026-05-09 16:12:10.063,4,0.56,1.87,2.58,-34.8154,104.96600000000001,-32.226,175,75
2026-05-09 16:12:10.078,4,0.68,2.02,2.74,-38.2854,39.54599999999999,-32.526,175,75
2026-05-09 16:12:10.078,4,0.58,2.18,2.77,-45.9754,-50.704,-35.216,175,75
2026-05-09 16:12:10.092,4,0.42,2.5,2.86,-70.6654,-96.92399999999999,-35.886,175,75
2026-05-09 16:12:10.116,4,0.89,2.69,2.81,-107.0054,-95.454,-15.575999999999999,175,75
2026-05-09 16:12:10.138,4,1.5,2.32,2.31,-100.2954,-138.684,15.154,175,75
2026-05-09 16:12:10.149,4,1.55,1.84,1.9,-63.105399999999996,-143.754,26.494,175,75
2026-05-09 16:12:10.149,4,1.43,1.25,1.58,-33.7154,-52.593999999999994,29.304,175,75
2026-05-09 16:12:10.160,4,1.32,1.02,1.74,-39.5054,68.32600000000001,24.363999999999997,175,75
2026-05-09 16:12:10.171,4,1.35,1.12,2.1,-45.6654,119.666,16.003999999999998,175,75
2026-05-09 16:12:10.181,4,1.36,1.23,2.39,-37.9854,109.05600000000001,12.714,175,75
2026-05-09 16:12:10.181,4,1.28,1.14,2.53,-16.395400000000002,62.166,11.374,175,75
2026-05-09 16:12:10.192,4,1.24,0.75,2.44,0.6145999999999994,24.605999999999998,0.09400000000000001,175,75
2026-05-09 16:12:10.201,4,1.29,0.28,2.18,4.1546,3.445999999999998,-28.506,175,75
2026-05-09 16:12:10.224,4,1.23,-0.01,1.88,9.1546,-12.594000000000001,-60.886,175,75
2026-05-09 16:12:10.235,4,1.02,-0.02,1.76,15.984599999999999,-19.844,-76.186,175,75
2026-05-09 16:12:10.247,4,0.78,0.17,1.83,17.4446,-8.624,-81.976,175,75
2026-05-09 16:12:10.275,4,0.49,0.95,2.03,-24.0154,-71.924,-92.896,175,75
2026-05-09 16:12:10.289,4,0.57,1.05,1.95,-48.715399999999995,-88.204,-90.82600000000001,175,75
2026-05-09 16:12:10.302,4,0.63,1.19,1.9,-63.5954,-104.354,-89.176,175,75
2026-05-09 16:12:10.306,4,0.66,1.36,1.8,-77.4354,-105.514,-81.496,175,75
