Time,ID,Ax,Ay,Az,Gx,Gy,Gz,Height,Weight
2026-05-11 17:52:59.613,4,0.11,-1.28,1.64,3.859400000000001,-8.4056,-4.3142,175,75
2026-05-11 17:52:59.626,4,0.11,-1.27,1.64,4.1693999999999996,-5.785599999999999,-4.254199999999999,175,75
2026-05-11 17:52:59.639,4,0.12,-1.27,1.64,4.839400000000001,-4.935599999999999,-4.374199999999998,175,75
2026-05-11 17:52:59.652,4,0.12,-1.28,1.66,4.7194,-7.065599999999999,-4.374199999999998,175,75
2026-05-11 17:52:59.659,4,0.11,-1.28,1.65,4.229399999999998,-8.285599999999999,-4.3142,175,75
2026-05-11 17:52:59.684,4,0.11,-1.27,1.64,4.349399999999999,-7.1255999999999995,-4.074199999999999,175,75
2026-05-11 17:52:59.707,4,0.11,-1.28,1.65,4.779399999999999,-5.725599999999999,-3.9441999999999986,175,75
2026-05-11 17:52:59.707,4,0.11,-1.27,1.65,4.349399999999999,-6.755599999999999,-3.6441999999999997,175,75
2026-05-11 17:52:59.733,4,0.12,-1.27,1.64,4.2894000000000005,-8.2256,-3.7041999999999984,175,75
2026-05-11 17:52:59.742,4,0.11,-1.27,1.64,4.109400000000001,-9.0756,-3.7041999999999984,175,75
2026-05-11 17:52:59.787,4,0.11,-1.28,1.63,4.2894000000000005,-4.385599999999999,-2.7241999999999997,175,75
2026-05-11 17:52:59.800,4,0.11,-1.28,1.65,3.9193999999999996,-4.625599999999999,-2.7941999999999982,175,75
2026-05-11 17:52:59.840,4,0.11,-1.28,1.65,4.109400000000001,-5.055599999999999,-2.6041999999999987,175,75
2026-05-11 17:52:59.883,4,0.12,-1.29,1.65,4.349399999999999,-6.455599999999999,-2.7941999999999982,175,75
2026-05-11 17:52:59.883,4,0.12,-1.28,1.64,4.109400000000001,-7.795599999999999,-2.7941999999999982,175,75
2026-05-11 17:52:59.883,4,0.12,-1.27,1.63,3.439399999999999,-8.045599999999999,-2.9141999999999992,175,75
2026-05-11 17:52:59.905,4,0.11,-1.27,1.62,3.439399999999999,-6.515599999999999,-2.304199999999998,175,75
2026-05-11 17:52:59.905,4,0.12,-1.27,1.63,4.049399999999999,-6.275599999999999,-2.1142000000000003,175,75
2026-05-11 17:52:59.917,4,0.11,-1.27,1.63,3.5594,-5.965599999999999,-2.1142000000000003,175,75
2026-05-11 17:52:59.930,4,0.12,-1.28,1.63,3.439399999999999,-5.6655999999999995,-1.9941999999999993,175,75
2026-05-11 17:52:59.940,4,0.12,-1.28,1.62,2.8293999999999997,-4.625599999999999,-2.5441999999999982,175,75
2026-05-11 17:52:59.951,4,0.11,-1.28,1.62,2.3394000000000013,-1.0855999999999995,-2.3642000000000003,175,75
2026-05-11 17:52:59.962,4,0.12,-1.28,1.63,1.7894000000000005,0.004400000000001292,-1.9941999999999993,175,75
2026-05-11 17:52:59.984,4,0.13,-1.28,1.64,1.0594000000000001,-3.105599999999999,-2.3642000000000003,175,75
2026-05-11 17:52:59.995,4,0.13,-1.28,1.64,0.8094000000000001,-5.115599999999999,-2.5441999999999982,175,75
2026-05-11 17:53:00.007,4,0.13,-1.28,1.63,0.26940000000000097,-7.065599999999999,-3.2741999999999987,175,75
2026-05-11 17:53:00.023,4,0.12,-1.28,1.62,0.019400000000000972,-3.225599999999999,-3.2741999999999987,175,75
2026-05-11 17:53:00.029,4,0.13,-1.28,1.62,-0.0406000000000013,-2.4955999999999987,-3.2741999999999987,175,75
2026-05-11 17:53:00.038,4,0.13,-1.28,1.63,0.2093999999999987,-2.065599999999999,-3.5241999999999987,175,75
2026-05-11 17:53:00.054,4,0.13,-1.28,1.64,0.2093999999999987,-2.0055999999999994,-3.8241999999999994,175,75
2026-05-11 17:53:00.064,4,0.13,-1.28,1.65,0.07939999999999969,-3.525599999999999,-4.074199999999999,175,75
2026-05-11 17:53:00.075,4,0.12,-1.28,1.65,0.2093999999999987,-4.9956,-4.3142,175,75
2026-05-11 17:53:00.083,4,0.12,-1.28,1.64,-0.22060000000000102,-6.275599999999999,-4.924199999999999,175,75
2026-05-11 17:53:00.093,4,0.12,-1.28,1.64,-0.5905999999999985,-6.695599999999999,-5.164199999999999,175,75
2026-05-11 17:53:00.109,4,0.11,-1.28,1.63,-0.7706000000000017,-6.3355999999999995,-5.044199999999998,175,75
2026-05-11 17:53:00.124,4,0.12,-1.28,1.62,-0.7105999999999995,-4.255599999999999,-4.924199999999999,175,75
2026-05-11 17:53:00.146,4,0.12,-1.28,1.65,-0.5905999999999985,-2.975599999999999,-4.5542,175,75
2026-05-11 17:53:00.158,4,0.12,-1.28,1.65,-0.8306000000000004,-4.7456,-4.8042,175,75
2026-05-11 17:53:00.173,4,0.11,-1.28,1.64,-0.9506000000000014,-5.545599999999999,-4.5542,175,75
2026-05-11 17:53:00.198,4,0.11,-1.28,1.66,-0.470600000000001,-7.9155999999999995,-4.684199999999999,175,75
2026-05-11 17:53:00.215,4,0.11,-1.28,1.65,-0.40060000000000073,-7.065599999999999,-4.9841999999999995,175,75
2026-05-11 17:53:00.251,4,0.11,-1.28,1.64,1.5493999999999986,-6.215599999999999,-5.104199999999999,175,75
2026-05-11 17:53:00.262,4,0.12,-1.28,1.65,1.6693999999999996,-6.145599999999999,-5.164199999999999,175,75
2026-05-11 17:53:00.277,4,0.11,-1.27,1.65,2.3994,-6.3355999999999995,-5.164199999999999,175,75
2026-05-11 17:53:00.286,4,0.12,-1.28,1.66,1.9694000000000003,-7.005599999999999,-5.164199999999999,175,75
2026-05-11 17:53:00.302,4,0.11,-1.27,1.64,2.8293999999999997,-5.905599999999999,-5.2242,175,75
2026-05-11 17:53:00.319,4,0.11,-1.27,1.65,3.7394,-5.175599999999999,-4.9841999999999995,175,75
2026-05-11 17:53:00.337,4,0.12,-1.27,1.66,4.529399999999999,-6.455599999999999,-4.924199999999999,175,75
2026-05-11 17:53:00.356,4,0.11,-1.27,1.64,4.779399999999999,-7.1255999999999995,-5.2242,175,75
2026-05-11 17:53:00.378,4,0.11,-1.27,1.64,5.449400000000001,-4.445599999999999,-4.744199999999999,175,75
2026-05-11 17:53:00.391,4,0.11,-1.27,1.63,5.569399999999998,-3.835599999999999,-4.744199999999999,175,75
2026-05-11 17:53:00.413,4,0.11,-1.27,1.64,5.8094,-3.165599999999999,-4.8641999999999985,175,75
2026-05-11 17:53:00.427,4,0.11,-1.28,1.65,6.119399999999999,-3.775599999999999,-4.744199999999999,175,75
2026-05-11 17:53:00.427,4,0.12,-1.29,1.65,6.4894,-5.475599999999999,-4.494199999999999,175,75
2026-05-11 17:53:00.438,4,0.12,-1.28,1.64,6.6693999999999996,-8.775599999999999,-4.6141999999999985,175,75
2026-05-11 17:53:00.481,4,0.11,-1.27,1.62,7.099399999999999,-4.7456,-4.004199999999999,175,75
2026-05-11 17:53:00.494,4,0.11,-1.27,1.63,6.609400000000001,-4.195599999999999,-4.254199999999999,175,75
2026-05-11 17:53:00.505,4,0.11,-1.27,1.64,6.359400000000001,-5.055599999999999,-4.1342,175,75
2026-05-11 17:53:00.517,4,0.11,-1.27,1.64,5.939399999999999,-6.3355999999999995,-4.254199999999999,175,75
2026-05-11 17:53:00.521,4,0.11,-1.27,1.64,5.019400000000001,-7.675599999999999,-4.494199999999999,175,75
2026-05-11 17:53:00.533,4,0.11,-1.27,1.64,4.7194,-8.045599999999999,-4.5542,175,75
2026-05-11 17:53:00.543,4,0.11,-1.27,1.63,4.049399999999999,-7.795599999999999,-4.684199999999999,175,75
2026-05-11 17:53:00.555,4,0.11,-1.27,1.63,3.9193999999999996,-7.365599999999999,-4.254199999999999,175,75
2026-05-11 17:53:00.576,4,0.11,-1.27,1.64,3.439399999999999,-10.1756,-3.7041999999999984,175,75
2026-05-11 17:53:00.587,4,0.11,-1.28,1.64,3.0093999999999994,-12.185599999999999,-3.9441999999999986,175,75
2026-05-11 17:53:00.600,4,0.11,-1.27,1.64,2.519400000000001,-14.2556,-3.584199999999999,175,75
2026-05-11 17:53:00.600,4,0.1,-1.28,1.63,2.0993999999999993,-14.865599999999999,-3.334199999999999,175,75
2026-05-11 17:53:00.611,4,0.1,-1.28,1.62,1.7894000000000005,-13.5856,-3.1541999999999994,175,75
2026-05-11 17:53:00.625,4,0.1,-1.27,1.62,1.2993999999999986,-11.5156,-3.094199999999999,175,75
2026-05-11 17:53:00.639,4,0.1,-1.27,1.62,1.2393999999999998,-9.685599999999999,-2.6041999999999987,175,75
2026-05-11 17:53:00.674,4,0.11,-1.26,1.64,1.9694000000000003,-9.685599999999999,-0.9041999999999994,175,75
2026-05-11 17:53:00.696,4,0.11,-1.27,1.63,2.3394000000000013,-10.4156,-0.7141999999999982,175,75
2026-05-11 17:53:00.697,4,0.1,-1.27,1.63,2.3394000000000013,-9.3256,-0.5341999999999985,175,75
2026-05-11 17:53:00.708,4,0.11,-1.27,1.62,2.6393999999999984,-7.555599999999999,-0.2942,175,75
2026-05-11 17:53:00.723,4,0.1,-1.27,1.62,2.9494000000000007,-5.725599999999999,-0.10419999999999874,175,75
2026-05-11 17:53:00.734,4,0.11,-1.28,1.62,3.3794000000000004,-4.805599999999999,0.015800000000002257,175,75
2026-05-11 17:53:00.740,4,0.11,-1.27,1.63,3.3794000000000004,-4.195599999999999,0.3157999999999994,175,75
2026-05-11 17:53:00.751,4,0.11,-1.27,1.63,3.679400000000001,-4.0756,0.445800000000002,175,75
2026-05-11 17:53:00.763,4,0.12,-1.28,1.63,3.7394,-4.625599999999999,0.445800000000002,175,75
2026-05-11 17:53:00.774,4,0.12,-1.28,1.63,3.4994000000000014,-4.9956,0.5657999999999994,175,75
2026-05-11 17:53:00.803,4,0.12,-1.28,1.63,3.859400000000001,-4.195599999999999,0.1357999999999997,175,75
2026-05-11 17:53:00.860,4,0.09,-1.27,1.62,3.7993999999999986,-5.6655999999999995,1.3558000000000021,175,75
2026-05-11 17:53:00.860,4,0.08,-1.27,1.62,3.439399999999999,-3.775599999999999,1.9057999999999993,175,75
2026-05-11 17:53:00.905,4,0.08,-1.27,1.61,3.4994000000000014,0.6144000000000007,3.4258000000000024,175,75
2026-05-11 17:53:00.951,4,0.11,-1.28,1.6,3.3094,5.3744000000000005,3.3058000000000014,175,75
2026-05-11 17:53:00.951,4,0.11,-1.28,1.59,3.7394,10.4344,3.1258000000000017,175,75
2026-05-11 17:53:00.962,4,0.12,-1.28,1.59,4.4694,17.5044,2.5158000000000023,175,75
2026-05-11 17:53:01.009,4,0.13,-1.28,1.59,5.3294,24.5844,1.6658000000000008,175,75
2026-05-11 17:53:01.038,4,0.15,-1.29,1.6,6.119399999999999,30.0644,0.015800000000002257,175,75
2026-05-11 17:53:01.052,4,0.15,-1.29,1.61,4.7194,25.6744,-1.1441999999999979,175,75
2026-05-11 17:53:01.077,4,0.18,-1.31,1.62,2.8893999999999984,16.0444,-3.8241999999999994,175,75
2026-05-11 17:53:01.089,4,0.18,-1.31,1.62,1.1794000000000011,10.2544,-4.684199999999999,175,75
2026-05-11 17:53:01.100,4,0.18,-1.28,1.6,-0.470600000000001,3.9744,-6.324199999999999,175,75
2026-05-11 17:53:01.110,4,0.18,-1.27,1.6,-2.1706000000000003,1.8344000000000014,-6.754199999999999,175,75
2026-05-11 17:53:01.110,4,0.18,-1.28,1.6,-2.0505999999999993,2.6344000000000003,-7.4841999999999995,175,75
2026-05-11 17:53:01.132,4,0.18,-1.28,1.61,-1.9906000000000006,1.4744000000000002,-9.254199999999999,175,75
2026-05-11 17:53:01.132,4,0.17,-1.28,1.62,-1.9306,-0.2955999999999994,-9.864199999999999,175,75
2026-05-11 17:53:01.143,4,0.14,-1.27,1.61,-2.720600000000001,-0.5455999999999994,-10.6542,175,75
2026-05-11 17:53:01.157,4,0.14,-1.27,1.6,-2.6006,1.2844000000000007,-10.594199999999999,175,75
2026-05-11 17:53:01.169,4,0.13,-1.27,1.6,-2.480600000000001,3.2444000000000015,-10.714199999999998,175,75
2026-05-11 17:53:01.170,4,0.13,-1.27,1.6,-3.0305999999999997,4.6444,-10.4742,175,75
2026-05-11 17:53:01.180,4,0.12,-1.27,1.61,-3.2105999999999995,6.4744,-10.1642,175,75
2026-05-11 17:53:01.192,4,0.13,-1.27,1.62,-3.7606,8.054400000000001,-9.864199999999999,175,75
2026-05-11 17:53:01.205,4,0.12,-1.27,1.63,-4.1206,7.8744000000000005,-9.864199999999999,175,75
2026-05-11 17:53:01.234,4,0.12,-1.28,1.65,-6.560600000000001,2.3844000000000003,-8.8842,175,75
2026-05-11 17:53:01.262,4,0.12,-1.27,1.65,-7.1106,-2.365599999999999,-8.3342,175,75
2026-05-11 17:53:01.273,4,0.11,-1.27,1.64,-7.6606000000000005,-4.3256,-8.1542,175,75
2026-05-11 17:53:01.295,4,0.1,-1.26,1.63,-8.8206,-6.215599999999999,-6.8142,175,75
2026-05-11 17:53:01.301,4,0.1,-1.26,1.63,-9.4306,-6.695599999999999,-6.024199999999999,175,75
2026-05-11 17:53:01.312,4,0.11,-1.26,1.63,-11.0106,-8.465599999999998,-4.8641999999999985,175,75
2026-05-11 17:53:01.320,4,0.09,-1.26,1.62,-12.4206,-9.9956,-3.334199999999999,175,75
2026-05-11 17:53:01.335,4,0.1,-1.27,1.61,-14.0006,-10.4756,-2.054199999999998,175,75
2026-05-11 17:53:01.335,4,0.09,-1.26,1.6,-16.5006,-10.965599999999998,-0.7141999999999982,175,75
2026-05-11 17:53:01.345,4,0.08,-1.27,1.58,-18.7006,-9.935599999999999,1.1158000000000001,175,75
2026-05-11 17:53:01.374,4,0.07,-1.27,1.57,-24.610599999999998,-4.505599999999999,5.805800000000001,175,75
2026-05-11 17:53:01.389,4,0.06,-1.26,1.57,-28.2106,-2.065599999999999,10.625800000000002,175,75
2026-05-11 17:53:01.425,4,-0.06,-1.25,1.52,-23.8806,1.6544000000000016,18.425800000000002,175,75
2026-05-11 17:53:01.425,4,-0.08,-1.21,1.5,-17.8406,7.1444,26.055799999999998,175,75
2026-05-11 17:53:01.425,4,-0.02,-1.12,1.5,-10.1606,3.3044000000000002,34.6458,175,75
2026-05-11 17:53:01.437,4,0.03,-1.03,1.42,-1.0106000000000002,-13.285599999999999,43.0058,175,75
2026-05-11 17:53:01.467,4,0.01,-1.12,0.92,15.569399999999998,16.4744,39.165800000000004,175,75
2026-05-11 17:53:01.478,4,0.06,-1.13,0.79,17.7094,68.3644,31.4758,175,75
2026-05-11 17:53:01.478,4,0.1,-1.12,0.78,13.4394,112.4444,20.135800000000003,175,75
2026-05-11 17:53:01.503,4,0.14,-0.95,1.09,-8.7006,150.1944,5.505800000000001,175,75
2026-05-11 17:53:01.518,4,0.15,-0.86,1.24,-18.3306,130.4944,6.905799999999999,175,75
2026-05-11 17:53:01.530,4,0.24,-0.72,1.37,-37.0506,77.1444,10.5658,175,75
2026-05-11 17:53:01.553,4,0.25,-0.58,1.29,-72.8406,-9.5656,10.5658,175,75
2026-05-11 17:53:01.564,4,0.15,-0.68,1.2,-81.4406,-16.145599999999998,9.7758,175,75
2026-05-11 17:53:01.571,4,-0.04,-0.99,1.11,-82.5406,4.2144,10.445800000000002,175,75
2026-05-11 17:53:01.582,4,-0.11,-1.31,1.1,-75.8906,34.6444,11.6658,175,75
2026-05-11 17:53:01.589,4,-0.15,-1.64,1.15,-68.2706,53.7244,11.965800000000002,175,75
2026-05-11 17:53:01.601,4,-0.17,-1.91,1.24,-61.500600000000006,61.1644,12.2058,175,75
2026-05-11 17:53:01.624,4,-0.14,-2.19,1.45,-57.5406,22.6344,14.035800000000002,175,75
2026-05-11 17:53:01.635,4,-0.21,-2.24,1.53,-59.7906,-5.4155999999999995,15.445799999999998,175,75
2026-05-11 17:53:01.647,4,-0.25,-2.21,1.6,-65.3406,-28.6456,16.785800000000002,175,75
2026-05-11 17:53:01.674,4,-0.19,-2.14,1.76,-59.860600000000005,-70.3556,22.3358,175,75
2026-05-11 17:53:01.690,4,-0.05,-1.92,1.81,-54.5506,-116.8256,20.0758,175,75
2026-05-11 17:53:01.703,4,-0.01,-1.66,1.74,-49.5506,-137.1856,18.675800000000002,175,75
2026-05-11 17:53:01.714,4,-0.01,-1.38,1.61,-37.7806,-135.29559999999998,19.165800000000004,175,75
2026-05-11 17:53:01.801,4,0.23,-0.37,1.54,34.46939999999999,111.4144,25.5058,175,75
2026-05-11 17:53:01.812,4,0.27,-0.23,1.66,29.5994,135.1944,22.815800000000003,175,75
2026-05-11 17:53:01.823,4,0.38,-0.05,1.8,23.859399999999997,135.92440000000002,20.4458,175,75
2026-05-11 17:53:01.834,4,0.45,0.03,1.85,19.289399999999997,115.5544,17.275800000000004,175,75
2026-05-11 17:53:01.856,4,0.55,0.01,1.64,8.499400000000001,48.3044,6.4758,175,75
2026-05-11 17:53:01.884,4,0.12,-1.07,1.22,17.5194,30.5544,-23.4042,175,75
2026-05-11 17:53:01.895,4,-0.03,-1.52,1.22,23.619400000000002,34.7044,-24.8642,175,75
2026-05-11 17:53:01.914,4,-0.18,-2.08,1.25,33.799400000000006,42.0244,-20.2942,175,75
2026-05-11 17:53:01.929,4,-0.05,-2.03,1.28,33.6794,29.8844,-17.1842,175,75
2026-05-11 17:53:01.944,4,0.03,-2.11,1.22,33.859399999999994,-11.8856,-19.804199999999998,175,75
2026-05-11 17:53:01.958,4,-0.04,-2.11,1.13,27.829400000000003,-41.6956,-27.4242,175,75
2026-05-11 17:53:01.969,4,-0.08,-2.19,1.07,25.8094,-48.6456,-30.5942,175,75
2026-05-11 17:53:01.980,4,-0.17,-2.46,1.06,32.3994,-49.9356,-28.5842,175,75
2026-05-11 17:53:01.980,4,-0.21,-2.68,1.11,36.549400000000006,-51.1456,-23.8842,175,75
2026-05-11 17:53:01.997,4,-0.22,-2.77,1.18,37.3394,-65.9656,-19.1342,175,75
2026-05-11 17:53:02.013,4,-0.19,-2.23,1.24,26.8494,-121.8256,-15.0442,175,75
2026-05-11 17:53:02.034,4,-0.16,-1.9,1.24,18.1294,-139.6256,-11.0842,175,75
2026-05-11 17:53:02.034,4,-0.12,-1.72,1.23,12.029399999999999,-146.14559999999997,-8.464199999999998,175,75
2026-05-11 17:53:02.066,4,-0.08,-1.36,1.25,2.0993999999999993,-127.5556,-0.10419999999999874,175,75
2026-05-11 17:53:02.076,4,-0.0,-1.08,1.32,-3.640600000000001,-112.8556,4.645800000000001,175,75
2026-05-11 17:53:02.091,4,0.13,-0.48,1.43,-6.380599999999999,-76.3356,9.7058,175,75
2026-05-11 17:53:02.109,4,0.19,-0.26,1.43,-2.3606,-50.1756,9.5258,175,75
2026-05-11 17:53:02.116,4,0.23,-0.09,1.43,5.449400000000001,-17.915599999999998,8.7958,175,75
2026-05-11 17:53:02.128,4,0.25,-0.04,1.43,16.119400000000002,19.5844,6.415800000000001,175,75
2026-05-11 17:53:02.139,4,0.23,-0.13,1.43,25.329400000000003,52.3844,3.855800000000002,175,75
2026-05-11 17:53:02.150,4,0.19,-0.25,1.43,30.689400000000003,75.5544,1.9057999999999993,175,75
2026-05-11 17:53:02.160,4,0.17,-0.35,1.47,32.3394,93.5444,0.07580000000000098,175,75
2026-05-11 17:53:02.173,4,0.17,-0.36,1.52,30.2694,103.1144,-1.7541999999999973,175,75
2026-05-11 17:53:02.189,4,0.21,-0.26,1.57,25.749399999999998,101.1044,-3.7041999999999984,175,75
2026-05-11 17:53:02.201,4,0.27,-0.13,1.59,19.469399999999997,87.2644,-5.6541999999999994,175,75
2026-05-11 17:53:02.214,4,0.3,-0.01,1.51,11.2394,71.4744,-7.914199999999999,175,75
2026-05-11 17:53:02.225,4,0.32,0.0,1.38,2.4593999999999987,67.9944,-11.6342,175,75
2026-05-11 17:53:02.249,4,0.28,-0.52,1.14,-18.6406,75.6144,-22.8542,175,75
2026-05-11 17:53:02.262,4,0.24,-0.87,1.12,-31.6206,78.9144,-25.964199999999998,175,75
2026-05-11 17:53:02.272,4,0.21,-1.38,1.13,-42.9006,65.9244,-24.074199999999998,175,75
2026-05-11 17:53:02.294,4,-0.18,-2.77,1.16,-67.8406,35.1344,-2.6641999999999992,175,75
2026-05-11 17:53:02.306,4,-0.02,-2.84,1.24,-90.47059999999999,16.2844,17.3358,175,75
2026-05-11 17:53:02.317,4,0.15,-2.22,1.25,-122.78059999999999,-16.3356,17.635800000000003,175,75
2026-05-11 17:53:02.327,4,0.18,-1.9,1.19,-128.7006,-28.3456,16.785800000000002,175,75
2026-05-11 17:53:02.351,4,-0.26,-2.96,1.19,-94.4906,35.5544,28.305799999999998,175,75
2026-05-11 17:53:02.365,4,-0.32,-3.12,1.35,-79.1906,91.5344,30.625799999999998,175,75
2026-05-11 17:53:02.376,4,-0.35,-2.79,1.48,-69.7906,128.9744,31.9058,175,75
2026-05-11 17:53:02.387,4,-0.23,-2.07,1.57,-44.730599999999995,165.80440000000002,38.3658,175,75
2026-05-11 17:53:02.399,4,-0.11,-1.59,1.65,-7.8406,167.20440000000002,46.9058,175,75
2026-05-11 17:53:02.409,4,-0.04,-1.31,1.68,20.1394,153.9744,53.4958,175,75
2026-05-11 17:53:02.419,4,0.15,-0.96,1.69,48.0694,122.69439999999999,60.25580000000001,175,75
2026-05-11 17:53:02.433,4,0.26,-0.69,1.66,61.549400000000006,89.7044,60.0758,175,75
2026-05-11 17:53:02.443,4,0.35,-0.46,1.62,69.10940000000001,59.2144,51.785799999999995,175,75
2026-05-11 17:53:02.455,4,0.41,-0.26,1.61,69.16940000000001,38.7244,41.3558,175,75
2026-05-11 17:53:02.466,4,0.51,0.09,1.61,57.21940000000001,3.9144000000000014,25.385800000000003,175,75
2026-05-11 17:53:02.476,4,0.54,0.36,1.56,44.71939999999999,-25.2356,11.6658,175,75
2026-05-11 17:53:02.487,4,0.46,0.56,1.37,34.109399999999994,-53.9556,-7.9742,175,75
2026-05-11 17:53:02.510,4,0.17,0.08,0.98,21.789399999999997,-17.1856,-27.794199999999996,175,75
2026-05-11 17:53:02.510,4,0.06,-0.08,0.88,10.8094,25.1344,-31.4442,175,75
2026-05-11 17:53:02.523,4,-0.04,-0.15,0.88,-0.0406000000000013,78.7244,-30.4742,175,75
2026-05-11 17:53:02.545,4,0.05,-0.29,1.15,-5.2806,110.9844,-23.7042,175,75
2026-05-11 17:53:02.581,4,0.26,-0.96,1.28,-34.0606,-38.7756,-22.7942,175,75
2026-05-11 17:53:02.581,4,0.13,-1.44,1.17,-45.9506,-95.3556,-18.214199999999998,175,75
2026-05-11 17:53:02.619,4,-0.2,-2.01,0.85,-85.3406,-86.9456,2.945800000000002,175,75
2026-05-11 17:53:02.643,4,-0.05,-2.04,0.91,-79.4306,-50.4756,21.415800000000004,175,75
2026-05-11 17:53:02.651,4,-0.11,-2.3,0.95,-73.4506,-47.9756,13.7958,175,75
2026-05-11 17:53:02.694,4,-0.4,-2.96,1.11,-44.1906,-34.2556,21.7258,175,75
2026-05-11 17:53:02.694,4,-0.35,-3.0,1.21,-29.980600000000003,-55.1756,30.745800000000003,175,75
2026-05-11 17:53:02.720,4,-0.19,-2.36,1.23,-9.0006,-98.1056,32.9458,175,75
2026-05-11 17:53:02.720,4,-0.06,-2.15,1.31,-4.1906,-120.6056,28.0058,175,75
2026-05-11 17:53:02.734,4,0.1,-2.0,1.38,-9.9206,-143.2256,13.7958,175,75
2026-05-11 17:53:02.742,4,0.09,-1.75,1.42,-17.0506,-166.0856,-4.8042,175,75
2026-05-11 17:53:02.757,4,-0.01,-1.47,1.43,-11.6906,-166.2756,-13.764199999999999,175,75
2026-05-11 17:53:02.769,4,-0.04,-1.14,1.45,1.7293999999999983,-147.4956,-19.7442,175,75
2026-05-11 17:53:02.777,4,0.0,-0.82,1.49,15.939400000000003,-128.2856,-25.1042,175,75
2026-05-11 17:53:02.792,4,0.04,-0.55,1.5,26.359399999999997,-113.5856,-28.8842,175,75
2026-05-11 17:53:02.802,4,0.06,-0.34,1.5,33.439400000000006,-100.1756,-30.1642,175,75
2026-05-11 17:53:02.813,4,0.06,-0.13,1.48,40.8094,-73.2856,-29.614199999999997,175,75
2026-05-11 17:53:02.824,4,0.05,-0.06,1.45,43.6194,-40.1756,-26.934199999999997,175,75
2026-05-11 17:53:02.871,4,0.16,-0.07,1.54,40.4494,67.4444,-4.494199999999999,175,75
2026-05-11 17:53:02.881,4,0.18,-0.09,1.55,32.57940000000001,85.6744,-0.41419999999999746,175,75
2026-05-11 17:53:02.897,4,0.17,-0.07,1.56,23.9894,108.3044,2.7558000000000007,175,75
2026-05-11 17:53:02.897,4,0.17,-0.03,1.6,18.249399999999998,131.04440000000002,6.2958,175,75
2026-05-11 17:53:02.921,4,0.19,0.01,1.64,14.959399999999999,144.64440000000002,9.0958,175,75
2026-05-11 17:53:02.921,4,0.24,0.03,1.63,11.4194,149.76440000000002,10.6858,175,75
2026-05-11 17:53:02.933,4,0.24,0.05,1.58,8.4394,149.88440000000003,11.055800000000001,175,75
2026-05-11 17:53:02.961,4,0.4,0.13,1.38,9.7194,154.1544,10.6858,175,75
2026-05-11 17:53:02.973,4,0.43,0.03,1.25,12.8294,145.0644,0.3157999999999994,175,75
2026-05-11 17:53:02.973,4,0.35,-0.32,1.08,7.1594000000000015,131.95440000000002,-22.8542,175,75
2026-05-11 17:53:02.986,4,0.25,-0.6,1.0,0.3293999999999997,125.4944,-38.2142,175,75
2026-05-11 17:53:03.003,4,-0.01,-1.07,0.98,1.4893999999999998,107.2044,-47.794200000000004,175,75
2026-05-11 17:53:03.003,4,-0.15,-1.57,0.98,9.229399999999998,90.9844,-43.0942,175,75
2026-05-11 17:53:03.025,4,-0.04,-2.42,1.01,26.9094,45.9844,-26.0242,175,75
2026-05-11 17:53:03.025,4,0.1,-2.68,1.16,24.1694,-24.9356,-27.0542,175,75
2026-05-11 17:53:03.039,4,0.5,-2.38,1.08,-9.6706,-96.6956,-47.2442,175,75
2026-05-11 17:53:03.051,4,0.48,-2.23,0.78,-35.470600000000005,-204.7456,-60.654199999999996,175,75
2026-05-11 17:53:03.075,4,-0.39,-2.53,0.12,-16.1406,-158.10559999999998,-19.554199999999998,175,75
2026-05-11 17:53:03.085,4,-0.7,-2.65,0.09,-11.5606,-14.5056,-5.044199999999998,175,75
2026-05-11 17:53:03.101,4,-0.44,-2.75,0.13,-2.970600000000001,105.0044,11.6658,175,75
2026-05-11 17:53:03.115,4,-0.01,-2.77,0.28,14.659400000000002,164.58440000000002,23.675800000000002,175,75
2026-05-11 17:53:03.115,4,0.2,-2.64,0.6,26.8494,187.5044,19.525800000000004,175,75
2026-05-11 17:53:03.126,4,0.27,-2.47,0.84,26.359399999999997,183.7844,7.0258,175,75
2026-05-11 17:53:03.144,4,0.29,-2.28,1.14,27.9494,153.11440000000002,-10.4742,175,75
2026-05-11 17:53:03.161,4,0.46,-1.68,1.75,8.8594,7.754400000000001,-20.0442,175,75
2026-05-11 17:53:03.192,4,0.48,-0.87,1.49,-45.0406,-217.36559999999997,-24.4942,175,75
2026-05-11 17:53:03.204,4,-0.12,-0.5,0.67,-33.2106,-132.4956,-10.594199999999999,175,75
2026-05-11 17:53:03.216,4,-0.11,-0.38,0.69,-7.2905999999999995,22.8744,1.7257999999999996,175,75
2026-05-11 17:53:03.237,4,0.11,-0.32,1.13,5.269400000000001,127.81439999999999,2.6357999999999997,175,75
2026-05-11 17:53:03.250,4,0.3,-0.29,1.66,2.519400000000001,120.2544,-5.2242,175,75
2026-05-11 17:53:03.257,4,0.31,-0.29,1.94,-13.3906,43.0544,-13.034199999999998,175,75
2026-05-11 17:53:03.301,4,0.03,-0.45,1.77,-48.8806,-81.8256,-18.824199999999998,175,75
2026-05-11 17:53:03.322,4,-0.08,-0.36,1.84,-29.980600000000003,19.7044,-1.0841999999999992,175,75
2026-05-11 17:53:03.333,4,0.05,-0.32,2.02,-31.5006,-2.555599999999999,-0.04420000000000002,175,75
2026-05-11 17:53:03.333,4,0.06,-0.31,2.06,-38.5106,-32.6156,-0.10419999999999874,175,75
2026-05-11 17:53:03.365,4,0.01,-0.22,1.95,-47.110600000000005,-59.2556,1.6658000000000008,175,75
2026-05-11 17:53:03.367,4,0.02,-0.18,1.79,-46.3806,-62.4356,7.575800000000001,175,75
2026-05-11 17:53:03.386,4,0.09,-0.34,1.64,-44.3106,-67.73559999999999,11.9058,175,75
2026-05-11 17:53:03.412,4,0.11,-0.77,1.22,-68.6406,-98.5856,5.1358,175,75
2026-05-11 17:53:03.430,4,-0.14,-1.08,0.99,-83.5106,-97.4356,2.3958000000000013,175,75
2026-05-11 17:53:03.452,4,0.05,-1.96,0.77,-68.7606,-121.5756,31.785800000000002,175,75
2026-05-11 17:53:03.463,4,-0.0,-2.0,0.53,-64.5506,-147.1256,30.8658,175,75
2026-05-11 17:53:03.501,4,-0.27,-1.69,-0.01,-70.5906,-68.8356,28.9758,175,75
2026-05-11 17:53:03.511,4,-0.27,-1.8,0.15,-64.6106,11.2244,33.9758,175,75
2026-05-11 17:53:03.535,4,0.08,-1.7,0.78,-34.120599999999996,37.8744,37.6958,175,75
2026-05-11 17:53:03.547,4,0.11,-1.42,1.11,-16.4406,22.9944,20.0758,175,75
2026-05-11 17:53:03.547,4,0.1,-1.21,1.28,-4.3706,46.0444,3.915800000000001,175,75
2026-05-11 17:53:03.573,4,0.03,-0.94,1.56,15.6294,66.4144,-12.5442,175,75
2026-05-11 17:53:03.584,4,0.22,-0.35,2.02,47.4594,42.3844,-11.2042,175,75
2026-05-11 17:53:03.595,4,0.18,-0.11,2.16,45.8094,-10.605599999999999,-9.1342,175,75
2026-05-11 17:53:03.607,4,0.02,0.04,2.08,27.7694,-48.4056,-6.264199999999999,175,75
2026-05-11 17:53:03.629,4,-0.19,-0.11,2.02,6.4894,-25.4156,16.055799999999998,175,75
2026-05-11 17:53:03.674,4,-0.05,-0.27,2.19,11.909400000000002,-8.955599999999999,32.6958,175,75
2026-05-11 17:53:03.674,4,0.01,-0.35,2.17,20.939400000000003,-34.2556,32.9458,175,75
2026-05-11 17:53:03.709,4,0.0,-0.76,1.49,32.3394,-135.7856,29.345800000000004,175,75
2026-05-11 17:53:03.720,4,-0.19,-0.78,1.2,30.2094,-184.13559999999998,19.705800000000004,175,75
2026-05-11 17:53:03.732,4,-0.26,-0.87,0.82,24.5994,-251.82559999999998,34.7058,175,75
2026-05-11 17:53:03.742,4,-0.7,-1.04,0.1,-31.9306,-272.9156,31.785800000000002,175,75
2026-05-11 17:53:03.753,4,-0.99,-1.43,-0.34,-12.4206,-113.0456,54.22580000000001,175,75
2026-05-11 17:53:03.765,4,-0.96,-1.63,-0.35,-4.550599999999999,-17.3656,57.085800000000006,175,75
2026-05-11 17:53:03.806,4,-0.69,-2.72,0.48,-21.5006,197.0244,45.6858,175,75
2026-05-11 17:53:03.817,4,-0.57,-2.8,0.77,-0.5305999999999997,199.82440000000003,37.4558,175,75
2026-05-11 17:53:03.827,4,-0.23,-2.51,1.03,23.9194,159.0944,19.4658,175,75
2026-05-11 17:53:03.836,4,-0.0,-2.23,1.12,26.0594,92.8744,0.3157999999999994,175,75
2026-05-11 17:53:03.869,4,0.05,-1.94,1.11,22.6394,4.154400000000002,-21.9942,175,75
2026-05-11 17:53:03.879,4,-0.05,-1.45,1.15,9.959399999999999,-106.3956,-45.9642,175,75
2026-05-11 17:53:03.896,4,-0.05,-1.21,1.19,-2.1106,-138.7156,-51.2642,175,75
2026-05-11 17:53:03.907,4,-0.11,-1.01,1.14,-6.6206,-130.66559999999998,-52.3642,175,75
2026-05-11 17:53:03.918,4,-0.23,-0.77,1.11,-2.9006000000000007,-80.0556,-48.6442,175,75
2026-05-11 17:53:03.930,4,-0.18,-0.42,1.14,8.1894,6.834400000000001,-38.8242,175,75
2026-05-11 17:53:03.930,4,-0.04,-0.12,1.34,19.4094,80.5544,-27.4842,175,75
2026-05-11 17:53:03.965,4,0.13,-0.18,1.96,16.179399999999998,128.2444,-4.8641999999999985,175,75
2026-05-11 17:53:03.975,4,0.21,-0.2,2.06,11.4894,94.8244,-2.1142000000000003,175,75
2026-05-11 17:53:03.998,4,0.23,-0.33,2.05,-8.8806,-17.1256,-10.9042,175,75
2026-05-11 17:53:04.016,4,-0.01,-0.19,1.73,-21.4406,-60.7856,-15.2942,175,75
2026-05-11 17:53:04.048,4,-0.04,-0.13,1.55,-24.610599999999998,-34.6856,-10.774199999999999,175,75
2026-05-11 17:53:04.059,4,0.01,-0.09,1.53,-30.4706,-30.7856,-8.3342,175,75
2026-05-11 17:53:04.059,4,0.01,-0.07,1.49,-35.0406,-37.675599999999996,-9.1342,175,75
2026-05-11 17:53:04.072,4,-0.12,-0.09,1.33,-41.8106,-32.675599999999996,-10.104199999999999,175,75
2026-05-11 17:53:04.097,4,-0.22,-0.21,1.06,-42.840599999999995,6.4744,-0.7742000000000004,175,75
2026-05-11 17:53:04.133,4,-0.45,-0.98,0.94,-45.830600000000004,26.654400000000003,5.745800000000003,175,75
2026-05-11 17:53:04.155,4,-0.51,-1.39,0.85,-29.1906,-24.0156,14.465800000000002,175,75
2026-05-11 17:53:04.166,4,-0.63,-1.57,0.7,-19.3106,-74.5056,18.1858,175,75
2026-05-11 17:53:04.173,4,-0.58,-1.66,0.43,-22.7806,-150.17559999999997,20.0158,175,75
2026-05-11 17:53:04.196,4,-0.87,-1.76,0.21,-42.110600000000005,-153.5856,25.745800000000003,175,75
2026-05-11 17:53:04.234,4,-0.51,-1.87,0.34,36.909400000000005,126.16439999999999,44.7058,175,75
2026-05-11 17:53:04.266,4,-0.24,-1.71,0.74,35.629400000000004,113.7844,5.625800000000002,175,75
2026-05-11 17:53:04.266,4,-0.2,-1.47,0.93,41.549400000000006,80.5544,1.1158000000000001,175,75
2026-05-11 17:53:04.290,4,-0.07,-1.33,1.17,40.689400000000006,27.8144,2.1458000000000013,175,75
2026-05-11 17:53:04.290,4,0.05,-1.22,1.39,29.5994,-51.6356,-0.10419999999999874,175,75
2026-05-11 17:53:04.304,4,0.11,-1.1,1.42,20.749399999999998,-121.6956,-6.444199999999999,175,75
2026-05-11 17:53:04.394,4,-0.22,-0.45,0.89,48.49940000000001,-29.5056,-16.8742,175,75
2026-05-11 17:53:04.431,4,-0.03,-0.01,1.3,37.159400000000005,100.0044,-2.1842000000000006,175,75
2026-05-11 17:53:04.457,4,0.1,-0.36,1.59,22.1594,58.174400000000006,13.0058,175,75
2026-05-11 17:53:04.489,4,0.06,-0.48,1.61,10.5094,12.7544,15.625799999999998,175,75
2026-05-11 17:53:04.489,4,-0.06,-0.36,1.49,8.619399999999999,17.5044,18.9758,175,75
2026-05-11 17:53:04.501,4,-0.11,-0.29,1.42,8.1894,43.7844,22.0858,175,75
2026-05-11 17:53:04.512,4,-0.13,-0.26,1.41,7.8294,75.6144,24.345800000000004,175,75
2026-05-11 17:53:04.522,4,-0.08,-0.27,1.49,7.949400000000001,100.3144,26.175800000000002,175,75
2026-05-11 17:53:04.533,4,-0.01,-0.28,1.58,4.349399999999999,98.4844,27.815800000000003,175,75
2026-05-11 17:53:04.533,4,0.09,-0.29,1.61,-0.8905999999999992,72.6944,29.105800000000002,175,75
2026-05-11 17:53:04.546,4,0.13,-0.32,1.55,-9.980599999999999,26.964399999999998,29.955800000000004,175,75
2026-05-11 17:53:04.552,4,0.06,-0.38,1.38,-26.7506,-18.645599999999998,30.565800000000003,175,75
2026-05-11 17:53:04.563,4,0.23,-0.57,1.16,-37.480599999999995,-33.8356,22.9458,175,75
2026-05-11 17:53:04.563,4,0.1,-0.8,0.98,-46.4406,-44.6256,16.665800000000004,175,75
2026-05-11 17:53:04.575,4,-0.1,-0.94,0.91,-53.8806,-33.465599999999995,12.945800000000002,175,75
2026-05-11 17:53:04.575,4,-0.06,-1.01,0.9,-55.830600000000004,-37.675599999999996,13.555800000000001,175,75
2026-05-11 17:53:04.588,4,-0.13,-1.15,0.94,-59.250600000000006,-61.3356,15.8658,175,75
2026-05-11 17:53:04.599,4,-0.17,-1.3,1.07,-55.28060000000001,-120.9056,19.2258,175,75
2026-05-11 17:53:04.599,4,-0.15,-1.34,1.1,-41.9306,-197.2456,20.745800000000003,175,75
2026-05-11 17:53:04.610,4,-0.3,-1.28,1.02,-36.4406,-276.8856,18.3658,175,75
2026-05-11 17:53:04.624,4,-0.56,-1.24,0.48,-51.620599999999996,-357.18559999999997,8.125800000000002,175,75
2026-05-11 17:53:04.624,4,-1.07,-1.39,-0.07,-44.7906,-261.4556,7.0258,175,75
2026-05-11 17:53:04.672,4,-0.86,-1.45,0.19,7.029399999999999,115.8044,10.3858,175,75
2026-05-11 17:53:04.683,4,-0.5,-1.46,0.51,20.569399999999998,178.9744,3.4258000000000024,175,75
2026-05-11 17:53:04.683,4,-0.22,-1.42,0.76,43.0694,158.6644,-4.254199999999999,175,75
2026-05-11 17:53:04.693,4,-0.14,-1.33,0.88,67.27940000000001,115.9844,-11.6342,175,75
2026-05-11 17:53:04.704,4,-0.22,-1.27,1.0,74.8394,81.6544,-21.2642,175,75
2026-05-11 17:53:04.704,4,-0.27,-1.19,1.13,66.7894,83.2444,-29.614199999999997,175,75
2026-05-11 17:53:04.715,4,-0.27,-1.01,1.34,59.77940000000001,98.7244,-29.9242,175,75
2026-05-11 17:53:04.740,4,-0.13,-0.61,1.7,48.7394,73.0544,-23.8842,175,75
2026-05-11 17:53:04.760,4,0.04,-0.25,1.94,44.409400000000005,5.3744000000000005,-17.664199999999997,175,75
2026-05-11 17:53:04.793,4,-0.01,0.15,1.76,44.779399999999995,-235.8456,-5.774199999999999,175,75
2026-05-11 17:53:04.793,4,-0.38,-0.04,1.19,28.9894,-245.7256,-2.7241999999999997,175,75
2026-05-11 17:53:04.838,4,-0.63,-0.27,0.8,14.5994,-124.9356,1.3558000000000021,175,75
2026-05-11 17:53:04.863,4,-0.15,-0.29,1.72,12.3994,194.64440000000002,35.8658,175,75
2026-05-11 17:53:04.875,4,-0.08,-0.57,1.49,-14.4306,-78.2856,31.665800000000004,175,75
2026-05-11 17:53:04.903,4,-0.56,-0.71,0.73,-28.8206,-141.14559999999997,30.805799999999998,175,75
2026-05-11 17:53:04.914,4,-0.73,-0.92,0.48,-21.0106,-73.4056,35.8658,175,75
2026-05-11 17:53:04.926,4,-0.68,-1.22,0.48,-15.5306,9.644400000000001,42.3958,175,75
2026-05-11 17:53:04.939,4,-0.52,-1.37,0.58,-20.2806,17.4444,42.8158,175,75
2026-05-11 17:53:04.950,4,-0.47,-1.24,0.52,-29.730600000000003,-25.9656,38.3658,175,75
2026-05-11 17:53:04.960,4,-0.67,-2.06,0.69,-27.540599999999998,46.4744,35.9258,175,75
2026-05-11 17:53:04.985,4,-0.25,-2.22,1.23,11.299399999999999,73.0544,21.235799999999998,175,75
2026-05-11 17:53:04.996,4,-0.11,-1.9,1.32,30.1394,-14.5656,9.3458,175,75
2026-05-11 17:53:04.996,4,-0.09,-1.73,1.24,49.77940000000001,-86.0256,-1.1441999999999979,175,75
2026-05-11 17:53:05.006,4,-0.13,-1.63,1.11,61.549400000000006,-138.2256,-14.804199999999998,175,75
2026-05-11 17:53:05.028,4,-0.39,-1.42,0.84,33.859399999999994,-138.4656,-54.8642,175,75
2026-05-11 17:53:05.064,4,-0.19,-0.52,1.21,16.179399999999998,-102.1856,-72.7242,175,75
2026-05-11 17:53:05.074,4,-0.23,-0.26,1.16,15.509400000000003,-107.3656,-67.05420000000001,175,75
2026-05-11 17:53:05.091,4,-0.32,-0.08,1.15,13.069399999999998,60.674400000000006,-36.3842,175,75
2026-05-11 17:53:05.101,4,-0.21,-0.1,1.36,11.4894,124.88440000000001,-24.8642,175,75
2026-05-11 17:53:05.112,4,-0.13,-0.1,1.59,4.529399999999999,145.98440000000002,-16.3842,175,75
2026-05-11 17:53:05.112,4,-0.08,-0.1,1.7,-0.6506000000000007,142.5644,-12.1142,175,75
2026-05-11 17:53:05.124,4,-0.09,-0.13,1.79,-3.7005999999999997,131.4744,-8.764199999999999,175,75
2026-05-11 17:53:05.139,4,-0.14,-0.17,1.85,-7.970600000000001,116.8344,-5.414199999999999,175,75
2026-05-11 17:53:05.153,4,-0.2,-0.19,1.88,-12.3606,104.1544,-1.3241999999999976,175,75
2026-05-11 17:53:05.164,4,-0.24,-0.21,1.87,-13.2706,93.2444,4.7758,175,75
2026-05-11 17:53:05.175,4,-0.15,-0.24,1.85,-12.6006,73.6644,10.625800000000002,175,75
2026-05-11 17:53:05.186,4,-0.14,-0.26,1.81,-12.480599999999999,49.6444,14.895800000000001,175,75
2026-05-11 17:53:05.198,4,-0.04,-0.27,1.66,-15.0406,13.604399999999998,21.4758,175,75
2026-05-11 17:53:05.198,4,0.04,-0.36,1.4,-18.1506,-13.895599999999998,17.025800000000004,175,75
2026-05-11 17:53:05.213,4,-0.27,-0.46,1.1,-20.9506,16.7144,14.525800000000004,175,75
2026-05-11 17:53:05.235,4,-0.27,-0.56,0.99,-15.9506,69.7044,24.345800000000004,175,75
2026-05-11 17:53:05.246,4,-0.21,-0.72,1.01,-18.2706,63.8544,28.495800000000003,175,75
2026-05-11 17:53:05.256,4,-0.19,-0.94,0.97,-24.2506,38.8544,30.8658,175,75
2026-05-11 17:53:05.261,4,-0.24,-1.17,0.78,-18.3906,5.674400000000001,25.8658,175,75
2026-05-11 17:53:05.272,4,-0.23,-1.28,0.6,-2.6006,-1.275599999999999,17.885800000000003,175,75
2026-05-11 17:53:05.282,4,-0.2,-1.37,0.28,19.899399999999996,-29.5656,3.7958,175,75
2026-05-11 17:53:05.300,4,-0.45,-1.57,0.02,19.289399999999997,-44.3856,-5.2242,175,75
2026-05-11 17:53:05.311,4,-0.91,-1.82,-0.12,3.9894,20.7444,-8.3342,175,75
2026-05-11 17:53:05.322,4,-0.9,-1.97,-0.02,9.529399999999999,177.20440000000002,-3.6441999999999997,175,75
2026-05-11 17:53:05.333,4,-0.52,-1.99,0.24,43.859399999999994,265.49440000000004,9.835800000000003,175,75
2026-05-11 17:53:05.340,4,0.01,-2.07,0.46,60.07940000000001,229.1544,13.495800000000003,175,75
2026-05-11 17:53:05.360,4,0.21,-2.08,0.51,51.7294,152.32440000000003,5.6858,175,75
2026-05-11 17:53:05.362,4,0.2,-1.98,0.41,35.2094,89.8844,-8.1542,175,75
2026-05-11 17:53:05.384,4,0.03,-1.8,0.31,29.4094,90.8644,-17.2442,175,75
2026-05-11 17:53:05.407,4,-0.22,-1.56,0.67,45.939400000000006,251.95440000000002,-28.2742,175,75
2026-05-11 17:53:05.416,4,-0.06,-1.37,1.08,52.02940000000001,299.0944,-28.4042,175,75
2026-05-11 17:53:05.416,4,0.18,-1.1,1.38,59.2894,260.19440000000003,-22.5442,175,75
2026-05-11 17:53:05.436,4,0.37,-0.81,1.61,63.7394,180.0044,-21.3842,175,75
2026-05-11 17:53:05.446,4,0.48,-0.52,1.66,49.52940000000001,34.8844,-32.5442,175,75
2026-05-11 17:53:05.456,4,0.25,-0.37,1.47,35.32940000000001,-43.7156,-41.8742,175,75
2026-05-11 17:53:05.456,4,0.08,-0.23,1.22,34.2894,-50.9056,-40.9642,175,75
2026-05-11 17:53:05.471,4,-0.03,-0.1,1.06,39.049400000000006,-16.575599999999998,-33.8842,175,75
2026-05-11 17:53:05.483,4,-0.07,0.03,1.04,41.609399999999994,51.7744,-23.5842,175,75
2026-05-11 17:53:05.493,4,0.02,0.04,1.25,34.169399999999996,101.2244,-15.594199999999999,175,75
2026-05-11 17:53:05.506,4,0.05,-0.13,1.46,23.249399999999998,98.2444,-10.774199999999999,175,75
2026-05-11 17:53:05.519,4,0.04,-0.38,1.61,15.329400000000003,71.7744,-4.684199999999999,175,75
2026-05-11 17:53:05.535,4,0.04,-0.52,1.69,8.619399999999999,39.3944,-0.9041999999999994,175,75
2026-05-11 17:53:05.546,4,0.07,-0.56,1.73,2.8893999999999984,10.674399999999999,1.3558000000000021,175,75
2026-05-11 17:53:05.547,4,0.1,-0.53,1.74,-2.4206000000000003,-15.235599999999998,1.6658000000000008,175,75
2026-05-11 17:53:05.557,4,0.15,-0.45,1.71,-6.380599999999999,-41.6356,0.3857999999999997,175,75
2026-05-11 17:53:05.568,4,0.17,-0.38,1.65,-7.050599999999999,-64.8056,-1.9941999999999993,175,75
2026-05-11 17:53:05.615,4,0.23,-0.52,1.1,-12.720600000000001,-89.3856,-11.504199999999999,175,75
2026-05-11 17:53:05.640,4,0.38,-0.84,0.75,-27.230600000000003,-93.9556,-22.9742,175,75
2026-05-11 17:53:05.646,4,0.1,-1.14,0.56,-51.500600000000006,-67.9756,-31.144199999999998,175,75
2026-05-11 17:53:05.684,4,-0.09,-1.4,0.51,-57.720600000000005,4.274400000000001,-24.1942,175,75
2026-05-11 17:53:05.701,4,-0.09,-1.64,0.59,-48.330600000000004,65.3144,-9.3142,175,75
2026-05-11 17:53:05.711,4,0.05,-1.8,0.74,-38.8806,89.2744,0.5657999999999994,175,75
2026-05-11 17:53:05.722,4,0.26,-1.76,0.88,-33.4506,68.8544,0.6858000000000004,175,75
2026-05-11 17:53:05.733,4,0.51,-1.56,0.92,-28.2106,6.834400000000001,-2.7941999999999982,175,75
2026-05-11 17:53:05.743,4,0.4,-1.49,0.82,-30.590600000000002,-68.8356,-8.4042,175,75
2026-05-11 17:53:05.755,4,-0.03,-1.66,0.77,-19.9806,-53.4056,1.5958000000000006,175,75
2026-05-11 17:53:05.782,4,0.38,-1.51,1.22,20.1394,-48.6456,26.665800000000004,175,75
2026-05-11 17:53:05.782,4,0.43,-1.43,1.23,33.6194,-115.2356,17.025800000000004,175,75
2026-05-11 17:53:05.806,4,0.16,-1.41,1.3,43.7394,-135.60559999999998,-0.2942,175,75
2026-05-11 17:53:05.830,4,-0.04,-0.97,1.43,36.1794,-111.6356,-10.8342,175,75
2026-05-11 17:53:05.855,4,0.04,-0.79,1.44,40.749399999999994,-108.8956,-13.3342,175,75
2026-05-11 17:53:05.866,4,0.12,-0.52,1.34,48.0094,-82.9156,-30.1042,175,75
2026-05-11 17:53:05.878,4,-0.03,-0.32,1.28,48.799400000000006,-33.5256,-45.7742,175,75
2026-05-11 17:53:05.888,4,-0.18,-0.03,1.3,39.8994,-0.055599999999999206,-47.914199999999994,175,75
2026-05-11 17:53:05.898,4,-0.18,0.33,1.33,10.569399999999998,-42.3056,-20.0442,175,75
2026-05-11 17:53:05.898,4,0.11,0.43,1.24,-15.5306,-87.5556,-1.9941999999999993,175,75
2026-05-11 17:53:05.953,4,-0.35,-0.1,0.83,-60.0406,-180.7856,26.785800000000002,175,75
2026-05-11 17:53:05.963,4,-0.55,-0.54,0.56,-61.560599999999994,-169.07559999999998,51.3558,175,75
2026-05-11 17:53:05.985,4,-0.52,-1.0,0.24,-77.7206,-115.0556,49.645799999999994,175,75
2026-05-11 17:53:05.985,4,-0.58,-1.12,0.08,-71.3206,-77.7956,49.645799999999994,175,75
2026-05-11 17:53:05.996,4,-0.58,-1.32,-0.07,-55.7106,-10.295599999999999,50.6258,175,75
2026-05-11 17:53:06.009,4,-0.59,-1.46,-0.06,-39.4306,81.4144,50.925799999999995,175,75
2026-05-11 17:53:06.034,4,-0.5,-1.46,0.13,-33.580600000000004,165.3744,47.145799999999994,175,75
2026-05-11 17:53:06.046,4,-0.42,-1.59,0.37,-39.730599999999995,204.88440000000003,39.8958,175,75
2026-05-11 17:53:06.067,4,-0.42,-1.92,0.69,-42.0506,231.35440000000003,35.6258,175,75
2026-05-11 17:53:06.082,4,-0.34,-2.27,1.32,-34.2506,209.88440000000003,48.2458,175,75
2026-05-11 17:53:06.083,4,0.06,-2.35,1.45,-9.8606,177.9344,40.1358,175,75
2026-05-11 17:53:06.095,4,0.24,-2.25,1.66,6.4894,109.5244,27.815800000000003,175,75
2026-05-11 17:53:06.105,4,0.31,-1.91,1.74,19.8394,23.3044,3.0657999999999994,175,75
2026-05-11 17:53:06.116,4,0.18,-1.53,1.67,38.9894,-56.2756,-22.6642,175,75
2026-05-11 17:53:06.128,4,0.07,-1.42,1.63,50.32940000000001,-73.2856,-33.2742,175,75
2026-05-11 17:53:06.171,4,-0.21,-1.05,1.71,36.299400000000006,-90.9056,-25.3542,175,75
2026-05-11 17:53:06.184,4,-0.07,-0.49,1.34,93.7994,-99.3856,-32.974199999999996,175,75
2026-05-11 17:53:06.192,4,-0.06,-0.2,1.12,93.24940000000001,-68.2856,-30.294199999999996,175,75
2026-05-11 17:53:06.192,4,-0.05,0.18,0.93,92.0994,3.9744,-28.3342,175,75
2026-05-11 17:53:06.263,4,0.01,-0.17,1.39,80.2094,93.1144,0.9258000000000024,175,75
2026-05-11 17:53:06.263,4,0.06,-0.27,1.55,57.3994,51.3544,2.1458000000000013,175,75
2026-05-11 17:53:06.263,4,0.18,-0.28,1.59,35.019400000000005,-20.9056,1.9057999999999993,175,75
2026-05-11 17:53:06.277,4,0.11,-0.22,1.48,19.4094,-77.9756,2.7558000000000007,175,75
2026-05-11 17:53:06.292,4,-0.01,-0.17,1.22,10.209399999999999,-103.8356,6.1158,175,75
2026-05-11 17:53:06.304,4,-0.09,-0.14,1.05,5.019400000000001,-78.4656,9.285800000000002,175,75
2026-05-11 17:53:06.315,4,-0.03,-0.09,1.01,-1.8106000000000009,-36.2756,10.625800000000002,175,75
2026-05-11 17:53:06.315,4,0.03,-0.09,1.08,-10.3406,-10.605599999999999,10.2558,175,75
2026-05-11 17:53:06.326,4,0.13,-0.1,1.15,-19.1906,-4.935599999999999,8.495800000000003,175,75
2026-05-11 17:53:06.356,4,0.1,-0.18,1.15,-34.610600000000005,-15.1156,3.4958000000000027,175,75
2026-05-11 17:53:06.369,4,0.06,-0.31,1.1,-44.980599999999995,-28.3456,0.3157999999999994,175,75
2026-05-11 17:53:06.381,4,-0.06,-0.54,1.03,-56.3806,-39.8656,-1.0841999999999992,175,75
2026-05-11 17:53:06.391,4,-0.17,-0.87,1.01,-64.1906,-48.1056,2.2758000000000003,175,75
2026-05-11 17:53:06.391,4,-0.17,-1.22,1.05,-66.2606,-70.4756,6.7258,175,75
2026-05-11 17:53:06.402,4,-0.21,-1.65,1.11,-67.0506,-124.2556,12.2058,175,75
2026-05-11 17:53:06.408,4,-0.25,-2.02,1.09,-57.5406,-199.7456,5.745800000000003,175,75
2026-05-11 17:53:06.451,4,-1.2,-1.88,0.64,50.32940000000001,-132.1256,27.3358,175,75
2026-05-11 17:53:06.463,4,-0.81,-1.94,0.74,16.4194,-150.54559999999998,4.285800000000002,175,75
2026-05-11 17:53:06.492,4,-0.67,-1.84,0.52,33.7394,-282.00559999999996,-16.4442,175,75
2026-05-11 17:53:06.503,4,-0.81,-1.63,0.23,33.6194,-241.82559999999998,-25.1642,175,75
2026-05-11 17:53:06.518,4,-0.84,-1.34,0.04,30.1394,-140.23559999999998,-25.7742,175,75
2026-05-11 17:53:06.540,4,-0.6,-1.03,0.4,25.4494,52.8144,-10.1642,175,75
2026-05-11 17:53:06.540,4,-0.37,-0.99,0.78,20.6294,90.8044,-6.874199999999998,175,75
2026-05-11 17:53:06.565,4,-0.0,-0.7,1.4,13.249400000000001,40.4344,-14.554199999999998,175,75
2026-05-11 17:53:06.575,4,-0.02,-0.61,1.47,12.279399999999999,15.494399999999999,-18.5242,175,75
2026-05-11 17:53:06.586,4,-0.09,-0.53,1.43,11.179400000000001,4.274400000000001,-25.5342,175,75
2026-05-11 17:53:06.597,4,-0.16,-0.41,1.39,17.579400000000003,21.3544,-26.934199999999997,175,75
2026-05-11 17:53:06.608,4,-0.16,-0.24,1.44,28.7394,52.8144,-23.3342,175,75
2026-05-11 17:53:06.621,4,-0.04,-0.1,1.58,36.2394,61.1044,-20.9042,175,75
2026-05-11 17:53:06.643,4,0.07,-0.25,1.66,30.2094,4.2144,-21.324199999999998,175,75
2026-05-11 17:53:06.667,4,-0.14,-0.38,1.48,15.389399999999998,18.8544,-17.7942,175,75
2026-05-11 17:53:06.684,4,-0.21,-0.38,1.5,12.3994,58.9744,-10.714199999999998,175,75
2026-05-11 17:53:06.695,4,-0.22,-0.38,1.62,12.3994,80.7444,-2.5441999999999982,175,75
2026-05-11 17:53:06.733,4,-0.93,-0.38,1.21,18.499399999999998,77.8144,-0.8341999999999992,175,75
2026-05-11 17:53:06.758,4,-0.84,-0.36,1.05,10.0794,44.8844,31.535800000000002,175,75
2026-05-11 17:53:06.759,4,-0.65,-0.65,1.02,-16.6906,-44.0156,59.775800000000004,175,75
2026-05-11 17:53:06.779,4,-0.38,-1.11,0.97,-53.580600000000004,-148.7156,72.2058,175,75
2026-05-11 17:53:06.779,4,-0.36,-1.5,0.77,-84.86059999999999,-239.5656,71.4758,175,75
2026-05-11 17:53:06.791,4,-0.58,-1.64,0.4,-94.6706,-264.74559999999997,69.7058,175,75
2026-05-11 17:53:06.815,4,-1.05,-1.59,-0.47,-45.5306,54.0344,68.1858,175,75
2026-05-11 17:53:06.842,4,-0.63,-1.81,0.23,-31.5006,396.8344,61.3558,175,75
2026-05-11 17:53:06.868,4,0.07,-1.65,1.23,-17.4206,361.5344,36.845800000000004,175,75
2026-05-11 17:53:06.880,4,0.25,-1.45,1.43,-6.2606,284.94440000000003,26.2958,175,75
2026-05-11 17:53:06.880,4,0.32,-1.33,1.46,8.499400000000001,205.4944,16.9658,175,75
2026-05-11 17:53:06.915,4,0.06,-1.19,1.29,41.4894,147.63440000000003,-15.2942,175,75
2026-05-11 17:53:06.918,4,-0.03,-1.04,1.34,54.3494,175.55440000000002,-21.2042,175,75
2026-05-11 17:53:06.930,4,0.03,-0.87,1.59,67.8294,191.7144,-20.5342,175,75
2026-05-11 17:53:06.957,4,0.26,-0.44,2.07,62.769400000000005,71.5944,-24.6142,175,75
2026-05-11 17:53:06.990,4,0.07,-0.22,1.73,40.139399999999995,-75.2356,-32.9142,175,75
2026-05-11 17:53:06.996,4,-0.09,-0.25,1.57,37.7094,-58.5856,-30.2242,175,75
2026-05-11 17:53:07.022,4,-0.14,-0.36,1.55,26.2394,22.2044,-19.554199999999998,175,75
2026-05-11 17:53:07.034,4,-0.05,-0.43,1.7,13.799399999999999,19.0344,-14.004199999999999,175,75
2026-05-11 17:53:07.050,4,0.02,-0.32,1.62,-9.7306,-79.6856,-17.2442,175,75
2026-05-11 17:53:07.071,4,-0.02,-0.28,1.37,-9.9206,-122.4356,-21.934199999999997,175,75
2026-05-11 17:53:07.104,4,-0.56,-0.78,0.3,-46.620599999999996,-91.6356,12.2058,175,75
2026-05-11 17:53:07.130,4,-0.43,-1.43,0.26,-66.4406,-76.9456,31.535800000000002,175,75
2026-05-11 17:53:07.141,4,-0.53,-1.56,0.09,-65.0406,-49.6856,34.8958,175,75
2026-05-11 17:53:07.164,4,-0.68,-1.72,0.06,-56.2606,106.2244,31.2958,175,75
2026-05-11 17:53:07.174,4,-0.61,-2.01,0.36,-44.610600000000005,182.8744,31.535800000000002,175,75
2026-05-11 17:53:07.198,4,-0.3,-2.16,1.0,-21.5006,210.4944,25.2558,175,75
2026-05-11 17:53:07.215,4,-0.09,-1.89,1.27,8.0094,159.88440000000003,26.605800000000002,175,75
2026-05-11 17:53:07.227,4,0.01,-1.67,1.41,27.0994,91.5944,24.5858,175,75
2026-05-11 17:53:07.277,4,0.08,-1.28,1.6,26.969399999999997,-131.0256,-14.3142,175,75
2026-05-11 17:53:07.312,4,0.01,-1.11,1.66,16.609399999999997,-181.0256,-28.8842,175,75
2026-05-11 17:53:07.335,4,-0.06,-0.7,1.61,3.0093999999999994,-257.5556,-53.0942,175,75
2026-05-11 17:53:07.336,4,-0.11,-0.48,1.49,7.029399999999999,-264.3856,-58.2742,175,75
2026-05-11 17:53:07.387,4,-0.2,0.03,1.22,51.1794,-4.565599999999999,-27.6642,175,75
2026-05-11 17:53:07.398,4,-0.17,-0.03,1.35,47.769400000000005,59.8844,-15.4142,175,75
2026-05-11 17:53:07.408,4,-0.06,-0.13,1.54,25.999399999999998,100.8644,-0.35419999999999874,175,75
2026-05-11 17:53:07.465,4,-0.06,-0.15,1.59,14.3494,108.6044,6.8458000000000006,175,75
2026-05-11 17:53:07.479,4,0.04,-0.03,1.58,-1.0806000000000004,117.0844,19.2258,175,75
2026-05-11 17:53:07.512,4,0.2,-0.16,1.35,-11.9906,38.7844,11.9058,175,75
2026-05-11 17:53:07.524,4,0.11,-0.42,1.16,-24.2506,-5.115599999999999,1.4757999999999996,175,75
2026-05-11 17:53:07.524,4,0.05,-0.58,1.03,-31.9906,-31.0856,-4.8641999999999985,175,75
2026-05-11 17:53:07.535,4,-0.29,-1.41,0.52,-70.4006,-139.9356,1.8458000000000006,175,75
2026-05-11 17:53:07.546,4,-0.54,-1.66,0.16,-56.9306,-90.7856,9.895800000000001,175,75
2026-05-11 17:53:07.546,4,-0.61,-1.7,0.02,-35.220600000000005,-35.965599999999995,16.1158,175,75
2026-05-11 17:53:07.557,4,-0.56,-1.62,-0.09,-11.380600000000001,28.6044,23.915800000000004,175,75
2026-05-11 17:53:07.583,4,-0.49,-1.71,0.18,-12.1706,117.6344,23.305799999999998,175,75
2026-05-11 17:53:07.606,4,0.09,-1.58,0.69,11.549399999999999,4.4644,17.3958,175,75
2026-05-11 17:53:07.627,4,0.03,-1.16,0.6,25.8794,-65.4156,-7.914199999999999,175,75
2026-05-11 17:53:07.627,4,-0.05,-1.08,0.69,17.1594,-57.0056,-19.1942,175,75
2026-05-11 17:53:07.643,4,-0.01,-1.01,0.94,7.339400000000001,-52.1256,-28.1542,175,75
2026-05-11 17:53:07.654,4,0.02,-1.12,1.32,3.859400000000001,-97.7956,-41.6342,175,75
2026-05-11 17:53:07.685,4,-0.05,-1.16,1.43,11.4194,-127.1856,-48.944199999999995,175,75
2026-05-11 17:53:07.685,4,-0.09,-0.91,1.43,18.249399999999998,-136.88559999999998,-53.9442,175,75
2026-05-11 17:53:07.707,4,-0.1,-0.08,1.3,48.439400000000006,-48.4056,-56.3242,175,75
2026-05-11 17:53:07.764,4,-0.06,-0.29,1.47,31.299400000000002,75.8044,-27.4842,175,75
2026-05-11 17:53:07.764,4,0.03,-0.43,1.54,17.829400000000003,71.3544,-18.3342,175,75
2026-05-11 17:53:07.805,4,0.07,-0.48,1.57,5.269400000000001,51.9644,-11.3242,175,75
2026-05-11 17:53:07.816,4,0.13,-0.37,1.36,-9.4306,-12.855599999999999,-9.864199999999999,175,75
2026-05-11 17:53:07.826,4,0.07,-0.36,1.16,-11.6206,-34.0156,-10.714199999999998,175,75
2026-05-11 17:53:07.845,4,0.02,-0.43,0.8,-12.970600000000001,-54.9356,-12.184199999999999,175,75
2026-05-11 17:53:07.873,4,-0.23,-0.79,0.18,-44.610600000000005,-89.6256,-8.8242,175,75
2026-05-11 17:53:07.883,4,-0.34,-0.99,0.08,-65.6506,-105.0556,-9.7442,175,75
2026-05-11 17:53:07.896,4,-0.5,-1.22,0.04,-84.00059999999999,-105.4756,-5.4742,175,75
2026-05-11 17:53:07.929,4,-0.79,-1.31,0.18,-78.8206,143.36440000000002,26.7258,175,75
2026-05-11 17:53:07.937,4,-0.58,-1.39,0.46,-74.0006,195.3744,30.805799999999998,175,75
2026-05-11 17:53:07.947,4,-0.42,-1.46,0.89,-54.060599999999994,248.30440000000002,34.2258,175,75
2026-05-11 17:53:07.949,4,-0.26,-1.47,1.32,-18.7006,275.00440000000003,44.9558,175,75
2026-05-11 17:53:07.993,4,0.2,-0.93,2.22,40.5094,140.80440000000002,32.6358,175,75
2026-05-11 17:53:08.019,4,0.21,-0.82,2.17,62.769400000000005,-90.3556,-13.1542,175,75
2026-05-11 17:53:08.031,4,-0.03,-0.6,1.91,61.60940000000001,-146.82559999999998,-33.7042,175,75
2026-05-11 17:53:08.031,4,-0.17,-0.39,1.69,69.10940000000001,-141.14559999999997,-37.4842,175,75
2026-05-11 17:53:08.132,4,-0.27,-0.22,1.58,82.8294,0.434400000000001,8.855800000000002,175,75
2026-05-11 17:53:08.132,4,-0.13,-0.26,1.67,70.38940000000001,-1.3355999999999995,20.805799999999998,175,75
2026-05-11 17:53:08.144,4,0.0,-0.24,1.7,54.2294,-31.7556,26.605800000000002,175,75
2026-05-11 17:53:08.144,4,0.07,-0.22,1.64,36.359399999999994,-79.3256,26.665800000000004,175,75
2026-05-11 17:53:08.177,4,-0.08,-0.24,0.86,5.6294,-143.7756,33.0658,175,75
2026-05-11 17:53:08.194,4,-0.09,-0.52,0.39,-1.4405999999999999,-136.3356,23.6158,175,75
2026-05-11 17:53:08.216,4,-0.43,-0.71,-0.0,-39.860600000000005,-58.2856,17.9458,175,75
2026-05-11 17:53:08.216,4,-0.54,-0.8,0.01,-54.4306,-12.2456,26.605800000000002,175,75
2026-05-11 17:53:08.220,4,-0.55,-1.1,0.18,-70.1606,41.6544,42.2058,175,75
2026-05-11 17:53:08.248,4,-0.25,-1.72,0.65,-78.0906,5.614400000000001,53.065799999999996,175,75
2026-05-11 17:53:08.272,4,-0.41,-1.77,0.6,-76.1406,-0.8455999999999992,40.4458,175,75
2026-05-11 17:53:08.297,4,-0.54,-2.12,0.66,-41.2006,129.0944,31.4758,175,75
2026-05-11 17:53:08.297,4,-0.41,-2.16,0.95,-4.980600000000001,176.4144,28.9758,175,75
2026-05-11 17:53:08.312,4,0.06,-1.61,1.5,43.439400000000006,96.2244,-2.6641999999999992,175,75
2026-05-11 17:53:08.327,4,0.14,-1.34,1.56,59.8394,-19.8656,-29.864199999999997,175,75
2026-05-11 17:53:08.338,4,0.03,-1.3,1.52,67.7694,-86.4556,-47.6042,175,75
2026-05-11 17:53:08.349,4,-0.13,-1.24,1.4,68.85940000000001,-137.1856,-70.77420000000001,175,75
2026-05-11 17:53:08.349,4,-0.18,-1.09,1.31,71.35940000000001,-147.91559999999998,-84.6142,175,75
2026-05-11 17:53:08.375,4,-0.22,-0.9,1.26,81.1194,-139.5056,-90.4142,175,75
2026-05-11 17:53:08.375,4,-0.19,-0.66,1.23,92.9494,-118.8356,-92.3642,175,75
2026-05-11 17:53:08.375,4,-0.23,-0.35,1.19,103.0094,-78.1056,-93.8242,175,75
2026-05-11 17:53:08.388,4,-0.26,-0.1,1.14,109.2294,-31.4556,-91.8742,175,75
2026-05-11 17:53:08.473,4,-0.23,-0.06,1.39,113.43939999999999,98.9144,-54.4942,175,75
2026-05-11 17:53:08.483,4,-0.09,-0.18,1.59,94.0494,68.7244,-39.9242,175,75
2026-05-11 17:53:08.483,4,-0.01,-0.23,1.7,75.0194,22.4444,-29.9842,175,75
2026-05-11 17:53:08.536,4,0.05,-0.18,0.86,9.959399999999999,-40.3556,1.5358000000000018,175,75
2026-05-11 17:53:08.547,4,-0.18,-0.28,0.5,-51.620599999999996,-23.9556,-11.504199999999999,175,75
2026-05-11 17:53:08.573,4,-0.24,-1.0,0.53,-67.9706,-21.9456,10.195800000000002,175,75
2026-05-11 17:53:08.584,4,-0.25,-1.38,0.62,-59.1906,-57.4956,17.3958,175,75
2026-05-11 17:53:08.665,4,-0.41,-1.58,0.59,-47.1706,-70.84559999999999,18.555799999999998,175,75
2026-05-11 17:53:08.678,4,-0.58,-1.65,0.51,-35.8906,-48.8356,20.6858,175,75
2026-05-11 17:53:08.771,4,-0.51,-1.72,0.35,-22.1706,-8.3456,21.175800000000002,175,75
2026-05-11 17:53:08.783,4,-0.67,-1.95,0.33,-17.1706,59.3344,17.1458,175,75
2026-05-11 17:53:08.793,4,-0.67,-2.07,0.46,-8.7606,147.5644,18.495800000000003,175,75
2026-05-11 17:53:08.793,4,-0.54,-2.08,0.62,-0.0406000000000013,174.0344,21.415800000000004,175,75
2026-05-11 17:53:08.806,4,-0.07,-1.83,0.93,19.899399999999996,112.6944,26.355800000000002,175,75
2026-05-11 17:53:08.817,4,-0.03,-1.66,1.09,14.899399999999996,19.6444,2.2058,175,75
2026-05-11 17:53:08.828,4,-0.25,-0.51,1.11,21.969399999999997,-70.9656,-45.5942,175,75
2026-05-11 17:53:08.839,4,-0.3,-0.42,1.2,27.0294,-25.9056,-36.5042,175,75
2026-05-11 17:53:08.839,4,-0.2,-0.38,1.34,29.049400000000002,1.104400000000001,-23.644199999999998,175,75
2026-05-11 17:53:08.851,4,-0.01,-0.36,1.52,27.6394,-1.8855999999999993,-12.9142,175,75
2026-05-11 17:53:08.861,4,0.08,-0.38,1.57,21.359399999999997,-22.0656,-10.104199999999999,175,75
2026-05-11 17:53:08.861,4,0.06,-0.35,1.52,15.079400000000003,-33.7756,-9.0742,175,75
2026-05-11 17:53:08.873,4,-0.02,-0.3,1.37,11.3594,-13.715599999999998,-5.104199999999999,175,75
2026-05-11 17:53:08.885,4,-0.12,-0.23,1.25,16.119400000000002,77.5644,10.3858,175,75
2026-05-11 17:53:08.897,4,-0.11,-0.23,1.34,15.569399999999998,91.5344,21.2958,175,75
2026-05-11 17:53:08.920,4,0.23,-0.23,1.0,-42.720600000000005,-157.2456,47.6358,175,75
2026-05-11 17:53:08.931,4,-0.08,-0.44,0.45,-70.4006,-241.88559999999998,47.815799999999996,175,75
2026-05-11 17:53:08.933,4,-0.49,-0.68,0.03,-91.75059999999999,-233.2856,55.86580000000001,175,75
2026-05-11 17:53:08.956,4,-0.88,-0.98,-0.28,-112.97059999999999,-152.79559999999998,70.7458,175,75
2026-05-11 17:53:08.966,4,-1.0,-1.37,-0.47,-128.1506,12.3844,84.4658,175,75
2026-05-11 17:53:08.976,4,-0.83,-1.53,-0.38,-120.47059999999999,128.05440000000002,86.5358,175,75
2026-05-11 17:53:08.998,4,-0.4,-1.63,0.28,-88.2706,222.9944,53.7958,175,75
2026-05-11 17:53:09.021,4,-0.55,-1.62,0.78,-95.53059999999999,116.2844,-7.1141999999999985,175,75
2026-05-11 17:53:09.046,4,-0.05,-1.36,1.71,-34.4906,67.0844,-1.7541999999999973,175,75
2026-05-11 17:53:09.058,4,0.22,-1.25,1.98,-2.2905999999999995,-58.4056,-7.664199999999999,175,75
2026-05-11 17:53:09.069,4,0.15,-1.16,1.84,22.3394,-166.3356,-27.8542,175,75
2026-05-11 17:53:09.097,4,-0.26,-1.1,1.43,37.769400000000005,-192.1256,-48.0342,175,75
2026-05-11 17:53:09.121,4,-0.42,-0.67,0.95,95.2094,13.054400000000001,-48.944199999999995,175,75
2026-05-11 17:53:09.134,4,-0.16,-0.55,1.08,118.2494,71.2244,-43.8242,175,75
2026-05-11 17:53:09.137,4,0.13,-0.44,1.12,121.78940000000001,52.9344,-44.9242,175,75
2026-05-11 17:53:09.151,4,0.12,-0.32,1.0,108.49940000000001,33.8544,-51.5042,175,75
2026-05-11 17:53:09.163,4,-0.13,-0.07,0.9,94.9594,70.6144,-56.2042,175,75
2026-05-11 17:53:09.172,4,-0.23,0.18,1.02,92.27940000000001,133.48440000000002,-49.554199999999994,175,75
2026-05-11 17:53:09.224,4,0.08,-0.24,1.49,-51.9906,-122.6156,-8.094199999999999,175,75
2026-05-11 17:53:09.237,4,-0.04,-0.19,1.08,-81.6206,-127.9756,18.7958,175,75
2026-05-11 17:53:09.295,4,-0.18,-0.31,0.98,-72.7206,-74.0156,29.345800000000004,175,75
2026-05-11 17:53:09.332,4,-0.31,-0.49,0.95,-58.580600000000004,27.264400000000002,31.055799999999998,175,75
2026-05-11 17:53:09.335,4,-0.3,-0.66,0.97,-57.78060000000001,48.7244,28.855800000000002,175,75
2026-05-11 17:53:09.343,4,-0.25,-0.85,1.0,-54.730599999999995,56.8344,27.3358,175,75
2026-05-11 17:53:09.376,4,-0.13,-1.34,0.91,-42.480599999999995,-52.5556,18.065800000000003,175,75
2026-05-11 17:53:09.411,4,-0.39,-1.61,0.75,-32.5406,-47.1856,12.8858,175,75
2026-05-11 17:53:09.431,4,-0.22,-1.84,1.04,31.179399999999998,78.0544,25.1958,175,75
2026-05-11 17:53:09.470,4,0.18,-1.45,1.26,96.60940000000001,12.3244,23.9758,175,75
2026-05-11 17:53:09.485,4,0.24,-1.37,1.07,102.9494,-63.8956,5.1358,175,75
2026-05-11 17:53:09.542,4,0.05,-0.57,1.11,77.0994,-149.9356,-39.8642,175,75
2026-05-11 17:53:09.565,4,-0.34,-0.01,0.6,90.5094,84.1544,-25.9042,175,75
2026-05-11 17:53:09.565,4,-0.35,0.04,0.7,98.0094,200.61440000000002,-15.714199999999998,175,75
2026-05-11 17:53:09.609,4,0.17,-0.26,1.9,31.299400000000002,70.1944,10.925800000000002,175,75
2026-05-11 17:53:09.609,4,0.11,-0.15,1.66,16.2394,5.674400000000001,12.2058,175,75
2026-05-11 17:53:09.616,4,0.11,-0.05,1.45,3.7394,-19.4456,13.1858,175,75
2026-05-11 17:53:09.628,4,0.19,-0.03,1.35,-3.390600000000001,-35.5456,11.4758,175,75
2026-05-11 17:53:09.639,4,0.29,-0.11,1.27,-16.3206,-62.5556,5.505800000000001,175,75
2026-05-11 17:53:09.639,4,0.29,-0.21,1.14,-29.1206,-91.5156,-2.7241999999999997,175,75
2026-05-11 17:53:09.650,4,0.2,-0.37,0.82,-40.9506,-104.8056,-13.3342,175,75
2026-05-11 17:53:09.660,4,0.06,-0.48,0.57,-41.870599999999996,-75.1756,-16.6942,175,75
2026-05-11 17:53:09.684,4,0.04,-1.08,0.39,-52.17059999999999,-8.645599999999998,-9.004199999999999,175,75
2026-05-11 17:53:09.704,4,-0.06,-1.43,0.33,-55.1606,-20.1756,-3.764199999999999,175,75
2026-05-11 17:53:09.714,4,-0.15,-1.76,0.24,-51.6906,-20.5356,-0.5341999999999985,175,75
2026-05-11 17:53:09.722,4,-0.19,-1.9,0.17,-45.9506,-8.645599999999998,1.2957999999999998,175,75
2026-05-11 17:53:09.747,4,-0.4,-1.94,0.14,-45.0406,11.4144,-3.214199999999998,175,75
2026-05-11 17:53:09.758,4,-0.49,-1.96,0.21,-44.370599999999996,41.0444,-0.41419999999999746,175,75
2026-05-11 17:53:09.758,4,-0.36,-1.94,0.35,-30.340600000000002,56.9644,10.1358,175,75
2026-05-11 17:53:09.792,4,0.0,-1.8,0.69,-3.9406,-9.625599999999999,24.5858,175,75
2026-05-11 17:53:09.792,4,0.01,-1.64,0.72,0.019400000000000972,-47.3656,23.6158,175,75
2026-05-11 17:53:09.817,4,-0.02,-1.45,0.7,1.4193999999999996,-69.9956,18.245800000000003,175,75
2026-05-11 17:53:09.827,4,-0.04,-1.35,0.72,7.1594000000000015,-70.6656,15.135800000000003,175,75
2026-05-11 17:53:09.837,4,0.01,-1.26,0.88,10.569399999999998,-79.5656,9.9558,175,75
2026-05-11 17:53:09.848,4,0.07,-1.18,1.03,8.679400000000001,-98.8356,2.695800000000002,175,75
2026-05-11 17:53:09.861,4,0.06,-1.06,1.13,7.2194,-123.8356,-5.2242,175,75
2026-05-11 17:53:09.875,4,-0.03,-1.02,1.17,13.3094,-134.44559999999998,-7.914199999999999,175,75
2026-05-11 17:53:09.879,4,-0.09,-1.04,1.2,22.7694,-123.8356,-5.2242,175,75
2026-05-11 17:53:09.894,4,-0.08,-1.01,1.25,29.4094,-110.8456,-2.054199999999998,175,75
2026-05-11 17:53:09.924,4,0.12,-0.65,1.37,31.8494,-89.9356,-5.9041999999999994,175,75
2026-05-11 17:53:09.924,4,0.12,-0.53,1.34,30.689400000000003,-79.8656,-10.9042,175,75
2026-05-11 17:53:09.943,4,0.07,-0.34,1.23,30.999399999999998,-20.845599999999997,-16.0842,175,75
2026-05-11 17:53:09.969,4,0.03,-0.26,1.17,32.82940000000001,96.6544,-14.924199999999999,175,75
2026-05-11 17:53:09.978,4,0.04,-0.24,1.22,32.7094,137.4444,-14.004199999999999,175,75
2026-05-11 17:53:09.995,4,0.05,-0.23,1.32,30.4494,167.14440000000002,-12.7942,175,75
2026-05-11 17:53:10.003,4,0.14,-0.26,1.43,25.689400000000003,165.92440000000002,-13.1542,175,75
2026-05-11 17:53:10.018,4,0.17,-0.31,1.51,14.899399999999996,132.08440000000002,-15.8342,175,75
2026-05-11 17:53:10.018,4,0.18,-0.31,1.52,-4.1206,67.9944,-19.1942,175,75
2026-05-11 17:53:10.040,4,0.15,-0.21,1.37,-30.160600000000002,-24.8056,-17.6042,175,75
2026-05-11 17:53:10.051,4,-0.12,-0.25,1.18,-59.4306,-129.38559999999998,-11.9942,175,75
2026-05-11 17:53:10.062,4,-0.4,-0.28,1.18,-86.6206,-211.14559999999997,5.745800000000003,175,75
2026-05-11 17:53:10.084,4,-0.26,-0.55,1.68,-146.62060000000002,-642.3656,65.25580000000001,175,75
2026-05-11 17:53:10.097,4,-0.89,-0.84,1.84,-182.78060000000002,-982.3056,95.0758,175,75
2026-05-11 17:53:10.108,4,-1.57,-0.84,1.55,-173.3306,-1124.7456,103.1258,175,75
2026-05-11 17:53:10.119,4,-2.86,-0.95,0.29,-139.4906,-1038.1056,162.0858,175,75
2026-05-11 17:53:10.130,4,-2.76,-1.19,-0.81,-148.1506,-822.5556,124.7058,175,75
2026-05-11 17:53:10.142,4,-2.7,-1.11,-1.8,-120.6506,-319.1956,99.8958,175,75
2026-05-11 17:53:10.145,4,-2.11,-0.92,-1.53,-65.3406,226.35440000000003,106.3558,175,75
2026-05-11 17:53:10.173,4,-1.36,-1.36,1.24,15.689400000000003,798.0544,92.8158,175,75
2026-05-11 17:53:10.187,4,-1.18,-1.39,2.09,21.8494,803.4844,65.6258,175,75
2026-05-11 17:53:10.198,4,-0.68,-1.23,2.61,58.49940000000001,727.5044,43.7358,175,75
2026-05-11 17:53:10.210,4,0.02,-1.04,2.94,70.0794,507.50440000000003,4.5258,175,75
2026-05-11 17:53:10.231,4,-0.03,-0.93,2.42,66.7294,207.8144,-48.0942,175,75
2026-05-11 17:53:10.243,4,-0.16,-0.96,2.09,82.5794,162.20440000000002,-52.0542,175,75
2026-05-11 17:53:10.243,4,-0.27,-0.74,1.93,102.63940000000001,169.1544,-50.414199999999994,175,75
2026-05-11 17:53:10.265,4,-0.11,-0.55,2.0,118.9894,174.58440000000002,-44.7442,175,75
2026-05-11 17:53:10.281,4,-0.02,-0.46,2.12,124.28940000000001,146.10440000000003,-40.7742,175,75
2026-05-11 17:53:10.281,4,-0.01,-0.44,2.15,124.65939999999999,102.6344,-38.2742,175,75
2026-05-11 17:53:10.303,4,-0.13,-0.47,1.88,116.4894,8.3644,-31.324199999999998,175,75
2026-05-11 17:53:10.330,4,-0.17,-0.36,1.37,59.46940000000001,-114.1356,-19.4342,175,75
2026-05-11 17:53:10.370,4,-0.43,-0.42,1.18,31.4194,-155.23559999999998,-15.1642,175,75
2026-05-11 17:53:10.381,4,-0.96,-0.09,0.74,4.8994,-66.3356,22.025800000000004,175,75
2026-05-11 17:53:10.391,4,-1.02,0.03,0.65,12.279399999999999,-22.005599999999998,47.145799999999994,175,75
2026-05-11 17:53:10.391,4,-0.99,-0.08,0.68,10.8794,-3.835599999999999,68.8558,175,75
2026-05-11 17:53:10.400,4,-0.85,-0.41,0.75,-5.1006,-20.2956,79.4658,175,75
2026-05-11 17:53:10.413,4,-0.85,-0.7,0.73,-26.9906,-43.8356,78.4958,175,75
2026-05-11 17:53:10.427,4,-0.88,-0.78,0.52,-40.1006,-51.5156,76.4758,175,75
2026-05-11 17:53:10.440,4,-1.0,-0.75,0.35,-31.6206,-24.1956,80.9958,175,75
2026-05-11 17:53:10.455,4,-0.96,-0.88,0.25,-1.2006000000000014,113.9744,90.8058,175,75
2026-05-11 17:53:10.480,4,-0.74,-1.34,0.65,-6.2606,193.11440000000002,78.1858,175,75
2026-05-11 17:53:10.491,4,-0.64,-1.45,0.81,-4.060600000000001,202.38440000000003,75.3158,175,75
2026-05-11 17:53:10.504,4,-0.45,-1.51,0.97,16.2394,196.7744,74.3458,175,75
2026-05-11 17:53:10.533,4,-0.2,-1.5,1.08,42.029399999999995,172.8744,69.7758,175,75
2026-05-11 17:53:10.533,4,-0.03,-1.44,1.11,58.6794,136.83440000000002,55.1358,175,75
2026-05-11 17:53:10.544,4,0.12,-1.34,1.1,67.1594,104.0944,32.025800000000004,175,75
2026-05-11 17:53:10.575,4,0.0,-1.28,1.15,81.5494,97.2644,-40.164199999999994,175,75
2026-05-11 17:53:10.586,4,-0.11,-1.18,1.23,86.60940000000001,118.9144,-45.5942,175,75
2026-05-11 17:53:10.598,4,-0.18,-0.96,1.37,90.38940000000001,135.80440000000002,-34.9242,175,75
2026-05-11 17:53:10.609,4,-0.12,-0.81,1.5,94.46940000000001,158.11440000000002,-40.3542,175,75
2026-05-11 17:53:10.609,4,-0.38,-0.45,2.11,43.919399999999996,26.894399999999997,42.3958,175,75
2026-05-11 17:53:10.622,4,0.55,-0.59,2.16,114.34940000000002,-75.6056,-37.4842,175,75
2026-05-11 17:53:10.657,4,-0.3,-0.28,1.5,61.35940000000001,-371.1456,-82.4242,175,75
2026-05-11 17:53:10.667,4,-0.5,-0.19,1.22,67.21940000000001,-346.2156,-72.6642,175,75
2026-05-11 17:53:10.677,4,-0.53,-0.21,1.11,66.66940000000001,-297.7356,-66.2642,175,75
2026-05-11 17:53:10.689,4,-0.61,-0.26,1.05,61.2394,-208.4656,-58.2142,175,75
2026-05-11 17:53:10.720,4,-0.75,-0.14,1.25,50.8094,-42.7356,-36.5042,175,75
2026-05-11 17:53:10.731,4,-0.89,-0.1,1.37,48.24940000000001,19.8844,-25.1042,175,75
2026-05-11 17:53:10.747,4,-1.0,0.04,1.53,51.299400000000006,73.4844,0.015800000000002257,175,75
2026-05-11 17:53:10.759,4,-0.94,0.1,1.67,53.129400000000004,77.2044,30.925800000000002,175,75
2026-05-11 17:53:10.769,4,-1.06,-0.0,1.58,44.71939999999999,65.1344,56.47580000000001,175,75
2026-05-11 17:53:10.780,4,-1.21,-0.05,1.45,38.249399999999994,73.3044,74.8358,175,75
2026-05-11 17:53:10.791,4,-1.29,-0.1,1.39,31.729400000000002,84.8844,95.1358,175,75
2026-05-11 17:53:10.791,4,-1.24,-0.37,1.44,24.4094,82.5644,124.03580000000001,175,75
2026-05-11 17:53:10.804,4,-1.13,-0.72,1.48,16.0594,49.8244,139.4058,175,75
2026-05-11 17:53:10.816,4,-1.02,-1.08,1.38,6.7894000000000005,-1.6355999999999993,150.0158,175,75
2026-05-11 17:53:10.834,4,-0.96,-1.37,1.1,5.139399999999998,-40.1756,154.9558,175,75
2026-05-11 17:53:10.845,4,-0.99,-1.44,0.78,16.6694,-23.0456,153.9758,175,75
2026-05-11 17:53:10.855,4,-1.01,-1.62,0.51,36.549400000000006,39.6444,148.12580000000003,175,75
2026-05-11 17:53:10.893,4,-0.86,-2.55,0.61,44.9594,165.55440000000002,127.1458,175,75
2026-05-11 17:53:10.905,4,-0.86,-2.75,0.67,44.529399999999995,186.04440000000002,124.09580000000001,175,75
2026-05-11 17:53:10.917,4,-0.69,-2.59,0.73,63.0094,198.2444,130.19580000000002,175,75
2026-05-11 17:53:10.922,4,-0.47,-2.34,0.82,83.3794,172.26440000000002,131.7858,175,75
2026-05-11 17:53:10.936,4,-0.11,-2.24,0.81,94.4094,97.3244,113.06580000000001,175,75
2026-05-11 17:53:10.997,4,-0.13,-0.94,0.63,71.2994,185.13440000000003,31.785800000000002,175,75
2026-05-11 17:53:11.012,4,-0.03,-0.73,0.97,70.8094,208.54440000000002,37.8158,175,75
2026-05-11 17:53:11.012,4,0.16,-0.47,1.36,68.6794,178.05440000000002,43.7358,175,75
2026-05-11 17:53:11.028,4,0.26,-0.26,1.64,56.60940000000001,98.7844,43.0058,175,75
2026-05-11 17:53:11.041,4,0.3,-0.14,1.72,47.9494,23.7244,41.2358,175,75
2026-05-11 17:53:11.051,4,0.26,-0.09,1.72,41.419399999999996,-45.9656,38.915800000000004,175,75
2026-05-11 17:53:11.059,4,0.22,-0.06,1.6,34.5994,-107.3656,34.345800000000004,175,75
2026-05-11 17:53:11.083,4,0.18,-0.13,1.39,30.079400000000003,-133.2256,28.735799999999998,175,75
2026-05-11 17:53:11.093,4,0.06,-0.29,1.13,26.609399999999997,-96.2756,23.495800000000003,175,75
2026-05-11 17:53:11.138,4,0.2,-0.38,1.76,26.299400000000002,160.86440000000002,33.3658,175,75
2026-05-11 17:53:11.149,4,0.23,-0.38,1.89,22.9494,126.7144,31.4758,175,75
2026-05-11 17:53:11.166,4,0.25,-0.36,1.8,15.329400000000003,41.3544,22.0858,175,75
2026-05-11 17:53:11.180,4,0.25,-0.36,1.58,11.119399999999999,12.2044,11.4758,175,75
2026-05-11 17:53:11.191,4,0.07,-0.25,1.36,12.3994,16.7144,6.5958000000000006,175,75
2026-05-11 17:53:11.212,4,-0.19,-0.36,0.8,-6.0106,38.6044,3.4958000000000027,175,75
2026-05-11 17:53:11.212,4,-0.43,-0.49,0.52,-21.3806,99.8244,6.175800000000002,175,75
2026-05-11 17:53:11.229,4,-0.72,-0.87,0.42,-40.7706,180.4344,11.5958,175,75
2026-05-11 17:53:11.251,4,-0.76,-1.88,1.08,-52.720600000000005,179.64440000000002,32.3958,175,75
2026-05-11 17:53:11.274,4,-0.56,-1.85,1.47,-41.870599999999996,-100.1156,51.415800000000004,175,75
2026-05-11 17:53:11.297,4,-1.0,-1.54,0.82,-40.590599999999995,-283.7756,36.7858,175,75
2026-05-11 17:53:11.305,4,-1.27,-1.46,0.46,-32.2306,-263.9556,34.8358,175,75
2026-05-11 17:53:11.318,4,-1.35,-1.33,0.41,-3.640600000000001,-172.9756,51.72580000000001,175,75
2026-05-11 17:53:11.328,4,-1.04,-1.22,0.84,44.779399999999995,-103.6456,73.9758,175,75
2026-05-11 17:53:11.339,4,-0.61,-1.15,1.48,70.99940000000001,-157.67559999999997,83.7358,175,75
2026-05-11 17:53:11.356,4,-0.7,-1.19,1.92,70.4494,-291.2756,84.8958,175,75
2026-05-11 17:53:11.369,4,-1.34,-1.07,1.99,44.46939999999999,-355.05559999999997,86.8458,175,75
2026-05-11 17:53:11.379,4,-1.25,-1.14,1.51,4.779399999999999,-348.7156,79.2258,175,75
2026-05-11 17:53:11.390,4,-0.85,-1.18,1.03,11.6694,-231.51559999999998,68.8558,175,75
2026-05-11 17:53:11.390,4,-0.48,-1.12,0.96,61.299400000000006,-115.4756,63.36580000000001,175,75
2026-05-11 17:53:11.404,4,-0.37,-1.0,1.3,105.8794,48.6644,43.3658,175,75
2026-05-11 17:53:11.414,4,-0.24,-0.84,1.51,109.6594,131.7744,23.6158,175,75
2026-05-11 17:53:11.427,4,-0.13,-0.59,1.63,116.1794,178.2444,10.6858,175,75
2026-05-11 17:53:11.439,4,0.04,-0.29,1.69,130.5694,199.2744,0.2558000000000007,175,75
2026-05-11 17:53:11.449,4,0.09,-0.1,1.61,130.87939999999998,179.82440000000003,-4.9841999999999995,175,75
2026-05-11 17:53:11.460,4,0.07,0.05,1.43,130.2694,158.05440000000002,-2.054199999999998,175,75
2026-05-11 17:53:11.474,4,-0.03,0.09,1.13,119.7194,153.05440000000002,10.5658,175,75
2026-05-11 17:53:11.485,4,-0.18,0.06,0.92,97.8294,200.2544,24.8958,175,75
2026-05-11 17:53:11.505,4,-0.3,0.11,1.01,41.0594,285.6744,76.7858,175,75
2026-05-11 17:53:11.524,4,0.32,-0.4,1.08,44.779399999999995,289.3944,60.805800000000005,175,75
2026-05-11 17:53:11.550,4,-0.51,-0.68,1.38,13.5594,130.2544,50.25580000000001,175,75
2026-05-11 17:53:11.563,4,-0.75,-0.83,1.34,9.959399999999999,50.1344,55.0158,175,75
2026-05-11 17:53:11.568,4,-0.87,-1.11,1.26,1.3594000000000008,-17.3056,69.2258,175,75
2026-05-11 17:53:11.628,4,-0.8,-1.36,1.21,-5.2806,-49.5656,73.36580000000001,175,75
2026-05-11 17:53:11.639,4,-0.7,-1.42,1.14,-2.1106,-77.3656,74.0358,175,75
2026-05-11 17:53:11.639,4,-0.65,-1.44,0.96,4.2894000000000005,-116.4556,66.7858,175,75
2026-05-11 17:53:11.657,4,-1.12,-1.55,0.58,4.529399999999999,-110.4756,63.97580000000001,175,75
2026-05-11 17:53:11.657,4,-1.45,-1.54,0.26,0.5693999999999981,-12.9156,67.75580000000001,175,75
2026-05-11 17:53:11.677,4,-1.66,-1.57,0.3,0.26940000000000097,119.8844,76.5358,175,75
2026-05-11 17:53:11.956,4,-0.72,-2.15,1.38,30.999399999999998,313.1744,85.0758,175,75
2026-05-11 17:53:11.956,4,-0.4,-2.12,1.88,56.35940000000001,238.48440000000002,80.0758,175,75
2026-05-11 17:53:11.956,4,-0.13,-2.07,2.15,78.91940000000001,118.1144,70.6258,175,75
2026-05-11 17:53:11.957,4,-0.01,-1.87,1.9,65.9394,-184.86559999999997,17.635800000000003,175,75
2026-05-11 17:53:11.957,4,-0.37,-1.12,1.09,47.9494,-179.01559999999998,-63.154199999999996,175,75
2026-05-11 17:53:11.958,4,-0.11,-0.35,1.38,49.659400000000005,-197.91559999999998,-53.9442,175,75
2026-05-11 17:53:11.958,4,-0.06,-0.24,1.72,-2.0505999999999993,-77.6156,53.7358,175,75
2026-05-11 17:53:11.958,4,-0.22,-0.28,1.53,-11.0806,-87.9156,55.195800000000006,175,75
2026-05-11 17:53:11.958,4,-0.31,-0.3,1.36,-16.2606,-64.9956,60.1358,175,75
2026-05-11 17:53:11.958,4,-0.36,-0.29,1.25,-16.5006,-23.9556,67.3958,175,75
2026-05-11 17:53:11.958,4,-0.19,-0.43,1.2,-9.6106,38.1744,69.5258,175,75
2026-05-11 17:53:11.960,4,-0.24,-0.53,1.21,-11.380600000000001,40.7444,65.25580000000001,175,75
2026-05-11 17:53:12.153,4,-0.34,-0.52,1.13,-20.4006,40.5544,58.915800000000004,175,75
2026-05-11 17:53:12.153,4,-0.55,-0.42,1.08,-21.5606,42.6944,58.425799999999995,175,75
2026-05-11 17:53:12.153,4,-0.71,-0.77,0.93,-23.7006,55.1944,57.5158,175,75
2026-05-11 17:53:12.153,4,-0.24,-1.72,1.22,97.02940000000001,105.1944,-93.0942,175,75
2026-05-11 17:53:12.153,4,-0.59,-0.84,1.06,90.13940000000001,-30.4756,-117.4242,175,75
2026-05-11 17:53:12.153,4,-0.66,-0.55,1.1,96.9094,-67.5556,-103.5842,175,75
2026-05-11 17:53:12.278,4,-0.51,-0.34,1.06,81.1194,-193.5856,-74.4342,175,75
2026-05-11 17:53:12.278,4,-0.77,-0.49,0.87,59.2294,-260.1156,-64.55420000000001,175,75
2026-05-11 17:53:12.323,4,-0.64,-0.28,0.64,19.5994,102.5044,12.515800000000002,175,75
2026-05-11 17:53:12.373,4,0.05,-0.15,1.07,-8.0306,81.7744,40.1958,175,75
2026-05-11 17:53:12.373,4,0.11,-0.16,0.37,-35.7106,171.5344,42.3958,175,75
2026-05-11 17:53:12.373,4,-0.05,-0.33,0.11,-48.1506,259.2744,42.6958,175,75
2026-05-11 17:53:12.388,4,0.0,-0.53,-0.03,-42.230599999999995,318.24440000000004,27.0858,175,75
2026-05-11 17:53:12.388,4,-0.37,-1.04,0.16,-84.3706,385.8044,5.3858,175,75
2026-05-11 17:53:12.648,4,0.35,-0.97,1.03,24.5994,-116.1456,25.5058,175,75
2026-05-11 17:53:12.648,4,0.18,-0.22,0.93,30.8094,237.6944,15.015799999999999,175,75
2026-05-11 17:53:12.648,4,0.32,-0.35,1.23,57.27940000000001,353.1144,5.805800000000001,175,75
2026-05-11 17:53:12.648,4,0.42,-0.34,1.5,77.1594,416.8344,-9.8042,175,75
2026-05-11 17:53:12.731,4,0.16,0.2,1.82,126.1194,421.2844,-36.444199999999995,175,75
2026-05-11 17:53:12.731,4,-0.18,0.16,0.82,-106.08059999999999,-594.4456,-9.434199999999999,175,75
2026-05-11 17:53:12.757,4,-0.6,-0.14,0.27,-87.97059999999999,-630.8456,16.2958,175,75
2026-05-11 17:53:12.757,4,-1.01,-0.52,-0.15,-81.5006,-568.8956,42.5758,175,75
2026-05-11 17:53:12.760,4,-1.37,-0.9,-0.65,-96.0106,-395.7856,67.2058,175,75
2026-05-11 17:53:12.932,4,-1.51,-1.03,-0.91,-107.8406,-172.0656,84.1058,175,75
2026-05-11 17:53:12.932,4,-1.43,-1.06,-0.91,-93.5106,87.0844,104.2258,175,75
2026-05-11 17:53:12.932,4,-1.09,-1.14,-0.59,-57.78060000000001,302.1444,123.06580000000001,175,75
2026-05-11 17:53:12.932,4,-0.79,-1.35,-0.13,-40.220600000000005,417.2644,124.52579999999999,175,75
2026-05-11 17:53:12.932,4,-0.54,-1.74,0.32,-48.6406,445.6744,109.2258,175,75
2026-05-11 17:53:12.932,4,-0.58,-2.39,0.67,-53.580600000000004,452.0244,95.8058,175,75
2026-05-11 17:53:13.001,4,0.45,-0.31,1.72,2.2194000000000003,-134.32559999999998,19.2258,175,75
2026-05-11 17:53:13.002,4,0.37,-0.2,1.64,5.749400000000001,-154.13559999999998,20.805799999999998,175,75
2026-05-11 17:53:13.052,4,0.2,-0.15,1.41,11.299399999999999,5.254400000000001,32.3358,175,75
2026-05-11 17:53:13.064,4,0.17,-0.19,1.53,-2.2905999999999995,45.9844,36.7258,175,75
2026-05-11 17:53:13.090,4,0.53,0.01,1.58,-17.6006,-1.5755999999999988,42.275800000000004,175,75
2026-05-11 17:53:13.159,4,-0.02,-0.75,0.18,-68.8806,72.8744,0.5058000000000007,175,75
2026-05-11 17:53:13.170,4,0.07,-1.01,0.27,-67.6006,136.2244,9.285800000000002,175,75
2026-05-11 17:53:13.191,4,0.25,-1.96,0.79,-67.1706,100.3144,7.0258,175,75
2026-05-11 17:53:13.205,4,0.22,-2.08,1.03,-60.590599999999995,24.1544,-0.41419999999999746,175,75
2026-05-11 17:53:13.234,4,-0.53,-1.55,0.78,-61.500600000000006,-273.8956,-4.5542,175,75
2026-05-11 17:53:13.256,4,-0.16,-1.62,0.69,38.6194,-41.8256,86.6058,175,75
2026-05-11 17:53:13.267,4,0.1,-1.46,0.84,50.5694,-60.5356,83.8558,175,75
2026-05-11 17:53:13.275,4,0.01,-1.38,0.86,43.6794,-87.4356,74.5858,175,75
2026-05-11 17:53:13.277,4,-0.17,-1.2,0.74,24.8394,-92.6156,62.815799999999996,175,75
2026-05-11 17:53:13.292,4,-0.31,-0.89,0.72,17.4594,-37.3656,60.805800000000005,175,75
2026-05-11 17:53:13.306,4,-0.1,-0.66,0.86,28.3094,19.9444,66.9058,175,75
2026-05-11 17:53:13.318,4,0.14,-0.53,1.11,34.109399999999994,32.2044,69.2858,175,75
2026-05-11 17:53:13.318,4,0.25,-0.5,1.13,28.9894,31.534399999999998,65.3858,175,75
2026-05-11 17:53:13.332,4,0.2,-0.4,1.07,25.689400000000003,52.8744,61.785799999999995,175,75
2026-05-11 17:53:13.332,4,0.11,-0.27,1.03,30.079400000000003,103.6044,62.335800000000006,175,75
2026-05-11 17:53:13.345,4,0.01,-0.19,1.09,39.779399999999995,197.5044,64.5258,175,75
2026-05-11 17:53:13.357,4,0.02,-0.32,1.3,47.4594,264.2144,67.3958,175,75
2026-05-11 17:53:13.379,4,0.29,-0.61,2.1,41.299400000000006,162.6944,62.5758,175,75
2026-05-11 17:53:13.395,4,0.34,-0.67,2.11,31.969399999999997,83.7244,58.065799999999996,175,75
2026-05-11 17:53:13.406,4,0.39,-0.68,1.99,21.8494,-23.1656,52.695800000000006,175,75
2026-05-11 17:53:13.420,4,0.53,-0.45,1.39,9.779399999999999,-147.36559999999997,40.7458,175,75
2026-05-11 17:53:13.436,4,0.52,-0.45,1.01,10.019400000000001,-175.0556,26.665800000000004,175,75
2026-05-11 17:53:13.451,4,0.38,-0.71,0.33,-0.22060000000000102,-172.1256,4.2258,175,75
2026-05-11 17:53:13.464,4,0.17,-0.86,0.05,-21.9306,-171.45559999999998,-0.7141999999999982,175,75
2026-05-11 17:53:13.476,4,-0.19,-1.01,-0.09,-58.330600000000004,-144.6856,1.0558000000000014,175,75
2026-05-11 17:53:13.494,4,-0.28,-1.5,-0.01,-109.4906,1.4144000000000014,36.6058,175,75
2026-05-11 17:53:13.505,4,-0.1,-1.8,0.24,-106.3206,31.5944,44.0358,175,75
2026-05-11 17:53:13.516,4,0.05,-1.92,0.48,-102.2306,28.114400000000003,44.8358,175,75
2026-05-11 17:53:13.526,4,0.06,-1.86,0.65,-96.6206,2.1444,45.1358,175,75
2026-05-11 17:53:13.540,4,0.04,-1.59,0.75,-94.25059999999999,-46.9456,42.3958,175,75
2026-05-11 17:53:13.567,4,-0.45,-1.19,0.45,-90.0406,-33.7756,53.425799999999995,175,75
2026-05-11 17:53:13.572,4,-0.59,-1.24,0.42,-76.2606,43.6644,65.1958,175,75
2026-05-11 17:53:13.594,4,-0.19,-1.11,0.99,-21.5006,208.9144,85.86580000000001,175,75
2026-05-11 17:53:13.603,4,0.09,-0.95,1.27,-3.5106,178.17440000000002,82.5158,175,75
2026-05-11 17:53:13.617,4,0.21,-0.9,1.43,8.679400000000001,110.6144,71.2958,175,75
2026-05-11 17:53:13.635,4,-0.21,-0.83,1.25,11.4194,18.0544,42.8158,175,75
2026-05-11 17:53:13.648,4,-0.43,-0.63,1.12,18.859399999999997,53.3644,42.3958,175,75
2026-05-11 17:53:13.648,4,-0.52,-0.41,1.07,32.21939999999999,118.3644,47.75580000000001,175,75
2026-05-11 17:53:13.671,4,-0.44,-0.07,1.2,50.629400000000004,217.5044,59.035799999999995,175,75
2026-05-11 17:53:13.696,4,-0.16,0.59,1.78,58.5594,251.2844,71.2958,175,75
2026-05-11 17:53:13.716,4,-0.11,0.43,1.99,52.769400000000005,170.98440000000002,77.3358,175,75
2026-05-11 17:53:13.727,4,-0.27,-0.1,2.05,31.4894,56.7744,77.5158,175,75
2026-05-11 17:53:13.748,4,-0.41,-0.37,1.93,5.6294,-39.9356,77.6358,175,75
2026-05-11 17:53:13.748,4,-0.49,-0.38,1.78,-12.0506,-90.0556,82.6358,175,75
2026-05-11 17:53:13.770,4,-0.51,-0.23,1.5,-25.5306,-149.5656,113.55579999999999,175,75
2026-05-11 17:53:13.782,4,-0.45,-0.26,1.44,-21.5606,-171.69559999999998,135.86579999999998,175,75
2026-05-11 17:53:13.855,4,-0.45,-0.98,0.71,-26.7506,-223.7756,147.57580000000002,175,75
2026-05-11 17:53:13.868,4,-0.55,-1.07,0.01,-19.1906,-84.6256,149.0358,175,75
2026-05-11 17:53:13.879,4,-0.58,-1.2,-0.25,1.6693999999999996,45.3744,154.5258,175,75
2026-05-11 17:53:13.917,4,-0.65,-1.46,-0.26,26.119400000000002,221.95440000000002,158.42579999999998,175,75
2026-05-11 17:53:13.917,4,-0.53,-1.72,-0.05,27.219399999999997,363.3644,155.80579999999998,175,75
2026-05-11 17:53:13.930,4,-0.29,-1.95,0.28,16.8494,420.9244,144.1658,175,75
2026-05-11 17:53:13.952,4,-0.2,-2.52,1.0,1.2393999999999998,352.44440000000003,114.83579999999999,175,75
2026-05-11 17:53:13.982,4,0.39,-1.72,0.86,39.049400000000006,-54.9356,83.61580000000001,175,75
2026-05-11 17:53:13.993,4,0.3,-1.55,0.61,44.8994,-67.12559999999999,72.9458,175,75
2026-05-11 17:53:14.002,4,0.2,-1.36,0.37,40.999399999999994,-18.7156,59.285799999999995,175,75
2026-05-11 17:53:14.008,4,0.03,-1.24,0.41,34.049400000000006,63.1144,51.785799999999995,175,75
2026-05-11 17:53:14.046,4,0.3,-1.08,1.11,42.82940000000001,151.7144,52.8858,175,75
2026-05-11 17:53:14.057,4,0.52,-0.93,1.44,42.029399999999995,109.4544,48.36580000000001,175,75
2026-05-11 17:53:14.057,4,0.61,-0.69,1.55,29.4094,20.1344,37.2058,175,75
2026-05-11 17:53:14.068,4,0.41,-0.4,1.43,19.6594,-28.4056,31.415800000000004,175,75
2026-05-11 17:53:14.100,4,0.24,-0.18,1.3,17.5194,-17.6756,34.2858,175,75
2026-05-11 17:53:14.127,4,0.32,-0.2,1.45,12.029399999999999,30.6744,43.3058,175,75
2026-05-11 17:53:14.127,4,0.4,-0.26,1.55,6.7894000000000005,24.1544,43.6158,175,75
2026-05-11 17:53:14.170,4,0.36,-0.36,1.55,-9.4906,-5.355599999999999,32.0858,175,75
2026-05-11 17:53:14.182,4,0.22,-0.34,1.48,-12.970600000000001,4.274400000000001,28.6158,175,75
2026-05-11 17:53:14.193,4,0.19,-0.3,1.58,-22.7206,52.3844,25.2558,175,75
2026-05-11 17:53:14.204,4,0.31,-0.31,1.75,-32.6006,8.6644,16.4758,175,75
2026-05-11 17:53:14.243,4,0.03,-0.58,1.29,-47.840599999999995,-49.3856,7.815799999999999,175,75
2026-05-11 17:53:14.254,4,0.08,-0.76,1.22,-52.360600000000005,-66.2156,13.9758,175,75
2026-05-11 17:53:14.254,4,0.07,-0.94,1.09,-55.950599999999994,-76.8856,21.235799999999998,175,75
2026-05-11 17:53:14.299,4,-0.26,-1.32,0.7,-41.9906,40.3144,45.0758,175,75
2026-05-11 17:53:14.318,4,-0.36,-1.42,0.68,-26.3806,140.92440000000002,57.695800000000006,175,75
2026-05-11 17:53:14.333,4,-0.2,-1.43,1.12,25.8794,249.45440000000002,81.7858,175,75
2026-05-11 17:53:14.333,4,-0.18,-1.65,1.25,35.8094,205.4944,73.0658,175,75
2026-05-11 17:53:14.340,4,-0.4,-1.9,1.28,46.0594,185.0044,71.9058,175,75
2026-05-11 17:53:14.352,4,-0.41,-2.11,1.33,85.99940000000001,160.0644,90.3858,175,75
2026-05-11 17:53:14.373,4,0.63,-1.56,0.88,109.10940000000001,-234.44559999999998,45.9958,175,75
2026-05-11 17:53:14.390,4,-0.21,-0.96,-0.23,73.7994,-239.5056,-4.5542,175,75
2026-05-11 17:53:14.402,4,-0.3,-0.59,-0.4,70.6894,-105.0556,3.3058000000000014,175,75
2026-05-11 17:53:14.413,4,-0.22,-0.38,-0.2,62.27940000000001,31.834400000000002,19.525800000000004,175,75
2026-05-11 17:53:14.441,4,0.15,-0.2,0.52,35.07940000000001,159.64440000000002,49.4658,175,75
2026-05-11 17:53:14.454,4,0.22,-0.21,0.78,28.3794,165.3744,58.4958,175,75
2026-05-11 17:53:14.465,4,0.12,-0.34,0.96,20.999399999999998,169.39440000000002,63.8558,175,75
2026-05-11 17:53:14.475,4,0.05,-0.54,1.12,17.399399999999996,177.9944,68.4958,175,75
2026-05-11 17:53:14.475,4,0.03,-0.77,1.3,20.999399999999998,187.5644,72.9458,175,75
2026-05-11 17:53:14.489,4,0.09,-0.97,1.49,27.1594,185.3144,73.2458,175,75
2026-05-11 17:53:14.500,4,0.29,-1.23,1.77,35.5694,140.0644,65.0158,175,75
2026-05-11 17:53:14.513,4,0.39,-1.39,1.9,39.3494,55.0044,47.275800000000004,175,75
2026-05-11 17:53:14.513,4,0.38,-1.41,1.8,38.3094,-19.4456,28.675800000000002,175,75
2026-05-11 17:53:14.524,4,0.24,-1.34,1.57,39.529399999999995,-55.0556,15.135800000000003,175,75
2026-05-11 17:53:14.548,4,0.14,-0.86,1.23,44.779399999999995,2.264400000000001,4.4658000000000015,175,75
2026-05-11 17:53:14.548,4,0.23,-0.67,1.28,40.389399999999995,16.4744,1.1158000000000001,175,75
2026-05-11 17:53:14.559,4,0.56,-0.38,1.25,20.939400000000003,-38.0456,-10.4142,175,75
2026-05-11 17:53:14.570,4,0.5,-0.33,0.94,2.6393999999999984,-86.2756,-22.7242,175,75
2026-05-11 17:53:14.605,4,-0.01,-0.94,0.51,-46.7506,75.3744,-13.274199999999999,175,75
2026-05-11 17:53:14.605,4,0.14,-1.37,0.71,-56.6906,98.7844,-2.9741999999999997,175,75
2026-05-11 17:53:14.649,4,0.23,-1.75,0.93,-46.5606,52.5644,19.6458,175,75
2026-05-11 17:53:14.663,4,0.18,-1.66,1.02,-43.8206,48.9144,22.6958,175,75
2026-05-11 17:53:14.678,4,0.17,-1.85,1.12,-24.5506,51.7744,35.5658,175,75
2026-05-11 17:53:14.689,4,0.23,-1.85,1.24,-8.640600000000001,52.8744,39.8358,175,75
2026-05-11 17:53:14.699,4,0.32,-1.64,1.36,0.26940000000000097,47.2644,34.4058,175,75
2026-05-11 17:53:14.712,4,0.43,-1.39,1.37,12.889399999999998,23.1744,22.205800000000004,175,75
2026-05-11 17:53:14.735,4,0.39,-1.25,1.23,19.469399999999997,15.194400000000002,8.855800000000002,175,75
2026-05-11 17:53:14.746,4,0.27,-1.06,1.0,24.5294,59.70440000000001,-1.0841999999999992,175,75
2026-05-11 17:53:14.746,4,0.19,-0.84,0.91,30.749399999999998,126.5944,-3.094199999999999,175,75
2026-05-11 17:53:14.757,4,0.16,-0.57,0.92,37.769400000000005,200.61440000000002,-0.9641999999999982,175,75
2026-05-11 17:53:14.790,4,0.25,0.18,1.36,24.1694,333.7844,-1.2641999999999989,175,75
2026-05-11 17:53:14.790,4,0.15,0.12,1.41,15.019400000000001,341.5944,-4.494199999999999,175,75
2026-05-11 17:53:14.816,4,0.07,-0.25,1.54,-2.0505999999999993,355.06440000000003,-6.084199999999999,175,75
2026-05-11 17:53:14.840,4,0.15,-0.38,1.68,-27.840600000000002,322.56440000000003,-13.7042,175,75
2026-05-11 17:53:14.867,4,0.2,-0.52,1.75,-37.360600000000005,236.2844,-17.054199999999998,175,75
2026-05-11 17:53:14.867,4,0.3,-0.73,1.78,-40.2806,177.8144,-15.2942,175,75
2026-05-11 17:53:14.879,4,0.54,-1.02,1.77,-42.9006,115.0044,-15.2942,175,75
2026-05-11 17:53:14.900,4,0.92,-1.53,1.38,-75.5906,-62.6756,-45.7742,175,75
2026-05-11 17:53:14.910,4,0.73,-1.61,0.99,-86.14059999999999,-59.0756,-47.6042,175,75
2026-05-11 17:53:14.920,4,0.66,-1.7,0.78,-78.5106,-9.445599999999999,-37.914199999999994,175,75
2026-05-11 17:53:14.938,4,0.71,-1.86,0.82,-52.970600000000005,82.1444,-20.2942,175,75
2026-05-11 17:53:14.944,4,1.1,-1.92,1.01,-40.4006,107.6344,-20.0442,175,75
2026-05-11 17:53:14.956,4,1.16,-2.13,1.16,-49.92059999999999,81.4144,-39.194199999999995,175,75
2026-05-11 17:53:14.974,4,0.66,-2.36,1.18,-71.0106,66.7144,-38.8242,175,75
2026-05-11 17:53:15.004,4,0.86,-2.16,1.55,-41.8106,108.4844,45.6258,175,75
2026-05-11 17:53:15.042,4,0.87,-1.6,1.54,-22.7206,166.4144,46.9058,175,75
2026-05-11 17:53:15.057,4,0.79,-1.47,1.55,-19.6106,216.4744,43.5558,175,75
2026-05-11 17:53:15.070,4,0.68,-1.29,1.63,-17.2906,265.19440000000003,43.915800000000004,175,75
2026-05-11 17:53:15.070,4,0.58,-1.06,1.76,-15.3406,300.06440000000003,47.6358,175,75
2026-05-11 17:53:15.084,4,0.48,-0.89,1.88,-17.1706,309.94440000000003,50.195800000000006,175,75
2026-05-11 17:53:15.095,4,0.35,-0.7,1.98,-21.4406,317.75440000000003,52.815799999999996,175,75
2026-05-11 17:53:15.117,4,0.31,-0.3,2.08,-17.2306,296.2244,50.0758,175,75
2026-05-11 17:53:15.122,4,0.26,-0.19,2.12,-6.140600000000001,277.56440000000003,47.205799999999996,175,75
2026-05-11 17:53:15.149,4,0.31,-0.08,2.25,15.329400000000003,199.45440000000002,34.345800000000004,175,75
2026-05-11 17:53:15.172,4,0.36,-0.09,2.27,18.3094,117.1444,21.235799999999998,175,75
2026-05-11 17:53:15.172,4,0.4,-0.06,2.24,21.4194,48.4244,10.8658,175,75
2026-05-11 17:53:15.194,4,0.46,-0.02,1.94,15.329400000000003,-101.0256,-17.5442,175,75
2026-05-11 17:53:15.204,4,0.44,-0.01,1.69,6.4894,-132.0056,-29.4942,175,75
2026-05-11 17:53:15.219,4,0.45,-0.02,1.55,-0.22060000000000102,-124.0156,-34.1342,175,75
2026-05-11 17:53:15.222,4,0.44,-0.08,1.43,-9.2506,-81.7556,-37.054199999999994,175,75
2026-05-11 17:53:15.244,4,0.45,-0.14,1.43,-13.5806,-40.2356,-36.9942,175,75
2026-05-11 17:53:15.266,4,0.54,-0.45,1.58,-12.7806,35.1344,-38.7042,175,75
2026-05-11 17:53:15.271,4,0.55,-0.68,1.68,-10.4006,65.3144,-40.7142,175,75
2026-05-11 17:53:15.285,4,0.51,-0.84,1.8,-7.720600000000001,83.0544,-43.2742,175,75
2026-05-11 17:53:15.296,4,0.48,-0.96,2.0,-5.7105999999999995,89.8244,-41.2042,175,75
2026-05-11 17:53:15.306,4,0.59,-1.01,2.19,-3.8206000000000007,75.8044,-32.7942,175,75
2026-05-11 17:53:15.306,4,0.81,-1.05,2.38,-1.8106000000000009,38.9744,-27.7242,175,75
2026-05-11 17:53:15.332,4,0.94,-1.09,2.45,-0.0406000000000013,-23.5256,-30.1642,175,75
2026-05-11 17:53:15.346,4,0.97,-1.22,2.31,-1.6905999999999999,-87.6156,-30.964199999999998,175,75
2026-05-11 17:53:15.350,4,0.86,-1.3,2.21,1.4893999999999998,-80.4156,-24.254199999999997,175,75
2026-05-11 17:53:15.370,4,1.02,-1.37,2.15,12.9494,-40.4156,-7.854199999999999,175,75
2026-05-11 17:53:15.380,4,1.24,-1.55,2.0,27.829400000000003,-18.165599999999998,-1.9342000000000006,175,75
2026-05-11 17:53:15.392,4,1.15,-1.71,1.8,35.879400000000004,24.0944,3.4258000000000024,175,75
2026-05-11 17:53:15.392,4,1.05,-1.75,1.66,37.7094,89.4544,15.565800000000003,175,75
2026-05-11 17:53:15.415,4,0.89,-1.97,1.91,52.769400000000005,245.0044,76.9658,175,75
2026-05-11 17:53:15.426,4,1.02,-2.06,2.22,42.889399999999995,220.7444,93.6758,175,75
2026-05-11 17:53:15.439,4,1.19,-2.05,2.47,21.969399999999997,144.0344,96.6058,175,75
2026-05-11 17:53:15.447,4,1.36,-1.93,2.54,6.4193999999999996,59.2144,90.9958,175,75
2026-05-11 17:53:15.459,4,1.4,-1.82,2.45,-3.640600000000001,-11.025599999999999,80.5658,175,75
2026-05-11 17:53:15.470,4,1.3,-1.7,2.26,-6.8706,-54.1356,70.1958,175,75
2026-05-11 17:53:15.481,4,1.1,-1.46,2.05,-3.5806000000000004,-62.7956,60.6858,175,75
2026-05-11 17:53:15.496,4,1.0,-1.27,2.01,6.179400000000001,-54.0156,58.1858,175,75
2026-05-11 17:53:15.507,4,0.68,-1.36,2.06,26.609399999999997,-80.7256,56.785799999999995,175,75
2026-05-11 17:53:15.528,4,0.65,-1.19,2.21,25.0194,-129.32559999999998,56.2358,175,75
2026-05-11 17:53:15.541,4,0.7,-0.98,2.28,20.569399999999998,-196.0256,52.145799999999994,175,75
2026-05-11 17:53:15.541,4,0.73,-0.77,2.2,15.939400000000003,-280.6656,41.7258,175,75
2026-05-11 17:53:15.570,4,0.68,-0.5,1.74,10.209399999999999,-368.5856,18.1858,175,75
2026-05-11 17:53:15.579,4,0.54,-0.34,1.38,8.7394,-342.12559999999996,6.8458000000000006,175,75
2026-05-11 17:53:15.593,4,0.41,-0.23,1.12,8.3094,-248.7156,3.855800000000002,175,75
2026-05-11 17:53:15.604,4,0.33,-0.19,1.06,10.269400000000001,-131.2756,9.3458,175,75
2026-05-11 17:53:15.616,4,0.36,-0.18,1.24,9.839400000000001,-34.0756,15.6858,175,75
2026-05-11 17:53:15.626,4,0.4,-0.19,1.45,10.269400000000001,5.864400000000001,13.7958,175,75
2026-05-11 17:53:15.637,4,0.46,-0.2,1.76,7.3994,10.924399999999999,8.855800000000002,175,75
2026-05-11 17:53:15.650,4,0.66,-0.17,1.87,-1.6205999999999996,-36.2756,3.1858000000000004,175,75
2026-05-11 17:53:15.659,4,0.75,-0.24,1.79,-4.8606,-83.4056,-6.504199999999999,175,75
2026-05-11 17:53:15.672,4,0.72,-0.42,1.63,-8.1506,-119.5656,-17.3642,175,75
2026-05-11 17:53:15.684,4,0.73,-0.54,1.44,-16.0806,-124.3256,-21.2042,175,75
2026-05-11 17:53:15.715,4,1.14,-1.05,1.07,-45.5306,-39.4456,-33.2142,175,75
2026-05-11 17:53:15.725,4,1.11,-1.25,1.02,-60.7106,-7.365599999999999,-38.8842,175,75
2026-05-11 17:53:15.735,4,0.97,-1.49,1.07,-78.9406,53.3644,-39.434200000000004,175,75
2026-05-11 17:53:15.749,4,0.9,-1.72,1.31,-89.9206,133.7844,-31.2042,175,75
2026-05-11 17:53:15.761,4,1.06,-1.65,1.76,-89.1206,154.45440000000002,-31.6342,175,75
2026-05-11 17:53:15.761,4,1.27,-1.46,2.07,-85.22059999999999,93.3044,-40.834199999999996,175,75
2026-05-11 17:53:15.775,4,1.3,-1.37,2.18,-67.9706,1.4144000000000014,-44.8642,175,75
2026-05-11 17:53:15.789,4,1.19,-1.55,2.08,-36.7506,-111.4556,-41.5042,175,75
2026-05-11 17:53:15.800,4,0.92,-1.79,1.88,-26.0806,-176.39559999999997,-36.3242,175,75
2026-05-11 17:53:15.825,4,0.67,-1.77,1.52,-10.5306,-218.4656,4.2258,175,75
2026-05-11 17:53:15.848,4,0.74,-1.43,1.35,11.179400000000001,-181.94559999999998,25.135800000000003,175,75
2026-05-11 17:53:15.878,4,0.76,-0.83,1.02,74.71940000000001,27.504399999999997,55.50580000000001,175,75
2026-05-11 17:53:15.888,4,0.8,-0.54,1.14,70.2094,78.7244,49.585800000000006,175,75
2026-05-11 17:53:15.900,4,0.87,-0.07,1.35,54.10940000000001,118.7244,30.745800000000003,175,75
2026-05-11 17:53:15.910,4,0.91,0.23,1.45,35.749399999999994,103.7844,4.405799999999999,175,75
2026-05-11 17:53:15.935,4,0.45,-0.2,1.09,4.599399999999999,65.0644,-33.5242,175,75
2026-05-11 17:53:15.951,4,0.06,-0.37,1.03,-21.1406,124.6444,-37.6042,175,75
2026-05-11 17:53:15.951,4,-0.13,-0.32,1.21,-41.1406,182.38440000000003,-32.1142,175,75
2026-05-11 17:53:15.967,4,-0.08,-0.23,1.58,-53.700599999999994,209.39440000000002,-20.4742,175,75
2026-05-11 17:53:15.982,4,0.27,-0.33,1.92,-59.980599999999995,129.2144,-10.4742,175,75
2026-05-11 17:53:15.993,4,0.64,-0.67,1.98,-64.8606,-25.1156,-9.7442,175,75
2026-05-11 17:53:16.020,4,0.76,-1.54,0.83,-122.5406,-229.2556,-19.6842,175,75
2026-05-11 17:53:16.029,4,0.72,-1.79,0.58,-120.5906,-129.5656,-4.8042,175,75
2026-05-11 17:53:16.040,4,0.87,-2.01,0.58,-112.2906,26.1644,16.605800000000002,175,75
2026-05-11 17:53:16.054,4,1.32,-2.15,1.04,-103.5106,188.54440000000002,25.1958,175,75
2026-05-11 17:53:16.085,4,1.88,-2.08,2.1,-78.4506,157.0244,-36.5042,175,75
2026-05-11 17:53:16.095,4,1.53,-2.41,2.23,-47.2906,72.9944,-58.2142,175,75
2026-05-11 17:53:16.121,4,1.16,-2.47,2.35,-26.8706,-47.1256,-34.804199999999994,175,75
2026-05-11 17:53:16.145,4,1.01,-1.91,1.91,-28.4506,-154.19559999999998,-10.4742,175,75
2026-05-11 17:53:16.174,4,0.78,-1.27,1.7,22.4594,-4.7456,0.2558000000000007,175,75
2026-05-11 17:53:16.182,4,0.65,-1.12,1.8,41.8494,22.3844,2.6357999999999997,175,75
2026-05-11 17:53:16.209,4,0.36,-0.56,1.9,61.1794,16.5344,5.565799999999999,175,75
2026-05-11 17:53:16.225,4,0.26,-0.23,1.87,74.77940000000001,-8.4056,6.905799999999999,175,75
2026-05-11 17:53:16.236,4,0.19,-0.09,1.78,90.13940000000001,-29.9356,7.815799999999999,175,75
2026-05-11 17:53:16.236,4,0.14,-0.1,1.61,101.1194,-50.9056,4.7758,175,75
2026-05-11 17:53:16.247,4,0.04,-0.19,1.37,103.3794,-49.0756,-0.47419999999999973,175,75
2026-05-11 17:53:16.264,4,-0.03,-0.23,1.18,101.2994,-15.235599999999998,-0.7742000000000004,175,75
2026-05-11 17:53:16.273,4,0.0,-0.19,1.1,95.5694,9.154399999999999,-0.35419999999999874,175,75
2026-05-11 17:53:16.286,4,-0.16,-0.08,1.05,76.66940000000001,26.284399999999998,2.2758000000000003,175,75
2026-05-11 17:53:16.299,4,-0.25,0.05,1.06,58.9894,59.8844,9.3458,175,75
2026-05-11 17:53:16.310,4,-0.18,0.16,1.2,41.419399999999996,97.8744,28.125799999999998,175,75
2026-05-11 17:53:16.321,4,0.17,0.08,1.38,1.3594000000000008,52.3244,33.8558,175,75
2026-05-11 17:53:16.321,4,0.4,-0.07,1.47,-39.980599999999995,-3.3455999999999992,21.355800000000002,175,75
2026-05-11 17:53:16.336,4,0.49,-0.18,1.49,-77.7206,-59.8656,8.3658,175,75
2026-05-11 17:53:16.363,4,0.45,-0.14,1.32,-105.0406,-42.3056,11.535800000000002,175,75
2026-05-11 17:53:16.373,4,0.58,-0.21,1.28,-94.61059999999999,9.214400000000001,16.055799999999998,175,75
2026-05-11 17:53:16.388,4,0.68,-0.49,1.31,-85.1006,57.264399999999995,8.0658,175,75
2026-05-11 17:53:16.397,4,0.87,-0.7,1.37,-81.3206,100.6144,-5.594199999999999,175,75
2026-05-11 17:53:16.408,4,1.13,-0.91,1.59,-61.870599999999996,153.48440000000002,-48.1542,175,75
2026-05-11 17:53:16.457,4,0.97,-1.87,1.58,-47.480599999999995,141.6544,-53.0942,175,75
2026-05-11 17:53:16.469,4,1.0,-1.72,1.65,-47.840599999999995,160.3144,-31.324199999999998,175,75
2026-05-11 17:53:16.479,4,1.14,-1.58,1.82,-40.7706,175.3744,-7.1141999999999985,175,75
2026-05-11 17:53:16.490,4,1.26,-1.75,2.01,-32.1106,153.17440000000002,2.8857999999999997,175,75
2026-05-11 17:53:16.529,4,1.27,-1.9,2.04,-2.1706000000000003,36.8344,23.7958,175,75
2026-05-11 17:53:16.538,4,1.3,-1.91,1.97,12.9494,20.9244,46.415800000000004,175,75
2026-05-11 17:53:16.551,4,1.42,-1.8,1.92,20.079400000000003,2.3844000000000003,54.525800000000004,175,75
2026-05-11 17:53:16.558,4,1.41,-1.7,1.84,25.569399999999998,-8.775599999999999,50.1358,175,75
2026-05-11 17:53:16.586,4,1.26,-1.38,1.73,34.529399999999995,9.2744,47.695800000000006,175,75
2026-05-11 17:53:16.597,4,1.13,-1.22,1.7,32.279399999999995,10.0644,46.175799999999995,175,75
2026-05-11 17:53:16.608,4,1.09,-0.94,1.79,31.2394,22.5044,47.275800000000004,175,75
2026-05-11 17:53:16.619,4,1.08,-0.78,1.89,32.7094,5.1344,38.915800000000004,175,75
2026-05-11 17:53:16.629,4,0.98,-0.7,1.97,31.969399999999997,-26.1456,25.745800000000003,175,75
2026-05-11 17:53:16.639,4,0.78,-0.66,1.99,29.5994,-58.2256,12.395800000000001,175,75
2026-05-11 17:53:16.671,4,0.46,-0.23,1.97,24.4094,-148.16559999999998,20.385800000000003,175,75
2026-05-11 17:53:16.700,4,0.35,-0.33,1.66,41.0594,-176.45559999999998,4.4658000000000015,175,75
2026-05-11 17:53:16.726,4,-0.02,-0.7,1.21,44.409400000000005,-80.2356,5.805800000000001,175,75
2026-05-11 17:53:16.741,4,0.21,-0.62,1.28,26.119400000000002,112.1444,10.925800000000002,175,75
2026-05-11 17:53:16.825,4,0.89,-1.05,1.58,-16.3206,107.9944,-34.434200000000004,175,75
2026-05-11 17:53:16.837,4,1.16,-1.49,1.84,-56.200599999999994,86.5344,-50.5942,175,75
2026-05-11 17:53:16.847,4,1.14,-1.75,2.02,-63.700599999999994,65.7444,-55.834199999999996,175,75
2026-05-11 17:53:16.859,4,1.21,-1.83,2.28,-68.1506,26.044400000000003,-61.084199999999996,175,75
2026-05-11 17:53:16.884,4,1.44,-1.49,2.43,-56.2606,-100.7856,-72.9742,175,75
2026-05-11 17:53:16.896,4,1.09,-1.58,2.0,-39.0006,-144.5656,-71.9942,175,75
2026-05-11 17:53:16.906,4,0.79,-1.53,1.7,-20.2206,-94.3856,-48.7042,175,75
2026-05-11 17:53:16.916,4,0.67,-1.52,1.63,-2.7805999999999997,-28.8956,-17.2442,175,75
2026-05-11 17:53:16.928,4,0.72,-1.59,1.78,19.4094,26.964399999999998,29.4058,175,75
2026-05-11 17:53:16.939,4,0.87,-1.47,2.04,21.8494,16.7144,59.585800000000006,175,75
2026-05-11 17:53:16.987,4,0.79,-1.32,1.94,24.7794,-65.9656,53.555800000000005,175,75
2026-05-11 17:53:16.996,4,0.63,-1.24,1.87,33.379400000000004,-68.5256,49.4058,175,75
2026-05-11 17:53:17.007,4,0.57,-1.08,1.89,38.379400000000004,-63.4056,44.4058,175,75
2026-05-11 17:53:17.019,4,0.64,-0.66,1.99,40.019400000000005,-69.5656,38.2458,175,75
2026-05-11 17:53:17.019,4,0.75,-0.29,1.99,45.019400000000005,-96.6356,31.535800000000002,175,75
2026-05-11 17:53:17.029,4,0.75,-0.0,1.79,58.189400000000006,-126.0856,18.675800000000002,175,75
2026-05-11 17:53:17.039,4,0.46,-0.14,1.2,83.7394,-62.1256,0.5657999999999994,175,75
2026-05-11 17:53:17.125,4,0.3,-0.18,2.3,33.379400000000004,130.86440000000002,4.0958000000000006,175,75
2026-05-11 17:53:17.125,4,0.47,-0.17,2.57,14.3494,-31.9456,-1.6941999999999986,175,75
2026-05-11 17:53:17.152,4,0.91,-0.62,2.17,-22.5406,-326.75559999999996,-21.8742,175,75
2026-05-11 17:53:17.164,4,1.06,-0.79,1.59,-31.2006,-362.43559999999997,-34.7442,175,75
2026-05-11 17:53:17.183,4,1.26,-1.93,0.56,-46.8106,57.4444,-50.294200000000004,175,75
2026-05-11 17:53:17.188,4,1.32,-1.96,1.03,-37.0506,189.70440000000002,-39.804199999999994,175,75
2026-05-11 17:53:17.196,4,1.44,-2.0,1.57,-28.4506,209.0944,-44.434200000000004,175,75
2026-05-11 17:53:17.207,4,1.26,-2.25,1.97,-28.090600000000002,123.85440000000001,-53.4642,175,75
2026-05-11 17:53:17.230,4,0.9,-2.53,2.03,-32.970600000000005,11.284400000000002,-46.084199999999996,175,75
2026-05-11 17:53:17.230,4,0.71,-2.6,1.95,-35.6506,-46.5156,-19.4342,175,75
2026-05-11 17:53:17.276,4,0.75,-1.61,1.68,-37.0506,-48.7156,42.3358,175,75
2026-05-11 17:53:17.287,4,0.65,-1.4,1.67,10.4494,-1.9455999999999989,38.3058,175,75
2026-05-11 17:53:17.296,4,0.48,-1.28,1.79,33.189400000000006,31.1044,38.4958,175,75
2026-05-11 17:53:17.334,4,0.44,-1.06,1.95,48.3094,40.3144,40.6258,175,75
2026-05-11 17:53:17.400,4,0.39,-0.15,1.62,83.85940000000001,-54.9356,29.6458,175,75
2026-05-11 17:53:17.411,4,0.38,-0.13,1.58,68.3794,-58.5856,20.4458,175,75
2026-05-11 17:53:17.425,4,0.17,-0.06,1.32,24.5294,-28.8956,11.055800000000001,175,75
2026-05-11 17:53:17.489,4,0.18,-0.04,1.37,15.329400000000003,5.3744000000000005,14.895800000000001,175,75
2026-05-11 17:53:17.489,4,0.3,-0.1,1.52,6.359400000000001,18.8544,16.845800000000004,175,75
2026-05-11 17:53:17.509,4,0.45,-0.19,1.67,-6.140600000000001,-5.6655999999999995,9.3458,175,75
2026-05-11 17:53:17.510,4,0.51,-0.25,1.69,-22.840600000000002,-51.8256,-4.9841999999999995,175,75
2026-05-11 17:53:17.523,4,0.47,-0.24,1.63,-32.720600000000005,-75.6656,-13.4042,175,75
2026-05-11 17:53:17.532,4,0.49,-0.25,1.56,-35.0406,-81.8256,-17.304199999999998,175,75
2026-05-11 17:53:17.532,4,0.62,-0.38,1.53,-32.9006,-74.6856,-18.7642,175,75
2026-05-11 17:53:17.546,4,0.91,-0.56,1.47,-30.040599999999998,-72.0656,-28.2742,175,75
2026-05-11 17:53:17.547,4,1.03,-0.8,1.32,-25.590600000000002,-79.5656,-45.9642,175,75
2026-05-11 17:53:17.584,4,1.0,-1.75,1.28,-3.2706,84.7044,-29.434199999999997,175,75
2026-05-11 17:53:17.584,4,1.17,-1.73,1.38,10.269400000000001,93.1144,-17.1142,175,75
2026-05-11 17:53:17.603,4,1.5,-1.74,1.43,21.179399999999998,59.45440000000001,-13.274199999999999,175,75
2026-05-11 17:53:17.606,4,1.59,-1.84,1.26,17.4594,13.784400000000002,-26.754199999999997,175,75
2026-05-11 17:53:17.621,4,1.34,-2.02,1.03,8.5594,10.2544,-32.7942,175,75
2026-05-11 17:53:17.621,4,0.97,-2.13,0.87,-3.4505999999999997,79.2144,-21.6942,175,75
2026-05-11 17:53:17.636,4,0.85,-2.12,0.93,-11.0806,207.6944,6.175800000000002,175,75
2026-05-11 17:53:17.649,4,1.22,-2.11,1.77,0.3893999999999984,291.0444,57.395799999999994,175,75
2026-05-11 17:53:17.649,4,1.44,-2.13,2.26,-6.7506,200.13440000000003,55.0758,175,75
2026-05-11 17:53:17.661,4,1.53,-2.02,2.5,-20.5306,63.6644,36.5358,175,75
2026-05-11 17:53:17.672,4,1.26,-1.52,2.04,-15.220600000000001,-115.4756,10.3858,175,75
2026-05-11 17:53:17.683,4,1.12,-1.3,1.79,-6.4406,-113.6456,6.055800000000001,175,75
2026-05-11 17:53:17.687,4,1.07,-1.04,1.73,-3.2706,-88.1056,5.3858,175,75
2026-05-11 17:53:17.702,4,1.01,-0.85,1.72,0.2093999999999987,-72.6156,2.695800000000002,175,75
2026-05-11 17:53:17.721,4,0.85,-0.98,1.7,5.689399999999999,-72.9156,2.695800000000002,175,75
2026-05-11 17:53:17.780,4,0.62,-0.56,1.91,-9.0606,-84.3856,10.805800000000001,175,75
2026-05-11 17:53:17.794,4,0.59,-0.27,1.94,-2.3606,-127.6756,-4.924199999999999,175,75
2026-05-11 17:53:17.851,4,0.56,-0.23,1.85,3.859400000000001,-142.4356,-19.6142,175,75
2026-05-11 17:53:17.851,4,0.49,-0.23,1.72,13.249400000000001,-130.2356,-30.3542,175,75
2026-05-11 17:53:17.851,4,0.47,-0.23,1.58,20.8794,-109.8056,-39.3742,175,75
2026-05-11 17:53:17.862,4,0.39,-0.24,1.38,26.969399999999997,-73.2856,-50.474199999999996,175,75
2026-05-11 17:53:17.862,4,0.29,-0.25,1.2,27.6394,-31.7556,-55.474199999999996,175,75
2026-05-11 17:53:17.862,4,0.07,-0.21,1.06,16.4194,43.0544,-54.3142,175,75
2026-05-11 17:53:17.873,4,-0.13,-0.25,1.09,-1.6905999999999999,166.89440000000002,-39.9242,175,75
2026-05-11 17:53:17.883,4,-0.18,-0.34,1.29,-10.7706,243.36440000000002,-23.8842,175,75
2026-05-11 17:53:17.895,4,-0.1,-0.46,1.56,-13.6406,286.8344,-6.084199999999999,175,75
2026-05-11 17:53:17.916,4,0.05,-0.6,1.86,-13.2106,286.7744,8.425800000000002,175,75
2026-05-11 17:53:17.948,4,1.08,-1.37,1.5,-49.120599999999996,-85.2956,-74.4342,175,75
2026-05-11 17:53:17.958,4,1.11,-1.53,1.38,-47.5406,-9.2556,-72.7242,175,75
2026-05-11 17:53:17.973,4,1.65,-1.41,1.81,-29.1906,48.5444,-65.1642,175,75
2026-05-11 17:53:17.991,4,1.39,-1.6,1.49,-36.6906,-96.1456,-86.8142,175,75
2026-05-11 17:53:18.016,4,0.88,-1.52,1.62,-24.0006,152.4444,-14.924199999999999,175,75
2026-05-11 17:53:18.039,4,0.87,-1.81,2.22,-13.3306,25.8044,23.915800000000004,175,75
2026-05-11 17:53:18.049,4,0.8,-1.61,2.24,-19.9206,-60.4756,35.1958,175,75
2026-05-11 17:53:18.061,4,0.78,-1.33,2.21,-14.8606,-123.4656,41.415800000000004,175,75
2026-05-11 17:53:18.074,4,0.79,-1.24,2.17,-2.5405999999999995,-167.61559999999997,39.8358,175,75
2026-05-11 17:53:18.085,4,0.69,-1.22,2.11,12.3994,-215.17559999999997,29.705800000000004,175,75
2026-05-11 17:53:18.097,4,0.49,-1.17,2.05,23.799400000000002,-232.85559999999998,20.805799999999998,175,75
2026-05-11 17:53:18.097,4,0.37,-0.97,1.97,34.049400000000006,-229.86559999999997,19.105800000000002,175,75
2026-05-11 17:53:18.109,4,0.55,-0.57,1.82,42.4594,-221.63559999999998,23.245800000000003,175,75
2026-05-11 17:53:18.124,4,0.51,-0.1,1.59,42.3394,-207.0056,20.625799999999998,175,75
2026-05-11 17:53:18.148,4,0.39,0.45,1.24,50.689400000000006,-68.5256,31.1158,175,75
2026-05-11 17:53:18.163,4,0.58,0.23,1.24,78.9894,32.4444,43.5558,175,75
2026-05-11 17:53:18.173,4,0.63,0.08,1.42,65.6294,73.6044,32.0858,175,75
2026-05-11 17:53:18.174,4,0.61,0.02,1.54,29.9594,89.9444,8.6158,175,75
2026-05-11 17:53:18.189,4,0.63,-0.11,1.61,19.229400000000002,90.3144,-5.294199999999998,175,75
2026-05-11 17:53:18.200,4,0.75,-0.19,1.69,17.9494,70.2544,-13.7042,175,75
2026-05-11 17:53:18.212,4,0.86,-0.23,1.71,17.9494,40.4344,-21.0242,175,75
2026-05-11 17:53:18.235,4,1.18,-0.56,1.4,9.1094,-32.9156,-28.644199999999998,175,75
2026-05-11 17:53:18.245,4,1.46,-0.73,1.08,3.679400000000001,-56.3356,-45.044200000000004,175,75
2026-05-11 17:53:18.256,4,1.51,-0.95,0.88,-3.4505999999999997,-49.8056,-66.63419999999999,175,75
2026-05-11 17:53:18.278,4,1.1,-1.93,1.46,-6.6906,151.7144,-78.1542,175,75
2026-05-11 17:53:18.304,4,1.33,-2.13,1.77,-44.3106,58.6644,-98.8242,175,75
2026-05-11 17:53:18.314,4,1.44,-1.72,1.76,-35.5306,-4.015599999999999,-97.1842,175,75
2026-05-11 17:53:18.354,4,0.37,-1.83,1.23,-49.0006,32.2644,-43.8842,175,75
2026-05-11 17:53:18.385,4,0.58,-1.53,1.84,-14.8606,74.2744,36.2358,175,75
2026-05-11 17:53:18.392,4,0.68,-1.33,2.15,-10.7106,30.4944,62.815799999999996,175,75
2026-05-11 17:53:18.410,4,0.8,-1.22,2.28,-2.4206000000000003,-40.9056,72.6358,175,75
2026-05-11 17:53:18.410,4,0.83,-1.23,2.24,9.839400000000001,-123.9556,63.305800000000005,175,75
2026-05-11 17:53:18.432,4,0.73,-1.07,1.86,14.719399999999997,-232.4956,37.3958,175,75
2026-05-11 17:53:18.487,4,0.49,-0.09,0.99,33.5594,68.1744,36.5358,175,75
2026-05-11 17:53:18.491,4,0.47,-0.22,1.25,33.439400000000006,134.5244,38.4258,175,75
2026-05-11 17:53:18.517,4,0.4,-0.3,1.73,-15.4006,113.1144,13.125800000000002,175,75
2026-05-11 17:53:18.535,4,0.37,-0.28,1.78,-24.3106,85.9844,4.645800000000001,175,75
2026-05-11 17:53:18.556,4,0.34,-0.26,1.81,-31.6906,28.974400000000003,-4.3142,175,75
2026-05-11 17:53:18.556,4,0.34,-0.26,1.8,-36.5606,4.944400000000001,-7.1141999999999985,175,75
2026-05-11 17:53:18.571,4,0.37,-0.27,1.79,-43.1506,-15.415599999999998,-8.944199999999999,175,75
2026-05-11 17:53:18.591,4,0.51,-0.33,1.7,-54.060599999999994,-41.7556,-15.2942,175,75
2026-05-11 17:53:18.611,4,0.7,-0.6,1.58,-55.340599999999995,-43.5256,-36.3842,175,75
2026-05-11 17:53:18.625,4,0.81,-0.76,1.52,-55.7706,-38.105599999999995,-46.7542,175,75
2026-05-11 17:53:18.698,4,1.31,-1.01,1.55,-22.0506,10.674399999999999,-20.414199999999997,175,75
2026-05-11 17:53:18.727,4,1.31,-1.12,1.51,-14.5506,-9.1356,-21.6942,175,75
2026-05-11 17:53:18.728,4,1.12,-1.37,1.4,-16.5606,-3.835599999999999,-19.6842,175,75
2026-05-11 17:53:18.759,4,1.07,-1.24,1.45,-19.5506,20.8044,-9.3142,175,75
2026-05-11 17:53:18.770,4,1.13,-1.34,1.38,28.189400000000003,20.3744,49.035799999999995,175,75
2026-05-11 17:53:18.781,4,1.2,-1.38,1.35,47.7094,32.3844,70.0158,175,75
2026-05-11 17:53:18.811,4,1.17,-1.36,1.34,65.6894,37.5644,69.7058,175,75
2026-05-11 17:53:18.832,4,1.06,-1.15,1.5,52.27940000000001,65.8644,57.025800000000004,175,75
2026-05-11 17:53:18.848,4,0.87,-0.94,1.64,41.7894,47.2044,46.3558,175,75
2026-05-11 17:53:18.863,4,0.73,-0.97,1.67,36.419399999999996,32.9944,45.6858,175,75
2026-05-11 17:53:18.877,4,0.64,-0.89,1.74,25.6294,23.6644,47.75580000000001,175,75
2026-05-11 17:53:18.887,4,0.54,-0.77,1.83,21.119400000000002,10.8644,49.4058,175,75
2026-05-11 17:53:18.912,4,0.59,-0.58,1.91,28.5594,-139.2556,20.8658,175,75
2026-05-11 17:53:18.933,4,0.48,-0.5,1.45,12.709399999999999,-163.64559999999997,-4.254199999999999,175,75
2026-05-11 17:53:18.946,4,0.43,-0.45,1.2,0.6294000000000004,-113.7156,-12.424199999999999,175,75
2026-05-11 17:53:18.965,4,0.41,-0.38,1.08,-5.1006,-30.5456,-11.5742,175,75
2026-05-11 17:53:18.972,4,0.45,-0.31,1.18,-5.400600000000001,80.5544,-8.764199999999999,175,75
2026-05-11 17:53:18.972,4,0.54,-0.34,1.36,-10.1006,122.8744,-9.5542,175,75
2026-05-11 17:53:19.024,4,0.72,-0.64,1.68,-40.6506,104.3944,-24.254199999999997,175,75
2026-05-11 17:53:19.024,4,0.79,-0.74,1.76,-46.080600000000004,96.1044,-29.004199999999997,175,75
2026-05-11 17:53:19.042,4,0.98,-0.79,1.93,-44.1906,79.6444,-31.6342,175,75
2026-05-11 17:53:19.053,4,1.17,-0.85,2.03,-38.7006,39.2744,-35.7742,175,75
2026-05-11 17:53:19.053,4,1.26,-1.02,2.05,-37.6606,-25.9056,-42.1142,175,75
2026-05-11 17:53:19.071,4,1.38,-1.19,1.59,-47.6606,-108.9556,-50.8942,175,75
2026-05-11 17:53:19.096,4,1.46,-0.89,1.19,-11.6906,3.854400000000001,-38.334199999999996,175,75
2026-05-11 17:53:19.107,4,1.27,-1.32,1.32,22.2794,93.1144,-36.934200000000004,175,75
2026-05-11 17:53:19.118,4,1.02,-1.29,1.55,11.4194,111.8944,-28.4042,175,75
2026-05-11 17:53:19.130,4,0.97,-1.14,1.69,5.749400000000001,105.1344,-7.4841999999999995,175,75
2026-05-11 17:53:19.145,4,0.93,-1.18,1.74,14.1094,81.2844,19.705800000000004,175,75
2026-05-11 17:53:19.168,4,1.07,-1.26,1.86,37.7094,21.8944,73.9758,175,75
2026-05-11 17:53:19.188,4,1.25,-1.19,1.87,44.169399999999996,-109.1956,58.00580000000001,175,75
2026-05-11 17:53:19.201,4,1.29,-1.12,1.66,43.499399999999994,-152.85559999999998,41.665800000000004,175,75
2026-05-11 17:53:19.211,4,1.28,-1.09,1.35,41.7294,-169.5656,23.305799999999998,175,75
2026-05-11 17:53:19.226,4,1.21,-0.86,0.97,29.5294,-121.8256,7.8858,175,75
2026-05-11 17:53:19.238,4,1.2,-0.57,0.86,26.789399999999997,-20.7856,3.6158,175,75
2026-05-11 17:53:19.248,4,1.29,-0.38,0.98,33.859399999999994,63.9744,1.5358000000000018,175,75
2026-05-11 17:53:19.262,4,1.42,-0.36,1.28,31.969399999999997,94.2744,-9.864199999999999,175,75
2026-05-11 17:53:19.273,4,1.5,-0.39,1.38,14.839400000000001,66.5344,-28.5842,175,75
2026-05-11 17:53:19.273,4,1.53,-0.56,1.34,-12.720600000000001,21.7144,-59.9242,175,75
2026-05-11 17:53:19.294,4,1.55,-0.76,1.21,-27.660600000000002,11.714400000000001,-87.4842,175,75
2026-05-11 17:53:19.305,4,1.65,-1.04,1.12,-39.0606,14.764399999999998,-117.7942,175,75
2026-05-11 17:53:19.312,4,1.73,-1.15,1.07,-59.5506,10.8644,-142.30419999999998,175,75
2026-05-11 17:53:19.327,4,1.8,-1.09,0.92,-75.9506,11.4144,-161.87419999999997,175,75
2026-05-11 17:53:19.358,4,2.14,-1.4,0.44,-102.6006,42.5044,-211.26420000000002,175,75
2026-05-11 17:53:19.369,4,2.05,-1.72,0.45,-103.4506,130.55440000000002,-236.26420000000002,175,75
2026-05-11 17:53:19.390,4,1.96,-2.24,1.47,-110.7106,144.33440000000002,-291.44419999999997,175,75
2026-05-11 17:53:19.404,4,1.81,-2.29,1.51,-117.72059999999999,19.9444,-310.1042,175,75
2026-05-11 17:53:19.416,4,1.68,-2.09,1.35,-125.7106,-69.5656,-315.8342,175,75
2026-05-11 17:53:19.426,4,1.6,-1.85,1.13,-125.0406,-108.6456,-310.1642,175,75
2026-05-11 17:53:19.438,4,1.35,-1.81,0.86,-120.7106,-122.5556,-307.0542,175,75
2026-05-11 17:53:19.447,4,0.8,-1.7,0.69,-120.0406,-76.8856,-291.9342,175,75
2026-05-11 17:53:19.468,4,0.51,-0.43,1.59,-133.4506,31.3544,-218.6442,175,75
2026-05-11 17:53:19.479,4,0.59,0.13,2.18,-130.10060000000001,-27.0056,-190.8342,175,75
2026-05-11 17:53:19.490,4,0.57,0.33,2.54,-119.6706,-197.91559999999998,-157.6642,175,75
2026-05-11 17:53:19.504,4,0.46,0.04,2.29,-121.2606,-345.1156,-142.36419999999998,175,75
2026-05-11 17:53:19.514,4,0.38,-0.15,1.79,-130.7106,-399.8656,-133.4642,175,75
2026-05-11 17:53:19.581,4,0.25,-0.1,1.32,-125.9506,-355.4756,-114.3142,175,75
2026-05-11 17:53:19.608,4,-0.04,0.12,0.98,-94.4306,-85.4156,-62.1142,175,75
2026-05-11 17:53:19.619,4,-0.14,0.13,1.1,-79.7306,86.2244,-36.3242,175,75
2026-05-11 17:53:19.619,4,-0.08,0.01,1.43,-63.700599999999994,212.08440000000002,-18.7642,175,75
2026-05-11 17:53:19.630,4,-0.02,-0.12,1.84,-58.8806,260.8644,-11.0842,175,75
2026-05-11 17:53:19.637,4,-0.11,-0.18,2.11,-59.1906,244.33440000000002,-7.3641999999999985,175,75
2026-05-11 17:53:19.652,4,-0.14,-0.28,2.33,-56.810599999999994,196.83440000000002,-10.774199999999999,175,75
2026-05-11 17:53:19.731,4,0.04,-0.59,2.13,-97.4806,-83.5856,-52.5442,175,75
2026-05-11 17:53:19.742,4,-0.14,-0.38,1.84,-110.7106,-59.9356,-37.974199999999996,175,75
2026-05-11 17:53:19.754,4,-0.07,-0.42,1.9,-100.7106,-27.4956,-31.754199999999997,175,75
2026-05-11 17:53:19.754,4,0.02,-0.55,1.93,-96.0106,-24.0156,-31.2642,175,75
2026-05-11 17:53:19.772,4,0.07,-0.58,1.82,-100.89059999999999,-20.6056,-36.3242,175,75
2026-05-11 17:53:19.806,4,0.37,-0.4,1.98,-120.0406,-211.0856,-72.1142,175,75
2026-05-11 17:53:19.817,4,0.44,0.63,1.7,-137.5406,-286.6956,-65.1642,175,75
2026-05-11 17:53:19.841,4,0.6,1.41,1.19,-94.1206,-173.4656,-0.16419999999999746,175,75
2026-05-11 17:53:19.852,4,0.74,1.39,1.27,-88.2106,-104.4456,20.0758,175,75
2026-05-11 17:53:19.862,4,1.05,1.59,1.44,-84.25059999999999,-78.5856,28.915800000000004,175,75
2026-05-11 17:53:19.862,4,1.14,1.88,1.44,-77.5406,-96.2156,30.0758,175,75
2026-05-11 17:53:19.874,4,1.04,2.3,1.36,-78.0306,-101.7556,31.055799999999998,175,75
2026-05-11 17:53:19.886,4,0.91,2.71,1.3,-80.4706,-79.5656,42.4558,175,75
2026-05-11 17:53:19.898,4,1.05,2.45,1.33,-60.4006,-58.4056,69.0358,175,75
2026-05-11 17:53:19.907,4,1.35,1.72,1.35,-41.9906,-85.1156,84.4058,175,75
2026-05-11 17:53:19.907,4,1.6,1.42,1.28,-28.0306,-118.5256,84.0358,175,75
2026-05-11 17:53:19.920,4,1.78,1.01,0.97,-8.5806,-152.67559999999997,65.5658,175,75
2026-05-11 17:53:19.931,4,1.67,0.75,0.69,2.0993999999999993,-141.7556,51.11580000000001,175,75
2026-05-11 17:53:19.938,4,1.49,0.48,0.45,17.399399999999996,-85.6656,38.5558,175,75
2026-05-11 17:53:19.948,4,1.4,0.29,0.4,28.3794,-37.5556,37.7558,175,75
2026-05-11 17:53:19.961,4,1.36,0.25,0.55,32.639399999999995,-7.185599999999999,34.775800000000004,175,75
2026-05-11 17:53:20.001,4,1.13,-0.09,0.94,-7.2905999999999995,-96.4556,-25.9042,175,75
2026-05-11 17:53:20.001,4,0.86,-0.03,0.86,-26.5006,-100.9656,-38.8842,175,75
2026-05-11 17:53:20.014,4,0.64,-0.04,0.78,-40.590599999999995,-93.4656,-40.414199999999994,175,75
2026-05-11 17:53:20.025,4,0.37,-0.14,0.84,-52.720600000000005,-71.3956,-26.504199999999997,175,75
2026-05-11 17:53:20.046,4,0.19,-0.14,1.03,-67.4806,-46.3356,-9.004199999999999,175,75
2026-05-11 17:53:20.090,4,0.16,-0.47,1.7,-105.9506,-148.2856,44.2258,175,75
2026-05-11 17:53:20.101,4,0.14,-0.63,1.53,-104.3106,-152.61559999999997,42.7558,175,75
2026-05-11 17:53:20.116,4,0.11,-0.66,1.45,-101.4406,-137.1856,41.0558,175,75
2026-05-11 17:53:20.130,4,0.12,-0.56,1.41,-98.7606,-111.7556,40.3858,175,75
2026-05-11 17:53:20.130,4,0.15,-0.48,1.41,-97.2906,-100.6656,38.9758,175,75
2026-05-11 17:53:20.155,4,0.11,-0.58,1.49,-114.3106,-106.3356,37.7558,175,75
2026-05-11 17:53:20.167,4,0.13,-0.57,1.56,-131.7506,-123.9556,36.2958,175,75
2026-05-11 17:53:20.178,4,0.16,-0.53,1.57,-148.2706,-151.45559999999998,33.0658,175,75
2026-05-11 17:53:20.191,4,0.22,-0.49,1.52,-161.50060000000002,-176.82559999999998,31.665800000000004,175,75
2026-05-11 17:53:20.191,4,0.26,-0.45,1.35,-173.5806,-199.19559999999998,31.605800000000002,175,75
2026-05-11 17:53:20.200,4,0.28,-0.41,1.18,-176.0806,-196.0856,36.3558,175,75
2026-05-11 17:53:20.214,4,0.31,-0.35,1.07,-169.37060000000002,-155.66559999999998,42.8858,175,75
2026-05-11 17:53:20.236,4,0.4,-0.19,1.06,-160.6506,-124.0756,44.2858,175,75
2026-05-11 17:53:20.247,4,0.4,0.18,1.1,-146.9906,-100.7856,46.785799999999995,175,75
2026-05-11 17:53:20.247,4,0.35,0.8,1.17,-135.10060000000001,-72.3656,53.675799999999995,175,75
2026-05-11 17:53:20.257,4,0.46,1.64,1.25,-127.2306,-64.5056,64.2858,175,75
2026-05-11 17:53:20.290,4,0.42,1.33,1.08,-96.6906,-77.0656,76.6658,175,75
2026-05-11 17:53:20.309,4,0.44,2.12,1.45,-94.9806,-15.1756,95.3158,175,75
2026-05-11 17:53:20.320,4,0.5,1.85,1.51,-84.3106,-30.2356,101.6658,175,75
2026-05-11 17:53:20.340,4,0.57,1.52,1.4,-73.8806,-64.01559999999999,102.5158,175,75
2026-05-11 17:53:20.340,4,0.65,1.17,1.32,-49.370599999999996,-79.3256,104.4058,175,75
2026-05-11 17:53:20.351,4,0.65,0.67,1.31,-24.610599999999998,-92.3056,102.0258,175,75
2026-05-11 17:53:20.362,4,0.63,0.15,1.23,-13.700600000000001,-116.1456,93.4258,175,75
2026-05-11 17:53:20.375,4,0.56,-0.34,1.05,-14.7906,-143.64559999999997,79.4658,175,75
2026-05-11 17:53:20.386,4,0.46,-0.73,0.88,-18.2106,-149.6256,66.2358,175,75
2026-05-11 17:53:20.390,4,0.29,-1.07,0.83,-15.5306,-123.7156,55.565799999999996,175,75
2026-05-11 17:53:20.401,4,0.22,-1.12,0.89,-14.6106,-77.6156,50.805800000000005,175,75
2026-05-11 17:53:20.413,4,0.19,-0.8,1.09,-28.7606,-91.1456,52.815799999999996,175,75
2026-05-11 17:53:20.422,4,0.28,-0.58,1.19,-51.9306,-157.0056,53.915800000000004,175,75
2026-05-11 17:53:20.445,4,0.32,-0.46,1.14,-80.1006,-268.2856,55.315799999999996,175,75
2026-05-11 17:53:20.456,4,0.21,-0.38,0.78,-120.3406,-345.2956,70.7458,175,75
2026-05-11 17:53:20.466,4,0.2,-0.38,0.41,-135.2206,-340.1756,91.9058,175,75
2026-05-11 17:53:20.500,4,0.5,0.49,0.32,-140.2806,-90.2356,146.5358,175,75
2026-05-11 17:53:20.513,4,0.74,0.74,0.29,-139.9806,-53.4656,155.62580000000003,175,75
2026-05-11 17:53:20.525,4,0.9,0.29,0.24,-130.16060000000002,-55.9656,156.17579999999998,175,75
2026-05-11 17:53:20.536,4,0.98,0.27,0.28,-113.39059999999999,-30.0556,159.6458,175,75
2026-05-11 17:53:20.547,4,1.35,0.5,0.52,-92.36059999999999,-18.7756,156.6658,175,75
2026-05-11 17:53:20.608,4,1.4,0.94,1.5,9.1094,87.6344,81.2958,175,75
2026-05-11 17:53:20.634,4,1.18,0.34,1.1,18.499399999999998,-236.63559999999998,17.635800000000003,175,75
2026-05-11 17:53:20.651,4,0.85,0.56,0.8,26.609399999999997,-159.86559999999997,30.0758,175,75
2026-05-11 17:53:20.660,4,0.82,0.69,0.79,28.619400000000002,-41.3956,50.1358,175,75
2026-05-11 17:53:20.671,4,0.82,0.33,1.01,18.439400000000003,39.0344,59.035799999999995,175,75
2026-05-11 17:53:20.686,4,0.74,0.08,1.19,3.0093999999999994,80.0644,57.695800000000006,175,75
2026-05-11 17:53:20.728,4,0.67,-0.12,1.31,-12.3606,109.0344,53.8558,175,75
2026-05-11 17:53:20.741,4,0.49,-0.34,1.42,-31.5606,146.95440000000002,46.415800000000004,175,75
2026-05-11 17:53:20.755,4,0.28,-0.45,1.6,-47.110600000000005,194.70440000000002,42.275800000000004,175,75
2026-05-11 17:53:20.755,4,0.18,-0.46,1.8,-55.1006,213.7244,38.5558,175,75
2026-05-11 17:53:20.776,4,0.18,-0.46,2.28,-76.9906,127.32440000000001,15.805799999999998,175,75
2026-05-11 17:53:20.787,4,0.2,-0.43,2.46,-96.3806,-64.1956,-9.3142,175,75
2026-05-11 17:53:20.817,4,0.14,-0.37,2.26,-119.3106,-244.86559999999997,-27.8542,175,75
2026-05-11 17:53:20.854,4,0.01,-0.37,1.43,-140.8906,-316.75559999999996,-19.9242,175,75
2026-05-11 17:53:20.854,4,0.06,-0.42,1.25,-145.16060000000002,-277.9156,-9.614199999999999,175,75
2026-05-11 17:53:20.877,4,0.31,-0.54,1.18,-152.4806,-223.89559999999997,-4.004199999999999,175,75
2026-05-11 17:53:20.894,4,0.33,-0.38,1.12,-159.7306,-196.51559999999998,-4.744199999999999,175,75
2026-05-11 17:53:20.904,4,0.27,-0.13,1.07,-164.00060000000002,-159.5656,-3.1541999999999994,175,75
2026-05-11 17:53:20.904,4,0.21,0.27,1.09,-166.0806,-113.8356,3.855800000000002,175,75
2026-05-11 17:53:20.917,4,0.12,1.17,1.28,-173.8206,-55.6656,17.205800000000004,175,75
2026-05-11 17:53:20.928,4,0.2,2.07,1.54,-179.5506,-50.1156,28.1858,175,75
2026-05-11 17:53:20.928,4,0.3,1.88,1.64,-157.3606,-85.3556,37.3958,175,75
2026-05-11 17:53:20.939,4,0.33,2.06,1.79,-153.7606,-120.3556,45.3158,175,75
2026-05-11 17:53:20.951,4,0.46,2.21,1.82,-159.9806,-173.4056,45.4458,175,75
2026-05-11 17:53:20.970,4,0.24,2.46,1.62,-131.1406,-200.0556,65.5658,175,75
2026-05-11 17:53:20.998,4,0.56,2.09,1.31,-63.090599999999995,-182.0056,115.56580000000001,175,75
2026-05-11 17:53:21.010,4,1.19,1.11,0.68,31.4894,-189.7456,124.83579999999999,175,75
2026-05-11 17:53:21.031,4,1.18,0.73,0.27,51.66940000000001,-139.5656,102.8858,175,75
2026-05-11 17:53:21.044,4,0.64,0.28,0.12,53.5594,26.7744,68.1858,175,75
2026-05-11 17:53:21.065,4,0.72,0.07,0.48,60.07940000000001,92.7544,68.9758,175,75
2026-05-11 17:53:21.077,4,1.07,-0.18,0.9,53.6194,51.2244,54.285799999999995,175,75
2026-05-11 17:53:21.087,4,1.21,-0.01,1.19,12.8294,-79.6256,23.855800000000002,175,75
2026-05-11 17:53:21.101,4,1.07,0.27,1.1,-15.9506,-179.8056,6.2958,175,75
2026-05-11 17:53:21.108,4,0.75,0.3,0.85,-31.8706,-223.2856,3.3658,175,75
2026-05-11 17:53:21.125,4,0.42,0.22,0.61,-35.340599999999995,-188.89559999999997,18.1858,175,75
2026-05-11 17:53:21.136,4,0.2,0.08,0.61,-36.9306,-77.6156,44.4058,175,75
2026-05-11 17:53:21.136,4,0.27,0.04,0.84,-31.6906,9.034400000000002,65.8058,175,75
2026-05-11 17:53:21.152,4,0.39,-0.04,1.17,-29.980600000000003,56.1644,79.8358,175,75
2026-05-11 17:53:21.165,4,0.46,-0.14,1.4,-28.6406,54.6444,82.6358,175,75
2026-05-11 17:53:21.189,4,0.39,-0.35,1.5,-29.4906,-1.275599999999999,77.4558,175,75
2026-05-11 17:53:21.269,4,0.38,-0.54,1.38,-34.860600000000005,-40.8456,68.3058,175,75
2026-05-11 17:53:21.278,4,0.38,-0.57,1.37,-42.2906,-31.6356,60.565799999999996,175,75
2026-05-11 17:53:21.344,4,0.45,-0.43,1.59,-54.610600000000005,-16.3356,48.8558,175,75
2026-05-11 17:53:21.358,4,0.47,-0.39,1.73,-67.1706,-36.0256,40.1958,175,75
2026-05-11 17:53:21.369,4,0.5,-0.38,1.78,-78.8806,-72.3656,32.275800000000004,175,75
2026-05-11 17:53:21.369,4,0.48,-0.41,1.72,-91.6206,-125.7256,23.6158,175,75
2026-05-11 17:53:21.396,4,0.29,-0.38,1.43,-111.9906,-166.57559999999998,14.645800000000001,175,75
2026-05-11 17:53:21.406,4,0.25,-0.19,1.22,-115.9506,-125.7256,17.275800000000004,175,75
2026-05-11 17:53:21.425,4,0.36,1.59,1.49,-111.6206,-166.0856,34.2258,175,75
2026-05-11 17:53:21.434,4,0.3,1.87,1.26,-110.7106,-221.0256,35.2558,175,75
2026-05-11 17:53:21.437,4,0.11,2.14,1.03,-109.9806,-210.29559999999998,45.9958,175,75
2026-05-11 17:53:21.448,4,0.04,2.35,0.82,-96.5606,-145.9656,68.61580000000001,175,75
2026-05-11 17:53:21.504,4,-0.03,1.87,0.8,-60.7106,7.204400000000001,120.56580000000001,175,75
2026-05-11 17:53:21.514,4,0.25,1.34,0.95,-39.0006,6.284400000000001,140.68580000000003,175,75
2026-05-11 17:53:21.517,4,0.56,0.55,1.01,-37.720600000000005,-50.4756,139.0358,175,75
2026-05-11 17:53:21.535,4,0.68,-0.06,0.94,-43.8206,-111.8256,119.09580000000001,175,75
2026-05-11 17:53:21.572,4,0.13,-1.19,0.67,-109.1906,-114.7456,48.36580000000001,175,75
2026-05-11 17:53:21.583,4,0.15,-0.8,0.85,-114.9806,-71.7556,63.8558,175,75
2026-05-11 17:53:21.595,4,0.18,-0.53,1.15,-119.00059999999999,-73.8956,80.9258,175,75
2026-05-11 17:53:21.596,4,0.2,-0.51,1.36,-125.83059999999999,-102.7956,95.3158,175,75
2026-05-11 17:53:21.619,4,0.22,-0.49,1.51,-137.9706,-183.95559999999998,119.09580000000001,175,75
2026-05-11 17:53:21.637,4,0.34,-0.53,1.43,-146.0106,-226.7556,124.8958,175,75
2026-05-11 17:53:21.651,4,0.51,-0.29,1.29,-158.7606,-242.91559999999998,126.6658,175,75
2026-05-11 17:53:21.658,4,0.78,0.18,1.1,-168.09060000000002,-260.4756,121.6658,175,75
2026-05-11 17:53:21.683,4,0.91,0.55,0.32,-123.2706,-228.64559999999997,109.4058,175,75
2026-05-11 17:53:21.695,4,0.96,0.69,0.27,-111.9906,-180.7856,113.18580000000001,175,75
2026-05-11 17:53:21.695,4,1.24,0.98,0.32,-108.33059999999999,-134.38559999999998,114.6458,175,75
2026-05-11 17:53:21.709,4,1.48,0.9,0.39,-105.47059999999999,-123.2856,105.0158,175,75
2026-05-11 17:53:21.721,4,1.52,0.66,0.4,-109.25059999999999,-115.8456,88.61580000000001,175,75
2026-05-11 17:53:21.731,4,1.32,1.42,0.62,-93.0906,7.754400000000001,68.5558,175,75
2026-05-11 17:53:21.754,4,1.35,1.49,0.92,-64.9806,33.9144,61.2358,175,75
2026-05-11 17:53:21.754,4,1.39,1.07,1.26,-30.040599999999998,2.694400000000001,47.945800000000006,175,75
2026-05-11 17:53:21.773,4,1.32,0.88,1.48,-10.1006,-62.0056,32.4558,175,75
2026-05-11 17:53:21.774,4,1.26,0.69,1.52,2.0993999999999993,-110.6056,22.815800000000003,175,75
2026-05-11 17:53:21.784,4,1.11,0.39,1.42,16.789399999999997,-152.4356,15.5058,175,75
2026-05-11 17:53:21.795,4,0.82,0.15,1.23,23.9194,-134.07559999999998,13.425800000000002,175,75
2026-05-11 17:53:21.808,4,0.62,0.18,1.18,23.009400000000003,-71.5756,18.305799999999998,175,75
2026-05-11 17:53:21.821,4,0.48,0.31,1.26,25.689400000000003,11.7744,30.4458,175,75
