Time,ID,Ax,Ay,Az,Gx,Gy,Gz,Height,Weight
2026-05-09 15:10:57.997,4,0.33,0.13,0.87,-40.32,-22.821599999999997,-39.316,175,75
2026-05-09 15:10:58.015,4,0.32,0.13,0.85,-40.87,-15.991599999999998,-41.016,175,75
2026-05-09 15:10:58.027,4,0.33,0.14,0.85,-41.6,-9.461599999999997,-42.296,175,75
2026-05-09 15:10:58.027,4,0.33,0.15,0.85,-42.46,-3.7316000000000003,-42.966,175,75
2026-05-09 15:10:58.068,4,0.33,0.16,0.85,-42.7,-0.38159999999999883,-43.096000000000004,175,75
2026-05-09 15:10:58.068,4,0.31,0.17,0.85,-42.46,1.1484000000000023,-43.646,175,75
2026-05-09 15:10:58.090,4,0.19,0.25,0.89,-40.63,6.208400000000005,-35.046,175,75
2026-05-09 15:10:58.132,4,0.05,0.26,0.89,-28.189999999999998,-13.061599999999999,-12.486,175,75
2026-05-09 15:10:58.144,4,0.03,0.26,0.91,-24.590000000000003,-13.9116,-7.236000000000001,175,75
2026-05-09 15:10:58.169,4,-0.05,0.25,0.93,-14.04,-20.5016,10.994,175,75
2026-05-09 15:10:58.169,4,-0.09,0.23,0.94,-9.71,-22.211599999999997,16.723999999999997,175,75
2026-05-09 15:10:58.196,4,-0.26,0.21,1.09,17.24,-24.2216,38.494,175,75
2026-05-09 15:10:58.237,4,-0.59,-0.06,1.31,78.34,-27.6316,78.494,175,75
2026-05-09 15:10:58.269,4,-0.45,-0.16,1.33,102.36,0.7784000000000049,95.624,175,75
2026-05-09 15:10:58.329,4,-0.45,-0.15,1.39,117.73,23.038400000000003,106.844,175,75
2026-05-09 15:10:58.336,4,-0.49,-0.13,1.47,122.42,33.2784,116.29400000000001,175,75
2026-05-09 15:10:58.351,4,-0.54,-0.11,1.54,125.29,42.7284,126.54400000000001,175,75
2026-05-09 15:10:58.375,4,-0.57,-0.14,1.61,128.4,52.9184,138.554,175,75
2026-05-09 15:10:58.395,4,-0.52,-0.28,1.74,136.75,72.54840000000002,159.774,175,75
2026-05-09 15:10:58.408,4,-0.44,-0.4,1.82,143.7,80.41839999999999,168.184,175,75
2026-05-09 15:10:58.478,4,-0.3,-0.69,1.8,151.81,26.7584,163.79399999999998,175,75
2026-05-09 15:10:58.489,4,-0.38,-0.72,1.78,159.62,9.3784,165.20399999999998,175,75
2026-05-09 15:10:58.525,4,-0.47,-1.04,1.7,179.37,23.768400000000007,184.10399999999998,175,75
2026-05-09 15:10:58.525,4,-0.39,-1.2,1.68,196.2,22.788400000000003,195.07399999999998,175,75
2026-05-09 15:10:58.537,4,-0.4,-1.32,1.75,207.42000000000002,3.1584000000000003,194.95399999999998,175,75
2026-05-09 15:10:58.551,4,-0.5,-1.32,1.92,189.74,-48.361599999999996,149.164,175,75
2026-05-09 15:10:58.580,4,-0.22,-1.28,1.6,170.89999999999998,-62.081599999999995,143.374,175,75
2026-05-09 15:10:58.592,4,-0.21,-1.45,1.5,180.41000000000003,-56.9616,144.164,175,75
2026-05-09 15:10:58.603,4,-0.09,-1.44,1.53,161.69,-61.721599999999995,103.98400000000001,175,75
2026-05-09 15:10:58.607,4,-0.07,-1.14,1.56,153.14999999999998,-105.6216,82.94399999999999,175,75
2026-05-09 15:10:58.630,4,-0.08,-1.05,1.52,151.39,-129.1016,69.22399999999999,175,75
2026-05-09 15:10:58.630,4,-0.06,-0.97,1.5,147.79000000000002,-148.3016,52.824,175,75
2026-05-09 15:10:58.689,4,-0.09,-0.16,1.06,116.51,-218.85160000000002,-24.676000000000002,175,75
2026-05-09 15:10:58.712,4,-0.16,0.07,0.86,90.29,-204.8916,-39.676,175,75
2026-05-09 15:10:58.741,4,-0.18,0.14,0.78,75.17,-194.5216,-45.166000000000004,175,75
2026-05-09 15:10:58.762,4,-0.24,0.67,0.88,3.3999999999999986,-136.8416,-52.176,175,75
2026-05-09 15:10:58.785,4,-0.28,0.83,0.99,-9.650000000000002,-145.9216,-53.646,175,75
2026-05-09 15:10:58.797,4,-0.33,0.95,1.06,-20.020000000000003,-156.6616,-55.836,175,75
2026-05-09 15:10:58.809,4,-0.36,1.08,1.09,-32.52,-163.4216,-55.286,175,75
2026-05-09 15:10:58.809,4,-0.34,1.15,1.03,-42.64,-165.1916,-56.75600000000001,175,75
2026-05-09 15:10:58.830,4,0.3,1.05,0.94,-54.769999999999996,-195.1916,-83.886,175,75
2026-05-09 15:10:58.842,4,0.28,1.06,1.05,-77.52,-291.1716,-66.446,175,75
2026-05-09 15:10:58.842,4,-0.38,1.03,0.78,-77.09,-314.6416,-87.606,175,75
2026-05-09 15:10:58.896,4,-0.59,0.31,0.01,-107.46,-58.611599999999996,-87.17599999999999,175,75
2026-05-09 15:10:58.908,4,1.8,-0.32,0.06,-124.64999999999999,-18.301599999999997,-50.046,175,75
2026-05-09 15:10:58.912,4,0.71,-0.25,0.67,-166.24,-37.691599999999994,-6.4460000000000015,175,75
2026-05-09 15:10:58.934,4,0.73,-0.26,1.28,-190.38,13.888400000000004,-8.456,175,75
2026-05-09 15:10:59.073,4,0.61,-0.93,0.44,-266.71999999999997,-80.4416,-46.876,175,75
2026-05-09 15:10:59.089,4,0.98,-1.37,0.61,-293.49,71.8184,-29.246000000000002,175,75
2026-05-09 15:10:59.111,4,0.91,-1.45,0.82,-300.14,92.36840000000001,-30.166000000000004,175,75
2026-05-09 15:10:59.133,4,0.7,-1.31,1.27,-342.03,146.6984,-114.256,175,75
2026-05-09 15:10:59.144,4,0.66,-1.21,1.4,-350.02,126.9984,-133.82600000000002,175,75
2026-05-09 15:10:59.180,4,0.57,-0.8,1.2,-388.31,111.26839999999999,-201.816,175,75
2026-05-09 15:10:59.195,4,0.59,-1.07,1.04,-393.37,145.2884,-208.156,175,75
2026-05-09 15:10:59.205,4,0.54,-1.3,0.96,-398.37,161.5084,-218.216,175,75
2026-05-09 15:10:59.205,4,0.46,-1.69,0.77,-417.88,188.2784,-246.876,175,75
2026-05-09 15:10:59.245,4,0.49,-1.83,0.74,-426.78,190.5384,-256.75600000000003,175,75
2026-05-09 15:10:59.255,4,0.37,-1.8,0.82,-418.55,166.5784,-264.00600000000003,175,75
2026-05-09 15:10:59.295,4,0.11,-0.71,1.31,-410.2,147.7884,-287.666,175,75
2026-05-09 15:10:59.295,4,0.06,-0.5,1.31,-395.14,151.5084,-270.346,175,75
2026-05-09 15:10:59.306,4,-0.08,-0.2,1.37,-346.36,168.8884,-249.18600000000004,175,75
2026-05-09 15:10:59.323,4,-0.23,0.08,1.58,-309.15999999999997,193.9484,-228.70600000000002,175,75
2026-05-09 15:10:59.330,4,-0.27,0.19,1.66,-288.49,194.7484,-223.156,175,75
2026-05-09 15:10:59.385,4,-0.52,0.56,1.93,-218.07,70.5384,-190.106,175,75
2026-05-09 15:10:59.385,4,-0.55,0.6,1.91,-206.60000000000002,45.968399999999995,-182.17600000000002,175,75
2026-05-09 15:10:59.385,4,-0.58,0.64,1.9,-193.92000000000002,24.138399999999997,-173.276,175,75
2026-05-09 15:10:59.385,4,-0.57,0.69,1.88,-182.39,8.708400000000005,-163.036,175,75
2026-05-09 15:10:59.397,4,-0.55,0.71,1.86,-175.75,-2.881599999999999,-155.716,175,75
2026-05-09 15:10:59.433,4,-0.55,0.75,1.82,-167.08999999999997,-18.4916,-146.32600000000002,175,75
2026-05-09 15:10:59.444,4,-0.58,0.76,1.79,-157.94,-30.321599999999997,-137.17600000000002,175,75
2026-05-09 15:10:59.444,4,-0.68,0.8,1.74,-140.32,-42.6916,-122.96600000000001,175,75
2026-05-09 15:10:59.470,4,-0.85,0.89,1.7,-112.27,-38.3016,-102.786,175,75
2026-05-09 15:10:59.480,4,-0.86,0.99,1.7,-93.74,-33.7916,-89.376,175,75
2026-05-09 15:10:59.641,4,-0.79,1.15,1.53,52.18,-240.2516,47.763999999999996,175,75
2026-05-09 15:10:59.656,4,-0.84,1.2,1.45,71.2,-253.4916,69.53399999999999,175,75
2026-05-09 15:10:59.656,4,-0.93,1.23,1.39,99.5,-254.0316,103.674,175,75
2026-05-09 15:10:59.666,4,-0.96,1.13,1.34,153.33999999999997,-227.3916,171.964,175,75
2026-05-09 15:10:59.723,4,-0.59,-1.74,2.25,341.45,14.1984,618.004,175,75
2026-05-09 15:10:59.723,4,-0.93,-2.12,2.62,373.22,-22.821599999999997,673.924,175,75
2026-05-09 15:10:59.747,4,-1.1,-2.65,2.81,366.87,-19.831599999999998,741.174,175,75
2026-05-09 15:10:59.773,4,-1.09,-3.29,2.97,319.5,-48.0616,823.614,175,75
2026-05-09 15:10:59.797,4,-1.69,-5.04,3.32,269.19,-163.0616,996.9639999999999,175,75
2026-05-09 15:10:59.829,4,-2.7,-5.8,3.48,332.36,-297.8816,1003.434,175,75
2026-05-09 15:10:59.829,4,-4.54,-7.76,3.3,426.93,-326.1116,739.404,175,75
2026-05-09 15:10:59.860,4,-3.96,-7.91,3.02,316.87,-274.22159999999997,537.2139999999999,175,75
2026-05-09 15:10:59.887,4,-1.92,-5.85,1.38,159.01,-440.2516,376.424,175,75
2026-05-09 15:10:59.887,4,-2.11,-5.21,0.8,198.57999999999998,-471.90160000000003,358.614,175,75
2026-05-09 15:10:59.887,4,-2.28,-4.65,0.32,249.5,-445.3216,294.534,175,75
2026-05-09 15:10:59.911,4,-2.36,-4.15,-0.06,250.41000000000003,-303.4216,188.614,175,75
2026-05-09 15:10:59.911,4,-1.69,-3.69,-0.11,203.89,-143.0616,120.44399999999999,175,75
2026-05-09 15:10:59.925,4,-0.82,-2.76,0.27,198.51999999999998,-85.7416,51.234,175,75
2026-05-09 15:10:59.939,4,-0.43,-2.12,0.58,269.86,-166.0516,-25.716,175,75
2026-05-09 15:10:59.958,4,-0.22,-1.86,0.57,289.92,-200.8616,-74.61600000000001,175,75
2026-05-09 15:10:59.972,4,0.05,-1.45,0.46,301.26,-291.66159999999996,-144.616,175,75
2026-05-09 15:10:59.986,4,0.16,-1.07,0.29,312.06,-386.6616,-192.966,175,75
2026-05-09 15:10:59.998,4,0.09,0.83,-0.08,234.98000000000002,-640.0716,82.76400000000001,175,75
2026-05-09 15:11:00.009,4,-0.57,0.86,-1.25,260.65,-451.1116,-91.506,175,75
2026-05-09 15:11:00.009,4,-0.36,0.56,-1.63,270.84,-258.0016,-23.516000000000002,175,75
2026-05-09 15:11:00.024,4,-0.42,0.22,-1.71,284.43,-53.2416,44.954,175,75
2026-05-09 15:11:00.036,4,-0.11,0.03,-1.42,257.24,19.2584,47.513999999999996,175,75
2026-05-09 15:11:00.047,4,0.26,0.05,-1.16,198.76,-17.691599999999998,35.623999999999995,175,75
2026-05-09 15:11:00.059,4,0.53,0.27,-0.96,110.04,-186.35160000000002,-5.346000000000002,175,75
2026-05-09 15:11:00.059,4,0.39,0.51,-0.95,30.41,-371.1116,-32.056000000000004,175,75
2026-05-09 15:11:00.071,4,0.52,0.55,-1.62,-30.810000000000002,-464.9516,-106.686,175,75
2026-05-09 15:11:00.094,4,-0.49,1.19,-2.15,-122.64,-440.9216,-77.11600000000001,175,75
2026-05-09 15:11:00.094,4,-0.71,1.34,-2.07,-128.98000000000002,-247.6916,-42.906,175,75
2026-05-09 15:11:00.105,4,-0.53,1.31,-2.11,-143.74,-43.001599999999996,-11.506,175,75
2026-05-09 15:11:00.117,4,-0.57,1.1,-1.33,-160.5,40.4184,55.684,175,75
2026-05-09 15:11:00.134,4,-0.21,0.73,-1.38,-146.66000000000003,345.9684,-46.876,175,75
2026-05-09 15:11:00.172,4,1.58,-0.22,0.34,-240.93,45.04840000000001,10.684,175,75
2026-05-09 15:11:00.265,4,1.1,-0.4,0.62,-297.52,-135.1316,-71.756,175,75
2026-05-09 15:11:00.280,4,1.18,-1.37,-0.11,-321.90999999999997,-218.79160000000002,-79.49600000000001,175,75
2026-05-09 15:11:00.284,4,0.86,-1.93,-0.16,-333.97999999999996,-211.7816,-61.016,175,75
2026-05-09 15:11:00.309,4,1.37,-2.29,0.06,-442.64,127.42839999999998,-48.516,175,75
2026-05-09 15:11:00.325,4,1.92,-2.77,0.49,-442.09,433.3984,-99.98599999999999,175,75
2026-05-09 15:11:00.337,4,0.73,-3.29,3.54,-343.55,209.4984,-401.50600000000003,175,75
2026-05-09 15:11:00.348,4,0.83,-3.22,3.3,-336.47999999999996,172.8584,-425.596,175,75
2026-05-09 15:11:00.348,4,0.64,-3.28,3.1,-320.5,139.4984,-439.12600000000003,175,75
2026-05-09 15:11:00.389,4,0.24,-3.27,2.52,-308.61,150.7784,-466.93600000000004,175,75
2026-05-09 15:11:00.404,4,0.11,-3.31,2.38,-292.21,219.9284,-476.62600000000003,175,75
2026-05-09 15:11:00.421,4,0.05,-3.29,2.47,-270.63,240.41840000000002,-479.926,175,75
2026-05-09 15:11:00.422,4,-0.33,-3.11,2.66,-245.87,238.58839999999998,-476.87600000000003,175,75
2026-05-09 15:11:00.432,4,-0.53,-2.63,3.02,-247.02999999999997,185.0484,-497.906,175,75
2026-05-09 15:11:00.443,4,-0.56,-2.34,2.63,-283.97999999999996,137.1884,-498.826,175,75
2026-05-09 15:11:00.464,4,-0.59,-1.83,1.89,-283.55,146.7584,-468.646,175,75
2026-05-09 15:11:00.491,4,-0.8,-1.1,2.05,-251.05,145.5984,-430.716,175,75
2026-05-09 15:11:00.520,4,-0.78,-0.67,1.99,-257.33,77.17840000000001,-400.346,175,75
2026-05-09 15:11:00.530,4,-0.94,-0.49,1.76,-245.01999999999998,62.0584,-381.206,175,75
2026-05-09 15:11:00.540,4,-0.95,-0.43,1.66,-238.8,59.43840000000001,-371.56600000000003,175,75
2026-05-09 15:11:00.543,4,-1.01,-0.35,1.6,-229.58999999999997,48.76840000000001,-356.62600000000003,175,75
2026-05-09 15:11:00.557,4,-1.08,-0.29,1.56,-218.31,32.608399999999996,-347.356,175,75
2026-05-09 15:11:00.571,4,-1.14,-0.24,1.52,-216.66000000000003,6.818400000000004,-344.676,175,75
2026-05-09 15:11:00.582,4,-1.24,-0.07,1.5,-218.19,-10.441600000000001,-346.016,175,75
2026-05-09 15:11:00.582,4,-1.28,0.18,1.48,-209.64999999999998,-33.611599999999996,-343.096,175,75
2026-05-09 15:11:00.616,4,-1.38,0.77,1.51,-162.45999999999998,-36.5316,-280.656,175,75
2026-05-09 15:11:00.627,4,-1.26,0.8,1.55,-149.82999999999998,-17.141599999999997,-257.056,175,75
2026-05-09 15:11:00.638,4,-1.19,0.79,1.6,-133.61,-12.631599999999999,-238.64600000000002,175,75
2026-05-09 15:11:00.650,4,-1.15,0.75,1.7,-110.99,-24.3416,-220.226,175,75
2026-05-09 15:11:00.661,4,-1.13,0.74,1.81,-89.28,-35.9916,-201.936,175,75
2026-05-09 15:11:00.695,4,-1.02,0.92,1.98,-51.239999999999995,-67.4516,-158.276,175,75
2026-05-09 15:11:00.719,4,-1.02,1.14,1.96,-13.25,-91.9616,-117.23599999999999,175,75
2026-05-09 15:11:00.731,4,-1.05,1.19,1.97,10.29,-69.2216,-84.49600000000001,175,75
2026-05-09 15:11:00.742,4,-0.97,1.11,1.98,29.43,-18.731599999999997,-39.736000000000004,175,75
2026-05-09 15:11:00.764,4,-1.06,1.09,2.31,67.12,14.258400000000002,53.124,175,75
2026-05-09 15:11:00.774,4,-1.04,1.22,2.41,89.07,-2.631599999999999,93.85399999999998,175,75
2026-05-09 15:11:00.794,4,-0.8,1.08,2.48,122.85,-47.3916,171.42399999999998,175,75
2026-05-09 15:11:00.805,4,-0.74,0.88,2.5,132.42000000000002,-86.41159999999999,203.92399999999998,175,75
2026-05-09 15:11:00.818,4,-0.76,0.68,2.45,142.42000000000002,-146.2916,233.73399999999998,175,75
2026-05-09 15:11:00.835,4,-0.89,0.47,2.13,168.27999999999997,-273.4216,303.24399999999997,175,75
2026-05-09 15:11:00.858,4,-0.89,-0.23,1.62,239.8,-334.2216,419.954,175,75
2026-05-09 15:11:00.869,4,-0.92,-0.58,1.37,272.36,-356.4716,469.654,175,75
2026-05-09 15:11:00.881,4,-0.99,-0.87,1.2,308.7,-357.3316,513.554,175,75
2026-05-09 15:11:00.907,4,-1.04,-1.34,1.3,390.35,-403.7916,632.824,175,75
2026-05-09 15:11:00.926,4,-1.26,-1.8,1.67,428.03000000000003,-469.46160000000003,727.944,175,75
2026-05-09 15:11:00.936,4,-1.64,-2.22,2.01,450.11,-515.0115999999999,824.5939999999999,175,75
2026-05-09 15:11:00.947,4,-3.59,-3.58,2.66,516.02,-640.7416,976.544,175,75
2026-05-09 15:11:00.960,4,-4.87,-4.78,2.84,541.51,-624.1016,990.624,175,75
2026-05-09 15:11:00.966,4,-5.99,-7.31,2.92,514.01,-613.1816,881.294,175,75
2026-05-09 15:11:00.981,4,-6.64,-8.91,2.75,436.81,-664.7715999999999,675.874,175,75
2026-05-09 15:11:00.995,4,-5.92,-9.42,1.85,352.3,-594.8316,441.294,175,75
2026-05-09 15:11:01.009,4,-3.09,-8.52,0.09,250.95999999999998,-446.5316,187.154,175,75
2026-05-09 15:11:01.016,4,-0.96,-6.53,-1.2,168.95,-177.8116,196.904,175,75
2026-05-09 15:11:01.042,4,-0.6,-3.99,-1.38,167.73000000000002,-172.3316,291.114,175,75
2026-05-09 15:11:01.042,4,-1.8,-2.35,-0.87,342.42,-93.0016,232.884,175,75
2026-05-09 15:11:01.055,4,-1.49,-2.2,0.07,457.85,132.3084,197.82399999999998,175,75
2026-05-09 15:11:01.069,4,-0.35,-2.7,1.49,460.53000000000003,156.7584,167.70399999999998,175,75
2026-05-09 15:11:01.094,4,-0.05,-2.71,3.42,165.23000000000002,-429.8916,97.644,175,75
2026-05-09 15:11:01.108,4,-0.29,-2.19,2.68,40.84,-634.4616,100.01400000000001,175,75
2026-05-09 15:11:01.120,4,-0.56,-1.83,1.51,-15.32,-810.1315999999999,127.394,175,75
2026-05-09 15:11:01.136,4,-1.13,-1.58,0.44,-4.650000000000002,-870.9916,139.10399999999998,175,75
2026-05-09 15:11:01.159,4,-2.2,-1.44,-1.19,58.76,-637.2116,-19.616,175,75
2026-05-09 15:11:01.170,4,-1.99,-1.36,-1.63,94.98,-457.0816,-170.95600000000002,175,75
2026-05-09 15:11:01.218,4,1.84,1.94,0.28,162.79000000000002,-280.6216,-50.406,175,75
2026-05-09 15:11:01.218,4,-0.67,2.17,-0.85,102.06,-231.35160000000002,58.984,175,75
2026-05-09 15:11:01.230,4,-1.07,1.02,-1.43,163.27999999999997,-259.8316,-36.266,175,75
2026-05-09 15:11:01.252,4,-1.12,0.01,-1.44,163.39999999999998,-226.35160000000002,2.273999999999999,175,75
2026-05-09 15:11:01.261,4,-1.19,0.06,-1.18,20.9,-127.14160000000001,26.424,175,75
2026-05-09 15:11:01.265,4,-0.72,0.42,-1.03,-88.55,-41.471599999999995,4.463999999999999,175,75
2026-05-09 15:11:01.284,4,0.25,0.95,-0.74,-138.74,-18.551599999999997,3.983999999999999,175,75
2026-05-09 15:11:01.295,4,0.7,1.26,-0.48,-108.68,-59.3416,29.894,175,75
2026-05-09 15:11:01.308,4,0.52,1.19,-0.19,-50.57000000000001,-141.4716,42.513999999999996,175,75
2026-05-09 15:11:01.331,4,-0.33,0.79,-0.3,-133.19,-187.57160000000002,-3.766000000000002,175,75
2026-05-09 15:11:01.344,4,-0.43,1.0,-0.41,-158.68,-117.88159999999999,-1.386000000000001,175,75
2026-05-09 15:11:01.344,4,-0.15,1.08,-0.55,-150.01999999999998,-33.9116,7.883999999999999,175,75
2026-05-09 15:11:01.362,4,0.57,0.7,-0.61,-141.36,16.4484,3.243999999999999,175,75
2026-05-09 15:11:01.373,4,0.61,0.13,-0.22,-167.94,2.858400000000003,23.674,175,75
2026-05-09 15:11:01.399,4,0.23,-0.1,-0.05,-190.07999999999998,22.178400000000003,21.964,175,75
2026-05-09 15:11:01.399,4,0.61,-0.46,0.27,-222.51999999999998,29.498399999999997,40.504,175,75
2026-05-09 15:11:01.409,4,0.79,-0.7,0.48,-263.13,-15.801599999999997,37.644,175,75
2026-05-09 15:11:01.443,4,1.05,-0.81,0.69,-308.49,-54.1616,19.954,175,75
2026-05-09 15:11:01.471,4,0.74,-1.45,0.27,-315.99,-35.3816,38.733999999999995,175,75
2026-05-09 15:11:01.483,4,0.69,-1.75,0.4,-328.8,28.528399999999998,46.903999999999996,175,75
2026-05-09 15:11:01.493,4,0.82,-1.91,0.58,-336.71999999999997,56.6384,37.034,175,75
2026-05-09 15:11:01.504,4,0.98,-1.99,0.8,-343.19,48.2784,24.224,175,75
2026-05-09 15:11:01.559,4,1.12,-1.57,0.98,-367.52,141.9984,12.033999999999999,175,75
2026-05-09 15:11:01.564,4,1.14,-1.45,1.09,-366.11,178.5284,2.0939999999999985,175,75
2026-05-09 15:11:01.574,4,1.14,-1.45,1.21,-364.21999999999997,211.9384,-8.646,175,75
2026-05-09 15:11:01.613,4,1.24,-1.56,1.31,-358.97999999999996,256.5784,-27.176000000000002,175,75
2026-05-09 15:11:01.613,4,1.36,-1.75,1.41,-354.77,290.8984,-63.216,175,75
2026-05-09 15:11:01.613,4,1.38,-1.89,1.44,-352.03,331.7584,-103.21600000000001,175,75
2026-05-09 15:11:01.634,4,1.43,-1.97,1.56,-352.94,368.03839999999997,-143.39600000000002,175,75
2026-05-09 15:11:01.658,4,1.31,-1.97,1.66,-353.19,381.9984,-182.29600000000002,175,75
2026-05-09 15:11:01.658,4,1.06,-2.0,1.75,-340.38,395.8984,-227.906,175,75
2026-05-09 15:11:01.672,4,0.89,-2.25,1.87,-328.07,378.7084,-278.456,175,75
2026-05-09 15:11:01.683,4,0.75,-2.43,1.86,-328.0,340.8984,-289.31600000000003,175,75
2026-05-09 15:11:01.683,4,0.41,-3.01,1.96,-338.19,280.1084,-245.106,175,75
2026-05-09 15:11:01.700,4,0.39,-3.56,2.25,-372.76,203.64839999999998,-216.686,175,75
2026-05-09 15:11:01.712,4,-0.53,-3.66,2.27,-361.65999999999997,107.9784,-283.826,175,75
2026-05-09 15:11:01.737,4,-0.58,-1.82,2.19,-306.47999999999996,361.1484,-616.146,175,75
2026-05-09 15:11:01.747,4,0.36,-1.0,2.49,-290.26,255.41840000000002,-559.376,175,75
2026-05-09 15:11:01.765,4,0.21,-0.49,2.47,-306.96999999999997,194.2584,-401.75600000000003,175,75
2026-05-09 15:11:01.776,4,-0.38,-0.27,2.12,-282.09,192.3084,-321.386,175,75
2026-05-09 15:11:01.787,4,-0.7,-0.3,1.94,-226.54000000000002,208.5884,-333.336,175,75
2026-05-09 15:11:01.799,4,-0.68,-0.26,1.92,-183.19,197.1184,-371.62600000000003,175,75
2026-05-09 15:11:01.799,4,-0.59,-0.17,2.04,-167.02999999999997,172.2484,-384.496,175,75
2026-05-09 15:11:01.821,4,-0.81,0.44,2.14,-195.32,109.0084,-306.93600000000004,175,75
2026-05-09 15:11:01.844,4,-1.02,0.73,2.08,-125.63000000000001,96.08840000000001,-264.736,175,75
2026-05-09 15:11:01.856,4,-1.03,0.77,2.08,-105.02,92.36840000000001,-243.946,175,75
2026-05-09 15:11:01.890,4,-1.14,0.82,2.01,-93.92,55.65840000000001,-206.686,175,75
2026-05-09 15:11:01.900,4,-1.39,0.92,1.91,-85.87,8.528400000000005,-177.666,175,75
2026-05-09 15:11:01.913,4,-1.51,0.99,1.86,-77.58,-9.581600000000002,-161.07600000000002,175,75
2026-05-09 15:11:01.913,4,-1.58,1.06,1.81,-70.5,-24.9516,-145.466,175,75
2026-05-09 15:11:01.923,4,-1.67,1.22,1.78,-56.97,-39.6416,-119.73599999999999,175,75
2026-05-09 15:11:01.946,4,-1.45,1.26,1.68,-18.369999999999997,-56.4116,-77.17599999999999,175,75
2026-05-09 15:11:01.982,4,-1.43,1.14,1.61,11.14,-121.05160000000001,-51.746,175,75
2026-05-09 15:11:01.991,4,-1.53,1.17,1.53,25.11,-165.4416,-44.616,175,75
2026-05-09 15:11:02.003,4,-1.58,1.2,1.42,36.39,-195.01160000000002,-37.546,175,75
2026-05-09 15:11:02.004,4,-1.57,1.21,1.28,50.72,-206.0516,-28.456000000000003,175,75
2026-05-09 15:11:02.026,4,-1.5,1.19,1.16,66.69,-199.2816,-16.386000000000003,175,75
2026-05-09 15:11:02.043,4,-1.36,1.14,1.08,87.36,-176.1716,8.674,175,75
2026-05-09 15:11:02.043,4,-1.25,1.09,1.06,102.67,-151.5316,34.774,175,75
2026-05-09 15:11:02.055,4,-1.16,1.02,1.08,117.06,-131.9016,63.314,175,75
2026-05-09 15:11:02.065,4,-1.07,0.95,1.15,129.19,-116.7816,94.594,175,75
2026-05-09 15:11:02.079,4,-0.98,0.88,1.18,134.01,-115.1916,113.79400000000001,175,75
2026-05-09 15:11:02.090,4,-0.9,0.86,1.23,136.26,-124.83160000000001,136.724,175,75
2026-05-09 15:11:02.101,4,-0.86,0.92,1.27,142.3,-142.8216,165.994,175,75
2026-05-09 15:11:02.111,4,-0.81,0.98,1.3,159.43,-158.6116,200.934,175,75
2026-05-09 15:11:02.123,4,-0.73,0.94,1.29,195.58999999999997,-178.3016,260.264,175,75
2026-05-09 15:11:02.133,4,-0.63,0.38,1.17,270.65,-163.9716,373.984,175,75
2026-05-09 15:11:02.153,4,-0.57,-0.04,1.16,296.63,-131.2316,419.044,175,75
2026-05-09 15:11:02.164,4,-0.48,-0.48,1.2,312.18,-102.9416,458.49399999999997,175,75
2026-05-09 15:11:02.164,4,-0.47,-0.96,1.3,320.35,-72.6916,506.424,175,75
2026-05-09 15:11:02.184,4,-0.53,-1.31,1.48,316.69,-61.6016,566.234,175,75
2026-05-09 15:11:02.184,4,-0.5,-1.64,1.71,316.63,-66.9616,631.234,175,75
2026-05-09 15:11:02.198,4,-0.43,-2.22,2.15,334.37,-140.4416,738.984,175,75
2026-05-09 15:11:02.210,4,-0.94,-2.91,2.61,366.45,-302.0816,824.5939999999999,175,75
2026-05-09 15:11:02.223,4,-1.95,-3.94,2.93,386.26,-370.3216,890.264,175,75
2026-05-09 15:11:02.243,4,-3.27,-6.67,3.07,369.01,-503.4216,814.654,175,75
2026-05-09 15:11:02.265,4,-3.68,-7.69,2.81,398.58000000000004,-606.3516,724.164,175,75
2026-05-09 15:11:02.276,4,-3.57,-8.47,2.24,459.68,-739.4015999999999,622.154,175,75
2026-05-09 15:11:02.308,4,-3.33,-6.19,0.46,347.54,-576.6615999999999,362.034,175,75
2026-05-09 15:11:02.332,4,-2.45,-4.21,-0.45,293.64,-214.8316,175.874,175,75
2026-05-09 15:11:02.356,4,-1.9,-4.04,-0.1,340.35,-85.32159999999999,213.434,175,75
2026-05-09 15:11:02.368,4,-1.3,-4.41,0.6,408.76,-98.91159999999999,220.994,175,75
2026-05-09 15:11:02.375,4,-1.21,-4.68,1.48,423.15000000000003,-303.4216,171.964,175,75
2026-05-09 15:11:02.397,4,-1.55,-4.47,1.82,348.09000000000003,-426.4716,137.944,175,75
2026-05-09 15:11:02.407,4,-1.83,-3.75,1.09,115.41,-591.1715999999999,48.984,175,75
2026-05-09 15:11:02.423,4,-1.94,-2.95,-0.48,18.759999999999998,-626.3516,-66.01599999999999,175,75
2026-05-09 15:11:02.435,4,-2.09,-2.24,-1.26,38.22,-576.6615999999999,-160.836,175,75
2026-05-09 15:11:02.460,4,-1.76,-0.81,-1.91,219.37,-316.1116,-326.56600000000003,175,75
2026-05-09 15:11:02.470,4,-1.47,-0.41,-1.73,312.61,-304.3416,-383.276,175,75
2026-05-09 15:11:02.478,4,-1.2,-0.07,-1.5,401.57,-382.3316,-420.656,175,75
2026-05-09 15:11:02.495,4,0.63,0.57,-0.75,401.08000000000004,-500.8016,-334.856,175,75
2026-05-09 15:11:02.514,4,-0.97,1.46,-1.14,237.97000000000003,-623.6715999999999,34.224000000000004,175,75
2026-05-09 15:11:02.514,4,-2.58,1.53,-1.91,203.08999999999997,-512.8216,33.373999999999995,175,75
2026-05-09 15:11:02.526,4,-3.35,1.1,-2.4,190.95999999999998,-399.0316,-60.656,175,75
2026-05-09 15:11:02.539,4,-1.67,1.04,-2.74,91.75,-249.3416,-72.48599999999999,175,75
2026-05-09 15:11:02.557,4,-1.42,1.6,-2.47,-45.08,-201.7216,23.924,175,75
2026-05-09 15:11:02.568,4,-1.77,1.88,-2.21,-79.53,-131.1116,25.564,175,75
2026-05-09 15:11:02.575,4,-1.06,1.87,-1.93,-64.59,-55.0116,71.72399999999999,175,75
2026-05-09 15:11:02.598,4,-1.09,1.52,-1.51,-89.65,-37.2716,110.934,175,75
2026-05-09 15:11:02.598,4,-1.32,1.27,-1.12,-137.26999999999998,49.9284,135.934,175,75
2026-05-09 15:11:02.610,4,-1.78,1.09,-0.57,-161.42000000000002,107.54839999999999,176.664,175,75
2026-05-09 15:11:02.630,4,-0.92,0.77,-0.58,-152.02999999999997,289.6784,197.70399999999998,175,75
2026-05-09 15:11:02.655,4,0.36,-0.12,0.44,-237.94,-7.021599999999999,113.79400000000001,175,75
2026-05-09 15:11:02.674,4,-0.15,0.17,0.44,-245.38,88.64839999999998,103.674,175,75
2026-05-09 15:11:02.688,4,0.87,-0.21,0.6,-244.15999999999997,123.39839999999998,94.464,175,75
2026-05-09 15:11:02.701,4,1.28,-0.91,0.85,-259.15999999999997,11.508400000000002,139.404,175,75
2026-05-09 15:11:02.713,4,1.16,-1.61,0.71,-246.24,-184.8916,104.834,175,75
2026-05-09 15:11:02.724,4,1.11,-2.13,0.77,-238.19,-268.2416,60.874,175,75
2026-05-09 15:11:02.735,4,1.71,-2.23,0.97,-302.21,-246.7216,48.734,175,75
2026-05-09 15:11:02.748,4,2.45,-1.3,0.32,-405.08,-186.29160000000002,20.503999999999998,175,75
2026-05-09 15:11:02.763,4,2.72,-1.34,-0.21,-337.33,11.938400000000001,54.044,175,75
2026-05-09 15:11:02.775,4,2.87,-1.61,-0.39,-357.88,115.7784,57.943999999999996,175,75
2026-05-09 15:11:02.787,4,2.94,-2.06,-0.38,-397.03,224.4384,23.003999999999998,175,75
2026-05-09 15:11:02.792,4,2.87,-2.35,-0.04,-419.21999999999997,331.5784,-6.266000000000002,175,75
2026-05-09 15:11:02.821,4,2.9,-2.62,0.72,-464.03999999999996,448.7684,-37.546,175,75
2026-05-09 15:11:02.821,4,2.99,-2.74,1.39,-499.03999999999996,442.9184,-83.51599999999999,175,75
2026-05-09 15:11:02.832,4,2.86,-2.69,1.8,-464.71,307.78839999999997,-168.946,175,75
2026-05-09 15:11:02.843,4,2.17,-2.94,1.74,-390.08,223.8884,-225.226,175,75
2026-05-09 15:11:02.855,4,1.77,-3.14,1.73,-360.44,266.3884,-242.23600000000002,175,75
2026-05-09 15:11:02.867,4,1.46,-3.08,1.65,-389.40999999999997,288.2784,-272.546,175,75
2026-05-09 15:11:02.888,4,0.89,-2.9,1.51,-416.47999999999996,327.3684,-298.576,175,75
2026-05-09 15:11:02.900,4,0.42,-2.64,1.42,-411.90999999999997,327.78839999999997,-293.646,175,75
2026-05-09 15:11:02.911,4,-0.03,-2.46,1.49,-396.65999999999997,333.4684,-293.576,175,75
2026-05-09 15:11:02.919,4,-0.3,-2.41,1.56,-368.91999999999996,342.3684,-313.706,175,75
2026-05-09 15:11:02.933,4,-0.43,-2.41,1.54,-345.08,355.1684,-343.396,175,75
2026-05-09 15:11:02.948,4,-0.58,-2.01,1.68,-306.36,358.7084,-404.796,175,75
2026-05-09 15:11:02.958,4,-0.59,-1.71,1.76,-289.77,358.3384,-416.62600000000003,175,75
2026-05-09 15:11:02.969,4,-0.45,-1.38,1.91,-277.82,326.8184,-416.326,175,75
2026-05-09 15:11:02.983,4,-0.37,-1.03,2.08,-280.75,262.3084,-390.106,175,75
2026-05-09 15:11:02.983,4,-0.55,-0.7,2.05,-293.25,206.14839999999998,-355.776,175,75
2026-05-09 15:11:02.995,4,-0.73,-0.48,1.89,-290.32,181.0884,-347.056,175,75
2026-05-09 15:11:03.008,4,-0.74,-0.37,1.75,-274.77,160.5984,-351.266,175,75
2026-05-09 15:11:03.016,4,-0.67,-0.28,1.65,-251.41999999999996,121.32839999999999,-348.456,175,75
2026-05-09 15:11:03.027,4,-0.7,-0.23,1.63,-242.94,93.33840000000001,-339.00600000000003,175,75
2026-05-09 15:11:03.048,4,-0.94,-0.01,1.59,-236.42000000000002,79.98840000000001,-312.906,175,75
2026-05-09 15:11:03.062,4,-1.02,0.14,1.59,-223.37,88.64839999999998,-297.116,175,75
2026-05-09 15:11:03.075,4,-1.01,0.22,1.61,-207.02999999999997,96.8184,-283.886,175,75
2026-05-09 15:11:03.086,4,-1.0,0.28,1.68,-190.69,91.44839999999999,-270.106,175,75
2026-05-09 15:11:03.097,4,-1.06,0.32,1.73,-178.43,78.4684,-259.616,175,75
2026-05-09 15:11:03.108,4,-1.1,0.37,1.77,-163.74,60.5384,-249.856,175,75
2026-05-09 15:11:03.116,4,-1.14,0.43,1.78,-155.2,44.0084,-242.906,175,75
2026-05-09 15:11:03.137,4,-1.14,0.6,1.75,-139.27999999999997,25.8384,-222.786,175,75
2026-05-09 15:11:03.148,4,-1.16,0.69,1.74,-130.87,23.648400000000002,-205.166,175,75
2026-05-09 15:11:03.154,4,-1.19,0.77,1.71,-115.92999999999999,27.248399999999997,-182.356,175,75
2026-05-09 15:11:03.167,4,-1.2,0.82,1.71,-99.53,29.8684,-164.186,175,75
2026-05-09 15:11:03.182,4,-1.18,0.85,1.71,-84.22,28.158400000000007,-150.286,175,75
2026-05-09 15:11:03.194,4,-1.13,0.88,1.74,-66.54,16.7584,-131.506,175,75
2026-05-09 15:11:03.205,4,-1.12,0.92,1.75,-54.41,0.10840000000000316,-116.936,175,75
2026-05-09 15:11:03.205,4,-1.07,0.96,1.71,-39.89,-19.7716,-102.29599999999999,175,75
2026-05-09 15:11:03.216,4,-1.03,0.98,1.67,-30.259999999999998,-29.1616,-92.42599999999999,175,75
2026-05-09 15:11:03.231,4,-0.98,1.03,1.62,-15.990000000000002,-36.1716,-74.256,175,75
2026-05-09 15:11:03.244,4,-0.99,1.08,1.59,-4.280000000000001,-36.9016,-55.346000000000004,175,75
2026-05-09 15:11:03.267,4,-1.06,1.14,1.55,22.85,-10.561599999999999,-5.406000000000001,175,75
2026-05-09 15:11:03.281,4,-1.13,1.12,1.59,35.59,11.0884,26.233999999999998,175,75
2026-05-09 15:11:03.291,4,-1.11,1.11,1.68,46.08,26.5084,49.833999999999996,175,75
2026-05-09 15:11:03.302,4,-1.0,1.12,1.79,57.79,13.1584,73.98400000000001,175,75
2026-05-09 15:11:03.302,4,-0.92,1.17,1.86,69.07,-22.141599999999997,93.314,175,75
2026-05-09 15:11:03.314,4,-0.87,1.21,1.91,87.24,-75.2516,116.48400000000001,175,75
2026-05-09 15:11:03.326,4,-0.82,1.17,1.91,108.58,-128.4216,142.154,175,75
2026-05-09 15:11:03.345,4,-0.79,1.01,1.85,131.57,-189.5816,179.714,175,75
2026-05-09 15:11:03.345,4,-0.77,0.86,1.76,143.45999999999998,-228.0016,203.184,175,75
2026-05-09 15:11:03.367,4,-0.72,0.57,1.52,171.69,-284.7116,257.334,175,75
2026-05-09 15:11:03.384,4,-0.69,0.48,1.45,194.62,-295.8616,286.604,175,75
2026-05-09 15:11:03.427,4,-0.57,-0.11,1.31,335.65000000000003,-340.8616,452.094,175,75
2026-05-09 15:11:03.439,4,-0.56,-0.6,1.25,392.24,-340.5016,515.934,175,75
2026-05-09 15:11:03.450,4,-0.68,-1.4,1.36,455.35,-363.6116,629.104,175,75
2026-05-09 15:11:03.460,4,-0.68,-1.98,1.63,492.79,-415.7416,723.614,175,75
2026-05-09 15:11:03.473,4,-0.99,-2.53,2.08,537.24,-532.8815999999999,791.904,175,75
2026-05-09 15:11:03.484,4,-2.09,-3.28,2.61,610.59,-677.1415999999999,819.164,175,75
2026-05-09 15:11:03.524,4,-3.92,-6.52,2.86,577.0,-657.6916,716.8439999999999,175,75
2026-05-09 15:11:03.524,4,-4.12,-7.18,2.67,531.87,-667.2715999999999,672.154,175,75
2026-05-09 15:11:03.534,4,-4.23,-7.69,2.26,508.03000000000003,-743.5515999999999,585.014,175,75
2026-05-09 15:11:03.547,4,-4.38,-8.31,1.66,501.75,-803.6116,478.18399999999997,175,75
2026-05-09 15:11:03.558,4,-4.03,-8.41,0.71,446.63,-695.7416,333.24399999999997,175,75
2026-05-09 15:11:03.569,4,-3.09,-7.64,-0.27,359.86,-509.1616,216.35399999999998,175,75
2026-05-09 15:11:03.592,4,-0.64,-3.96,-1.39,206.45,-239.3416,79.464,175,75
2026-05-09 15:11:03.592,4,-1.08,-2.68,-1.06,259.62,-194.2816,51.234,175,75
2026-05-09 15:11:03.602,4,-1.23,-2.38,-0.52,354.68,-44.8316,73.434,175,75
2026-05-09 15:11:03.624,4,-0.69,-2.78,0.33,414.62,8.468400000000003,111.66399999999999,175,75
2026-05-09 15:11:03.638,4,-0.39,-3.37,1.37,411.32,-147.8816,90.26400000000001,175,75
2026-05-09 15:11:03.673,4,-1.24,-2.6,1.16,50.96,-563.1216,-86.99600000000001,175,75
2026-05-09 15:11:03.684,4,-1.37,-2.04,0.46,-5.629999999999999,-588.0616,-143.216,175,75
2026-05-09 15:11:03.696,4,-1.32,-1.55,-0.26,-26.480000000000004,-578.7316,-197.786,175,75
2026-05-09 15:11:03.696,4,-1.43,-1.05,-0.96,-4.100000000000001,-579.0315999999999,-290.046,175,75
2026-05-09 15:11:03.706,4,-1.75,-0.74,-1.35,46.019999999999996,-521.4116,-361.50600000000003,175,75
2026-05-09 15:11:03.720,4,-1.92,-0.34,-1.65,145.52999999999997,-377.3916,-432.176,175,75
2026-05-09 15:11:03.767,4,1.25,1.54,0.22,219.56,-129.7116,-97.05600000000001,175,75
2026-05-09 15:11:03.767,4,-0.78,2.05,-0.42,97.54,11.6984,89.344,175,75
2026-05-09 15:11:03.778,4,-1.21,1.63,-0.46,122.73,71.69839999999999,-5.896000000000001,175,75
2026-05-09 15:11:03.789,4,-0.37,0.85,0.03,192.97000000000003,76.0284,29.284,175,75
2026-05-09 15:11:03.813,4,-0.35,0.44,0.37,138.57999999999998,-187.2116,-24.316000000000003,175,75
2026-05-09 15:11:03.824,4,0.25,0.48,0.23,71.25999999999999,-406.7816,-105.536,175,75
2026-05-09 15:11:03.851,4,-1.26,1.31,-0.37,41.69,-530.1315999999999,-161.32600000000002,175,75
2026-05-09 15:11:03.862,4,-0.23,1.36,-0.8,4.799999999999999,-411.1116,-111.816,175,75
2026-05-09 15:11:03.873,4,-0.6,1.65,-0.76,-28.25,-334.71160000000003,-64.126,175,75
2026-05-09 15:11:03.916,4,-0.41,1.54,-0.48,-26.85,-228.9116,-52.726,175,75
2026-05-09 15:11:03.930,4,0.06,1.06,-0.07,-63.31,-184.5816,-2.176000000000002,175,75
2026-05-09 15:11:03.984,4,-0.2,0.08,-0.39,-114.16000000000001,-173.4916,65.50399999999999,175,75
2026-05-09 15:11:03.984,4,0.05,-0.09,-0.39,-139.35000000000002,-105.7416,89.714,175,75
2026-05-09 15:11:03.984,4,0.4,-0.06,-0.27,-175.57,-56.2316,97.334,175,75
2026-05-09 15:11:03.996,4,0.77,0.09,-0.09,-206.60000000000002,-30.321599999999997,99.714,175,75
2026-05-09 15:11:04.012,4,1.11,0.17,0.09,-215.5,-32.0216,112.70400000000001,175,75
2026-05-09 15:11:04.025,4,1.03,-0.46,-0.02,-185.81,-82.82159999999999,115.38399999999999,175,75
2026-05-09 15:11:04.025,4,0.9,-0.7,-0.15,-194.76999999999998,-79.2816,106.904,175,75
2026-05-09 15:11:04.037,4,0.91,-0.78,-0.31,-225.75,-37.5716,101.48400000000001,175,75
2026-05-09 15:11:04.047,4,1.14,-0.71,-0.4,-262.58,43.0384,104.464,175,75
2026-05-09 15:11:04.055,4,1.42,-0.72,-0.33,-280.32,119.0084,120.50399999999999,175,75
2026-05-09 15:11:04.079,4,1.63,-1.11,0.25,-313.97999999999996,219.4384,130.504,175,75
2026-05-09 15:11:04.090,4,1.73,-1.33,0.52,-342.39,232.97840000000002,98.494,175,75
2026-05-09 15:11:04.122,4,1.66,-1.33,0.92,-393.43,184.4384,-34.006,175,75
2026-05-09 15:11:04.135,4,1.61,-1.45,0.9,-400.81,243.9484,-70.226,175,75
2026-05-09 15:11:04.135,4,1.59,-1.55,0.92,-413.86,307.2484,-99.49600000000001,175,75
2026-05-09 15:11:04.149,4,1.58,-1.62,1.03,-426.84999999999997,367.3084,-127.42600000000002,175,75
2026-05-09 15:11:04.181,4,1.36,-1.72,1.38,-409.03999999999996,442.1784,-177.906,175,75
2026-05-09 15:11:04.195,4,0.93,-2.21,1.55,-306.65999999999997,374.1984,-210.656,175,75
2026-05-09 15:11:04.242,4,-1.12,-2.53,2.13,-340.44,209.4384,-388.456,175,75
2026-05-09 15:11:04.267,4,-0.41,-1.56,2.14,-325.99,307.3684,-562.236,175,75
2026-05-09 15:11:04.278,4,0.29,-1.04,2.31,-315.26,262.7284,-546.876,175,75
2026-05-09 15:11:04.289,4,0.47,-0.58,2.46,-324.03999999999996,204.2584,-425.536,175,75
2026-05-09 15:11:04.301,4,-0.11,-0.31,2.16,-312.46,176.26839999999999,-316.326,175,75
2026-05-09 15:11:04.325,4,-0.64,-0.56,1.82,-239.41000000000003,181.7584,-364.856,175,75
2026-05-09 15:11:04.339,4,-0.64,-0.33,1.99,-228.92000000000002,181.3884,-374.676,175,75
2026-05-09 15:11:04.349,4,-0.58,0.01,2.18,-228.25,175.5384,-356.75600000000003,175,75
2026-05-09 15:11:04.358,4,-0.55,0.3,2.24,-229.10000000000002,156.6384,-332.116,175,75
2026-05-09 15:11:04.372,4,-0.57,0.47,2.23,-220.07999999999998,129.3184,-318.336,175,75
2026-05-09 15:11:04.378,4,-0.69,0.54,2.16,-198.98000000000002,90.10839999999999,-306.56600000000003,175,75
2026-05-09 15:11:04.389,4,-0.84,0.56,2.15,-177.76,63.8884,-290.536,175,75
2026-05-09 15:11:04.400,4,-0.95,0.58,2.17,-162.32999999999998,46.7584,-276.87600000000003,175,75
2026-05-09 15:11:04.410,4,-1.06,0.66,2.21,-153.98000000000002,29.43840000000001,-267.176,175,75
2026-05-09 15:11:04.424,4,-1.1,0.75,2.22,-150.99,4.078400000000002,-258.516,175,75
2026-05-09 15:11:04.424,4,-1.15,0.86,2.21,-150.5,-37.331599999999995,-245.466,175,75
2026-05-09 15:11:04.436,4,-1.22,0.97,2.12,-151.54000000000002,-95.9216,-223.45600000000002,175,75
2026-05-09 15:11:04.448,4,-1.4,1.04,1.96,-153.55,-139.4016,-194.316,175,75
2026-05-09 15:11:04.463,4,-1.49,1.07,1.81,-151.77999999999997,-136.2916,-169.73600000000002,175,75
2026-05-09 15:11:04.487,4,-1.54,1.11,1.63,-132.14999999999998,-80.80160000000001,-107.666,175,75
2026-05-09 15:11:04.498,4,-1.53,1.11,1.65,-114.10000000000001,-66.7216,-79.79599999999999,175,75
2026-05-09 15:11:04.520,4,-1.42,1.03,1.74,-65.38,-123.1816,-41.266,175,75
2026-05-09 15:11:04.533,4,-1.38,0.97,1.75,-48.86,-190.6216,-33.576,175,75
2026-05-09 15:11:04.561,4,-1.23,0.72,1.45,20.72,-270.2516,11.174,175,75
2026-05-09 15:11:04.597,4,-1.15,0.73,1.29,79.8,-225.01160000000002,84.714,175,75
2026-05-09 15:11:04.602,4,-1.09,0.72,1.22,94.07,-204.5216,114.53399999999999,175,75
2026-05-09 15:11:04.651,4,-0.89,0.27,1.2,167.42000000000002,-187.8816,299.464,175,75
2026-05-09 15:11:04.660,4,-0.84,0.09,1.15,193.22000000000003,-181.9016,340.264,175,75
2026-05-09 15:11:04.677,4,-0.71,-0.22,1.12,236.07999999999998,-156.6616,402.394,175,75
2026-05-09 15:11:04.687,4,-0.63,-0.46,1.14,263.64,-136.6616,449.534,175,75
2026-05-09 15:11:04.699,4,-0.52,-0.86,1.19,288.76,-121.8416,504.834,175,75
2026-05-09 15:11:04.713,4,-0.49,-1.38,1.41,298.89,-124.4616,586.904,175,75
2026-05-09 15:11:04.727,4,-0.44,-2.03,1.74,305.90000000000003,-147.6316,718.554,175,75
2026-05-09 15:11:04.727,4,-0.41,-2.63,2.28,320.41,-256.9616,815.384,175,75
2026-05-09 15:11:04.748,4,-1.45,-3.47,2.74,361.57,-437.0816,870.324,175,75
2026-05-09 15:11:04.758,4,-2.55,-4.55,2.78,351.63,-415.4416,875.874,175,75
2026-05-09 15:11:04.785,4,-3.33,-6.61,2.02,268.4,-437.3916,669.404,175,75
2026-05-09 15:11:04.794,4,-3.11,-7.17,1.43,315.59000000000003,-396.6616,585.684,175,75
2026-05-09 15:11:04.816,4,-2.31,-6.93,0.96,364.8,-276.3516,576.9639999999999,175,75
2026-05-09 15:11:04.830,4,-1.84,-6.35,1.08,382.42,-285.1916,568.254,175,75
2026-05-09 15:11:04.830,4,-1.95,-5.97,1.17,379.86,-281.9016,544.104,175,75
2026-05-09 15:11:04.840,4,-1.99,-5.69,1.16,350.29,-247.6916,505.62399999999997,175,75
2026-05-09 15:11:04.853,4,-1.95,-5.29,1.08,300.41,-224.7116,429.464,175,75
2026-05-09 15:11:04.867,4,-1.6,-4.23,0.98,213.82,-173.2416,277.574,175,75
2026-05-09 15:11:04.882,4,-1.43,-3.51,1.08,205.23000000000002,-188.9716,204.654,175,75
2026-05-09 15:11:04.893,4,-1.15,-3.13,1.11,201.51,-196.9016,162.76399999999998,175,75
2026-05-09 15:11:04.917,4,-0.3,-2.99,0.93,145.52999999999997,-318.9716,127.82400000000001,175,75
2026-05-09 15:11:04.931,4,-0.28,-2.87,0.68,124.74,-348.6116,125.814,175,75
2026-05-09 15:11:04.941,4,-0.35,-2.61,0.42,119.25,-367.6916,100.26400000000001,175,75
2026-05-09 15:11:04.963,4,-0.6,-1.85,-0.24,155.47000000000003,-393.3616,-46.266,175,75
2026-05-09 15:11:04.982,4,-0.42,-1.11,-0.85,229.37,-359.8316,-282.356,175,75
2026-05-09 15:11:04.997,4,-0.15,-0.62,-1.01,287.61,-414.9516,-393.276,175,75
2026-05-09 15:11:05.010,4,0.52,2.43,-0.22,165.72000000000003,-635.1916,52.454,175,75
2026-05-09 15:11:05.024,4,-1.27,2.56,-1.32,189.01,-453.3016,-58.64600000000001,175,75
2026-05-09 15:11:05.041,4,-0.8,1.67,-1.69,267.91,-251.60160000000002,-69.73599999999999,175,75
2026-05-09 15:11:05.041,4,-0.46,1.09,-1.84,310.96000000000004,-104.4616,12.643999999999998,175,75
2026-05-09 15:11:05.059,4,-0.33,0.53,-1.83,283.15000000000003,-59.6416,28.124,175,75
2026-05-09 15:11:05.062,4,-0.42,0.42,-1.66,204.8,-81.4716,9.104,175,75
2026-05-09 15:11:05.074,4,-0.51,0.71,-1.53,78.89,-105.80160000000001,-17.726000000000003,175,75
2026-05-09 15:11:05.105,4,0.32,1.39,-1.43,-73.43,-114.58160000000001,-8.886000000000003,175,75
2026-05-09 15:11:05.127,4,0.28,0.91,-1.44,-128.98000000000002,-218.6716,-14.126000000000001,175,75
2026-05-09 15:11:05.152,4,-0.4,0.98,-1.35,-206.36,-45.251599999999996,3.613999999999999,175,75
2026-05-09 15:11:05.163,4,-1.46,1.07,-0.87,-217.26999999999998,1.6983999999999995,80.50399999999999,175,75
2026-05-09 15:11:05.182,4,2.39,0.07,-0.85,-227.45999999999998,226.3284,51.903999999999996,175,75
2026-05-09 15:11:05.193,4,0.85,-0.1,0.21,-208.8,213.76839999999999,22.823999999999998,175,75
2026-05-09 15:11:05.219,4,1.34,-0.82,0.72,-272.09,136.9384,-5.596000000000002,175,75
2026-05-09 15:11:05.234,4,1.63,-1.52,0.61,-292.03,53.76840000000001,-6.756,175,75
2026-05-09 15:11:05.234,4,1.12,-2.07,0.55,-309.28,-44.1016,-36.016,175,75
2026-05-09 15:11:05.256,4,0.79,-2.22,0.75,-350.26,-22.7516,-78.886,175,75
2026-05-09 15:11:05.268,4,1.22,-2.32,0.9,-430.87,99.13839999999999,-117.786,175,75
2026-05-09 15:11:05.272,4,1.74,-2.44,0.71,-473.19,177.48839999999998,-151.686,175,75
2026-05-09 15:11:05.286,4,1.56,-2.67,0.56,-453.68,274.6784,-156.32600000000002,175,75
2026-05-09 15:11:05.294,4,1.33,-2.97,0.61,-402.88,432.5484,-110.46600000000001,175,75
2026-05-09 15:11:05.362,4,0.61,-3.31,3.85,-315.2,251.5784,-437.056,175,75
2026-05-09 15:11:05.396,4,0.23,-3.66,2.93,-225.26,175.1684,-508.88599999999997,175,75
2026-05-09 15:11:05.449,4,-0.45,-2.97,2.47,-176.60000000000002,228.33839999999998,-512.846,175,75
2026-05-09 15:11:05.449,4,-0.58,-2.91,2.36,-181.85000000000002,223.8884,-508.456,175,75
2026-05-09 15:11:05.466,4,-0.78,-2.7,2.16,-196.91000000000003,217.85840000000002,-499.12600000000003,175,75
2026-05-09 15:11:05.467,4,-0.91,-2.44,1.96,-206.97000000000003,217.85840000000002,-489.37600000000003,175,75
2026-05-09 15:11:05.478,4,-0.97,-2.13,1.72,-211.77999999999997,236.8784,-485.896,175,75
2026-05-09 15:11:05.491,4,-0.92,-1.74,1.5,-204.22000000000003,258.3984,-487.236,175,75
2026-05-09 15:11:05.502,4,-0.89,-1.39,1.52,-180.44,227.60840000000002,-484.31600000000003,175,75
2026-05-09 15:11:05.514,4,-0.84,-1.12,1.58,-159.76999999999998,213.8284,-468.766,175,75
2026-05-09 15:11:05.527,4,-0.67,-0.89,1.69,-158.07,175.9684,-436.076,175,75
2026-05-09 15:11:05.543,4,-0.78,-0.67,1.61,-172.7,104.98839999999998,-400.046,175,75
2026-05-09 15:11:05.556,4,-1.02,-0.55,1.2,-182.14999999999998,53.708400000000005,-394.616,175,75
2026-05-09 15:11:05.578,4,-1.02,-0.46,1.12,-188.19,48.468399999999995,-398.706,175,75
2026-05-09 15:11:05.606,4,-0.98,-0.05,1.22,-163.19,33.5884,-346.266,175,75
2026-05-09 15:11:05.606,4,-1.06,0.01,1.26,-156.60000000000002,19.138399999999997,-332.906,175,75
2026-05-09 15:11:05.627,4,-1.13,0.06,1.29,-152.7,4.318400000000004,-328.276,175,75
2026-05-09 15:11:05.667,4,-1.27,0.39,1.29,-146.42000000000002,-2.2715999999999994,-256.50600000000003,175,75
2026-05-09 15:11:05.687,4,-1.19,0.42,1.33,-144.64999999999998,11.578400000000002,-236.32600000000002,175,75
2026-05-09 15:11:05.687,4,-1.14,0.44,1.38,-140.81,17.178400000000003,-219.73600000000002,175,75
2026-05-09 15:11:05.700,4,-1.14,0.5,1.49,-128.92000000000002,17.608400000000003,-196.936,175,75
2026-05-09 15:11:05.710,4,-1.15,0.58,1.6,-114.04,15.778400000000005,-178.276,175,75
2026-05-09 15:11:05.734,4,-1.08,0.65,1.66,-100.14,9.928400000000003,-164.856,175,75
2026-05-09 15:11:05.762,4,-0.96,0.79,1.71,-80.93,-37.0216,-144.376,175,75
2026-05-09 15:11:05.793,4,-1.03,1.01,1.67,-19.410000000000004,-64.2216,-50.166000000000004,175,75
2026-05-09 15:11:05.814,4,-1.07,1.04,1.75,-5.140000000000001,-57.1416,-20.226000000000003,175,75
2026-05-09 15:11:05.814,4,-1.09,1.08,1.84,7.479999999999999,-57.6316,4.833999999999999,175,75
2026-05-09 15:11:05.839,4,-1.08,1.14,1.95,27.240000000000002,-70.38159999999999,36.354,175,75
2026-05-09 15:11:05.850,4,-0.95,1.26,2.09,66.33,-131.8416,93.924,175,75
2026-05-09 15:11:05.873,4,-0.78,1.2,1.99,93.52,-266.66159999999996,149.654,175,75
2026-05-09 15:11:05.899,4,-0.75,1.16,1.87,108.22,-308.8516,173.374,175,75
2026-05-09 15:11:05.899,4,-0.72,1.07,1.71,141.87,-331.4116,214.10399999999998,175,75
2026-05-09 15:11:05.921,4,-0.69,0.89,1.6,181.81,-322.9416,264.654,175,75
2026-05-09 15:11:05.933,4,-0.62,0.67,1.58,215.11,-299.22159999999997,320.324,175,75
2026-05-09 15:11:05.944,4,-0.48,0.35,1.57,243.08999999999997,-281.41159999999996,384.164,175,75
2026-05-09 15:11:05.956,4,-0.4,0.09,1.55,261.45,-284.34159999999997,425.93399999999997,175,75
2026-05-09 15:11:05.966,4,-0.4,-0.29,1.51,288.03000000000003,-285.2516,473.43399999999997,175,75
2026-05-09 15:11:05.970,4,-0.46,-0.61,1.49,310.65000000000003,-274.1016,513.984,175,75
2026-05-09 15:11:05.982,4,-0.56,-1.03,1.48,329.43,-246.4116,565.504,175,75
2026-05-09 15:11:05.993,4,-0.62,-1.52,1.61,329.13,-195.3816,619.654,175,75
2026-05-09 15:11:06.019,4,-0.5,-2.33,2.3,331.81,-279.5816,730.504,175,75
2026-05-09 15:11:06.029,4,-0.97,-2.64,2.51,347.42,-375.4416,779.954,175,75
2026-05-09 15:11:06.051,4,-1.82,-3.71,2.61,310.90000000000003,-461.2316,861.724,175,75
2026-05-09 15:11:06.068,4,-2.84,-5.61,2.37,285.29,-579.5816,777.0939999999999,175,75
2026-05-09 15:11:06.080,4,-3.3,-5.91,1.9,282.61,-556.2316,649.534,175,75
2026-05-09 15:11:06.129,4,-0.82,-3.78,0.73,244.56,-443.0616,167.884,175,75
2026-05-09 15:11:06.139,4,-0.7,-3.22,0.62,273.34000000000003,-415.4416,117.154,175,75
2026-05-09 15:11:06.154,4,-0.66,-2.97,0.64,290.35,-387.2716,83.79400000000001,175,75
2026-05-09 15:11:06.167,4,-0.63,-2.84,0.68,280.23,-366.0516,45.263999999999996,175,75
2026-05-09 15:11:06.179,4,-0.68,-2.67,0.65,244.86,-349.3416,5.443999999999999,175,75
2026-05-09 15:11:06.179,4,-0.63,-2.51,0.52,201.14,-328.0616,-36.266,175,75
2026-05-09 15:11:06.193,4,-0.49,-2.23,0.27,160.29000000000002,-305.3216,-89.73599999999999,175,75
2026-05-09 15:11:06.207,4,-0.41,-1.97,0.11,156.75,-294.5816,-127.17600000000002,175,75
2026-05-09 15:11:06.217,4,-0.26,-1.65,-0.0,182.24,-290.8016,-176.20600000000002,175,75
2026-05-09 15:11:06.239,4,-0.06,-1.01,0.07,283.89,-360.6816,-275.596,175,75
2026-05-09 15:11:06.257,4,0.68,-0.1,0.79,224.92000000000002,-477.1416,-81.99600000000001,175,75
2026-05-09 15:11:06.268,4,-0.26,0.3,0.42,167.06,-487.1416,-4.006,175,75
2026-05-09 15:11:06.278,4,-0.88,0.25,-0.04,159.19,-458.5516,-53.216,175,75
2026-05-09 15:11:06.290,4,-0.96,0.08,-0.37,169.8,-430.5616,-117.17599999999999,175,75
2026-05-09 15:11:06.301,4,-1.03,0.09,-0.49,167.67000000000002,-420.8016,-123.096,175,75
2026-05-09 15:11:06.312,4,-1.27,0.32,-0.62,147.73000000000002,-394.0316,-99.49600000000001,175,75
2026-05-09 15:11:06.323,4,-1.44,0.56,-0.76,120.17,-353.3616,-76.326,175,75
2026-05-09 15:11:06.334,4,-1.38,0.9,-1.02,79.62,-287.5116,-65.286,175,75
2026-05-09 15:11:06.358,4,-0.73,1.18,-0.94,11.14,-174.0316,-3.8260000000000005,175,75
2026-05-09 15:11:06.385,4,-0.74,1.18,-0.79,-11.240000000000002,-105.0116,33.064,175,75
2026-05-09 15:11:06.385,4,-0.58,1.04,-0.51,-24.22,-48.971599999999995,42.094,175,75
2026-05-09 15:11:06.398,4,-0.39,0.92,-0.28,-37.21,-38.181599999999996,29.593999999999998,175,75
2026-05-09 15:11:06.415,4,-0.76,1.3,-0.04,-107.21,-160.6216,30.444,175,75
2026-05-09 15:11:06.424,4,-0.98,1.34,-0.14,-118.74,-204.6416,30.564,175,75
2026-05-09 15:11:06.435,4,0.07,0.89,-0.86,-136.05,-136.4116,31.233999999999998,175,75
2026-05-09 15:11:06.460,4,-0.01,0.21,-0.24,-162.20999999999998,135.1684,95.934,175,75
2026-05-09 15:11:06.518,4,0.38,-0.91,0.43,-240.93,12.488399999999999,95.50399999999999,175,75
2026-05-09 15:11:06.558,4,0.77,-0.85,0.23,-282.82,-1.7815999999999974,55.074,175,75
2026-05-09 15:11:06.591,4,0.87,-1.1,0.02,-278.49,63.2784,78.554,175,75
2026-05-09 15:11:06.619,4,0.61,-1.44,0.15,-284.03999999999996,186.3884,94.774,175,75
2026-05-09 15:11:06.641,4,1.03,-1.67,0.73,-325.2,283.7084,58.614,175,75
2026-05-09 15:11:06.655,4,1.06,-1.64,0.98,-328.19,242.3084,3.4339999999999993,175,75
2026-05-09 15:11:06.655,4,1.14,-1.59,1.1,-328.97999999999996,253.39839999999998,-9.856000000000002,175,75
2026-05-09 15:11:06.674,4,1.13,-1.44,1.41,-339.21999999999997,280.8384,-42.296,175,75
2026-05-09 15:11:06.686,4,1.17,-1.41,1.47,-335.99,287.2484,-87.846,175,75
2026-05-09 15:11:06.697,4,1.18,-1.44,1.43,-340.5,316.4484,-158.946,175,75
2026-05-09 15:11:06.727,4,1.05,-1.62,1.5,-345.44,373.2784,-188.156,175,75
2026-05-09 15:11:06.748,4,0.58,-1.97,1.96,-326.24,314.3184,-261.016,175,75
2026-05-09 15:11:06.758,4,0.33,-2.22,2.06,-285.26,259.5584,-290.776,175,75
2026-05-09 15:11:06.774,4,0.29,-2.53,2.17,-277.39,204.3184,-330.536,175,75
2026-05-09 15:11:06.787,4,-0.06,-2.47,2.18,-329.59,152.9784,-379.926,175,75
2026-05-09 15:11:06.811,4,-0.24,-2.0,2.01,-333.13,160.5384,-419.926,175,75
2026-05-09 15:11:06.822,4,-0.22,-1.64,1.91,-313.55,169.6184,-448.396,175,75
2026-05-09 15:11:06.835,4,0.03,-1.0,1.92,-276.78,157.3684,-434.856,175,75
2026-05-09 15:11:06.847,4,-0.08,-0.71,1.86,-270.2,151.20839999999998,-392.056,175,75
2026-05-09 15:11:06.856,4,-0.23,-0.56,1.77,-256.96999999999997,160.4184,-372.726,175,75
2026-05-09 15:11:06.884,4,-0.47,-0.33,1.79,-221.24,158.5884,-359.25600000000003,175,75
2026-05-09 15:11:06.912,4,-0.53,0.4,2.01,-182.32999999999998,118.2184,-323.646,175,75
2026-05-09 15:11:06.922,4,-0.61,0.57,1.99,-175.69,107.54839999999999,-304.796,175,75
2026-05-09 15:11:06.948,4,-0.68,0.79,1.93,-140.38,98.1584,-272.546,175,75
2026-05-09 15:11:06.971,4,-0.79,0.92,1.97,-119.10000000000001,90.16839999999999,-241.26600000000002,175,75
2026-05-09 15:11:06.983,4,-0.88,1.0,2.01,-109.83,83.0384,-216.506,175,75
2026-05-09 15:11:07.001,4,-0.99,1.14,2.02,-90.87,58.76840000000001,-182.48600000000002,175,75
2026-05-09 15:11:07.008,4,-1.01,1.22,2.0,-80.26,40.4184,-163.76600000000002,175,75
2026-05-09 15:11:07.025,4,-1.04,1.28,1.95,-71.66,25.288400000000003,-145.286,175,75
2026-05-09 15:11:07.031,4,-1.09,1.31,1.91,-63.86,17.248400000000004,-129.186,175,75
2026-05-09 15:11:07.044,4,-1.2,1.33,1.85,-48.68000000000001,16.8784,-104.006,175,75
2026-05-09 15:11:07.107,4,-1.22,1.2,1.84,20.9,0.41839999999999833,-2.7860000000000014,175,75
2026-05-09 15:11:07.118,4,-1.28,1.13,1.76,56.63,-56.6016,31.784,175,75
2026-05-09 15:11:07.129,4,-1.25,1.07,1.68,68.75999999999999,-77.2716,46.664,175,75
2026-05-09 15:11:07.140,4,-1.13,0.92,1.59,84.62,-109.4016,56.724,175,75
2026-05-09 15:11:07.169,4,-1.01,0.75,1.42,113.09,-161.1116,73.614,175,75
2026-05-09 15:11:07.181,4,-0.97,0.69,1.32,123.34,-176.60160000000002,82.214,175,75
2026-05-09 15:11:07.219,4,-0.87,0.73,1.06,146.2,-156.4716,100.684,175,75
2026-05-09 15:11:07.229,4,-0.72,0.92,1.17,162.61,-135.3816,126.54400000000001,175,75
2026-05-09 15:11:07.229,4,-0.61,1.09,1.29,192.0,-139.6416,169.594,175,75
2026-05-09 15:11:07.240,4,-0.57,1.11,1.35,225.47000000000003,-163.3616,202.70399999999998,175,75
2026-05-09 15:11:07.266,4,-0.53,0.52,1.32,347.0,-175.1916,306.544,175,75
2026-05-09 15:11:07.266,4,-0.49,0.12,1.25,373.58000000000004,-193.0016,333.734,175,75
2026-05-09 15:11:07.279,4,-0.45,-0.29,1.12,388.82,-213.5516,353.734,175,75
2026-05-09 15:11:07.292,4,-0.48,-0.53,1.06,397.67,-221.9616,369.104,175,75
2026-05-09 15:11:07.304,4,-0.54,-0.67,1.04,414.13,-220.4416,396.424,175,75
2026-05-09 15:11:07.322,4,-0.66,-0.93,1.26,497.67,-178.3616,497.094,175,75
2026-05-09 15:11:07.350,4,-0.51,-2.31,2.07,592.24,-197.6916,776.604,175,75
2026-05-09 15:11:07.370,4,-0.87,-3.55,3.19,657.36,-523.7916,855.144,175,75
2026-05-09 15:11:07.380,4,-3.49,-6.63,3.96,664.5,-719.4015999999999,789.5939999999999,175,75
2026-05-09 15:11:07.411,4,-4.43,-8.73,2.91,464.74,-781.2915999999999,523.374,175,75
2026-05-09 15:11:07.463,4,-2.02,-4.22,0.0,404.37,-404.3416,-28.576,175,75
2026-05-09 15:11:07.473,4,-2.13,-3.73,0.39,466.26,-338.3016,-14.066000000000003,175,75
2026-05-09 15:11:07.486,4,-1.88,-4.22,1.06,538.03,-319.71160000000003,39.164,175,75
2026-05-09 15:11:07.499,4,-1.93,-5.24,1.83,531.9300000000001,-421.2316,78.554,175,75
2026-05-09 15:11:07.513,4,-2.27,-5.63,2.14,452.61,-543.3616,56.424,175,75
2026-05-09 15:11:07.524,4,-2.91,-5.31,2.01,306.75,-647.4516,-28.945999999999998,175,75
2026-05-09 15:11:07.524,4,-3.37,-4.56,1.38,144.01,-667.8815999999999,-168.39600000000002,175,75
2026-05-09 15:11:07.557,4,-3.34,-3.06,-0.21,63.46,-654.9516,-365.596,175,75
2026-05-09 15:11:07.576,4,-3.28,-1.5,-1.02,106.57,-379.6416,-416.93600000000004,175,75
2026-05-09 15:11:07.590,4,-2.9,-0.85,-1.2,146.51,-238.1816,-413.276,175,75
2026-05-09 15:11:07.590,4,-2.61,-0.49,-1.22,200.17000000000002,-156.5316,-408.516,175,75
2026-05-09 15:11:07.638,4,-1.67,0.11,-0.37,388.34000000000003,-160.3216,-295.106,175,75
2026-05-09 15:11:07.651,4,-1.99,0.95,0.01,141.2,-271.72159999999997,65.934,175,75
2026-05-09 15:11:07.686,4,-1.78,0.56,-0.48,216.26,61.9984,39.224000000000004,175,75
2026-05-09 15:11:07.700,4,-1.89,0.73,0.02,187.06,41.878400000000006,128.494,175,75
2026-05-09 15:11:07.722,4,-1.52,0.7,0.15,136.63,-6.351599999999998,121.904,175,75
2026-05-09 15:11:07.722,4,-1.08,0.67,0.35,95.29,-136.4716,114.28399999999999,175,75
2026-05-09 15:11:07.731,4,-0.78,0.5,-0.07,54.8,-292.1416,68.614,175,75
2026-05-09 15:11:07.748,4,-0.97,0.48,-0.53,31.509999999999998,-312.3316,20.683999999999997,175,75
2026-05-09 15:11:07.761,4,-1.44,0.83,-0.87,12.12,-237.6316,48.924,175,75
2026-05-09 15:11:07.770,4,-3.24,1.55,-0.35,1.3899999999999988,-49.5216,150.384,175,75
2026-05-09 15:11:07.777,4,-1.35,1.1,-1.08,47.0,436.9984,108.374,175,75
2026-05-09 15:11:07.786,4,1.07,0.6,-0.57,-3.370000000000001,409.0784,243.434,175,75
2026-05-09 15:11:07.800,4,0.85,0.85,1.23,-18.07,316.5084,264.164,175,75
2026-05-09 15:11:07.821,4,0.54,0.69,1.99,-26.85,-210.2516,116.174,175,75
2026-05-09 15:11:07.833,4,0.05,0.36,0.64,-73.98,-377.6316,54.403999999999996,175,75
2026-05-09 15:11:07.861,4,0.3,0.05,-0.69,-89.89,-36.471599999999995,181.48399999999998,175,75
2026-05-09 15:11:07.877,4,0.84,-0.23,-0.54,-122.64,113.94839999999999,196.054,175,75
2026-05-09 15:11:07.904,4,1.45,-0.51,-0.22,-170.32,233.46839999999997,199.894,175,75
2026-05-09 15:11:07.904,4,1.67,-0.64,0.01,-178.37,270.9684,190.26399999999998,175,75
2026-05-09 15:11:07.927,4,1.62,-0.67,0.42,-181.97000000000003,285.1684,176.784,175,75
2026-05-09 15:11:07.947,4,2.46,-0.93,0.95,-243.19,135.7184,59.594,175,75
2026-05-09 15:11:07.972,4,2.74,-1.09,0.69,-253.37,85.7184,25.073999999999998,175,75
2026-05-09 15:11:08.026,4,2.68,-2.07,1.17,-333.68,506.20840000000004,-131.26600000000002,175,75
2026-05-09 15:11:08.092,4,0.73,-2.61,1.27,-333.31,324.3184,-418.826,175,75
2026-05-09 15:11:08.103,4,0.46,-3.07,1.27,-285.38,306.1484,-406.146,175,75
2026-05-09 15:11:08.124,4,-0.8,-3.25,1.6,-284.40999999999997,218.39839999999998,-386.386,175,75
2026-05-09 15:11:08.144,4,-1.28,-2.54,1.72,-309.03999999999996,285.53839999999997,-427.846,175,75
2026-05-09 15:11:08.144,4,-1.16,-1.9,1.81,-310.87,291.9984,-478.826,175,75
2026-05-09 15:11:08.166,4,-0.78,-1.22,1.92,-296.47999999999996,234.4984,-476.62600000000003,175,75
2026-05-09 15:11:08.191,4,-0.8,-0.5,1.74,-274.40999999999997,75.2284,-379.926,175,75
2026-05-09 15:11:08.233,4,-0.92,-0.46,1.41,-256.47999999999996,86.0284,-371.56600000000003,175,75
2026-05-09 15:11:08.246,4,-0.91,-0.37,1.4,-245.38,105.6584,-357.176,175,75
2026-05-09 15:11:08.356,4,-1.24,0.21,1.44,-138.86,-24.641599999999997,-302.296,175,75
2026-05-09 15:11:08.381,4,-1.15,0.49,1.42,-138.25,3.828400000000002,-264.986,175,75
2026-05-09 15:11:08.445,4,-1.15,0.96,1.68,-78.55,82.9784,-170.716,175,75
2026-05-09 15:11:08.461,4,-1.08,1.02,1.8,-59.349999999999994,90.5384,-145.776,175,75
2026-05-09 15:11:08.461,4,-1.02,1.06,1.87,-44.53,81.26840000000001,-126.14600000000002,175,75
2026-05-09 15:11:08.498,4,-1.01,1.15,1.95,3.58,6.508400000000002,-64.126,175,75
2026-05-09 15:11:08.499,4,-1.08,1.22,1.97,14.43,-9.711599999999997,-40.656,175,75
2026-05-09 15:11:08.510,4,-1.1,1.3,2.0,24.619999999999997,-15.2516,-15.106000000000002,175,75
2026-05-09 15:11:08.521,4,-1.0,1.37,2.03,36.14,-24.101599999999998,16.604,175,75
2026-05-09 15:11:08.531,4,-0.8,1.4,2.02,53.519999999999996,-95.9916,82.334,175,75
2026-05-09 15:11:08.576,4,-0.78,1.2,1.94,77.97,-147.9416,147.034,175,75
2026-05-09 15:11:08.588,4,-0.74,1.08,1.89,84.13,-166.6016,172.70399999999998,175,75
2026-05-09 15:11:08.588,4,-0.71,0.97,1.85,94.37,-191.4116,203.79399999999998,175,75
2026-05-09 15:11:08.600,4,-0.68,0.89,1.79,117.48,-222.4516,241.60399999999998,175,75
2026-05-09 15:11:08.639,4,-0.97,0.09,1.59,242.54000000000002,-307.9416,424.464,175,75
2026-05-09 15:11:08.639,4,-1.0,-0.41,1.5,293.7,-300.6816,487.394,175,75
2026-05-09 15:11:08.654,4,-1.03,-0.91,1.43,334.8,-293.7316,549.044,175,75
2026-05-09 15:11:08.704,4,-2.0,-3.26,2.15,479.31,-603.0015999999999,708.124,175,75
2026-05-09 15:11:08.726,4,-2.75,-4.63,1.65,450.53000000000003,-576.4716,588.434,175,75
2026-05-09 15:11:08.727,4,-2.72,-5.14,1.25,453.52000000000004,-553.0616,511.484,175,75
2026-05-09 15:11:08.760,4,-1.99,-6.4,0.83,657.91,-576.3516,486.234,175,75
2026-05-09 15:11:08.768,4,-2.44,-6.65,1.24,690.72,-599.5816,490.264,175,75
2026-05-09 15:11:08.768,4,-2.93,-6.93,1.62,630.11,-571.2915999999999,429.594,175,75
2026-05-09 15:11:08.787,4,-2.72,-6.89,1.54,501.51,-516.6016,323.49399999999997,175,75
2026-05-09 15:11:08.808,4,-0.8,-3.97,-0.33,233.82,-363.9116,106.904,175,75
2026-05-09 15:11:08.819,4,-0.94,-2.5,-0.36,320.04,-133.9716,43.124,175,75
2026-05-09 15:11:08.831,4,-0.56,-2.47,-0.11,333.40000000000003,-65.32159999999999,25.933999999999997,175,75
2026-05-09 15:11:08.842,4,-0.06,-2.34,0.52,282.67,-35.681599999999996,6.963999999999999,175,75
2026-05-09 15:11:08.866,4,-0.05,-2.06,0.69,247.61,-90.5016,-21.816000000000003,175,75
2026-05-09 15:11:08.866,4,-0.08,-1.84,0.65,227.18,-141.7816,-54.436,175,75
2026-05-09 15:11:08.877,4,-0.03,-1.61,0.54,218.57999999999998,-178.2416,-87.786,175,75
2026-05-09 15:11:08.877,4,0.07,-1.36,0.38,225.52999999999997,-218.73160000000001,-122.17600000000002,175,75
2026-05-09 15:11:08.898,4,0.15,-1.08,0.23,247.36,-270.2516,-159.556,175,75
2026-05-09 15:11:08.911,4,0.76,0.27,0.53,229.98000000000002,-484.2216,-8.946000000000002,175,75
2026-05-09 15:11:08.921,4,0.08,0.67,0.28,212.67000000000002,-524.4016,10.264,175,75
2026-05-09 15:11:08.929,4,-0.31,0.8,-0.04,217.91000000000003,-509.2216,-63.156,175,75
2026-05-09 15:11:08.946,4,-0.32,0.62,-0.29,215.17000000000002,-495.9216,-101.386,175,75
2026-05-09 15:11:08.951,4,-0.54,0.43,-0.54,198.22000000000003,-488.3016,-78.51599999999999,175,75
2026-05-09 15:11:08.972,4,-0.74,0.34,-0.81,163.95,-490.7416,-75.536,175,75
2026-05-09 15:11:08.993,4,-1.09,0.86,-0.8,-11.54,-447.5116,-75.226,175,75
2026-05-09 15:11:09.017,4,-0.19,1.29,-0.96,-87.94,-369.8316,-42.356,175,75
2026-05-09 15:11:09.032,4,-0.86,1.37,-0.78,-85.5,-407.21160000000003,-2.3560000000000016,175,75
2026-05-09 15:11:09.032,4,-1.14,1.21,-0.88,-78.19,-299.7716,-31.386000000000003,175,75
2026-05-09 15:11:09.047,4,-0.03,0.84,-1.32,-95.75,-265.6816,-26.566000000000003,175,75
2026-05-09 15:11:09.074,4,-0.53,1.13,-0.77,-151.77999999999997,147.9184,45.814,175,75
2026-05-09 15:11:09.087,4,-0.22,0.68,-0.31,-146.3,198.9484,49.224,175,75
2026-05-09 15:11:09.109,4,0.02,0.12,0.4,-199.76999999999998,89.19839999999999,53.614,175,75
2026-05-09 15:11:09.145,4,0.47,-0.5,0.24,-265.69,-140.3216,10.994,175,75
2026-05-09 15:11:09.145,4,0.43,-0.51,0.07,-279.53,-146.9616,16.784,175,75
2026-05-09 15:11:09.157,4,0.41,-0.54,-0.06,-287.76,-101.2316,36.604,175,75
2026-05-09 15:11:09.210,4,0.76,-1.61,-0.0,-345.02,214.7484,69.894,175,75
2026-05-09 15:11:09.233,4,0.64,-1.8,0.16,-359.15999999999997,257.4284,73.79400000000001,175,75
2026-05-09 15:11:09.247,4,0.58,-1.92,0.5,-377.15,308.6484,73.554,175,75
2026-05-09 15:11:09.247,4,0.7,-1.97,0.87,-394.46999999999997,325.8984,60.204,175,75
2026-05-09 15:11:09.259,4,1.01,-2.05,1.18,-405.08,296.3884,28.794,175,75
2026-05-09 15:11:09.269,4,1.4,-2.32,1.58,-397.39,160.89839999999998,-33.766,175,75
2026-05-09 15:11:09.280,4,1.15,-2.56,1.37,-393.31,125.2884,-51.326,175,75
2026-05-09 15:11:09.296,4,1.17,-2.53,1.08,-421.41999999999996,211.8184,-69.126,175,75
2026-05-09 15:11:09.316,4,1.02,-2.5,1.1,-423.97999999999996,256.0284,-95.166,175,75
2026-05-09 15:11:09.328,4,1.0,-2.51,1.2,-419.77,307.2484,-120.166,175,75
2026-05-09 15:11:09.338,4,1.08,-2.6,1.36,-415.81,340.3584,-152.786,175,75
2026-05-09 15:11:09.338,4,1.06,-2.75,1.54,-416.65999999999997,355.3584,-186.446,175,75
2026-05-09 15:11:09.360,4,0.97,-2.95,1.85,-419.28,392.1184,-220.776,175,75
2026-05-09 15:11:09.364,4,0.95,-3.22,2.23,-420.75,382.0584,-261.56600000000003,175,75
2026-05-09 15:11:09.384,4,0.51,-3.4,2.38,-429.96,316.4484,-287.296,175,75
2026-05-09 15:11:09.394,4,0.0,-3.53,2.41,-443.19,235.96839999999997,-311.87600000000003,175,75
2026-05-09 15:11:09.417,4,-0.88,-3.46,2.25,-410.08,216.02839999999998,-435.536,175,75
2026-05-09 15:11:09.436,4,-0.84,-3.14,2.2,-405.08,261.9384,-490.466,175,75
2026-05-09 15:11:09.443,4,-0.39,-2.13,2.35,-377.15,282.78839999999997,-552.176,175,75
2026-05-09 15:11:09.463,4,-0.6,-1.23,2.5,-322.21,222.60840000000002,-496.87600000000003,175,75
2026-05-09 15:11:09.476,4,-0.77,-0.89,2.47,-306.41999999999996,194.4984,-474.496,175,75
2026-05-09 15:11:09.490,4,-0.75,-0.64,2.38,-298.55,158.70839999999998,-457.296,175,75
2026-05-09 15:11:09.531,4,-0.98,0.0,1.99,-285.44,139.4984,-354.00600000000003,175,75
2026-05-09 15:11:09.552,4,-1.23,0.55,2.41,-195.01999999999998,162.2484,-294.31600000000003,175,75
2026-05-09 15:11:09.580,4,-1.42,0.83,2.49,-165.38,48.098400000000005,-252.176,175,75
2026-05-09 15:11:09.595,4,-1.62,0.89,2.42,-140.81,-24.5216,-221.386,175,75
2026-05-09 15:11:09.633,4,-1.59,1.0,1.93,-101.66,-117.0216,-134.436,175,75
2026-05-09 15:11:09.644,4,-1.6,1.03,1.78,-83.43,-126.8416,-94.98599999999999,175,75
2026-05-09 15:11:09.644,4,-1.64,0.99,1.67,-56.540000000000006,-126.7816,-60.466,175,75
2026-05-09 15:11:09.660,4,-1.66,0.91,1.6,-23.740000000000002,-117.57159999999999,-26.566000000000003,175,75
2026-05-09 15:11:09.686,4,-1.65,0.76,1.58,19.07,-153.7916,33.184,175,75
2026-05-09 15:11:09.698,4,-1.59,0.71,1.51,34.620000000000005,-183.4916,53.854,175,75
2026-05-09 15:11:09.753,4,-1.47,0.21,0.95,163.82,-267.1416,172.944,175,75
2026-05-09 15:11:09.771,4,-1.31,0.15,0.9,189.43,-239.3416,204.594,175,75
2026-05-09 15:11:09.781,4,-1.12,0.05,0.83,211.2,-215.01160000000002,241.784,175,75
2026-05-09 15:11:09.794,4,-0.99,-0.07,0.8,228.08999999999997,-196.6616,281.904,175,75
2026-05-09 15:11:09.804,4,-0.95,-0.24,0.84,247.48000000000002,-158.6716,341.484,175,75
2026-05-09 15:11:09.838,4,-0.95,-0.42,0.95,259.98,-110.1916,387.824,175,75
2026-05-09 15:11:09.869,4,-0.67,-1.39,1.4,274.86,-30.3816,622.644,175,75
2026-05-09 15:11:09.869,4,-0.59,-1.96,1.59,284.74,-78.0016,736.174,175,75
2026-05-09 15:11:09.890,4,-0.69,-2.74,1.97,311.57,-207.4516,807.334,175,75
2026-05-09 15:11:09.935,4,-2.28,-4.86,2.39,306.26,-229.10160000000002,861.054,175,75
2026-05-09 15:11:09.935,4,-2.54,-5.54,2.43,237.67000000000002,-168.1216,802.764,175,75
2026-05-09 15:11:09.970,4,-1.64,-6.59,1.33,213.76,-148.4916,765.874,175,75
2026-05-09 15:11:09.981,4,-1.96,-6.74,1.31,292.97,-151.5316,753.434,175,75
2026-05-09 15:11:09.992,4,-2.16,-6.7,1.45,302.0,-66.1716,643.064,175,75
2026-05-09 15:11:10.012,4,-1.52,-5.29,1.96,224.98000000000002,-57.2716,414.044,175,75
2026-05-09 15:11:10.024,4,-1.1,-4.34,2.02,172.54000000000002,-133.3016,338.24399999999997,175,75
2026-05-09 15:11:10.038,4,-0.87,-3.82,1.91,126.63,-200.2516,306.424,175,75
2026-05-09 15:11:10.038,4,-1.03,-3.22,1.59,71.45,-277.6316,284.404,175,75
2026-05-09 15:11:10.050,4,-1.11,-2.81,1.19,33.76,-250.5616,245.624,175,75
2026-05-09 15:11:10.060,4,-0.62,-2.81,1.0,34.56,-239.6416,190.744,175,75
2026-05-09 15:11:10.074,4,-0.04,-2.64,0.84,101.45,-293.1216,128.004,175,75
2026-05-09 15:11:10.085,4,-0.09,-2.26,0.68,136.39,-310.0116,60.814,175,75
2026-05-09 15:11:10.095,4,-0.06,-1.5,0.39,173.45999999999998,-322.9416,-93.096,175,75
2026-05-09 15:11:10.107,4,0.08,-1.05,0.2,211.93,-331.96160000000003,-181.936,175,75
2026-05-09 15:11:10.125,4,2.33,0.07,1.02,206.39,-430.9916,-68.036,175,75
2026-05-09 15:11:10.125,4,0.34,1.14,0.39,142.42000000000002,-522.3915999999999,126.114,175,75
2026-05-09 15:11:10.137,4,-0.3,1.34,-0.13,169.07,-452.8816,-3.216000000000001,175,75
2026-05-09 15:11:10.147,4,0.33,1.07,-0.37,175.41000000000003,-343.6716,-24.496000000000002,175,75
2026-05-09 15:11:10.158,4,0.36,0.92,-0.73,176.14,-227.0216,31.113999999999997,175,75
2026-05-09 15:11:10.173,4,0.33,0.78,-0.8,167.61,-148.1816,19.284,175,75
2026-05-09 15:11:10.189,4,0.24,0.92,-0.54,82.91,-58.8516,6.543999999999999,175,75
2026-05-09 15:11:10.199,4,0.24,1.01,-0.46,61.69,-41.9016,-0.9560000000000013,175,75
2026-05-09 15:11:10.210,4,0.28,0.99,-0.38,43.83,-32.8816,-4.256,175,75
2026-05-09 15:11:10.222,4,0.32,0.88,-0.36,25.11,-30.3816,-7.116000000000001,175,75
2026-05-09 15:11:10.233,4,0.26,0.76,-0.26,0.41000000000000014,-26.7216,-9.736,175,75
2026-05-09 15:11:10.247,4,0.23,0.75,-0.08,-30.200000000000003,-20.8616,-11.746000000000002,175,75
2026-05-09 15:11:10.264,4,0.27,0.84,0.1,-52.459999999999994,-40.1316,-10.836000000000002,175,75
2026-05-09 15:11:10.268,4,0.32,0.95,0.27,-72.46,-74.8316,-11.686,175,75
2026-05-09 15:11:10.291,4,0.55,0.84,0.34,-85.14,-131.7216,-26.996000000000002,175,75
2026-05-09 15:11:10.291,4,0.48,0.62,0.25,-96.66,-212.8816,-66.326,175,75
2026-05-09 15:11:10.313,4,0.37,0.86,-0.0,-145.26,-253.79160000000002,-98.096,175,75
2026-05-09 15:11:10.325,4,-1.02,1.28,0.24,-179.52999999999997,-333.3616,-35.046,175,75
2026-05-09 15:11:10.337,4,1.2,0.79,-0.72,-142.51999999999998,-10.991599999999998,-123.156,175,75
2026-05-09 15:11:10.376,4,1.2,0.06,0.92,-166.91000000000003,136.9984,-2.1160000000000014,175,75
2026-05-09 15:11:10.390,4,1.2,-1.26,0.79,-195.2,-77.63159999999999,-75.71600000000001,175,75
2026-05-09 15:11:10.400,4,1.18,-1.3,1.0,-241.36,-56.721599999999995,-91.14600000000002,175,75
2026-05-09 15:11:10.412,4,1.41,-1.24,1.11,-288.97999999999996,-6.901599999999995,-99.126,175,75
2026-05-09 15:11:10.422,4,1.92,-1.4,1.07,-317.76,26.028399999999998,-141.26600000000002,175,75
2026-05-09 15:11:10.460,4,1.56,-2.21,1.12,-302.27,262.78839999999997,-166.14600000000002,175,75
2026-05-09 15:11:10.467,4,1.46,-2.33,1.69,-320.14,340.6584,-182.846,175,75
2026-05-09 15:11:10.477,4,1.79,-2.64,2.62,-293.61,208.9484,-272.666,175,75
2026-05-09 15:11:10.490,4,1.45,-2.98,2.74,-294.59,149.8084,-298.096,175,75
2026-05-09 15:11:10.557,4,1.38,-2.98,2.67,-312.82,136.0884,-335.596,175,75
2026-05-09 15:11:10.557,4,1.23,-2.85,2.53,-323.97999999999996,144.4384,-363.036,175,75
2026-05-09 15:11:10.567,4,1.17,-2.74,2.45,-320.75,163.5884,-376.87600000000003,175,75
2026-05-09 15:11:10.567,4,1.02,-2.77,2.36,-307.76,180.4784,-392.726,175,75
2026-05-09 15:11:10.583,4,0.95,-2.83,2.21,-302.33,206.20839999999998,-408.036,175,75
2026-05-09 15:11:10.605,4,0.43,-3.0,2.31,-287.46,190.6584,-454.676,175,75
2026-05-09 15:11:10.678,4,0.07,-2.97,2.32,-283.0,170.5384,-487.296,175,75
2026-05-09 15:11:10.713,4,-0.08,-2.8,2.33,-282.94,153.5884,-493.036,175,75
2026-05-09 15:11:10.793,4,-0.58,-1.23,1.84,-282.15,121.63839999999999,-409.31600000000003,175,75
2026-05-09 15:11:10.802,4,-0.74,-1.07,1.86,-283.13,120.2884,-394.496,175,75
2026-05-09 15:11:10.808,4,-0.74,-0.93,1.84,-284.46999999999997,115.10839999999999,-393.396,175,75
2026-05-09 15:11:10.837,4,-0.89,-0.16,1.62,-243.31,95.4784,-321.75600000000003,175,75
2026-05-09 15:11:10.837,4,-0.78,-0.13,1.66,-242.51999999999998,86.0284,-312.356,175,75
2026-05-09 15:11:10.847,4,-0.86,-0.05,1.62,-225.75,55.4784,-297.606,175,75
2026-05-09 15:11:10.859,4,-0.92,-0.0,1.57,-203.86,28.708400000000005,-297.296,175,75
2026-05-09 15:11:10.927,4,-0.99,0.12,1.51,-187.02999999999997,4.618400000000001,-291.076,175,75
2026-05-09 15:11:10.938,4,-1.02,0.2,1.52,-183.55,9.498400000000004,-277.906,175,75
2026-05-09 15:11:10.962,4,-1.04,0.3,1.54,-176.24,21.028399999999998,-256.56600000000003,175,75
2026-05-09 15:11:10.998,4,-1.07,0.42,1.61,-160.44,27.548400000000008,-233.276,175,75
2026-05-09 15:11:11.042,4,-1.14,0.65,1.74,-130.57,13.888400000000004,-203.76600000000002,175,75
2026-05-09 15:11:11.042,4,-1.07,0.83,1.82,-97.88,2.1784000000000034,-176.26600000000002,175,75
2026-05-09 15:11:11.106,4,-1.04,1.03,2.13,-10.629999999999999,62.3684,-60.285999999999994,175,75
2026-05-09 15:11:11.117,4,-1.0,1.27,2.69,45.96,8.7684,7.393999999999999,175,75
2026-05-09 15:11:11.141,4,-0.91,1.14,1.8,171.75,-309.7716,184.404,175,75
2026-05-09 15:11:11.201,4,-0.8,0.54,1.52,232.0,-305.8016,307.884,175,75
2026-05-09 15:11:11.211,4,-0.81,0.26,1.45,256.57,-290.9216,355.324,175,75
2026-05-09 15:11:11.225,4,-0.82,-0.16,1.38,288.58000000000004,-257.7516,408.984,175,75
2026-05-09 15:11:11.225,4,-0.81,-0.59,1.39,316.51,-229.4016,467.274,175,75
2026-05-09 15:11:11.246,4,-1.45,-2.45,1.81,338.46000000000004,-327.6316,760.264,175,75
2026-05-09 15:11:11.292,4,-2.08,-3.1,1.88,324.62,-338.7916,746.9639999999999,175,75
2026-05-09 15:11:11.302,4,-2.41,-3.67,1.8,290.35,-270.9216,698.254,175,75
2026-05-09 15:11:11.312,4,-2.04,-4.34,1.48,226.07999999999998,-189.0316,591.8439999999999,175,75
2026-05-09 15:11:11.312,4,-1.64,-4.74,1.33,237.36,-235.8016,595.264,175,75
2026-05-09 15:11:11.334,4,-1.93,-5.87,1.11,348.22,-286.72159999999997,670.624,175,75
2026-05-09 15:11:11.345,4,-2.05,-5.85,1.13,336.39,-188.79160000000002,617.574,175,75
2026-05-09 15:11:11.359,4,-1.32,-4.92,1.21,223.08999999999997,-105.0116,402.764,175,75
2026-05-09 15:11:11.372,4,-1.17,-3.95,1.12,176.87,-141.7216,322.214,175,75
2026-05-09 15:11:11.385,4,-1.17,-3.37,1.02,158.89,-164.4616,277.274,175,75
2026-05-09 15:11:11.385,4,-1.15,-3.01,0.93,152.24,-171.9616,244.594,175,75
2026-05-09 15:11:11.398,4,-1.04,-2.79,0.9,151.32,-169.4016,211.29399999999998,175,75
2026-05-09 15:11:11.419,4,-0.64,-2.52,1.02,146.63,-140.0116,106.23400000000001,175,75
2026-05-09 15:11:11.430,4,0.08,-2.26,1.23,135.65,-180.9916,-9.926000000000002,175,75
2026-05-09 15:11:11.441,4,0.34,-2.0,1.24,138.51999999999998,-239.5816,-54.856,175,75
2026-05-09 15:11:11.451,4,0.48,-1.53,1.17,150.89999999999998,-327.0816,-98.33600000000001,175,75
2026-05-09 15:11:11.462,4,1.19,-0.96,1.17,182.73000000000002,-413.9716,-92.786,175,75
2026-05-09 15:11:11.487,4,0.31,-0.07,0.44,260.53,-418.6716,28.433999999999997,175,75
2026-05-09 15:11:11.499,4,0.1,0.21,0.5,210.29000000000002,-422.3916,20.014,175,75
2026-05-09 15:11:11.512,4,-0.09,0.41,0.25,194.07,-424.71160000000003,-6.3260000000000005,175,75
2026-05-09 15:11:11.534,4,-0.16,0.57,-0.64,179.68,-437.7516,-59.376,175,75
2026-05-09 15:11:11.534,4,0.09,0.63,-0.97,138.64,-369.40160000000003,-77.11600000000001,175,75
2026-05-09 15:11:11.551,4,-0.01,0.81,-0.98,90.9,-330.8616,-64.436,175,75
2026-05-09 15:11:11.562,4,-0.26,0.92,-1.11,47.120000000000005,-235.2516,-90.106,175,75
2026-05-09 15:11:11.581,4,-0.29,1.27,-0.94,-27.15,-183.85160000000002,-42.056000000000004,175,75
2026-05-09 15:11:11.594,4,-0.47,1.36,-0.95,-58.0,-126.7816,-44.006,175,75
2026-05-09 15:11:11.594,4,-0.92,1.39,-0.53,-73.8,-114.7716,-25.776000000000003,175,75
2026-05-09 15:11:11.606,4,0.67,0.97,-0.91,-77.7,-5.251599999999996,-66.076,175,75
2026-05-09 15:11:11.616,4,0.0,0.52,-0.37,-132.82,-215.8616,-74.256,175,75
2026-05-09 15:11:11.626,4,0.02,0.53,-0.21,-133.43,-144.1016,-87.05600000000001,175,75
2026-05-09 15:11:11.642,4,0.11,0.73,-0.23,-165.57,-77.2716,-33.396,175,75
2026-05-09 15:11:11.653,4,0.18,0.53,-0.28,-178.8,-80.9916,-38.706,175,75
2026-05-09 15:11:11.663,4,0.16,0.15,-0.06,-188.07,-80.0116,-21.686,175,75
2026-05-09 15:11:11.688,4,0.47,-0.71,0.25,-266.90999999999997,-45.3216,9.463999999999999,175,75
2026-05-09 15:11:11.709,4,0.75,-0.84,0.57,-321.84999999999997,-81.41159999999999,-4.986000000000001,175,75
2026-05-09 15:11:11.734,4,0.64,-1.18,0.38,-327.7,-44.9516,-7.176000000000002,175,75
2026-05-09 15:11:11.747,4,0.63,-1.39,0.27,-336.11,-8.671599999999998,-2.296000000000001,175,75
2026-05-09 15:11:11.760,4,0.59,-1.49,0.27,-341.47999999999996,38.15840000000001,6.483999999999999,175,75
2026-05-09 15:11:11.772,4,0.71,-1.66,0.38,-348.13,107.7884,23.374,175,75
2026-05-09 15:11:11.782,4,0.81,-1.78,0.59,-352.27,145.7784,38.123999999999995,175,75
2026-05-09 15:11:11.803,4,1.1,-1.98,1.18,-360.08,111.69839999999999,11.354,175,75
2026-05-09 15:11:11.830,4,0.85,-1.97,1.14,-368.07,85.2884,-37.486000000000004,175,75
2026-05-09 15:11:11.837,4,1.14,-1.99,1.1,-387.09,123.64839999999998,-61.876,175,75
2026-05-09 15:11:11.871,4,1.32,-2.15,1.07,-401.90999999999997,193.4684,-96.816,175,75
2026-05-09 15:11:11.871,4,1.27,-2.32,1.24,-415.14,281.9984,-109.316,175,75
2026-05-09 15:11:11.937,4,0.2,-3.47,1.91,-491.05,234.1984,-199.92600000000002,175,75
2026-05-09 15:11:11.947,4,-0.22,-3.53,1.89,-488.13,198.70839999999998,-240.95600000000002,175,75
2026-05-09 15:11:11.958,4,-0.76,-3.43,1.83,-464.46999999999997,242.54840000000002,-324.556,175,75
2026-05-09 15:11:11.993,4,-0.25,-2.04,2.24,-407.7,276.6384,-459.616,175,75
2026-05-09 15:11:12.003,4,-0.29,-1.7,2.26,-408.13,242.60840000000002,-446.93600000000004,175,75
2026-05-09 15:11:12.017,4,-0.53,-1.29,2.28,-396.18,239.3184,-426.62600000000003,175,75
2026-05-09 15:11:12.017,4,-0.66,-0.93,2.31,-359.96,229.8684,-407.296,175,75
2026-05-09 15:11:12.027,4,-0.54,-0.54,2.31,-307.21,200.4784,-400.836,175,75
2026-05-09 15:11:12.059,4,-0.55,-0.02,2.32,-306.11,102.85839999999999,-327.546,175,75
2026-05-09 15:11:12.083,4,-1.14,0.56,2.35,-238.31,69.13839999999999,-257.426,175,75
2026-05-09 15:11:12.124,4,-1.58,0.9,2.45,-161.72000000000003,-48.361599999999996,-171.20600000000002,175,75
2026-05-09 15:11:12.144,4,-1.67,0.96,2.44,-131.54000000000002,-71.9016,-150.466,175,75
2026-05-09 15:11:12.144,4,-1.65,0.99,2.41,-106.42,-100.2516,-129.066,175,75
2026-05-09 15:11:12.155,4,-1.62,0.97,2.28,-79.59,-160.1916,-94.006,175,75
2026-05-09 15:11:12.177,4,-1.72,0.84,1.91,-13.98,-212.6316,-27.606,175,75
2026-05-09 15:11:12.208,4,-1.61,0.72,1.64,61.39,-202.2716,31.964,175,75
2026-05-09 15:11:12.228,4,-1.49,0.65,1.56,91.45,-202.57160000000002,68.854,175,75
2026-05-09 15:11:12.228,4,-1.41,0.56,1.5,114.56,-206.7816,97.57400000000001,175,75
2026-05-09 15:11:12.239,4,-1.37,0.49,1.44,136.69,-216.29160000000002,117.45400000000001,175,75
2026-05-09 15:11:12.250,4,-1.36,0.39,1.37,172.48000000000002,-224.8316,138.244,175,75
2026-05-09 15:11:12.266,4,-1.34,0.29,1.3,207.18,-222.4516,158.73399999999998,175,75
2026-05-09 15:11:12.266,4,-1.26,0.18,1.25,240.17000000000002,-214.9516,183.73399999999998,175,75
2026-05-09 15:11:12.279,4,-1.19,0.04,1.21,266.2,-213.3616,214.164,175,75
2026-05-09 15:11:12.318,4,-1.17,-0.07,1.18,282.61,-209.9516,235.934,175,75
2026-05-09 15:11:12.328,4,-1.13,-0.21,1.16,302.18,-199.4616,263.55400000000003,175,75
2026-05-09 15:11:12.338,4,-0.93,-0.67,1.19,352.18,-148.1216,337.944,175,75
2026-05-09 15:11:12.338,4,-0.77,-0.93,1.24,369.25,-125.92160000000001,372.394,175,75
2026-05-09 15:11:12.349,4,-0.52,-1.33,1.38,380.90000000000003,-123.55160000000001,409.224,175,75
2026-05-09 15:11:12.359,4,-0.43,-1.61,1.43,386.02000000000004,-138.0016,435.074,175,75
2026-05-09 15:11:12.398,4,-0.29,-3.05,1.6,373.34000000000003,-158.3616,670.264,175,75
2026-05-09 15:11:12.423,4,-0.63,-3.53,1.6,364.01,-159.5216,765.074,175,75
2026-05-09 15:11:12.447,4,-2.22,-5.26,1.25,290.59000000000003,-35.441599999999994,870.144,175,75
2026-05-09 15:11:12.458,4,-2.15,-5.92,0.81,263.95,70.83840000000001,744.4639999999999,175,75
2026-05-09 15:11:12.484,4,-1.82,-3.7,0.87,334.19,55.968399999999995,265.444,175,75
2026-05-09 15:11:12.495,4,-1.9,-3.14,1.47,362.79,-6.2316,150.564,175,75
2026-05-09 15:11:12.507,4,-1.28,-3.01,1.91,322.3,-26.961599999999997,73.064,175,75
2026-05-09 15:11:12.520,4,-0.62,-2.99,2.36,234.92000000000002,-113.79159999999999,11.604,175,75
2026-05-09 15:11:12.532,4,-0.1,-2.71,2.57,99.92,-196.9616,-9.186,175,75
2026-05-09 15:11:12.543,4,0.25,-2.32,2.4,14.74,-259.4016,-17.056,175,75
2026-05-09 15:11:12.546,4,0.6,-2.02,2.16,-12.39,-314.1616,-19.376,175,75
2026-05-09 15:11:12.558,4,1.25,-1.53,1.93,5.899999999999999,-431.1116,33.854,175,75
2026-05-09 15:11:12.583,4,0.43,-1.28,1.39,93.09,-560.3815999999999,103.674,175,75
2026-05-09 15:11:12.594,4,0.13,-1.57,0.99,82.42,-567.2715999999999,49.774,175,75
2026-05-09 15:11:12.624,4,-0.5,-0.77,0.06,27.91,-560.0716,-120.106,175,75
2026-05-09 15:11:12.638,4,-0.81,-0.2,-0.16,72.42,-558.7316,-186.756,175,75
2026-05-09 15:11:12.651,4,-0.26,0.79,-0.13,116.63,-559.2815999999999,-231.20600000000002,175,75
2026-05-09 15:11:12.661,4,-0.38,1.59,-0.21,96.32,-457.8216,-132.056,175,75
2026-05-09 15:11:12.671,4,-0.75,1.82,-0.68,87.73,-300.8616,-80.226,175,75
2026-05-09 15:11:12.703,4,-0.8,1.64,-0.99,105.53,-148.6116,-66.99600000000001,175,75
2026-05-09 15:11:12.714,4,-0.48,1.23,-1.06,118.46,5.718400000000003,-38.646,175,75
2026-05-09 15:11:12.738,4,-0.19,0.85,-0.89,73.95,122.42839999999998,-15.406000000000002,175,75
2026-05-09 15:11:12.749,4,-0.11,0.87,-0.58,-9.469999999999999,160.4784,-19.926000000000002,175,75
2026-05-09 15:11:12.749,4,-0.12,1.05,-0.33,-59.040000000000006,182.2484,-21.626,175,75
2026-05-09 15:11:12.772,4,-0.15,1.18,0.19,-100.38,236.8184,0.6239999999999988,175,75
2026-05-09 15:11:12.784,4,-0.13,1.07,0.38,-105.26,249.8684,15.073999999999998,175,75
2026-05-09 15:11:12.791,4,-0.03,0.77,0.73,-121.36,203.76839999999999,11.293999999999999,175,75
2026-05-09 15:11:12.820,4,0.05,0.58,1.08,-159.41000000000003,-1.171599999999998,-52.546,175,75
2026-05-09 15:11:12.841,4,-0.02,0.59,1.07,-175.57,-96.66159999999999,-81.14600000000002,175,75
2026-05-09 15:11:12.841,4,-0.08,0.62,0.9,-188.74,-177.0816,-106.26599999999999,175,75
2026-05-09 15:11:12.855,4,-0.15,0.68,0.38,-218.74,-225.6216,-110.346,175,75
2026-05-09 15:11:12.868,4,-0.23,0.68,0.22,-227.7,-186.5316,-92.666,175,75
2026-05-09 15:11:12.878,4,-0.32,0.6,0.1,-235.69,-113.55160000000001,-68.156,175,75
2026-05-09 15:11:12.878,4,-0.37,0.43,0.02,-245.93,-5.441600000000001,-41.266,175,75
2026-05-09 15:11:12.897,4,-0.34,0.17,0.04,-254.58999999999997,88.58840000000001,-19.376,175,75
2026-05-09 15:11:12.908,4,-0.28,-0.19,0.04,-253.49,168.3384,-2.3560000000000016,175,75
2026-05-09 15:11:12.920,4,-0.14,-0.67,-0.01,-241.53999999999996,236.26839999999999,10.623999999999999,175,75
2026-05-09 15:11:12.941,4,0.06,-1.65,-0.05,-214.04000000000002,346.8184,9.713999999999999,175,75
2026-05-09 15:11:12.941,4,0.09,-1.91,0.08,-217.14999999999998,364.5584,-1.3260000000000005,175,75
2026-05-09 15:11:12.963,4,0.1,-2.26,0.39,-239.35000000000002,398.7684,4.713999999999999,175,75
2026-05-09 15:11:12.975,4,0.21,-2.49,0.65,-268.91999999999996,416.0884,19.534,175,75
2026-05-09 15:11:12.993,4,0.28,-2.65,0.87,-307.82,399.4984,26.784,175,75
2026-05-09 15:11:12.993,4,0.18,-2.7,0.95,-333.43,364.2584,17.514,175,75
2026-05-09 15:11:12.998,4,-0.02,-2.67,0.95,-338.25,331.3884,-4.676000000000002,175,75
2026-05-09 15:11:13.019,4,-0.28,-2.57,0.93,-321.41999999999996,304.4384,-41.326,175,75
2026-05-09 15:11:13.029,4,-0.61,-2.42,0.85,-282.27,289.6184,-116.01599999999999,175,75
2026-05-09 15:11:13.040,4,-0.72,-2.36,0.85,-265.2,289.7484,-171.686,175,75
2026-05-09 15:11:13.056,4,-0.69,-2.21,0.92,-283.86,315.28839999999997,-255.046,175,75
2026-05-09 15:11:13.069,4,-0.62,-2.14,0.96,-296.24,327.8584,-249.796,175,75
2026-05-09 15:11:13.100,4,-0.53,-1.87,1.05,-296.65999999999997,336.1484,-209.126,175,75
2026-05-09 15:11:13.133,4,-0.52,-1.48,1.39,-241.18,292.6084,-266.386,175,75
2026-05-09 15:11:13.152,4,-0.42,-1.41,1.45,-243.68,266.3884,-261.93600000000004,175,75
2026-05-09 15:11:13.158,4,-0.29,-1.32,1.5,-252.94,240.89839999999998,-241.936,175,75
2026-05-09 15:11:13.184,4,-0.3,-0.93,1.38,-267.46,184.3784,-165.656,175,75
2026-05-09 15:11:13.194,4,-0.35,-0.75,1.3,-248.55,165.2884,-156.446,175,75
2026-05-09 15:11:13.207,4,-0.28,-0.56,1.31,-223.43,122.7284,-155.286,175,75
2026-05-09 15:11:13.233,4,-0.24,-0.17,1.42,-218.8,3.528400000000005,-125.286,175,75
2026-05-09 15:11:13.233,4,-0.29,0.0,1.39,-223.49,-41.291599999999995,-114.79599999999999,175,75
2026-05-09 15:11:13.273,4,-0.43,0.55,1.26,-213.68,-110.13159999999999,-67.05600000000001,175,75
2026-05-09 15:11:13.273,4,-0.45,0.66,1.2,-202.39,-100.32159999999999,-42.666000000000004,175,75
2026-05-09 15:11:13.283,4,-0.47,0.72,1.14,-188.0,-79.16159999999999,-24.246000000000002,175,75
2026-05-09 15:11:13.333,4,-0.42,0.73,1.09,-165.69,-37.5716,6.423999999999999,175,75
2026-05-09 15:11:13.333,4,-0.4,0.73,1.1,-158.61,-23.3616,17.764,175,75
2026-05-09 15:11:13.344,4,-0.39,0.73,1.12,-153.49,-13.181599999999996,24.834,175,75
2026-05-09 15:11:13.369,4,-0.37,0.8,1.23,-141.91000000000003,-1.8415999999999997,38.064,175,75
2026-05-09 15:11:13.382,4,-0.38,0.84,1.27,-139.52999999999997,-2.391599999999997,37.944,175,75
2026-05-09 15:11:13.382,4,-0.36,0.87,1.28,-137.32999999999998,-2.631599999999999,37.153999999999996,175,75
2026-05-09 15:11:13.425,4,-0.28,0.95,1.27,-129.22000000000003,9.678400000000003,42.824,175,75
2026-05-09 15:11:13.449,4,-0.21,0.97,1.26,-127.02999999999999,26.7584,47.274,175,75
2026-05-09 15:11:13.470,4,-0.12,1.01,1.35,-123.36999999999999,86.9984,63.734,175,75
2026-05-09 15:11:13.480,4,-0.08,0.98,1.4,-125.26,119.92839999999998,67.03399999999999,175,75
2026-05-09 15:11:13.508,4,-0.01,0.93,1.43,-126.11,128.9484,65.324,175,75
2026-05-09 15:11:13.530,4,-0.02,0.83,1.42,-117.33,120.7184,73.184,175,75
2026-05-09 15:11:13.530,4,-0.04,0.76,1.4,-101.78,124.19839999999999,88.85399999999998,175,75
2026-05-09 15:11:13.541,4,-0.04,0.7,1.39,-84.53,120.4784,108.924,175,75
2026-05-09 15:11:13.552,4,-0.05,0.63,1.37,-64.1,113.39839999999998,133.124,175,75
2026-05-09 15:11:13.567,4,-0.08,0.52,1.35,-40.08,112.1884,161.664,175,75
2026-05-09 15:11:13.578,4,-0.11,0.4,1.36,-12.7,116.5084,194.894,175,75
2026-05-09 15:11:13.612,4,-0.1,-0.33,1.43,97.97,154.7484,312.704,175,75
2026-05-09 15:11:13.623,4,0.03,-0.66,1.52,122.36,150.8384,345.62399999999997,175,75
2026-05-09 15:11:13.644,4,0.15,-1.23,1.77,138.22,90.41839999999999,385.144,175,75
2026-05-09 15:11:13.654,4,0.09,-1.48,1.85,143.51999999999998,64.61840000000001,401.964,175,75
2026-05-09 15:11:13.665,4,0.07,-1.67,1.84,154.98000000000002,50.8384,419.534,175,75
2026-05-09 15:11:13.665,4,0.04,-1.87,1.79,170.89999999999998,27.548400000000008,440.504,175,75
2026-05-09 15:11:13.677,4,-0.13,-2.09,1.77,193.22000000000003,-10.131599999999999,475.014,175,75
2026-05-09 15:11:13.748,4,-1.7,-1.98,2.34,177.79000000000002,-138.7316,379.714,175,75
2026-05-09 15:11:13.807,4,-1.21,-0.87,1.98,207.97000000000003,-53.5516,345.56399999999996,175,75
2026-05-09 15:11:13.811,4,-0.96,-1.76,2.26,204.13,-65.5616,339.714,175,75
2026-05-09 15:11:13.824,4,-0.82,-2.28,2.64,191.01999999999998,-193.6116,318.37399999999997,175,75
2026-05-09 15:11:13.835,4,-1.12,-2.43,2.8,186.87,-299.7716,289.044,175,75
2026-05-09 15:11:13.846,4,-1.45,-2.26,2.55,178.45999999999998,-353.7916,202.334,175,75
2026-05-09 15:11:13.861,4,-1.29,-2.07,2.02,148.22000000000003,-364.7716,81.54400000000001,175,75
2026-05-09 15:11:13.875,4,-0.85,-1.83,1.45,126.45,-365.8016,-6.686000000000002,175,75
2026-05-09 15:11:13.896,4,-0.53,-1.43,1.13,151.32,-400.8616,-48.276,175,75
2026-05-09 15:11:13.896,4,-0.37,-1.05,1.0,200.77999999999997,-444.2216,-79.186,175,75
2026-05-09 15:11:13.908,4,-0.05,-0.68,1.08,228.76,-463.2416,-72.11600000000001,175,75
2026-05-09 15:11:13.944,4,-0.28,-0.44,0.23,117.85,-294.1016,-30.106,175,75
2026-05-09 15:11:13.957,4,-0.14,-0.28,0.14,100.84,-242.51160000000002,-45.956,175,75
2026-05-09 15:11:13.968,4,-0.06,0.04,0.08,77.78999999999999,-208.9716,-44.616,175,75
2026-05-09 15:11:13.978,4,-0.04,0.34,0.0,51.81,-189.8316,-47.356,175,75
2026-05-09 15:11:13.997,4,-0.07,0.55,-0.09,27.36,-174.7116,-42.546,175,75
2026-05-09 15:11:14.010,4,-0.08,0.69,-0.19,3.1499999999999986,-140.7416,-38.766,175,75
2026-05-09 15:11:14.018,4,-0.0,0.79,-0.28,-21.97,-99.5216,-32.426,175,75
2026-05-09 15:11:14.030,4,0.09,0.87,-0.29,-41.05,-57.2716,-23.826,175,75
2026-05-09 15:11:14.040,4,0.1,0.92,-0.25,-56.66,-15.991599999999998,-14.856000000000002,175,75
2026-05-09 15:11:14.141,4,0.4,0.55,-0.17,-215.63,168.70839999999998,-39.496,175,75
2026-05-09 15:11:14.146,4,0.31,0.35,0.07,-221.36,211.5784,-31.746000000000002,175,75
2026-05-09 15:11:14.168,4,0.27,-0.27,0.43,-233.74,195.2284,-63.156,175,75
2026-05-09 15:11:14.178,4,-0.48,-0.27,0.8,-261.65999999999997,84.86840000000001,-42.786,175,75
2026-05-09 15:11:14.200,4,0.33,-0.86,0.16,-239.64999999999998,211.14839999999998,-132.42600000000002,175,75
2026-05-09 15:11:14.217,4,1.14,-1.4,1.19,-268.55,6.4483999999999995,-82.906,175,75
2026-05-09 15:11:14.229,4,0.33,-1.69,1.5,-277.09,-115.38159999999999,-104.49600000000001,175,75
2026-05-09 15:11:14.240,4,0.06,-2.02,1.51,-296.18,-188.6116,-158.036,175,75
2026-05-09 15:11:14.240,4,0.39,-2.26,1.06,-392.09,-156.4116,-186.506,175,75
2026-05-09 15:11:14.277,4,0.34,-2.45,0.47,-446.78,-56.6616,-87.23599999999999,175,75
2026-05-09 15:11:14.288,4,0.55,-3.12,0.34,-460.38,24.138399999999997,-11.446000000000002,175,75
2026-05-09 15:11:14.314,4,0.05,-3.86,0.31,-494.77,114.07839999999999,54.403999999999996,175,75
2026-05-09 15:11:14.325,4,-0.57,-3.82,0.21,-474.21999999999997,263.6484,9.223999999999998,175,75
2026-05-09 15:11:14.353,4,-0.52,-3.63,0.56,-398.0,549.0084,-105.346,175,75
2026-05-09 15:11:14.353,4,-0.35,-3.48,1.08,-346.78,576.0884000000001,-155.286,175,75
2026-05-09 15:11:14.365,4,-0.31,-3.44,1.61,-317.88,534.8684000000001,-193.096,175,75
2026-05-09 15:11:14.375,4,-0.43,-3.48,2.0,-341.90999999999997,423.7084,-221.32600000000002,175,75
2026-05-09 15:11:14.389,4,-0.78,-3.48,2.11,-400.32,374.1984,-231.876,175,75
2026-05-09 15:11:14.423,4,-1.08,-3.64,1.86,-473.13,363.2184,-355.716,175,75
2026-05-09 15:11:14.474,4,-1.34,-2.74,2.18,-358.68,243.27839999999998,-485.596,175,75
2026-05-09 15:11:14.485,4,-1.26,-2.53,2.12,-364.28,219.6184,-506.01599999999996,175,75
2026-05-09 15:11:14.497,4,-1.1,-2.27,1.96,-361.71999999999997,197.7884,-515.226,175,75
2026-05-09 15:11:14.522,4,-1.13,-1.57,1.75,-298.19,214.7484,-494.676,175,75
2026-05-09 15:11:14.533,4,-1.09,-1.27,1.78,-240.99,222.1784,-492.426,175,75
2026-05-09 15:11:14.560,4,-1.35,-0.75,2.12,-162.32999999999998,152.1884,-503.516,175,75
2026-05-09 15:11:14.560,4,-1.5,-0.48,2.3,-151.11,133.1584,-504.06600000000003,175,75
2026-05-09 15:11:14.572,4,-1.58,-0.16,2.44,-144.52999999999997,121.38839999999999,-496.446,175,75
2026-05-09 15:11:14.597,4,-1.12,0.41,2.69,-154.89,78.76840000000001,-389.796,175,75
2026-05-09 15:11:14.617,4,-1.3,1.09,2.44,-106.72,15.418399999999998,-239.496,175,75
2026-05-09 15:11:14.627,4,-1.17,1.08,2.34,-48.8,-21.171599999999998,-234.256,175,75
2026-05-09 15:11:14.650,4,-1.29,1.12,2.1,0.03999999999999915,8.218400000000003,-140.286,175,75
2026-05-09 15:11:14.663,4,-1.4,1.13,2.02,24.07,46.4484,-103.21600000000001,175,75
2026-05-09 15:11:14.693,4,-1.3,1.16,2.07,123.22,73.5284,24.104,175,75
2026-05-09 15:11:14.703,4,-1.29,1.11,2.0,151.87,42.9784,56.784,175,75
2026-05-09 15:11:14.734,4,-1.3,1.04,1.89,178.45999999999998,17.858400000000003,83.98400000000001,175,75
2026-05-09 15:11:14.754,4,-1.23,0.64,1.59,257.0,-30.011599999999998,152.57399999999998,175,75
2026-05-09 15:11:14.754,4,-1.17,0.48,1.52,281.08000000000004,-51.111599999999996,167.51399999999998,175,75
2026-05-09 15:11:14.791,4,-1.1,0.19,1.34,328.52000000000004,-100.07159999999999,186.664,175,75
2026-05-09 15:11:14.791,4,-1.13,0.1,1.28,351.45,-116.66159999999999,194.774,175,75
2026-05-09 15:11:14.809,4,-1.12,-0.0,1.21,384.92,-125.92160000000001,205.814,175,75
2026-05-09 15:11:14.827,4,-0.98,-0.17,1.23,444.68,-133.5516,232.82399999999998,175,75
2026-05-09 15:11:14.850,4,-0.89,-0.4,1.24,503.89,-160.8016,270.264,175,75
2026-05-09 15:11:14.855,4,-0.83,-0.59,1.22,536.45,-184.8916,293.984,175,75
2026-05-09 15:11:14.893,4,-0.57,-1.64,1.43,606.69,-344.6416,380.444,175,75
2026-05-09 15:11:14.918,4,-0.89,-2.27,1.77,632.67,-543.7916,359.464,175,75
2026-05-09 15:11:14.941,4,-1.41,-3.66,1.7,688.15,-562.5716,364.834,175,75
2026-05-09 15:11:14.974,4,-2.89,-7.54,1.12,808.76,-522.8216,404.284,175,75
2026-05-09 15:11:14.986,4,-2.93,-7.97,0.85,712.67,-390.5016,401.424,175,75
2026-05-09 15:11:14.994,4,-1.76,-7.45,0.14,537.0600000000001,-109.4016,369.104,175,75
2026-05-09 15:11:15.008,4,0.36,-6.55,-0.57,361.81,122.1884,391.904,175,75
2026-05-09 15:11:15.017,4,0.63,-5.42,-0.74,320.29,117.36840000000001,437.214,175,75
2026-05-09 15:11:15.047,4,-3.28,-2.23,0.53,527.61,177.1884,-101.686,175,75
2026-05-09 15:11:15.059,4,-0.68,-2.81,1.49,393.09000000000003,215.16840000000002,-208.276,175,75
2026-05-09 15:11:15.070,4,0.08,-2.94,2.26,265.11,-22.8816,-207.666,175,75
2026-05-09 15:11:15.092,4,0.06,-1.98,2.3,81.39,-312.3916,-44.986000000000004,175,75
2026-05-09 15:11:15.116,4,-0.36,-1.68,1.85,48.089999999999996,-620.9215999999999,83.00399999999999,175,75
2026-05-09 15:11:15.145,4,-1.23,-1.9,0.97,-37.39,-891.7815999999999,65.074,175,75
2026-05-09 15:11:15.160,4,-1.88,-1.8,0.37,-121.42,-921.0515999999999,0.5639999999999992,175,75
2026-05-09 15:11:15.160,4,-2.46,-1.55,-0.12,-166.36,-871.1715999999999,-63.946000000000005,175,75
2026-05-09 15:11:15.170,4,-2.96,-1.2,-0.71,-164.16000000000003,-743.8516,-200.536,175,75
2026-05-09 15:11:15.186,4,-3.18,-0.57,-1.22,-96.66,-524.0316,-410.046,175,75
2026-05-09 15:11:15.197,4,-2.92,0.03,-1.24,-13.98,-349.5216,-512.666,175,75
2026-05-09 15:11:15.205,4,-2.5,0.87,-0.86,101.26,-170.1916,-571.266,175,75
2026-05-09 15:11:15.216,4,-0.08,2.27,0.51,123.03,34.4984,-330.286,175,75
2026-05-09 15:11:15.248,4,-1.92,2.63,0.36,93.34,102.11840000000001,191.60399999999998,175,75
2026-05-09 15:11:15.266,4,-1.14,1.3,-0.01,244.62,266.2684,129.464,175,75
2026-05-09 15:11:15.266,4,-0.86,0.49,0.26,286.14,188.9484,153.554,175,75
2026-05-09 15:11:15.281,4,-0.97,-0.05,0.66,128.7,16.028400000000005,111.114,175,75
2026-05-09 15:11:15.296,4,-0.98,0.45,0.6,24.07,-71.35159999999999,49.464,175,75
2026-05-09 15:11:15.306,4,-0.84,0.91,0.52,-10.870000000000001,-172.0216,33.733999999999995,175,75
2026-05-09 15:11:15.318,4,-0.95,1.12,0.41,-14.650000000000002,-226.9016,49.403999999999996,175,75
2026-05-09 15:11:15.330,4,-1.06,1.16,0.24,-12.46,-222.57160000000002,62.943999999999996,175,75
2026-05-09 15:11:15.341,4,-1.05,1.05,0.12,-12.150000000000002,-168.4216,83.554,175,75
2026-05-09 15:11:15.351,4,-0.72,0.61,0.13,-40.75,-3.3615999999999957,146.23399999999998,175,75
2026-05-09 15:11:15.373,4,-0.55,0.48,0.32,-66.18,15.968400000000003,150.744,175,75
2026-05-09 15:11:15.385,4,-0.42,0.46,0.5,-83.98,-12.331600000000002,139.95399999999998,175,75
2026-05-09 15:11:15.395,4,-0.3,0.48,0.65,-99.83,-83.91159999999999,121.23400000000001,175,75
2026-05-09 15:11:15.409,4,-0.28,0.5,0.67,-112.33,-160.1916,105.50399999999999,175,75
2026-05-09 15:11:15.419,4,-0.29,0.47,0.55,-121.05,-200.7416,94.04400000000001,175,75
2026-05-09 15:11:15.433,4,-0.27,0.41,0.4,-125.26,-209.2816,89.10399999999998,175,75
2026-05-09 15:11:15.445,4,-0.25,0.39,0.3,-127.39,-196.7216,91.424,175,75
2026-05-09 15:11:15.456,4,-0.12,0.39,0.12,-132.08999999999997,-147.0216,97.94399999999999,175,75
2026-05-09 15:11:15.467,4,-0.03,0.42,0.05,-138.31,-121.7816,96.60399999999998,175,75
2026-05-09 15:11:15.489,4,0.09,0.38,-0.07,-146.11,-85.13159999999999,99.714,175,75
2026-05-09 15:11:15.500,4,0.19,0.2,-0.24,-147.88,-32.8216,113.674,175,75
2026-05-09 15:11:15.510,4,0.33,-0.29,-0.47,-141.66000000000003,63.708400000000005,139.714,175,75
2026-05-09 15:11:15.521,4,0.47,-0.87,-0.6,-141.60000000000002,155.2284,153.314,175,75
2026-05-09 15:11:15.521,4,0.6,-1.52,-0.61,-166.60000000000002,270.4184,145.994,175,75
2026-05-09 15:11:15.543,4,0.72,-1.8,-0.43,-222.94,371.7584,110.934,175,75
2026-05-09 15:11:15.551,4,0.66,-1.82,-0.16,-268.68,450.7184,87.334,175,75
2026-05-09 15:11:15.569,4,0.61,-1.71,0.15,-322.15,557.3084,69.714,175,75
2026-05-09 15:11:15.593,4,0.32,-2.49,0.43,-291.24,672.9784000000001,119.894,175,75
2026-05-09 15:11:15.607,4,0.5,-3.18,0.95,-272.76,724.5584,207.57399999999998,175,75
2026-05-09 15:11:15.623,4,0.67,-3.24,1.61,-271.90999999999997,645.9684000000001,188.434,175,75
2026-05-09 15:11:15.635,4,-0.39,-2.83,2.21,-186.36,321.8184,-0.16600000000000037,175,75
2026-05-09 15:11:15.645,4,-1.49,-2.65,2.22,-97.15,277.3684,-152.666,175,75
2026-05-09 15:11:15.657,4,-1.41,-2.51,2.52,-39.53,358.5284,-372.546,175,75
2026-05-09 15:11:15.680,4,-0.31,-1.73,2.79,-175.01999999999998,177.42839999999998,-633.456,175,75
2026-05-09 15:11:15.709,4,0.22,-0.39,1.85,-278.31,4.4384000000000015,-224.316,175,75
2026-05-09 15:11:15.720,4,0.11,-0.91,1.46,-216.77999999999997,104.13839999999999,-233.76600000000002,175,75
2026-05-09 15:11:15.730,4,0.39,-1.19,1.53,-187.08999999999997,99.3184,-259.676,175,75
2026-05-09 15:11:15.743,4,0.28,-1.15,1.73,-174.35000000000002,45.968399999999995,-261.326,175,75
2026-05-09 15:11:15.755,4,0.09,-0.82,1.75,-181.48000000000002,36.878400000000006,-245.656,175,75
2026-05-09 15:11:15.779,4,0.13,-0.13,1.62,-171.77999999999997,-11.351599999999998,-200.226,175,75
2026-05-09 15:11:15.791,4,0.09,0.14,1.49,-157.08999999999997,-41.7816,-170.226,175,75
2026-05-09 15:11:15.802,4,0.08,0.31,1.4,-144.10000000000002,-42.5716,-150.596,175,75
2026-05-09 15:11:15.802,4,0.1,0.45,1.34,-128.98000000000002,-18.0016,-129.126,175,75
2026-05-09 15:11:15.813,4,0.2,0.57,1.35,-108.55,16.5084,-101.26599999999999,175,75
2026-05-09 15:11:15.836,4,0.23,0.61,1.41,-85.63,24.8084,-80.406,175,75
2026-05-09 15:11:15.849,4,0.12,0.63,1.46,-67.76,14.928400000000003,-69.376,175,75
2026-05-09 15:11:15.862,4,0.01,0.65,1.47,-56.91,6.878399999999999,-64.186,175,75
2026-05-09 15:11:15.862,4,-0.09,0.68,1.48,-49.040000000000006,-3.0615999999999985,-61.626,175,75
2026-05-09 15:11:15.874,4,-0.13,0.72,1.44,-40.75,-12.941600000000001,-61.936,175,75
2026-05-09 15:11:15.885,4,-0.13,0.74,1.41,-33.19,-15.8616,-62.175999999999995,175,75
2026-05-09 15:11:15.901,4,-0.11,0.75,1.36,-23.189999999999998,-11.291599999999995,-62.425999999999995,175,75
2026-05-09 15:11:15.914,4,-0.09,0.76,1.33,-15.5,-2.631599999999999,-61.996,175,75
2026-05-09 15:11:15.938,4,-0.1,0.76,1.36,-7.760000000000002,10.6584,-64.73599999999999,175,75
2026-05-09 15:11:15.953,4,-0.13,0.78,1.4,-6.109999999999999,11.508400000000002,-68.51599999999999,175,75
2026-05-09 15:11:15.957,4,-0.16,0.81,1.46,-3.9200000000000017,5.418399999999998,-73.096,175,75
2026-05-09 15:11:15.969,4,-0.18,0.84,1.49,-1.1700000000000017,-3.3615999999999957,-77.906,175,75
2026-05-09 15:11:15.979,4,-0.2,0.87,1.49,3.639999999999999,-12.0216,-84.98599999999999,175,75
2026-05-09 15:11:16.001,4,-0.16,0.88,1.45,12.18,0.6584000000000003,-88.21600000000001,175,75
2026-05-09 15:11:16.001,4,-0.14,0.88,1.44,14.86,6.208400000000005,-88.39600000000002,175,75
2026-05-09 15:11:16.026,4,-0.14,0.91,1.45,18.09,17.1184,-88.70599999999999,175,75
2026-05-09 15:11:16.036,4,-0.13,0.91,1.46,21.32,25.718399999999995,-86.936,175,75
2026-05-09 15:11:16.048,4,-0.11,0.89,1.48,25.11,33.15840000000001,-86.446,175,75
2026-05-09 15:11:16.076,4,-0.08,0.85,1.51,35.47,40.1684,-82.666,175,75
2026-05-09 15:11:16.088,4,-0.12,0.87,1.5,38.28,35.8384,-78.51599999999999,175,75
2026-05-09 15:11:16.100,4,-0.14,0.9,1.47,41.45,37.7884,-70.83600000000001,175,75
2026-05-09 15:11:16.122,4,-0.1,0.92,1.4,58.7,43.6484,-36.016,175,75
2026-05-09 15:11:16.153,4,-0.1,0.79,1.39,89.92,53.0384,20.994,175,75
2026-05-09 15:11:16.164,4,-0.09,0.71,1.41,101.08,55.65840000000001,45.684,175,75
2026-05-09 15:11:16.192,4,-0.12,0.38,1.53,140.78,13.9484,114.95400000000001,175,75
2026-05-09 15:11:16.215,4,-0.12,0.09,1.55,168.39999999999998,-39.1616,159.654,175,75
2026-05-09 15:11:16.229,4,-0.16,-0.26,1.43,200.29000000000002,-111.29159999999999,203.85399999999998,175,75
2026-05-09 15:11:16.243,4,-0.2,-0.47,1.33,219.19,-125.80160000000001,230.26399999999998,175,75
2026-05-09 15:11:16.253,4,-0.21,-0.8,1.25,247.12,-121.60159999999999,268.37399999999997,175,75
2026-05-09 15:11:16.267,4,-0.22,-1.06,1.28,269.19,-119.16159999999999,298.24399999999997,175,75
2026-05-09 15:11:16.281,4,-0.27,-1.38,1.41,288.22,-135.3816,334.404,175,75
2026-05-09 15:11:16.303,4,-0.57,-2.0,1.79,310.65000000000003,-253.3016,411.114,175,75
2026-05-09 15:11:16.313,4,-0.72,-2.12,1.81,314.19,-294.4016,433.37399999999997,175,75
2026-05-09 15:11:16.313,4,-0.99,-2.24,1.83,317.73,-350.6216,451.904,175,75
2026-05-09 15:11:16.346,4,-1.88,-2.72,1.95,351.14,-494.5816,469.654,175,75
2026-05-09 15:11:16.354,4,-2.52,-3.16,2.01,374.92,-558.9115999999999,436.784,175,75
2026-05-09 15:11:16.376,4,-3.09,-3.33,1.95,360.35,-563.5515999999999,359.044,175,75
2026-05-09 15:11:16.407,4,-2.59,-2.71,1.07,219.31,-333.6116,77.394,175,75
2026-05-09 15:11:16.415,4,-1.83,-2.74,0.91,268.03,-304.5216,107.094,175,75
2026-05-09 15:11:16.436,4,-1.51,-3.37,1.38,393.46000000000004,-331.2916,182.82399999999998,175,75
2026-05-09 15:11:16.451,4,-1.36,-3.65,1.62,357.85,-312.8216,138.314,175,75
2026-05-09 15:11:16.497,4,-1.63,-2.42,0.76,235.83999999999997,-500.2516,-9.736,175,75
2026-05-09 15:11:16.505,4,-1.6,-2.38,0.47,236.39,-495.0716,-64.79599999999999,175,75
2026-05-09 15:11:16.530,4,-1.22,-2.04,-0.06,194.98000000000002,-436.3516,-204.376,175,75
2026-05-09 15:11:16.557,4,-1.02,-0.89,-0.3,183.27999999999997,-425.0716,-343.576,175,75
2026-05-09 15:11:16.575,4,-1.04,-0.43,-0.34,205.29000000000002,-465.5616,-354.18600000000004,175,75
2026-05-09 15:11:16.587,4,-0.36,0.15,-0.16,197.73000000000002,-488.0016,-280.166,175,75
2026-05-09 15:11:16.605,4,-0.98,0.75,-0.33,146.51,-495.9216,-105.83600000000001,175,75
2026-05-09 15:11:16.618,4,-1.66,1.0,-0.96,132.97,-387.0216,-101.446,175,75
2026-05-09 15:11:16.629,4,-1.72,0.96,-1.31,137.0,-334.6416,-152.846,175,75
2026-05-09 15:11:16.629,4,-1.47,0.92,-1.58,150.11,-304.8916,-162.29600000000002,175,75
2026-05-09 15:11:16.645,4,-1.66,1.03,-1.51,138.7,-234.3416,-85.656,175,75
2026-05-09 15:11:16.657,4,-2.09,1.16,-1.39,86.81,-207.2716,-25.286,175,75
2026-05-09 15:11:16.668,4,-2.09,1.25,-1.24,0.5299999999999994,-166.4716,-8.396,175,75
2026-05-09 15:11:16.674,4,-1.28,1.27,-1.13,-73.74,-119.5216,13.434,175,75
2026-05-09 15:11:16.682,4,-0.46,1.14,-1.13,-118.67999999999999,-100.5616,35.013999999999996,175,75
2026-05-09 15:11:16.707,4,-0.27,1.12,-1.03,-131.85000000000002,-202.2116,42.574,175,75
2026-05-09 15:11:16.707,4,-1.0,1.25,-0.91,-129.47000000000003,-229.4616,34.464,175,75
2026-05-09 15:11:16.714,4,-1.57,1.31,-0.82,-141.24,-210.7416,53.314,175,75
2026-05-09 15:11:16.737,4,-0.22,0.51,-1.64,-192.20999999999998,4.748400000000004,111.174,175,75
2026-05-09 15:11:16.762,4,-0.17,-0.13,-0.5,-203.92000000000002,80.4784,114.594,175,75
2026-05-09 15:11:16.775,4,-0.16,-0.08,-0.07,-221.72000000000003,125.35839999999999,158.374,175,75
2026-05-09 15:11:16.775,4,0.27,-0.4,0.13,-237.7,48.468399999999995,125.684,175,75
2026-05-09 15:11:16.787,4,0.34,-0.71,0.36,-262.46,-128.7316,114.714,175,75
2026-05-09 15:11:16.810,4,-0.11,-1.02,-0.26,-298.55,-151.4716,139.834,175,75
2026-05-09 15:11:16.834,4,0.29,-1.46,-0.69,-310.2,-54.8916,151.664,175,75
2026-05-09 15:11:16.871,4,0.64,-1.88,-0.58,-319.59,74.7484,187.51399999999998,175,75
2026-05-09 15:11:16.872,4,0.79,-2.15,-0.41,-330.63,122.0584,205.01399999999998,175,75
2026-05-09 15:11:16.884,4,0.79,-2.34,-0.22,-345.87,141.4484,226.17399999999998,175,75
2026-05-09 15:11:16.897,4,0.79,-2.67,0.13,-391.96999999999997,203.70839999999998,249.464,175,75
2026-05-09 15:11:16.904,4,0.76,-2.74,0.13,-410.93,214.5584,218.064,175,75
2026-05-09 15:11:16.916,4,0.72,-2.78,0.08,-434.09999999999997,268.2784,181.114,175,75
2026-05-09 15:11:16.927,4,0.85,-2.74,0.07,-458.68,332.8584,142.57399999999998,175,75
2026-05-09 15:11:16.943,4,0.89,-2.67,0.13,-464.40999999999997,368.4684,111.23400000000001,175,75
2026-05-09 15:11:16.951,4,0.9,-2.68,0.26,-463.43,408.9484,80.814,175,75
2026-05-09 15:11:16.962,4,1.03,-2.84,0.57,-466.71999999999997,453.5884,44.714,175,75
2026-05-09 15:11:16.962,4,1.05,-3.01,0.92,-481.78,441.6984,29.464,175,75
2026-05-09 15:11:16.987,4,0.72,-3.14,1.19,-521.48,372.3684,49.104,175,75
2026-05-09 15:11:16.998,4,0.23,-3.43,1.18,-594.53,379.8684,96.29400000000001,175,75
2026-05-09 15:11:17.019,4,0.25,-4.47,1.09,-627.03,362.1784,26.724,175,75
2026-05-09 15:11:17.031,4,-1.07,-5.26,0.68,-567.46,336.5784,-123.886,175,75
2026-05-09 15:11:17.041,4,-1.74,-4.95,0.84,-533.31,424.1984,-198.096,175,75
2026-05-09 15:11:17.078,4,-0.71,-3.24,2.38,-412.09,498.82840000000004,-465.346,175,75
2026-05-09 15:11:17.078,4,-0.5,-2.8,2.64,-411.47999999999996,435.9684,-469.31600000000003,175,75
2026-05-09 15:11:17.093,4,-0.53,-2.31,2.73,-419.77,364.2584,-457.606,175,75
2026-05-09 15:11:17.124,4,-0.86,-1.65,2.59,-401.90999999999997,252.3084,-438.456,175,75
2026-05-09 15:11:17.124,4,-0.98,-1.36,2.33,-385.69,216.9384,-438.156,175,75
2026-05-09 15:11:17.157,4,-1.27,-0.79,2.05,-326.36,200.1684,-446.016,175,75
2026-05-09 15:11:17.169,4,-1.4,-0.55,2.13,-277.21,226.6984,-443.096,175,75
2026-05-09 15:11:17.169,4,-1.44,-0.33,2.29,-223.98000000000002,238.03839999999997,-442.426,175,75
2026-05-09 15:11:17.181,4,-1.33,-0.04,2.59,-176.11,212.60840000000002,-435.046,175,75
2026-05-09 15:11:17.204,4,-1.3,0.51,2.97,-187.57999999999998,146.6984,-317.606,175,75
2026-05-09 15:11:17.218,4,-1.63,0.87,2.97,-196.54000000000002,102.66839999999999,-242.356,175,75
2026-05-09 15:11:17.228,4,-1.82,1.06,2.85,-163.92000000000002,66.8184,-228.57600000000002,175,75
2026-05-09 15:11:17.228,4,-1.62,1.1,2.72,-97.82000000000001,15.6584,-231.14600000000002,175,75
2026-05-09 15:11:17.240,4,-1.52,1.15,2.64,-55.5,-29.5216,-176.446,175,75
2026-05-09 15:11:17.249,4,-1.84,1.26,2.49,-29.83,-49.9516,-97.726,175,75
2026-05-09 15:11:17.260,4,-1.99,1.32,2.37,-2.580000000000002,-34.4616,-61.446000000000005,175,75
2026-05-09 15:11:17.292,4,-1.74,1.48,2.22,117.67,-23.301599999999997,36.354,175,75
2026-05-09 15:11:17.312,4,-1.56,0.97,2.05,225.89999999999998,-116.35159999999999,128.374,175,75
2026-05-09 15:11:17.326,4,-1.5,0.71,1.92,250.52999999999997,-163.9116,139.95399999999998,175,75
2026-05-09 15:11:17.326,4,-1.44,0.45,1.7,279.13,-213.6716,142.644,175,75
2026-05-09 15:11:17.337,4,-1.38,0.29,1.49,310.59000000000003,-249.8316,142.944,175,75
2026-05-09 15:11:17.359,4,-1.33,0.15,1.3,350.90000000000003,-270.0716,141.964,175,75
2026-05-09 15:11:17.370,4,-1.3,0.06,1.17,383.52000000000004,-270.0716,139.464,175,75
2026-05-09 15:11:17.370,4,-1.27,-0.04,1.06,416.81,-256.41159999999996,138.374,175,75
2026-05-09 15:11:17.391,4,-1.16,-0.2,1.03,484.43,-203.73160000000001,165.934,175,75
2026-05-09 15:11:17.435,4,-1.34,-0.53,1.28,584.92,-191.4116,281.294,175,75
2026-05-09 15:11:17.448,4,-1.3,-0.77,1.32,606.51,-165.2516,314.464,175,75
2026-05-09 15:11:17.462,4,-0.98,-1.33,1.45,619.98,-101.9016,355.68399999999997,175,75
2026-05-09 15:11:17.522,4,0.21,-2.62,2.05,622.48,-210.9916,330.074,175,75
2026-05-09 15:11:17.558,4,1.02,-3.75,1.84,656.51,-126.41159999999999,582.764,175,75
2026-05-09 15:11:17.640,4,-2.46,-6.89,4.52,768.15,-269.8916,980.204,175,75
2026-05-09 15:11:17.651,4,-3.56,-8.64,5.27,722.79,-399.0316,838.984,175,75
2026-05-09 15:11:17.679,4,-3.58,-8.92,4.59,277.85,-692.6315999999999,324.594,175,75
2026-05-09 15:11:17.679,4,-3.26,-7.06,3.08,110.65,-925.6816,129.284,175,75
2026-05-09 15:11:17.679,4,-3.59,-5.71,1.54,39.31,-1080.6816000000001,-38.766,175,75
2026-05-09 15:11:17.687,4,-3.82,-5.11,0.6,28.03,-1041.9616,-175.596,175,75
2026-05-09 15:11:17.707,4,-1.34,-3.93,-0.74,34.92,-594.0315999999999,-538.1560000000001,175,75
2026-05-09 15:11:17.718,4,-0.55,-3.36,-0.54,51.26,-587.2715999999999,-501.016,175,75
2026-05-09 15:11:17.754,4,-2.56,-2.02,0.06,0.5299999999999994,-412.0216,-461.68600000000004,175,75
2026-05-09 15:11:17.793,4,-2.38,-0.54,-0.1,-31.85,-222.8816,-605.466,175,75
2026-05-09 15:11:17.816,4,-0.52,1.2,1.2,-50.75,110.35839999999999,-289.00600000000003,175,75
2026-05-09 15:11:17.817,4,-0.9,1.31,1.27,-60.69,115.5984,-147.906,175,75
2026-05-09 15:11:17.849,4,-0.88,-0.22,1.54,25.229999999999997,-92.0216,-245.04600000000002,175,75
2026-05-09 15:11:17.859,4,-1.07,-0.21,1.34,-30.200000000000003,-92.6916,-217.17600000000002,175,75
2026-05-09 15:11:17.859,4,-1.11,-0.12,1.06,-43.61,-75.4416,-214.79600000000002,175,75
2026-05-09 15:11:17.871,4,-1.04,-0.1,0.94,-27.270000000000003,-58.6716,-214.556,175,75
2026-05-09 15:11:17.896,4,-0.84,0.15,1.14,-38.43,6.388400000000004,-189.256,175,75
2026-05-09 15:11:17.907,4,-0.77,0.25,1.22,-49.47,14.1984,-184.126,175,75
2026-05-09 15:11:17.907,4,-0.69,0.32,1.28,-52.150000000000006,8.278400000000005,-180.95600000000002,175,75
2026-05-09 15:11:17.931,4,-0.7,0.38,1.33,-48.19,-15.2516,-173.70600000000002,175,75
2026-05-09 15:11:17.963,4,-0.69,0.49,1.33,-62.519999999999996,5.6584,-149.006,175,75
2026-05-09 15:11:17.975,4,-0.67,0.53,1.33,-65.38,12.428400000000003,-144.616,175,75
2026-05-09 15:11:18.012,4,-0.52,0.76,1.25,-88.55,-11.8416,-123.82600000000002,175,75
2026-05-09 15:11:18.031,4,-0.57,0.8,0.76,-78.61,69.4984,-123.096,175,75
2026-05-09 15:11:18.068,4,0.63,1.28,2.17,7.7299999999999995,388.03839999999997,-31.686,175,75
2026-05-09 15:11:18.077,4,0.05,1.27,2.6,57.42,219.8684,-15.776,175,75
2026-05-09 15:11:18.106,4,-0.03,1.57,1.35,-4.77,-108.4216,-120.406,175,75
2026-05-09 15:11:18.127,4,-0.64,2.13,1.09,-0.9299999999999997,-134.7116,-122.726,175,75
2026-05-09 15:11:18.138,4,0.05,2.37,0.84,49.56,0.9684000000000026,-34.736000000000004,175,75
2026-05-09 15:11:18.165,4,0.25,2.26,0.81,44.31,95.89839999999998,-11.936,175,75
2026-05-09 15:11:18.173,4,0.32,2.32,0.79,43.34,156.0284,8.244,175,75
2026-05-09 15:11:18.184,4,0.33,2.4,0.84,53.089999999999996,181.6384,31.294,175,75
2026-05-09 15:11:18.219,4,0.43,2.22,1.03,54.62,255.22840000000002,74.834,175,75
2026-05-09 15:11:18.219,4,0.65,2.02,1.14,48.22,279.8684,78.614,175,75
2026-05-09 15:11:18.272,4,1.02,1.86,1.28,52.61,122.91839999999999,11.963999999999999,175,75
2026-05-09 15:11:18.311,4,0.53,2.23,1.37,40.17,15.8384,-22.176000000000002,175,75
2026-05-09 15:11:18.323,4,0.8,2.06,1.13,41.629999999999995,-12.881599999999999,-28.826,175,75
2026-05-09 15:11:18.323,4,0.98,1.85,0.91,56.08,-34.1616,-28.156,175,75
2026-05-09 15:11:18.334,4,0.88,1.76,0.86,62.42,-28.421599999999998,-26.875999999999998,175,75
2026-05-09 15:11:18.392,4,0.65,1.92,1.02,51.26,-1.4116,-44.556000000000004,175,75
2026-05-09 15:11:18.420,4,0.31,1.67,0.69,57.73,-14.281599999999997,-48.156,175,75
2026-05-09 15:11:18.444,4,0.28,1.91,0.71,49.25,40.2884,-18.336000000000002,175,75
2026-05-09 15:11:18.460,4,0.4,1.82,0.87,48.4,59.078399999999995,7.153999999999999,175,75
2026-05-09 15:11:18.526,4,-0.12,1.64,0.72,22.36,117.85839999999999,30.444,175,75
2026-05-09 15:11:18.552,4,-0.01,1.64,0.82,21.32,204.6884,64.104,175,75
2026-05-09 15:11:18.563,4,-0.02,1.58,0.9,30.11,226.9984,88.314,175,75
2026-05-09 15:11:18.602,4,-0.47,1.18,1.23,30.9,258.2784,134.404,175,75
2026-05-09 15:11:18.616,4,-0.65,0.95,1.47,2.7299999999999986,226.5784,154.834,175,75
2026-05-09 15:11:18.645,4,-0.72,0.65,1.67,-29.35,160.1684,171.054,175,75
2026-05-09 15:11:18.670,4,-0.91,0.21,1.44,-56.66,73.2184,212.334,175,75
2026-05-09 15:11:18.699,4,-0.98,-0.32,1.21,-74.1,140.8384,297.334,175,75
2026-05-09 15:11:18.711,4,-0.97,-0.59,1.21,-73.37,174.0084,361.844,175,75
2026-05-09 15:11:18.729,4,-1.05,-1.13,1.41,-77.15,179.0084,455.62399999999997,175,75
2026-05-09 15:11:18.742,4,-1.03,-1.82,1.68,-90.08,79.3784,469.534,175,75
2026-05-09 15:11:18.752,4,-1.21,-2.7,1.86,-69.41,-17.211599999999997,427.454,175,75
2026-05-09 15:11:18.769,4,-1.21,-3.3,1.78,-66.72,6.328400000000002,387.034,175,75
2026-05-09 15:11:18.791,4,-0.26,-2.4,1.5,-143.43,9.438400000000001,396.844,175,75
2026-05-09 15:11:18.800,4,-0.17,-2.11,1.46,-97.15,-47.8816,438.31399999999996,175,75
2026-05-09 15:11:18.811,4,-0.06,-2.25,1.5,15.469999999999999,-84.16159999999999,522.644,175,75
2026-05-09 15:11:18.823,4,0.0,-2.78,1.69,103.89,-111.60159999999999,611.784,175,75
2026-05-09 15:11:18.839,4,-0.27,-3.24,1.98,153.57999999999998,-210.01160000000002,676.484,175,75
2026-05-09 15:11:18.855,4,-1.72,-3.82,2.4,180.41000000000003,-369.7716,679.774,175,75
2026-05-09 15:11:18.868,4,-2.1,-4.11,2.47,170.47000000000003,-406.6616,632.824,175,75
2026-05-09 15:11:18.887,4,-2.05,-4.64,2.37,146.57,-462.1416,550.564,175,75
2026-05-09 15:11:18.887,4,-1.78,-4.98,2.14,125.59,-528.1816,484.834,175,75
2026-05-09 15:11:18.894,4,-1.47,-5.01,1.8,122.06,-579.7116,440.264,175,75
2026-05-09 15:11:18.952,4,-1.61,-4.28,0.51,299.5,-481.90160000000003,259.464,175,75
2026-05-09 15:11:18.964,4,-1.2,-4.06,0.33,292.73,-415.7416,201.42399999999998,175,75
2026-05-09 15:11:18.975,4,-0.85,-3.73,0.18,283.28000000000003,-367.1416,174.95399999999998,175,75
2026-05-09 15:11:18.975,4,-0.81,-3.36,0.17,291.45,-347.3316,148.79399999999998,175,75
2026-05-09 15:11:18.998,4,-0.99,-3.03,0.32,308.95,-334.6416,100.01400000000001,175,75
2026-05-09 15:11:19.001,4,-1.17,-2.76,0.7,315.72,-353.4216,39.464,175,75
2026-05-09 15:11:19.022,4,-1.23,-2.54,0.93,300.35,-377.4516,-13.516000000000002,175,75
2026-05-09 15:11:19.031,4,-1.2,-2.19,0.84,251.57,-398.3016,-55.656,175,75
2026-05-09 15:11:19.048,4,-1.28,-1.73,0.42,196.45,-427.5716,-81.20599999999999,175,75
2026-05-09 15:11:19.059,4,-1.33,-1.38,-0.08,166.87,-471.1716,-117.726,175,75
2026-05-09 15:11:19.082,4,-1.6,-1.04,-0.57,167.42000000000002,-492.7516,-173.096,175,75
2026-05-09 15:11:19.082,4,-1.84,-0.81,-0.89,187.0,-468.4916,-215.596,175,75
2026-05-09 15:11:19.104,4,-2.1,-0.13,-1.01,234.62,-390.0716,-268.216,175,75
2026-05-09 15:11:19.145,4,-2.34,1.15,-0.25,103.22,72.11840000000001,112.644,175,75
2026-05-09 15:11:19.171,4,-1.27,0.22,0.37,171.57,72.9784,147.394,175,75
2026-05-09 15:11:19.171,4,-1.09,0.02,0.53,117.0,-22.8816,140.144,175,75
2026-05-09 15:11:19.193,4,-1.15,0.02,0.57,50.17,-123.2416,98.494,175,75
2026-05-09 15:11:19.220,4,-1.32,0.73,0.25,41.51,-223.85160000000002,92.57400000000001,175,75
2026-05-09 15:11:19.246,4,-0.64,0.37,-0.06,32.18,-117.82159999999999,125.07400000000001,175,75
2026-05-09 15:11:19.260,4,-0.42,0.33,-0.01,9.309999999999999,-97.6916,131.60399999999998,175,75
2026-05-09 15:11:19.271,4,-0.51,0.55,0.26,-4.280000000000001,-67.88159999999999,144.224,175,75
2026-05-09 15:11:19.283,4,-1.33,0.87,0.63,-13.920000000000002,-144.7716,172.334,175,75
2026-05-09 15:11:19.294,4,-0.07,0.47,-0.1,6.6899999999999995,2.9183999999999983,65.624,175,75
2026-05-09 15:11:19.304,4,0.92,0.16,0.14,-16.3,-91.9616,121.964,175,75
2026-05-09 15:11:19.304,4,0.55,0.23,0.42,-24.89,-129.3416,118.85399999999998,175,75
2026-05-09 15:11:19.318,4,-0.08,0.34,0.54,-35.81,-132.9416,117.94399999999999,175,75
2026-05-09 15:11:19.346,4,0.5,0.03,0.23,-100.75,-207.57160000000002,88.554,175,75
2026-05-09 15:11:19.361,4,0.38,-0.01,0.14,-109.41,-204.8316,73.00399999999999,175,75
2026-05-09 15:11:19.372,4,0.62,-0.12,-0.01,-121.05,-149.4616,81.35399999999998,175,75
2026-05-09 15:11:19.385,4,0.91,-0.41,-0.16,-137.88,-73.9716,106.054,175,75
2026-05-09 15:11:19.396,4,1.07,-0.94,-0.23,-148.55,-30.251599999999996,109.834,175,75
2026-05-09 15:11:19.408,4,1.01,-1.25,-0.19,-166.11,-0.07159999999999656,107.45400000000001,175,75
2026-05-09 15:11:19.408,4,0.99,-1.38,-0.12,-198.98000000000002,48.708400000000005,103.85399999999998,175,75
2026-05-09 15:11:19.432,4,1.14,-1.25,0.02,-260.02,161.3884,104.16399999999999,175,75
2026-05-09 15:11:19.442,4,1.38,-1.0,0.32,-298.25,284.9284,119.16399999999999,175,75
2026-05-09 15:11:19.465,4,2.01,-1.64,1.28,-307.33,466.1484,124.53399999999999,175,75
2026-05-09 15:11:19.465,4,2.5,-2.45,2.46,-270.69,218.21839999999997,-37.966,175,75
2026-05-09 15:11:19.478,4,1.89,-2.64,2.34,-292.58,232.4884,-58.64600000000001,175,75
2026-05-09 15:11:19.489,4,2.21,-2.32,2.79,-305.81,160.2284,-126.756,175,75
2026-05-09 15:11:19.499,4,2.07,-1.74,2.86,-305.44,105.2884,-168.336,175,75
2026-05-09 15:11:19.522,4,2.04,-1.35,2.84,-284.40999999999997,107.2484,-194.67600000000002,175,75
2026-05-09 15:11:19.522,4,2.05,-1.26,2.84,-261.05,100.89839999999998,-221.07600000000002,175,75
2026-05-09 15:11:19.533,4,2.05,-1.32,2.81,-251.47999999999996,102.85839999999999,-250.466,175,75
2026-05-09 15:11:19.543,4,2.02,-1.42,2.89,-247.32999999999998,104.8084,-275.776,175,75
2026-05-09 15:11:19.553,4,1.95,-1.47,2.92,-240.2,109.0084,-299.676,175,75
2026-05-09 15:11:19.571,4,1.78,-1.49,2.92,-231.3,129.1984,-336.446,175,75
2026-05-09 15:11:19.584,4,1.58,-1.52,2.84,-224.58999999999997,151.6984,-362.426,175,75
2026-05-09 15:11:19.594,4,1.4,-1.63,2.63,-208.43,189.7484,-392.356,175,75
2026-05-09 15:11:19.606,4,0.96,-1.6,2.14,-165.44,199.3184,-413.886,175,75
2026-05-09 15:11:19.620,4,0.72,-1.44,1.96,-142.57999999999998,215.28839999999997,-413.036,175,75
2026-05-09 15:11:19.642,4,0.54,-1.19,1.8,-125.2,232.78839999999997,-406.206,175,75
2026-05-09 15:11:19.652,4,0.28,-0.8,1.68,-105.14,250.59839999999997,-387.356,175,75
2026-05-09 15:11:19.654,4,0.11,-0.5,1.58,-87.39,250.53839999999997,-368.276,175,75
2026-05-09 15:11:19.668,4,-0.01,-0.28,1.54,-73.74,235.22840000000002,-357.176,175,75
2026-05-09 15:11:19.680,4,-0.09,-0.06,1.46,-62.209999999999994,215.89839999999998,-346.68600000000004,175,75
2026-05-09 15:11:19.680,4,-0.09,0.1,1.38,-55.5,195.5984,-333.516,175,75
2026-05-09 15:11:19.704,4,-0.15,0.33,1.27,-45.32,148.76839999999999,-309.496,175,75
2026-05-09 15:11:19.714,4,-0.36,0.62,1.08,-40.5,104.2584,-286.076,175,75
2026-05-09 15:11:19.737,4,-0.55,0.94,0.88,-27.759999999999998,54.4984,-255.106,175,75
2026-05-09 15:11:19.748,4,-0.68,1.03,0.8,-25.259999999999998,44.988400000000006,-231.07600000000002,175,75
2026-05-09 15:11:19.759,4,-0.84,1.1,0.7,-20.08,60.718399999999995,-196.386,175,75
2026-05-09 15:11:19.772,4,-1.01,1.13,0.66,-10.990000000000002,84.5584,-151.756,175,75
2026-05-09 15:11:19.783,4,-1.02,1.09,0.64,3.58,120.16839999999999,-122.48600000000002,175,75
2026-05-09 15:11:19.805,4,-1.36,1.06,0.76,39.01,187.6684,-63.826,175,75
2026-05-09 15:11:19.818,4,-1.35,1.06,0.95,60.11,212.91840000000002,-36.326,175,75
2026-05-09 15:11:19.824,4,-1.18,0.96,1.08,85.96,171.3284,-20.896,175,75
2026-05-09 15:11:19.838,4,-1.14,0.86,1.11,104.92,79.13839999999999,-14.066000000000003,175,75
2026-05-09 15:11:19.851,4,-1.18,0.79,1.1,111.92999999999999,-0.4416000000000011,-14.066000000000003,175,75
2026-05-09 15:11:19.873,4,-1.25,0.78,0.82,109.42999999999999,-89.5216,-5.046000000000001,175,75
2026-05-09 15:11:19.884,4,-1.21,0.82,0.63,125.41,-64.7116,20.073999999999998,175,75
2026-05-09 15:11:19.900,4,-1.15,0.82,0.58,151.32,-13.611599999999996,62.824,175,75
2026-05-09 15:11:19.912,4,-1.08,0.78,0.66,169.74,30.1684,100.20400000000001,175,75
2026-05-09 15:11:19.923,4,-0.99,0.74,0.8,184.07,63.6484,133.734,175,75
2026-05-09 15:11:19.946,4,-0.92,0.65,1.19,207.91000000000003,54.2584,199.894,175,75
2026-05-09 15:11:19.969,4,-1.01,0.54,1.37,225.11,46.878400000000006,247.214,175,75
2026-05-09 15:11:19.969,4,-1.04,0.39,1.46,241.57,79.13839999999999,282.334,175,75
2026-05-09 15:11:19.981,4,-0.97,0.17,1.54,259.92,144.4984,318.43399999999997,175,75
2026-05-09 15:11:19.981,4,-0.87,-0.11,1.59,282.06,271.3284,361.964,175,75
2026-05-09 15:11:20.002,4,-0.53,-0.23,1.82,281.63,376.9384,457.824,175,75
2026-05-09 15:11:20.002,4,0.54,-0.51,2.67,271.87,375.7184,482.334,175,75
2026-05-09 15:11:20.013,4,0.69,-0.58,3.4,271.45,204.6884,527.454,175,75
2026-05-09 15:11:20.051,4,0.85,-1.27,4.74,335.59000000000003,109.7484,610.264,175,75
2026-05-09 15:11:20.051,4,0.58,-1.58,5.37,348.15000000000003,2.1784000000000034,623.184,175,75
2026-05-09 15:11:20.072,4,1.6,-2.41,5.53,391.93,-147.0816,586.604,175,75
2026-05-09 15:11:20.088,4,3.58,-4.13,2.62,465.47,9.868400000000001,517.8240000000001,175,75
2026-05-09 15:11:20.106,4,4.64,-4.63,2.08,505.23,111.9984,488.674,175,75
2026-05-09 15:11:20.116,4,4.48,-4.44,1.81,539.8000000000001,238.09839999999997,467.334,175,75
2026-05-09 15:11:20.144,4,4.11,-3.68,3.14,571.2,28.888399999999997,364.714,175,75
2026-05-09 15:11:20.144,4,3.59,-3.6,3.03,578.46,-137.3316,295.014,175,75
2026-05-09 15:11:20.159,4,3.22,-3.63,2.44,598.46,-301.2316,224.04399999999998,175,75
2026-05-09 15:11:20.172,4,2.55,-3.68,1.62,588.89,-463.6716,152.334,175,75
2026-05-09 15:11:20.191,4,1.61,-2.87,-0.17,460.53000000000003,-530.9216,29.163999999999998,175,75
2026-05-09 15:11:20.220,4,0.17,-2.3,-1.15,342.3,-537.8815999999999,-135.406,175,75
2026-05-09 15:11:20.233,4,-0.5,-1.91,-1.5,311.2,-397.8216,-196.876,175,75
2026-05-09 15:11:20.258,4,-0.59,-0.86,-1.35,318.76,-155.8016,-355.836,175,75
2026-05-09 15:11:20.258,4,-0.08,-0.36,-0.78,369.86,-141.7816,-414.25600000000003,175,75
2026-05-09 15:11:20.304,4,-0.95,0.37,-0.13,213.57999999999998,-206.9616,-141.566,175,75
2026-05-09 15:11:20.304,4,-0.89,-0.12,-0.14,196.51,-133.4216,-203.156,175,75
2026-05-09 15:11:20.314,4,-0.84,-0.14,-0.18,162.54000000000002,-72.63159999999999,-184.186,175,75
2026-05-09 15:11:20.338,4,-0.9,0.14,-0.18,128.45999999999998,-16.4716,-175.716,175,75
2026-05-09 15:11:20.338,4,-0.94,0.34,-0.12,114.01,22.248399999999997,-180.286,175,75
2026-05-09 15:11:20.389,4,-0.82,0.64,0.33,94.5,109.4384,-153.76600000000002,175,75
2026-05-09 15:11:20.441,4,-0.73,0.54,1.01,66.57,-31.961599999999997,-147.056,175,75
2026-05-09 15:11:20.460,4,-0.86,0.61,0.83,35.78,-166.6016,-154.376,175,75
2026-05-09 15:11:20.474,4,-0.83,0.64,0.83,29.5,-165.5616,-144.316,175,75
2026-05-09 15:11:20.482,4,-0.81,0.69,0.85,25.04,-151.6016,-132.17600000000002,175,75
2026-05-09 15:11:20.494,4,-0.72,0.81,0.89,18.15,-129.8916,-119.006,175,75
2026-05-09 15:11:20.504,4,-0.6,0.97,0.91,9.739999999999998,-121.17160000000001,-109.67599999999999,175,75
2026-05-09 15:11:20.528,4,-0.41,1.27,0.68,-18.0,-158.7916,-98.946,175,75
2026-05-09 15:11:20.540,4,-0.3,0.99,0.12,-21.049999999999997,-121.23159999999999,-108.45599999999999,175,75
2026-05-09 15:11:20.578,4,0.86,1.58,0.4,-0.6900000000000013,303.4684,-83.576,175,75
2026-05-09 15:11:20.593,4,1.44,1.2,1.02,-4.960000000000001,217.72840000000002,-40.656,175,75
2026-05-09 15:11:20.604,4,1.09,1.28,2.17,28.64,67.48840000000001,-55.536,175,75
2026-05-09 15:11:20.614,4,-0.06,1.33,2.03,31.259999999999998,-23.551599999999997,-52.116,175,75
2026-05-09 15:11:20.624,4,0.25,1.18,1.47,1.3200000000000003,-133.2416,-93.51599999999999,175,75
2026-05-09 15:11:20.650,4,-0.1,2.14,0.35,-31.72,-182.8116,-88.886,175,75
2026-05-09 15:11:20.667,4,-0.03,2.27,0.16,-2.7600000000000016,-86.8416,-61.446000000000005,175,75
2026-05-09 15:11:20.679,4,0.35,1.43,-0.06,-8.86,75.4784,-49.736000000000004,175,75
2026-05-09 15:11:20.705,4,0.41,1.78,0.17,-22.58,115.89839999999998,-54.856,175,75
2026-05-09 15:11:20.725,4,0.38,1.93,0.61,-17.15,144.8084,-23.946,175,75
2026-05-09 15:11:20.751,4,0.52,1.85,0.84,-22.82,69.5584,-29.375999999999998,175,75
2026-05-09 15:11:20.751,4,0.47,1.78,0.81,-26.11,19.988400000000006,-32.726,175,75
2026-05-09 15:11:20.785,4,0.14,1.85,0.36,-46.78,41.93840000000001,-31.936,175,75
2026-05-09 15:11:20.812,4,0.24,2.0,0.2,-41.11,128.0984,-10.166,175,75
2026-05-09 15:11:20.844,4,0.24,1.64,0.63,-27.82,284.4384,23.124,175,75
2026-05-09 15:11:20.855,4,0.41,1.64,0.86,-31.42,264.6784,20.014,175,75
2026-05-09 15:11:20.928,4,0.41,1.74,0.89,-33.61,2.4284000000000034,-46.016,175,75
2026-05-09 15:11:20.941,4,0.46,1.88,0.66,-29.22,-16.961599999999997,-48.886,175,75
2026-05-09 15:11:20.962,4,0.27,1.78,0.58,-17.58,-6.2316,-38.156,175,75
2026-05-09 15:11:20.982,4,0.13,1.99,0.66,-40.99,-19.4016,-46.686,175,75
2026-05-09 15:11:20.982,4,-0.19,2.39,0.85,-67.09,-64.7116,-56.016,175,75
2026-05-09 15:11:21.003,4,-0.42,2.6,0.84,-79.53,-38.3016,-21.446,175,75
2026-05-09 15:11:21.035,4,-0.1,2.29,0.6,-37.21,-18.851599999999998,1.5439999999999987,175,75
2026-05-09 15:11:21.046,4,0.23,1.85,0.47,-5.440000000000001,-15.5016,31.424,175,75
2026-05-09 15:11:21.064,4,-0.02,1.38,0.4,-15.379999999999999,21.878400000000006,46.544,175,75
2026-05-09 15:11:21.077,4,-0.19,1.35,0.46,-33.37,40.65840000000001,39.714,175,75
2026-05-09 15:11:21.107,4,-0.85,1.65,0.93,-44.53,253.15839999999997,146.54399999999998,175,75
2026-05-09 15:11:21.124,4,-0.76,1.01,1.22,-54.89,377.4284,197.57399999999998,175,75
2026-05-09 15:11:21.151,4,-0.71,0.82,1.38,-68.31,395.28839999999997,208.79399999999998,175,75
2026-05-09 15:11:21.163,4,-0.54,0.51,1.86,-104.22,306.5084,204.594,175,75
2026-05-09 15:11:21.173,4,-0.55,0.43,1.96,-119.96,209.8684,193.85399999999998,175,75
2026-05-09 15:11:21.209,4,-0.54,0.06,1.77,-146.97000000000003,71.14840000000001,199.654,175,75
2026-05-09 15:11:21.210,4,-0.44,-0.15,1.65,-158.37,49.1384,209.344,175,75
2026-05-09 15:11:21.271,4,-0.06,-1.11,1.36,-173.8,163.0984,265.144,175,75
2026-05-09 15:11:21.302,4,-0.09,-1.19,2.32,-108.19,126.8184,332.884,175,75
2026-05-09 15:11:21.308,4,-0.4,-1.14,2.56,-74.71,67.42840000000001,360.81399999999996,175,75
2026-05-09 15:11:21.320,4,-0.4,-1.27,2.76,-57.33,60.65840000000001,391.234,175,75
2026-05-09 15:11:21.354,4,0.03,-1.73,2.96,9.919999999999998,-77.3916,460.204,175,75
2026-05-09 15:11:21.367,4,0.0,-2.23,2.73,127.0,-232.3916,559.3439999999999,175,75
2026-05-09 15:11:21.378,4,-0.1,-2.54,2.68,163.14999999999998,-298.3016,624.404,175,75
2026-05-09 15:11:21.401,4,-0.3,-3.14,2.8,188.89,-321.3516,710.934,175,75
2026-05-09 15:11:21.412,4,-0.42,-3.75,3.05,190.72000000000003,-375.4416,763.124,175,75
2026-05-09 15:11:21.435,4,-1.94,-4.4,2.96,243.39999999999998,-601.4115999999999,663.004,175,75
2026-05-09 15:11:21.445,4,-2.64,-4.92,2.34,251.45,-696.6016,516.354,175,75
2026-05-09 15:11:21.457,4,-2.69,-5.42,1.89,254.5,-742.7515999999999,436.664,175,75
2026-05-09 15:11:21.479,4,-2.3,-5.52,0.09,232.54000000000002,-600.5015999999999,300.324,175,75
2026-05-09 15:11:21.529,4,-1.05,-3.76,-1.67,235.89999999999998,-282.4516,201.35399999999998,175,75
2026-05-09 15:11:21.571,4,-1.65,-2.55,-1.59,342.06,-35.1316,217.094,175,75
2026-05-09 15:11:21.582,4,-1.68,-2.16,-1.1,447.54,225.89839999999998,248.314,175,75
2026-05-09 15:11:21.632,4,-0.27,-2.58,1.95,539.98,47.9784,174.284,175,75
2026-05-09 15:11:21.690,4,0.09,-1.65,2.65,163.27999999999997,-428.7316,77.82400000000001,175,75
2026-05-09 15:11:21.700,4,0.22,-1.05,2.06,67.24000000000001,-582.1415999999999,137.70399999999998,175,75
2026-05-09 15:11:21.714,4,-0.46,-1.01,1.45,39.56,-669.1615999999999,161.54399999999998,175,75
2026-05-09 15:11:21.736,4,-0.99,-1.11,-0.2,95.35,-795.7416,57.884,175,75
2026-05-09 15:11:21.748,4,-0.29,0.6,-1.08,90.41,-357.21160000000003,-186.756,175,75
2026-05-09 15:11:21.748,4,-1.02,1.46,-1.18,18.7,-184.6416,22.764,175,75
2026-05-09 15:11:21.786,4,-1.01,0.56,0.28,23.28,459.8084,195.934,175,75
2026-05-09 15:11:21.797,4,-0.65,0.49,1.25,-47.15,266.5784,166.114,175,75
2026-05-09 15:11:21.818,4,-0.04,0.52,1.63,-80.81,-154.5216,100.38399999999999,175,75
2026-05-09 15:11:21.830,4,-0.57,0.43,0.76,-116.60000000000001,-550.4416,-0.4660000000000011,175,75
2026-05-09 15:11:21.842,4,-0.27,0.43,0.18,-109.96,-575.8616,-35.656,175,75
2026-05-09 15:11:21.853,4,-0.74,0.82,-0.25,-103.74,-546.1716,-2.296000000000001,175,75
