Time,ID,Ax,Ay,Az,Gx,Gy,Gz,Height,Weight
2026-05-09 14:57:30.759,5,0.06,0.56,1.05,-2.339,-22.6338,-66.78280000000001,175,75
2026-05-09 14:57:30.759,5,0.14,0.48,1.03,-9.329,7.4962,-11.4328,175,75
2026-05-09 14:57:30.820,5,-0.65,-0.18,1.36,-15.489,43.696200000000005,106.15719999999999,175,75
2026-05-09 14:57:30.857,5,-0.48,-0.29,1.0,13.280999999999999,28.1062,-101.09280000000001,175,75
2026-05-09 14:57:30.934,5,0.14,0.25,0.96,-5.4990000000000006,-22.073800000000002,-42.5228,175,75
2026-05-09 14:57:30.958,5,0.19,0.31,1.0,-2.109,16.9062,-4.6128,175,75
2026-05-09 14:57:30.961,5,0.16,0.34,1.05,-8.759,34.9262,14.6672,175,75
2026-05-09 14:57:30.971,5,0.13,0.28,1.02,-15.669,52.5362,31.6572,175,75
2026-05-09 14:57:31.049,5,-0.34,0.11,1.15,-17.849,57.626200000000004,43.327200000000005,175,75
2026-05-09 14:57:31.106,5,-0.41,0.1,1.13,-7.119,12.5962,44.507200000000005,175,75
2026-05-09 14:57:31.145,5,-0.35,0.17,1.09,-10.189,-14.0138,46.0972,175,75
2026-05-09 14:57:31.169,5,-0.36,0.19,1.1,-13.619,-16.0738,42.5972,175,75
2026-05-09 14:57:31.169,5,-0.37,0.18,1.05,-17.609,-16.6738,38.437200000000004,175,75
2026-05-09 14:57:31.320,5,0.43,0.22,1.04,-34.138999999999996,-122.69380000000001,118.3372,175,75
2026-05-09 14:57:31.320,5,0.59,0.1,1.15,-31.119,-136.50379999999998,167.6172,175,75
2026-05-09 14:57:31.377,5,0.86,-0.94,1.03,-13.379000000000001,-60.273799999999994,249.7172,175,75
2026-05-09 14:57:31.377,5,0.37,-0.91,0.94,4.571,-5.2738,249.7172,175,75
2026-05-09 14:57:31.428,5,-0.06,0.75,1.48,2.201,69.66619999999999,-250.5528,175,75
2026-05-09 14:57:31.440,5,0.06,0.99,1.93,-2.069,-69.3438,-154.7228,175,75
2026-05-09 14:57:31.485,5,0.15,-0.07,0.8,3.101,-63.233799999999995,203.7372,175,75
2026-05-09 14:57:31.517,5,0.51,0.28,1.09,-7.439,-11.5738,249.7172,175,75
2026-05-09 14:57:31.531,5,-0.02,0.11,1.25,-24.889,-40.0738,249.7172,175,75
2026-05-09 14:57:31.567,5,-0.3,-0.69,0.75,-12.079,-31.2138,165.00719999999998,175,75
2026-05-09 14:57:31.613,5,-0.44,-0.41,0.75,22.730999999999998,43.3162,-9.9428,175,75
2026-05-09 14:57:31.613,5,-0.33,-0.28,0.89,19.401,71.9262,-80.3328,175,75
2026-05-09 14:57:31.613,5,-0.21,-0.19,1.05,6.361000000000001,84.41619999999999,-134.6228,175,75
2026-05-09 14:57:31.662,5,0.46,0.14,1.3,-0.019000000000000017,-32.0638,-12.482800000000001,175,75
2026-05-09 14:57:31.662,5,0.15,0.33,1.24,-0.569,-28.3738,30.2672,175,75
2026-05-09 14:57:31.689,5,0.13,-0.03,0.91,-18.619,22.4862,155.50719999999998,175,75
2026-05-09 14:57:31.705,5,-0.02,0.06,1.11,-12.239,34.4262,249.3272,175,75
2026-05-09 14:57:31.705,5,-0.34,0.04,1.33,-26.399,-7.3538,243.3672,175,75
2026-05-09 14:57:31.712,5,-0.2,-0.2,1.32,-37.708999999999996,-31.3638,198.7372,175,75
2026-05-09 14:57:31.752,5,-0.25,-0.4,0.94,-3.879,-27.573800000000002,82.5372,175,75
2026-05-09 14:57:31.752,5,-0.2,-0.33,0.94,2.0709999999999997,-21.4638,55.4872,175,75
2026-05-09 14:57:31.771,5,-0.01,-0.2,1.01,-0.32899999999999996,-24.6438,37.4572,175,75
2026-05-09 14:57:31.793,5,0.19,-0.09,1.02,3.941,-31.6038,67.3672,175,75
2026-05-09 14:57:31.803,5,0.19,-0.04,1.01,3.561,-22.5238,83.43719999999999,175,75
2026-05-09 14:57:31.816,5,0.14,-0.03,1.0,-0.2290000000000001,-9.6338,93.5372,175,75
2026-05-09 14:57:31.826,5,0.1,-0.04,1.01,-5.599,2.0162,99.9272,175,75
2026-05-09 14:57:31.838,5,0.06,-0.08,1.03,-8.159,8.7562,104.4472,175,75
2026-05-09 14:57:31.838,5,0.01,-0.1,1.07,-7.429,10.9162,105.8972,175,75
2026-05-09 14:57:31.861,5,-0.08,-0.13,1.13,-6.289,4.8362,101.0972,175,75
2026-05-09 14:57:31.881,5,-0.15,-0.15,1.13,-6.089,-7.5038,95.5072,175,75
2026-05-09 14:57:31.889,5,-0.15,-0.15,1.12,-5.399000000000001,-14.8838,94.5272,175,75
2026-05-09 14:57:31.908,5,-0.14,-0.16,1.12,-5.308999999999999,-22.6738,93.40719999999999,175,75
2026-05-09 14:57:31.912,5,-0.1,-0.18,1.12,-4.2490000000000006,-30.5338,93.5672,175,75
2026-05-09 14:57:31.948,5,0.03,-0.22,1.07,0.050999999999999934,-35.4638,87.7672,175,75
2026-05-09 14:57:31.984,5,0.04,-0.22,1.03,2.331,-28.5138,77.9272,175,75
2026-05-09 14:57:31.996,5,0.04,-0.21,1.03,3.171,-24.8738,73.2872,175,75
2026-05-09 14:57:32.006,5,0.05,-0.2,1.03,1.4609999999999999,-21.8038,70.7872,175,75
2026-05-09 14:57:32.018,5,0.06,-0.21,1.03,-0.18900000000000006,-19.4638,70.5572,175,75
2026-05-09 14:57:32.039,5,0.04,-0.23,1.05,-1.0290000000000001,-10.9838,58.537200000000006,175,75
2026-05-09 14:57:32.051,5,0.03,-0.23,1.07,-1.259,-7.1738,51.6572,175,75
2026-05-09 14:57:32.062,5,0.02,-0.23,1.06,0.0010000000000000009,-5.0838,45.467200000000005,175,75
2026-05-09 14:57:32.072,5,0.0,-0.22,1.07,1.301,-5.6137999999999995,41.3872,175,75
2026-05-09 14:57:32.078,5,-0.01,-0.2,1.09,2.501,-8.7638,38.107200000000006,175,75
2026-05-09 14:57:32.090,5,-0.0,-0.18,1.11,2.081,-12.5038,36.2472,175,75
2026-05-09 14:57:32.110,5,0.02,-0.17,1.11,-0.5589999999999999,-19.3938,36.0272,175,75
2026-05-09 14:57:32.132,5,0.03,-0.19,1.08,-1.2690000000000001,-20.7338,37.437200000000004,175,75
2026-05-09 14:57:32.148,5,0.04,-0.21,1.07,-1.259,-21.1038,39.327200000000005,175,75
2026-05-09 14:57:32.159,5,0.05,-0.22,1.07,0.9109999999999999,-19.4638,35.3172,175,75
2026-05-09 14:57:32.215,5,0.04,-0.19,1.05,2.041,-12.6038,14.357199999999999,175,75
2026-05-09 14:57:32.248,5,0.07,-0.15,1.03,5.271000000000001,-11.793800000000001,9.8272,175,75
2026-05-09 14:57:32.248,5,0.08,-0.12,1.03,4.711,-9.1938,12.1572,175,75
2026-05-09 14:57:32.258,5,0.08,-0.13,1.03,3.671,-6.1137999999999995,16.4772,175,75
2026-05-09 14:57:32.269,5,0.07,-0.13,1.02,2.811,-2.7438000000000002,22.307199999999998,175,75
2026-05-09 14:57:32.294,5,0.01,-0.13,1.07,0.07099999999999995,-2.3038,24.5072,175,75
2026-05-09 14:57:32.309,5,0.01,-0.12,1.08,0.721,-4.0138,23.8572,175,75
2026-05-09 14:57:32.322,5,0.0,-0.09,1.07,1.721,-7.7738,26.3872,175,75
2026-05-09 14:57:32.332,5,0.01,-0.1,1.07,1.951,-10.543800000000001,30.1272,175,75
2026-05-09 14:57:32.343,5,0.02,-0.09,1.07,1.841,-13.3038,34.4572,175,75
2026-05-09 14:57:32.343,5,0.03,-0.1,1.06,1.7109999999999999,-14.3138,37.537200000000006,175,75
2026-05-09 14:57:32.355,5,0.04,-0.11,1.04,1.531,-15.5638,39.7372,175,75
2026-05-09 14:57:32.368,5,0.06,-0.12,1.03,1.221,-16.3238,40.5572,175,75
2026-05-09 14:57:32.380,5,0.06,-0.13,1.03,-0.129,-12.4738,40.5272,175,75
2026-05-09 14:57:32.398,5,0.06,-0.13,1.03,-0.5390000000000001,-11.7238,41.117200000000004,175,75
2026-05-09 14:57:32.404,5,0.06,-0.14,1.03,0.08099999999999996,-12.1938,42.217200000000005,175,75
2026-05-09 14:57:32.412,5,0.06,-0.13,1.02,0.5409999999999999,-12.1438,42.297200000000004,175,75
2026-05-09 14:57:32.428,5,0.05,-0.12,1.03,0.46099999999999997,-11.4938,41.827200000000005,175,75
2026-05-09 14:57:32.449,5,0.05,-0.1,1.0,0.18099999999999994,-11.3938,46.4072,175,75
2026-05-09 14:57:32.464,5,0.04,-0.1,1.01,0.10099999999999998,-13.533800000000001,49.4472,175,75
2026-05-09 14:57:32.491,5,0.05,-0.12,1.01,-0.5090000000000001,-18.8838,53.187200000000004,175,75
2026-05-09 14:57:32.503,5,0.07,-0.13,1.0,-1.4090000000000003,-22.2138,53.0172,175,75
2026-05-09 14:57:32.524,5,0.08,-0.14,1.0,-2.239,-25.0538,50.0272,175,75
2026-05-09 14:57:32.538,5,0.11,-0.16,1.0,-1.859,-26.8938,49.3772,175,75
2026-05-09 14:57:32.549,5,0.13,-0.17,0.98,-1.3290000000000002,-27.1438,48.937200000000004,175,75
2026-05-09 14:57:32.549,5,0.14,-0.17,0.98,-0.5390000000000001,-24.6338,47.9172,175,75
2026-05-09 14:57:32.589,5,0.11,-0.19,0.97,-1.2690000000000001,-10.7538,39.297200000000004,175,75
2026-05-09 14:57:32.600,5,0.1,-0.19,0.99,-2.529,-8.7238,35.7772,175,75
2026-05-09 14:57:32.600,5,0.1,-0.18,1.01,-3.709,-9.8438,33.2072,175,75
2026-05-09 14:57:32.611,5,0.12,-0.19,1.05,-3.2689999999999997,-13.2738,31.5272,175,75
2026-05-09 14:57:32.628,5,0.15,-0.18,1.07,-2.429,-15.5238,30.6372,175,75
2026-05-09 14:57:32.657,5,0.12,-0.18,1.06,-3.329,-16.4938,30.7272,175,75
2026-05-09 14:57:32.684,5,0.08,-0.21,1.02,-3.019,-15.5938,31.997199999999996,175,75
2026-05-09 14:57:32.696,5,0.09,-0.21,1.01,-2.849,-14.873800000000001,30.4772,175,75
2026-05-09 14:57:32.738,5,0.12,-0.19,1.04,-4.899000000000001,-14.543800000000001,22.577199999999998,175,75
2026-05-09 14:57:32.748,5,0.15,-0.19,1.04,-6.179,-14.4038,18.2872,175,75
2026-05-09 14:57:32.802,5,0.12,-0.21,1.06,-6.0489999999999995,-14.4238,23.9672,175,75
2026-05-09 14:57:32.820,5,0.11,-0.24,1.04,-5.159000000000001,-15.6638,25.1972,175,75
2026-05-09 14:57:32.837,5,0.09,-0.25,1.02,0.21099999999999997,-16.2338,16.147199999999998,175,75
2026-05-09 14:57:32.837,5,0.09,-0.21,0.99,2.541,-16.6438,5.8472,175,75
2026-05-09 14:57:32.849,5,0.16,-0.11,0.97,4.7010000000000005,-11.533800000000001,-1.9128,175,75
2026-05-09 14:57:32.876,5,0.24,-0.14,1.03,-1.079,-17.663800000000002,26.8372,175,75
2026-05-09 14:57:32.887,5,0.22,-0.17,1.03,-0.7790000000000001,-16.6338,31.747199999999996,175,75
2026-05-09 14:57:32.892,5,0.14,-0.21,1.0,2.221,-10.0138,24.2772,175,75
2026-05-09 14:57:32.951,5,0.13,-0.2,1.01,2.851,-11.203800000000001,8.1572,175,75
2026-05-09 14:57:32.951,5,0.17,-0.19,1.02,3.201,-15.2538,6.1472,175,75
2026-05-09 14:57:32.966,5,0.21,-0.17,1.02,2.941,-18.5138,6.1972000000000005,175,75
2026-05-09 14:57:32.966,5,0.22,-0.16,1.01,1.4609999999999999,-18.9838,7.3972,175,75
2026-05-09 14:57:33.006,5,0.25,-0.17,1.01,-0.7989999999999999,-16.6038,9.6672,175,75
2026-05-09 14:57:33.006,5,0.24,-0.2,0.99,-3.209,-13.613800000000001,13.107199999999999,175,75
2026-05-09 14:57:33.025,5,0.25,-0.23,0.98,-4.718999999999999,-10.9038,17.6872,175,75
2026-05-09 14:57:33.047,5,0.21,-0.28,0.99,-4.7490000000000006,-9.0238,17.6072,175,75
2026-05-09 14:57:33.047,5,0.24,-0.28,1.02,-3.079,-9.0238,-3.4528,175,75
2026-05-09 14:57:33.059,5,0.26,-0.27,1.01,-1.8290000000000002,-4.643800000000001,-14.4228,175,75
2026-05-09 14:57:33.071,5,0.26,-0.24,1.01,-0.9990000000000001,0.05620000000000003,-20.5228,175,75
2026-05-09 14:57:33.071,5,0.25,-0.23,1.0,-1.439,2.4362,-21.0628,175,75
2026-05-09 14:57:33.116,5,0.25,-0.23,1.01,-2.979,2.7862,-9.802800000000001,175,75
2026-05-09 14:57:33.164,5,0.23,-0.24,1.01,-2.489,2.6462,-6.3628,175,75
2026-05-09 14:57:33.164,5,0.2,-0.24,1.02,-1.649,3.3362000000000003,-7.3027999999999995,175,75
2026-05-09 14:57:33.208,5,0.2,-0.24,1.03,0.17099999999999993,0.9362000000000001,-18.0428,175,75
2026-05-09 14:57:33.252,5,0.2,-0.22,1.03,1.911,1.4962,-21.5528,175,75
2026-05-09 14:57:33.252,5,0.21,-0.2,1.02,3.251,3.5662,-22.8128,175,75
2026-05-09 14:57:33.274,5,0.22,-0.16,1.06,2.881,0.15620000000000012,-22.262800000000002,175,75
2026-05-09 14:57:33.286,5,0.19,-0.17,1.01,-0.7690000000000001,2.0862000000000003,-4.682799999999999,175,75
2026-05-09 14:57:33.286,5,0.2,-0.18,1.03,0.5309999999999999,-1.8237999999999999,-6.1528,175,75
2026-05-09 14:57:33.286,5,0.22,-0.16,1.05,2.0709999999999997,-3.8238,-10.6728,175,75
2026-05-09 14:57:33.301,5,0.19,-0.05,1.04,3.691,10.5862,-25.7228,175,75
2026-05-09 14:57:33.312,5,0.22,-0.05,1.05,-3.289,7.0962,-8.3628,175,75
2026-05-09 14:57:33.332,5,0.23,-0.18,1.09,-3.959,10.956199999999999,8.6672,175,75
2026-05-09 14:57:33.339,5,0.21,-0.2,1.12,-0.20900000000000007,14.4062,-0.2328,175,75
2026-05-09 14:57:33.379,5,0.17,-0.21,1.11,2.951,17.5962,-10.302800000000001,175,75
2026-05-09 14:57:33.379,5,0.14,-0.2,1.11,4.861000000000001,19.8662,-18.5028,175,75
2026-05-09 14:57:33.391,5,0.13,-0.18,1.14,6.521000000000001,18.4362,-22.9928,175,75
2026-05-09 14:57:33.391,5,0.15,-0.15,1.17,7.2010000000000005,14.4362,-24.5228,175,75
2026-05-09 14:57:33.400,5,0.18,-0.13,1.18,7.981,11.5662,-23.5728,175,75
2026-05-09 14:57:33.422,5,0.22,-0.07,1.17,5.401,7.886199999999999,-11.6028,175,75
2026-05-09 14:57:33.422,5,0.23,-0.07,1.18,3.081,9.1762,-7.8027999999999995,175,75
2026-05-09 14:57:33.436,5,0.23,-0.09,1.19,1.811,9.9462,-5.1728,175,75
2026-05-09 14:57:33.436,5,0.25,-0.13,1.21,0.721,9.6962,-3.1328,175,75
2026-05-09 14:57:33.447,5,0.24,-0.16,1.23,0.43099999999999994,9.8262,-2.2028,175,75
2026-05-09 14:57:33.457,5,0.23,-0.19,1.24,0.851,10.126199999999999,-3.2927999999999997,175,75
2026-05-09 14:57:33.477,5,0.2,-0.18,1.26,3.8409999999999997,12.8062,-11.7628,175,75
2026-05-09 14:57:33.489,5,0.21,-0.15,1.26,4.361,13.5662,-14.7028,175,75
2026-05-09 14:57:33.503,5,0.2,-0.14,1.25,3.1109999999999998,14.7562,-14.802800000000001,175,75
2026-05-09 14:57:33.513,5,0.19,-0.12,1.24,1.541,15.856200000000001,-13.0328,175,75
2026-05-09 14:57:33.522,5,0.18,-0.12,1.22,0.39099999999999996,15.4862,-8.2828,175,75
2026-05-09 14:57:33.552,5,0.17,-0.13,1.24,-0.05900000000000005,11.4362,-3.9728,175,75
2026-05-09 14:57:33.562,5,0.18,-0.14,1.23,-0.28900000000000015,10.6462,-2.4427999999999996,175,75
2026-05-09 14:57:33.576,5,0.17,-0.17,1.2,-1.5390000000000001,8.0262,4.0072,175,75
2026-05-09 14:57:33.587,5,0.16,-0.19,1.19,-1.4889999999999999,7.1462,6.8072,175,75
2026-05-09 14:57:33.615,5,0.16,-0.2,1.16,-0.049000000000000044,4.5562000000000005,4.5572,175,75
2026-05-09 14:57:33.646,5,0.21,-0.11,1.13,-0.5489999999999999,7.4062,-6.2928,175,75
2026-05-09 14:57:33.669,5,0.22,-0.1,1.13,-0.9390000000000001,8.8162,-4.5628,175,75
2026-05-09 14:57:33.691,5,0.23,-0.09,1.13,-1.779,9.626199999999999,-0.6228,175,75
2026-05-09 14:57:33.699,5,0.23,-0.09,1.13,-2.649,10.216199999999999,4.0072,175,75
2026-05-09 14:57:33.709,5,0.24,-0.11,1.12,-3.639,11.4762,9.447199999999999,175,75
2026-05-09 14:57:33.727,5,0.22,-0.14,1.11,-4.069000000000001,13.1562,11.9872,175,75
2026-05-09 14:57:33.738,5,0.21,-0.17,1.11,-3.7289999999999996,13.8362,10.6572,175,75
2026-05-09 14:57:33.738,5,0.22,-0.19,1.11,-3.2689999999999997,14.956199999999999,7.4272,175,75
2026-05-09 14:57:33.751,5,0.22,-0.2,1.11,-2.769,17.496199999999998,2.6272,175,75
2026-05-09 14:57:33.757,5,0.2,-0.21,1.09,-2.1590000000000003,20.4662,-3.3928,175,75
2026-05-09 14:57:33.783,5,0.18,-0.2,1.07,-1.129,23.2262,-9.792800000000002,175,75
2026-05-09 14:57:33.791,5,0.18,-0.18,1.07,0.10099999999999998,24.0362,-17.1528,175,75
2026-05-09 14:57:33.832,5,0.19,-0.14,1.07,0.641,24.4362,-21.9728,175,75
2026-05-09 14:57:33.832,5,0.2,-0.12,1.08,-0.859,25.8562,-22.922800000000002,175,75
2026-05-09 14:57:33.879,5,0.13,-0.15,1.07,-10.089,30.9362,-6.682799999999999,175,75
2026-05-09 14:57:33.879,5,0.1,-0.15,1.08,-9.739,30.836199999999998,-8.3628,175,75
2026-05-09 14:57:33.879,5,0.09,-0.16,1.1,-8.979000000000001,30.0462,-12.6028,175,75
2026-05-09 14:57:33.900,5,0.09,-0.16,1.11,-7.6690000000000005,28.8962,-16.4028,175,75
2026-05-09 14:57:33.900,5,0.08,-0.15,1.11,-6.2490000000000006,27.9462,-17.4928,175,75
2026-05-09 14:57:33.910,5,0.03,-0.11,1.12,-6.019,26.0762,-17.2128,175,75
2026-05-09 14:57:33.910,5,0.01,-0.1,1.13,-6.689,22.8562,-16.7828,175,75
2026-05-09 14:57:33.921,5,0.02,-0.09,1.13,-6.978999999999999,18.7862,-13.0228,175,75
2026-05-09 14:57:33.933,5,0.02,-0.1,1.14,-6.638999999999999,13.6862,-5.5927999999999995,175,75
2026-05-09 14:57:33.937,5,0.02,-0.11,1.15,-5.959,6.7562,2.9272,175,75
2026-05-09 14:57:33.959,5,0.02,-0.12,1.14,-6.199,-1.3738,9.707199999999998,175,75
2026-05-09 14:57:33.969,5,0.04,-0.15,1.14,-6.519,-7.3438,12.7372,175,75
2026-05-09 14:57:33.978,5,0.06,-0.17,1.13,-5.699,-8.6138,13.017199999999999,175,75
2026-05-09 14:57:34.027,5,0.05,-0.2,1.12,-2.549,-2.2438000000000002,4.6972000000000005,175,75
2026-05-09 14:57:34.071,5,0.08,-0.18,1.14,1.721,1.9362,-3.5827999999999998,175,75
2026-05-09 14:57:34.083,5,0.09,-0.17,1.15,2.251,3.6561999999999997,-5.3628,175,75
2026-05-09 14:57:34.083,5,0.08,-0.15,1.14,2.1710000000000003,4.536200000000001,-6.1328,175,75
2026-05-09 14:57:34.093,5,0.07,-0.13,1.13,1.641,6.0161999999999995,-6.932799999999999,175,75
2026-05-09 14:57:34.093,5,0.05,-0.11,1.14,0.651,6.6562,-7.0927999999999995,175,75
2026-05-09 14:57:34.146,5,0.05,-0.09,1.17,-7.969000000000001,1.6562000000000001,5.277200000000001,175,75
2026-05-09 14:57:34.157,5,0.01,-0.13,1.16,-11.319,-5.8338,15.767199999999999,175,75
2026-05-09 14:57:34.181,5,-0.02,-0.22,1.08,-9.279,-25.8638,26.9772,175,75
2026-05-09 14:57:34.192,5,-0.0,-0.25,1.04,-5.289,-32.3438,25.397199999999998,175,75
2026-05-09 14:57:34.203,5,0.06,-0.24,0.98,5.260999999999999,-33.273799999999994,8.207199999999998,175,75
2026-05-09 14:57:34.203,5,0.1,-0.22,0.97,8.921,-27.913800000000002,-3.1028,175,75
2026-05-09 14:57:34.214,5,0.13,-0.19,0.98,10.100999999999999,-20.2938,-10.882800000000001,175,75
2026-05-09 14:57:34.214,5,0.16,-0.16,0.99,7.281000000000001,-13.6438,-14.392800000000001,175,75
2026-05-09 14:57:34.221,5,0.2,-0.13,0.99,2.581,-7.1538,-15.1128,175,75
2026-05-09 14:57:34.269,5,0.17,-0.15,1.04,-3.3489999999999998,21.7562,9.367199999999999,175,75
2026-05-09 14:57:34.312,5,0.04,-0.19,1.07,-0.839,20.9862,13.5872,175,75
2026-05-09 14:57:34.315,5,-0.02,-0.2,1.08,0.881,16.336199999999998,9.3172,175,75
2026-05-09 14:57:34.320,5,-0.03,-0.19,1.08,2.4909999999999997,10.4262,3.0272,175,75
2026-05-09 14:57:34.332,5,-0.02,-0.19,1.08,2.501,5.106199999999999,-2.8628,175,75
2026-05-09 14:57:34.344,5,0.07,-0.17,1.07,2.291,-0.3737999999999999,-6.8928,175,75
2026-05-09 14:57:34.344,5,0.1,-0.15,1.05,1.931,-0.14379999999999993,-6.6528,175,75
2026-05-09 14:57:34.355,5,0.12,-0.13,1.03,1.661,1.8561999999999999,-6.0728,175,75
2026-05-09 14:57:34.366,5,0.15,-0.13,1.02,1.041,5.526199999999999,-4.4928,175,75
2026-05-09 14:57:34.376,5,0.17,-0.13,1.02,-0.08900000000000008,10.4962,-1.4528,175,75
2026-05-09 14:57:34.406,5,0.1,-0.18,1.07,-1.999,18.6962,7.0972,175,75
2026-05-09 14:57:34.406,5,0.07,-0.19,1.09,-1.089,17.3662,5.1972000000000005,175,75
2026-05-09 14:57:34.430,5,0.02,-0.18,1.09,0.38099999999999995,13.6662,-3.5627999999999997,175,75
2026-05-09 14:57:34.431,5,0.02,-0.18,1.1,0.46099999999999997,11.4162,-6.682799999999999,175,75
2026-05-09 14:57:34.480,5,0.11,-0.14,1.08,-0.869,4.4962,-2.2028,175,75
2026-05-09 14:57:34.613,5,0.05,-0.18,1.1,-3.719,13.4062,0.1972,175,75
2026-05-09 14:57:34.646,5,0.03,-0.18,1.1,-3.509,12.7662,0.0872,175,75
2026-05-09 14:57:34.690,5,0.0,-0.17,1.09,-2.089,8.386199999999999,-0.4328,175,75
2026-05-09 14:57:34.695,5,0.03,-0.16,1.09,-2.379,4.4361999999999995,-3.9827999999999997,175,75
2026-05-09 14:57:34.707,5,0.05,-0.15,1.08,-3.3190000000000004,4.536200000000001,-4.5927999999999995,175,75
2026-05-09 14:57:34.714,5,0.06,-0.15,1.08,-4.129,5.3162,-3.4427999999999996,175,75
2026-05-09 14:57:34.731,5,0.06,-0.16,1.09,-3.5589999999999997,4.8262,2.5372000000000003,175,75
2026-05-09 14:57:34.731,5,0.06,-0.17,1.08,-3.639,5.1362000000000005,3.8571999999999997,175,75
2026-05-09 14:57:34.752,5,0.04,-0.19,1.05,-4.7989999999999995,12.206199999999999,-7.6928,175,75
2026-05-09 14:57:34.773,5,0.04,-0.18,1.06,-4.859,16.1862,-8.7628,175,75
2026-05-09 14:57:34.773,5,0.05,-0.18,1.08,-4.119,18.5962,-8.392800000000001,175,75
2026-05-09 14:57:34.791,5,0.04,-0.19,1.1,-3.7390000000000003,19.7962,-6.9128,175,75
2026-05-09 14:57:34.791,5,0.03,-0.19,1.12,-2.879,19.8862,-4.1328000000000005,175,75
2026-05-09 14:57:34.802,5,0.01,-0.19,1.13,-2.449,18.5362,-1.2128,175,75
2026-05-09 14:57:34.806,5,-0.02,-0.2,1.13,-2.189,14.9062,1.3972,175,75
2026-05-09 14:57:34.828,5,-0.07,-0.2,1.09,-1.139,6.8262,-1.3628,175,75
2026-05-09 14:57:34.833,5,-0.07,-0.2,1.07,-0.839,4.466200000000001,-6.4128,175,75
2026-05-09 14:57:34.842,5,-0.03,-0.18,1.07,-1.0190000000000001,3.5362000000000005,-11.562800000000001,175,75
2026-05-09 14:57:34.902,5,0.06,-0.16,1.07,-1.959,4.946199999999999,-13.8228,175,75
2026-05-09 14:57:34.913,5,0.08,-0.14,1.07,-2.769,7.4962,-10.7028,175,75
2026-05-09 14:57:34.924,5,0.07,-0.14,1.07,-3.3990000000000005,9.886199999999999,-6.932799999999999,175,75
2026-05-09 14:57:34.924,5,0.04,-0.15,1.08,-3.3489999999999998,11.4062,-3.4028,175,75
2026-05-09 14:57:34.924,5,0.02,-0.15,1.08,-3.5290000000000004,11.9062,0.03720000000000001,175,75
2026-05-09 14:57:34.924,5,-0.01,-0.16,1.09,-4.029,11.4262,2.5372000000000003,175,75
2026-05-09 14:57:34.934,5,-0.02,-0.18,1.09,-4.829000000000001,8.7862,4.2372000000000005,175,75
2026-05-09 14:57:34.947,5,-0.02,-0.2,1.09,-4.879,5.6861999999999995,4.8372,175,75
2026-05-09 14:57:34.958,5,-0.01,-0.21,1.07,-4.769,3.7562,3.6872,175,75
2026-05-09 14:57:34.958,5,-0.01,-0.21,1.06,-4.079000000000001,3.3762000000000003,0.9871999999999999,175,75
2026-05-09 14:57:34.975,5,0.01,-0.2,1.05,-3.509,7.1662,-8.472800000000001,175,75
2026-05-09 14:57:34.988,5,0.02,-0.19,1.05,-3.709,10.376199999999999,-11.792800000000002,175,75
2026-05-09 14:57:34.988,5,0.02,-0.18,1.06,-4.119,12.9762,-12.0328,175,75
2026-05-09 14:57:35.010,5,-0.02,-0.18,1.09,-4.699,13.6762,-1.0028,175,75
2026-05-09 14:57:35.066,5,-0.04,-0.21,1.08,-2.289,1.6261999999999999,-5.8528,175,75
2026-05-09 14:57:35.066,5,-0.02,-0.21,1.08,-2.369,1.5962,-9.5228,175,75
2026-05-09 14:57:35.072,5,-0.01,-0.2,1.07,-2.279,2.3662,-12.152800000000001,175,75
2026-05-09 14:57:35.095,5,0.0,-0.19,1.07,-3.919,6.716200000000001,-11.0728,175,75
2026-05-09 14:57:35.109,5,-0.01,-0.19,1.07,-4.569000000000001,8.9762,-9.0828,175,75
2026-05-09 14:57:35.120,5,-0.02,-0.2,1.08,-3.029,9.1162,-7.4528,175,75
2026-05-09 14:57:35.135,5,-0.02,-0.19,1.08,-2.809,8.886199999999999,-7.6728,175,75
2026-05-09 14:57:35.135,5,-0.02,-0.19,1.08,-2.959,9.4362,-7.472799999999999,175,75
2026-05-09 14:57:35.148,5,-0.02,-0.19,1.07,-2.959,9.136199999999999,-6.0028,175,75
2026-05-09 14:57:35.159,5,-0.03,-0.19,1.08,-2.499,8.5962,-4.9228,175,75
2026-05-09 14:57:35.160,5,-0.04,-0.19,1.07,-1.479,8.0162,-5.3528,175,75
2026-05-09 14:57:35.203,5,-0.03,-0.18,1.08,-2.039,3.1662000000000003,-4.3428,175,75
2026-05-09 14:57:35.215,5,-0.02,-0.18,1.08,-2.399,1.8761999999999999,-3.1028,175,75
2026-05-09 14:57:35.229,5,-0.02,-0.19,1.06,-1.919,2.0162,-4.1128,175,75
2026-05-09 14:57:35.240,5,-0.02,-0.2,1.05,-1.649,2.9362,-5.0828,175,75
2026-05-09 14:57:35.251,5,-0.0,-0.19,1.06,-1.259,3.8462,-5.8328,175,75
2026-05-09 14:57:35.297,5,-0.01,-0.17,1.07,-1.339,9.2762,-5.3128,175,75
2026-05-09 14:57:35.309,5,-0.02,-0.17,1.07,-2.149,10.206199999999999,-3.3728,175,75
2026-05-09 14:57:35.322,5,-0.03,-0.18,1.07,-2.8890000000000002,9.876199999999999,-1.5828,175,75
2026-05-09 14:57:35.334,5,-0.04,-0.19,1.08,-3.1590000000000003,9.2762,-0.44279999999999997,175,75
2026-05-09 14:57:35.334,5,-0.05,-0.19,1.07,-2.6590000000000003,8.466199999999999,-0.5528,175,75
2026-05-09 14:57:35.371,5,-0.04,-0.22,1.08,-2.859,10.876199999999999,-0.6128,175,75
2026-05-09 14:57:35.385,5,-0.04,-0.23,1.08,-2.529,11.8562,0.11720000000000003,175,75
2026-05-09 14:57:35.400,5,-0.06,-0.23,1.07,-1.2890000000000001,12.1962,0.2172,175,75
2026-05-09 14:57:35.404,5,-0.07,-0.23,1.07,0.06099999999999994,11.4462,-1.2628,175,75
2026-05-09 14:57:35.416,5,-0.08,-0.22,1.08,0.45099999999999996,11.376199999999999,-2.9928,175,75
2026-05-09 14:57:35.426,5,-0.07,-0.21,1.07,1.071,10.4162,-4.5328,175,75
2026-05-09 14:57:35.430,5,-0.08,-0.2,1.08,1.291,9.8162,-5.182799999999999,175,75
2026-05-09 14:57:35.441,5,-0.07,-0.18,1.07,1.171,8.456199999999999,-5.9428,175,75
2026-05-09 14:57:35.461,5,-0.06,-0.15,1.08,0.9209999999999999,6.3362,-3.3928,175,75
2026-05-09 14:57:35.494,5,-0.03,-0.14,1.08,-1.3690000000000002,2.5162,9.3072,175,75
2026-05-09 14:57:35.505,5,-0.02,-0.15,1.06,-1.6989999999999998,1.7862,13.7972,175,75
2026-05-09 14:57:35.513,5,-0.03,-0.17,1.05,-1.799,2.0162,16.7272,175,75
2026-05-09 14:57:35.529,5,-0.03,-0.18,1.05,-1.4889999999999999,2.6262,17.6372,175,75
2026-05-09 14:57:35.540,5,-0.03,-0.21,1.04,-0.349,6.1462,16.2772,175,75
2026-05-09 14:57:35.558,5,-0.03,-0.22,1.05,-0.05900000000000005,9.1562,15.807199999999998,175,75
2026-05-09 14:57:35.569,5,-0.05,-0.22,1.04,0.421,11.0762,14.4772,175,75
2026-05-09 14:57:35.580,5,-0.07,-0.22,1.05,1.501,11.9162,12.3172,175,75
2026-05-09 14:57:35.586,5,-0.07,-0.21,1.05,2.311,12.9162,8.8072,175,75
2026-05-09 14:57:35.588,5,-0.06,-0.19,1.05,2.1710000000000003,15.786200000000001,6.5972,175,75
2026-05-09 14:57:35.617,5,-0.08,-0.18,1.06,-0.049000000000000044,22.3262,7.3272,175,75
2026-05-09 14:57:35.617,5,-0.09,-0.18,1.07,-1.3090000000000002,23.1962,10.027199999999999,175,75
2026-05-09 14:57:35.635,5,-0.11,-0.18,1.08,-2.4090000000000003,21.9662,12.7272,175,75
2026-05-09 14:57:35.641,5,-0.12,-0.19,1.09,-2.319,19.5962,14.517199999999999,175,75
2026-05-09 14:57:35.668,5,-0.15,-0.21,1.1,0.5209999999999999,13.5962,15.967199999999998,175,75
2026-05-09 14:57:35.668,5,-0.16,-0.21,1.11,1.391,8.8962,16.487199999999998,175,75
2026-05-09 14:57:35.686,5,-0.17,-0.23,1.1,1.901,3.9662,16.737199999999998,175,75
2026-05-09 14:57:35.697,5,-0.19,-0.23,1.09,2.371,-1.2338,14.7972,175,75
2026-05-09 14:57:35.730,5,-0.11,-0.19,1.06,3.491,-9.3438,-3.7828,175,75
2026-05-09 14:57:35.745,5,-0.08,-0.17,1.06,2.291,-7.7438,-6.0428,175,75
2026-05-09 14:57:35.758,5,-0.05,-0.15,1.07,0.871,-5.883800000000001,-4.9128,175,75
2026-05-09 14:57:35.768,5,-0.04,-0.14,1.08,-0.889,-4.6137999999999995,-0.9128000000000001,175,75
2026-05-09 14:57:35.768,5,-0.04,-0.14,1.09,-2.569,-3.3038,4.317200000000001,175,75
2026-05-09 14:57:35.788,5,-0.06,-0.15,1.09,-3.639,-2.3838,9.2472,175,75
2026-05-09 14:57:35.793,5,-0.08,-0.18,1.09,-4.339,-2.1538,11.8972,175,75
2026-05-09 14:57:35.837,5,-0.12,-0.22,1.09,-3.8990000000000005,-2.4138,11.1672,175,75
2026-05-09 14:57:35.846,5,-0.14,-0.24,1.09,-3.039,-3.7438,8.6772,175,75
2026-05-09 14:57:35.861,5,-0.15,-0.24,1.08,-2.539,-5.893800000000001,5.6872,175,75
2026-05-09 14:57:35.861,5,-0.15,-0.24,1.08,-1.669,-8.213799999999999,1.4572,175,75
2026-05-09 14:57:35.993,5,-0.05,-0.17,1.03,-0.5489999999999999,-5.2738,-5.3027999999999995,175,75
2026-05-09 14:57:36.038,5,-0.05,-0.16,1.03,-1.5990000000000002,-2.9038,-2.8828,175,75
2026-05-09 14:57:36.038,5,-0.05,-0.16,1.03,-2.459,-0.4437999999999999,-1.2928,175,75
2026-05-09 14:57:36.038,5,-0.06,-0.16,1.05,-3.1889999999999996,0.7062000000000002,-0.2128,175,75
2026-05-09 14:57:36.049,5,-0.07,-0.17,1.05,-2.929,0.8862000000000001,0.0872,175,75
2026-05-09 14:57:36.097,5,-0.08,-0.17,1.05,-2.379,0.3762000000000001,-0.3028,175,75
2026-05-09 14:57:36.097,5,-0.1,-0.17,1.05,-2.179,-0.14379999999999993,-1.3628,175,75
2026-05-09 14:57:36.148,5,-0.09,-0.19,1.07,-2.1590000000000003,-6.533799999999999,3.5472,175,75
2026-05-09 14:57:36.187,5,-0.05,-0.18,1.06,-0.30899999999999994,-11.613800000000001,0.16719999999999996,175,75
2026-05-09 14:57:36.201,5,-0.02,-0.19,1.05,-3.149,-6.053800000000001,2.4672,175,75
2026-05-09 14:57:36.201,5,-0.02,-0.19,1.05,-3.4389999999999996,-3.7237999999999998,2.3372,175,75
2026-05-09 14:57:36.209,5,-0.02,-0.19,1.06,-3.9389999999999996,0.07620000000000005,0.28719999999999996,175,75
2026-05-09 14:57:36.209,5,-0.03,-0.19,1.05,-3.2790000000000004,4.206200000000001,-1.3428,175,75
2026-05-09 14:57:36.219,5,-0.04,-0.19,1.06,-3.179,7.8262,-1.3728,175,75
2026-05-09 14:57:36.219,5,-0.07,-0.19,1.08,-2.499,8.2662,2.6072,175,75
2026-05-09 14:57:36.230,5,-0.1,-0.2,1.1,-2.319,-0.9138,7.567200000000001,175,75
2026-05-09 14:57:36.266,5,-0.05,-0.22,1.05,-1.8290000000000002,-4.3238,4.8772,175,75
2026-05-09 14:57:36.347,5,-0.05,-0.21,1.04,-1.5190000000000001,0.9062000000000001,1.5572,175,75
2026-05-09 14:57:36.381,5,-0.05,-0.21,1.04,-1.3090000000000002,2.0462000000000002,0.7771999999999999,175,75
2026-05-09 14:57:36.468,5,-0.06,-0.2,1.08,-2.679,0.31620000000000004,5.1672,175,75
2026-05-09 14:57:36.480,5,-0.07,-0.21,1.08,-3.059,-0.6137999999999999,6.1072,175,75
2026-05-09 14:57:36.480,5,-0.08,-0.21,1.07,-2.649,-1.7338,5.2472,175,75
2026-05-09 14:57:36.480,5,-0.08,-0.21,1.06,-2.179,-2.6437999999999997,4.1472,175,75
2026-05-09 14:57:36.524,5,-0.07,-0.22,1.05,-1.9289999999999998,-3.3038,3.0772000000000004,175,75
2026-05-09 14:57:36.530,5,-0.06,-0.2,1.04,-2.249,0.03620000000000001,0.2172,175,75
2026-05-09 14:57:36.541,5,-0.03,-0.19,1.06,-2.9090000000000003,-0.27379999999999993,4.1872,175,75
2026-05-09 14:57:36.551,5,-0.09,-0.23,1.08,-2.769,6.276199999999999,6.2172,175,75
2026-05-09 14:57:36.565,5,-0.1,-0.24,1.07,-2.119,4.7262,8.0072,175,75
2026-05-09 14:57:36.565,5,-0.11,-0.24,1.07,-0.849,2.7362,7.707199999999999,175,75
2026-05-09 14:57:36.591,5,-0.1,-0.24,1.07,0.06099999999999994,0.9562000000000002,4.1372,175,75
2026-05-09 14:57:36.591,5,-0.09,-0.23,1.07,0.8109999999999999,1.2262,-0.4728,175,75
2026-05-09 14:57:36.594,5,-0.06,-0.22,1.07,1.041,2.6462,-3.6727999999999996,175,75
2026-05-09 14:57:36.607,5,-0.06,-0.2,1.07,0.30099999999999993,5.6562,-0.7328,175,75
2026-05-09 14:57:36.617,5,-0.07,-0.2,1.07,0.020999999999999908,5.2462,2.2972,175,75
2026-05-09 14:57:36.630,5,-0.09,-0.2,1.07,-1.099,3.5562,4.4772,175,75
2026-05-09 14:57:36.630,5,-0.1,-0.21,1.06,-1.259,3.2361999999999997,5.277200000000001,175,75
2026-05-09 14:57:36.642,5,-0.09,-0.22,1.07,-1.569,3.2361999999999997,5.527200000000001,175,75
2026-05-09 14:57:36.642,5,-0.09,-0.23,1.08,-1.379,2.7862,5.5172,175,75
2026-05-09 14:57:36.719,5,-0.08,-0.21,1.07,1.131,0.7262,-4.0428,175,75
2026-05-09 14:57:36.761,5,-0.08,-0.19,1.07,0.641,0.7262,-4.5628,175,75
2026-05-09 14:57:36.769,5,-0.07,-0.18,1.06,-0.2390000000000001,0.33620000000000005,-3.1927999999999996,175,75
2026-05-09 14:57:36.776,5,-0.06,-0.19,1.06,-1.129,-1.1038,0.2072,175,75
2026-05-09 14:57:36.792,5,-0.05,-0.19,1.06,-1.509,-2.9238,3.0972,175,75
2026-05-09 14:57:36.792,5,-0.04,-0.19,1.05,-1.709,-3.3038,4.6972000000000005,175,75
2026-05-09 14:57:36.804,5,-0.03,-0.19,1.04,-2.029,-1.9538,4.9272,175,75
2026-05-09 14:57:36.814,5,-0.04,-0.19,1.04,-2.219,-0.5037999999999999,4.8472,175,75
2026-05-09 14:57:36.814,5,-0.03,-0.2,1.04,-2.349,0.6262000000000001,5.3772,175,75
2026-05-09 14:57:36.826,5,-0.06,-0.21,1.06,-1.899,1.7362000000000002,3.0072,175,75
2026-05-09 14:57:36.836,5,-0.07,-0.21,1.07,-1.9289999999999998,1.7062,2.7872000000000003,175,75
2026-05-09 14:57:36.836,5,-0.07,-0.21,1.07,-1.899,1.9262000000000001,3.0372000000000003,175,75
2026-05-09 14:57:36.836,5,-0.08,-0.2,1.06,-1.709,1.7862,3.8172000000000006,175,75
2026-05-09 14:57:36.843,5,-0.09,-0.21,1.07,-1.779,1.5662000000000003,4.0572,175,75
2026-05-09 14:57:36.890,5,-0.09,-0.2,1.07,-1.669,0.6362000000000001,4.1472,175,75
2026-05-09 14:57:37.073,5,-0.08,-0.22,1.07,-1.7389999999999999,-6.033799999999999,10.7172,175,75
2026-05-09 14:57:37.073,5,-0.09,-0.22,1.07,-1.7690000000000001,-6.033799999999999,11.097199999999999,175,75
2026-05-09 14:57:37.091,5,-0.1,-0.23,1.06,-2.089,-5.213799999999999,10.4272,175,75
2026-05-09 14:57:37.104,5,-0.1,-0.23,1.06,-2.339,-4.0538,9.117199999999999,175,75
2026-05-09 14:57:37.112,5,-0.1,-0.23,1.07,-2.379,-3.2438,7.4372,175,75
2026-05-09 14:57:37.128,5,0.0,-0.23,1.07,4.271,-20.9838,-9.962800000000001,175,75
2026-05-09 14:57:37.128,5,0.02,-0.23,1.05,5.161,-22.9838,-8.3828,175,75
2026-05-09 14:57:37.141,5,0.06,-0.21,1.02,7.281000000000001,-15.2338,-10.972800000000001,175,75
2026-05-09 14:57:37.180,5,0.05,-0.21,1.01,6.121,-9.543800000000001,-13.892800000000001,175,75
2026-05-09 14:57:37.187,5,0.05,-0.21,1.03,4.121,-5.213799999999999,-18.0928,175,75
2026-05-09 14:57:37.189,5,0.06,-0.21,1.06,1.7109999999999999,-3.4238,-21.942800000000002,175,75
2026-05-09 14:57:37.229,5,0.07,-0.21,1.11,-0.849,-2.9137999999999997,-25.0728,175,75
2026-05-09 14:57:37.299,5,0.07,-0.22,1.15,-2.509,-3.8238,-25.7828,175,75
2026-05-09 14:57:37.347,5,0.07,-0.22,1.17,-3.429,-6.0838,-25.2428,175,75
2026-05-09 14:57:37.413,5,0.08,-0.24,1.22,-3.5690000000000004,-18.9738,-23.4628,175,75
2026-05-09 14:57:37.413,5,0.09,-0.26,1.26,-5.159000000000001,-24.8038,-14.2628,175,75
2026-05-09 14:57:37.413,5,0.1,-0.27,1.28,-5.2490000000000006,-26.5838,-13.5328,175,75
2026-05-09 14:57:37.445,5,0.1,-0.28,1.27,-4.489000000000001,-24.5938,-14.7028,175,75
2026-05-09 14:57:37.482,5,-0.02,-0.35,1.3,4.071,-28.7238,-16.9328,175,75
2026-05-09 14:57:37.497,5,-0.04,-0.35,1.24,11.981,-46.523799999999994,-39.492799999999995,175,75
2026-05-09 14:57:37.509,5,0.13,-0.2,1.16,12.971,-73.5038,-32.062799999999996,175,75
2026-05-09 14:57:37.509,5,0.1,-0.22,1.12,9.811,-68.77380000000001,-32.462799999999994,175,75
2026-05-09 14:57:37.524,5,0.04,-0.27,0.99,17.431,-76.13380000000001,-52.672799999999995,175,75
2026-05-09 14:57:37.524,5,0.11,-0.24,1.0,23.781,-83.4638,-58.9828,175,75
2026-05-09 14:57:37.528,5,0.2,-0.2,1.04,28.631,-86.1038,-61.9728,175,75
2026-05-09 14:57:37.539,5,0.25,-0.15,1.07,28.570999999999998,-81.08380000000001,-60.2328,175,75
2026-05-09 14:57:37.539,5,0.23,-0.11,1.06,23.521,-71.80380000000001,-56.9328,175,75
2026-05-09 14:57:37.551,5,0.16,-0.1,1.01,17.491,-69.7338,-52.9728,175,75
2026-05-09 14:57:37.578,5,0.12,-0.11,0.96,13.780999999999999,-75.5938,-50.7728,175,75
2026-05-09 14:57:37.586,5,0.15,-0.12,0.95,13.530999999999999,-81.88380000000001,-51.562799999999996,175,75
2026-05-09 14:57:37.586,5,0.19,-0.11,0.95,16.311,-87.2138,-55.5428,175,75
2026-05-09 14:57:37.586,5,0.26,-0.1,0.95,20.521,-89.7538,-59.952799999999996,175,75
2026-05-09 14:57:37.635,5,0.37,-0.02,0.98,20.591,-80.0138,-57.6628,175,75
2026-05-09 14:57:37.635,5,0.35,-0.01,0.96,16.821,-73.5338,-50.6128,175,75
2026-05-09 14:57:37.657,5,0.3,-0.01,0.93,13.461,-72.6138,-44.892799999999994,175,75
2026-05-09 14:57:37.658,5,0.28,0.0,0.92,10.301,-76.13380000000001,-43.3728,175,75
2026-05-09 14:57:37.687,5,0.39,-0.05,0.9,11.600999999999999,-81.7538,-41.202799999999996,175,75
2026-05-09 14:57:37.695,5,0.41,-0.04,0.87,14.360999999999999,-81.30380000000001,-39.6528,175,75
2026-05-09 14:57:37.714,5,0.41,-0.03,0.86,13.391,-83.7038,-40.172799999999995,175,75
2026-05-09 14:57:37.744,5,0.5,-0.04,0.84,8.201,-80.1738,-45.172799999999995,175,75
2026-05-09 14:57:37.754,5,0.49,-0.03,0.81,8.361,-77.4838,-46.382799999999996,175,75
2026-05-09 14:57:37.754,5,0.51,-0.01,0.8,8.100999999999999,-75.3638,-47.392799999999994,175,75
2026-05-09 14:57:37.761,5,0.53,0.01,0.81,6.0009999999999994,-72.5338,-48.062799999999996,175,75
2026-05-09 14:57:37.768,5,0.53,0.02,0.81,4.241,-68.30380000000001,-48.142799999999994,175,75
2026-05-09 14:57:37.784,5,0.53,0.03,0.79,3.511,-65.30380000000001,-48.1128,175,75
2026-05-09 14:57:37.794,5,0.52,0.05,0.78,2.651,-64.9538,-49.1528,175,75
2026-05-09 14:57:37.807,5,0.55,0.09,0.76,1.041,-61.8538,-48.702799999999996,175,75
2026-05-09 14:57:37.823,5,0.55,0.12,0.76,1.741,-61.233799999999995,-49.1228,175,75
2026-05-09 14:57:37.834,5,0.57,0.17,0.77,0.5609999999999999,-62.553799999999995,-47.7728,175,75
2026-05-09 14:57:37.846,5,0.63,0.21,0.77,-4.5489999999999995,-63.373799999999996,-37.602799999999995,175,75
2026-05-09 14:57:37.846,5,0.63,0.16,0.74,-6.349,-61.3638,-29.7828,175,75
2026-05-09 14:57:37.857,5,0.61,0.19,0.73,-8.129000000000001,-60.8338,-24.172800000000002,175,75
2026-05-09 14:57:37.867,5,0.62,0.18,0.72,-11.149000000000001,-61.303799999999995,-20.2428,175,75
2026-05-09 14:57:37.867,5,0.62,0.16,0.71,-13.649000000000001,-62.7238,-18.3428,175,75
2026-05-09 14:57:37.912,5,0.63,0.13,0.69,-15.769000000000002,-64.3738,-17.4528,175,75
2026-05-09 14:57:37.917,5,0.69,0.1,0.61,-11.179,-48.693799999999996,-19.2028,175,75
2026-05-09 14:57:37.939,5,0.69,0.16,0.58,-13.159,-33.6838,-21.1528,175,75
2026-05-09 14:57:37.967,5,0.74,0.16,0.59,-19.009,-20.8938,-17.262800000000002,175,75
2026-05-09 14:57:37.967,5,0.69,0.14,0.56,-19.209,-11.4438,-9.542800000000002,175,75
2026-05-09 14:57:37.975,5,0.69,0.15,0.59,-21.289,-5.5138,-10.042800000000002,175,75
2026-05-09 14:57:37.989,5,0.66,0.13,0.59,-21.439,0.7862,-10.7428,175,75
2026-05-09 14:57:37.989,5,0.62,0.14,0.59,-20.459,4.1362000000000005,-12.142800000000001,175,75
2026-05-09 14:57:38.001,5,0.61,0.14,0.6,-20.319,4.6861999999999995,-11.0128,175,75
2026-05-09 14:57:38.005,5,0.6,0.15,0.6,-19.659,2.5662000000000003,-7.1528,175,75
2026-05-09 14:57:38.017,5,0.63,0.14,0.61,-19.569,0.9962,-2.2828,175,75
2026-05-09 14:57:38.027,5,0.66,0.13,0.6,-18.699,1.9262000000000001,2.3672,175,75
2026-05-09 14:57:38.049,5,0.68,0.11,0.6,-18.149,9.9462,6.7072,175,75
2026-05-09 14:57:38.049,5,0.68,0.09,0.6,-18.489,15.656199999999998,6.3972,175,75
2026-05-09 14:57:38.072,5,0.65,0.09,0.63,-16.339000000000002,25.1962,4.6572000000000005,175,75
2026-05-09 14:57:38.083,5,0.65,0.1,0.66,-15.248999999999999,26.5962,4.0772,175,75
2026-05-09 14:57:38.099,5,0.65,0.11,0.67,-12.209,27.6262,6.6272,175,75
2026-05-09 14:57:38.122,5,0.66,0.13,0.67,-11.409,28.4662,9.437199999999999,175,75
2026-05-09 14:57:38.135,5,0.66,0.14,0.67,-11.369,30.1062,12.2272,175,75
2026-05-09 14:57:38.198,5,0.7,0.05,0.8,-11.449,49.7462,32.0672,175,75
2026-05-09 14:57:38.232,5,0.71,0.04,0.83,-11.169,51.2762,32.577200000000005,175,75
2026-05-09 14:57:38.232,5,0.68,0.01,0.84,-10.669,55.556200000000004,29.6372,175,75
2026-05-09 14:57:38.243,5,0.65,-0.01,0.83,-9.429,61.43620000000001,25.2472,175,75
2026-05-09 14:57:38.253,5,0.62,-0.01,0.85,-8.519,65.1762,22.3872,175,75
2026-05-09 14:57:38.253,5,0.61,0.01,0.85,-8.779,65.6062,21.5672,175,75
2026-05-09 14:57:38.257,5,0.6,0.01,0.88,-9.679,65.5462,21.4372,175,75
2026-05-09 14:57:38.273,5,0.6,0.02,0.88,-10.669,65.8462,22.4072,175,75
2026-05-09 14:57:38.284,5,0.59,0.01,0.92,-11.799000000000001,69.5662,26.6072,175,75
2026-05-09 14:57:38.295,5,0.58,0.01,0.93,-11.799000000000001,69.30619999999999,29.237199999999998,175,75
2026-05-09 14:57:38.312,5,0.56,0.0,0.95,-12.239,68.5362,30.6372,175,75
2026-05-09 14:57:38.313,5,0.53,-0.01,0.95,-12.899000000000001,66.7062,31.4072,175,75
2026-05-09 14:57:38.332,5,0.5,-0.03,0.96,-12.459,59.43620000000001,30.2272,175,75
2026-05-09 14:57:38.355,5,0.53,-0.03,0.97,-10.799000000000001,54.2062,29.1872,175,75
2026-05-09 14:57:38.366,5,0.54,-0.03,0.99,-9.449,53.9962,29.8772,175,75
2026-05-09 14:57:38.377,5,0.55,-0.03,1.0,-7.859,54.9962,31.607200000000002,175,75
2026-05-09 14:57:38.387,5,0.54,-0.03,1.01,-6.989000000000001,55.43620000000001,33.177200000000006,175,75
2026-05-09 14:57:38.398,5,0.53,-0.03,1.02,-6.349,54.7562,34.7672,175,75
2026-05-09 14:57:38.409,5,0.53,-0.03,1.02,-6.478999999999999,53.2062,36.2672,175,75
2026-05-09 14:57:38.420,5,0.53,-0.05,1.04,-6.959,50.9162,38.9872,175,75
2026-05-09 14:57:38.464,5,0.5,-0.09,1.04,-8.779,50.266200000000005,41.9172,175,75
2026-05-09 14:57:38.475,5,0.47,-0.11,1.04,-9.539,50.3262,33.927200000000006,175,75
2026-05-09 14:57:38.488,5,0.48,-0.11,1.05,-9.439,50.8162,31.0272,175,75
2026-05-09 14:57:38.499,5,0.47,-0.11,1.04,-7.6690000000000005,54.8462,31.8272,175,75
2026-05-09 14:57:38.510,5,0.46,-0.1,1.06,-7.519,54.056200000000004,33.0972,175,75
2026-05-09 14:57:38.510,5,0.45,-0.11,1.09,-7.569000000000001,51.736200000000004,34.2372,175,75
2026-05-09 14:57:38.523,5,0.45,-0.11,1.11,-6.859,49.6662,34.7372,175,75
2026-05-09 14:57:38.536,5,0.43,-0.13,1.11,-3.789,47.1662,36.2772,175,75
2026-05-09 14:57:38.549,5,0.39,-0.13,1.08,-1.589,45.6662,37.6972,175,75
2026-05-09 14:57:38.549,5,0.36,-0.13,1.08,-0.129,43.2462,38.927200000000006,175,75
2026-05-09 14:57:38.559,5,0.34,-0.13,1.06,-0.21900000000000008,41.696200000000005,39.577200000000005,175,75
2026-05-09 14:57:38.580,5,0.33,-0.13,1.08,-0.049000000000000044,38.18620000000001,39.9772,175,75
2026-05-09 14:57:38.580,5,0.34,-0.13,1.08,-0.08900000000000008,32.726200000000006,41.0572,175,75
2026-05-09 14:57:38.592,5,0.35,-0.11,1.09,-1.049,28.4862,42.357200000000006,175,75
2026-05-09 14:57:38.599,5,0.38,-0.14,1.1,-1.3890000000000002,27.4562,43.857200000000006,175,75
2026-05-09 14:57:38.633,5,0.35,-0.19,1.09,0.40099999999999997,28.4362,49.857200000000006,175,75
2026-05-09 14:57:38.676,5,0.31,-0.22,1.09,0.411,26.7562,47.2772,175,75
2026-05-09 14:57:38.688,5,0.3,-0.24,1.1,1.101,21.0762,33.677200000000006,175,75
2026-05-09 14:57:38.699,5,0.32,-0.23,1.1,1.851,20.176199999999998,28.3472,175,75
2026-05-09 14:57:38.702,5,0.33,-0.21,1.09,2.261,20.496199999999998,24.077199999999998,175,75
2026-05-09 14:57:38.716,5,0.33,-0.19,1.09,1.701,21.176199999999998,21.7572,175,75
2026-05-09 14:57:38.722,5,0.35,-0.19,1.08,1.101,22.3762,23.7772,175,75
2026-05-09 14:57:38.734,5,0.35,-0.19,1.08,-0.2290000000000001,22.6462,28.5172,175,75
2026-05-09 14:57:38.746,5,0.35,-0.2,1.09,-1.6190000000000002,21.836199999999998,33.1372,175,75
2026-05-09 14:57:38.760,5,0.31,-0.22,1.08,-2.999,23.6562,35.5572,175,75
2026-05-09 14:57:38.773,5,0.3,-0.24,1.08,-2.479,26.0562,34.4172,175,75
2026-05-09 14:57:38.805,5,0.25,-0.26,1.08,-0.21900000000000008,31.2662,28.8472,175,75
2026-05-09 14:57:38.847,5,0.19,-0.22,1.09,1.701,27.7162,13.1772,175,75
2026-05-09 14:57:38.857,5,0.22,-0.21,1.1,1.621,25.3062,14.267199999999999,175,75
2026-05-09 14:57:38.875,5,0.22,-0.19,1.09,0.2909999999999999,22.086199999999998,26.397199999999998,175,75
2026-05-09 14:57:38.880,5,0.21,-0.21,1.07,0.040999999999999925,23.1262,28.6172,175,75
2026-05-09 14:57:38.895,5,0.19,-0.23,1.07,1.201,24.5562,30.307199999999998,175,75
2026-05-09 14:57:38.918,5,0.14,-0.25,1.07,3.271,22.3762,29.4672,175,75
2026-05-09 14:57:38.938,5,0.15,-0.23,1.06,6.2010000000000005,16.0162,15.437199999999999,175,75
2026-05-09 14:57:38.963,5,0.17,-0.22,1.05,6.271000000000001,17.6262,10.707199999999998,175,75
2026-05-09 14:57:38.979,5,0.18,-0.2,1.05,6.010999999999999,19.5462,7.637200000000001,175,75
2026-05-09 14:57:38.979,5,0.19,-0.18,1.05,4.391,22.0762,5.5772,175,75
2026-05-09 14:57:39.003,5,0.17,-0.17,1.05,1.641,29.3062,10.2572,175,75
2026-05-09 14:57:39.018,5,0.16,-0.17,1.07,0.19099999999999995,28.7762,13.9872,175,75
2026-05-09 14:57:39.031,5,0.14,-0.18,1.07,-0.679,27.1562,16.4772,175,75
2026-05-09 14:57:39.073,5,0.1,-0.2,1.05,1.6509999999999998,16.6262,11.957199999999998,175,75
2026-05-09 14:57:39.092,5,0.12,-0.19,1.06,0.2709999999999999,14.6462,11.7372,175,75
2026-05-09 14:57:39.092,5,0.14,-0.2,1.07,-1.169,13.0862,12.607199999999999,175,75
2026-05-09 14:57:39.135,5,0.12,-0.24,1.09,-4.1690000000000005,18.2662,15.197199999999999,175,75
2026-05-09 14:57:39.169,5,0.08,-0.28,1.11,0.11099999999999999,11.8262,15.5772,175,75
2026-05-09 14:57:39.179,5,0.08,-0.25,1.12,1.071,8.5262,12.6472,175,75
2026-05-09 14:57:39.179,5,0.07,-0.26,1.1,2.301,6.6562,9.607199999999999,175,75
2026-05-09 14:57:39.202,5,0.07,-0.25,1.09,2.5709999999999997,6.276199999999999,4.777200000000001,175,75
2026-05-09 14:57:39.202,5,0.09,-0.23,1.08,1.321,6.7362,0.2072,175,75
2026-05-09 14:57:39.224,5,0.13,-0.21,1.06,-2.249,10.5962,-5.1628,175,75
2026-05-09 14:57:39.294,5,0.12,-0.19,1.04,-3.2390000000000003,17.5062,-7.4828,175,75
2026-05-09 14:57:39.294,5,0.12,-0.17,1.07,-4.089,19.5062,-7.0927999999999995,175,75
2026-05-09 14:57:39.304,5,0.11,-0.16,1.07,-5.019,20.3162,-5.2028,175,75
2026-05-09 14:57:39.304,5,0.11,-0.16,1.07,-5.689,20.246199999999998,-1.5628,175,75
2026-05-09 14:57:39.315,5,0.09,-0.15,1.08,-6.099,19.3662,2.4772000000000003,175,75
2026-05-09 14:57:39.335,5,0.04,-0.21,1.09,-5.529,7.8062000000000005,17.3772,175,75
2026-05-09 14:57:39.344,5,0.03,-0.23,1.07,-5.789,6.4262,17.0372,175,75
2026-05-09 14:57:39.359,5,0.02,-0.24,1.05,-5.289,5.1462,15.0472,175,75
2026-05-09 14:57:39.398,5,0.04,-0.24,1.04,-3.329,4.536200000000001,7.627199999999999,175,75
2026-05-09 14:57:39.408,5,0.06,-0.23,1.05,-3.539,5.5762,4.5872,175,75
2026-05-09 14:57:39.408,5,0.08,-0.23,1.06,-4.929,7.046200000000001,2.0672,175,75
2026-05-09 14:57:39.414,5,0.09,-0.24,1.05,-5.218999999999999,9.6062,1.4671999999999998,175,75
2026-05-09 14:57:39.426,5,0.08,-0.23,1.06,-4.369,12.2362,1.3772,175,75
2026-05-09 14:57:39.426,5,0.07,-0.24,1.05,-2.739,14.4362,1.1372,175,75
2026-05-09 14:57:39.440,5,0.05,-0.23,1.06,-1.379,15.546199999999999,0.9072,175,75
2026-05-09 14:57:39.440,5,0.03,-0.22,1.07,-0.569,15.206199999999999,0.4772,175,75
2026-05-09 14:57:39.451,5,0.03,-0.22,1.08,-0.31899999999999995,14.5662,-0.2028,175,75
2026-05-09 14:57:39.470,5,0.02,-0.22,1.07,0.20099999999999996,13.7262,-1.2428,175,75
2026-05-09 14:57:39.481,5,0.02,-0.21,1.07,-0.10899999999999999,13.6062,-1.8728,175,75
2026-05-09 14:57:39.482,5,0.02,-0.2,1.08,-0.669,13.1862,-2.6528,175,75
2026-05-09 14:57:39.495,5,0.03,-0.2,1.09,-1.299,13.136199999999999,-2.6628,175,75
2026-05-09 14:57:39.530,5,0.03,-0.2,1.09,-2.849,12.6962,-1.0728,175,75
2026-05-09 14:57:39.542,5,0.03,-0.23,1.08,-0.7590000000000001,15.3062,-0.0928,175,75
2026-05-09 14:57:39.553,5,0.02,-0.22,1.09,1.011,16.496199999999998,-0.3628,175,75
2026-05-09 14:57:39.553,5,0.0,-0.21,1.11,0.831,16.8062,-1.6828,175,75
2026-05-09 14:57:39.566,5,-0.01,-0.21,1.1,0.44099999999999995,18.7162,-3.5227999999999997,175,75
2026-05-09 14:57:39.580,5,-0.02,-0.21,1.1,0.01100000000000001,20.1462,-4.972799999999999,175,75
2026-05-09 14:57:39.597,5,-0.05,-0.22,1.1,1.361,17.7562,-4.972799999999999,175,75
2026-05-09 14:57:39.599,5,-0.05,-0.21,1.12,1.881,13.5162,-4.3228,175,75
2026-05-09 14:57:39.641,5,-0.05,-0.2,1.09,2.391,0.15620000000000012,-0.4028,175,75
2026-05-09 14:57:39.670,5,-0.04,-0.21,1.06,3.011,-0.6638,-1.8528,175,75
2026-05-09 14:57:39.691,5,0.01,-0.2,1.04,4.471,1.2562000000000002,-6.1128,175,75
2026-05-09 14:57:39.698,5,0.03,-0.19,1.04,4.801,2.9862,-7.3427999999999995,175,75
2026-05-09 14:57:39.733,5,0.05,-0.15,1.04,2.941,8.206199999999999,-5.6928,175,75
2026-05-09 14:57:39.743,5,0.04,-0.16,1.05,1.9909999999999999,10.5262,-3.3828,175,75
2026-05-09 14:57:39.754,5,0.01,-0.17,1.06,1.661,12.5962,1.6072,175,75
2026-05-09 14:57:39.754,5,0.0,-0.17,1.07,1.561,11.7362,2.3272000000000004,175,75
2026-05-09 14:57:39.754,5,-0.01,-0.18,1.06,0.971,9.7762,1.3472,175,75
2026-05-09 14:57:39.777,5,-0.01,-0.19,1.08,1.041,8.0762,1.4671999999999998,175,75
2026-05-09 14:57:39.791,5,-0.02,-0.19,1.06,1.111,6.8462,0.8872,175,75
2026-05-09 14:57:39.802,5,-0.03,-0.18,1.06,1.141,5.456200000000001,0.3672,175,75
2026-05-09 14:57:39.825,5,-0.02,-0.19,1.07,-0.21900000000000008,2.2462,1.0972,175,75
2026-05-09 14:57:39.852,5,-0.01,-0.2,1.07,-0.44900000000000007,1.8162000000000003,1.0071999999999999,175,75
2026-05-09 14:57:39.863,5,-0.0,-0.2,1.07,0.20099999999999996,1.9462000000000002,0.5471999999999999,175,75
2026-05-09 14:57:39.863,5,0.01,-0.2,1.08,0.741,2.0862000000000003,0.3672,175,75
2026-05-09 14:57:39.872,5,0.01,-0.2,1.08,0.651,3.1762,0.5271999999999999,175,75
2026-05-09 14:57:39.872,5,0.01,-0.2,1.08,0.07099999999999995,3.8262000000000005,1.2171999999999998,175,75
2026-05-09 14:57:39.911,5,0.01,-0.2,1.08,-0.5190000000000001,4.2661999999999995,2.9272,175,75
2026-05-09 14:57:39.922,5,-0.0,-0.21,1.08,-1.059,4.2462,3.9172000000000002,175,75
2026-05-09 14:57:39.940,5,0.01,-0.2,1.09,-1.919,0.48619999999999997,0.2072,175,75
2026-05-09 14:57:39.940,5,0.01,-0.21,1.08,-2.859,0.7562,-1.9028,175,75
2026-05-09 14:57:39.968,5,0.03,-0.21,1.07,-2.1390000000000002,4.7362,-1.8228,175,75
2026-05-09 14:57:39.968,5,0.02,-0.21,1.08,-1.729,7.3962,-3.3928,175,75
2026-05-09 14:57:39.990,5,-0.01,-0.2,1.08,-2.049,9.5962,-6.5527999999999995,175,75
2026-05-09 14:57:39.990,5,-0.0,-0.2,1.08,-1.9889999999999999,10.9162,-9.4328,175,75
2026-05-09 14:57:40.000,5,-0.01,-0.19,1.09,-1.499,11.0562,-10.972800000000001,175,75
2026-05-09 14:57:40.021,5,-0.02,-0.16,1.1,-2.429,9.9962,-3.6228,175,75
2026-05-09 14:57:40.037,5,-0.04,-0.16,1.1,-2.539,9.636199999999999,0.9272,175,75
2026-05-09 14:57:40.043,5,-0.07,-0.17,1.1,-2.919,7.536199999999999,4.9272,175,75
2026-05-09 14:57:40.051,5,-0.09,-0.18,1.1,-3.419,2.3862,6.9572,175,75
2026-05-09 14:57:40.106,5,-0.05,-0.21,1.11,-2.989,-10.703800000000001,6.3672,175,75
2026-05-09 14:57:40.106,5,-0.03,-0.21,1.1,-2.219,-12.4838,6.9872000000000005,175,75
2026-05-09 14:57:40.121,5,-0.03,-0.22,1.06,-1.249,-13.5738,5.4972,175,75
2026-05-09 14:57:40.136,5,-0.03,-0.21,1.06,-0.829,-12.6838,2.8172,175,75
2026-05-09 14:57:40.136,5,-0.02,-0.21,1.05,-0.889,-10.8438,0.11720000000000003,175,75
2026-05-09 14:57:40.160,5,0.03,-0.18,1.07,-3.469,-1.0438,-1.5328000000000002,175,75
2026-05-09 14:57:40.173,5,0.02,-0.18,1.08,-4.879,-0.07379999999999998,2.1672000000000002,175,75
2026-05-09 14:57:40.202,5,-0.05,-0.24,1.08,-3.259,-3.3538,8.7372,175,75
2026-05-09 14:57:40.213,5,-0.05,-0.25,1.07,-1.919,-3.8638,5.6072,175,75
2026-05-09 14:57:40.225,5,-0.05,-0.25,1.07,-1.379,-4.1738,0.9871999999999999,175,75
2026-05-09 14:57:40.248,5,-0.02,-0.23,1.07,-0.899,-1.7237999999999998,-8.1028,175,75
2026-05-09 14:57:40.262,5,-0.01,-0.21,1.07,-0.5190000000000001,-0.3437999999999999,-9.9928,175,75
2026-05-09 14:57:40.275,5,-0.0,-0.2,1.07,-1.279,0.34620000000000006,-9.2428,175,75
2026-05-09 14:57:40.275,5,-0.0,-0.19,1.07,-1.749,0.8462000000000001,-5.8628,175,75
2026-05-09 14:57:40.286,5,0.0,-0.19,1.08,-2.349,0.18620000000000014,-1.0028,175,75
2026-05-09 14:57:40.309,5,-0.01,-0.22,1.08,-1.6989999999999998,-3.7538,8.5072,175,75
2026-05-09 14:57:40.309,5,-0.02,-0.24,1.06,-0.31899999999999995,-7.8438,10.7972,175,75
2026-05-09 14:57:40.330,5,-0.02,-0.25,1.05,1.361,-11.1738,9.437199999999999,175,75
2026-05-09 14:57:40.330,5,-0.02,-0.24,1.04,2.221,-12.1738,4.7072,175,75
2026-05-09 14:57:40.341,5,-0.01,-0.23,1.03,2.161,-10.2738,-1.7828000000000002,175,75
2026-05-09 14:57:40.389,5,0.08,-0.17,1.04,-3.7289999999999996,-1.5137999999999998,-4.972799999999999,175,75
2026-05-09 14:57:40.389,5,0.07,-0.17,1.04,-5.058999999999999,2.0962,-0.0928,175,75
2026-05-09 14:57:40.414,5,0.02,-0.18,1.05,-4.149000000000001,4.6662,10.6472,175,75
2026-05-09 14:57:40.430,5,0.01,-0.18,1.07,-4.119,5.116199999999999,15.5072,175,75
2026-05-09 14:57:40.441,5,0.0,-0.19,1.07,-4.659000000000001,6.2262,19.7172,175,75
2026-05-09 14:57:40.452,5,-0.01,-0.2,1.08,-6.319000000000001,7.636199999999999,24.6772,175,75
2026-05-09 14:57:40.453,5,-0.05,-0.23,1.08,-7.409000000000001,6.6662,29.057199999999998,175,75
2026-05-09 14:57:40.492,5,-0.11,-0.28,1.09,-6.218999999999999,-1.5137999999999998,34.0872,175,75
2026-05-09 14:57:40.492,5,-0.15,-0.3,1.07,-4.929,-8.2438,34.647200000000005,175,75
2026-05-09 14:57:40.517,5,-0.16,-0.31,1.06,-1.939,-24.9938,29.6372,175,75
2026-05-09 14:57:40.545,5,-0.09,-0.29,1.04,0.631,-34.663799999999995,21.6072,175,75
2026-05-09 14:57:40.583,5,0.05,-0.28,1.03,-1.279,-35.203799999999994,18.1872,175,75
2026-05-09 14:57:40.596,5,0.09,-0.3,1.05,-3.019,-32.7838,23.2472,175,75
2026-05-09 14:57:40.596,5,0.11,-0.33,1.06,-5.189,-30.9638,31.077199999999998,175,75
2026-05-09 14:57:40.617,5,0.16,-0.52,1.09,-11.289,-24.4238,64.4272,175,75
2026-05-09 14:57:40.628,5,0.04,-0.57,1.04,-10.219000000000001,-26.9238,69.8972,175,75
2026-05-09 14:57:40.639,5,-0.02,-0.59,1.03,-8.019,-32.2238,60.8772,175,75
2026-05-09 14:57:40.650,5,-0.08,-0.6,1.03,-2.999,-30.7938,5.8572,175,75
2026-05-09 14:57:40.660,5,-0.0,-0.6,1.07,-1.0190000000000001,-22.1838,-31.9728,175,75
2026-05-09 14:57:40.672,5,0.1,-0.57,1.1,3.151,5.1861999999999995,-94.3028,175,75
2026-05-09 14:57:40.688,5,0.12,-0.56,1.1,4.381,14.2562,-105.8228,175,75
2026-05-09 14:57:40.695,5,0.12,-0.55,1.1,4.590999999999999,16.5562,-103.2628,175,75
2026-05-09 14:57:40.743,5,0.0,-0.54,0.95,1.371,-9.2438,-74.3728,175,75
2026-05-09 14:57:40.754,5,0.01,-0.53,0.93,2.391,-4.7938,-90.7628,175,75
2026-05-09 14:57:40.765,5,0.03,-0.5,0.92,1.811,3.8562,-111.8028,175,75
2026-05-09 14:57:40.796,5,0.05,-0.46,0.92,-0.7590000000000001,24.0662,-150.0128,175,75
2026-05-09 14:57:40.796,5,0.06,-0.45,0.92,-1.549,30.7962,-159.0528,175,75
2026-05-09 14:57:40.808,5,0.05,-0.42,0.94,-2.629,35.616200000000006,-163.49280000000002,175,75
2026-05-09 14:57:40.872,5,-0.09,-0.38,0.95,-6.349,39.8162,-163.4828,175,75
2026-05-09 14:57:40.894,5,-0.12,-0.37,0.96,1.501,48.586200000000005,-181.49280000000002,175,75
2026-05-09 14:57:40.911,5,-0.13,-0.34,0.99,6.420999999999999,56.626200000000004,-188.71280000000002,175,75
2026-05-09 14:57:40.922,5,-0.15,-0.32,0.99,7.021000000000001,61.0062,-190.8528,175,75
2026-05-09 14:57:40.934,5,-0.2,-0.29,0.99,6.321,65.7062,-195.46280000000002,175,75
2026-05-09 14:57:40.956,5,-0.22,-0.27,1.05,3.8409999999999997,62.7862,-199.93280000000001,175,75
2026-05-09 14:57:40.989,5,-0.21,-0.27,1.09,-8.809000000000001,57.1762,-204.0028,175,75
2026-05-09 14:57:41.003,5,-0.26,-0.3,1.1,-10.769,54.0962,-201.0728,175,75
2026-05-09 14:57:41.015,5,-0.3,-0.32,1.1,-10.159,49.2462,-200.2028,175,75
2026-05-09 14:57:41.041,5,-0.34,-0.33,1.08,-8.609,42.306200000000004,-200.1928,175,75
2026-05-09 14:57:41.041,5,-0.36,-0.34,1.08,-5.949,35.226200000000006,-201.3228,175,75
2026-05-09 14:57:41.052,5,-0.35,-0.35,1.12,-3.389,31.3162,-204.8128,175,75
2026-05-09 14:57:41.088,5,-0.38,-0.32,1.12,12.631,19.2762,-230.2228,175,75
2026-05-09 14:57:41.098,5,-0.41,-0.27,1.1,17.521,16.4562,-241.96280000000002,175,75
2026-05-09 14:57:41.098,5,-0.42,-0.21,1.11,21.501,14.0362,-250.5528,175,75
2026-05-09 14:57:41.113,5,-0.41,-0.16,1.11,24.201,12.0962,-250.5528,175,75
2026-05-09 14:57:41.176,5,-0.11,0.12,1.09,10.761,3.3062,-225.2528,175,75
2026-05-09 14:57:41.181,5,-0.12,0.08,1.06,5.561,13.1862,-207.6328,175,75
2026-05-09 14:57:41.311,5,-0.4,0.16,1.2,7.680999999999999,42.1662,-147.6728,175,75
2026-05-09 14:57:41.311,5,-0.4,0.14,1.19,5.600999999999999,38.5662,-143.1628,175,75
2026-05-09 14:57:41.329,5,-0.4,0.09,1.14,3.651,33.2862,-130.3028,175,75
2026-05-09 14:57:41.329,5,-0.4,0.02,1.11,3.761,27.4062,-114.8028,175,75
2026-05-09 14:57:41.350,5,-0.42,-0.04,1.07,7.561,20.6262,-101.2728,175,75
2026-05-09 14:57:41.362,5,-0.45,-0.08,1.05,12.061,13.886199999999999,-95.3328,175,75
2026-05-09 14:57:41.373,5,-0.44,-0.1,1.05,14.950999999999999,8.126199999999999,-96.2128,175,75
2026-05-09 14:57:41.373,5,-0.42,-0.11,1.05,16.741,1.7262,-103.8828,175,75
2026-05-09 14:57:41.383,5,-0.38,-0.08,1.1,18.001,-7.9238,-117.36280000000001,175,75
2026-05-09 14:57:41.395,5,-0.19,0.13,1.2,23.401,-39.5838,-136.0828,175,75
2026-05-09 14:57:41.429,5,-0.03,0.56,1.36,34.221000000000004,-14.8238,-235.49280000000002,175,75
2026-05-09 14:57:41.429,5,-0.08,0.61,1.31,17.991,10.956199999999999,-250.5528,175,75
2026-05-09 14:57:41.441,5,-0.15,0.57,1.19,11.940999999999999,3.9162000000000003,-222.2028,175,75
2026-05-09 14:57:41.480,5,0.19,0.66,1.53,-6.379,-16.6038,-93.1528,175,75
2026-05-09 14:57:41.505,5,0.28,0.3,1.43,-29.379,46.3162,19.327199999999998,175,75
2026-05-09 14:57:41.517,5,0.22,0.19,1.46,-8.589,55.516200000000005,71.8172,175,75
2026-05-09 14:57:41.528,5,-0.16,0.12,1.79,9.301,28.1162,95.3372,175,75
2026-05-09 14:57:41.528,5,-0.23,0.01,1.82,8.781,-5.6838,61.0872,175,75
2026-05-09 14:57:41.538,5,-0.31,-0.17,1.71,6.191000000000001,-15.7538,-2.7327999999999997,175,75
2026-05-09 14:57:41.549,5,-0.38,-0.16,1.6,2.401,-25.8338,-58.532799999999995,175,75
2026-05-09 14:57:41.565,5,-0.35,-0.22,1.49,6.531000000000001,-41.733799999999995,-96.5228,175,75
2026-05-09 14:57:41.578,5,-0.25,-0.11,1.51,11.360999999999999,-62.093799999999995,-114.6328,175,75
2026-05-09 14:57:41.578,5,-0.1,0.0,1.49,12.251,-81.44380000000001,-110.7428,175,75
2026-05-09 14:57:41.603,5,0.26,0.12,1.28,6.621,-109.4638,-43.892799999999994,175,75
2026-05-09 14:57:41.614,5,0.37,0.11,1.23,3.8609999999999998,-108.7638,-22.942800000000002,175,75
2026-05-09 14:57:41.626,5,0.42,0.09,1.18,0.901,-103.6038,-10.8228,175,75
2026-05-09 14:57:41.636,5,0.47,0.03,1.09,-4.4990000000000006,-71.66380000000001,-14.312800000000001,175,75
2026-05-09 14:57:41.636,5,0.47,0.01,1.07,-5.689,-44.843799999999995,-27.2128,175,75
2026-05-09 14:57:41.648,5,0.43,0.02,1.1,-6.349,-17.8438,-43.7628,175,75
2026-05-09 14:57:41.662,5,0.39,0.08,1.15,-7.609,2.7862,-55.9728,175,75
2026-05-09 14:57:41.662,5,0.34,0.12,1.21,-10.599,17.8262,-59.5228,175,75
2026-05-09 14:57:41.672,5,0.28,0.16,1.28,-15.899000000000001,24.0362,-50.7728,175,75
2026-05-09 14:57:41.683,5,0.22,0.16,1.32,-21.899,21.1162,-30.7728,175,75
2026-05-09 14:57:41.697,5,0.12,0.1,1.33,-26.609,13.466199999999999,-9.4328,175,75
2026-05-09 14:57:41.707,5,0.05,0.0,1.33,-26.859,1.7562000000000002,7.7372000000000005,175,75
2026-05-09 14:57:41.713,5,-0.01,-0.11,1.31,-23.959,-15.0538,21.5972,175,75
2026-05-09 14:57:41.726,5,-0.02,-0.2,1.31,-18.929000000000002,-36.3538,32.117200000000004,175,75
2026-05-09 14:57:41.780,5,0.26,-0.22,1.02,6.041,-74.8738,-34.852799999999995,175,75
2026-05-09 14:57:41.780,5,0.41,-0.08,1.03,5.981,-60.953799999999994,-55.3428,175,75
2026-05-09 14:57:41.805,5,0.53,0.02,1.03,2.441,-43.0838,-65.03280000000001,175,75
2026-05-09 14:57:41.805,5,0.57,0.13,1.03,-4.978999999999999,-21.4238,-63.8628,175,75
2026-05-09 14:57:41.816,5,0.57,0.19,1.04,-14.089,-0.5937999999999999,-50.3628,175,75
2026-05-09 14:57:41.826,5,0.51,0.17,1.04,-21.169,14.9862,-33.3428,175,75
2026-05-09 14:57:41.850,5,0.3,0.06,1.09,-29.019000000000002,25.2962,1.7371999999999999,175,75
2026-05-09 14:57:41.860,5,0.22,-0.02,1.13,-32.339,18.1962,14.127199999999998,175,75
2026-05-09 14:57:41.875,5,0.15,-0.12,1.13,-32.568999999999996,7.196199999999999,20.5372,175,75
2026-05-09 14:57:41.875,5,0.12,-0.2,1.11,-28.449,-5.1838,17.8372,175,75
2026-05-09 14:57:41.899,5,0.18,-0.22,1.1,-19.279,-14.4338,-10.5928,175,75
2026-05-09 14:57:41.913,5,0.25,-0.2,1.08,-17.879,-9.5038,-25.3128,175,75
2026-05-09 14:57:41.913,5,0.32,-0.17,1.05,-16.189,-0.9937999999999999,-33.962799999999994,175,75
2026-05-09 14:57:41.925,5,0.35,-0.12,1.04,-14.229000000000001,9.3162,-38.142799999999994,175,75
2026-05-09 14:57:41.941,5,0.34,-0.07,1.04,-13.069,19.2062,-38.322799999999994,175,75
2026-05-09 14:57:41.951,5,0.32,-0.04,1.07,-14.269,28.176199999999998,-37.4428,175,75
2026-05-09 14:57:41.962,5,0.29,-0.03,1.1,-15.739,34.6462,-34.5128,175,75
2026-05-09 14:57:41.962,5,0.26,-0.04,1.11,-15.318999999999999,39.056200000000004,-30.832800000000002,175,75
2026-05-09 14:57:41.973,5,0.2,-0.05,1.13,-13.019,41.7862,-27.4928,175,75
2026-05-09 14:57:41.994,5,0.15,0.01,1.17,-7.6690000000000005,36.6062,-21.172800000000002,175,75
2026-05-09 14:57:42.007,5,0.14,0.04,1.19,-6.409000000000001,31.3762,-17.1128,175,75
2026-05-09 14:57:42.019,5,0.14,0.07,1.2,-6.819000000000001,27.3762,-12.1628,175,75
2026-05-09 14:57:42.031,5,0.15,0.08,1.21,-5.769,22.8662,-5.1728,175,75
2026-05-09 14:57:42.031,5,0.15,0.08,1.2,-2.149,17.9162,5.2172,175,75
2026-05-09 14:57:42.042,5,0.14,0.09,1.18,2.621,13.8962,16.077199999999998,175,75
2026-05-09 14:57:42.068,5,0.07,0.08,1.09,9.360999999999999,10.956199999999999,30.0172,175,75
2026-05-09 14:57:42.085,5,0.04,0.07,1.05,11.881,8.3662,36.7272,175,75
2026-05-09 14:57:42.085,5,0.02,0.07,1.0,12.161,3.2462000000000004,43.617200000000004,175,75
2026-05-09 14:57:42.101,5,0.02,0.05,0.96,11.761,-4.5638000000000005,50.897200000000005,175,75
2026-05-09 14:57:42.119,5,0.03,0.01,0.88,11.690999999999999,-14.8238,61.8372,175,75
2026-05-09 14:57:42.130,5,0.01,-0.01,0.84,9.301,-16.433799999999998,61.427200000000006,175,75
2026-05-09 14:57:42.147,5,0.02,-0.09,0.78,4.670999999999999,-19.0438,57.9572,175,75
2026-05-09 14:57:42.188,5,-0.04,-0.16,0.62,3.051,-7.1538,34.677200000000006,175,75
2026-05-09 14:57:42.213,5,0.03,-0.1,0.66,14.051,15.1162,6.7672,175,75
2026-05-09 14:57:42.263,5,0.05,-0.07,0.7,15.091,19.5262,-0.3528,175,75
2026-05-09 14:57:42.263,5,-0.04,-0.04,0.72,17.421,26.0362,-9.132800000000001,175,75
2026-05-09 14:57:42.263,5,-0.07,-0.04,0.73,20.561,28.4462,-11.0928,175,75
2026-05-09 14:57:42.277,5,-0.12,0.01,0.74,24.361,32.9162,-10.4928,175,75
2026-05-09 14:57:42.283,5,-0.14,0.04,0.72,24.591,33.2462,-9.1628,175,75
2026-05-09 14:57:42.312,5,-0.12,0.07,0.58,14.681,22.1362,23.1172,175,75
2026-05-09 14:57:42.319,5,-0.06,0.05,0.56,10.721,19.8462,37.6272,175,75
2026-05-09 14:57:42.337,5,0.06,0.04,0.63,10.811,15.7162,52.3472,175,75
2026-05-09 14:57:42.359,5,0.46,0.12,1.14,22.171,-75.63380000000001,86.0372,175,75
2026-05-09 14:57:42.369,5,0.87,0.04,1.23,32.891000000000005,-114.9638,94.21719999999999,175,75
2026-05-09 14:57:42.369,5,0.87,-0.09,1.05,31.091,-85.63380000000001,89.3772,175,75
2026-05-09 14:57:42.390,5,0.6,-0.27,0.9,6.3309999999999995,-30.253800000000002,94.6172,175,75
2026-05-09 14:57:42.395,5,0.45,-0.58,0.7,-29.339000000000002,17.0462,107.6472,175,75
2026-05-09 14:57:42.409,5,0.26,-0.61,0.69,-46.608999999999995,51.486200000000004,121.0272,175,75
2026-05-09 14:57:42.421,5,0.02,-0.71,0.6,-33.108999999999995,63.68620000000001,88.9172,175,75
2026-05-09 14:57:42.421,5,-0.03,-0.62,0.73,-0.7690000000000001,59.1462,11.127199999999998,175,75
2026-05-09 14:57:42.443,5,0.22,-0.04,1.1,21.971,46.6462,-139.2028,175,75
2026-05-09 14:57:42.453,5,0.38,0.27,1.2,14.581,48.5662,-166.5128,175,75
2026-05-09 14:57:42.464,5,0.52,0.29,1.18,3.371,49.126200000000004,-148.3728,175,75
2026-05-09 14:57:42.489,5,0.54,0.47,1.26,-16.909,31.6662,-24.7528,175,75
2026-05-09 14:57:42.489,5,0.4,0.38,1.23,-26.319,23.1562,45.217200000000005,175,75
2026-05-09 14:57:42.501,5,0.2,0.24,1.13,-31.279,15.6462,93.29719999999999,175,75
2026-05-09 14:57:42.521,5,0.11,0.1,1.07,-30.929000000000002,2.4962,117.82719999999999,175,75
2026-05-09 14:57:42.521,5,0.12,0.0,1.05,-29.119,-13.113800000000001,123.4772,175,75
2026-05-09 14:57:42.543,5,0.32,-0.17,1.02,-23.829,-28.663800000000002,97.4472,175,75
2026-05-09 14:57:42.561,5,0.42,-0.21,1.01,-20.349,-19.1738,74.4172,175,75
2026-05-09 14:57:42.572,5,0.41,-0.2,1.01,-17.199,22.3062,27.3472,175,75
2026-05-09 14:57:42.618,5,0.22,0.04,1.18,-10.769,47.4662,32.7072,175,75
2026-05-09 14:57:42.630,5,0.15,0.09,1.21,-10.249,39.986200000000004,48.787200000000006,175,75
2026-05-09 14:57:42.645,5,-0.01,0.16,1.24,-20.569,21.8562,72.04719999999999,175,75
2026-05-09 14:57:42.682,5,0.06,-0.11,1.17,-38.099,-7.473800000000001,104.3772,175,75
2026-05-09 14:57:42.692,5,0.06,-0.13,1.17,-36.138999999999996,-11.453800000000001,108.57719999999999,175,75
2026-05-09 14:57:42.726,5,0.05,-0.2,1.02,-14.199,-20.3038,112.0672,175,75
2026-05-09 14:57:42.739,5,0.04,-0.2,0.96,-5.769,-24.8838,108.5272,175,75
2026-05-09 14:57:42.749,5,0.11,-0.17,0.93,1.261,-27.4338,108.21719999999999,175,75
2026-05-09 14:57:42.749,5,0.15,-0.15,0.9,7.031000000000001,-26.0138,114.1972,175,75
2026-05-09 14:57:42.760,5,0.13,-0.11,0.88,11.100999999999999,-21.9538,118.8672,175,75
2026-05-09 14:57:42.789,5,0.09,-0.1,0.87,3.431,-10.953800000000001,121.3172,175,75
2026-05-09 14:57:42.819,5,0.0,-0.2,0.94,-3.2790000000000004,12.4762,117.7072,175,75
2026-05-09 14:57:42.873,5,-0.2,-0.2,1.05,-2.459,-13.8538,86.60719999999999,175,75
2026-05-09 14:57:42.888,5,-0.16,-0.2,1.03,0.43099999999999994,-20.413800000000002,91.2372,175,75
2026-05-09 14:57:42.922,5,0.06,-0.19,1.04,7.271000000000001,-20.6538,127.3772,175,75
2026-05-09 14:57:43.032,5,-0.1,-0.25,1.14,-7.909000000000001,-11.283800000000001,104.0572,175,75
2026-05-09 14:57:43.047,5,-0.11,-0.28,1.15,-11.529,-9.6338,105.13719999999999,175,75
2026-05-09 14:57:43.085,5,-0.21,-0.41,1.14,-13.309000000000001,-19.4638,98.0072,175,75
2026-05-09 14:57:43.119,5,-0.26,-0.46,1.07,-10.279,-36.7838,60.8772,175,75
2026-05-09 14:57:43.144,5,-0.56,-0.6,0.99,7.561,-56.2438,22.8872,175,75
2026-05-09 14:57:43.169,5,0.16,-0.32,0.97,12.461,-41.3238,2.2872000000000003,175,75
2026-05-09 14:57:43.179,5,0.17,-0.32,0.88,10.940999999999999,-26.9538,1.5672,175,75
2026-05-09 14:57:43.179,5,-0.16,-0.4,0.9,16.491,-30.9938,-0.4928,175,75
2026-05-09 14:57:43.190,5,0.27,-0.25,0.85,13.561,-5.6838,2.4272,175,75
2026-05-09 14:57:43.203,5,0.31,-0.24,0.82,11.110999999999999,21.0562,7.0172,175,75
2026-05-09 14:57:43.383,5,0.08,-0.39,0.98,25.811,34.626200000000004,-123.3028,175,75
2026-05-09 14:57:43.439,5,0.14,-0.07,1.01,15.860999999999999,35.2162,-132.6928,175,75
2026-05-09 14:57:43.520,5,0.06,-0.05,1.0,4.401,28.6562,-114.78280000000001,175,75
2026-05-09 14:57:43.539,5,0.03,-0.03,0.95,3.781,25.9462,-111.9028,175,75
2026-05-09 14:57:43.551,5,0.03,-0.01,0.96,4.561,27.7162,-109.25280000000001,175,75
2026-05-09 14:57:43.570,5,0.03,0.01,0.98,5.8309999999999995,30.6562,-109.3528,175,75
2026-05-09 14:57:43.570,5,0.05,0.02,1.04,8.151,34.5962,-109.2128,175,75
2026-05-09 14:57:43.599,5,0.07,0.1,1.14,6.961,45.126200000000004,-104.4928,175,75
2026-05-09 14:57:43.599,5,0.05,0.11,1.19,4.231,52.1662,-101.9128,175,75
2026-05-09 14:57:43.615,5,0.03,0.1,1.22,1.841,58.866200000000006,-95.3328,175,75
2026-05-09 14:57:43.646,5,-0.06,0.02,1.25,4.511,61.726200000000006,-54.532799999999995,175,75
2026-05-09 14:57:43.713,5,-0.16,-0.0,1.17,23.201,4.046200000000001,-57.572799999999994,175,75
2026-05-09 14:57:43.725,5,-0.13,0.03,1.16,22.281,1.1962000000000002,-56.5428,175,75
2026-05-09 14:57:43.750,5,-0.11,0.08,1.12,18.781,2.7862,-53.032799999999995,175,75
2026-05-09 14:57:43.750,5,-0.13,0.09,1.1,15.741,6.856199999999999,-54.4728,175,75
2026-05-09 14:57:43.775,5,-0.09,0.12,1.14,12.381,11.8962,-51.352799999999995,175,75
2026-05-09 14:57:43.786,5,-0.08,0.14,1.15,10.091,14.2462,-45.9428,175,75
2026-05-09 14:57:43.809,5,-0.15,0.18,1.16,5.371,17.4662,-33.882799999999996,175,75
2026-05-09 14:57:43.859,5,-0.16,0.15,1.12,1.6909999999999998,11.5962,-6.8528,175,75
2026-05-09 14:57:43.880,5,-0.24,0.15,1.07,3.071,1.4562,17.057199999999998,175,75
2026-05-09 14:57:43.891,5,-0.25,0.16,1.06,3.181,-4.3438,17.9572,175,75
2026-05-09 14:57:43.891,5,-0.25,0.17,1.04,3.391,-10.9738,16.3472,175,75
2026-05-09 14:57:43.908,5,-0.23,0.18,1.02,4.181,-17.5438,15.4272,175,75
2026-05-09 14:57:43.921,5,-0.2,0.19,1.02,4.151,-23.3638,16.987199999999998,175,75
2026-05-09 14:57:43.921,5,-0.16,0.2,1.02,3.741,-28.8538,21.0872,175,75
2026-05-09 14:57:43.942,5,-0.13,0.2,0.99,2.7809999999999997,-32.9038,27.2772,175,75
2026-05-09 14:57:43.943,5,-0.11,0.19,0.95,2.141,-35.303799999999995,34.797200000000004,175,75
2026-05-09 14:57:43.994,5,0.04,0.2,0.92,0.241,-22.9238,63.1672,175,75
2026-05-09 14:57:44.018,5,0.22,0.17,1.07,-3.4389999999999996,-30.9538,93.9472,175,75
2026-05-09 14:57:44.027,5,0.33,0.11,1.16,-3.4389999999999996,-32.6838,110.9472,175,75
2026-05-09 14:57:44.042,5,0.35,0.0,1.19,-3.1590000000000003,-26.9538,123.5572,175,75
2026-05-09 14:57:44.042,5,0.28,-0.12,1.15,-6.689,-12.4938,129.2072,175,75
2026-05-09 14:57:44.056,5,0.16,-0.19,1.07,-13.279,4.0762,132.9972,175,75
2026-05-09 14:57:44.066,5,0.05,-0.34,0.94,-14.809000000000001,19.336199999999998,134.8972,175,75
2026-05-09 14:57:44.078,5,-0.07,-0.38,0.85,-8.509,32.4262,123.6472,175,75
2026-05-09 14:57:44.084,5,-0.16,-0.29,0.9,-0.4990000000000001,39.306200000000004,87.5972,175,75
2026-05-09 14:57:44.095,5,-0.12,-0.2,1.0,2.1310000000000002,37.7862,44.537200000000006,175,75
2026-05-09 14:57:44.112,5,0.01,0.07,1.12,2.7409999999999997,24.996199999999998,-0.6128,175,75
2026-05-09 14:57:44.142,5,-0.05,0.19,1.1,-8.249,8.4062,12.867199999999999,175,75
2026-05-09 14:57:44.164,5,0.03,-0.04,1.11,-24.389,8.5662,99.0972,175,75
2026-05-09 14:57:44.183,5,-0.06,-0.24,1.24,-27.959,8.216199999999999,109.79719999999999,175,75
2026-05-09 14:57:44.242,5,-0.17,-0.22,1.26,-20.839000000000002,57.116200000000006,17.987199999999998,175,75
2026-05-09 14:57:44.253,5,-0.21,-0.14,1.25,-21.529,53.656200000000005,22.2472,175,75
2026-05-09 14:57:44.266,5,-0.24,-0.09,1.24,-23.079,45.086200000000005,32.037200000000006,175,75
2026-05-09 14:57:44.339,5,-0.28,-0.2,1.12,-32.748999999999995,-33.1438,58.9472,175,75
2026-05-09 14:57:44.339,5,-0.25,-0.22,1.09,-33.589,-41.2238,57.4772,175,75
2026-05-09 14:57:44.364,5,-0.2,-0.23,1.05,-33.809,-47.053799999999995,56.7372,175,75
2026-05-09 14:57:44.389,5,-0.09,-0.23,0.98,-29.839000000000002,-48.273799999999994,55.187200000000004,175,75
2026-05-09 14:57:44.400,5,-0.02,-0.23,0.93,-24.689,-36.9238,55.257200000000005,175,75
2026-05-09 14:57:44.421,5,-0.01,-0.21,0.89,-18.149,-21.9238,52.5572,175,75
2026-05-09 14:57:44.454,5,-0.05,-0.18,0.85,-16.319,3.9962000000000004,45.397200000000005,175,75
2026-05-09 14:57:44.498,5,-0.16,-0.18,0.92,-17.279,32.126200000000004,38.397200000000005,175,75
2026-05-09 14:57:44.522,5,-0.24,-0.18,0.98,-14.919,31.8162,34.0172,175,75
2026-05-09 14:57:44.531,5,-0.32,-0.19,1.0,-11.559000000000001,22.2862,31.1272,175,75
2026-05-09 14:57:44.551,5,-0.34,-0.2,0.99,-7.279,9.7262,29.5272,175,75
2026-05-09 14:57:44.600,5,-0.24,-0.23,0.97,-2.869,-3.5538,27.1372,175,75
2026-05-09 14:57:44.636,5,-0.24,-0.27,0.89,-2.199,14.206199999999999,12.947199999999999,175,75
2026-05-09 14:57:44.666,5,-0.24,-0.21,0.91,1.281,45.876200000000004,-0.7228,175,75
2026-05-09 14:57:44.696,5,-0.38,-0.18,0.96,-1.2890000000000001,63.546200000000006,2.9072,175,75
2026-05-09 14:57:44.709,5,-0.45,-0.19,0.97,-1.799,62.986200000000004,2.9972000000000003,175,75
2026-05-09 14:57:44.733,5,-0.56,-0.24,1.04,-0.9790000000000001,40.0262,14.0572,175,75
2026-05-09 14:57:44.791,5,-0.43,-0.19,1.0,1.321,-27.1038,-21.582800000000002,175,75
2026-05-09 14:57:44.791,5,-0.35,-0.18,0.95,-0.10899999999999999,-27.663800000000002,-27.8128,175,75
2026-05-09 14:57:44.859,5,-0.19,-0.21,0.85,-7.058999999999999,31.0262,-8.6028,175,75
2026-05-09 14:57:44.859,5,-0.21,-0.18,0.97,-9.859,39.336200000000005,-7.0927999999999995,175,75
2026-05-09 14:57:44.878,5,-0.24,-0.13,1.13,-19.349,49.766200000000005,-12.9428,175,75
2026-05-09 14:57:44.895,5,-0.14,-0.11,1.38,-38.669,73.9962,-7.4828,175,75
2026-05-09 14:57:44.904,5,-0.26,-0.16,1.39,-19.089000000000002,69.8262,-3.5827999999999998,175,75
2026-05-09 14:57:44.913,5,-0.27,0.1,1.55,-7.679,58.9162,6.9572,175,75
2026-05-09 14:57:44.920,5,-0.29,0.09,1.46,-6.728999999999999,47.4962,27.7972,175,75
2026-05-09 14:57:44.970,5,-0.41,-0.39,0.96,-0.569,25.4362,103.7672,175,75
2026-05-09 14:57:45.066,5,-0.05,-0.08,1.09,28.660999999999998,-30.253800000000002,-64.5728,175,75
2026-05-09 14:57:45.133,5,0.21,-0.0,1.1,14.850999999999999,37.266200000000005,69.4572,175,75
2026-05-09 14:57:45.144,5,0.09,-0.19,1.2,8.100999999999999,52.696200000000005,71.04719999999999,175,75
2026-05-09 14:57:45.159,5,0.01,-0.27,1.21,13.231,56.236200000000004,64.0572,175,75
2026-05-09 14:57:45.189,5,-0.3,-0.23,1.23,34.881,54.8162,40.927200000000006,175,75
2026-05-09 14:57:45.235,5,-0.34,0.04,1.24,32.941,5.366199999999999,21.4572,175,75
2026-05-09 14:57:45.251,5,-0.27,0.04,1.25,25.261,0.34620000000000006,40.8872,175,75
2026-05-09 14:57:45.286,5,-0.28,0.01,1.23,20.320999999999998,5.3062000000000005,55.0172,175,75
2026-05-09 14:57:45.319,5,-0.48,-0.08,1.04,27.511,3.6561999999999997,35.827200000000005,175,75
2026-05-09 14:57:45.319,5,-0.49,-0.04,1.05,33.851000000000006,-6.143800000000001,21.8772,175,75
2026-05-09 14:57:45.335,5,-0.46,0.03,1.07,37.301,-18.7938,11.597199999999999,175,75
2026-05-09 14:57:45.349,5,-0.44,0.08,1.06,39.021,-29.2938,5.9572,175,75
2026-05-09 14:57:45.380,5,-0.31,0.16,1.0,30.651,-45.553799999999995,12.517199999999999,175,75
2026-05-09 14:57:45.521,5,-0.28,0.04,0.79,3.961,-9.043800000000001,-10.9128,175,75
2026-05-09 14:57:45.537,5,-0.26,0.09,0.81,4.811,-6.7738,-18.4328,175,75
2026-05-09 14:57:45.570,5,-0.14,0.22,0.97,1.391,-1.8237999999999999,-16.2728,175,75
2026-05-09 14:57:45.608,5,-0.15,0.18,1.04,-14.319,19.7162,32.0272,175,75
2026-05-09 14:57:45.681,5,-0.28,0.12,0.97,-27.989,-23.8738,40.9572,175,75
2026-05-09 14:57:45.748,5,-0.22,0.02,0.8,-27.809,29.4762,-5.6628,175,75
2026-05-09 14:57:45.830,5,-0.49,0.05,1.27,-54.799,64.2762,32.3772,175,75
2026-05-09 14:57:45.858,5,-0.76,-0.09,1.19,-39.638999999999996,9.386199999999999,47.297200000000004,175,75
2026-05-09 14:57:45.968,5,-0.31,0.05,0.9,-12.239,-4.8838,2.6372,175,75
2026-05-09 14:57:46.015,5,-0.43,0.13,1.03,-18.189,10.7862,46.0272,175,75
2026-05-09 14:57:46.079,5,-0.41,-0.08,1.02,-14.989,-38.1438,115.35719999999999,175,75
2026-05-09 14:57:46.090,5,-0.36,-0.14,1.0,-18.589000000000002,-47.693799999999996,87.4772,175,75
2026-05-09 14:57:46.118,5,-0.32,-0.14,0.95,-16.789,-26.1738,36.9572,175,75
2026-05-09 14:57:46.228,5,-0.45,0.04,1.03,-26.129,-12.5838,79.9572,175,75
2026-05-09 14:57:46.247,5,-0.48,-0.01,0.99,-24.319,-21.7238,114.7672,175,75
2026-05-09 14:57:46.294,5,-0.42,-0.1,0.94,-27.859,-30.2038,118.3772,175,75
2026-05-09 14:57:46.315,5,-0.39,-0.16,0.91,-26.799,-18.5938,61.047200000000004,175,75
2026-05-09 14:57:46.327,5,-0.4,-0.13,0.9,-25.659,-12.0838,41.5572,175,75
2026-05-09 14:57:46.346,5,-0.42,-0.09,0.9,-25.959,-8.1738,28.0172,175,75
2026-05-09 14:57:46.346,5,-0.42,-0.05,0.92,-26.899,-6.883800000000001,19.897199999999998,175,75
2026-05-09 14:57:46.365,5,-0.4,-0.01,0.92,-31.409000000000002,-9.7538,22.5472,175,75
2026-05-09 14:57:46.389,5,-0.39,-0.01,0.92,-36.799,-11.0638,44.2672,175,75
2026-05-09 14:57:46.413,5,-0.4,-0.04,0.9,-40.669,-3.6238,73.6772,175,75
2026-05-09 14:57:46.428,5,-0.43,-0.06,0.87,-41.839,11.296199999999999,96.1172,175,75
2026-05-09 14:57:46.496,5,-0.55,-0.1,0.83,-35.509,11.8462,98.5972,175,75
2026-05-09 14:57:46.509,5,-0.59,-0.1,0.77,-34.989,3.6961999999999997,82.7672,175,75
2026-05-09 14:57:46.567,5,0.03,-0.07,1.43,-10.089,-82.4038,103.6972,175,75
2026-05-09 14:57:46.597,5,0.94,-0.62,1.83,-19.729,-131.85379999999998,249.7172,175,75
2026-05-09 14:57:46.597,5,0.36,-0.64,1.15,-31.608999999999998,-50.093799999999995,249.7172,175,75
2026-05-09 14:57:46.614,5,-1.07,-0.77,0.61,-1.299,3.4662,217.3272,175,75
2026-05-09 14:57:46.631,5,-0.79,-0.6,0.59,2.771,41.9262,-56.3328,175,75
2026-05-09 14:57:46.650,5,-0.44,-0.23,0.77,19.881,126.00619999999999,-250.5528,175,75
2026-05-09 14:57:46.652,5,-0.27,0.06,1.1,36.341,164.7262,-250.5528,175,75
2026-05-09 14:57:46.669,5,0.23,0.55,1.78,35.721000000000004,138.33620000000002,-250.5528,175,75
2026-05-09 14:57:46.747,5,0.29,0.07,0.89,-10.409,-43.8538,249.7172,175,75
2026-05-09 14:57:46.753,5,0.72,0.31,0.96,-32.278999999999996,32.7162,249.7172,175,75
2026-05-09 14:57:46.758,5,0.07,0.0,1.25,-47.769,-11.1738,249.7172,175,75
2026-05-09 14:57:46.773,5,0.16,-0.35,1.39,-66.069,-53.1738,249.7172,175,75
2026-05-09 14:57:46.811,5,-0.66,-0.55,0.8,-8.359,63.266200000000005,-57.9028,175,75
2026-05-09 14:57:46.822,5,-0.6,-0.41,0.85,-0.21900000000000008,93.7962,-160.3228,175,75
2026-05-09 14:57:46.837,5,-0.29,-0.15,1.15,3.271,120.3562,-250.5528,175,75
2026-05-09 14:57:46.854,5,0.29,0.29,1.52,-8.199,21.676199999999998,-205.8128,175,75
2026-05-09 14:57:46.867,5,0.19,0.3,1.52,-11.099,-11.4238,-118.6228,175,75
2026-05-09 14:57:46.889,5,0.1,0.15,1.2,-45.468999999999994,0.45620000000000016,2.7372,175,75
2026-05-09 14:57:46.902,5,-0.02,-0.09,0.99,-46.858999999999995,17.0262,74.15719999999999,175,75
2026-05-09 14:57:46.925,5,-0.28,-0.05,1.21,-27.149,22.7562,215.7172,175,75
2026-05-09 14:57:46.937,5,-0.59,-0.08,1.38,-37.119,-26.1538,198.3672,175,75
2026-05-09 14:57:46.961,5,-0.24,-0.48,1.15,-47.108999999999995,-71.58380000000001,91.6672,175,75
2026-05-09 14:57:46.984,5,-0.16,-0.5,0.86,-20.019000000000002,-33.053799999999995,13.5772,175,75
2026-05-09 14:57:46.997,5,-0.14,-0.32,0.9,-10.089,15.2762,-47.0128,175,75
2026-05-09 14:57:47.012,5,-0.09,-0.27,0.96,-15.109,29.0362,-69.2328,175,75
2026-05-09 14:57:47.012,5,-0.02,-0.26,0.98,-15.469000000000001,34.5962,-82.2628,175,75
2026-05-09 14:57:47.059,5,-0.06,-0.03,0.97,-8.959,37.366200000000006,-9.3628,175,75
2026-05-09 14:57:47.082,5,-0.17,-0.02,0.95,-24.059,45.366200000000006,39.607200000000006,175,75
2026-05-09 14:57:47.082,5,-0.2,-0.09,0.94,-27.739,44.946200000000005,67.9272,175,75
2026-05-09 14:57:47.113,5,-0.48,-0.32,1.04,-26.309,7.6562,89.99719999999999,175,75
2026-05-09 14:57:47.135,5,-0.45,-0.45,1.07,-20.319,-30.0138,40.8472,175,75
2026-05-09 14:57:47.151,5,-0.38,-0.47,1.0,-12.989,-34.2538,15.8372,175,75
2026-05-09 14:57:47.205,5,-0.08,-0.21,1.01,-6.529,-6.0738,-18.5328,175,75
2026-05-09 14:57:47.216,5,-0.03,-0.18,1.05,-15.498999999999999,1.0262,-6.3628,175,75
2026-05-09 14:57:47.226,5,-0.01,-0.2,1.1,-25.529,6.776199999999999,7.6972,175,75
2026-05-09 14:57:47.239,5,-0.1,-0.38,1.1,-33.909,8.206199999999999,19.0272,175,75
2026-05-09 14:57:47.249,5,-0.17,-0.45,1.08,-33.549,7.5762,13.457199999999998,175,75
2026-05-09 14:57:47.271,5,-0.3,-0.48,1.0,-23.029,6.466200000000001,-27.7228,175,75
2026-05-09 14:57:47.271,5,-0.33,-0.44,0.93,-12.289,2.4962,-45.6528,175,75
2026-05-09 14:57:47.281,5,-0.32,-0.34,0.86,3.021,-3.2237999999999998,-64.2228,175,75
2026-05-09 14:57:47.293,5,-0.28,-0.2,0.83,15.280999999999999,-7.4938,-74.3228,175,75
2026-05-09 14:57:47.355,5,-0.24,0.16,0.65,31.980999999999998,-19.7338,-49.1828,175,75
2026-05-09 14:57:47.370,5,-0.23,0.2,0.56,27.001,-38.1038,-18.1228,175,75
2026-05-09 14:57:47.456,5,0.03,0.0,0.49,6.391,-59.06379999999999,67.8172,175,75
2026-05-09 14:57:47.485,5,0.23,-0.07,0.72,-0.27900000000000014,-17.0838,140.9572,175,75
2026-05-09 14:57:47.490,5,0.23,-0.23,0.93,3.301,0.6962000000000002,160.6372,175,75
2026-05-09 14:57:47.523,5,0.43,-0.54,1.58,21.241,20.7762,148.9272,175,75
2026-05-09 14:57:47.553,5,-0.03,-0.53,1.5,9.950999999999999,142.99620000000002,125.8672,175,75
2026-05-09 14:57:47.592,5,-1.34,-0.48,0.95,13.041,186.8562,-57.4128,175,75
2026-05-09 14:57:47.602,5,-1.39,-0.43,0.93,22.101,145.20620000000002,-117.4428,175,75
2026-05-09 14:57:47.618,5,-1.31,-0.35,1.03,28.381,90.61619999999999,-153.7828,175,75
2026-05-09 14:57:47.641,5,-0.89,-0.02,1.46,13.061,-42.06379999999999,-133.8828,175,75
2026-05-09 14:57:47.663,5,-0.36,-0.13,1.26,1.801,-118.5738,-18.3428,175,75
2026-05-09 14:57:47.669,5,-0.34,-0.16,1.13,5.741,-119.2238,8.5672,175,75
2026-05-09 14:57:47.679,5,-0.25,-0.2,1.02,7.631,-113.1238,19.1972,175,75
2026-05-09 14:57:47.690,5,-0.05,-0.23,0.99,1.101,-38.56379999999999,0.5671999999999999,175,75
2026-05-09 14:57:47.702,5,-0.04,-0.22,0.96,8.661,25.1362,-63.0928,175,75
2026-05-09 14:57:47.709,5,-0.15,-0.12,0.94,14.971,48.1762,-79.53280000000001,175,75
2026-05-09 14:57:47.709,5,-0.28,-0.01,0.95,17.621,55.516200000000005,-77.31280000000001,175,75
2026-05-09 14:57:47.722,5,-0.46,0.14,1.03,13.411,47.9262,-54.0828,175,75
2026-05-09 14:57:47.745,5,-0.46,0.04,1.04,-1.779,28.9562,5.1772,175,75
2026-05-09 14:57:47.757,5,-0.52,-0.2,1.11,-11.739,-16.0538,71.0372,175,75
2026-05-09 14:57:47.768,5,-0.55,-0.27,1.12,-11.569,-40.4038,65.6972,175,75
2026-05-09 14:57:47.784,5,-0.48,-0.46,0.83,8.001,-83.1138,0.40719999999999995,175,75
2026-05-09 14:57:47.795,5,-0.4,-0.4,0.79,18.251,-82.5638,-21.942800000000002,175,75
2026-05-09 14:57:47.795,5,-0.31,-0.3,0.8,26.111,-75.80380000000001,-41.242799999999995,175,75
2026-05-09 14:57:47.823,5,-0.04,-0.08,0.81,19.261,-43.6038,-60.5128,175,75
2026-05-09 14:57:47.823,5,0.03,-0.06,0.83,11.971,-30.5638,-49.852799999999995,175,75
2026-05-09 14:57:47.846,5,0.04,-0.08,0.86,1.281,-2.4038,-19.2528,175,75
2026-05-09 14:57:47.860,5,-0.12,-0.17,0.9,-5.2490000000000006,19.4562,3.0072,175,75
2026-05-09 14:57:47.872,5,-0.23,-0.22,0.91,-6.579000000000001,22.0462,7.6072,175,75
2026-05-09 14:57:47.872,5,-0.34,-0.27,0.91,-5.489000000000001,18.9462,5.0872,175,75
2026-05-09 14:57:47.892,5,-0.47,-0.31,0.89,5.510999999999999,2.6762,-22.082800000000002,175,75
2026-05-09 14:57:47.903,5,-0.49,-0.3,0.88,13.761,-5.6738,-41.102799999999995,175,75
2026-05-09 14:57:47.920,5,-0.47,-0.26,0.88,21.361,-12.2438,-57.922799999999995,175,75
2026-05-09 14:57:47.920,5,-0.42,-0.22,0.87,26.761,-15.4038,-69.6828,175,75
2026-05-09 14:57:47.971,5,-0.18,-0.05,0.95,26.001,-9.1538,-47.962799999999994,175,75
2026-05-09 14:57:47.971,5,-0.21,0.05,0.98,22.471,-2.6538,-36.0428,175,75
2026-05-09 14:57:48.071,5,-0.35,-0.2,0.99,8.781,19.5262,27.0272,175,75
2026-05-09 14:57:48.078,5,-0.43,-0.26,1.02,9.641,17.246199999999998,13.0672,175,75
2026-05-09 14:57:48.089,5,-0.45,-0.3,1.03,10.651,15.496199999999998,1.6072,175,75
2026-05-09 14:57:48.100,5,-0.47,-0.3,1.02,12.561,13.6962,-12.1728,175,75
2026-05-09 14:57:48.112,5,-0.5,-0.31,1.01,16.161,13.1462,-27.2228,175,75
2026-05-09 14:57:48.112,5,-0.53,-0.28,0.98,19.811,12.9462,-42.9428,175,75
2026-05-09 14:57:48.132,5,-0.53,-0.18,0.97,22.421,12.2762,-71.4128,175,75
2026-05-09 14:57:48.159,5,-0.43,-0.07,1.0,14.141,10.1562,-82.5128,175,75
2026-05-09 14:57:48.188,5,-0.31,-0.07,1.02,1.361,14.456199999999999,-58.2328,175,75
2026-05-09 14:57:48.221,5,-0.34,-0.2,1.05,-11.409,33.236200000000004,3.5972,175,75
2026-05-09 14:57:48.250,5,-0.31,-0.21,1.44,-22.399,18.8562,-57.4428,175,75
2026-05-09 14:57:48.265,5,-0.41,-0.1,1.11,-21.899,31.0562,-71.64280000000001,175,75
2026-05-09 14:57:48.275,5,-0.34,-0.03,1.04,-22.149,47.2162,-40.922799999999995,175,75
2026-05-09 14:57:48.288,5,-0.28,-0.05,1.04,-22.269000000000002,59.836200000000005,-4.5228,175,75
2026-05-09 14:57:48.307,5,-0.42,-0.1,1.11,-27.459,36.8562,72.0672,175,75
2026-05-09 14:57:48.324,5,-0.46,-0.22,1.11,-35.189,26.2062,89.68719999999999,175,75
2026-05-09 14:57:48.378,5,-0.51,-0.55,1.18,-16.249,18.4662,90.1772,175,75
2026-05-09 14:57:48.396,5,-0.45,-0.6,1.27,-5.349,15.9362,67.4572,175,75
2026-05-09 14:57:48.406,5,-0.45,-0.5,1.43,2.0709999999999997,8.376199999999999,37.717200000000005,175,75
2026-05-09 14:57:48.416,5,-0.3,-0.44,1.37,12.421,-7.4138,5.8572,175,75
2026-05-09 14:57:48.416,5,-0.25,-0.28,1.33,24.921,-23.573800000000002,-24.6428,175,75
2026-05-09 14:57:48.450,5,0.27,0.24,1.0,41.461000000000006,-40.803799999999995,-5.6228,175,75
2026-05-09 14:57:48.450,5,0.35,0.22,0.96,36.851000000000006,-24.6938,27.0972,175,75
2026-05-09 14:57:48.496,5,0.09,0.0,1.28,22.781,1.5762,79.2572,175,75
2026-05-09 14:57:48.496,5,0.04,-0.04,1.36,18.801,-3.5138,71.10719999999999,175,75
2026-05-09 14:57:48.518,5,-0.02,-0.16,1.36,18.841,-16.4438,56.797200000000004,175,75
2026-05-09 14:57:48.526,5,-0.03,-0.18,1.33,23.721,-20.8838,55.6372,175,75
2026-05-09 14:57:48.528,5,-0.03,-0.18,1.29,27.791,-24.1038,58.6672,175,75
2026-05-09 14:57:48.534,5,-0.02,-0.16,1.25,30.660999999999998,-26.0538,61.537200000000006,175,75
2026-05-09 14:57:48.547,5,-0.0,-0.15,1.21,32.241,-26.8338,63.5672,175,75
2026-05-09 14:57:48.558,5,-0.01,-0.13,1.19,32.781,-27.3038,63.437200000000004,175,75
2026-05-09 14:57:48.568,5,0.01,-0.11,1.18,30.751,-26.7438,61.3772,175,75
2026-05-09 14:57:48.587,5,0.07,-0.09,1.16,23.681,-17.0338,60.7472,175,75
2026-05-09 14:57:48.599,5,0.01,-0.08,1.15,23.820999999999998,-13.0838,53.6272,175,75
2026-05-09 14:57:48.728,5,-0.09,0.18,1.18,12.311,14.6762,32.357200000000006,175,75
2026-05-09 14:57:48.819,5,-0.12,0.18,1.21,14.231,14.5562,34.4572,175,75
2026-05-09 14:57:48.819,5,-0.14,0.19,1.23,17.921,13.466199999999999,35.797200000000004,175,75
2026-05-09 14:57:48.819,5,-0.16,0.19,1.26,21.591,14.466199999999999,37.797200000000004,175,75
2026-05-09 14:57:48.819,5,-0.19,0.2,1.26,27.971,18.1362,48.437200000000004,175,75
2026-05-09 14:57:48.819,5,-0.2,0.21,1.29,30.811,17.8962,55.9172,175,75
2026-05-09 14:57:48.819,5,-0.26,0.24,1.3,31.011,13.7862,61.0672,175,75
2026-05-09 14:57:48.819,5,-0.31,0.27,1.3,29.341,5.5662,62.797200000000004,175,75
2026-05-09 14:57:48.871,5,-0.26,0.28,1.14,13.831,-57.593799999999995,63.897200000000005,175,75
2026-05-09 14:57:48.871,5,-0.19,0.27,1.08,7.911,-67.5038,74.6972,175,75
2026-05-09 14:57:48.871,5,-0.09,0.22,0.98,2.141,-71.2538,88.54719999999999,175,75
2026-05-09 14:57:48.871,5,0.02,0.15,0.87,-1.6789999999999998,-67.6438,104.2772,175,75
2026-05-09 14:57:48.893,5,0.09,0.1,0.75,-3.1390000000000002,-60.2138,123.8972,175,75
2026-05-09 14:57:48.893,5,0.18,0.04,0.64,-2.539,-47.843799999999995,144.1072,175,75
2026-05-09 14:57:48.893,5,0.2,0.0,0.56,-2.419,-34.4638,161.1172,175,75
2026-05-09 14:57:48.910,5,0.18,-0.04,0.45,-2.869,-21.823800000000002,173.56719999999999,175,75
2026-05-09 14:57:48.910,5,0.08,-0.08,0.37,-3.3190000000000004,-12.0838,179.0972,175,75
2026-05-09 14:57:48.954,5,-0.02,-0.13,0.3,-1.8690000000000002,-5.4238,175.6072,175,75
2026-05-09 14:57:48.954,5,-0.23,-0.21,0.21,6.840999999999999,-15.2738,128.3572,175,75
2026-05-09 14:57:49.049,5,-0.18,-0.11,0.24,-2.829,-35.4738,60.8872,175,75
2026-05-09 14:57:49.049,5,-0.04,-0.06,0.28,-5.899000000000001,-27.9838,11.8172,175,75
2026-05-09 14:57:49.049,5,0.09,0.01,0.35,-9.149000000000001,-7.533799999999999,-32.0128,175,75
2026-05-09 14:57:49.049,5,0.11,0.17,0.67,-21.709,57.9162,-84.06280000000001,175,75
2026-05-09 14:57:49.049,5,0.08,0.12,0.79,-24.769000000000002,71.47619999999999,-75.2628,175,75
2026-05-09 14:57:49.049,5,0.07,0.22,0.96,-30.669,75.0962,-59.5428,175,75
2026-05-09 14:57:49.049,5,0.07,0.26,1.15,-34.898999999999994,70.2462,-39.2528,175,75
2026-05-09 14:57:49.050,5,0.07,0.31,1.39,-38.858999999999995,59.6362,-26.8828,175,75
2026-05-09 14:57:49.205,5,0.1,0.57,1.8,-61.958999999999996,43.8262,-17.2728,175,75
2026-05-09 14:57:49.205,5,0.09,0.59,1.87,-90.509,45.546200000000006,6.9472000000000005,175,75
2026-05-09 14:57:49.205,5,0.08,0.53,1.81,-117.899,68.4662,33.0972,175,75
2026-05-09 14:57:49.205,5,0.06,0.29,1.6,-130.609,108.9262,61.0272,175,75
2026-05-09 14:57:49.205,5,-0.0,0.05,1.36,-120.819,151.30620000000002,94.6672,175,75
2026-05-09 14:57:49.205,5,-0.2,-0.13,1.23,-98.54899999999999,169.95620000000002,144.1172,175,75
2026-05-09 14:57:49.205,5,-0.53,-0.09,1.21,-92.439,150.7262,197.1472,175,75
2026-05-09 14:57:49.205,5,-0.85,-0.28,1.15,-94.349,105.2062,220.97719999999998,175,75
2026-05-09 14:57:49.205,5,-1.07,-0.44,1.15,-88.469,53.7562,200.4372,175,75
2026-05-09 14:57:49.206,5,-0.89,-0.55,1.36,-10.149000000000001,-35.013799999999996,-15.4228,175,75
2026-05-09 14:57:49.233,5,-0.6,-0.02,1.56,17.551,-53.053799999999995,-107.0128,175,75
2026-05-09 14:57:49.233,5,-0.48,0.05,1.56,18.851,-65.7138,-109.6828,175,75
2026-05-09 14:57:49.329,5,-0.37,0.38,1.37,0.9109999999999999,-96.69380000000001,-50.0528,175,75
2026-05-09 14:57:49.329,5,-0.29,0.32,1.22,-4.9990000000000006,-104.1738,-13.6928,175,75
2026-05-09 14:57:49.329,5,-0.18,0.27,1.08,-6.489000000000001,-102.05380000000001,21.557199999999998,175,75
2026-05-09 14:57:49.329,5,-0.1,0.23,0.97,-5.6690000000000005,-93.1738,55.867200000000004,175,75
2026-05-09 14:57:49.329,5,-0.04,0.21,0.9,-4.579000000000001,-83.19380000000001,88.93719999999999,175,75
2026-05-09 14:57:49.339,5,0.03,0.21,0.87,-5.349,-73.4638,118.1972,175,75
2026-05-09 14:57:49.468,5,0.12,0.16,0.85,-13.949,-41.5438,167.6872,175,75
2026-05-09 14:57:49.468,5,0.12,0.11,0.87,-17.699,-21.1038,184.50719999999998,175,75
2026-05-09 14:57:49.468,5,-0.11,-0.05,1.01,-28.759,26.8662,128.8772,175,75
2026-05-09 14:57:49.468,5,-0.2,-0.11,0.99,-28.209,37.696200000000005,91.5372,175,75
2026-05-09 14:57:49.469,5,-0.29,-0.11,0.97,-25.539,41.656200000000005,61.0572,175,75
2026-05-09 14:57:49.469,5,-0.36,-0.07,0.99,-22.299,35.836200000000005,44.6272,175,75
2026-05-09 14:57:49.469,5,-0.36,0.03,1.06,-19.639,5.3262,51.1972,175,75
2026-05-09 14:57:49.469,5,-0.35,0.07,1.08,-21.159,-12.6838,70.4572,175,75
2026-05-09 14:57:49.469,5,-0.2,0.0,0.99,-21.669,-36.6138,139.8272,175,75
2026-05-09 14:57:49.677,5,-0.21,-0.01,0.98,-17.049,-28.8438,160.6372,175,75
2026-05-09 14:57:49.677,5,-0.21,-0.01,0.97,-19.149,-25.2438,148.9872,175,75
2026-05-09 14:57:49.677,5,-0.21,-0.03,0.97,-23.309,-19.2438,133.0272,175,75
2026-05-09 14:57:49.677,5,-0.2,-0.05,0.95,-25.799,-12.3038,121.5672,175,75
2026-05-09 14:57:49.677,5,-0.24,-0.04,0.95,-27.759,-6.1838,117.6472,175,75
2026-05-09 14:57:49.677,5,-0.25,-0.04,0.97,-30.149,-1.6038,115.6672,175,75
2026-05-09 14:57:49.677,5,-0.28,-0.02,1.0,-32.439,-2.2338,120.0272,175,75
2026-05-09 14:57:49.677,5,-0.28,-0.02,1.03,-33.958999999999996,-6.143800000000001,127.2672,175,75
2026-05-09 14:57:49.677,5,-0.31,-0.11,1.04,-35.599,-3.1138,144.47719999999998,175,75
2026-05-09 14:57:49.678,5,-0.3,-0.12,1.05,-35.989,1.4562,144.1372,175,75
2026-05-09 14:57:49.678,5,-0.32,-0.13,1.07,-36.489,4.0562000000000005,144.2172,175,75
2026-05-09 14:57:49.678,5,-0.35,-0.13,1.08,-36.398999999999994,2.8562,144.9672,175,75
2026-05-09 14:57:49.678,5,-0.38,-0.13,1.08,-35.739,-1.8237999999999999,144.3972,175,75
2026-05-09 14:57:49.678,5,-0.41,-0.14,1.07,-33.509,-9.0138,142.9572,175,75
2026-05-09 14:57:49.678,5,-0.43,-0.13,1.06,-30.369,-16.4438,140.4972,175,75
2026-05-09 14:57:49.932,5,-0.42,-0.12,1.05,-27.369,-23.503800000000002,138.2672,175,75
2026-05-09 14:57:49.932,5,-0.4,-0.09,1.03,-25.009,-29.663800000000002,138.6772,175,75
2026-05-09 14:57:49.932,5,-0.22,-0.06,0.98,-21.799,-27.8038,163.22719999999998,175,75
2026-05-09 14:57:49.932,5,-0.22,-0.08,0.97,-23.769000000000002,-19.8138,174.5172,175,75
2026-05-09 14:57:49.932,5,-0.22,-0.1,0.95,-26.189,-9.4738,185.7972,175,75
2026-05-09 14:57:49.933,5,-0.24,-0.14,0.96,-28.949,2.0362,195.3872,175,75
2026-05-09 14:57:49.933,5,-0.28,-0.18,0.96,-31.349,12.636199999999999,201.1272,175,75
2026-05-09 14:57:49.933,5,-0.35,-0.21,0.98,-32.708999999999996,20.0162,201.5772,175,75
2026-05-09 14:57:49.933,5,-0.42,-0.23,1.0,-33.248999999999995,23.2262,197.8272,175,75
2026-05-09 14:57:49.933,5,-0.49,-0.25,1.02,-33.699,23.176199999999998,191.3772,175,75
2026-05-09 14:57:49.933,5,-0.51,-0.25,1.05,-35.259,20.9162,184.0272,175,75
2026-05-09 14:57:49.933,5,-0.54,-0.25,1.07,-38.019,17.8262,178.4872,175,75
2026-05-09 14:57:49.933,5,-0.56,-0.28,1.07,-39.629,13.0062,176.4972,175,75
2026-05-09 14:57:49.933,5,-0.57,-0.3,1.08,-39.568999999999996,6.856199999999999,176.2372,175,75
2026-05-09 14:57:49.934,5,-0.59,-0.32,1.07,-39.129,-0.6938,176.9072,175,75
2026-05-09 14:57:49.934,5,-0.52,-0.2,0.87,-32.519,-35.2438,187.6672,175,75
2026-05-09 14:57:49.934,5,-0.44,-0.33,0.84,-31.119,-31.663800000000002,189.3072,175,75
2026-05-09 14:57:49.934,5,-0.41,-0.29,0.97,-29.429000000000002,-33.1738,179.9572,175,75
2026-05-09 14:57:49.934,5,-0.3,-0.23,1.15,-25.699,-47.4338,159.6872,175,75
2026-05-09 14:57:49.934,5,0.15,-0.13,1.72,-23.309,-116.7238,154.8572,175,75
2026-05-09 14:57:49.950,5,0.49,-0.44,1.39,-38.248999999999995,-43.4738,224.8672,175,75
2026-05-09 14:57:50.044,5,0.25,-0.61,1.17,-25.879,9.4962,249.7172,175,75
2026-05-09 14:57:50.044,5,-0.17,-0.6,1.06,-10.159,40.016200000000005,237.9272,175,75
2026-05-09 14:57:50.044,5,-0.42,-0.54,1.05,-0.9890000000000001,50.5662,182.1272,175,75
2026-05-09 14:57:50.044,5,-0.43,-0.48,1.12,-1.229,57.93620000000001,103.24719999999999,175,75
2026-05-09 14:57:50.044,5,-0.36,-0.43,1.2,0.07099999999999995,69.5962,14.9272,175,75
2026-05-09 14:57:50.044,5,-0.22,-0.01,1.46,4.590999999999999,55.9562,-121.2428,175,75
2026-05-09 14:57:50.045,5,-0.0,0.26,1.53,1.641,2.6162,-120.14280000000001,175,75
2026-05-09 14:57:50.413,5,0.1,0.36,1.51,3.241,-62.693799999999996,-66.28280000000001,175,75
2026-05-09 14:57:50.413,5,0.14,0.47,1.41,-8.149000000000001,-105.8538,-5.682799999999999,175,75
2026-05-09 14:57:50.413,5,0.52,-0.05,0.8,-12.849,-108.1138,148.03719999999998,175,75
2026-05-09 14:57:50.413,5,0.66,-0.06,0.63,5.731,-74.4038,231.7972,175,75
2026-05-09 14:57:50.413,5,0.25,-0.08,0.92,-11.999,-66.2538,249.7172,175,75
2026-05-09 14:57:50.413,5,0.21,-0.32,0.93,-33.019,-72.2038,249.7172,175,75
2026-05-09 14:57:50.414,5,0.13,-0.55,0.84,-37.259,-57.1738,227.56719999999999,175,75
2026-05-09 14:57:50.414,5,0.0,-0.67,0.76,-31.149,-32.983799999999995,154.0572,175,75
2026-05-09 14:57:50.414,5,-0.14,-0.66,0.71,-21.079,-5.6638,73.3772,175,75
2026-05-09 14:57:50.414,5,-0.25,-0.56,0.7,-17.489,13.4062,3.9272,175,75
2026-05-09 14:57:50.414,5,-0.21,-0.47,0.69,-19.649,27.0962,-59.172799999999995,175,75
2026-05-09 14:57:50.414,5,-0.09,-0.41,0.7,-24.449,31.8762,-100.0228,175,75
2026-05-09 14:57:50.414,5,0.33,-0.24,0.73,-16.729,6.5962,-125.7128,175,75
2026-05-09 14:57:50.414,5,0.43,-0.18,0.74,-6.769,3.0162,-108.5428,175,75
2026-05-09 14:57:50.414,5,0.42,-0.13,0.76,1.951,8.5762,-85.14280000000001,175,75
2026-05-09 14:57:50.414,5,0.34,-0.09,0.81,6.881,20.5362,-60.0828,175,75
2026-05-09 14:57:50.414,5,0.25,-0.07,0.85,6.170999999999999,33.2862,-37.3428,175,75
2026-05-09 14:57:50.414,5,0.17,-0.06,0.91,2.161,40.0762,-13.972800000000001,175,75
2026-05-09 14:57:50.414,5,0.04,-0.09,1.06,-5.279,24.7262,24.3372,175,75
2026-05-09 14:57:50.415,5,0.01,-0.13,1.12,-4.209,7.536199999999999,35.617200000000004,175,75
2026-05-09 14:57:50.415,5,-0.02,-0.14,1.13,-3.639,-6.6538,37.9972,175,75
2026-05-09 14:57:50.415,5,-0.05,-0.17,1.12,-4.149000000000001,-15.8838,33.5272,175,75
2026-05-09 14:57:50.415,5,-0.02,-0.22,1.09,-4.808999999999999,-18.7938,26.2872,175,75
2026-05-09 14:57:50.415,5,0.06,-0.29,1.1,-3.7289999999999996,-13.9338,20.0472,175,75
2026-05-09 14:57:50.415,5,0.14,-0.34,1.14,-0.40900000000000003,-2.7638,13.937199999999999,175,75
2026-05-09 14:57:50.415,5,0.17,-0.34,1.25,6.680999999999999,25.6262,-8.4328,175,75
2026-05-09 14:57:50.415,5,0.12,-0.29,1.31,5.211,40.9562,-25.3228,175,75
2026-05-09 14:57:50.415,5,0.07,-0.27,1.36,0.631,54.5062,-41.5928,175,75
2026-05-09 14:57:50.415,5,0.04,-0.27,1.41,-3.3190000000000004,65.4362,-54.6228,175,75
2026-05-09 14:57:50.415,5,0.02,-0.27,1.45,-4.349,71.33619999999999,-61.0928,175,75
2026-05-09 14:57:50.415,5,0.02,-0.26,1.49,-3.2790000000000004,73.72619999999999,-60.642799999999994,175,75
2026-05-09 14:57:50.780,5,-0.03,-0.23,1.52,-2.539,74.3862,-54.352799999999995,175,75
2026-05-09 14:57:50.780,5,-0.35,-0.3,1.39,0.471,5.9862,-3.2028,175,75
2026-05-09 14:57:50.780,5,-0.33,-0.31,1.34,2.731,-7.5638000000000005,-11.222800000000001,175,75
2026-05-09 14:57:50.780,5,-0.28,-0.3,1.27,4.601,-19.1038,-20.3028,175,75
2026-05-09 14:57:50.780,5,-0.15,-0.26,1.13,8.131,-32.5938,-41.6228,175,75
2026-05-09 14:57:50.780,5,0.01,-0.2,1.01,12.881,-34.943799999999996,-49.3028,175,75
2026-05-09 14:57:50.780,5,0.08,-0.16,0.95,14.231,-31.6938,-48.282799999999995,175,75
2026-05-09 14:57:50.781,5,0.16,-0.08,0.69,7.051,5.3162,-30.9128,175,75
2026-05-09 14:57:50.781,5,0.15,-0.1,0.66,5.941000000000001,14.0162,-24.7228,175,75
2026-05-09 14:57:50.781,5,0.13,-0.16,0.64,7.170999999999999,19.1662,-11.312800000000001,175,75
2026-05-09 14:57:50.781,5,0.08,-0.2,0.65,10.301,16.0062,-8.542800000000002,175,75
2026-05-09 14:57:50.781,5,0.04,-0.23,0.65,14.141,10.636199999999999,-10.8428,175,75
2026-05-09 14:57:50.781,5,0.01,-0.25,0.67,17.891,4.366199999999999,-18.262800000000002,175,75
2026-05-09 14:57:50.781,5,0.0,-0.25,0.67,20.681,-0.8537999999999999,-31.8728,175,75
2026-05-09 14:57:50.782,5,0.03,-0.21,0.68,22.381,-8.1738,-74.9428,175,75
2026-05-09 14:57:50.782,5,0.06,-0.19,0.68,22.751,-8.7438,-97.4328,175,75
2026-05-09 14:57:50.782,5,0.31,-0.07,0.83,32.501000000000005,-9.1838,-144.8728,175,75
2026-05-09 14:57:50.984,5,0.19,0.05,0.95,34.431000000000004,9.876199999999999,-170.1528,175,75
2026-05-09 14:57:50.984,5,0.16,0.1,1.25,21.491,59.0262,-211.0828,175,75
2026-05-09 14:57:50.984,5,0.35,0.15,1.55,11.421,87.7662,-204.1628,175,75
2026-05-09 14:57:50.985,5,0.56,0.25,2.0,-22.689,146.4762,-116.45280000000001,175,75
2026-05-09 14:57:50.985,5,0.28,0.12,2.0,-29.919,178.7962,-71.11280000000001,175,75
2026-05-09 14:57:50.985,5,-0.18,-0.1,1.79,-17.149,191.14620000000002,-29.602800000000002,175,75
2026-05-09 14:57:50.985,5,-0.99,-0.31,1.54,17.621,117.0762,24.237199999999998,175,75
2026-05-09 14:57:50.985,5,-1.22,-0.38,1.52,25.921,43.2162,29.827199999999998,175,75
2026-05-09 14:57:50.985,5,-1.19,-0.48,1.53,32.811,-28.6538,20.3472,175,75
2026-05-09 14:57:50.985,5,-1.03,-0.54,1.54,38.141000000000005,-84.6238,1.8372,175,75
2026-05-09 14:57:50.985,5,-0.83,-0.57,1.42,41.271,-121.5638,-25.4028,175,75
2026-05-09 14:57:50.985,5,-0.67,-0.57,1.26,43.101000000000006,-144.4638,-53.922799999999995,175,75
2026-05-09 14:57:50.985,5,-0.45,-0.5,1.09,45.901,-155.4838,-80.45280000000001,175,75
2026-05-09 14:57:50.985,5,-0.28,-0.43,0.92,49.761,-154.04379999999998,-101.56280000000001,175,75
2026-05-09 14:57:50.986,5,-0.12,-0.33,0.8,51.451,-142.10379999999998,-118.7228,175,75
2026-05-09 14:57:50.986,5,-0.01,-0.2,0.71,48.211000000000006,-120.2138,-134.49280000000002,175,75
2026-05-09 14:57:50.986,5,0.06,-0.07,0.63,37.331,-88.99380000000001,-154.6928,175,75
2026-05-09 14:57:50.986,5,0.09,0.01,0.54,25.101,-57.7238,-174.0428,175,75
2026-05-09 14:57:50.986,5,0.1,0.07,0.41,8.860999999999999,3.0262000000000002,-207.24280000000002,175,75
2026-05-09 14:57:50.986,5,0.09,0.1,0.41,8.231,28.9762,-217.5028,175,75
2026-05-09 14:57:51.011,5,0.04,0.12,0.49,10.721,49.7162,-220.9728,175,75
2026-05-09 14:57:51.011,5,-0.01,0.14,0.63,10.561,60.1062,-213.3328,175,75
2026-05-09 14:57:51.082,5,-0.04,0.07,0.78,8.521,60.586200000000005,-190.6128,175,75
2026-05-09 14:57:51.082,5,-0.1,0.15,1.01,-5.079000000000001,57.43620000000001,-132.3628,175,75
2026-05-09 14:57:51.082,5,-0.12,0.08,1.04,-10.179,59.086200000000005,-94.7428,175,75
2026-05-09 14:57:51.125,5,-0.2,-0.1,1.07,-8.219000000000001,67.50619999999999,-16.1228,175,75
2026-05-09 14:57:51.125,5,-0.29,-0.17,1.13,-3.129,67.5662,13.7472,175,75
2026-05-09 14:57:51.185,5,-0.5,-0.29,1.28,4.7509999999999994,49.8562,5.277200000000001,175,75
2026-05-09 14:57:51.185,5,-0.58,-0.37,1.27,9.171,37.836200000000005,-27.012800000000002,175,75
2026-05-09 14:57:51.185,5,-0.65,-0.41,1.21,15.360999999999999,27.0762,-69.61280000000001,175,75
2026-05-09 14:57:51.185,5,-0.7,-0.36,1.12,21.980999999999998,14.6562,-110.4328,175,75
2026-05-09 14:57:51.185,5,-0.7,-0.33,1.02,30.941,0.5662,-144.3728,175,75
2026-05-09 14:57:51.185,5,-0.62,-0.21,0.99,36.841,-11.123800000000001,-172.2628,175,75
2026-05-09 14:57:51.186,5,-0.36,0.02,1.01,35.17100000000001,-29.8638,-187.1728,175,75
2026-05-09 14:57:51.426,5,-0.06,0.06,1.02,-0.889,24.9462,-62.382799999999996,175,75
2026-05-09 14:57:51.426,5,-0.12,0.02,1.04,-4.9190000000000005,37.2462,-43.0128,175,75
2026-05-09 14:57:51.426,5,-0.21,-0.03,1.06,-6.728999999999999,43.1462,-31.262800000000002,175,75
2026-05-09 14:57:51.426,5,-0.41,-0.16,1.06,-5.079000000000001,39.5062,-42.892799999999994,175,75
2026-05-09 14:57:51.426,5,-0.46,-0.19,1.03,-1.549,34.7162,-60.962799999999994,175,75
2026-05-09 14:57:51.426,5,-0.45,-0.04,1.05,10.641,9.1662,-122.4428,175,75
2026-05-09 14:57:51.426,5,-0.41,0.0,1.05,9.891,0.9462000000000002,-122.50280000000001,175,75
2026-05-09 14:57:51.426,5,-0.36,0.06,1.04,9.161,-5.463799999999999,-114.5828,175,75
2026-05-09 14:57:51.455,5,-0.33,0.08,1.03,7.731,-9.953800000000001,-101.6828,175,75
2026-05-09 14:57:51.455,5,-0.27,0.08,0.96,5.821,-12.293800000000001,-69.5228,175,75
2026-05-09 14:57:51.460,5,-0.25,0.08,0.94,4.371,-11.1738,-55.6628,175,75
2026-05-09 14:57:51.481,5,-0.22,0.07,0.95,2.3609999999999998,-8.0438,-45.822799999999994,175,75
2026-05-09 14:57:51.481,5,-0.21,0.05,0.95,0.08099999999999996,2.1862,-39.922799999999995,175,75
2026-05-09 14:57:51.481,5,-0.21,0.04,0.95,-0.5090000000000001,8.0762,-42.462799999999994,175,75
2026-05-09 14:57:51.481,5,-0.22,0.04,0.96,-1.169,15.0162,-46.532799999999995,175,75
2026-05-09 14:57:51.672,5,-0.24,0.05,0.98,-1.4489999999999998,22.0562,-49.8028,175,75
2026-05-09 14:57:51.672,5,-0.25,0.05,0.99,-1.959,28.4362,-50.992799999999995,175,75
2026-05-09 14:57:51.672,5,-0.28,0.06,1.02,-1.8290000000000002,32.9262,-47.6928,175,75
2026-05-09 14:57:51.672,5,-0.28,0.06,1.03,-1.339,34.876200000000004,-40.4128,175,75
2026-05-09 14:57:51.672,5,-0.31,0.06,1.05,-0.19900000000000007,34.8162,-31.1428,175,75
2026-05-09 14:57:51.672,5,-0.34,0.06,1.06,0.821,33.476200000000006,-22.4328,175,75
2026-05-09 14:57:51.672,5,-0.38,0.05,1.06,1.381,30.7562,-14.6828,175,75
2026-05-09 14:57:51.672,5,-0.43,0.02,1.03,1.701,28.176199999999998,-10.5028,175,75
2026-05-09 14:57:51.672,5,-0.46,-0.01,1.01,2.901,25.3862,-9.722800000000001,175,75
2026-05-09 14:57:51.673,5,-0.47,-0.02,0.99,4.181,21.1462,-8.152800000000001,175,75
2026-05-09 14:57:51.673,5,-0.49,-0.02,0.94,8.011,4.6462,-6.4128,175,75
2026-05-09 14:57:51.673,5,-0.48,-0.01,0.91,9.190999999999999,-4.6638,-9.5028,175,75
2026-05-09 14:57:51.673,5,-0.42,0.01,0.9,10.801,-12.453800000000001,-13.0128,175,75
2026-05-09 14:57:51.673,5,-0.23,0.05,0.99,10.100999999999999,-20.5138,-9.8628,175,75
2026-05-09 14:57:51.673,5,-0.05,0.04,1.12,9.221,-27.0338,6.8072,175,75
2026-05-09 14:57:51.673,5,-0.0,0.02,1.32,8.511,-34.953799999999994,43.257200000000005,175,75
2026-05-09 14:57:51.673,5,0.34,-0.05,1.5,7.781000000000001,-38.553799999999995,87.3172,175,75
2026-05-09 14:57:51.673,5,0.33,-0.23,1.47,10.881,-25.573800000000002,120.7372,175,75
2026-05-09 14:57:51.726,5,-0.39,-0.35,1.04,19.611,87.1062,-127.4728,175,75
2026-05-09 14:57:51.915,5,-0.21,0.13,1.54,13.421,74.6462,-146.74280000000002,175,75
2026-05-09 14:57:51.915,5,-0.23,0.25,1.46,-20.249,35.8262,-81.06280000000001,175,75
2026-05-09 14:57:51.915,5,-0.33,0.1,1.3,-15.439,19.6062,-32.132799999999996,175,75
2026-05-09 14:57:51.915,5,0.39,-0.24,0.69,-6.699,-110.19380000000001,21.667199999999998,175,75
2026-05-09 14:57:51.915,5,0.48,-0.19,0.62,-7.369,-68.2938,-12.732800000000001,175,75
2026-05-09 14:57:51.916,5,0.29,-0.19,0.87,-29.639,77.5462,-24.1528,175,75
2026-05-09 14:57:51.916,5,0.25,-0.2,0.98,-24.699,86.91619999999999,-4.6228,175,75
2026-05-09 14:57:51.916,5,0.17,-0.2,1.09,-19.509,98.1362,6.1672,175,75
2026-05-09 14:57:51.967,5,0.07,-0.19,1.18,-16.079,111.2162,6.8272,175,75
2026-05-09 14:57:51.967,5,-0.09,-0.16,1.24,-15.739,120.5762,-1.2828,175,75
2026-05-09 14:57:51.967,5,-0.27,-0.14,1.27,-18.829,120.25619999999999,-12.622800000000002,175,75
2026-05-09 14:57:52.002,5,-0.55,-0.16,1.29,-22.639,45.226200000000006,-11.6828,175,75
2026-05-09 14:57:52.002,5,-0.61,-0.18,1.27,-20.659,11.4162,0.42719999999999997,175,75
2026-05-09 14:57:52.060,5,-0.53,-0.22,1.23,-20.129,-44.553799999999995,17.1972,175,75
2026-05-09 14:57:52.060,5,-0.26,-0.26,1.13,-25.609,-66.8638,13.3172,175,75
2026-05-09 14:57:52.060,5,-0.01,-0.32,1.05,-26.499,-53.273799999999994,8.877199999999998,175,75
2026-05-09 14:57:52.070,5,0.13,-0.32,1.05,-24.769000000000002,-14.283800000000001,1.8772,175,75
2026-05-09 14:57:52.074,5,0.15,-0.33,1.04,-22.819,9.9862,-6.2828,175,75
2026-05-09 14:57:52.104,5,0.1,-0.31,1.05,-20.669,35.5662,-15.7728,175,75
2026-05-09 14:57:52.105,5,-0.11,-0.24,1.05,-21.719,71.1462,-34.742799999999995,175,75
2026-05-09 14:57:52.114,5,-0.19,-0.21,1.07,-23.929000000000002,77.30619999999999,-39.2628,175,75
2026-05-09 14:57:52.119,5,-0.27,-0.2,1.1,-25.159,74.8462,-37.102799999999995,175,75
2026-05-09 14:57:52.250,5,-0.33,-0.2,1.13,-26.719,64.47619999999999,-27.7828,175,75
2026-05-09 14:57:52.250,5,-0.39,-0.2,1.14,-28.419,48.086200000000005,-15.3328,175,75
2026-05-09 14:57:52.250,5,-0.49,-0.26,1.11,-28.589000000000002,12.6162,1.7072,175,75
2026-05-09 14:57:52.250,5,-0.49,-0.31,1.07,-25.049,-5.3637999999999995,4.9872000000000005,175,75
2026-05-09 14:57:52.250,5,-0.39,-0.35,1.03,-13.579,-33.273799999999994,0.11720000000000003,175,75
2026-05-09 14:57:52.251,5,-0.24,-0.29,1.01,-5.829000000000001,-45.8338,-11.7528,175,75
2026-05-09 14:57:52.251,5,-0.08,-0.27,0.96,-3.5690000000000004,-36.6738,-21.9728,175,75
2026-05-09 14:57:52.259,5,0.01,-0.25,0.94,-4.759,-10.453800000000001,-22.6428,175,75
2026-05-09 14:57:52.275,5,0.01,-0.23,0.96,-6.619,1.9662000000000002,-17.2028,175,75
2026-05-09 14:57:52.276,5,-0.03,-0.23,0.97,-11.069,11.3662,-10.392800000000001,175,75
2026-05-09 14:57:52.394,5,-0.27,-0.31,1.02,-16.049,27.5762,-5.3928,175,75
2026-05-09 14:57:52.394,5,-0.32,-0.32,1.02,-13.729000000000001,23.2762,-12.792800000000002,175,75
2026-05-09 14:57:52.394,5,-0.33,-0.25,0.95,-7.809000000000001,5.626200000000001,-22.352800000000002,175,75
2026-05-09 14:57:52.394,5,-0.32,-0.22,0.94,-8.889000000000001,-1.5638,-13.7428,175,75
2026-05-09 14:57:52.394,5,-0.28,-0.22,0.95,-12.699,-12.7738,9.437199999999999,175,75
2026-05-09 14:57:52.666,5,-0.27,-0.24,0.97,-13.479000000000001,-14.6938,17.1872,175,75
2026-05-09 14:57:52.666,5,-0.32,-0.25,0.82,-5.589,-35.733799999999995,1.2271999999999998,175,75
2026-05-09 14:57:52.666,5,-0.29,-0.24,0.76,-0.929,-41.6438,-8.632800000000001,175,75
2026-05-09 14:57:52.666,5,-0.27,-0.24,0.69,3.701,-50.0038,-12.1628,175,75
2026-05-09 14:57:52.666,5,-0.22,-0.25,0.64,6.801,-61.983799999999995,-7.5628,175,75
2026-05-09 14:57:52.666,5,-0.15,-0.26,0.63,7.850999999999999,-72.83380000000001,4.317200000000001,175,75
2026-05-09 14:57:52.666,5,-0.04,-0.27,0.66,5.721,-74.9238,16.8172,175,75
2026-05-09 14:57:52.666,5,0.06,-0.31,0.7,7.291,-61.2938,21.7772,175,75
2026-05-09 14:57:52.667,5,0.16,-0.33,0.88,18.171,-12.9138,9.027199999999999,175,75
2026-05-09 14:57:52.667,5,0.13,-0.32,0.96,20.011,13.7562,-7.6328,175,75
2026-05-09 14:57:52.667,5,0.09,-0.32,1.02,19.671,39.5762,-23.9828,175,75
2026-05-09 14:57:52.667,5,-0.03,-0.37,1.12,20.561,79.11619999999999,-28.1128,175,75
2026-05-09 14:57:52.667,5,-0.62,-0.26,1.17,23.511,99.7362,-16.4628,175,75
2026-05-09 14:57:52.667,5,-0.76,-0.2,1.12,24.070999999999998,81.0262,-32.712799999999994,175,75
2026-05-09 14:57:52.667,5,-0.77,-0.11,1.13,21.820999999999998,55.5362,-43.462799999999994,175,75
2026-05-09 14:57:52.667,5,-0.74,-0.04,1.13,18.361,25.2362,-45.382799999999996,175,75
2026-05-09 14:57:52.667,5,-0.67,-0.04,1.12,15.251,-4.8637999999999995,-38.2628,175,75
2026-05-09 14:57:52.667,5,-0.6,0.04,1.16,10.391,-32.4538,-24.1628,175,75
2026-05-09 14:57:52.993,5,-0.5,0.02,1.16,5.411,-53.983799999999995,-2.0328,175,75
2026-05-09 14:57:52.993,5,-0.42,-0.05,1.16,1.201,-69.05380000000001,22.5872,175,75
2026-05-09 14:57:52.993,5,-0.34,-0.15,1.13,-0.26900000000000013,-79.5338,43.717200000000005,175,75
2026-05-09 14:57:52.993,5,-0.28,-0.24,1.12,-0.349,-84.91380000000001,57.2372,175,75
2026-05-09 14:57:52.993,5,-0.2,-0.3,1.11,-1.509,-83.5338,61.0572,175,75
2026-05-09 14:57:52.993,5,-0.19,-0.08,1.21,-3.129,-75.3138,59.6372,175,75
2026-05-09 14:57:52.993,5,-0.29,-0.05,1.1,3.171,3.8661999999999996,-26.0228,175,75
2026-05-09 14:57:52.993,5,-0.3,0.01,1.09,-10.209,-11.2338,11.197199999999999,175,75
2026-05-09 14:57:52.993,5,-0.31,-0.05,1.07,-13.879000000000001,-15.7738,31.7672,175,75
2026-05-09 14:57:52.993,5,-0.34,-0.12,1.05,-16.929000000000002,-19.7738,42.397200000000005,175,75
2026-05-09 14:57:52.993,5,-0.33,-0.17,1.05,-18.389,-22.8738,43.2072,175,75
2026-05-09 14:57:52.993,5,-0.33,-0.24,1.03,-17.399,-26.4438,40.437200000000004,175,75
2026-05-09 14:57:52.993,5,-0.32,-0.28,1.01,-14.279,-29.1038,33.007200000000005,175,75
2026-05-09 14:57:52.993,5,-0.32,-0.29,0.98,-10.419,-32.2738,24.5072,175,75
2026-05-09 14:57:52.993,5,-0.3,-0.28,0.95,-7.389000000000001,-34.6038,17.0872,175,75
2026-05-09 14:57:52.994,5,-0.25,-0.25,0.89,-1.859,-35.4638,8.3272,175,75
2026-05-09 14:57:52.994,5,-0.23,-0.24,0.88,-0.4590000000000001,-32.8238,8.197199999999999,175,75
2026-05-09 14:57:52.994,5,-0.19,-0.22,0.87,1.6509999999999998,-24.823800000000002,15.1572,175,75
2026-05-09 14:57:52.994,5,-0.18,-0.21,0.86,2.2409999999999997,-19.9438,19.577199999999998,175,75
2026-05-09 14:57:52.994,5,-0.18,-0.21,0.86,2.851,-14.9838,22.147199999999998,175,75
2026-05-09 14:57:52.994,5,-0.2,-0.21,0.86,4.401,-5.0138,21.6072,175,75
2026-05-09 14:57:52.995,5,-0.23,-0.21,0.88,5.561,2.5362,18.5272,175,75
2026-05-09 14:57:53.056,5,-0.24,-0.22,0.88,5.981,6.0161999999999995,19.897199999999998,175,75
2026-05-09 14:57:53.056,5,-0.25,-0.23,0.89,6.691000000000001,8.5362,24.2172,175,75
2026-05-09 14:57:53.056,5,-0.28,-0.25,0.91,6.4510000000000005,9.5162,29.1172,175,75
2026-05-09 14:57:53.056,5,-0.29,-0.26,0.94,7.071,9.796199999999999,32.507200000000005,175,75
2026-05-09 14:57:53.056,5,-0.31,-0.27,0.95,8.591,10.9162,31.2972,175,75
2026-05-09 14:57:53.056,5,-0.42,-0.23,0.94,17.980999999999998,3.7062000000000004,6.8972,175,75
2026-05-09 14:57:53.056,5,-0.42,-0.2,0.93,21.441,-3.8438,0.4372,175,75
2026-05-09 14:57:53.075,5,-0.42,-0.18,0.92,24.301,-14.5038,-1.5228000000000002,175,75
2026-05-09 14:57:53.093,5,-0.35,-0.15,0.88,27.691,-37.1738,7.527200000000001,175,75
2026-05-09 14:57:53.493,5,-0.26,-0.16,0.83,33.811,-48.7938,23.397199999999998,175,75
2026-05-09 14:57:53.493,5,-0.2,-0.16,0.85,36.331,-46.3638,28.0672,175,75
2026-05-09 14:57:53.493,5,-0.14,-0.15,0.88,37.631,-37.81379999999999,28.3172,175,75
2026-05-09 14:57:53.493,5,-0.12,-0.15,0.92,37.121,-25.323800000000002,25.5472,175,75
2026-05-09 14:57:53.493,5,-0.13,-0.13,0.95,33.901,-11.4938,21.5972,175,75
2026-05-09 14:57:53.493,5,-0.25,-0.14,1.04,21.801,22.2062,16.7172,175,75
2026-05-09 14:57:53.493,5,-0.31,-0.15,1.07,18.361,28.4062,18.5972,175,75
2026-05-09 14:57:53.493,5,-0.36,-0.15,1.13,14.520999999999999,30.6962,20.1072,175,75
2026-05-09 14:57:53.493,5,-0.42,-0.16,1.17,10.091,29.7962,20.3772,175,75
2026-05-09 14:57:53.493,5,-0.49,-0.17,1.21,5.420999999999999,24.5462,19.3772,175,75
2026-05-09 14:57:53.493,5,-0.53,-0.2,1.23,1.271,18.3862,15.987199999999998,175,75
2026-05-09 14:57:53.494,5,-0.56,-0.24,1.22,-2.699,11.0162,12.9272,175,75
2026-05-09 14:57:53.494,5,-0.57,-0.28,1.2,-3.829,5.4062,9.5072,175,75
2026-05-09 14:57:53.494,5,-0.58,-0.32,1.17,-0.919,1.5062000000000002,4.6872,175,75
2026-05-09 14:57:53.494,5,-0.59,-0.32,1.15,3.051,-0.7537999999999999,-3.5928,175,75
2026-05-09 14:57:53.494,5,-0.5,-0.15,1.44,4.340999999999999,-24.5338,-65.6528,175,75
2026-05-09 14:57:53.494,5,-0.25,0.11,1.62,-9.699,-39.373799999999996,-81.9428,175,75
2026-05-09 14:57:53.494,5,-0.06,0.22,1.54,-11.499,-40.3338,-67.4328,175,75
2026-05-09 14:57:53.494,5,0.08,0.25,1.47,-11.539,-27.8838,-30.9028,175,75
2026-05-09 14:57:53.494,5,0.08,0.22,1.38,-12.919,-10.5238,17.8372,175,75
2026-05-09 14:57:53.494,5,-0.03,0.14,1.29,-12.349,2.9362,56.0272,175,75
2026-05-09 14:57:53.494,5,-0.12,0.04,1.25,-8.659,8.6762,76.85719999999999,175,75
2026-05-09 14:57:53.494,5,-0.16,-0.02,1.33,-8.439,13.5662,82.46719999999999,175,75
2026-05-09 14:57:53.494,5,-0.16,-0.14,1.39,-11.119,17.8262,82.4772,175,75
2026-05-09 14:57:53.494,5,-0.19,-0.26,1.39,-11.879000000000001,19.7262,80.0572,175,75
2026-05-09 14:57:54.088,5,-0.26,-0.37,1.32,-10.289,17.676199999999998,77.88719999999999,175,75
2026-05-09 14:57:54.088,5,-0.33,-0.45,1.22,-3.959,10.1762,76.60719999999999,175,75
2026-05-09 14:57:54.088,5,-0.36,-0.53,1.02,12.511,-20.4338,82.8072,175,75
2026-05-09 14:57:54.088,5,-0.32,-0.5,0.97,18.291,-37.4738,79.24719999999999,175,75
2026-05-09 14:57:54.088,5,-0.26,-0.51,0.91,23.191,-54.7838,72.4472,175,75
2026-05-09 14:57:54.088,5,0.64,0.21,0.76,18.751,37.8862,-30.922800000000002,175,75
2026-05-09 14:57:54.088,5,0.52,0.21,0.88,9.921,64.0762,-11.1628,175,75
2026-05-09 14:57:54.088,5,0.38,0.09,0.98,3.681,82.4962,9.777199999999999,175,75
2026-05-09 14:57:54.088,5,0.3,0.14,1.07,-5.149000000000001,91.0262,33.5272,175,75
2026-05-09 14:57:54.089,5,0.24,0.06,1.12,-10.769,92.6462,63.4772,175,75
2026-05-09 14:57:54.089,5,0.16,-0.04,1.13,-12.239,92.72619999999999,91.24719999999999,175,75
2026-05-09 14:57:54.089,5,0.03,-0.14,1.15,-10.709,89.0762,110.2072,175,75
2026-05-09 14:57:54.089,5,-0.12,-0.23,1.16,-7.379000000000001,80.83619999999999,114.9572,175,75
2026-05-09 14:57:54.089,5,-0.24,-0.29,1.17,-2.059,68.11619999999999,105.60719999999999,175,75
2026-05-09 14:57:54.089,5,-0.33,-0.35,1.19,3.371,52.766200000000005,83.1672,175,75
2026-05-09 14:57:54.089,5,-0.39,-0.36,1.19,8.961,36.446200000000005,51.897200000000005,175,75
2026-05-09 14:57:54.089,5,-0.29,-0.22,1.18,21.431,2.6862,2.2672000000000003,175,75
2026-05-09 14:57:54.089,5,-0.19,-0.12,1.18,23.211,-9.4338,-9.042800000000002,175,75
2026-05-09 14:57:54.089,5,-0.11,-0.02,1.18,21.941,-15.7638,-11.7828,175,75
2026-05-09 14:57:54.090,5,-0.03,0.04,1.18,18.091,-16.8938,-8.0228,175,75
2026-05-09 14:57:54.090,5,0.07,0.13,1.16,7.211,-5.283799999999999,10.6372,175,75
2026-05-09 14:57:54.090,5,0.07,0.13,1.14,2.621,6.4361999999999995,23.2772,175,75
2026-05-09 14:57:54.090,5,0.04,0.12,1.12,-0.08900000000000008,18.7762,35.5672,175,75
2026-05-09 14:57:54.090,5,0.0,0.1,1.11,-1.149,29.496199999999998,46.607200000000006,175,75
2026-05-09 14:57:54.090,5,-0.06,0.08,1.12,-1.709,36.486200000000004,56.3472,175,75
2026-05-09 14:57:54.090,5,-0.13,0.05,1.14,-2.679,40.2462,63.0272,175,75
2026-05-09 14:57:54.090,5,-0.2,0.02,1.13,-2.959,40.8262,65.5072,175,75
2026-05-09 14:57:54.090,5,-0.28,-0.01,1.13,-1.729,38.6662,63.907199999999996,175,75
2026-05-09 14:57:54.090,5,-0.33,-0.02,1.14,0.14100000000000001,33.5062,59.5672,175,75
2026-05-09 14:57:54.090,5,-0.38,-0.02,1.15,1.561,25.1262,55.5672,175,75
2026-05-09 14:57:54.091,5,-0.24,-0.04,0.96,5.111000000000001,-70.99380000000001,54.537200000000006,175,75
2026-05-09 14:57:54.091,5,-0.17,-0.04,0.92,5.430999999999999,-74.33380000000001,48.7672,175,75
2026-05-09 14:57:54.091,5,-0.1,0.01,0.84,0.7709999999999999,-71.99380000000001,28.8372,175,75
2026-05-09 14:57:54.091,5,-0.06,0.02,0.8,-2.849,-66.5038,19.2472,175,75
2026-05-09 14:57:54.091,5,-0.0,0.03,0.76,-5.859,-57.233799999999995,11.1472,175,75
2026-05-09 14:57:54.091,5,0.04,0.04,0.74,-7.739000000000001,-45.4338,5.7972,175,75
2026-05-09 14:57:54.091,5,0.02,0.08,0.71,-26.599,14.376199999999999,16.147199999999998,175,75
2026-05-09 14:57:54.091,5,-0.01,0.06,0.73,-29.379,27.336199999999998,23.397199999999998,175,75
2026-05-09 14:57:54.091,5,-0.05,0.05,0.74,-30.519000000000002,38.376200000000004,29.8872,175,75
2026-05-09 14:57:54.091,5,-0.11,0.06,0.77,-31.129,46.616200000000006,34.6672,175,75
2026-05-09 14:57:54.091,5,-0.22,0.06,0.85,-35.349,54.2462,39.9572,175,75
2026-05-09 14:57:54.092,5,-0.33,0.03,0.9,-39.068999999999996,50.7562,42.537200000000006,175,75
2026-05-09 14:57:54.092,5,-0.35,0.01,0.95,-39.729,45.046200000000006,46.327200000000005,175,75
2026-05-09 14:57:54.092,5,-0.36,-0.03,1.02,-41.979,38.656200000000005,52.9872,175,75
2026-05-09 14:57:54.140,5,-0.38,-0.07,1.09,-43.638999999999996,30.8862,61.5172,175,75
2026-05-09 14:57:54.140,5,-0.4,-0.13,1.13,-44.358999999999995,23.9862,69.5572,175,75
2026-05-09 14:57:54.140,5,-0.42,-0.19,1.16,-42.809,20.9062,74.8372,175,75
2026-05-09 14:57:54.140,5,-0.45,-0.26,1.16,-39.989,20.5462,79.43719999999999,175,75
2026-05-09 14:57:54.140,5,-0.49,-0.29,1.18,-37.259,23.676199999999998,81.6772,175,75
2026-05-09 14:57:54.234,5,-0.65,-0.31,1.15,-34.989,28.996199999999998,77.5072,175,75
2026-05-09 14:57:54.234,5,-0.71,-0.31,1.1,-32.869,25.1662,73.13719999999999,175,75
2026-05-09 14:57:54.234,5,-0.76,-0.27,1.06,-30.119,18.1662,69.8772,175,75
2026-05-09 14:57:54.234,5,-0.77,-0.21,1.12,-27.089000000000002,5.1562,68.1472,175,75
2026-05-09 14:57:54.234,5,-0.72,-0.09,1.38,-24.099,-24.0338,67.82719999999999,175,75
2026-05-09 14:57:54.238,5,-0.52,0.02,1.77,-28.379,-57.9938,71.71719999999999,175,75
2026-05-09 14:57:54.419,5,-0.41,-0.02,1.85,-28.759,-74.3238,75.46719999999999,175,75
2026-05-09 14:57:54.419,5,-0.4,-0.09,1.71,-22.629,-71.05380000000001,78.1172,175,75
2026-05-09 14:57:54.419,5,-0.34,-0.12,1.75,-24.109,-72.2938,99.2772,175,75
2026-05-09 14:57:54.419,5,-0.2,-0.21,1.91,-34.119,-87.2138,135.3372,175,75
2026-05-09 14:57:54.420,5,-0.06,-0.38,2.0,-39.589,-101.8538,170.1872,175,75
2026-05-09 14:57:54.420,5,0.0,-0.5,1.9,-35.318999999999996,-108.63380000000001,203.8672,175,75
2026-05-09 14:57:54.420,5,-0.2,-0.89,1.57,-21.509,-113.9838,224.7772,175,75
2026-05-09 14:57:54.420,5,-0.66,-0.83,1.05,13.131,-146.4538,139.8972,175,75
2026-05-09 14:57:54.420,5,-0.57,-0.74,0.88,20.561,-145.2438,46.0972,175,75
2026-05-09 14:57:54.420,5,-0.39,-0.62,0.79,21.361,-116.8938,-49.462799999999994,175,75
2026-05-09 14:57:54.420,5,-0.24,-0.47,0.7,20.511,-71.4338,-145.2528,175,75
2026-05-09 14:57:54.420,5,-0.12,-0.28,0.62,23.261,-17.5938,-241.7928,175,75
2026-05-09 14:57:54.420,5,-0.06,-0.05,0.6,27.281,28.2062,-250.5528,175,75
2026-05-09 14:57:54.420,5,0.02,0.27,0.69,29.631,49.7862,-250.5528,175,75
2026-05-09 14:57:54.420,5,0.77,0.71,1.0,47.051,-73.9538,-250.5528,175,75
2026-05-09 14:57:54.421,5,0.57,1.2,1.1,43.001000000000005,-107.9338,-233.99280000000002,175,75
2026-05-09 14:57:54.421,5,0.43,1.02,0.9,16.791,-112.44380000000001,-199.7628,175,75
2026-05-09 14:57:54.421,5,0.45,0.73,0.69,-6.319000000000001,-101.05380000000001,-145.2328,175,75
2026-05-09 14:57:54.421,5,0.49,0.46,0.56,-17.079,-73.6238,-63.1628,175,75
2026-05-09 14:57:54.460,5,0.64,0.32,0.53,-21.269000000000002,-30.8138,23.1372,175,75
2026-05-09 14:57:54.549,5,0.68,0.23,0.67,-20.879,51.9162,210.4572,175,75
2026-05-09 14:57:54.550,5,0.75,0.25,0.8,-23.949,85.5362,249.7172,175,75
2026-05-09 14:57:54.550,5,0.83,0.24,0.91,-27.349,119.72619999999999,249.7172,175,75
2026-05-09 14:57:54.550,5,0.25,0.16,1.16,-31.119,108.0362,249.7172,175,75
2026-05-09 14:57:54.550,5,-0.17,-0.66,1.21,-48.659,52.2762,164.3372,175,75
2026-05-09 14:57:54.550,5,-0.48,-0.62,0.99,-40.038999999999994,70.5162,72.7372,175,75
2026-05-09 14:57:54.550,5,-0.66,-0.59,0.85,-31.629,79.91619999999999,-8.1028,175,75
2026-05-09 14:57:54.550,5,-0.68,-0.54,0.83,-19.939,87.08619999999999,-80.4628,175,75
2026-05-09 14:57:54.822,5,-0.57,-0.46,0.96,-9.829,90.5362,-143.2928,175,75
2026-05-09 14:57:54.822,5,-0.43,-0.3,1.16,-5.609,86.0162,-194.0628,175,75
2026-05-09 14:57:54.822,5,0.22,0.16,1.45,-18.259,-20.3038,-146.0128,175,75
2026-05-09 14:57:54.822,5,0.19,0.25,1.34,-17.129,-35.0338,-83.20280000000001,175,75
2026-05-09 14:57:54.822,5,0.13,0.25,1.19,-21.019000000000002,-27.823800000000002,-27.852800000000002,175,75
2026-05-09 14:57:54.822,5,0.15,0.15,1.04,-22.659,-11.0138,25.077199999999998,175,75
2026-05-09 14:57:54.822,5,0.11,0.1,0.95,-20.839000000000002,19.5562,119.9872,175,75
2026-05-09 14:57:54.822,5,0.07,0.1,1.01,-26.769000000000002,23.9362,151.9972,175,75
2026-05-09 14:57:54.822,5,-0.15,0.05,1.1,-37.538999999999994,13.3162,169.5772,175,75
2026-05-09 14:57:54.823,5,-0.06,-0.05,1.1,-48.148999999999994,1.9162,161.9472,175,75
2026-05-09 14:57:54.823,5,-0.28,-0.33,0.88,-20.549,10.6062,20.4572,175,75
2026-05-09 14:57:54.823,5,-0.19,-0.28,0.9,-16.089000000000002,-2.5538,-7.0127999999999995,175,75
2026-05-09 14:57:54.823,5,-0.11,-0.24,0.89,-9.769,-12.3338,-10.1728,175,75
2026-05-09 14:57:54.823,5,0.01,-0.15,0.86,0.871,-27.4438,11.437199999999999,175,75
2026-05-09 14:57:54.823,5,0.03,-0.14,0.83,5.350999999999999,-28.0938,28.4572,175,75
2026-05-09 14:57:54.823,5,0.04,-0.13,0.8,8.461,-24.3638,44.9172,175,75
2026-05-09 14:57:54.823,5,0.04,-0.13,0.78,11.171,-17.503800000000002,58.467200000000005,175,75
2026-05-09 14:57:55.024,5,0.0,-0.15,0.77,13.631,-10.4738,66.3372,175,75
2026-05-09 14:57:55.024,5,-0.03,-0.17,0.77,16.131,-2.9438,67.9172,175,75
2026-05-09 14:57:55.024,5,-0.07,-0.19,0.77,18.651,2.9862,63.6972,175,75
2026-05-09 14:57:55.024,5,-0.11,-0.2,0.79,21.991,8.3162,56.9172,175,75
2026-05-09 14:57:55.024,5,-0.14,-0.21,0.81,25.061,11.5962,51.857200000000006,175,75
2026-05-09 14:57:55.024,5,-0.16,-0.21,0.84,27.591,12.876199999999999,50.8072,175,75
2026-05-09 14:57:55.024,5,-0.19,-0.21,0.91,30.721,10.9262,57.9072,175,75
2026-05-09 14:57:55.025,5,-0.23,-0.24,0.98,30.241,7.786199999999999,65.5372,175,75
2026-05-09 14:57:55.025,5,-0.24,-0.26,1.04,29.591,7.366199999999999,63.3172,175,75
2026-05-09 14:57:55.025,5,-0.27,-0.27,1.08,29.730999999999998,8.1462,54.677200000000006,175,75
2026-05-09 14:57:55.025,5,-0.29,-0.28,1.12,30.351,10.4362,39.0272,175,75
2026-05-09 14:57:55.025,5,-0.32,-0.26,1.16,30.230999999999998,15.1662,19.5072,175,75
2026-05-09 14:57:55.025,5,-0.36,-0.21,1.17,28.171,22.1462,-2.3628,175,75
2026-05-09 14:57:55.025,5,-0.42,-0.17,1.16,23.171,28.7562,-22.8928,175,75
2026-05-09 14:57:55.025,5,-0.48,-0.09,1.13,4.781000000000001,32.2062,-57.992799999999995,175,75
2026-05-09 14:57:55.025,5,-0.41,-0.04,1.13,-7.829000000000001,24.836199999999998,-70.3028,175,75
2026-05-09 14:57:55.025,5,-0.35,-0.05,1.13,-11.899000000000001,27.4062,-64.1228,175,75
2026-05-09 14:57:55.025,5,-0.28,-0.08,1.16,-15.929000000000002,35.056200000000004,-49.532799999999995,175,75
2026-05-09 14:57:55.149,5,-0.39,-0.2,1.55,-28.959,58.586200000000005,14.6572,175,75
2026-05-09 14:57:55.149,5,-0.49,-0.22,1.61,-27.939,56.016200000000005,1.2271999999999998,175,75
2026-05-09 14:57:55.196,5,-0.54,-0.17,1.71,-28.399,49.0762,-15.802800000000001,175,75
2026-05-09 14:57:55.196,5,-0.54,-0.06,1.85,-33.608999999999995,38.7462,-31.8028,175,75
2026-05-09 14:57:55.196,5,-0.51,0.09,1.86,-33.898999999999994,7.8962,-36.462799999999994,175,75
2026-05-09 14:57:55.329,5,0.43,-0.47,0.39,50.611000000000004,-175.1738,125.74719999999999,175,75
2026-05-09 14:57:55.329,5,0.56,-0.39,0.28,62.011,-150.3438,120.99719999999999,175,75
2026-05-09 14:57:55.426,5,0.32,-0.1,0.92,5.411,181.2962,-161.1928,175,75
2026-05-09 14:57:55.426,5,0.43,-0.01,1.17,-0.43900000000000006,201.0162,-178.7928,175,75
2026-05-09 14:57:55.426,5,0.39,0.28,1.5,-28.279,166.1562,-56.0928,175,75
2026-05-09 14:57:55.438,5,-0.28,0.02,1.16,-40.82899999999999,163.2862,83.43719999999999,175,75
2026-05-09 14:57:55.438,5,-0.55,-0.04,1.11,-33.398999999999994,133.7562,132.56719999999999,175,75
2026-05-09 14:57:55.438,5,-0.75,-0.15,1.18,-26.769000000000002,92.7662,156.9872,175,75
2026-05-09 14:57:55.448,5,-0.77,-0.32,1.33,-13.149000000000001,-6.0638000000000005,132.5572,175,75
2026-05-09 14:57:55.504,5,-0.64,-0.42,1.27,-2.969,-42.1738,98.0672,175,75
2026-05-09 14:57:55.504,5,-0.51,-0.4,1.2,6.981,-60.8238,60.927200000000006,175,75
2026-05-09 14:57:55.504,5,-0.36,-0.33,1.1,15.301,-66.0438,28.2472,175,75
2026-05-09 14:57:55.504,5,-0.2,-0.23,1.04,21.041,-65.4238,10.5072,175,75
2026-05-09 14:57:55.504,5,-0.09,-0.11,1.03,24.021,-61.3538,6.9572,175,75
2026-05-09 14:57:55.504,5,0.01,-0.0,1.01,22.471,-54.523799999999994,12.347199999999999,175,75
2026-05-09 14:57:55.542,5,0.06,0.03,1.0,19.991,-44.163799999999995,22.6372,175,75
2026-05-09 14:57:55.542,5,0.1,0.13,0.97,9.341,-15.6938,46.577200000000005,175,75
2026-05-09 14:57:55.542,5,0.07,0.11,0.94,3.811,0.5462,58.1972,175,75
2026-05-09 14:57:55.557,5,0.01,0.11,0.94,-1.0090000000000001,14.626199999999999,67.9272,175,75
2026-05-09 14:57:55.557,5,-0.05,0.1,0.95,-6.369,24.5162,74.1472,175,75
2026-05-09 14:57:55.601,5,-0.19,0.04,0.98,-14.819,28.1462,79.3072,175,75
2026-05-09 14:57:55.601,5,-0.3,-0.04,1.01,-19.119,15.706199999999999,72.74719999999999,175,75
2026-05-09 14:57:55.606,5,-0.33,-0.07,1.03,-20.089000000000002,6.1762,66.96719999999999,175,75
2026-05-09 14:57:55.726,5,-0.35,-0.1,1.01,-21.109,-3.2738,61.437200000000004,175,75
2026-05-09 14:57:55.726,5,-0.35,-0.12,1.0,-20.979,-12.3038,56.297200000000004,175,75
2026-05-09 14:57:55.726,5,-0.3,-0.12,0.98,-19.409,-24.7838,43.9872,175,75
2026-05-09 14:57:55.726,5,-0.26,-0.1,0.97,-19.159,-27.8338,37.117200000000004,175,75
2026-05-09 14:57:55.726,5,-0.23,-0.07,0.96,-19.959,-28.6938,32.0572,175,75
2026-05-09 14:57:55.726,5,-0.21,-0.03,0.96,-21.319,-27.413800000000002,27.9572,175,75
