Time,ID,Ax,Ay,Az,Gx,Gy,Gz,Height,Weight
2026-05-09 14:54:17.629,5,-0.24,-0.21,1.02,-8.7328,-41.327999999999996,-33.2168,175,75
2026-05-09 14:54:17.629,5,0.06,0.26,0.94,17.1372,-70.388,-93.4268,175,75
2026-05-09 14:54:17.629,5,0.16,0.35,0.97,16.4772,-70.44800000000001,-89.2868,175,75
2026-05-09 14:54:17.629,5,0.24,0.44,0.98,11.5972,-63.878,-81.2268,175,75
2026-05-09 14:54:17.629,5,0.33,0.45,1.0,5.4772,-50.348,-67.15679999999999,175,75
2026-05-09 14:54:17.629,5,0.38,0.33,0.94,-6.2528,28.921999999999997,-4.8368,175,75
2026-05-09 14:54:17.629,5,0.02,0.29,0.97,-8.5528,91.002,72.9032,175,75
2026-05-09 14:54:17.629,5,-0.19,0.19,1.18,-14.5328,67.982,85.1832,175,75
2026-05-09 14:54:17.629,5,-0.0,0.2,1.08,-12.932799999999999,-51.708,20.1032,175,75
2026-05-09 14:54:17.629,5,0.11,0.15,1.08,-18.4728,-40.378,34.773199999999996,175,75
2026-05-09 14:54:17.629,5,0.11,0.12,1.09,-21.2128,-29.758000000000003,37.603199999999994,175,75
2026-05-09 14:54:17.629,5,0.11,0.09,1.12,-24.1828,-20.878,35.7932,175,75
2026-05-09 14:54:17.629,5,0.1,0.05,1.16,-27.8228,-13.388,29.8732,175,75
2026-05-09 14:54:17.630,5,0.06,0.0,1.18,-31.572800000000004,-4.788,18.2132,175,75
2026-05-09 14:54:17.630,5,-0.2,-0.08,1.06,-29.7528,21.072,-29.296799999999998,175,75
2026-05-09 14:54:17.950,5,-0.27,-0.06,1.01,-26.1228,14.242,-35.896800000000006,175,75
2026-05-09 14:54:17.950,5,-0.42,0.4,0.89,-19.5628,-47.748,-95.8068,175,75
2026-05-09 14:54:17.950,5,-0.3,0.56,0.94,-10.322799999999999,-78.39800000000001,-105.5968,175,75
2026-05-09 14:54:17.950,5,0.49,0.62,1.1,-9.332799999999999,-178.788,35.7932,175,75
2026-05-09 14:54:17.951,5,0.85,-0.04,0.8,3.0572,-144.24800000000002,210.1332,175,75
2026-05-09 14:54:17.951,5,1.01,0.02,1.05,8.2172,-49.928,248.82319999999999,175,75
2026-05-09 14:54:17.951,5,0.16,0.71,1.38,5.1372,39.252,-116.15679999999999,175,75
2026-05-09 14:54:17.951,5,-0.09,1.01,1.6,-10.082799999999999,-24.038,-72.15679999999999,175,75
2026-05-09 14:54:17.951,5,0.08,0.16,1.0,-1.6928,-2.928,214.6932,175,75
2026-05-09 14:54:17.979,5,-0.12,-0.02,1.17,-13.3628,3.1820000000000004,248.82319999999999,175,75
2026-05-09 14:54:18.041,5,-0.21,-0.23,0.94,21.4272,0.5719999999999998,-48.2868,175,75
2026-05-09 14:54:18.041,5,0.33,0.04,1.15,10.7872,-10.868,-51.726800000000004,175,75
2026-05-09 14:54:18.334,5,-0.02,-0.03,1.12,-1.7928000000000002,-24.478,73.28320000000001,175,75
2026-05-09 14:54:18.334,5,0.06,-0.02,1.07,8.497200000000001,-31.328000000000003,56.663199999999996,175,75
2026-05-09 14:54:18.334,5,0.09,-0.01,1.06,11.227200000000002,-27.018,54.0732,175,75
2026-05-09 14:54:18.334,5,0.1,0.0,1.03,12.5272,-22.318,55.453199999999995,175,75
2026-05-09 14:54:18.334,5,0.11,0.04,1.01,10.577200000000001,-17.918000000000003,67.8332,175,75
2026-05-09 14:54:18.362,5,0.16,0.04,1.05,6.1472,-9.388,77.5832,175,75
2026-05-09 14:54:18.454,5,0.15,0.04,1.05,6.4572,-1.1780000000000002,76.6032,175,75
2026-05-09 14:54:18.454,5,0.1,0.02,1.06,7.5572,8.612,77.2532,175,75
2026-05-09 14:54:18.454,5,0.08,0.02,1.09,8.3472,7.792,80.2632,175,75
2026-05-09 14:54:18.454,5,0.06,0.02,1.1,7.3972,5.172,83.87320000000001,175,75
2026-05-09 14:54:18.454,5,0.03,-0.05,1.14,4.7871999999999995,-0.3780000000000001,91.6532,175,75
2026-05-09 14:54:18.454,5,0.01,-0.09,1.14,7.6171999999999995,-5.558,91.2532,175,75
2026-05-09 14:54:18.454,5,-0.01,-0.11,1.12,8.6272,-19.488000000000003,86.6832,175,75
2026-05-09 14:54:18.454,5,0.03,-0.11,1.11,10.817200000000001,-22.028000000000002,80.92320000000001,175,75
2026-05-09 14:54:18.617,5,0.09,-0.06,1.1,13.2972,-20.498,73.06320000000001,175,75
2026-05-09 14:54:18.618,5,0.14,-0.04,1.08,13.1372,-15.578,77.7732,175,75
2026-05-09 14:54:18.618,5,0.13,-0.05,1.07,13.6072,-13.677999999999999,81.78320000000001,175,75
2026-05-09 14:54:18.618,5,0.12,-0.06,1.06,10.8472,-7.148,85.28320000000001,175,75
2026-05-09 14:54:18.618,5,0.1,-0.06,1.06,9.077200000000001,-3.548,85.8632,175,75
2026-05-09 14:54:18.631,5,0.12,-0.12,1.07,5.1972,-8.718,61.1832,175,75
2026-05-09 14:54:18.807,5,0.1,-0.02,1.05,9.6072,-5.548,61.453199999999995,175,75
2026-05-09 14:54:18.807,5,0.1,0.0,1.06,10.987200000000001,-9.228,65.37320000000001,175,75
2026-05-09 14:54:18.807,5,0.11,0.01,1.08,10.3072,-12.638,68.8232,175,75
2026-05-09 14:54:18.807,5,0.12,0.02,1.06,9.327200000000001,-14.328,71.1632,175,75
2026-05-09 14:54:18.807,5,0.12,0.0,1.06,7.6372,-14.177999999999999,74.28320000000001,175,75
2026-05-09 14:54:18.807,5,0.12,-0.01,1.06,6.4772,-14.468,74.8232,175,75
2026-05-09 14:54:18.807,5,0.13,-0.04,1.06,5.4472,-15.338,75.5832,175,75
2026-05-09 14:54:18.852,5,0.13,-0.11,1.05,4.3172,-14.958,75.2132,175,75
2026-05-09 14:54:18.852,5,0.14,-0.12,1.04,4.8872,-14.998,71.84320000000001,175,75
2026-05-09 14:54:18.852,5,0.15,-0.11,1.03,8.3872,-16.688000000000002,64.84320000000001,175,75
2026-05-09 14:54:18.852,5,0.15,-0.09,1.03,10.2072,-17.578,60.953199999999995,175,75
2026-05-09 14:54:18.852,5,0.15,-0.07,1.03,10.917200000000001,-18.808000000000003,56.9032,175,75
2026-05-09 14:54:18.852,5,0.18,-0.05,1.04,10.397200000000002,-18.168000000000003,54.1832,175,75
2026-05-09 14:54:18.911,5,0.19,-0.11,1.06,1.6872,-16.038,62.4032,175,75
2026-05-09 14:54:18.918,5,0.18,-0.12,1.05,1.6072,-14.258,57.2232,175,75
2026-05-09 14:54:18.964,5,0.17,-0.13,1.03,1.9072,-9.578000000000001,51.243199999999995,175,75
2026-05-09 14:54:18.964,5,0.15,-0.14,1.01,4.9472,-4.558,45.3232,175,75
2026-05-09 14:54:19.004,5,0.14,-0.09,1.03,5.3172,-11.198,31.253200000000003,175,75
2026-05-09 14:54:19.004,5,0.16,-0.07,1.03,6.3072,-12.208,23.9932,175,75
2026-05-09 14:54:19.004,5,0.19,-0.04,1.04,6.2871999999999995,-5.328,16.7732,175,75
2026-05-09 14:54:19.013,5,0.19,-0.04,1.05,4.1072,-0.9780000000000001,17.8032,175,75
2026-05-09 14:54:19.013,5,0.17,-0.04,1.04,2.7472,4.772,19.7732,175,75
2026-05-09 14:54:19.024,5,0.15,-0.06,1.04,2.5172,10.122,24.4432,175,75
2026-05-09 14:54:19.098,5,0.1,-0.07,1.03,3.5772,11.022,29.8432,175,75
2026-05-09 14:54:19.098,5,0.05,-0.07,1.02,4.2372000000000005,4.712,34.7132,175,75
2026-05-09 14:54:19.098,5,0.07,-0.04,1.0,7.4972,-16.168,28.313200000000002,175,75
2026-05-09 14:54:19.098,5,0.15,-0.01,1.0,9.7172,-21.148000000000003,20.453200000000002,175,75
2026-05-09 14:54:19.098,5,0.23,0.02,1.01,11.0272,-19.628,16.4432,175,75
2026-05-09 14:54:19.098,5,0.3,0.05,1.0,10.147200000000002,-11.478,29.8332,175,75
2026-05-09 14:54:19.098,5,0.3,0.04,1.0,8.5272,-7.878,40.8932,175,75
2026-05-09 14:54:19.098,5,0.27,0.01,1.0,6.0771999999999995,-3.208,46.843199999999996,175,75
2026-05-09 14:54:19.462,5,0.18,-0.08,1.05,4.3072,9.712,32.5432,175,75
2026-05-09 14:54:19.462,5,0.17,-0.07,1.07,4.1972000000000005,7.532,28.2732,175,75
2026-05-09 14:54:19.462,5,0.18,-0.07,1.07,3.4472,6.6419999999999995,26.7732,175,75
2026-05-09 14:54:19.463,5,0.19,-0.06,1.08,3.0072,7.302,27.8432,175,75
2026-05-09 14:54:19.463,5,0.17,-0.06,1.08,2.5772,7.702,30.743199999999998,175,75
2026-05-09 14:54:19.463,5,0.14,-0.08,1.11,4.0472,-4.978,38.5132,175,75
2026-05-09 14:54:19.463,5,0.13,-0.07,1.1,5.5472,-12.108,35.163199999999996,175,75
2026-05-09 14:54:19.463,5,0.25,-0.07,1.03,1.9872,-13.648,27.4832,175,75
2026-05-09 14:54:19.463,5,0.24,-0.08,1.02,1.2471999999999999,-10.588,27.3932,175,75
2026-05-09 14:54:19.463,5,0.24,-0.08,1.01,0.9372,-7.9479999999999995,26.0132,175,75
2026-05-09 14:54:19.463,5,0.24,-0.08,1.02,0.8572,-3.9080000000000004,23.3232,175,75
2026-05-09 14:54:19.463,5,0.22,-0.06,1.03,0.7472,-1.1980000000000002,20.9632,175,75
2026-05-09 14:54:19.833,5,0.34,-0.07,1.04,-10.8628,-29.408,19.6932,175,75
2026-05-09 14:54:19.833,5,0.21,-0.1,1.04,-4.2628,-22.478,-15.5168,175,75
2026-05-09 14:54:19.833,5,0.26,-0.06,1.03,-5.3828000000000005,-26.748,-15.7668,175,75
2026-05-09 14:54:19.833,5,0.32,-0.05,1.01,-6.2528,-29.278000000000002,-10.006799999999998,175,75
2026-05-09 14:54:19.833,5,0.36,-0.04,1.0,-7.1328000000000005,-29.508000000000003,-1.7067999999999999,175,75
2026-05-09 14:54:19.834,5,0.39,-0.04,1.01,-8.5528,-27.108,7.483199999999999,175,75
2026-05-09 14:54:19.834,5,0.38,-0.08,0.98,-9.432799999999999,-20.438000000000002,12.7532,175,75
2026-05-09 14:54:19.834,5,0.34,-0.12,0.98,-8.412799999999999,-14.948,13.7532,175,75
2026-05-09 14:54:19.834,5,0.3,-0.17,1.0,-5.9728,-17.398,4.9432,175,75
2026-05-09 14:54:19.834,5,0.31,-0.17,0.99,-4.0228,-19.558000000000003,-3.3068,175,75
2026-05-09 14:54:19.834,5,0.32,-0.15,0.98,-1.5328,-17.698,-11.7468,175,75
2026-05-09 14:54:19.834,5,0.34,-0.1,0.98,0.3972,-13.008,-20.8568,175,75
2026-05-09 14:54:19.834,5,0.35,-0.04,0.98,1.4072,-6.748,-28.846799999999998,175,75
2026-05-09 14:54:19.834,5,0.39,0.03,0.98,0.6872,3.732,-18.5668,175,75
2026-05-09 14:54:19.834,5,0.39,0.04,1.0,-1.1227999999999998,3.0620000000000003,-4.706799999999999,175,75
2026-05-09 14:54:19.834,5,0.37,-0.0,1.0,-2.2528,2.982,6.903200000000001,175,75
2026-05-09 14:54:19.834,5,0.31,-0.08,1.05,-0.8927999999999999,1.4119999999999997,13.9332,175,75
2026-05-09 14:54:19.834,5,0.31,-0.12,1.06,0.5272,0.10199999999999987,9.9332,175,75
2026-05-09 14:54:19.834,5,0.29,-0.14,1.05,2.8272,-0.6580000000000001,3.4832,175,75
2026-05-09 14:54:19.834,5,0.27,-0.13,1.04,5.1372,-1.528,-5.0268,175,75
2026-05-09 14:54:19.835,5,0.27,-0.11,1.02,7.1672,-2.378,-13.5168,175,75
2026-05-09 14:54:19.835,5,0.31,-0.07,1.01,8.1372,-3.178,-18.386799999999997,175,75
2026-05-09 14:54:19.835,5,0.32,-0.03,1.0,7.0872,-2.9480000000000004,-17.7368,175,75
2026-05-09 14:54:19.835,5,0.35,-0.01,0.99,4.8172,-2.5180000000000002,-14.116800000000001,175,75
2026-05-09 14:54:19.835,5,0.36,-0.0,0.98,2.4772,-0.00800000000000023,-8.4468,175,75
2026-05-09 14:54:19.912,5,0.28,-0.07,1.0,8.6872,6.802,-11.9068,175,75
2026-05-09 14:54:19.922,5,0.29,-0.04,1.01,10.5572,4.3020000000000005,-13.146799999999999,175,75
2026-05-09 14:54:19.933,5,0.31,0.0,1.03,10.9672,2.572,-15.0668,175,75
2026-05-09 14:54:19.933,5,0.33,0.04,1.03,9.7072,2.6719999999999997,-16.7568,175,75
2026-05-09 14:54:19.933,5,0.36,0.06,1.03,7.4272,3.6820000000000004,-14.386800000000001,175,75
2026-05-09 14:54:19.982,5,0.4,0.04,1.05,2.5772,8.682,-0.8968,175,75
2026-05-09 14:54:20.003,5,0.33,-0.1,1.08,1.8772000000000002,19.241999999999997,5.7432,175,75
2026-05-09 14:54:20.062,5,0.26,-0.06,1.11,4.8972,19.201999999999998,-17.596799999999998,175,75
2026-05-09 14:54:20.062,5,0.27,-0.03,1.11,4.7472,17.112,-20.2168,175,75
2026-05-09 14:54:20.062,5,0.29,0.0,1.13,4.6072,14.192,-19.7468,175,75
2026-05-09 14:54:20.071,5,0.35,0.06,1.19,4.6272,12.902,-14.546800000000001,175,75
2026-05-09 14:54:20.195,5,0.26,-0.06,1.11,-0.4728,16.572,3.7632000000000003,175,75
2026-05-09 14:54:20.195,5,0.27,-0.06,1.14,0.9072,13.162,2.9732000000000003,175,75
2026-05-09 14:54:20.345,5,0.31,-0.0,1.18,7.7172,5.032,-14.486799999999999,175,75
2026-05-09 14:54:20.345,5,0.31,0.03,1.19,9.0372,2.5920000000000005,-14.326799999999999,175,75
2026-05-09 14:54:20.345,5,0.31,0.05,1.18,8.6572,-0.7380000000000001,-12.1968,175,75
2026-05-09 14:54:20.345,5,0.31,0.05,1.14,8.2772,-1.2880000000000003,-10.146799999999999,175,75
2026-05-09 14:54:20.346,5,0.27,0.02,1.09,6.1171999999999995,3.1319999999999997,-3.0068,175,75
2026-05-09 14:54:20.346,5,0.25,0.01,1.08,4.8472,1.8619999999999999,1.3432,175,75
2026-05-09 14:54:20.346,5,0.29,-0.0,1.1,3.9772,-7.528,5.2532,175,75
2026-05-09 14:54:20.346,5,0.33,-0.01,1.1,4.0872,-10.028,7.083200000000001,175,75
2026-05-09 14:54:20.346,5,0.32,-0.03,1.08,4.7472,-10.108,6.3532,175,75
2026-05-09 14:54:20.346,5,0.36,-0.02,1.08,-1.8228,-2.298,0.9032,175,75
2026-05-09 14:54:20.346,5,0.35,-0.06,1.08,-8.5428,1.2619999999999998,-2.2368,175,75
2026-05-09 14:54:20.569,5,0.34,-0.08,1.07,-9.772799999999998,-0.19800000000000018,-5.6468,175,75
2026-05-09 14:54:20.569,5,0.34,-0.1,1.05,-10.7928,-1.0380000000000003,-9.386800000000001,175,75
2026-05-09 14:54:20.569,5,0.36,-0.12,1.01,-9.1228,4.882,-18.6568,175,75
2026-05-09 14:54:20.569,5,0.35,-0.08,0.98,-4.6628,16.662,-35.7768,175,75
2026-05-09 14:54:20.569,5,0.38,-0.02,1.02,-3.9928,26.151999999999997,-42.686800000000005,175,75
2026-05-09 14:54:20.569,5,0.36,0.1,1.21,-9.022799999999998,59.702000000000005,-29.8968,175,75
2026-05-09 14:54:20.569,5,0.11,0.05,1.28,-11.352799999999998,54.482,-5.9968,175,75
2026-05-09 14:54:20.569,5,0.05,0.03,1.3,-11.852799999999998,41.182,-1.3368,175,75
2026-05-09 14:54:20.569,5,0.01,0.02,1.31,-11.512799999999999,25.052,0.6132,175,75
2026-05-09 14:54:20.569,5,0.01,0.0,1.3,-10.7328,8.312,1.1132,175,75
2026-05-09 14:54:20.581,5,0.12,-0.01,1.22,-5.3428,-26.958000000000002,2.4432,175,75
2026-05-09 14:54:20.625,5,0.23,-0.01,1.17,-1.3428,-27.398000000000003,9.793199999999999,175,75
2026-05-09 14:54:20.625,5,0.27,-0.01,1.15,-0.17279999999999995,-20.978,12.543199999999999,175,75
2026-05-09 14:54:20.625,5,0.28,0.01,1.15,-0.3827999999999999,-11.238,11.613199999999999,175,75
2026-05-09 14:54:20.625,5,0.24,-0.01,1.16,-4.8628,13.852,12.243200000000002,175,75
2026-05-09 14:54:20.895,5,0.12,-0.04,1.16,-3.7328,11.002,12.693200000000001,175,75
2026-05-09 14:54:20.895,5,0.09,-0.05,1.14,-1.8128000000000002,6.282,12.2532,175,75
2026-05-09 14:54:20.895,5,0.08,-0.06,1.09,0.8371999999999999,-10.748,16.4432,175,75
2026-05-09 14:54:20.895,5,0.1,-0.07,1.07,2.3672,-19.598000000000003,18.453200000000002,175,75
2026-05-09 14:54:20.895,5,0.15,-0.06,1.04,4.2172,-25.048000000000002,19.5832,175,75
2026-05-09 14:54:20.895,5,0.25,-0.06,1.02,5.7272,-27.488000000000003,23.8532,175,75
2026-05-09 14:54:20.895,5,0.28,-0.07,1.01,5.6272,-24.258000000000003,26.293200000000002,175,75
2026-05-09 14:54:20.895,5,0.29,-0.08,1.0,4.7372000000000005,-19.468,27.8232,175,75
2026-05-09 14:54:20.895,5,0.28,-0.1,0.97,4.1772,-12.778,26.1932,175,75
2026-05-09 14:54:20.896,5,0.26,-0.11,0.94,4.6072,-4.448,19.5732,175,75
2026-05-09 14:54:20.896,5,0.25,-0.07,1.06,1.4272,18.511999999999997,-2.9568,175,75
2026-05-09 14:54:20.896,5,0.22,-0.08,1.06,0.8172,16.272,2.1832000000000003,175,75
2026-05-09 14:54:20.896,5,0.17,-0.09,1.06,1.0472000000000001,12.152,4.9732,175,75
2026-05-09 14:54:20.896,5,0.17,-0.1,1.05,4.6972000000000005,2.872,1.3232,175,75
2026-05-09 14:54:20.896,5,0.2,-0.1,1.05,5.7871999999999995,0.7619999999999998,-1.7768,175,75
2026-05-09 14:54:20.929,5,0.26,-0.04,1.05,6.8472,3.8920000000000003,-10.4768,175,75
2026-05-09 14:54:20.929,5,0.26,-0.03,1.04,6.2172,7.3919999999999995,-12.0868,175,75
2026-05-09 14:54:20.929,5,0.23,-0.05,1.06,2.8971999999999998,16.982,-2.8368,175,75
2026-05-09 14:54:21.010,5,0.21,-0.07,1.07,2.4972,17.151999999999997,-1.4868,175,75
2026-05-09 14:54:21.010,5,0.19,-0.08,1.08,3.5271999999999997,16.032,-2.8167999999999997,175,75
2026-05-09 14:54:21.010,5,0.18,-0.08,1.09,3.9172,14.982000000000001,-7.0668,175,75
2026-05-09 14:54:21.010,5,0.16,-0.07,1.08,3.7172,13.822000000000001,-15.386800000000001,175,75
2026-05-09 14:54:21.042,5,0.17,-0.04,1.09,3.4572,10.212,-20.9168,175,75
2026-05-09 14:54:21.042,5,0.19,-0.02,1.09,2.5272,10.352,-24.0168,175,75
2026-05-09 14:54:21.042,5,0.23,-0.01,1.09,-0.28280000000000005,16.322,-22.2168,175,75
2026-05-09 14:54:21.303,5,0.21,-0.01,1.09,-1.0528,19.631999999999998,-17.3268,175,75
2026-05-09 14:54:21.303,5,0.15,-0.02,1.1,-0.28280000000000005,18.412,-13.2868,175,75
2026-05-09 14:54:21.303,5,0.13,-0.02,1.1,-0.1028,15.382,-15.916799999999999,175,75
2026-05-09 14:54:21.303,5,0.14,-0.02,1.09,1.2471999999999999,7.802,-21.9868,175,75
2026-05-09 14:54:21.303,5,0.14,0.0,1.09,1.5572,7.162000000000001,-24.3368,175,75
2026-05-09 14:54:21.303,5,0.16,0.02,1.09,1.5472000000000001,7.572000000000001,-25.9968,175,75
2026-05-09 14:54:21.303,5,0.18,0.03,1.09,0.4072,8.812,-24.386799999999997,175,75
2026-05-09 14:54:21.304,5,0.18,0.03,1.09,-0.12280000000000002,10.072000000000001,-20.1568,175,75
2026-05-09 14:54:21.304,5,0.17,0.03,1.08,-0.7928000000000001,10.242,-16.1568,175,75
2026-05-09 14:54:21.304,5,0.13,0.0,1.05,-0.28280000000000005,7.932,-15.866800000000001,175,75
2026-05-09 14:54:21.304,5,0.14,0.01,1.06,0.3072,8.362,-17.526799999999998,175,75
2026-05-09 14:54:21.304,5,0.17,0.01,1.08,-1.1528,11.962,-14.986799999999999,175,75
2026-05-09 14:54:21.304,5,0.14,0.01,1.07,-1.2227999999999999,12.132,-13.006799999999998,175,75
2026-05-09 14:54:21.414,5,0.18,0.04,1.09,-3.7128000000000005,14.432,-17.2968,175,75
2026-05-09 14:54:21.414,5,0.16,0.03,1.09,-3.7328,16.541999999999998,-16.8068,175,75
2026-05-09 14:54:21.414,5,0.15,0.04,1.1,-3.4228000000000005,18.561999999999998,-17.9868,175,75
2026-05-09 14:54:21.414,5,0.08,0.03,1.1,-1.0428000000000002,9.992,-14.7168,175,75
2026-05-09 14:54:21.414,5,0.09,0.04,1.11,-1.6728,7.922000000000001,-15.2468,175,75
2026-05-09 14:54:21.430,5,0.11,0.02,1.1,-2.7728,3.1820000000000004,-4.8668,175,75
2026-05-09 14:54:21.430,5,0.11,0.01,1.09,-2.4728000000000003,3.542,-4.4068000000000005,175,75
2026-05-09 14:54:21.464,5,0.1,0.01,1.09,-2.0528,3.412,-5.4568,175,75
2026-05-09 14:54:21.464,5,0.1,0.01,1.08,-1.7228000000000003,3.412,-8.1268,175,75
2026-05-09 14:54:21.491,5,0.12,0.02,1.09,-2.6328,4.942,-10.386800000000001,175,75
2026-05-09 14:54:21.502,5,0.12,0.03,1.1,-3.0828,5.852,-9.236799999999999,175,75
2026-05-09 14:54:21.502,5,0.11,0.03,1.1,-2.7728,7.572000000000001,-9.0668,175,75
2026-05-09 14:54:21.523,5,0.1,0.03,1.09,-3.4228000000000005,10.002,-7.9468,175,75
2026-05-09 14:54:21.537,5,0.09,0.02,1.1,-3.6928,11.222,-5.3968,175,75
2026-05-09 14:54:21.549,5,0.09,0.02,1.11,-3.6828000000000003,11.282,-5.8267999999999995,175,75
2026-05-09 14:54:21.560,5,0.07,0.02,1.11,-3.7527999999999997,11.442,-8.0168,175,75
2026-05-09 14:54:21.570,5,0.06,0.02,1.11,-3.8928000000000003,11.442,-8.236799999999999,175,75
2026-05-09 14:54:21.581,5,0.06,0.01,1.1,-3.6728000000000005,10.082,-7.0968,175,75
2026-05-09 14:54:21.581,5,0.05,0.01,1.1,-3.5228,8.202,-5.6468,175,75
2026-05-09 14:54:21.592,5,0.05,0.01,1.1,-3.1528,5.272,-3.9668,175,75
2026-05-09 14:54:21.606,5,0.06,0.01,1.1,-2.9628,2.732,-2.6468,175,75
2026-05-09 14:54:21.615,5,0.08,-0.0,1.09,-2.2128,1.4119999999999997,-2.6768,175,75
2026-05-09 14:54:21.630,5,0.08,0.0,1.09,-2.3928000000000003,1.442,-2.8668,175,75
2026-05-09 14:54:21.648,5,0.08,0.0,1.08,-1.7428,2.482,-4.1168,175,75
2026-05-09 14:54:21.648,5,0.08,0.01,1.08,-1.8328000000000002,3.5120000000000005,-5.6868,175,75
2026-05-09 14:54:21.671,5,0.08,0.02,1.08,-2.5428,4.362,-6.1768,175,75
2026-05-09 14:54:21.685,5,0.1,0.03,1.09,-3.5427999999999997,5.082,-4.2668,175,75
2026-05-09 14:54:21.694,5,0.09,0.03,1.09,-4.1028,6.662000000000001,-3.1568,175,75
2026-05-09 14:54:21.706,5,0.09,0.02,1.09,-4.5128,8.412,-2.0368,175,75
2026-05-09 14:54:21.720,5,0.08,-0.0,1.09,-5.4728,9.602,1.2932000000000001,175,75
2026-05-09 14:54:21.732,5,0.07,-0.01,1.09,-5.5228,9.832,2.5832,175,75
2026-05-09 14:54:21.742,5,0.05,-0.02,1.1,-5.4028,10.192,2.4232,175,75
2026-05-09 14:54:21.759,5,0.04,-0.03,1.1,-5.1028,9.912,-0.3568,175,75
2026-05-09 14:54:21.778,5,0.04,-0.03,1.1,-4.6028,8.492,-1.8068,175,75
2026-05-09 14:54:21.779,5,0.05,-0.03,1.1,-4.1528,7.602,-2.0468,175,75
2026-05-09 14:54:21.789,5,0.04,-0.03,1.09,-3.2128,6.5120000000000005,-2.6268000000000002,175,75
2026-05-09 14:54:21.800,5,0.05,-0.02,1.08,-2.0628,5.162,-2.7068,175,75
2026-05-09 14:54:21.816,5,0.05,-0.0,1.09,-1.7328000000000001,3.4219999999999997,-2.6568,175,75
2026-05-09 14:54:21.823,5,0.07,0.02,1.08,-0.3827999999999999,1.232,-1.3068,175,75
2026-05-09 14:54:21.852,5,0.09,0.03,1.09,-0.05279999999999996,1.3419999999999999,0.6132,175,75
2026-05-09 14:54:21.882,5,0.1,0.02,1.08,-0.4628,2.7620000000000005,11.4832,175,75
2026-05-09 14:54:21.894,5,0.08,0.0,1.07,-0.3727999999999999,2.072,14.8032,175,75
2026-05-09 14:54:21.900,5,0.07,-0.01,1.07,-0.5428000000000001,1.8019999999999998,16.3532,175,75
2026-05-09 14:54:21.915,5,0.06,-0.03,1.06,-0.4928,1.632,15.673200000000001,175,75
2026-05-09 14:54:21.926,5,0.05,-0.04,1.05,-0.6127999999999999,2.252,12.743200000000002,175,75
2026-05-09 14:54:21.938,5,0.08,-0.01,1.07,-1.8628,6.312,5.5732,175,75
2026-05-09 14:54:21.949,5,0.1,-0.0,1.07,-2.5528,9.342,4.5732,175,75
2026-05-09 14:54:21.960,5,0.12,0.0,1.09,-3.8628,12.682,6.7732,175,75
2026-05-09 14:54:21.997,5,0.04,-0.05,1.09,-3.2527999999999997,18.682,18.1632,175,75
2026-05-09 14:54:22.001,5,0.01,-0.07,1.11,-2.7628,17.471999999999998,19.6632,175,75
2026-05-09 14:54:22.013,5,-0.01,-0.08,1.1,-1.8828,15.642000000000001,18.8732,175,75
2026-05-09 14:54:22.024,5,-0.04,-0.09,1.1,-0.5928000000000001,13.972,15.583200000000001,175,75
2026-05-09 14:54:22.035,5,-0.05,-0.08,1.1,0.4572,11.202,10.1432,175,75
2026-05-09 14:54:22.045,5,-0.05,-0.07,1.1,0.6072,7.662000000000001,4.8632,175,75
2026-05-09 14:54:22.057,5,-0.01,-0.04,1.12,-0.06279999999999997,3.7620000000000005,0.3832,175,75
2026-05-09 14:54:22.067,5,0.0,-0.01,1.12,-0.8627999999999999,2.3819999999999997,2.6432,175,75
2026-05-09 14:54:22.095,5,-0.01,-0.02,1.11,-1.4028,-1.108,6.9332,175,75
2026-05-09 14:54:22.106,5,-0.01,-0.02,1.11,-1.2428,-4.058,7.403200000000001,175,75
2026-05-09 14:54:22.106,5,0.0,-0.02,1.11,-1.0628000000000002,-6.368,6.4532,175,75
2026-05-09 14:54:22.122,5,0.02,-0.01,1.11,-1.3428,-5.978,4.5232,175,75
2026-05-09 14:54:22.151,5,0.02,-0.01,1.08,-2.4028,0.962,1.4232,175,75
2026-05-09 14:54:22.156,5,0.03,-0.02,1.1,-2.5028,1.1219999999999997,3.7332,175,75
2026-05-09 14:54:22.167,5,0.02,-0.02,1.11,-2.2928,1.0119999999999998,5.5832,175,75
2026-05-09 14:54:22.222,5,-0.02,-0.03,1.1,0.3272,-2.398,0.8832,175,75
2026-05-09 14:54:22.222,5,-0.02,-0.02,1.11,0.6172,-5.138,0.7132000000000001,175,75
2026-05-09 14:54:22.248,5,0.01,-0.0,1.11,0.5372,-8.978,-0.2467999999999999,175,75
2026-05-09 14:54:22.260,5,0.02,0.0,1.09,-0.26280000000000003,-8.618,-0.15680000000000005,175,75
2026-05-09 14:54:22.272,5,0.04,-0.0,1.08,-1.4028,-5.928,2.6032,175,75
2026-05-09 14:54:22.292,5,0.04,-0.01,1.08,-1.9528000000000003,-2.228,3.1332000000000004,175,75
2026-05-09 14:54:22.303,5,0.03,-0.03,1.08,-2.3428,-0.538,3.0831999999999997,175,75
2026-05-09 14:54:22.303,5,0.02,-0.04,1.08,-1.6728,0.482,3.0532000000000004,175,75
2026-05-09 14:54:22.321,5,0.01,-0.04,1.08,-0.8028000000000001,-0.3380000000000001,1.9232,175,75
2026-05-09 14:54:22.338,5,-0.0,-0.03,1.09,-0.0928,-2.178,-1.3168,175,75
2026-05-09 14:54:22.351,5,0.02,-0.0,1.09,-0.4628,-4.328,-8.5668,175,75
2026-05-09 14:54:22.402,5,0.05,0.01,1.09,-3.0128,2.122,0.7132000000000001,175,75
2026-05-09 14:54:22.414,5,0.04,0.01,1.1,-3.0928,2.532,2.0432,175,75
2026-05-09 14:54:22.424,5,0.02,-0.02,1.11,-2.4628,0.812,1.4731999999999998,175,75
2026-05-09 14:54:22.437,5,0.02,-0.02,1.11,-1.8628,-1.4480000000000002,0.6732,175,75
2026-05-09 14:54:22.437,5,0.01,-0.02,1.11,-1.1328,-3.8280000000000003,-0.5468,175,75
2026-05-09 14:54:22.463,5,0.03,-0.01,1.09,0.06720000000000004,-6.708,-3.4868,175,75
2026-05-09 14:54:22.518,5,0.07,-0.01,1.09,-0.8128000000000001,-3.9779999999999998,-2.5068,175,75
2026-05-09 14:54:22.518,5,0.08,-0.01,1.08,-0.7028,-1.6380000000000001,-0.9368,175,75
2026-05-09 14:54:22.558,5,0.05,-0.01,1.08,-0.44279999999999997,3.582,-1.0768,175,75
2026-05-09 14:54:22.570,5,0.04,-0.01,1.08,-0.2528,5.832,-2.2268,175,75
2026-05-09 14:54:22.586,5,0.03,0.0,1.1,0.007199999999999984,4.182,-1.1667999999999998,175,75
2026-05-09 14:54:22.591,5,0.02,0.01,1.11,-0.41279999999999994,1.9919999999999998,1.4332000000000003,175,75
2026-05-09 14:54:22.602,5,0.01,0.0,1.1,-0.7628,-0.07800000000000007,3.2232000000000003,175,75
2026-05-09 14:54:22.653,5,0.03,-0.01,1.1,-0.9828,-6.248,3.3632,175,75
2026-05-09 14:54:22.653,5,0.05,-0.01,1.09,-1.5528,-5.178,3.4432,175,75
2026-05-09 14:54:22.664,5,0.06,-0.01,1.09,-2.2128,-3.2380000000000004,3.8032000000000004,175,75
2026-05-09 14:54:22.677,5,0.06,-0.02,1.09,-2.3028,-0.9980000000000001,3.4132,175,75
2026-05-09 14:54:22.689,5,0.05,-0.01,1.08,-2.3628,0.7019999999999997,2.4232,175,75
2026-05-09 14:54:22.689,5,0.05,-0.02,1.09,-2.4328000000000003,1.922,1.9232,175,75
2026-05-09 14:54:22.689,5,0.04,-0.02,1.1,-1.9928,2.1319999999999997,2.1332,175,75
2026-05-09 14:54:22.698,5,0.03,-0.01,1.11,-1.9128000000000003,0.9319999999999997,2.1932,175,75
2026-05-09 14:54:22.709,5,0.02,-0.01,1.11,-2.3728000000000002,0.4319999999999997,2.0332,175,75
2026-05-09 14:54:22.717,5,0.03,-0.01,1.11,-2.7028000000000003,-0.6380000000000001,3.3232,175,75
2026-05-09 14:54:22.728,5,0.03,-0.02,1.11,-3.1928,-0.8180000000000002,5.3932,175,75
2026-05-09 14:54:22.728,5,0.03,-0.03,1.1,-3.0328,-1.9980000000000002,7.0032000000000005,175,75
2026-05-09 14:54:22.740,5,0.02,-0.04,1.09,-3.0828,-3.188,6.993200000000001,175,75
2026-05-09 14:54:22.740,5,0.01,-0.05,1.08,-2.1228000000000002,-3.388,4.9832,175,75
2026-05-09 14:54:22.752,5,0.01,-0.04,1.08,-1.1728,-4.458,1.8732000000000002,175,75
2026-05-09 14:54:22.763,5,0.04,-0.02,1.08,-0.6728,-4.368,-0.9667999999999999,175,75
2026-05-09 14:54:22.763,5,0.05,-0.01,1.08,-0.9228,-4.058,-1.0368,175,75
2026-05-09 14:54:22.772,5,0.06,0.0,1.08,-1.7128,-3.748,0.35319999999999996,175,75
2026-05-09 14:54:22.792,5,0.06,0.0,1.07,-2.5428,-3.3680000000000003,2.7632000000000003,175,75
2026-05-09 14:54:22.809,5,0.06,-0.02,1.08,-3.8327999999999998,-2.028,8.403200000000002,175,75
2026-05-09 14:54:22.821,5,0.05,-0.03,1.09,-4.4028,-1.818,10.153200000000002,175,75
2026-05-09 14:54:22.852,5,0.03,-0.05,1.08,-4.5228,-2.0380000000000003,10.203199999999999,175,75
2026-05-09 14:54:22.852,5,0.02,-0.06,1.08,-4.3728,-1.9680000000000002,7.813199999999999,175,75
2026-05-09 14:54:22.865,5,0.01,-0.06,1.07,-3.3728,-2.478,4.3232,175,75
2026-05-09 14:54:22.865,5,0.02,-0.06,1.07,-2.1228000000000002,-3.318,0.8532000000000002,175,75
2026-05-09 14:54:22.894,5,0.05,-0.02,1.09,-2.2828,-4.908,-1.1368,175,75
2026-05-09 14:54:22.904,5,0.07,-0.02,1.09,-2.7428,-4.688,0.6132,175,75
2026-05-09 14:54:22.904,5,0.06,-0.02,1.08,-3.1528,-4.598,3.3232,175,75
2026-05-09 14:54:22.914,5,0.06,-0.02,1.08,-3.2527999999999997,-5.248,4.9332,175,75
2026-05-09 14:54:22.916,5,0.05,-0.03,1.08,-3.1328,-5.6080000000000005,5.5232,175,75
2026-05-09 14:54:22.941,5,0.06,-0.05,1.09,-2.9328000000000003,-1.818,3.3432000000000004,175,75
2026-05-09 14:54:22.953,5,0.04,-0.06,1.08,-2.7928,-0.6980000000000002,3.4032,175,75
2026-05-09 14:54:22.953,5,0.03,-0.06,1.09,-2.7028000000000003,-1.3780000000000001,2.5332,175,75
2026-05-09 14:54:22.968,5,0.03,-0.05,1.09,-2.3828,-2.108,0.6132,175,75
2026-05-09 14:54:22.976,5,0.05,-0.04,1.1,-2.3528000000000002,-2.598,-1.0868,175,75
2026-05-09 14:54:22.984,5,0.07,-0.03,1.11,-2.4328000000000003,-1.838,-1.9668,175,75
2026-05-09 14:54:23.006,5,0.06,-0.03,1.11,-2.6828000000000003,-0.558,-1.3468,175,75
2026-05-09 14:54:23.006,5,0.05,-0.02,1.1,-3.2728,-0.29800000000000004,-0.3867999999999999,175,75
2026-05-09 14:54:23.034,5,0.05,-0.04,1.11,-3.2628000000000004,-3.188,3.8832000000000004,175,75
2026-05-09 14:54:23.047,5,0.04,-0.05,1.11,-3.5427999999999997,-4.328,2.8432000000000004,175,75
2026-05-09 14:54:23.080,5,0.06,-0.04,1.08,-1.9228,-6.328,0.7132000000000001,175,75
2026-05-09 14:54:23.093,5,0.07,-0.03,1.09,-1.4228,-6.4479999999999995,1.0532,175,75
2026-05-09 14:54:23.103,5,0.08,-0.02,1.09,-1.4528000000000003,-6.128,1.7732,175,75
2026-05-09 14:54:23.103,5,0.08,-0.02,1.08,-1.6028000000000002,-5.368,2.6432,175,75
2026-05-09 14:54:23.114,5,0.08,-0.02,1.09,-1.8628,-4.588,3.9732000000000003,175,75
2026-05-09 14:54:23.128,5,0.08,-0.02,1.09,-2.4228,-4.548,5.9232000000000005,175,75
2026-05-09 14:54:23.144,5,0.06,-0.04,1.09,-3.9228000000000005,-4.908,8.7132,175,75
2026-05-09 14:54:23.184,5,0.04,-0.05,1.08,-3.9128,-4.518,7.0531999999999995,175,75
2026-05-09 14:54:23.184,5,0.05,-0.04,1.09,-3.9928,-5.308,6.2532,175,75
2026-05-09 14:54:23.194,5,0.07,-0.03,1.1,-4.2828,-6.078,6.823200000000001,175,75
2026-05-09 14:54:23.194,5,0.08,-0.03,1.11,-4.7628,-6.6979999999999995,9.693200000000001,175,75
2026-05-09 14:54:23.218,5,0.09,-0.04,1.11,-5.4128,-6.898,13.903200000000002,175,75
2026-05-09 14:54:23.241,5,0.08,-0.05,1.11,-6.0128,-7.828,18.223200000000002,175,75
2026-05-09 14:54:23.274,5,0.04,-0.09,1.1,-5.9528,-10.677999999999999,20.3232,175,75
2026-05-09 14:54:23.284,5,0.04,-0.1,1.09,-4.9928,-12.338,18.1032,175,75
2026-05-09 14:54:23.284,5,0.05,-0.1,1.09,-3.9928,-13.427999999999999,14.903200000000002,175,75
2026-05-09 14:54:23.295,5,0.06,-0.1,1.08,-3.4928,-13.598,12.2332,175,75
2026-05-09 14:54:23.309,5,0.1,-0.07,1.09,-4.5728,-14.108,9.423200000000001,175,75
2026-05-09 14:54:23.309,5,0.11,-0.06,1.09,-5.4028,-12.427999999999999,8.423200000000001,175,75
2026-05-09 14:54:23.341,5,0.13,-0.05,1.09,-6.0428,-9.768,8.2832,175,75
2026-05-09 14:54:23.355,5,0.13,-0.06,1.09,-6.1228,-6.758,10.0932,175,75
2026-05-09 14:54:23.355,5,0.12,-0.06,1.1,-6.3928,-4.658,12.583200000000001,175,75
2026-05-09 14:54:23.362,5,0.1,-0.08,1.09,-6.4628000000000005,-3.178,13.853200000000001,175,75
2026-05-09 14:54:23.448,5,0.05,-0.12,1.1,-4.4828,-4.5680000000000005,10.8032,175,75
2026-05-09 14:54:23.448,5,0.05,-0.11,1.11,-3.8327999999999998,-7.018,7.8432,175,75
2026-05-09 14:54:23.453,5,0.06,-0.1,1.1,-3.3828000000000005,-8.818,5.2532,175,75
2026-05-09 14:54:23.453,5,0.08,-0.08,1.09,-2.9428,-9.958,3.7332,175,75
2026-05-09 14:54:23.472,5,0.1,-0.06,1.07,-2.5228,-10.398,3.1432,175,75
2026-05-09 14:54:23.553,5,0.11,-0.07,1.07,-3.9628000000000005,-6.9079999999999995,11.293199999999999,175,75
2026-05-09 14:54:23.568,5,0.1,-0.08,1.08,-4.4628000000000005,-6.588,13.013200000000001,175,75
2026-05-09 14:54:23.568,5,0.09,-0.1,1.08,-4.2528,-6.878,11.9132,175,75
2026-05-09 14:54:23.582,5,0.08,-0.11,1.08,-4.5628,-7.328,9.923200000000001,175,75
2026-05-09 14:54:23.592,5,0.08,-0.11,1.08,-3.6028000000000002,-8.068,7.143199999999999,175,75
2026-05-09 14:54:23.592,5,0.08,-0.11,1.08,-2.7028000000000003,-9.078000000000001,4.7532,175,75
2026-05-09 14:54:23.608,5,0.13,-0.09,1.1,-3.3428000000000004,-13.488,2.7432,175,75
2026-05-09 14:54:23.619,5,0.13,-0.08,1.09,-3.2228000000000003,-13.978,3.3232,175,75
2026-05-09 14:54:23.619,5,0.13,-0.09,1.08,-3.0228,-14.098,2.8132,175,75
2026-05-09 14:54:23.659,5,0.14,-0.08,1.07,-2.4528000000000003,-13.368,-2.6068,175,75
2026-05-09 14:54:23.743,5,0.18,-0.07,1.1,-2.1928,-17.268,-1.2868,175,75
2026-05-09 14:54:23.743,5,0.2,-0.07,1.09,-2.4928,-18.668000000000003,0.6632,175,75
2026-05-09 14:54:23.757,5,0.21,-0.08,1.1,-2.6528,-19.898000000000003,2.0632,175,75
2026-05-09 14:54:23.771,5,0.21,-0.09,1.11,-2.6728,-21.298000000000002,2.6132,175,75
2026-05-09 14:54:23.771,5,0.21,-0.11,1.12,-3.2628000000000004,-22.638,1.8832,175,75
2026-05-09 14:54:23.790,5,0.24,-0.14,1.14,-4.2228,-20.728,-4.736800000000001,175,75
2026-05-09 14:54:23.790,5,0.26,-0.14,1.17,-3.6028000000000002,-19.588,-8.0868,175,75
2026-05-09 14:54:23.791,5,0.28,-0.14,1.19,-3.3928000000000003,-19.278000000000002,-11.6268,175,75
2026-05-09 14:54:23.791,5,0.26,-0.12,1.19,-3.4428,-16.188000000000002,-16.7768,175,75
2026-05-09 14:54:23.802,5,0.25,-0.13,1.2,-3.6028000000000002,-15.728,-16.6868,175,75
2026-05-09 14:54:23.802,5,0.24,-0.14,1.23,-3.2128,-18.668000000000003,-13.776800000000001,175,75
2026-05-09 14:54:23.875,5,0.24,-0.16,1.25,-2.1928,-21.588,-13.776800000000001,175,75
2026-05-09 14:54:23.875,5,0.25,-0.16,1.27,-1.0128,-24.278000000000002,-15.3568,175,75
2026-05-09 14:54:23.889,5,0.24,-0.16,1.28,-0.022800000000000042,-28.258000000000003,-18.5568,175,75
2026-05-09 14:54:23.900,5,0.25,-0.16,1.29,0.21719999999999995,-31.458000000000002,-21.4868,175,75
2026-05-09 14:54:23.900,5,0.26,-0.17,1.28,0.3472,-34.598,-23.686799999999998,175,75
2026-05-09 14:54:23.909,5,0.27,-0.15,1.28,0.36719999999999997,-36.848,-25.0168,175,75
2026-05-09 14:54:23.947,5,0.29,-0.14,1.28,0.48719999999999997,-37.228,-26.8168,175,75
2026-05-09 14:54:23.947,5,0.31,-0.13,1.28,0.42719999999999997,-35.198,-29.296799999999998,175,75
2026-05-09 14:54:23.979,5,0.29,-0.13,1.28,0.4472,-32.838,-32.4168,175,75
2026-05-09 14:54:23.989,5,0.27,-0.13,1.27,0.9472,-31.948,-32.4868,175,75
2026-05-09 14:54:23.989,5,0.25,-0.17,1.28,2.5972,-44.797999999999995,-22.0668,175,75
2026-05-09 14:54:23.993,5,0.2,-0.19,1.27,4.2672,-50.848,-27.346799999999998,175,75
2026-05-09 14:54:24.011,5,0.2,-0.19,1.23,7.6272,-58.007999999999996,-35.936800000000005,175,75
2026-05-09 14:54:24.011,5,0.2,-0.1,1.18,12.817200000000001,-65.578,-53.296800000000005,175,75
2026-05-09 14:54:24.021,5,0.23,-0.04,1.16,11.727200000000002,-70.97800000000001,-58.0968,175,75
2026-05-09 14:54:24.033,5,0.39,0.05,1.14,5.6072,-79.188,-40.976800000000004,175,75
2026-05-09 14:54:24.033,5,0.4,0.04,1.13,2.7872,-78.938,-32.1668,175,75
2026-05-09 14:54:24.043,5,0.4,0.01,1.1,0.8371999999999999,-79.86800000000001,-25.1568,175,75
2026-05-09 14:54:24.043,5,0.39,-0.02,1.09,-1.0828000000000002,-79.608,-21.686799999999998,175,75
2026-05-09 14:54:24.083,5,0.39,-0.05,1.09,-3.6828000000000003,-79.328,-21.7468,175,75
2026-05-09 14:54:24.083,5,0.38,-0.07,1.08,-5.2128000000000005,-77.44800000000001,-25.0668,175,75
2026-05-09 14:54:24.094,5,0.36,-0.09,1.06,-6.8628,-73.128,-30.456799999999998,175,75
2026-05-09 14:54:24.094,5,0.32,-0.1,1.04,-7.942800000000001,-69.238,-37.1768,175,75
2026-05-09 14:54:24.144,5,0.3,-0.06,1.05,-2.8228,-82.278,-53.8068,175,75
2026-05-09 14:54:24.216,5,0.33,-0.03,1.05,-0.2528,-92.78800000000001,-53.9868,175,75
2026-05-09 14:54:24.216,5,0.36,-0.02,1.03,1.6772,-101.92800000000001,-50.186800000000005,175,75
2026-05-09 14:54:24.228,5,0.39,-0.01,1.0,2.8771999999999998,-109.488,-44.2068,175,75
2026-05-09 14:54:24.238,5,0.4,0.01,0.96,0.4972,-118.858,-36.1068,175,75
2026-05-09 14:54:24.250,5,0.4,0.02,0.89,-3.7728,-120.22800000000001,-39.836800000000004,175,75
2026-05-09 14:54:24.250,5,0.42,0.04,0.86,-5.2128000000000005,-122.83800000000001,-41.4968,175,75
2026-05-09 14:54:24.274,5,0.5,0.07,0.83,-6.8828000000000005,-134.12800000000001,-37.7468,175,75
2026-05-09 14:54:24.275,5,0.57,0.09,0.84,-8.4528,-137.418,-32.3068,175,75
2026-05-09 14:54:24.278,5,0.61,-0.07,0.69,-13.912799999999999,-127.018,-6.5868,175,75
2026-05-09 14:54:24.290,5,0.6,-0.09,0.65,-12.2328,-125.11800000000001,-10.386800000000001,175,75
2026-05-09 14:54:24.300,5,0.6,-0.1,0.61,-8.602799999999998,-126.08800000000001,-17.3268,175,75
2026-05-09 14:54:24.311,5,0.64,-0.09,0.59,-4.7928,-128.448,-26.6968,175,75
2026-05-09 14:54:24.311,5,0.71,-0.06,0.58,-1.2828,-129.71800000000002,-38.0968,175,75
2026-05-09 14:54:24.330,5,0.78,-0.0,0.57,-0.29280000000000006,-123.67800000000001,-49.6768,175,75
2026-05-09 14:54:24.341,5,0.82,0.06,0.55,-1.1928,-112.388,-59.936800000000005,175,75
2026-05-09 14:54:24.341,5,0.85,0.12,0.53,-3.0228,-99.628,-67.3868,175,75
2026-05-09 14:54:24.352,5,0.89,0.18,0.51,-6.2628,-88.438,-69.8168,175,75
2026-05-09 14:54:24.362,5,0.94,0.21,0.52,-9.772799999999998,-76.188,-65.7068,175,75
2026-05-09 14:54:24.373,5,0.94,0.23,0.5,-11.852799999999998,-64.658,-56.8068,175,75
2026-05-09 14:54:24.385,5,0.93,0.21,0.5,-13.9628,-55.788,-42.256800000000005,175,75
2026-05-09 14:54:24.385,5,0.9,0.17,0.5,-14.342799999999999,-46.638,-23.3968,175,75
2026-05-09 14:54:24.397,5,0.74,0.11,0.49,-16.0328,-42.228,-1.1268,175,75
2026-05-09 14:54:24.409,5,0.69,0.07,0.47,-16.3728,-48.687999999999995,-6.3868,175,75
2026-05-09 14:54:24.419,5,0.7,0.05,0.46,-16.102800000000002,-54.538,-18.8068,175,75
2026-05-09 14:54:24.431,5,0.75,0.06,0.45,-15.272799999999998,-56.818,-33.8868,175,75
2026-05-09 14:54:24.431,5,0.82,0.09,0.44,-13.922799999999999,-54.458,-44.4168,175,75
2026-05-09 14:54:24.441,5,0.87,0.13,0.43,-13.4628,-48.958,-48.4868,175,75
2026-05-09 14:54:24.453,5,0.89,0.16,0.43,-14.022799999999998,-41.528,-46.9168,175,75
2026-05-09 14:54:24.453,5,0.89,0.18,0.42,-14.5428,-33.998,-40.436800000000005,175,75
2026-05-09 14:54:24.471,5,0.84,0.2,0.41,-15.572799999999999,-24.958000000000002,-26.9968,175,75
2026-05-09 14:54:24.481,5,0.8,0.21,0.39,-16.4128,-23.498,-23.846799999999998,175,75
2026-05-09 14:54:24.481,5,0.79,0.21,0.38,-17.242800000000003,-23.738000000000003,-23.2468,175,75
2026-05-09 14:54:24.498,5,0.82,0.22,0.39,-18.672800000000002,-23.458000000000002,-22.6668,175,75
2026-05-09 14:54:24.508,5,0.86,0.2,0.37,-19.9128,-16.138,-18.366799999999998,175,75
2026-05-09 14:54:24.541,5,0.84,0.16,0.37,-16.6328,-7.548,-12.616800000000001,175,75
2026-05-09 14:54:24.581,5,0.8,0.15,0.39,-14.992799999999999,-3.7880000000000003,-13.1568,175,75
2026-05-09 14:54:24.592,5,0.78,0.16,0.4,-13.8928,-1.0580000000000003,-17.1368,175,75
2026-05-09 14:54:24.592,5,0.76,0.18,0.4,-13.6228,0.11199999999999988,-21.1468,175,75
2026-05-09 14:54:24.603,5,0.79,0.22,0.38,-14.932799999999999,0.021999999999999797,-20.5568,175,75
2026-05-09 14:54:24.621,5,0.81,0.23,0.36,-15.6028,0.1519999999999999,-16.6468,175,75
2026-05-09 14:54:24.701,5,0.89,0.22,0.38,-15.2328,14.392000000000001,-4.4368,175,75
2026-05-09 14:54:24.713,5,0.83,0.2,0.41,-14.6328,21.691999999999997,-2.7068,175,75
2026-05-09 14:54:24.713,5,0.77,0.18,0.43,-14.2228,25.032,-3.1868,175,75
2026-05-09 14:54:24.713,5,0.72,0.16,0.45,-13.4528,25.101999999999997,-3.5468,175,75
2026-05-09 14:54:24.724,5,0.7,0.15,0.44,-12.182799999999999,22.282,-2.2368,175,75
2026-05-09 14:54:24.735,5,0.74,0.17,0.45,-10.6128,16.561999999999998,0.9032,175,75
2026-05-09 14:54:24.735,5,0.82,0.19,0.44,-9.7328,13.472,3.9832,175,75
2026-05-09 14:54:24.762,5,0.88,0.18,0.45,-9.322799999999999,29.362,2.1932,175,75
2026-05-09 14:54:24.783,5,0.8,0.17,0.5,-8.7028,35.962,-0.12680000000000002,175,75
2026-05-09 14:54:24.794,5,0.8,0.19,0.54,-8.2928,32.342,-1.4268,175,75
2026-05-09 14:54:24.804,5,0.82,0.21,0.55,-9.092799999999999,28.101999999999997,-2.3768000000000002,175,75
2026-05-09 14:54:24.817,5,0.83,0.24,0.52,-8.1528,27.232,-1.9968,175,75
2026-05-09 14:54:24.817,5,0.85,0.24,0.51,-7.432799999999999,28.432,3.2931999999999997,175,75
2026-05-09 14:54:24.840,5,0.91,0.23,0.55,-5.9428,30.142,20.3732,175,75
2026-05-09 14:54:24.852,5,0.89,0.17,0.59,-5.3228,33.552,24.563200000000002,175,75
2026-05-09 14:54:24.852,5,0.85,0.14,0.59,-5.2128000000000005,35.642,22.043200000000002,175,75
2026-05-09 14:54:24.866,5,0.82,0.1,0.6,-4.6628,35.842,19.0932,175,75
2026-05-09 14:54:24.866,5,0.79,0.08,0.59,-4.2128000000000005,34.312000000000005,16.453200000000002,175,75
2026-05-09 14:54:24.876,5,0.77,0.08,0.59,-3.6028000000000002,31.452,12.953199999999999,175,75
2026-05-09 14:54:24.887,5,0.8,0.14,0.58,-1.7628,25.741999999999997,5.0232,175,75
2026-05-09 14:54:24.984,5,0.77,0.04,0.67,1.8772000000000002,41.692,13.223199999999999,175,75
2026-05-09 14:54:24.995,5,0.76,0.05,0.66,2.9372,40.862,5.5332,175,75
2026-05-09 14:54:25.127,5,0.83,0.14,0.66,-3.1828000000000003,44.242000000000004,13.5532,175,75
2026-05-09 14:54:25.136,5,0.83,0.13,0.69,-3.7527999999999997,48.322,16.453200000000002,175,75
2026-05-09 14:54:25.172,5,0.77,0.09,0.72,-3.4128,56.412,18.9932,175,75
2026-05-09 14:54:25.172,5,0.76,0.08,0.73,-2.7128,57.162,20.223200000000002,175,75
2026-05-09 14:54:25.172,5,0.74,0.07,0.74,-1.7628,56.042,21.6732,175,75
2026-05-09 14:54:25.184,5,0.72,0.06,0.75,-0.7328,54.132000000000005,22.5332,175,75
2026-05-09 14:54:25.226,5,0.7,0.04,0.76,2.8272,51.212,22.6932,175,75
2026-05-09 14:54:25.226,5,0.68,0.04,0.77,4.4272,49.892,18.3432,175,75
2026-05-09 14:54:25.226,5,0.69,0.06,0.78,4.1672,48.442,14.9632,175,75
2026-05-09 14:54:25.300,5,0.73,0.08,0.8,1.0672,47.412,15.7132,175,75
2026-05-09 14:54:25.300,5,0.72,0.07,0.8,1.6772,50.732,17.383200000000002,175,75
2026-05-09 14:54:25.304,5,0.72,0.06,0.8,2.4572,53.252,20.6432,175,75
2026-05-09 14:54:25.324,5,0.71,0.06,0.82,3.2472,55.272,24.063200000000002,175,75
2026-05-09 14:54:25.324,5,0.7,0.06,0.83,3.3872,57.402,24.543200000000002,175,75
2026-05-09 14:54:25.324,5,0.68,0.05,0.85,3.7971999999999997,59.462,22.863200000000003,175,75
2026-05-09 14:54:25.343,5,0.66,0.08,0.87,5.4172,61.832,16.0132,175,75
2026-05-09 14:54:25.343,5,0.65,0.11,0.89,1.6572,70.892,13.9132,175,75
2026-05-09 14:54:25.364,5,0.66,0.1,0.92,-0.6028000000000001,72.422,28.8432,175,75
2026-05-09 14:54:25.364,5,0.64,0.07,0.94,-1.4728000000000003,71.80199999999999,36.663199999999996,175,75
2026-05-09 14:54:25.375,5,0.62,0.04,0.96,-1.1328,70.922,40.8332,175,75
2026-05-09 14:54:25.375,5,0.59,-0.0,0.96,0.8572,68.57199999999999,41.603199999999994,175,75
2026-05-09 14:54:25.417,5,0.52,-0.04,0.99,7.2272,54.322,27.0232,175,75
2026-05-09 14:54:25.417,5,0.52,-0.03,1.01,6.0972,48.592,21.3532,175,75
2026-05-09 14:54:25.434,5,0.53,-0.01,1.0,4.3372,36.722,13.543199999999999,175,75
2026-05-09 14:54:25.459,5,0.57,0.03,0.99,2.4772,31.471999999999998,12.453199999999999,175,75
2026-05-09 14:54:25.486,5,0.63,0.04,1.01,-0.07279999999999998,31.242,23.5132,175,75
2026-05-09 14:54:25.530,5,0.62,0.02,1.01,-1.1627999999999998,33.992000000000004,28.6032,175,75
2026-05-09 14:54:25.566,5,0.53,-0.02,1.02,-1.0828000000000002,38.322,26.7132,175,75
2026-05-09 14:54:25.566,5,0.52,-0.03,1.02,-3.0528,36.882000000000005,25.7432,175,75
2026-05-09 14:54:25.657,5,0.53,-0.08,0.97,-4.9028,8.512,11.5732,175,75
2026-05-09 14:54:25.657,5,0.52,-0.06,0.96,-6.0628,14.182,8.7832,175,75
2026-05-09 14:54:25.683,5,0.53,-0.04,0.96,-6.3828000000000005,21.741999999999997,10.103200000000001,175,75
2026-05-09 14:54:25.683,5,0.55,-0.01,0.98,-7.2228,22.921999999999997,14.6432,175,75
2026-05-09 14:54:25.693,5,0.54,-0.01,1.0,-8.672799999999999,24.601999999999997,18.7432,175,75
2026-05-09 14:54:25.693,5,0.5,-0.05,1.0,-9.1128,28.511999999999997,24.0032,175,75
2026-05-09 14:54:25.704,5,0.49,-0.08,1.02,-8.0528,28.842,25.153200000000002,175,75
2026-05-09 14:54:25.713,5,0.48,-0.11,1.02,-6.6828,27.212,25.5132,175,75
2026-05-09 14:54:25.728,5,0.43,-0.13,1.03,-4.3228,23.381999999999998,16.813200000000002,175,75
2026-05-09 14:54:25.759,5,0.47,-0.1,1.06,-5.1028,20.601999999999997,10.903200000000002,175,75
2026-05-09 14:54:25.781,5,0.46,-0.11,1.06,-4.3428,21.851999999999997,12.943200000000001,175,75
2026-05-09 14:54:25.800,5,0.43,-0.14,1.06,-2.3228,23.441999999999997,14.513200000000001,175,75
2026-05-09 14:54:25.800,5,0.42,-0.15,1.06,-1.8728000000000002,25.342,13.0932,175,75
2026-05-09 14:54:25.815,5,0.39,-0.15,1.06,-1.5728,27.052,10.103200000000001,175,75
2026-05-09 14:54:25.829,5,0.37,-0.16,1.06,-0.5328,29.282,6.2832,175,75
2026-05-09 14:54:25.829,5,0.35,-0.16,1.06,-0.2228,31.441999999999997,1.5332,175,75
2026-05-09 14:54:25.851,5,0.34,-0.14,1.08,0.6472,31.312,-2.1968,175,75
2026-05-09 14:54:25.851,5,0.34,-0.12,1.09,0.8472,28.971999999999998,-3.5368,175,75
2026-05-09 14:54:25.862,5,0.34,-0.1,1.1,0.23719999999999997,25.502,-3.5468,175,75
2026-05-09 14:54:25.862,5,0.34,-0.09,1.1,-0.5428000000000001,21.381999999999998,-1.8468,175,75
2026-05-09 14:54:25.875,5,0.35,-0.08,1.1,-0.3927999999999999,15.962000000000002,2.4832,175,75
2026-05-09 14:54:25.933,5,0.32,-0.16,1.02,3.6172,-1.868,-0.8068,175,75
2026-05-09 14:54:25.939,5,0.34,-0.13,1.01,4.0072,-1.5180000000000002,-5.9968,175,75
2026-05-09 14:54:25.998,5,0.41,-0.04,0.99,0.3972,12.092,-4.0068,175,75
2026-05-09 14:54:25.998,5,0.4,-0.04,1.0,-1.0528,16.752,1.3232,175,75
2026-05-09 14:54:25.998,5,0.39,-0.06,1.03,-1.7928000000000002,20.052,8.063199999999998,175,75
2026-05-09 14:54:26.017,5,0.33,-0.1,1.06,-1.8628,19.092,12.9632,175,75
2026-05-09 14:54:26.026,5,0.29,-0.13,1.05,-0.40279999999999994,17.682,9.3432,175,75
2026-05-09 14:54:26.089,5,0.25,-0.12,1.03,3.7072,12.662,-4.5168,175,75
2026-05-09 14:54:26.129,5,0.27,-0.07,1.02,2.3272,5.412,-5.1768,175,75
2026-05-09 14:54:26.141,5,0.34,-0.03,1.01,0.4772,4.7620000000000005,-2.5768,175,75
2026-05-09 14:54:26.162,5,0.36,-0.03,1.01,0.23719999999999997,13.982,6.9432,175,75
2026-05-09 14:54:26.172,5,0.33,-0.05,1.02,-0.012800000000000034,18.631999999999998,10.8732,175,75
2026-05-09 14:54:26.172,5,0.31,-0.07,1.03,0.6572,20.721999999999998,12.8432,175,75
2026-05-09 14:54:26.188,5,0.29,-0.09,1.03,1.7872,20.962,12.943200000000001,175,75
2026-05-09 14:54:26.188,5,0.27,-0.1,1.05,2.7572,19.872,11.353200000000001,175,75
2026-05-09 14:54:26.202,5,0.27,-0.11,1.05,3.1372,17.872,8.8932,175,75
2026-05-09 14:54:26.274,5,0.28,-0.08,1.04,3.1972,21.462,-2.9168000000000003,175,75
2026-05-09 14:54:26.284,5,0.29,-0.07,1.05,3.5072,20.941999999999997,-1.9668,175,75
2026-05-09 14:54:26.295,5,0.29,-0.06,1.05,3.5871999999999997,20.151999999999997,0.24320000000000008,175,75
2026-05-09 14:54:26.295,5,0.3,-0.05,1.06,3.3971999999999998,21.221999999999998,3.0431999999999997,175,75
2026-05-09 14:54:26.308,5,0.29,-0.06,1.06,2.8872,22.131999999999998,6.2532,175,75
2026-05-09 14:54:26.308,5,0.28,-0.07,1.07,3.0072,23.721999999999998,9.1832,175,75
2026-05-09 14:54:26.320,5,0.26,-0.08,1.08,3.8371999999999997,24.002,10.743200000000002,175,75
2026-05-09 14:54:26.332,5,0.24,-0.09,1.08,3.9072,22.441999999999997,11.153200000000002,175,75
2026-05-09 14:54:26.332,5,0.23,-0.09,1.09,3.9772,19.252,9.7732,175,75
2026-05-09 14:54:26.342,5,0.22,-0.09,1.09,4.2072,15.112,8.043199999999999,175,75
2026-05-09 14:54:26.354,5,0.23,-0.1,1.08,3.9172,11.012,4.7132,175,75
2026-05-09 14:54:26.370,5,0.24,-0.07,1.07,4.2872,5.422,0.4932000000000001,175,75
2026-05-09 14:54:26.387,5,0.26,-0.07,1.07,3.6271999999999998,4.892,0.4232,175,75
2026-05-09 14:54:26.387,5,0.28,-0.06,1.06,2.3971999999999998,5.932,2.0032,175,75
2026-05-09 14:54:26.404,5,0.3,-0.08,1.07,1.1472,7.362,5.8432,175,75
2026-05-09 14:54:26.424,5,0.27,-0.11,1.07,2.3572,10.922,9.153200000000002,175,75
2026-05-09 14:54:26.435,5,0.25,-0.12,1.07,2.0272,12.092,5.0032,175,75
2026-05-09 14:54:26.446,5,0.24,-0.12,1.07,1.8272,13.702,-0.2567999999999999,175,75
2026-05-09 14:54:26.477,5,0.23,-0.11,1.07,2.4672,14.542,-6.1568,175,75
2026-05-09 14:54:26.499,5,0.25,-0.07,1.08,0.9872,10.732,-2.9368,175,75
2026-05-09 14:54:26.578,5,0.23,-0.09,1.08,1.6572,11.112,-1.4567999999999999,175,75
2026-05-09 14:54:26.589,5,0.23,-0.09,1.09,2.0172,10.092,-3.2868,175,75
2026-05-09 14:54:26.600,5,0.21,-0.09,1.08,1.6872,9.732,-4.5768,175,75
2026-05-09 14:54:26.601,5,0.22,-0.08,1.08,1.6672,8.842,-5.9368,175,75
2026-05-09 14:54:26.623,5,0.22,-0.06,1.09,1.0272000000000001,6.102,-7.5668,175,75
2026-05-09 14:54:26.636,5,0.23,-0.04,1.09,0.5871999999999999,5.562,-5.0468,175,75
2026-05-09 14:54:26.650,5,0.23,-0.05,1.1,0.5172,5.142,-1.5468,175,75
2026-05-09 14:54:26.651,5,0.21,-0.06,1.1,0.36719999999999997,3.252,2.0432,175,75
2026-05-09 14:54:26.676,5,0.19,-0.08,1.09,0.36719999999999997,-2.318,3.6231999999999998,175,75
2026-05-09 14:54:26.676,5,0.19,-0.09,1.09,0.6672,-5.0680000000000005,2.1632000000000002,175,75
2026-05-09 14:54:26.702,5,0.21,-0.07,1.06,2.3971999999999998,-6.468,-6.0368,175,75
2026-05-09 14:54:26.703,5,0.24,-0.04,1.06,2.1172,-5.198,-6.7468,175,75
2026-05-09 14:54:26.716,5,0.25,-0.02,1.06,1.2471999999999999,-3.718,-5.3868,175,75
2026-05-09 14:54:26.741,5,0.21,-0.03,1.06,-1.8628,2.232,-1.1867999999999999,175,75
2026-05-09 14:54:26.752,5,0.2,-0.05,1.05,-2.7328,4.432,1.4832,175,75
2026-05-09 14:54:26.773,5,0.18,-0.1,1.08,-2.4928,3.532,4.8732,175,75
2026-05-09 14:54:26.787,5,0.16,-0.1,1.08,0.5372,-1.988,-0.3568,175,75
2026-05-09 14:54:26.823,5,0.16,-0.1,1.07,1.2372,-3.478,-4.9668,175,75
2026-05-09 14:54:26.870,5,0.22,-0.02,1.05,-1.5128,-1.238,-1.7568,175,75
2026-05-09 14:54:26.902,5,0.21,-0.07,1.07,-3.1528,3.3020000000000005,6.2332,175,75
2026-05-09 14:54:26.947,5,0.17,-0.11,1.07,-1.6028000000000002,1.982,6.5732,175,75
2026-05-09 14:54:26.959,5,0.14,-0.12,1.05,-1.0628000000000002,2.0919999999999996,3.4032,175,75
2026-05-09 14:54:26.997,5,0.14,-0.17,1.07,-1.0028000000000001,-2.1980000000000004,-5.2768,175,75
2026-05-09 14:54:26.997,5,0.14,-0.17,1.07,-0.05279999999999996,-5.428,-7.2968,175,75
2026-05-09 14:54:27.005,5,0.15,-0.16,1.09,0.4972,-7.558,-11.8368,175,75
2026-05-09 14:54:27.013,5,0.15,-0.16,1.08,0.3272,-7.888,-15.736799999999999,175,75
2026-05-09 14:54:27.024,5,0.15,-0.16,1.07,0.36719999999999997,-6.138,-18.636799999999997,175,75
2026-05-09 14:54:27.034,5,0.15,-0.16,1.06,0.8972,-6.008,-20.1068,175,75
2026-05-09 14:54:27.034,5,0.17,-0.14,1.07,1.3272,-7.978,-19.7368,175,75
2026-05-09 14:54:27.054,5,0.19,-0.13,1.09,0.5272,-10.668,-19.706799999999998,175,75
2026-05-09 14:54:27.076,5,0.21,-0.13,1.09,-1.4528000000000003,-11.618,-20.436799999999998,175,75
2026-05-09 14:54:27.076,5,0.21,-0.14,1.07,-3.5427999999999997,-9.998,-22.4468,175,75
2026-05-09 14:54:27.076,5,0.21,-0.15,1.06,-3.9628000000000005,-5.508,-25.9868,175,75
2026-05-09 14:54:27.118,5,0.24,-0.2,1.09,-10.1428,9.122,-15.756799999999998,175,75
2026-05-09 14:54:27.118,5,0.11,-0.23,1.04,-12.582799999999999,7.252000000000001,-21.456799999999998,175,75
2026-05-09 14:54:27.141,5,0.13,-0.27,1.06,-10.9628,2.6820000000000004,-30.9868,175,75
2026-05-09 14:54:27.141,5,0.21,-0.27,1.14,-10.082799999999999,-1.1780000000000002,-36.156800000000004,175,75
2026-05-09 14:54:27.163,5,0.39,-0.29,1.24,-11.3828,-1.7180000000000002,-37.9168,175,75
2026-05-09 14:54:27.163,5,0.41,-0.33,1.22,-9.7328,2.8920000000000003,-34.4168,175,75
2026-05-09 14:54:27.163,5,0.36,-0.38,1.19,-4.8228,7.502000000000001,-32.1668,175,75
2026-05-09 14:54:27.175,5,0.29,-0.41,1.18,0.3872,13.252,-35.3468,175,75
2026-05-09 14:54:27.187,5,0.23,-0.44,1.17,2.9472,17.991999999999997,-42.2868,175,75
2026-05-09 14:54:27.217,5,-0.0,-0.42,1.15,-2.3228,15.202,-89.1468,175,75
2026-05-09 14:54:27.229,5,0.0,-0.39,1.16,-5.9528,10.782,-114.4568,175,75
2026-05-09 14:54:27.251,5,0.16,-0.28,1.2,-8.9528,7.401999999999999,-154.6268,175,75
2026-05-09 14:54:27.254,5,0.23,-0.22,1.2,-10.7028,9.842,-160.3068,175,75
2026-05-09 14:54:27.282,5,0.23,-0.15,1.14,-12.352799999999998,17.511999999999997,-144.8668,175,75
2026-05-09 14:54:27.293,5,0.18,-0.14,1.13,-13.9028,18.182,-133.13680000000002,175,75
2026-05-09 14:54:27.304,5,0.06,-0.15,1.12,-19.3428,13.082,-125.68679999999999,175,75
2026-05-09 14:54:27.322,5,0.0,-0.16,1.11,-20.832800000000002,7.542,-130.7468,175,75
2026-05-09 14:54:27.336,5,-0.01,-0.15,1.1,-21.5728,-1.278,-138.4668,175,75
2026-05-09 14:54:27.336,5,0.0,-0.15,1.08,-21.7028,-9.258000000000001,-145.5968,175,75
2026-05-09 14:54:27.348,5,0.04,-0.14,1.07,-21.4628,-14.558,-149.4368,175,75
2026-05-09 14:54:27.359,5,0.09,-0.12,1.06,-21.2528,-16.818,-149.35680000000002,175,75
2026-05-09 14:54:27.374,5,0.15,-0.13,1.04,-21.7928,-10.948,-144.48680000000002,175,75
2026-05-09 14:54:27.410,5,0.1,-0.19,1.02,-23.3828,11.892,-154.2568,175,75
2026-05-09 14:54:27.422,5,0.09,-0.2,1.02,-23.7028,17.862,-159.5568,175,75
2026-05-09 14:54:27.445,5,0.03,-0.21,1.05,-24.2128,24.322,-168.5968,175,75
2026-05-09 14:54:27.457,5,-0.02,-0.21,1.06,-23.4128,24.831999999999997,-176.38680000000002,175,75
2026-05-09 14:54:27.495,5,-0.13,-0.1,1.09,-18.5428,1.7619999999999998,-212.1268,175,75
2026-05-09 14:54:27.550,5,-0.02,-0.09,1.08,-23.7328,-19.328000000000003,-205.38680000000002,175,75
2026-05-09 14:54:27.575,5,-0.11,-0.14,1.07,-26.152800000000003,-12.108,-214.9368,175,75
2026-05-09 14:54:27.581,5,-0.15,-0.16,1.06,-23.6428,-10.058,-225.13680000000002,175,75
2026-05-09 14:54:27.615,5,-0.18,-0.08,1.09,-17.922800000000002,-15.588,-246.67680000000001,175,75
2026-05-09 14:54:27.625,5,-0.18,-0.05,1.09,-17.7528,-16.548000000000002,-251.4468,175,75
2026-05-09 14:54:27.637,5,-0.22,-0.03,1.06,-17.512800000000002,-15.498,-251.4468,175,75
2026-05-09 14:54:27.648,5,-0.24,-0.02,1.04,-15.0628,-14.288,-251.4468,175,75
2026-05-09 14:54:27.662,5,-0.21,0.02,1.04,-11.1128,-14.788,-251.4468,175,75
2026-05-09 14:54:27.662,5,-0.18,0.04,1.06,-7.7428,-16.038,-251.4468,175,75
2026-05-09 14:54:27.674,5,-0.14,0.08,1.11,-5.6628,-15.848,-251.4468,175,75
2026-05-09 14:54:27.690,5,-0.14,0.13,1.15,-6.6928,-9.328000000000001,-248.1168,175,75
2026-05-09 14:54:27.713,5,-0.23,0.14,1.12,-8.012799999999999,9.742,-242.26680000000002,175,75
2026-05-09 14:54:27.713,5,-0.27,0.14,1.09,-6.1328000000000005,13.142,-237.8068,175,75
2026-05-09 14:54:27.761,5,-0.35,0.31,1.06,-11.9628,-20.298000000000002,-217.5068,175,75
2026-05-09 14:54:27.772,5,-0.29,0.31,1.04,-16.442800000000002,-27.708000000000002,-203.5568,175,75
2026-05-09 14:54:27.783,5,-0.22,0.24,1.02,-19.3428,-30.538,-186.5368,175,75
2026-05-09 14:54:27.824,5,-0.22,0.13,0.98,-20.5928,-6.798,-150.85680000000002,175,75
2026-05-09 14:54:27.836,5,-0.23,0.11,0.99,-18.0228,-3.9480000000000004,-159.0368,175,75
2026-05-09 14:54:27.885,5,-0.27,0.37,1.02,-4.8828000000000005,10.862,-210.2468,175,75
2026-05-09 14:54:27.885,5,-0.24,0.41,1.03,-3.9928,11.342,-206.7268,175,75
2026-05-09 14:54:27.896,5,-0.2,0.47,1.07,-1.4928,8.892,-195.8968,175,75
2026-05-09 14:54:27.906,5,-0.15,0.52,1.12,0.7472,5.672,-180.5968,175,75
2026-05-09 14:54:27.918,5,-0.12,0.59,1.19,1.5272000000000001,2.412,-162.29680000000002,175,75
2026-05-09 14:54:27.929,5,-0.09,0.63,1.23,1.0472000000000001,0.7419999999999998,-143.8368,175,75
2026-05-09 14:54:27.940,5,-0.07,0.64,1.26,-0.3128000000000001,-0.8180000000000002,-123.37679999999999,175,75
2026-05-09 14:54:27.952,5,-0.08,0.6,1.23,0.6272,-3.4880000000000004,-101.12679999999999,175,75
2026-05-09 14:54:27.973,5,-0.07,0.54,1.2,3.3072,-6.878,-77.29679999999999,175,75
2026-05-09 14:54:27.984,5,0.08,0.6,1.3,7.9972,-25.238000000000003,-32.8468,175,75
2026-05-09 14:54:27.985,5,0.18,0.73,1.43,15.8472,-38.768,-5.9368,175,75
2026-05-09 14:54:28.020,5,0.19,0.37,1.28,8.3772,-16.108,-50.0168,175,75
2026-05-09 14:54:28.032,5,0.25,0.33,1.37,20.9372,-15.168,-25.6968,175,75
2026-05-09 14:54:28.032,5,0.17,0.43,1.55,24.7472,-9.628,-25.7668,175,75
2026-05-09 14:54:28.043,5,0.1,0.47,1.64,15.497200000000001,-5.998,-43.9868,175,75
2026-05-09 14:54:28.069,5,0.05,0.39,1.52,6.1972,-47.788,-57.616800000000005,175,75
2026-05-09 14:54:28.100,5,0.13,0.43,1.36,6.1672,-67.19800000000001,-46.8468,175,75
2026-05-09 14:54:28.113,5,0.21,0.44,1.36,6.1171999999999995,-70.81800000000001,-34.7168,175,75
2026-05-09 14:54:28.113,5,0.26,0.41,1.35,1.9771999999999998,-68.168,-22.2168,175,75
2026-05-09 14:54:28.128,5,0.3,0.36,1.31,-2.6928,-64.098,-9.9668,175,75
2026-05-09 14:54:28.138,5,0.28,0.32,1.27,-4.3828000000000005,-62.558,-0.016799999999999926,175,75
2026-05-09 14:54:28.189,5,0.36,0.39,1.19,6.4972,-31.588,-8.2568,175,75
2026-05-09 14:54:28.224,5,0.36,0.48,1.21,-9.4828,-21.978,14.7732,175,75
2026-05-09 14:54:28.237,5,0.35,0.42,1.21,-13.9628,-14.398,28.3032,175,75
2026-05-09 14:54:28.237,5,0.35,0.35,1.2,-14.6428,-8.788,42.8932,175,75
2026-05-09 14:54:28.254,5,0.29,0.24,1.21,-10.7028,-16.138,58.4332,175,75
2026-05-09 14:54:28.281,5,0.28,0.13,1.17,-7.372800000000001,-22.198,44.8732,175,75
2026-05-09 14:54:28.296,5,0.29,0.15,1.15,-4.4128,-20.138,20.8432,175,75
2026-05-09 14:54:28.308,5,0.31,0.19,1.13,-4.8028,-18.658,10.6832,175,75
2026-05-09 14:54:28.338,5,0.39,0.25,1.12,-11.512799999999999,-17.288,17.6232,175,75
2026-05-09 14:54:28.350,5,0.41,0.25,1.12,-15.862799999999998,-16.798000000000002,28.4232,175,75
2026-05-09 14:54:28.350,5,0.41,0.23,1.11,-18.762800000000002,-16.428,36.1132,175,75
2026-05-09 14:54:28.398,5,0.44,0.14,1.07,-22.492800000000003,-7.288,33.9332,175,75
2026-05-09 14:54:28.398,5,0.47,0.12,1.06,-23.0728,0.18199999999999994,33.5132,175,75
2026-05-09 14:54:28.416,5,0.44,0.08,1.07,-24.7128,19.201999999999998,31.973200000000002,175,75
2026-05-09 14:54:28.443,5,0.39,0.06,1.11,-23.8828,28.701999999999998,28.313200000000002,175,75
2026-05-09 14:54:28.444,5,0.38,0.04,1.13,-23.5028,31.032,28.6432,175,75
2026-05-09 14:54:28.461,5,0.35,0.01,1.13,-22.0228,32.832,30.1632,175,75
2026-05-09 14:54:28.476,5,0.31,-0.02,1.14,-18.652800000000003,33.882000000000005,31.7632,175,75
2026-05-09 14:54:28.476,5,0.28,-0.02,1.14,-14.4728,31.511999999999997,31.743199999999998,175,75
2026-05-09 14:54:28.492,5,0.23,-0.01,1.15,-11.4528,28.232,27.9332,175,75
2026-05-09 14:54:28.503,5,0.21,0.01,1.14,-9.582799999999999,23.482,20.133200000000002,175,75
2026-05-09 14:54:28.540,5,0.28,0.16,1.14,-8.572799999999999,8.542,9.193200000000001,175,75
2026-05-09 14:54:28.562,5,0.31,0.15,1.11,-9.4428,10.052,25.8732,175,75
2026-05-09 14:54:28.575,5,0.18,0.1,1.03,-5.8928,12.602,41.9732,175,75
2026-05-09 14:54:28.609,5,0.02,0.08,0.88,-2.2128,13.392,34.2232,175,75
2026-05-09 14:54:28.622,5,0.01,0.1,0.84,-0.13280000000000003,9.232,32.673199999999994,175,75
2026-05-09 14:54:28.634,5,-0.02,0.11,0.79,1.1272,2.502,32.993199999999995,175,75
2026-05-09 14:54:28.634,5,-0.02,0.13,0.77,0.8772,-4.698,33.843199999999996,175,75
2026-05-09 14:54:28.644,5,-0.02,0.13,0.73,-0.5028,-10.558,35.353199999999994,175,75
2026-05-09 14:54:28.664,5,-0.02,0.1,0.69,-1.8728000000000002,-13.748,37.063199999999995,175,75
2026-05-09 14:54:28.664,5,-0.03,0.07,0.65,-2.5328,-13.108,38.1132,175,75
2026-05-09 14:54:28.687,5,-0.03,0.01,0.57,-0.41279999999999994,-0.5780000000000001,37.1932,175,75
2026-05-09 14:54:28.730,5,-0.01,-0.0,0.68,6.9472,43.312000000000005,32.3932,175,75
2026-05-09 14:54:28.736,5,-0.02,0.0,0.74,6.9072,47.832,29.063200000000002,175,75
2026-05-09 14:54:28.755,5,-0.05,0.03,0.79,6.9972,49.762,23.1232,175,75
2026-05-09 14:54:28.774,5,-0.13,0.05,0.84,9.677200000000001,51.042,1.9332000000000003,175,75
2026-05-09 14:54:28.788,5,-0.19,0.05,0.85,12.0172,50.182,-14.576799999999999,175,75
2026-05-09 14:54:28.811,5,-0.2,0.08,0.86,12.427200000000001,41.022,-17.0068,175,75
2026-05-09 14:54:28.811,5,-0.14,0.11,0.9,13.2672,19.971999999999998,-12.0368,175,75
2026-05-09 14:54:28.823,5,0.05,0.16,0.99,15.8772,-21.558000000000003,10.0932,175,75
2026-05-09 14:54:28.834,5,0.35,0.19,1.09,22.4772,-71.25800000000001,42.0032,175,75
2026-05-09 14:54:28.840,5,0.54,0.15,1.04,26.0372,-91.718,61.773199999999996,175,75
2026-05-09 14:54:28.850,5,0.54,0.01,0.84,20.3172,-71.658,72.9432,175,75
2026-05-09 14:54:28.873,5,0.3,-0.22,0.54,1.8672,-5.868,104.6532,175,75
2026-05-09 14:54:28.884,5,0.29,-0.01,0.5,-5.2828,12.692,116.6932,175,75
2026-05-09 14:54:28.894,5,0.17,-0.22,0.47,-2.6928,21.412,108.0532,175,75
2026-05-09 14:54:28.914,5,0.14,-0.05,0.64,10.2172,30.212,-23.0368,175,75
2026-05-09 14:54:28.930,5,0.36,0.08,0.8,15.2072,48.332,-99.79679999999999,175,75
2026-05-09 14:54:28.943,5,0.49,0.31,0.95,8.3672,70.362,-139.3468,175,75
2026-05-09 14:54:28.979,5,0.51,0.45,1.17,-40.672799999999995,92.672,9.0332,175,75
2026-05-09 14:54:28.992,5,0.2,0.25,1.2,-38.9828,84.60199999999999,128.08319999999998,175,75
2026-05-09 14:54:29.006,5,0.02,0.01,1.24,-27.5028,41.982,191.2532,175,75
2026-05-09 14:54:29.015,5,-0.04,-0.09,1.28,-20.8228,8.022,196.2232,175,75
2026-05-09 14:54:29.031,5,-0.07,-0.2,1.27,-14.0528,-29.738000000000003,174.3532,175,75
2026-05-09 14:54:29.042,5,-0.04,-0.24,1.2,-7.4128,-56.007999999999996,132.4032,175,75
2026-05-09 14:54:29.043,5,0.03,-0.27,1.07,0.8972,-67.158,85.9632,175,75
2026-05-09 14:54:29.053,5,0.16,-0.2,0.96,9.8572,-62.348,40.9032,175,75
2026-05-09 14:54:29.075,5,0.47,0.08,0.92,14.2072,-18.788,-6.8267999999999995,175,75
2026-05-09 14:54:29.098,5,0.6,0.27,0.97,-6.5428,30.782,19.613200000000003,175,75
2026-05-09 14:54:29.102,5,0.52,0.27,1.0,-18.0728,51.472,47.9832,175,75
2026-05-09 14:54:29.113,5,0.41,0.21,1.01,-26.2128,67.43199999999999,76.5832,175,75
2026-05-09 14:54:29.134,5,0.17,0.1,1.11,-35.172799999999995,79.232,113.03320000000001,175,75
2026-05-09 14:54:29.145,5,0.07,0.01,1.15,-33.9128,76.85199999999999,116.6132,175,75
2026-05-09 14:54:29.158,5,-0.02,-0.06,1.18,-29.8928,70.232,112.6332,175,75
2026-05-09 14:54:29.173,5,-0.19,-0.07,1.23,-21.762800000000002,45.082,86.1032,175,75
2026-05-09 14:54:29.193,5,-0.18,-0.06,1.19,-14.162799999999999,12.292,68.7132,175,75
2026-05-09 14:54:29.242,5,0.02,0.09,1.07,-0.11280000000000001,-22.748,93.2432,175,75
2026-05-09 14:54:29.256,5,0.11,0.11,1.0,-3.3728,-13.778,121.3832,175,75
2026-05-09 14:54:29.268,5,0.13,0.07,0.97,-6.1928,-3.598,135.8732,175,75
2026-05-09 14:54:29.276,5,0.13,0.02,0.95,-9.0428,9.212,150.9632,175,75
2026-05-09 14:54:29.289,5,0.07,-0.06,0.9,-8.4528,18.432,165.83319999999998,175,75
2026-05-09 14:54:29.343,5,-0.2,-0.21,1.0,-2.0628,1.4119999999999997,118.5832,175,75
2026-05-09 14:54:29.352,5,-0.18,-0.22,1.01,6.7172,-2.398,105.1932,175,75
2026-05-09 14:54:29.369,5,-0.14,-0.17,1.02,14.917200000000001,-3.168,95.5232,175,75
2026-05-09 14:54:29.374,5,-0.09,-0.11,1.07,18.4472,-1.1780000000000002,91.12320000000001,175,75
2026-05-09 14:54:29.393,5,-0.06,-0.05,1.1,16.9472,0.8019999999999998,90.4032,175,75
2026-05-09 14:54:29.404,5,-0.03,0.0,1.12,11.677200000000001,2.992,92.9032,175,75
2026-05-09 14:54:29.404,5,-0.01,0.02,1.13,5.7871999999999995,4.662,98.7132,175,75
2026-05-09 14:54:29.426,5,-0.01,0.02,1.11,0.4172,5.732,106.7732,175,75
2026-05-09 14:54:29.437,5,-0.06,-0.03,1.09,-4.4128,7.852,117.09320000000001,175,75
2026-05-09 14:54:29.462,5,-0.13,-0.15,1.07,-5.5928,13.632,114.5432,175,75
2026-05-09 14:54:29.542,5,-0.2,-0.15,1.13,-3.1428000000000003,-0.1180000000000001,80.1332,175,75
2026-05-09 14:54:29.587,5,-0.19,-0.19,1.13,-6.6328000000000005,-8.198,76.5032,175,75
2026-05-09 14:54:29.608,5,-0.18,-0.18,1.13,-7.432799999999999,-9.848,64.6032,175,75
2026-05-09 14:54:29.620,5,-0.17,-0.17,1.12,-7.942800000000001,-11.258,61.4832,175,75
2026-05-09 14:54:29.632,5,-0.16,-0.16,1.1,-7.772799999999999,-13.788,59.1432,175,75
2026-05-09 14:54:29.689,5,-0.11,-0.2,0.99,-3.9328000000000003,-14.318,57.7232,175,75
2026-05-09 14:54:29.689,5,-0.1,-0.23,0.96,-3.5427999999999997,-12.538,57.7332,175,75
2026-05-09 14:54:29.697,5,-0.1,-0.25,0.96,-3.7328,-11.078,57.603199999999994,175,75
2026-05-09 14:54:29.706,5,-0.11,-0.26,0.97,-4.8828000000000005,-10.108,53.103199999999994,175,75
2026-05-09 14:54:29.726,5,-0.09,-0.27,1.01,-7.0828,-11.658,45.383199999999995,175,75
2026-05-09 14:54:29.754,5,-1.25,-0.6,1.35,-0.3428000000000001,-48.967999999999996,-21.3268,175,75
2026-05-09 14:54:29.767,5,-0.87,-0.25,1.67,35.7472,-193.458,-55.9268,175,75
2026-05-09 14:54:29.790,5,1.73,0.34,0.92,-18.7228,-45.467999999999996,18.363200000000003,175,75
2026-05-09 14:54:29.814,5,0.68,-0.02,0.63,-1.9428,82.002,116.06320000000001,175,75
2026-05-09 14:54:29.825,5,0.28,-0.16,0.69,-5.0828,120.652,116.2132,175,75
2026-05-09 14:54:29.836,5,-0.3,-0.51,0.89,-4.4828,130.802,59.5532,175,75
2026-05-09 14:54:29.857,5,-0.51,-0.48,1.22,10.4672,87.922,-9.416799999999999,175,75
2026-05-09 14:54:29.904,5,-0.06,-0.09,1.31,20.3672,-53.408,-92.3168,175,75
2026-05-09 14:54:29.923,5,0.35,0.04,1.12,14.2972,-66.47800000000001,-60.326800000000006,175,75
2026-05-09 14:54:29.923,5,0.46,0.05,1.02,10.587200000000001,-53.168,-37.3868,175,75
2026-05-09 14:54:29.970,5,0.23,-0.23,0.94,9.7872,33.962,-24.6468,175,75
2026-05-09 14:54:29.985,5,0.03,-0.24,1.01,10.397200000000002,44.702000000000005,-72.5568,175,75
2026-05-09 14:54:29.996,5,-0.02,-0.23,1.02,9.7072,41.592,-95.6168,175,75
2026-05-09 14:54:30.005,5,-0.04,-0.21,1.04,10.237200000000001,34.092,-110.5568,175,75
2026-05-09 14:54:30.026,5,0.01,-0.12,1.07,14.077200000000001,14.022,-118.90679999999999,175,75
2026-05-09 14:54:30.037,5,0.05,-0.07,1.08,13.677200000000001,5.162,-116.8468,175,75
2026-05-09 14:54:30.083,5,0.1,-0.06,1.01,7.4172,5.562,-107.4168,175,75
2026-05-09 14:54:30.118,5,-0.0,-0.02,1.05,10.4472,26.092,-124.5568,175,75
2026-05-09 14:54:30.133,5,-0.02,-0.0,1.06,11.9672,25.921999999999997,-126.15679999999999,175,75
2026-05-09 14:54:30.156,5,-0.09,0.03,1.08,12.977200000000002,25.881999999999998,-125.7468,175,75
2026-05-09 14:54:30.184,5,-0.07,0.06,1.13,15.237200000000001,23.451999999999998,-117.68679999999999,175,75
2026-05-09 14:54:30.187,5,-0.06,0.08,1.16,15.7872,20.541999999999998,-111.4268,175,75
2026-05-09 14:54:30.198,5,-0.08,0.08,1.17,16.8372,17.941999999999997,-107.9168,175,75
2026-05-09 14:54:30.281,5,-0.15,0.12,1.14,18.2672,30.212,-92.9868,175,75
2026-05-09 14:54:30.285,5,-0.18,0.13,1.13,19.1372,30.691999999999997,-93.0968,175,75
2026-05-09 14:54:30.293,5,-0.19,0.14,1.14,19.847199999999997,30.632,-93.3868,175,75
2026-05-09 14:54:30.313,5,-0.23,0.16,1.14,19.5272,29.831999999999997,-94.7568,175,75
2026-05-09 14:54:30.325,5,-0.26,0.17,1.14,20.1972,27.671999999999997,-97.6168,175,75
2026-05-09 14:54:30.335,5,-0.26,0.19,1.15,20.7672,24.732,-98.8968,175,75
2026-05-09 14:54:30.335,5,-0.28,0.21,1.15,19.577199999999998,19.552,-96.4268,175,75
2026-05-09 14:54:30.348,5,-0.28,0.22,1.15,18.007199999999997,13.252,-92.57679999999999,175,75
2026-05-09 14:54:30.362,5,-0.29,0.23,1.13,15.927200000000001,6.992000000000001,-87.7468,175,75
2026-05-09 14:54:30.381,5,-0.28,0.24,1.09,16.6972,-5.138,-75.21679999999999,175,75
2026-05-09 14:54:30.420,5,-0.22,0.28,1.05,17.987199999999998,-16.188000000000002,-46.656800000000004,175,75
2026-05-09 14:54:30.441,5,-0.23,0.33,1.02,21.5872,-23.398000000000003,-35.8068,175,75
2026-05-09 14:54:30.454,5,-0.25,0.34,0.94,22.9472,-37.748,-31.7668,175,75
2026-05-09 14:54:30.490,5,-0.22,0.34,0.86,24.9472,-51.998,-29.276799999999998,175,75
2026-05-09 14:54:30.490,5,-0.18,0.35,0.84,24.917199999999998,-54.617999999999995,-27.936799999999998,175,75
2026-05-09 14:54:30.505,5,-0.13,0.35,0.81,21.847199999999997,-53.108,-23.206799999999998,175,75
2026-05-09 14:54:30.505,5,-0.07,0.36,0.81,19.1072,-48.738,-12.896799999999999,175,75
2026-05-09 14:54:30.516,5,0.01,0.35,0.8,16.6172,-43.238,5.6732000000000005,175,75
2026-05-09 14:54:30.538,5,0.08,0.37,0.83,13.2972,-34.668,30.6932,175,75
2026-05-09 14:54:30.560,5,0.47,0.4,1.04,-4.4428,5.642,156.6332,175,75
2026-05-09 14:54:30.567,5,0.53,0.32,1.14,-5.3928,21.802,209.9632,175,75
2026-05-09 14:54:30.583,5,0.56,0.22,1.21,-3.0928,45.002,248.82319999999999,175,75
2026-05-09 14:54:30.594,5,0.43,0.09,1.23,-2.7228000000000003,67.732,248.82319999999999,175,75
2026-05-09 14:54:30.594,5,0.11,-0.05,1.24,-8.4428,75.46199999999999,248.82319999999999,175,75
2026-05-09 14:54:30.612,5,-0.14,0.18,1.39,-24.0728,68.832,248.82319999999999,175,75
2026-05-09 14:54:30.622,5,-0.33,-0.41,1.12,-24.1428,65.702,209.8832,175,75
2026-05-09 14:54:30.622,5,-0.49,-0.49,1.02,-10.432799999999999,65.38199999999999,135.0032,175,75
2026-05-09 14:54:30.643,5,-0.6,-0.42,0.97,5.6972,67.672,43.4832,175,75
2026-05-09 14:54:30.647,5,-0.61,-0.27,0.99,11.657200000000001,70.71199999999999,-42.4968,175,75
2026-05-09 14:54:30.658,5,-0.52,-0.1,1.07,9.3872,68.222,-110.10679999999999,175,75
2026-05-09 14:54:30.670,5,-0.32,0.12,1.21,0.3872,48.672000000000004,-134.38680000000002,175,75
2026-05-09 14:54:30.683,5,-0.13,0.26,1.29,-10.0628,19.241999999999997,-116.3868,175,75
2026-05-09 14:54:30.695,5,0.01,0.36,1.36,-24.8928,-7.9879999999999995,-33.9168,175,75
2026-05-09 14:54:30.723,5,0.09,0.11,1.2,-29.8728,24.381999999999998,63.40319999999999,175,75
2026-05-09 14:54:30.727,5,-0.04,0.09,1.16,-28.442800000000002,43.422000000000004,114.3832,175,75
2026-05-09 14:54:30.738,5,-0.16,0.07,1.19,-30.262800000000002,52.392,153.9032,175,75
2026-05-09 14:54:30.753,5,-0.28,0.06,1.25,-34.2228,46.372,173.76319999999998,175,75
2026-05-09 14:54:30.763,5,-0.43,-0.04,1.29,-40.282799999999995,25.732,166.8032,175,75
2026-05-09 14:54:30.773,5,-0.62,-0.01,1.33,-46.8328,1.6419999999999997,143.0632,175,75
2026-05-09 14:54:30.792,5,-0.43,-0.35,1.07,-35.282799999999995,-25.558000000000003,76.3232,175,75
2026-05-09 14:54:30.807,5,-0.32,-0.23,1.0,-14.022799999999998,-30.848000000000003,21.6632,175,75
2026-05-09 14:54:30.831,5,-0.14,-0.07,1.0,-13.3628,-36.397999999999996,10.9632,175,75
2026-05-09 14:54:30.843,5,-0.04,-0.02,1.01,-16.0028,-35.278,20.7332,175,75
2026-05-09 14:54:30.855,5,0.03,0.01,1.02,-21.9328,-20.328000000000003,52.133199999999995,175,75
2026-05-09 14:54:30.870,5,-0.01,-0.01,1.0,-24.5028,-9.848,66.48320000000001,175,75
2026-05-09 14:54:30.906,5,-0.21,-0.17,1.01,-29.8228,3.7720000000000002,59.423199999999994,175,75
2026-05-09 14:54:30.923,5,-0.23,-0.19,1.0,-25.832800000000002,5.442,46.913199999999996,175,75
2026-05-09 14:54:30.935,5,-0.26,-0.19,0.98,-19.8228,5.852,33.913199999999996,175,75
2026-05-09 14:54:30.935,5,-0.27,-0.15,0.99,-13.502799999999999,4.142,23.2532,175,75
2026-05-09 14:54:30.945,5,-0.27,-0.09,1.01,-9.932799999999999,0.09199999999999986,17.203200000000002,175,75
2026-05-09 14:54:30.984,5,-0.26,0.02,1.02,-10.1428,-18.658,19.9432,175,75
2026-05-09 14:54:30.984,5,-0.26,0.01,1.0,-10.502799999999999,-23.038,25.2132,175,75
2026-05-09 14:54:31.023,5,-0.19,-0.02,0.99,-9.6528,-25.318,42.743199999999995,175,75
2026-05-09 14:54:31.034,5,-0.18,-0.04,1.0,-10.5328,-24.628,46.4832,175,75
2026-05-09 14:54:31.034,5,-0.14,-0.07,0.99,-11.682799999999999,-22.368000000000002,48.603199999999994,175,75
2026-05-09 14:54:31.048,5,-0.15,-0.11,0.98,-10.832799999999999,-17.368000000000002,47.9732,175,75
2026-05-09 14:54:31.064,5,-0.16,-0.13,0.95,-8.1528,-10.438,43.673199999999994,175,75
2026-05-09 14:54:31.064,5,-0.18,-0.15,0.94,-4.9528,-2.688,36.4032,175,75
2026-05-09 14:54:31.083,5,-0.2,-0.15,0.93,-2.3628,3.502,28.223200000000002,175,75
2026-05-09 14:54:31.114,5,-0.25,-0.12,0.96,-3.3327999999999998,14.802000000000001,10.883199999999999,175,75
2026-05-09 14:54:31.134,5,-0.26,-0.1,0.99,-3.1428000000000003,18.092,7.7932,175,75
2026-05-09 14:54:31.146,5,-0.29,-0.06,1.05,4.3672,19.802,0.0032000000000000917,175,75
2026-05-09 14:54:31.165,5,-0.31,-0.03,1.07,6.4372,18.011999999999997,-3.0968,175,75
2026-05-09 14:54:31.176,5,-0.32,-0.02,1.07,6.9472,14.902,-3.1468,175,75
2026-05-09 14:54:31.187,5,-0.34,-0.01,1.05,6.4172,11.662,-0.6168,175,75
2026-05-09 14:54:31.187,5,-0.35,-0.02,1.02,7.3572,10.122,2.4432,175,75
2026-05-09 14:54:31.197,5,-0.35,-0.03,1.0,8.4572,9.872,4.3332,175,75
2026-05-09 14:54:31.207,5,-0.37,-0.05,0.99,9.237200000000001,9.602,3.9232000000000005,175,75
2026-05-09 14:54:31.218,5,-0.35,-0.05,0.99,10.1872,8.872,1.8132000000000001,175,75
2026-05-09 14:54:31.294,5,-0.31,-0.09,0.95,1.3672,17.642,-13.936800000000002,175,75
2026-05-09 14:54:31.317,5,-0.3,-0.09,0.97,0.8472,34.682,-18.5568,175,75
2026-05-09 14:54:31.399,5,0.04,0.3,1.74,-45.0828,-13.948,-7.0767999999999995,175,75
2026-05-09 14:54:31.410,5,0.22,0.35,1.66,-25.4528,-24.658,9.6632,175,75
2026-05-09 14:54:31.437,5,0.14,-0.01,0.97,15.647200000000002,44.052,55.413199999999996,175,75
2026-05-09 14:54:31.524,5,-0.55,-0.55,0.93,2.5872,-41.978,-15.166799999999999,175,75
2026-05-09 14:54:31.569,5,0.36,-0.07,0.83,22.4472,-5.818,-192.1868,175,75
2026-05-09 14:54:31.580,5,0.66,0.4,1.07,43.617200000000004,16.412,-110.8968,175,75
2026-05-09 14:54:31.593,5,0.49,0.46,1.19,38.857200000000006,42.332,-71.7068,175,75
2026-05-09 14:54:31.603,5,0.32,0.66,1.3,17.7972,73.512,-54.0168,175,75
2026-05-09 14:54:31.675,5,-0.67,0.07,1.25,-1.2027999999999999,121.402,123.7532,175,75
2026-05-09 14:54:31.685,5,-0.82,-0.15,1.32,2.9472,46.162,93.5432,175,75
2026-05-09 14:54:31.717,5,-0.63,-0.14,1.33,29.9072,-32.818,21.1632,175,75
2026-05-09 14:54:31.743,5,-0.44,0.03,1.27,33.9572,-53.608,-0.6168,175,75
2026-05-09 14:54:31.760,5,-0.27,0.13,1.17,25.577199999999998,-52.248,12.7332,175,75
2026-05-09 14:54:31.773,5,-0.22,0.14,1.15,20.417199999999998,-46.288,24.8532,175,75
2026-05-09 14:54:31.822,5,-0.2,0.09,1.03,20.257199999999997,-9.488,53.1432,175,75
2026-05-09 14:54:31.833,5,-0.23,0.09,1.02,18.5472,-5.728,48.093199999999996,175,75
2026-05-09 14:54:31.843,5,-0.26,0.08,1.0,15.8472,-4.398,40.5732,175,75
2026-05-09 14:54:31.862,5,-0.29,0.05,0.97,13.007200000000001,-6.108,22.9332,175,75
2026-05-09 14:54:31.893,5,-0.34,0.05,0.97,16.9472,-17.358,-8.0168,175,75
2026-05-09 14:54:31.893,5,-0.35,0.06,0.99,17.647199999999998,-21.148000000000003,-16.4768,175,75
2026-05-09 14:54:31.937,5,-0.34,0.08,0.98,20.057199999999998,-38.358,-31.7368,175,75
2026-05-09 14:54:31.952,5,-0.33,0.12,0.97,25.4772,-47.367999999999995,-40.156800000000004,175,75
2026-05-09 14:54:31.960,5,-0.33,0.16,0.96,25.5872,-47.668,-48.1368,175,75
2026-05-09 14:54:31.993,5,-0.13,0.2,0.95,21.3672,-38.748,-29.796799999999998,175,75
2026-05-09 14:54:32.004,5,-0.1,0.25,0.97,20.3372,-29.248,-10.6768,175,75
2026-05-09 14:54:32.009,5,-0.15,0.31,0.99,19.7872,-15.618,-2.8768000000000002,175,75
2026-05-09 14:54:32.023,5,-0.2,0.37,1.03,16.3972,-2.588,-4.6468,175,75
2026-05-09 14:54:32.023,5,-0.21,0.42,1.06,9.7672,3.082,-4.5768,175,75
2026-05-09 14:54:32.054,5,-0.12,0.41,1.07,-9.8828,-26.458000000000002,54.133199999999995,175,75
2026-05-09 14:54:32.108,5,-0.2,0.01,0.85,-26.442800000000002,-9.468,143.08319999999998,175,75
2026-05-09 14:54:32.118,5,-0.22,-0.18,0.8,-26.3728,-13.758,133.3532,175,75
2026-05-09 14:54:32.145,5,-0.32,-0.21,0.65,-16.6628,-49.678,41.423199999999994,175,75
2026-05-09 14:54:32.156,5,-0.21,-0.18,0.64,-11.2928,-52.388,3.4631999999999996,175,75
2026-05-09 14:54:32.187,5,0.13,0.05,0.76,1.1772,-25.428,-70.90679999999999,175,75
2026-05-09 14:54:32.213,5,0.18,0.26,0.84,-4.2128000000000005,8.412,-98.4168,175,75
2026-05-09 14:54:32.256,5,0.13,0.43,1.23,-75.33279999999999,116.922,-83.6668,175,75
2026-05-09 14:54:32.307,5,-0.68,0.07,1.14,-54.2528,152.272,92.67320000000001,175,75
2026-05-09 14:54:32.321,5,-0.82,0.05,1.24,-52.8628,120.892,111.81320000000001,175,75
2026-05-09 14:54:32.344,5,-1.02,-0.24,1.3,-36.382799999999996,37.742000000000004,101.73320000000001,175,75
2026-05-09 14:54:32.358,5,-1.0,-0.28,1.21,0.8172,-31.268,32.5132,175,75
2026-05-09 14:54:32.369,5,-0.9,-0.31,1.11,12.497200000000001,-50.507999999999996,-6.2368,175,75
2026-05-09 14:54:32.395,5,-0.42,0.16,1.09,16.5872,-71.128,-83.15679999999999,175,75
2026-05-09 14:54:32.407,5,-0.33,0.24,1.1,12.1372,-71.08800000000001,-84.3868,175,75
2026-05-09 14:54:32.538,5,-0.72,-0.11,1.1,-11.592799999999999,-1.548,44.4632,175,75
2026-05-09 14:54:32.633,5,-0.14,0.1,0.88,-0.8328000000000001,-68.17800000000001,46.1232,175,75
2026-05-09 14:54:32.645,5,-0.09,0.08,0.87,-2.8628,-55.077999999999996,64.9132,175,75
2026-05-09 14:54:32.656,5,-0.07,0.06,0.86,-4.9928,-38.028,82.48320000000001,175,75
2026-05-09 14:54:32.673,5,-0.12,0.05,0.86,-11.252799999999999,-1.6880000000000002,103.4932,175,75
2026-05-09 14:54:32.716,5,-0.33,0.01,0.94,-24.922800000000002,31.182,79.2232,175,75
2026-05-09 14:54:32.752,5,-0.44,-0.04,0.98,-25.332800000000002,19.532,48.1832,175,75
2026-05-09 14:54:32.774,5,-0.44,-0.05,1.0,-22.1828,-9.628,19.8932,175,75
2026-05-09 14:54:32.804,5,-0.32,-0.04,0.98,-17.9128,-19.928,33.743199999999995,175,75
2026-05-09 14:54:32.804,5,-0.31,-0.02,0.97,-16.5028,-15.368,37.0832,175,75
2026-05-09 14:54:32.813,5,-0.32,-0.0,0.95,-16.2828,-9.828,36.243199999999995,175,75
2026-05-09 14:54:32.850,5,-0.34,0.05,0.97,-23.0428,4.872,22.0332,175,75
2026-05-09 14:54:32.860,5,-0.34,0.06,0.99,-24.3728,6.802,22.653200000000002,175,75
2026-05-09 14:54:32.884,5,-0.37,0.08,1.01,-27.3728,9.672,30.5132,175,75
2026-05-09 14:54:32.895,5,-0.43,0.08,0.97,-26.4528,9.412,36.203199999999995,175,75
2026-05-09 14:54:33.049,5,-0.6,-0.04,0.88,-43.282799999999995,40.702000000000005,111.0532,175,75
2026-05-09 14:54:33.065,5,-0.62,-0.02,0.94,-41.492799999999995,17.932,123.9432,175,75
2026-05-09 14:54:33.075,5,-0.47,0.01,1.12,-39.6928,-9.338000000000001,138.3732,175,75
2026-05-09 14:54:33.076,5,-0.18,-0.02,1.55,-23.2828,-64.488,157.48319999999998,175,75
2026-05-09 14:54:33.088,5,0.26,-0.02,2.0,10.2972,-156.758,199.2532,175,75
2026-05-09 14:54:33.154,5,-0.35,-0.45,0.68,1.4571999999999998,53.162,-51.1968,175,75
2026-05-09 14:54:33.173,5,-0.23,-0.33,0.84,17.2672,88.21199999999999,-152.6568,175,75
2026-05-09 14:54:33.182,5,-0.06,-0.04,1.2,29.4272,117.952,-251.4468,175,75
2026-05-09 14:54:33.216,5,0.07,0.92,1.76,5.8172,4.992,-192.6168,175,75
2026-05-09 14:54:33.233,5,-0.29,0.5,1.15,-38.5728,-59.257999999999996,-114.32679999999999,175,75
2026-05-09 14:54:33.259,5,0.25,0.01,0.83,-19.402800000000003,-39.878,139.1032,175,75
2026-05-09 14:54:33.276,5,0.39,0.07,0.91,-20.0928,-5.058,217.9732,175,75
2026-05-09 14:54:33.276,5,0.53,0.09,0.97,-28.9128,33.742000000000004,248.82319999999999,175,75
2026-05-09 14:54:33.312,5,-0.17,-0.31,1.54,-82.8728,-6.548,248.82319999999999,175,75
2026-05-09 14:54:33.378,5,-0.64,-0.43,0.83,5.6972,51.112,-208.04680000000002,175,75
2026-05-09 14:54:33.378,5,-0.46,-0.22,0.92,10.4672,68.442,-251.4468,175,75
2026-05-09 14:54:33.388,5,-0.23,0.01,1.08,5.7871999999999995,75.532,-251.4468,175,75
2026-05-09 14:54:33.410,5,0.34,0.33,1.36,1.6172,4.852,-188.54680000000002,175,75
2026-05-09 14:54:33.426,5,0.04,0.56,1.32,-20.402800000000003,0.732,-71.7468,175,75
2026-05-09 14:54:33.426,5,-0.06,0.39,1.18,-36.172799999999995,13.632,-24.116799999999998,175,75
2026-05-09 14:54:33.442,5,-0.12,0.19,1.03,-41.212799999999994,37.962,17.4832,175,75
2026-05-09 14:54:33.443,5,-0.21,0.09,0.97,-37.992799999999995,55.142,68.89320000000001,175,75
2026-05-09 14:54:33.493,5,-0.6,-0.13,1.24,-51.3728,-13.588,187.1832,175,75
2026-05-09 14:54:33.523,5,-0.46,-0.66,0.99,-38.282799999999995,-74.418,81.5832,175,75
2026-05-09 14:54:33.533,5,-0.43,-0.65,0.86,-13.672799999999999,-69.578,38.3232,175,75
2026-05-09 14:54:33.540,5,-0.42,-0.52,0.84,8.9572,-57.007999999999996,-5.4168,175,75
2026-05-09 14:54:33.574,5,-0.01,-0.09,0.92,-1.9528000000000003,-36.878,-66.5068,175,75
2026-05-09 14:54:33.598,5,0.17,0.0,0.92,-4.2628,-25.038,-21.0668,175,75
2026-05-09 14:54:33.644,5,-0.08,-0.09,0.86,-21.4528,24.642,51.9832,175,75
2026-05-09 14:54:33.666,5,-0.3,-0.26,0.91,-17.942800000000002,31.661999999999995,35.2332,175,75
2026-05-09 14:54:33.683,5,-0.34,-0.3,0.94,-15.172799999999999,27.311999999999998,19.9232,175,75
2026-05-09 14:54:33.696,5,-0.34,-0.31,0.98,-10.672799999999999,20.752,5.1632,175,75
2026-05-09 14:54:33.696,5,-0.34,-0.31,1.0,-5.3028,14.002,-7.0368,175,75
2026-05-09 14:54:33.873,5,-0.28,-0.18,0.99,21.8372,35.502,-21.456799999999998,175,75
2026-05-09 14:54:33.923,5,-0.4,-0.08,1.0,15.7872,33.162,-29.776799999999998,175,75
2026-05-09 14:54:33.939,5,-0.39,-0.08,1.03,9.7172,20.901999999999997,-23.2368,175,75
2026-05-09 14:54:33.951,5,-0.38,-0.1,1.11,11.1072,3.702,-3.7468,175,75
2026-05-09 14:54:33.951,5,-0.39,-0.11,1.15,12.5272,-5.848,2.3832,175,75
2026-05-09 14:54:33.968,5,-0.35,-0.14,1.16,15.677200000000001,-22.998,1.7132,175,75
2026-05-09 14:54:34.101,5,-0.43,-0.06,1.14,1.5072,32.382000000000005,18.8432,175,75
2026-05-09 14:54:34.104,5,-0.47,-0.09,1.15,0.8772,24.092,18.3332,175,75
2026-05-09 14:54:34.116,5,-0.5,-0.15,1.16,1.6872,12.042,14.313199999999998,175,75
2026-05-09 14:54:34.135,5,-0.52,-0.16,1.15,3.0172,-3.498,7.243200000000001,175,75
2026-05-09 14:54:34.136,5,-0.52,-0.18,1.09,3.8872,-18.948,-1.7568,175,75
2026-05-09 14:54:34.161,5,-0.44,-0.18,0.99,8.3972,-37.588,-14.0868,175,75
2026-05-09 14:54:34.165,5,-0.38,-0.16,0.97,10.087200000000001,-40.047999999999995,-16.5168,175,75
2026-05-09 14:54:34.194,5,-0.3,-0.07,0.97,12.1272,-40.558,-19.0368,175,75
2026-05-09 14:54:34.205,5,-0.25,-0.04,0.98,12.4372,-42.988,-21.0768,175,75
2026-05-09 14:54:34.226,5,-0.12,0.04,0.99,11.0172,-45.498,-22.636799999999997,175,75
2026-05-09 14:54:34.286,5,-0.27,-0.08,0.89,-3.6728000000000005,9.872,-6.0368,175,75
2026-05-09 14:54:34.318,5,-0.35,-0.15,0.94,1.4971999999999999,8.232,-9.1068,175,75
2026-05-09 14:54:34.411,5,-0.36,-0.03,0.95,2.6672,-10.118,-0.8368,175,75
2026-05-09 14:54:34.481,5,-0.44,-0.08,0.92,12.9472,-7.578,-21.886799999999997,175,75
2026-05-09 14:54:34.498,5,-0.38,-0.03,0.91,11.7172,-10.788,-27.7368,175,75
2026-05-09 14:54:34.510,5,-0.35,-0.03,0.9,10.427200000000001,-10.398,-23.3168,175,75
2026-05-09 14:54:34.622,5,-0.54,-0.0,0.92,13.8872,11.312,-73.9268,175,75
2026-05-09 14:54:34.698,5,-0.17,0.18,1.55,-32.0128,0.35199999999999987,-31.1968,175,75
2026-05-09 14:54:34.713,5,-0.21,0.19,1.4,-12.672799999999999,12.602,-33.2068,175,75
2026-05-09 14:54:34.724,5,-0.21,0.3,1.36,-9.3128,26.831999999999997,-21.936799999999998,175,75
2026-05-09 14:54:34.724,5,-0.19,0.29,1.25,-17.3128,39.602000000000004,-5.4568,175,75
2026-05-09 14:54:34.743,5,-0.27,0.2,1.06,-19.0228,42.592,22.5132,175,75
2026-05-09 14:54:34.746,5,-0.23,0.03,0.96,-14.7328,47.272,54.0332,175,75
2026-05-09 14:54:34.781,5,-0.29,-0.18,1.21,-19.5028,55.602000000000004,117.67320000000001,175,75
2026-05-09 14:54:34.837,5,-0.67,-0.77,1.14,7.6372,-47.617999999999995,31.2732,175,75
2026-05-09 14:54:34.894,5,0.54,0.47,1.07,58.3072,-38.617999999999995,-64.4068,175,75
2026-05-09 14:54:34.936,5,0.22,0.25,1.06,-8.5328,63.352,68.8632,175,75
2026-05-09 14:54:34.946,5,0.16,0.17,1.11,-5.2328,76.68199999999999,104.06320000000001,175,75
2026-05-09 14:54:34.957,5,0.02,0.13,1.2,0.8472,72.362,135.0932,175,75
2026-05-09 14:54:34.969,5,-0.25,-0.1,1.28,5.0371999999999995,30.052,136.0032,175,75
2026-05-09 14:54:35.003,5,-0.34,-0.37,1.11,17.5172,-7.718,68.4632,175,75
2026-05-09 14:54:35.114,5,-0.34,0.08,1.07,14.4372,-5.178,14.9132,175,75
2026-05-09 14:54:35.155,5,-0.21,0.09,1.05,22.0872,-32.058,-2.8368,175,75
2026-05-09 14:54:35.179,5,-0.08,0.17,1.08,28.4472,-23.578000000000003,-2.7868,175,75
2026-05-09 14:54:35.207,5,-0.12,0.24,1.11,23.4372,14.052,2.2632,175,75
2026-05-09 14:54:35.207,5,-0.16,0.24,1.12,20.597199999999997,22.441999999999997,2.8331999999999997,175,75
2026-05-09 14:54:35.254,5,-0.28,0.21,1.18,22.4472,24.862,11.0032,175,75
2026-05-09 14:54:35.301,5,-0.42,0.23,1.24,27.2972,8.332,17.863200000000003,175,75
2026-05-09 14:54:35.370,5,-0.32,0.25,1.09,22.3172,-52.088,4.4732,175,75
2026-05-09 14:54:35.386,5,-0.26,0.25,1.03,20.8772,-53.058,0.22320000000000007,175,75
2026-05-09 14:54:35.386,5,-0.21,0.28,0.99,19.9972,-51.478,-0.9568,175,75
2026-05-09 14:54:35.402,5,-0.1,0.3,0.88,19.807199999999998,-47.827999999999996,9.1832,175,75
2026-05-09 14:54:35.414,5,-0.04,0.32,0.84,19.6772,-46.558,23.153200000000002,175,75
2026-05-09 14:54:35.414,5,0.02,0.32,0.8,16.7072,-45.617999999999995,43.6132,175,75
2026-05-09 14:54:35.432,5,0.09,0.24,0.7,6.9172,-34.827999999999996,88.8832,175,75
2026-05-09 14:54:35.460,5,-0.02,0.06,0.53,-0.41279999999999994,-6.938,128.7132,175,75
2026-05-09 14:54:35.467,5,-0.08,0.02,0.51,-0.30280000000000007,-6.458,128.9432,175,75
2026-05-09 14:54:35.467,5,-0.13,-0.03,0.49,-2.6328,-11.038,125.0032,175,75
2026-05-09 14:54:35.475,5,-0.17,-0.08,0.47,-5.0628,-18.828000000000003,116.09320000000001,175,75
2026-05-09 14:54:35.487,5,-0.18,-0.04,0.49,-9.182799999999999,-26.718,102.67320000000001,175,75
2026-05-09 14:54:35.498,5,-0.14,-0.12,0.48,-10.272799999999998,-31.638,83.67320000000001,175,75
2026-05-09 14:54:35.498,5,-0.08,-0.1,0.54,-10.6328,-29.288,56.8032,175,75
2026-05-09 14:54:35.509,5,-0.02,-0.06,0.6,-12.5328,-19.218,24.0932,175,75
2026-05-09 14:54:35.509,5,0.06,-0.02,0.64,-14.4828,-3.528,-8.2768,175,75
2026-05-09 14:54:35.521,5,0.04,0.05,0.68,-16.422800000000002,14.972,-36.476800000000004,175,75
2026-05-09 14:54:35.521,5,0.0,0.1,0.73,-19.7228,34.962,-62.366800000000005,175,75
2026-05-09 14:54:35.543,5,0.02,0.21,0.85,-26.512800000000002,66.562,-87.2768,175,75
2026-05-09 14:54:35.565,5,0.06,0.45,1.13,-35.812799999999996,87.532,-86.0568,175,75
2026-05-09 14:54:35.595,5,0.06,0.67,1.47,-61.142799999999994,94.60199999999999,-55.7768,175,75
2026-05-09 14:54:35.604,5,0.02,0.59,1.56,-104.5728,102.762,13.1232,175,75
2026-05-09 14:54:35.610,5,-0.11,0.41,1.43,-112.0628,121.35199999999999,49.453199999999995,175,75
2026-05-09 14:54:35.624,5,-0.18,0.2,1.3,-104.05279999999999,150.302,69.0832,175,75
2026-05-09 14:54:35.647,5,-0.74,0.11,1.27,-78.2528,147.442,120.17320000000001,175,75
2026-05-09 14:54:35.658,5,-0.99,0.1,1.31,-82.05279999999999,106.472,137.86319999999998,175,75
2026-05-09 14:54:35.669,5,-1.16,0.01,1.33,-87.2528,54.612,133.8432,175,75
2026-05-09 14:54:35.697,5,-0.81,-0.29,1.22,-20.7828,-104.168,29.8232,175,75
2026-05-09 14:54:35.716,5,-0.66,-0.19,1.21,-8.8128,-116.168,-1.0568,175,75
2026-05-09 14:54:35.720,5,-0.45,-0.06,1.2,-4.0628,-115.748,-22.1768,175,75
2026-05-09 14:54:35.725,5,-0.25,0.04,1.16,-0.4828,-109.298,-25.886799999999997,175,75
2026-05-09 14:54:35.735,5,-0.1,0.17,1.14,1.1072,-99.688,-16.2268,175,75
2026-05-09 14:54:35.788,5,0.04,0.29,0.91,-17.7228,-22.298000000000002,60.8332,175,75
2026-05-09 14:54:35.796,5,0.0,0.25,0.88,-20.7828,-2.0180000000000002,75.8032,175,75
2026-05-09 14:54:35.823,5,-0.14,0.23,0.87,-28.0628,30.801999999999996,107.62320000000001,175,75
2026-05-09 14:54:35.838,5,-0.22,0.24,0.95,-37.742799999999995,43.922000000000004,136.9132,175,75
2026-05-09 14:54:35.872,5,-0.29,0.2,1.01,-43.2628,47.342,163.32319999999999,175,75
2026-05-09 14:54:35.890,5,-0.43,0.12,1.0,-44.8328,41.152,168.4632,175,75
2026-05-09 14:54:35.901,5,-0.47,0.08,0.98,-45.492799999999995,36.762,159.61319999999998,175,75
2026-05-09 14:54:35.912,5,-0.52,0.04,0.99,-45.212799999999994,28.761999999999997,150.8432,175,75
2026-05-09 14:54:35.912,5,-0.52,0.0,1.03,-44.532799999999995,16.541999999999998,142.2432,175,75
2026-05-09 14:54:35.924,5,-0.5,-0.02,1.08,-44.8728,1.382,136.6232,175,75
2026-05-09 14:54:35.935,5,-0.45,-0.1,1.12,-44.7628,-25.828000000000003,137.8532,175,75
2026-05-09 14:54:35.974,5,-0.39,-0.17,1.02,-37.282799999999995,-43.658,137.29319999999998,175,75
2026-05-09 14:54:35.982,5,-0.34,-0.11,1.0,-33.282799999999995,-47.268,132.5232,175,75
2026-05-09 14:54:35.990,5,-0.29,-0.07,0.98,-32.0228,-50.467999999999996,127.21320000000001,175,75
2026-05-09 14:54:36.003,5,-0.23,-0.0,0.95,-32.992799999999995,-51.528,120.9632,175,75
2026-05-09 14:54:36.031,5,-0.17,0.04,0.94,-34.812799999999996,-48.588,118.1132,175,75
2026-05-09 14:54:36.101,5,-0.09,0.07,0.9,-44.3228,10.682,137.6032,175,75
2026-05-09 14:54:36.101,5,-0.17,0.08,0.94,-45.8728,24.392,147.3432,175,75
2026-05-09 14:54:36.108,5,-0.25,0.07,0.96,-47.8428,33.052,153.48319999999998,175,75
2026-05-09 14:54:36.185,5,-0.35,0.06,1.0,-50.7628,37.662,155.51319999999998,175,75
2026-05-09 14:54:36.206,5,-0.43,0.04,1.01,-53.7328,36.452000000000005,155.58319999999998,175,75
2026-05-09 14:54:36.220,5,-0.51,-0.02,1.04,-56.952799999999996,24.061999999999998,157.45319999999998,175,75
2026-05-09 14:54:36.231,5,-0.56,-0.03,1.05,-57.2728,14.671999999999999,159.8532,175,75
2026-05-09 14:54:36.231,5,-0.57,-0.04,1.07,-57.282799999999995,3.362,162.36319999999998,175,75
2026-05-09 14:54:36.231,5,-0.56,-0.06,1.07,-56.6128,-8.028,165.9632,175,75
2026-05-09 14:54:36.242,5,-0.54,-0.08,1.06,-55.642799999999994,-18.178,170.67319999999998,175,75
2026-05-09 14:54:36.242,5,-0.44,-0.16,0.99,-51.4428,-33.448,183.17319999999998,175,75
2026-05-09 14:54:36.253,5,-0.4,-0.17,0.98,-49.492799999999995,-33.008,185.0032,175,75
2026-05-09 14:54:36.253,5,-0.38,-0.18,0.95,-46.642799999999994,-28.688000000000002,184.0232,175,75
2026-05-09 14:54:36.253,5,-0.37,-0.18,0.94,-45.172799999999995,-21.738000000000003,178.95319999999998,175,75
2026-05-09 14:54:36.264,5,-0.36,-0.17,0.95,-45.632799999999996,-14.058,171.95319999999998,175,75
2026-05-09 14:54:36.306,5,-0.38,-0.19,0.98,-50.6928,1.9919999999999998,157.26319999999998,175,75
2026-05-09 14:54:36.316,5,-0.39,-0.22,0.97,-49.382799999999996,1.442,159.2832,175,75
2026-05-09 14:54:36.335,5,-0.42,-0.24,0.95,-48.382799999999996,0.4119999999999997,162.8832,175,75
2026-05-09 14:54:36.335,5,-0.44,-0.28,0.93,-46.632799999999996,-0.42800000000000016,165.32319999999999,175,75
2026-05-09 14:54:36.368,5,-0.45,-0.3,0.92,-44.9828,-1.4680000000000002,166.3832,175,75
2026-05-09 14:54:36.418,5,-0.46,-0.33,0.91,-42.7928,-3.808,164.64319999999998,175,75
2026-05-09 14:54:36.418,5,-0.47,-0.26,0.94,-40.892799999999994,-5.998,159.3032,175,75
2026-05-09 14:54:36.457,5,-0.47,-0.32,0.87,-37.9428,-7.628,149.7732,175,75
2026-05-09 14:54:36.491,5,-0.47,-0.3,0.86,-34.992799999999995,-7.398,134.04319999999998,175,75
2026-05-09 14:54:36.502,5,-0.43,-0.26,0.89,-34.2228,-6.078,116.5532,175,75
2026-05-09 14:54:36.502,5,-0.36,-0.22,0.91,-36.312799999999996,-2.398,105.3832,175,75
2026-05-09 14:54:36.512,5,-0.31,-0.18,0.93,-41.032799999999995,3.5120000000000005,102.7532,175,75
2026-05-09 14:54:36.522,5,-0.31,-0.16,0.91,-44.7928,10.342,104.87320000000001,175,75
2026-05-09 14:54:36.522,5,-0.33,-0.15,0.89,-47.6828,19.381999999999998,107.73320000000001,175,75
2026-05-09 14:54:36.529,5,-0.29,-0.1,1.23,-53.8328,30.311999999999998,139.01319999999998,175,75
2026-05-09 14:54:36.540,5,-0.3,-0.15,1.38,-49.0428,25.372,150.5332,175,75
2026-05-09 14:54:36.540,5,-0.37,-0.07,1.53,-45.2528,21.142,156.42319999999998,175,75
2026-05-09 14:54:36.540,5,-0.63,-0.09,1.62,-57.462799999999994,-28.848000000000003,160.4732,175,75
2026-05-09 14:54:36.552,5,-0.27,-0.57,1.31,-26.2128,-76.748,215.3032,175,75
2026-05-09 14:54:36.560,5,-0.38,-0.53,1.15,-8.502799999999999,-49.708,174.36319999999998,175,75
2026-05-09 14:54:36.574,5,-0.46,-0.45,1.09,-1.4328000000000003,-33.647999999999996,115.42320000000001,175,75
2026-05-09 14:54:36.574,5,-0.43,-0.32,1.03,4.3672,-14.018,34.023199999999996,175,75
2026-05-09 14:54:36.587,5,-0.36,-0.15,0.97,9.9572,1.6619999999999997,-46.5168,175,75
2026-05-09 14:54:36.599,5,-0.24,0.07,0.99,13.987200000000001,8.422,-109.6468,175,75
2026-05-09 14:54:36.610,5,-0.0,0.21,1.01,16.2572,-3.028,-135.07680000000002,175,75
2026-05-09 14:54:36.622,5,0.22,0.36,1.13,17.397199999999998,-39.248,-93.1368,175,75
2026-05-09 14:54:36.639,5,0.38,0.5,1.12,-12.832799999999999,-90.598,50.173199999999994,175,75
2026-05-09 14:54:36.667,5,0.4,0.29,0.93,-25.9728,-89.39800000000001,122.2432,175,75
2026-05-09 14:54:36.678,5,0.51,-0.0,0.77,-21.5728,-64.908,198.32319999999999,175,75
2026-05-09 14:54:36.678,5,0.62,0.0,0.75,-12.602799999999998,-25.098000000000003,248.82319999999999,175,75
2026-05-09 14:54:36.712,5,0.6,-0.15,0.83,-8.9728,5.322,248.82319999999999,175,75
2026-05-09 14:54:36.712,5,0.05,-0.34,1.25,-41.132799999999996,-41.458,248.82319999999999,175,75
2026-05-09 14:54:36.728,5,-0.05,-0.62,1.21,-46.7928,-55.918,248.82319999999999,175,75
2026-05-09 14:54:36.768,5,-0.21,-0.74,1.11,-37.2628,-54.808,200.0332,175,75
2026-05-09 14:54:36.768,5,-0.35,-0.8,0.93,-21.0528,-45.128,103.5432,175,75
2026-05-09 14:54:36.768,5,-0.44,-0.69,0.83,-4.8128,-31.818,4.5432,175,75
2026-05-09 14:54:36.776,5,-0.36,-0.54,0.8,4.9472,-17.158,-82.6968,175,75
2026-05-09 14:54:36.815,5,-0.19,-0.42,0.81,7.2372,-4.678,-144.23680000000002,175,75
2026-05-09 14:54:36.837,5,0.24,-0.18,0.92,-4.3528,3.1319999999999997,-191.60680000000002,175,75
2026-05-09 14:54:36.837,5,0.62,-0.03,0.9,0.017199999999999993,-23.678,-114.8068,175,75
2026-05-09 14:54:36.856,5,0.61,0.07,0.9,8.6572,-21.588,-58.836800000000004,175,75
2026-05-09 14:54:36.869,5,0.47,0.09,0.89,11.8572,-10.498,-7.7768,175,75
2026-05-09 14:54:36.869,5,0.28,0.12,0.91,8.2672,0.8019999999999998,27.793200000000002,175,75
2026-05-09 14:54:36.880,5,0.08,-0.14,0.92,-4.2328,5.432,65.0832,175,75
2026-05-09 14:54:36.907,5,-0.06,-0.34,1.02,1.1472,-2.998,16.4632,175,75
2026-05-09 14:54:36.921,5,-0.06,-0.35,1.06,4.6872,-6.338,-2.8068,175,75
2026-05-09 14:54:36.932,5,-0.04,-0.32,1.1,8.6272,-5.158,-25.7468,175,75
2026-05-09 14:54:36.943,5,-0.0,-0.28,1.14,12.1372,3.192,-49.686800000000005,175,75
2026-05-09 14:54:36.952,5,0.05,-0.2,1.19,15.397200000000002,17.362,-71.1368,175,75
2026-05-09 14:54:36.967,5,0.1,-0.13,1.26,15.487200000000001,33.002,-83.3868,175,75
2026-05-09 14:54:36.967,5,0.13,-0.06,1.31,13.7672,48.052,-86.3368,175,75
2026-05-09 14:54:36.977,5,0.09,-0.0,1.32,10.6872,60.262,-78.8368,175,75
2026-05-09 14:54:36.989,5,0.03,0.03,1.33,6.8872,67.88199999999999,-67.2268,175,75
2026-05-09 14:54:36.989,5,-0.02,0.02,1.34,2.6672,71.782,-52.8068,175,75
2026-05-09 14:54:36.999,5,-0.07,-0.01,1.35,-2.1228000000000002,72.942,-34.9668,175,75
2026-05-09 14:54:37.009,5,-0.11,-0.06,1.35,-4.6428,71.57199999999999,-15.796800000000001,175,75
2026-05-09 14:54:37.037,5,-0.35,-0.2,1.37,2.1872,35.012,12.2332,175,75
2026-05-09 14:54:37.037,5,-0.4,-0.22,1.34,5.5572,16.541999999999998,6.1632,175,75
2026-05-09 14:54:37.047,5,-0.39,-0.23,1.29,8.3672,-1.0380000000000003,-5.2568,175,75
2026-05-09 14:54:37.058,5,-0.36,-0.23,1.23,9.977200000000002,-15.458,-17.8068,175,75
2026-05-09 14:54:37.070,5,-0.3,-0.21,1.17,11.8072,-28.728,-29.046799999999998,175,75
2026-05-09 14:54:37.070,5,-0.21,-0.19,1.1,13.9572,-39.378,-35.3768,175,75
2026-05-09 14:54:37.080,5,-0.11,-0.14,1.04,15.9672,-46.687999999999995,-36.936800000000005,175,75
2026-05-09 14:54:37.091,5,-0.02,-0.1,0.99,15.9372,-49.967999999999996,-34.976800000000004,175,75
2026-05-09 14:54:37.104,5,0.14,-0.06,0.87,12.727200000000002,-46.367999999999995,-22.276799999999998,175,75
2026-05-09 14:54:37.126,5,0.22,-0.14,0.72,12.5472,-22.688000000000002,-0.14680000000000004,175,75
2026-05-09 14:54:37.136,5,0.18,-0.24,0.7,15.907200000000001,-3.798,-5.9968,175,75
2026-05-09 14:54:37.147,5,0.15,-0.27,0.71,17.2972,3.7620000000000005,-16.2568,175,75
2026-05-09 14:54:37.168,5,0.1,-0.29,0.75,18.6872,10.762,-33.0768,175,75
2026-05-09 14:54:37.186,5,-0.04,-0.28,0.82,20.007199999999997,21.601999999999997,-87.6468,175,75
2026-05-09 14:54:37.196,5,-0.07,-0.24,0.83,19.7672,23.112,-117.1368,175,75
2026-05-09 14:54:37.196,5,-0.03,-0.19,0.85,19.7272,21.092,-140.6168,175,75
2026-05-09 14:54:37.207,5,0.03,-0.12,0.89,20.4772,17.342,-155.76680000000002,175,75
2026-05-09 14:54:37.218,5,0.13,-0.06,0.93,21.8372,11.672,-159.91680000000002,175,75
2026-05-09 14:54:37.241,5,0.27,0.06,1.06,24.2972,4.202,-143.3968,175,75
2026-05-09 14:54:37.256,5,0.3,0.04,1.11,25.647199999999998,3.0620000000000003,-125.6468,175,75
2026-05-09 14:54:37.256,5,0.26,0.04,1.17,28.9772,5.182,-110.8068,175,75
2026-05-09 14:54:37.266,5,0.15,0.03,1.23,32.4772,14.662,-113.93679999999999,175,75
2026-05-09 14:54:37.279,5,0.06,0.05,1.33,34.0572,28.212,-133.3768,175,75
2026-05-09 14:54:37.293,5,0.07,0.11,1.48,32.4072,47.132000000000005,-161.5868,175,75
2026-05-09 14:54:37.336,5,0.13,0.2,1.67,26.7272,69.092,-183.7168,175,75
2026-05-09 14:54:37.336,5,0.19,0.25,1.84,18.3872,85.292,-186.51680000000002,175,75
2026-05-09 14:54:37.336,5,0.01,0.3,1.89,-3.3128,95.082,-145.13680000000002,175,75
2026-05-09 14:54:37.407,5,-0.42,-0.19,1.51,21.0672,-35.098,8.2132,175,75
2026-05-09 14:54:37.407,5,-0.35,-0.31,1.44,23.487199999999998,-71.078,35.4832,175,75
2026-05-09 14:54:37.418,5,-0.31,-0.47,1.32,29.1572,-100.53800000000001,53.6132,175,75
2026-05-09 14:54:37.418,5,-0.32,-0.43,1.25,34.5672,-125.14800000000001,55.423199999999994,175,75
2026-05-09 14:54:37.429,5,-0.37,-0.46,1.09,35.2372,-137.818,31.073200000000003,175,75
2026-05-09 14:54:37.453,5,-0.39,-0.33,0.78,20.1372,-116.64800000000001,-83.3868,175,75
2026-05-09 14:54:37.477,5,-0.36,-0.31,0.63,15.677200000000001,-89.778,-148.6968,175,75
2026-05-09 14:54:37.477,5,-0.3,-0.25,0.54,15.0372,-58.808,-206.38680000000002,175,75
2026-05-09 14:54:37.488,5,-0.26,-0.17,0.5,15.0272,-29.398000000000003,-251.07680000000002,175,75
2026-05-09 14:54:37.488,5,-0.21,-0.1,0.52,15.2672,-2.568,-251.4468,175,75
2026-05-09 14:54:37.522,5,-0.18,-0.05,0.54,13.7172,15.662,-251.4468,175,75
2026-05-09 14:54:37.522,5,-0.18,0.03,0.61,11.757200000000001,25.561999999999998,-251.4468,175,75
2026-05-09 14:54:37.533,5,-0.13,0.11,0.69,11.9372,29.982,-251.4468,175,75
2026-05-09 14:54:37.545,5,-0.07,0.19,0.79,13.897200000000002,30.401999999999997,-251.4468,175,75
2026-05-09 14:54:37.545,5,-0.03,0.19,0.93,19.5172,27.991999999999997,-243.4468,175,75
2026-05-09 14:54:37.552,5,-0.1,0.37,1.08,22.9372,21.221999999999998,-212.5568,175,75
2026-05-09 14:54:37.565,5,-0.1,0.38,1.18,19.237199999999998,13.912,-171.6968,175,75
2026-05-09 14:54:37.580,5,-0.03,0.29,1.21,12.837200000000001,16.612,-126.90679999999999,175,75
2026-05-09 14:54:37.592,5,-0.09,0.17,1.18,5.2072,28.732,-77.10679999999999,175,75
2026-05-09 14:54:37.604,5,-0.08,-0.02,1.1,3.1071999999999997,49.972,-28.706799999999998,175,75
2026-05-09 14:54:37.604,5,-0.12,-0.13,1.05,6.4972,71.66199999999999,13.453199999999999,175,75
2026-05-09 14:54:37.616,5,-0.26,-0.2,1.05,11.837200000000001,81.41199999999999,43.743199999999995,175,75
2026-05-09 14:54:37.616,5,-0.47,-0.12,1.13,12.077200000000001,69.982,49.4732,175,75
2026-05-09 14:54:37.630,5,-0.74,-0.34,1.12,11.997200000000001,15.412,-20.3268,175,75
2026-05-09 14:54:37.644,5,-0.77,-0.42,1.02,15.587200000000001,-5.268,-77.43679999999999,175,75
2026-05-09 14:54:37.656,5,-0.78,-0.37,0.98,23.3672,-16.098000000000003,-136.0668,175,75
2026-05-09 14:54:37.656,5,-0.74,-0.31,0.92,31.5872,-19.518,-189.4368,175,75
2026-05-09 14:54:37.668,5,-0.64,-0.21,0.93,36.2072,-18.568,-233.2168,175,75
2026-05-09 14:54:37.678,5,-0.51,-0.09,0.96,36.617200000000004,-15.677999999999999,-251.4468,175,75
2026-05-09 14:54:37.678,5,-0.37,0.02,1.01,33.5272,-13.368,-251.4468,175,75
2026-05-09 14:54:37.692,5,-0.22,0.12,1.05,29.2972,-13.748,-251.4468,175,75
2026-05-09 14:54:37.720,5,-0.14,0.23,1.07,19.7172,-10.598,-221.9068,175,75
2026-05-09 14:54:37.720,5,-0.17,0.19,1.02,11.9372,-2.0580000000000003,-199.3668,175,75
2026-05-09 14:54:37.733,5,-0.22,0.18,0.97,7.0872,9.402,-180.0268,175,75
2026-05-09 14:54:37.744,5,-0.24,0.12,0.94,6.0472,23.601999999999997,-162.2868,175,75
2026-05-09 14:54:37.756,5,-0.28,0.1,0.95,7.8271999999999995,36.862,-145.0968,175,75
2026-05-09 14:54:37.775,5,-0.34,0.1,1.03,10.727200000000002,48.262,-119.2568,175,75
2026-05-09 14:54:37.775,5,-0.37,0.1,1.07,11.7172,46.732,-112.4768,175,75
2026-05-09 14:54:37.798,5,-0.41,0.07,1.08,12.897200000000002,41.812000000000005,-109.93679999999999,175,75
2026-05-09 14:54:37.798,5,-0.45,0.05,1.07,14.417200000000001,34.952000000000005,-111.3168,175,75
2026-05-09 14:54:37.834,5,-0.55,0.03,0.96,22.5472,14.532000000000002,-129.48680000000002,175,75
2026-05-09 14:54:37.834,5,-0.52,0.07,0.95,23.647199999999998,7.311999999999999,-135.82680000000002,175,75
2026-05-09 14:54:37.843,5,-0.49,0.11,0.94,23.5672,1.3419999999999999,-138.9968,175,75
2026-05-09 14:54:37.877,5,-0.33,0.23,0.97,20.6172,-7.758,-129.91680000000002,175,75
2026-05-09 14:54:37.888,5,-0.3,0.26,0.98,18.2972,-5.9079999999999995,-122.32679999999999,175,75
2026-05-09 14:54:37.926,5,-0.28,0.26,0.98,9.747200000000001,10.392,-89.8468,175,75
2026-05-09 14:54:37.938,5,-0.3,0.21,0.98,8.3972,23.552,-62.6268,175,75
2026-05-09 14:54:37.956,5,-0.34,0.16,0.99,9.3072,29.482,-40.576800000000006,175,75
2026-05-09 14:54:37.970,5,-0.36,0.12,0.99,10.4572,27.932,-30.6768,175,75
2026-05-09 14:54:37.976,5,-0.39,0.1,0.99,12.157200000000001,24.572,-22.8068,175,75
2026-05-09 14:54:38.020,5,-0.41,0.08,0.99,13.907200000000001,21.421999999999997,-19.2268,175,75
2026-05-09 14:54:38.020,5,-0.42,0.06,0.99,15.7872,19.921999999999997,-20.4168,175,75
2026-05-09 14:54:38.020,5,-0.45,0.05,0.98,17.0172,18.511999999999997,-26.2368,175,75
2026-05-09 14:54:38.077,5,-0.49,0.03,0.96,18.8772,18.171999999999997,-47.7468,175,75
2026-05-09 14:54:38.077,5,-0.48,0.04,0.97,19.4072,17.671999999999997,-57.7868,175,75
2026-05-09 14:54:38.085,5,-0.53,0.1,0.98,21.2072,10.662,-74.2268,175,75
2026-05-09 14:54:38.096,5,-0.54,0.15,0.98,20.1372,3.1319999999999997,-84.0368,175,75
2026-05-09 14:54:38.107,5,-0.45,0.17,0.96,15.477200000000002,-8.558,-89.8868,175,75
2026-05-09 14:54:38.134,5,-0.19,0.17,1.12,22.0672,-22.168000000000003,-54.7768,175,75
2026-05-09 14:54:38.134,5,-0.02,0.2,1.33,27.8872,-29.108,-18.2668,175,75
2026-05-09 14:54:38.144,5,0.05,0.19,1.48,31.847199999999997,-33.678,19.063200000000002,175,75
2026-05-09 14:54:38.156,5,-0.26,0.14,1.4,29.7472,-23.458000000000002,41.0732,175,75
2026-05-09 14:54:38.167,5,-0.39,0.05,1.18,15.007200000000001,-18.638,14.4832,175,75
2026-05-09 14:54:38.174,5,-0.37,-0.01,0.99,5.5972,-8.788,-21.8768,175,75
2026-05-09 14:54:38.185,5,-0.24,-0.11,0.86,5.9272,6.0520000000000005,-53.2368,175,75
2026-05-09 14:54:38.216,5,-0.11,0.05,0.93,27.4772,38.412,-86.5568,175,75
2026-05-09 14:54:38.224,5,-0.13,0.24,1.1,25.4972,44.602000000000004,-90.0268,175,75
2026-05-09 14:54:38.224,5,-0.18,0.31,1.22,12.7772,42.582,-84.3868,175,75
2026-05-09 14:54:38.237,5,-0.2,0.38,1.33,-4.9928,36.982,-75.1768,175,75
2026-05-09 14:54:38.248,5,-0.19,0.31,1.33,-20.7028,28.201999999999998,-53.7468,175,75
2026-05-09 14:54:38.259,5,-0.19,0.19,1.27,-24.832800000000002,18.921999999999997,-24.2268,175,75
2026-05-09 14:54:38.259,5,-0.17,0.07,1.23,-18.7028,11.042,9.083200000000001,175,75
2026-05-09 14:54:38.289,5,-0.35,0.08,1.19,-14.502799999999999,-41.698,90.5132,175,75
2026-05-09 14:54:38.302,5,-0.12,-0.11,1.2,-19.9628,-58.528,87.8632,175,75
2026-05-09 14:54:38.330,5,0.11,-0.28,1.08,-24.1128,-55.208,26.5232,175,75
2026-05-09 14:54:38.337,5,0.15,-0.27,1.05,-21.7328,-40.108,-1.1068,175,75
2026-05-09 14:54:38.352,5,0.18,-0.22,1.04,-18.5528,-23.268,-25.9668,175,75
2026-05-09 14:54:38.364,5,0.17,-0.14,1.04,-15.792799999999998,-7.288,-45.6768,175,75
2026-05-09 14:54:38.376,5,0.14,-0.06,1.04,-15.412799999999999,6.3020000000000005,-59.406800000000004,175,75
2026-05-09 14:54:38.386,5,0.11,-0.01,1.03,-16.2228,15.372000000000002,-65.3468,175,75
2026-05-09 14:54:38.399,5,0.12,0.03,1.04,-17.9728,22.232,-62.936800000000005,175,75
2026-05-09 14:54:38.399,5,0.13,0.05,1.07,-21.602800000000002,29.041999999999998,-52.3568,175,75
2026-05-09 14:54:38.413,5,0.12,0.06,1.09,-25.192800000000002,37.252,-38.546800000000005,175,75
2026-05-09 14:54:38.433,5,-0.02,-0.01,1.07,-30.8228,55.382000000000005,-13.666799999999999,175,75
2026-05-09 14:54:38.445,5,-0.11,-0.05,1.07,-31.892799999999998,60.972,-6.9668,175,75
2026-05-09 14:54:38.458,5,-0.27,-0.11,1.12,-31.1428,55.902,-3.4468,175,75
2026-05-09 14:54:38.470,5,-0.31,-0.11,1.16,-30.492800000000003,45.472,-4.4768,175,75
2026-05-09 14:54:38.481,5,-0.35,-0.12,1.19,-29.9128,29.822,-6.2568,175,75
2026-05-09 14:54:38.494,5,-0.38,-0.14,1.2,-28.2828,12.432,-9.5868,175,75
2026-05-09 14:54:38.494,5,-0.4,-0.15,1.19,-25.102800000000002,-4.008,-14.1568,175,75
2026-05-09 14:54:38.519,5,-0.35,-0.17,1.16,-16.742800000000003,-30.808000000000003,-20.9668,175,75
2026-05-09 14:54:38.525,5,-0.28,-0.17,1.15,-12.6328,-40.108,-20.4268,175,75
2026-05-09 14:54:38.548,5,-0.2,-0.16,1.14,-9.5528,-47.168,-15.576799999999999,175,75
2026-05-09 14:54:38.548,5,-0.15,-0.16,1.13,-8.072799999999999,-50.678,-11.1068,175,75
2026-05-09 14:54:38.559,5,-0.12,-0.16,1.11,-6.4428,-50.308,-10.1268,175,75
2026-05-09 14:54:38.573,5,-0.07,-0.16,1.09,-3.5027999999999997,-46.028,-12.256799999999998,175,75
2026-05-09 14:54:38.588,5,-0.01,-0.13,1.1,-7.1328000000000005,-36.007999999999996,-13.916799999999999,175,75
2026-05-09 14:54:38.625,5,0.02,-0.2,1.08,-11.8728,-1.078,-13.056799999999999,175,75
2026-05-09 14:54:38.634,5,-0.03,-0.21,1.09,-13.3928,10.572000000000001,-9.1568,175,75
2026-05-09 14:54:38.650,5,-0.19,-0.24,1.13,-19.5228,13.942,-12.4768,175,75
2026-05-09 14:54:38.661,5,-0.24,-0.25,1.15,-21.902800000000003,7.231999999999999,-19.4868,175,75
2026-05-09 14:54:38.678,5,-0.27,-0.25,1.15,-17.742800000000003,-5.288,-41.2468,175,75
2026-05-09 14:54:38.689,5,-0.27,-0.21,1.15,-13.502799999999999,-9.878,-51.0368,175,75
2026-05-09 14:54:38.695,5,-0.25,-0.17,1.15,-9.252799999999999,-12.908,-56.5968,175,75
2026-05-09 14:54:38.709,5,-0.23,-0.12,1.14,-7.352799999999999,-17.728,-52.8168,175,75
2026-05-09 14:54:38.717,5,-0.19,-0.07,1.13,-7.4628000000000005,-23.028000000000002,-41.5268,175,75
2026-05-09 14:54:38.731,5,-0.15,-0.05,1.09,-8.4428,-28.718,-24.386799999999997,175,75
2026-05-09 14:54:38.743,5,-0.11,-0.08,1.01,-8.2228,-30.208000000000002,-3.8668,175,75
2026-05-09 14:54:38.747,5,-0.08,-0.12,0.92,-4.9328,-27.218,15.8732,175,75
2026-05-09 14:54:38.761,5,-0.08,-0.14,0.84,0.027200000000000002,-17.468,31.963200000000004,175,75
2026-05-09 14:54:38.775,5,-0.12,-0.11,0.8,2.5672,-9.418000000000001,40.4632,175,75
2026-05-09 14:54:38.782,5,-0.16,-0.08,0.76,1.3272,-4.508,40.8632,175,75
2026-05-09 14:54:38.794,5,-0.21,-0.04,0.73,-2.8428,-6.298,34.243199999999995,175,75
2026-05-09 14:54:38.795,5,-0.22,-0.03,0.7,-7.0428,-12.718,21.653200000000002,175,75
2026-05-09 14:54:38.806,5,-0.21,-0.03,0.66,-10.022799999999998,-22.258000000000003,9.8732,175,75
2026-05-09 14:54:38.834,5,-0.07,-0.07,0.59,-7.3928,-39.588,7.233199999999999,175,75
2026-05-09 14:54:38.847,5,0.03,-0.09,0.6,-4.0928,-37.437999999999995,16.5132,175,75
2026-05-09 14:54:38.847,5,0.08,-0.12,0.63,-2.1828000000000003,-26.028000000000002,27.6032,175,75
2026-05-09 14:54:38.862,5,0.14,-0.15,0.68,-1.0328,-7.288,38.813199999999995,175,75
2026-05-09 14:54:38.874,5,0.14,-0.18,0.72,0.5372,13.032,45.1232,175,75
2026-05-09 14:54:38.885,5,0.11,-0.21,0.78,2.5572,34.542,44.7832,175,75
2026-05-09 14:54:38.885,5,0.03,-0.2,0.86,3.5671999999999997,51.622,37.2132,175,75
2026-05-09 14:54:38.920,5,-0.17,-0.18,0.94,2.1672,66.062,7.573200000000001,175,75
2026-05-09 14:54:38.920,5,-0.27,-0.17,0.94,0.7172,59.122,-4.4968,175,75
2026-05-09 14:54:38.930,5,-0.3,-0.18,0.97,-0.9128,41.862,-5.5968,175,75
2026-05-09 14:54:38.959,5,-0.18,-0.34,1.08,8.7872,-0.9480000000000002,16.3932,175,75
2026-05-09 14:54:38.959,5,-0.09,-0.4,1.18,21.2672,-6.378,26.7432,175,75
2026-05-09 14:54:38.968,5,-0.02,-0.4,1.32,34.287200000000006,8.022,28.1932,175,75
2026-05-09 14:54:38.990,5,-0.18,-0.24,1.4,32.5072,84.642,-9.576799999999999,175,75
2026-05-09 14:54:39.018,5,-0.73,0.07,1.03,24.6072,84.93199999999999,-95.3468,175,75
2026-05-09 14:54:39.025,5,-0.62,0.16,1.04,13.5572,50.872,-105.96679999999999,175,75
2026-05-09 14:54:39.037,5,-0.58,0.22,1.06,-1.0828000000000002,19.142,-100.60679999999999,175,75
2026-05-09 14:54:39.048,5,-0.46,0.24,1.09,-18.8428,-1.3880000000000001,-83.2468,175,75
2026-05-09 14:54:39.067,5,-0.35,0.22,1.12,-29.902800000000003,-7.968,-59.1368,175,75
2026-05-09 14:54:39.088,5,-0.25,0.15,1.18,-32.602799999999995,-2.9480000000000004,-28.866799999999998,175,75
2026-05-09 14:54:39.096,5,-0.18,0.09,1.26,-25.3928,9.482,10.353200000000001,175,75
2026-05-09 14:54:39.096,5,-0.2,0.03,1.36,-15.702799999999998,20.381999999999998,52.093199999999996,175,75
2026-05-09 14:54:39.115,5,-0.37,-0.02,1.4,-13.5528,17.732,85.87320000000001,175,75
2026-05-09 14:54:39.128,5,-0.56,-0.24,1.31,-12.072799999999999,-10.918,101.0032,175,75
2026-05-09 14:54:39.128,5,-0.57,-0.33,1.23,-7.0228,-22.118000000000002,88.2232,175,75
2026-05-09 14:54:39.171,5,-0.45,-0.18,1.07,9.3672,-46.038,-46.546800000000005,175,75
2026-05-09 14:54:39.181,5,-0.33,-0.06,1.07,11.1372,-49.178,-57.4268,175,75
2026-05-09 14:54:39.237,5,-0.11,0.01,0.96,-8.592799999999999,-40.117999999999995,39.2332,175,75
2026-05-09 14:54:39.237,5,-0.14,-0.06,0.97,-10.022799999999998,-31.938000000000002,61.923199999999994,175,75
2026-05-09 14:54:39.247,5,-0.17,-0.1,0.98,-12.4728,-26.058000000000003,76.7932,175,75
2026-05-09 14:54:39.261,5,-0.21,-0.19,0.99,-14.262799999999999,-22.358,80.9632,175,75
2026-05-09 14:54:39.268,5,-0.27,-0.23,1.01,-16.8928,-20.618000000000002,71.4132,175,75
2026-05-09 14:54:39.300,5,-0.33,-0.33,0.94,-16.7728,-21.568,4.9032,175,75
2026-05-09 14:54:39.306,5,-0.33,-0.32,0.89,-5.9528,-20.788,-13.5668,175,75
2026-05-09 14:54:39.326,5,-0.33,-0.27,0.88,6.2072,-20.908,-25.116799999999998,175,75
2026-05-09 14:54:39.344,5,-0.29,-0.13,0.94,15.1872,-23.428,-26.616799999999998,175,75
2026-05-09 14:54:39.358,5,-0.28,-0.08,0.95,13.147200000000002,-24.438000000000002,-22.3768,175,75
2026-05-09 14:54:39.358,5,-0.26,-0.07,0.93,12.3672,-25.268,-17.6468,175,75
2026-05-09 14:54:39.380,5,-0.21,-0.05,0.92,15.6872,-24.098000000000003,-3.8868,175,75
2026-05-09 14:54:39.394,5,-0.2,-0.03,0.9,15.487200000000001,-22.168000000000003,6.0132,175,75
2026-05-09 14:54:39.405,5,-0.21,-0.05,0.89,13.067200000000001,-20.558000000000003,16.1232,175,75
2026-05-09 14:54:39.415,5,-0.23,-0.06,0.86,11.5172,-18.268,24.7132,175,75
2026-05-09 14:54:39.445,5,-0.24,-0.16,0.87,8.4572,-10.148,39.0532,175,75
2026-05-09 14:54:39.469,5,-0.31,-0.21,0.92,13.5572,-8.888,28.0032,175,75
2026-05-09 14:54:39.490,5,-0.34,-0.19,0.92,18.6872,-11.788,17.403200000000002,175,75
2026-05-09 14:54:39.503,5,-0.35,-0.17,0.92,21.4272,-14.988,16.2532,175,75
2026-05-09 14:54:39.539,5,-0.34,-0.11,0.96,22.9372,-13.588,18.1732,175,75
2026-05-09 14:54:39.544,5,-0.35,-0.09,0.97,24.3772,-12.238,14.403200000000002,175,75
2026-05-09 14:54:39.561,5,-0.36,-0.08,0.98,24.6872,-12.158,10.693200000000001,175,75
2026-05-09 14:54:39.575,5,-0.35,-0.07,1.0,24.1372,-12.058,8.3432,175,75
2026-05-09 14:54:39.605,5,-0.36,-0.05,1.05,21.9772,-10.028,7.7732,175,75
2026-05-09 14:54:39.605,5,-0.38,-0.05,1.06,21.417199999999998,-9.908,6.0632,175,75
2026-05-09 14:54:39.636,5,-0.39,-0.02,1.11,18.897199999999998,-8.888,-2.5068,175,75
2026-05-09 14:54:39.665,5,-0.39,-0.01,1.15,12.657200000000001,11.302,-17.6468,175,75
2026-05-09 14:54:39.675,5,-0.39,-0.02,1.15,11.1072,20.342,-16.2468,175,75
2026-05-09 14:54:39.689,5,-0.36,0.02,1.34,9.2072,29.201999999999998,-9.0968,175,75
2026-05-09 14:54:39.721,5,-0.24,0.23,1.73,-16.8728,17.101999999999997,4.4232000000000005,175,75
2026-05-09 14:54:39.734,5,-0.2,0.24,1.66,-19.9328,19.142,2.0932,175,75
2026-05-09 14:54:39.737,5,-0.28,0.22,1.52,-21.902800000000003,18.482,9.8232,175,75
2026-05-09 14:54:39.750,5,-0.26,0.16,1.44,-23.1128,15.482000000000001,26.703200000000002,175,75
2026-05-09 14:54:39.759,5,-0.27,0.1,1.38,-18.2328,16.362,44.2132,175,75
2026-05-09 14:54:39.782,5,-0.22,0.03,1.48,-16.4828,13.122,80.4032,175,75
2026-05-09 14:54:39.787,5,-0.24,-0.06,1.46,-22.512800000000002,7.151999999999999,102.7132,175,75
2026-05-09 14:54:39.813,5,-0.3,-0.36,1.26,-25.1628,-16.268,146.48319999999998,175,75
2026-05-09 14:54:39.865,5,-0.17,-0.57,0.96,9.657200000000001,-107.418,174.6332,175,75
2026-05-09 14:54:39.889,5,-0.07,-0.6,0.86,16.6372,-128.898,163.0932,175,75
2026-05-09 14:54:39.889,5,0.06,-0.62,0.73,26.5872,-148.098,146.2532,175,75
2026-05-09 14:54:39.900,5,0.15,-0.58,0.6,37.6572,-157.888,119.42320000000001,175,75
2026-05-09 14:54:39.937,5,0.24,-0.44,0.53,44.5672,-153.398,79.7732,175,75
2026-05-09 14:54:39.953,5,0.36,-0.25,0.51,40.4972,-129.368,29.1832,175,75
2026-05-09 14:54:39.959,5,0.55,-0.11,0.48,29.8572,-79.778,-28.0568,175,75
2026-05-09 14:54:39.974,5,0.65,-0.02,0.45,17.0372,-13.238,-85.4468,175,75
2026-05-09 14:54:39.974,5,0.59,0.05,0.5,8.587200000000001,58.212,-125.12679999999999,175,75
2026-05-09 14:54:40.039,5,0.67,0.12,0.76,0.2672,166.322,-165.38680000000002,175,75
2026-05-09 14:54:40.058,5,0.78,0.23,0.97,1.4971999999999999,186.892,-130.9768,175,75
2026-05-09 14:54:40.071,5,0.75,0.34,1.2,-1.0828000000000002,183.462,-62.336800000000004,175,75
2026-05-09 14:54:40.082,5,0.36,0.34,1.3,-5.7528,179.352,-3.1468,175,75
2026-05-09 14:54:40.095,5,0.04,0.37,1.31,-16.422800000000002,175.542,29.2532,175,75
2026-05-09 14:54:40.095,5,-0.21,0.24,1.26,-25.4628,164.212,59.4832,175,75
2026-05-09 14:54:40.095,5,-0.36,0.09,1.18,-26.402800000000003,144.412,90.8632,175,75
2026-05-09 14:54:40.095,5,-0.49,-0.03,1.14,-18.6828,119.002,113.42320000000001,175,75
2026-05-09 14:54:40.109,5,-0.57,-0.04,1.2,-9.662799999999999,85.642,129.1832,175,75
2026-05-09 14:54:40.109,5,-0.61,-0.09,1.26,-2.1328,47.482,131.32319999999999,175,75
2026-05-09 14:54:40.109,5,-0.58,-0.09,1.29,2.8171999999999997,11.182,115.7732,175,75
2026-05-09 14:54:40.138,5,-0.38,-0.17,1.25,7.0771999999999995,-32.788,78.6332,175,75
2026-05-09 14:54:40.173,5,-0.27,-0.14,1.21,10.4572,-38.198,59.2632,175,75
2026-05-09 14:54:40.184,5,-0.04,-0.02,1.19,9.817200000000001,-22.398000000000003,42.3232,175,75
2026-05-09 14:54:40.196,5,0.03,0.03,1.18,6.3072,-8.358,46.663199999999996,175,75
2026-05-09 14:54:40.205,5,0.02,0.06,1.15,0.7572,6.412000000000001,53.6832,175,75
2026-05-09 14:54:40.205,5,-0.04,0.08,1.11,-3.9028,17.272,58.9632,175,75
2026-05-09 14:54:40.208,5,-0.12,0.07,1.08,-5.6828,23.732,59.9332,175,75
2026-05-09 14:54:40.211,5,-0.17,0.05,1.07,-4.4728,26.471999999999998,60.103199999999994,175,75
2026-05-09 14:54:40.230,5,-0.22,0.04,1.05,-1.5528,25.011999999999997,60.313199999999995,175,75
2026-05-09 14:54:40.237,5,-0.27,0.04,1.05,0.3972,21.642,60.1932,175,75
2026-05-09 14:54:40.238,5,-0.3,0.05,1.06,0.3472,16.491999999999997,59.103199999999994,175,75
2026-05-09 14:54:40.261,5,-0.37,0.06,1.01,-1.0228000000000002,-1.088,53.353199999999994,175,75
2026-05-09 14:54:40.273,5,-0.35,0.06,0.99,-0.5428000000000001,-10.008,50.5832,175,75
2026-05-09 14:54:40.273,5,-0.33,0.08,0.98,-0.13280000000000003,-19.438000000000002,49.6132,175,75
2026-05-09 14:54:40.282,5,-0.3,0.1,0.97,-0.6227999999999999,-27.818,50.6432,175,75
2026-05-09 14:54:40.291,5,-0.27,0.1,0.96,0.04720000000000002,-33.948,51.2632,175,75
2026-05-09 14:54:40.364,5,-0.19,0.12,0.94,1.8572000000000002,-39.098,53.843199999999996,175,75
2026-05-09 14:54:40.364,5,-0.16,0.11,0.93,-1.6828000000000003,-37.168,58.7132,175,75
2026-05-09 14:54:40.383,5,-0.14,0.08,0.89,-6.2228,-32.548,64.4132,175,75
2026-05-09 14:54:40.383,5,-0.13,0.04,0.86,-10.0528,-25.978,69.84320000000001,175,75
2026-05-09 14:54:40.389,5,-0.15,-0.01,0.83,-12.5428,-19.758000000000003,73.48320000000001,175,75
2026-05-09 14:54:40.403,5,-0.16,-0.0,0.82,-14.742799999999999,-15.108,75.06320000000001,175,75
2026-05-09 14:54:40.447,5,-0.22,-0.04,0.79,-16.332800000000002,-10.168,63.3632,175,75
2026-05-09 14:54:40.464,5,-0.15,0.02,0.78,-22.8728,5.652,12.223199999999999,175,75
2026-05-09 14:54:40.497,5,-0.14,0.05,0.8,-25.5528,12.802,9.833200000000001,175,75
2026-05-09 14:54:40.535,5,-0.16,0.1,0.81,-31.3528,19.022,11.8032,175,75
2026-05-09 14:54:40.535,5,-0.18,0.11,0.82,-37.4128,24.182,15.223200000000002,175,75
2026-05-09 14:54:40.535,5,-0.2,0.1,0.81,-42.8728,29.962,19.563200000000002,175,75
2026-05-09 14:54:40.546,5,-0.22,0.08,0.81,-44.8428,33.922000000000004,26.5732,175,75
2026-05-09 14:54:40.557,5,-0.29,0.06,0.84,-44.962799999999994,38.292,42.5132,175,75
2026-05-09 14:54:40.557,5,-0.31,0.04,0.88,-41.992799999999995,37.632000000000005,50.2332,175,75
2026-05-09 14:54:40.568,5,-0.32,0.03,0.94,-38.3328,37.442,57.453199999999995,175,75
2026-05-09 14:54:40.580,5,-0.33,0.01,1.04,-36.312799999999996,37.562000000000005,64.17320000000001,175,75
2026-05-09 14:54:40.592,5,-0.42,-0.12,1.16,-36.602799999999995,39.512,77.20320000000001,175,75
2026-05-09 14:54:40.592,5,-0.71,-0.24,1.06,-30.0928,79.952,66.1932,175,75
2026-05-09 14:54:40.601,5,-0.81,-0.2,1.11,-26.7828,85.482,54.343199999999996,175,75
2026-05-09 14:54:40.614,5,-0.86,-0.13,1.29,-24.672800000000002,78.57199999999999,40.2332,175,75
2026-05-09 14:54:40.625,5,-0.75,0.01,1.8,-29.2528,28.002,37.203199999999995,175,75
2026-05-09 14:54:40.637,5,-0.78,-0.04,1.74,-29.7128,9.812,42.5432,175,75
2026-05-09 14:54:40.649,5,-0.8,-0.09,1.71,-29.0228,0.5919999999999999,49.8232,175,75
2026-05-09 14:54:40.649,5,-0.68,-0.14,1.84,-26.8428,-13.427999999999999,71.48320000000001,175,75
2026-05-09 14:54:40.660,5,-0.57,-0.19,2.0,-25.7728,-39.827999999999996,103.7432,175,75
2026-05-09 14:54:40.671,5,-0.54,-0.28,2.0,-25.082800000000002,-63.088,128.98319999999998,175,75
2026-05-09 14:54:40.713,5,-0.6,-0.43,1.97,-25.652800000000003,-74.58800000000001,139.1932,175,75
2026-05-09 14:54:40.720,5,-0.87,-0.59,1.63,-20.5028,-94.378,125.0532,175,75
2026-05-09 14:54:40.734,5,-1.03,-0.68,1.3,-5.7628,-127.438,83.7132,175,75
2026-05-09 14:54:40.734,5,-0.95,-0.62,1.05,14.237200000000001,-155.37800000000001,22.2532,175,75
2026-05-09 14:54:40.743,5,-0.7,-0.45,0.92,30.4972,-166.298,-52.836800000000004,175,75
2026-05-09 14:54:40.743,5,-0.31,-0.16,0.89,38.5872,-158.038,-127.12679999999999,175,75
2026-05-09 14:54:40.744,5,-0.23,0.11,0.82,40.1372,-147.228,-190.26680000000002,175,75
2026-05-09 14:54:40.749,5,0.0,0.3,0.77,41.327200000000005,-148.74800000000002,-227.7268,175,75
2026-05-09 14:54:40.782,5,0.26,0.43,0.73,51.1772,-181.90800000000002,-212.79680000000002,175,75
2026-05-09 14:54:40.790,5,0.36,0.72,0.72,58.107200000000006,-215.74800000000002,-192.0968,175,75
2026-05-09 14:54:40.803,5,0.41,0.87,0.7,49.397200000000005,-231.078,-174.16680000000002,175,75
2026-05-09 14:54:40.813,5,0.47,0.85,0.62,29.0472,-235.328,-149.95680000000002,175,75
2026-05-09 14:54:40.824,5,0.64,0.71,0.5,8.3972,-225.198,-109.8168,175,75
2026-05-09 14:54:40.879,5,0.81,0.48,0.37,-2.7028000000000003,-194.258,-48.4268,175,75
2026-05-09 14:54:40.879,5,0.95,0.27,0.3,-1.3428,-141.888,24.7732,175,75
2026-05-09 14:54:40.894,5,1.0,0.11,0.3,7.9872,-72.14800000000001,105.14320000000001,175,75
2026-05-09 14:54:40.905,5,0.93,0.09,0.38,14.487200000000001,-2.728,172.1632,175,75
2026-05-09 14:54:40.905,5,0.88,0.13,0.51,11.087200000000001,64.762,231.6932,175,75
2026-05-09 14:54:40.915,5,0.93,0.13,0.6,1.9872,131.582,248.82319999999999,175,75
2026-05-09 14:54:40.915,5,0.93,0.16,0.68,-5.8928,185.402,248.82319999999999,175,75
2026-05-09 14:54:40.953,5,0.66,0.15,0.8,-11.3128,219.972,248.82319999999999,175,75
2026-05-09 14:54:40.991,5,0.21,0.07,1.28,-27.942800000000002,176.442,248.82319999999999,175,75
2026-05-09 14:54:40.991,5,0.11,-0.32,1.39,-42.3628,155.992,217.61319999999998,175,75
2026-05-09 14:54:41.003,5,-0.05,-0.58,1.25,-31.8028,170.702,102.98320000000001,175,75
2026-05-09 14:54:41.003,5,-0.45,-0.3,1.1,-21.512800000000002,189.802,-3.1568,175,75
2026-05-09 14:54:41.003,5,-0.78,-0.39,0.88,-17.9728,194.06199999999998,-98.54679999999999,175,75
2026-05-09 14:54:41.022,5,-0.95,-0.33,0.81,-15.722799999999998,185.522,-178.2568,175,75
2026-05-09 14:54:41.032,5,-0.89,-0.32,0.84,-15.252799999999999,167.632,-236.4968,175,75
2026-05-09 14:54:41.041,5,-0.71,-0.15,1.02,-17.9628,143.862,-251.4468,175,75
2026-05-09 14:54:41.053,5,-0.41,0.02,1.3,-22.7928,103.442,-251.4468,175,75
2026-05-09 14:54:41.081,5,-0.36,0.11,1.11,-34.422799999999995,27.941999999999997,79.2532,175,75
2026-05-09 14:54:41.095,5,-0.43,0.07,1.15,-33.422799999999995,15.562,105.6632,175,75
2026-05-09 14:54:41.095,5,-0.48,0.03,1.19,-35.8328,-7.638,113.17320000000001,175,75
2026-05-09 14:54:41.106,5,-0.46,-0.08,1.18,-39.8028,-33.248,103.5532,175,75
2026-05-09 14:54:41.106,5,-0.47,-0.09,1.11,-41.4728,-55.147999999999996,87.6832,175,75
2026-05-09 14:54:41.170,5,-0.34,-0.26,0.97,-36.0028,-66.11800000000001,70.0032,175,75
2026-05-09 14:54:41.181,5,-0.28,-0.29,0.87,-23.3428,-67.42800000000001,54.6932,175,75
2026-05-09 14:54:41.198,5,-0.22,-0.27,0.82,-9.8828,-62.367999999999995,41.493199999999995,175,75
2026-05-09 14:54:41.247,5,-0.17,-0.22,0.79,-1.0728,-55.397999999999996,33.603199999999994,175,75
2026-05-09 14:54:41.262,5,-0.11,-0.15,0.8,1.1872,-49.318,32.9632,175,75
2026-05-09 14:54:41.264,5,-0.06,-0.12,0.78,-0.2528,-44.818,38.3232,175,75
2026-05-09 14:54:41.275,5,-0.02,-0.1,0.77,-3.1528,-40.268,46.673199999999994,175,75
2026-05-09 14:54:41.287,5,0.01,-0.1,0.76,-4.9428,-35.908,52.1832,175,75
2026-05-09 14:54:41.287,5,0.02,-0.11,0.74,-4.5328,-29.428,54.673199999999994,175,75
2026-05-09 14:54:41.298,5,0.01,-0.12,0.73,-3.0028,-22.148000000000003,53.2332,175,75
2026-05-09 14:54:41.298,5,-0.08,-0.19,0.68,14.897200000000002,21.252,37.163199999999996,175,75
2026-05-09 14:54:41.310,5,-0.12,-0.18,0.7,19.847199999999997,31.922,35.673199999999994,175,75
2026-05-09 14:54:41.311,5,-0.16,-0.16,0.76,22.5372,40.382000000000005,33.4632,175,75
2026-05-09 14:54:41.311,5,-0.19,-0.14,0.8,23.4572,45.802,31.7632,175,75
2026-05-09 14:54:41.355,5,-0.37,-0.11,1.08,10.997200000000001,52.232,37.383199999999995,175,75
2026-05-09 14:54:41.399,5,-0.47,-0.11,1.15,6.8172,52.992000000000004,33.423199999999994,175,75
2026-05-09 14:54:41.410,5,-0.52,-0.11,1.15,4.7572,49.862,27.8532,175,75
2026-05-09 14:54:41.424,5,-0.56,-0.14,1.17,3.7971999999999997,43.152,21.7432,175,75
2026-05-09 14:54:41.440,5,-0.59,-0.16,1.19,2.3672,36.212,15.9632,175,75
2026-05-09 14:54:41.450,5,-0.64,-0.18,1.21,2.8072,29.092,5.3932,175,75
2026-05-09 14:54:41.450,5,-0.68,-0.16,1.21,1.6372,22.302,-8.056799999999999,175,75
2026-05-09 14:54:41.462,5,-0.71,-0.14,1.23,-3.0228,13.212,-22.7868,175,75
2026-05-09 14:54:41.488,5,-0.71,-0.13,1.2,-8.3128,3.9619999999999997,-36.756800000000005,175,75
2026-05-09 14:54:41.488,5,-0.66,-0.17,1.17,-8.582799999999999,-3.138,-47.6768,175,75
2026-05-09 14:54:41.488,5,-0.56,-0.17,1.2,-4.6228,-7.418,-51.0168,175,75
2026-05-09 14:54:41.501,5,-0.5,-0.13,1.27,-1.2128,-7.978,-52.336800000000004,175,75
2026-05-09 14:54:41.510,5,-0.39,-0.04,1.39,-5.2328,-5.428,-47.3768,175,75
2026-05-09 14:54:41.510,5,-0.26,0.04,1.55,-20.1828,-0.4880000000000002,-29.2868,175,75
2026-05-09 14:54:41.515,5,-0.27,0.0,1.56,-33.5128,7.442,-11.556799999999999,175,75
2026-05-09 14:54:41.528,5,-0.36,-0.1,1.53,-31.3128,15.982000000000001,-7.2168,175,75
2026-05-09 14:54:41.528,5,-0.42,-0.02,1.61,-27.5928,20.311999999999998,-9.9068,175,75
2026-05-09 14:54:41.528,5,-0.49,0.11,1.73,-27.4328,10.832,-17.9768,175,75
2026-05-09 14:54:41.548,5,-0.49,0.21,1.77,-28.2328,-5.298,-28.6268,175,75
2026-05-09 14:54:41.548,5,-0.41,0.32,1.72,-33.5928,-20.278000000000002,-28.776799999999998,175,75
2026-05-09 14:54:41.553,5,-0.23,-0.16,1.13,-36.5028,-33.748,77.95320000000001,175,75
2026-05-09 14:54:41.567,5,-0.26,-0.28,1.05,-28.102800000000002,-41.408,118.7132,175,75
2026-05-09 14:54:41.578,5,-0.26,-0.19,1.1,-21.4528,-59.138,149.82319999999999,175,75
2026-05-09 14:54:41.590,5,-0.26,-0.47,0.98,-13.3028,-86.19800000000001,167.0632,175,75
2026-05-09 14:54:41.590,5,-0.28,-0.49,0.96,-8.262799999999999,-119.138,163.14319999999998,175,75
2026-05-09 14:54:41.599,5,-0.25,-0.52,0.87,-2.7928,-150.958,146.7732,175,75
2026-05-09 14:54:41.614,5,-0.16,-0.55,0.73,6.7972,-169.978,113.2632,175,75
2026-05-09 14:54:41.619,5,-0.04,-0.55,0.57,21.327199999999998,-177.308,76.73320000000001,175,75
2026-05-09 14:54:41.643,5,0.19,-0.34,0.45,48.4872,-156.62800000000001,4.8232,175,75
2026-05-09 14:54:41.655,5,0.32,-0.13,0.46,48.6972,-128.59799999999998,-33.5368,175,75
2026-05-09 14:54:41.655,5,0.43,0.02,0.48,40.1672,-92.958,-69.3868,175,75
2026-05-09 14:54:41.676,5,0.75,0.25,0.64,15.5572,18.212,-130.88680000000002,175,75
2026-05-09 14:54:41.676,5,0.82,0.35,0.76,6.0672,71.77199999999999,-132.5068,175,75
2026-05-09 14:54:41.688,5,0.88,0.34,0.88,1.6172,117.71199999999999,-108.4468,175,75
2026-05-09 14:54:41.701,5,0.61,0.57,1.2,-19.192800000000002,179.792,-16.4168,175,75
2026-05-09 14:54:41.711,5,0.33,0.46,1.21,-36.922799999999995,194.802,28.5132,175,75
2026-05-09 14:54:41.722,5,0.05,0.33,1.15,-48.992799999999995,201.672,68.67320000000001,175,75
