Time,ID,Ax,Ay,Az,Gx,Gy,Gz,Height,Weight
2026-05-09 14:44:46.044,5,0.01,-0.22,1.09,18.495,33.4484,-39.137600000000006,175,75
2026-05-09 14:44:46.044,5,-0.0,-0.21,1.11,18.105,33.358399999999996,-40.7376,175,75
2026-05-09 14:44:46.057,5,0.01,-0.19,1.16,18.015,30.678399999999996,-41.677600000000005,175,75
2026-05-09 14:44:46.087,5,0.13,-0.03,1.28,13.405,18.9184,-40.457600000000006,175,75
2026-05-09 14:44:46.098,5,0.13,0.01,1.28,10.115,19.508399999999998,-41.5876,175,75
2026-05-09 14:44:46.113,5,0.12,0.04,1.29,6.755,19.5884,-42.4776,175,75
2026-05-09 14:44:46.125,5,0.07,0.04,1.32,-0.5850000000000002,14.2984,-40.2976,175,75
2026-05-09 14:44:46.152,5,-0.0,-0.07,1.34,-5.085,2.8084000000000002,-41.747600000000006,175,75
2026-05-09 14:44:46.173,5,-0.04,-0.12,1.33,0.7349999999999999,-16.1016,-51.397600000000004,175,75
2026-05-09 14:44:46.173,5,-0.03,-0.1,1.3,3.075,-27.7016,-56.457600000000006,175,75
2026-05-09 14:44:46.184,5,-0.01,-0.09,1.24,5.595,-38.571600000000004,-61.1576,175,75
2026-05-09 14:44:46.203,5,0.01,-0.07,1.17,8.465,-46.0316,-67.74759999999999,175,75
2026-05-09 14:44:46.213,5,0.04,-0.02,1.1,10.275,-51.2916,-75.0376,175,75
2026-05-09 14:44:46.223,5,0.09,0.05,1.04,9.405,-54.5916,-78.5576,175,75
2026-05-09 14:44:46.223,5,0.16,0.11,0.95,7.435,-52.3116,-77.7076,175,75
2026-05-09 14:44:46.255,5,0.2,0.25,0.81,2.565,-21.9316,-74.43759999999999,175,75
2026-05-09 14:44:46.267,5,0.18,0.33,0.81,0.004999999999999893,-8.8316,-74.07759999999999,175,75
2026-05-09 14:44:46.278,5,0.13,0.26,0.81,-0.635,1.9983999999999997,-72.35759999999999,175,75
2026-05-09 14:44:46.290,5,0.02,0.33,0.85,4.755,9.228399999999999,-78.5676,175,75
2026-05-09 14:44:46.318,5,-0.01,0.43,0.93,4.305,14.2884,-86.46759999999999,175,75
2026-05-09 14:44:46.332,5,-0.01,0.43,0.94,1.665,19.8384,-78.63759999999999,175,75
2026-05-09 14:44:46.343,5,-0.02,0.42,0.94,-5.495,25.9784,-61.147600000000004,175,75
2026-05-09 14:44:46.356,5,-0.05,0.38,0.93,-12.455,30.648400000000002,-35.927600000000005,175,75
2026-05-09 14:44:46.362,5,-0.05,0.34,0.96,-18.035,31.928399999999996,-3.8076,175,75
2026-05-09 14:44:46.375,5,-0.07,0.28,0.98,-24.445,30.3384,32.0224,175,75
2026-05-09 14:44:46.375,5,-0.07,0.2,1.0,-30.395000000000003,26.9184,65.1924,175,75
2026-05-09 14:44:46.397,5,0.07,-0.04,1.05,-35.695,19.2484,127.71240000000002,175,75
2026-05-09 14:44:46.408,5,-0.03,-0.08,1.12,-34.015,12.4084,148.39239999999998,175,75
2026-05-09 14:44:46.429,5,-0.27,-0.5,1.25,-16.675,-22.3316,86.28240000000001,175,75
2026-05-09 14:44:46.440,5,-0.14,-0.56,1.27,-10.295,-28.9216,7.932400000000001,175,75
2026-05-09 14:44:46.464,5,0.24,-0.25,1.14,13.895,10.968399999999999,-77.1176,175,75
2026-05-09 14:44:46.464,5,0.23,0.03,1.19,16.365000000000002,13.7484,-74.9176,175,75
2026-05-09 14:44:46.477,5,0.18,0.16,1.17,11.515,18.938399999999998,-69.0376,175,75
2026-05-09 14:44:46.483,5,0.12,0.17,1.16,6.095,22.4684,-59.3676,175,75
2026-05-09 14:44:46.494,5,0.07,0.2,1.18,4.0649999999999995,19.9084,-44.967600000000004,175,75
2026-05-09 14:44:46.509,5,0.03,0.2,1.21,3.715,13.848399999999998,-27.927599999999998,175,75
2026-05-09 14:44:46.524,5,-0.01,0.19,1.22,2.495,4.138400000000001,-11.567599999999999,175,75
2026-05-09 14:44:46.524,5,-0.04,0.18,1.23,1.4049999999999998,-8.3416,-0.5775999999999999,175,75
2026-05-09 14:44:46.540,5,0.01,0.07,1.16,-0.865,-19.8016,6.862400000000001,175,75
2026-05-09 14:44:46.550,5,0.08,-0.01,1.11,0.41500000000000004,-25.311600000000002,11.6724,175,75
2026-05-09 14:44:46.568,5,0.17,-0.09,1.05,2.435,-24.6116,8.1524,175,75
2026-05-09 14:44:46.578,5,0.19,-0.14,1.03,2.835,-19.2816,-1.3876,175,75
2026-05-09 14:44:46.590,5,0.19,-0.16,1.02,3.9749999999999996,-11.8016,-15.1976,175,75
2026-05-09 14:44:46.603,5,0.19,-0.15,1.02,5.725,-3.5916,-26.9176,175,75
2026-05-09 14:44:46.623,5,0.1,-0.05,1.05,7.465,7.6084,-30.1676,175,75
2026-05-09 14:44:46.644,5,0.01,0.03,1.09,4.585,5.308400000000001,-32.7676,175,75
2026-05-09 14:44:46.644,5,0.02,0.04,1.1,3.9749999999999996,2.5584000000000002,-31.1376,175,75
2026-05-09 14:44:46.658,5,0.04,0.04,1.09,3.955,0.25839999999999996,-26.7376,175,75
2026-05-09 14:44:46.671,5,0.06,0.05,1.1,4.595,-1.3116,-21.7376,175,75
2026-05-09 14:44:46.686,5,0.07,0.05,1.11,5.405,-2.2516000000000003,-18.9376,175,75
2026-05-09 14:44:46.686,5,0.07,0.06,1.12,5.505,-2.9016,-18.3976,175,75
2026-05-09 14:44:46.703,5,0.06,0.07,1.16,5.5649999999999995,-3.6116,-18.267599999999998,175,75
2026-05-09 14:44:46.712,5,0.06,0.08,1.18,5.145,-5.7716,-16.3876,175,75
2026-05-09 14:44:46.733,5,0.08,0.05,1.14,5.3149999999999995,-10.2516,-9.7076,175,75
2026-05-09 14:44:46.745,5,0.09,0.02,1.11,5.435,-10.9716,-8.5276,175,75
2026-05-09 14:44:46.745,5,0.11,-0.01,1.09,6.114999999999999,-10.2916,-8.8476,175,75
2026-05-09 14:44:46.763,5,0.12,-0.02,1.08,6.785,-8.3316,-9.5576,175,75
2026-05-09 14:44:46.787,5,0.12,0.01,1.09,6.005,-4.1616,-13.3276,175,75
2026-05-09 14:44:46.799,5,0.11,0.03,1.12,4.665,-3.5016,-10.637599999999999,175,75
2026-05-09 14:44:46.813,5,0.09,0.04,1.14,2.9749999999999996,-5.2716,-7.387599999999999,175,75
2026-05-09 14:44:46.825,5,0.14,0.04,1.14,1.4749999999999999,-8.6816,-2.8876,175,75
2026-05-09 14:44:46.845,5,0.15,0.04,1.13,0.6849999999999998,-8.6316,-0.5875999999999999,175,75
2026-05-09 14:44:46.845,5,0.15,0.03,1.14,0.5249999999999999,-9.6716,0.5424000000000002,175,75
2026-05-09 14:44:46.858,5,0.17,0.02,1.13,-0.405,-10.1516,0.3224,175,75
2026-05-09 14:44:46.869,5,0.2,0.01,1.11,-0.825,-9.0116,1.7324000000000002,175,75
2026-05-09 14:44:46.877,5,0.21,0.01,1.08,-1.035,-7.0916,4.4124,175,75
2026-05-09 14:44:46.893,5,0.21,0.01,1.06,-0.885,-5.4816,8.0724,175,75
2026-05-09 14:44:46.905,5,0.2,0.02,1.07,-1.3750000000000002,-3.8416,11.3924,175,75
2026-05-09 14:44:46.905,5,0.2,0.03,1.1,-1.7550000000000001,-5.541600000000001,16.2924,175,75
2026-05-09 14:44:46.916,5,0.22,0.05,1.13,-2.4050000000000002,-8.4116,24.802400000000002,175,75
2026-05-09 14:44:46.928,5,0.24,0.04,1.13,-2.205,-11.9816,33.7724,175,75
2026-05-09 14:44:46.939,5,0.22,0.02,1.11,-2.5250000000000004,-13.8116,39.0824,175,75
2026-05-09 14:44:46.953,5,0.23,-0.01,1.07,-2.665,-12.0616,40.5124,175,75
2026-05-09 14:44:46.964,5,0.21,-0.04,1.0,-0.125,-8.0116,39.752399999999994,175,75
2026-05-09 14:44:46.964,5,0.19,-0.04,0.95,3.625,-4.1916,38.072399999999995,175,75
2026-05-09 14:44:46.990,5,0.14,-0.07,0.93,9.125,0.9384000000000001,38.852399999999996,175,75
2026-05-09 14:44:47.003,5,0.11,-0.1,0.94,10.745,0.25839999999999996,36.892399999999995,175,75
2026-05-09 14:44:47.013,5,0.11,-0.11,0.96,11.575,-0.03160000000000007,31.9624,175,75
2026-05-09 14:44:47.035,5,0.15,-0.12,1.02,6.074999999999999,8.798399999999999,25.4524,175,75
2026-05-09 14:44:47.045,5,0.11,-0.12,1.04,4.785,11.738399999999999,25.6124,175,75
2026-05-09 14:44:47.056,5,0.09,-0.1,1.04,3.9450000000000003,11.5884,26.4124,175,75
2026-05-09 14:44:47.069,5,0.06,-0.11,1.04,5.555,10.6784,27.7124,175,75
2026-05-09 14:44:47.083,5,0.06,-0.09,1.06,6.975,8.148399999999999,28.2024,175,75
2026-05-09 14:44:47.091,5,0.07,-0.07,1.06,8.085,5.6684,29.1024,175,75
2026-05-09 14:44:47.106,5,0.12,-0.07,1.05,8.325,4.5184,33.392399999999995,175,75
2026-05-09 14:44:47.117,5,0.12,-0.1,1.04,8.985,5.718399999999999,32.8724,175,75
2026-05-09 14:44:47.130,5,0.13,-0.12,1.04,9.585,7.2783999999999995,30.5224,175,75
2026-05-09 14:44:47.140,5,0.13,-0.15,1.04,10.315,7.6584,27.9924,175,75
2026-05-09 14:44:47.153,5,0.12,-0.16,1.05,10.365,8.5184,24.1624,175,75
2026-05-09 14:44:47.154,5,0.12,-0.18,1.07,9.445,8.6784,20.0024,175,75
2026-05-09 14:44:47.167,5,0.12,-0.2,1.06,8.625,9.068399999999999,15.072400000000002,175,75
2026-05-09 14:44:47.174,5,0.11,-0.2,1.07,7.385,9.218399999999999,10.2424,175,75
2026-05-09 14:44:47.203,5,0.11,-0.22,1.07,4.245,8.8684,1.0124,175,75
2026-05-09 14:44:47.213,5,0.12,-0.23,1.07,3.665,9.3284,-2.8476,175,75
2026-05-09 14:44:47.213,5,0.11,-0.24,1.09,3.465,9.8484,-7.0076,175,75
2026-05-09 14:44:47.274,5,0.07,-0.13,1.08,5.375,5.738399999999999,-32.5576,175,75
2026-05-09 14:44:47.285,5,0.07,-0.1,1.06,3.825,5.8584,-37.4476,175,75
2026-05-09 14:44:47.297,5,0.05,-0.09,1.03,1.645,6.058399999999999,-43.2276,175,75
2026-05-09 14:44:47.310,5,0.04,-0.06,1.0,-0.7950000000000002,5.388400000000001,-49.4176,175,75
2026-05-09 14:44:47.323,5,0.09,-0.01,1.0,-5.265000000000001,3.5284,-53.3076,175,75
2026-05-09 14:44:47.323,5,0.16,0.01,0.99,-10.895,5.8484,-50.0876,175,75
2026-05-09 14:44:47.334,5,0.17,-0.02,1.03,-13.655000000000001,10.7784,-44.317600000000006,175,75
2026-05-09 14:44:47.351,5,0.13,-0.06,1.1,-13.935,13.4184,-44.0576,175,75
2026-05-09 14:44:47.362,5,0.12,-0.07,1.17,-11.665000000000001,14.738399999999999,-44.5476,175,75
2026-05-09 14:44:47.372,5,0.1,-0.03,1.25,-7.705,13.988399999999999,-42.2676,175,75
2026-05-09 14:44:47.384,5,0.06,0.07,1.28,0.9949999999999999,8.478399999999999,-39.427600000000005,175,75
2026-05-09 14:44:47.395,5,0.05,0.13,1.26,4.205,5.478400000000001,-39.287600000000005,175,75
2026-05-09 14:44:47.407,5,0.07,0.2,1.22,4.995,3.1884,-37.177600000000005,175,75
2026-05-09 14:44:47.417,5,0.08,0.21,1.16,5.735,3.6084,-32.3376,175,75
2026-05-09 14:44:47.431,5,0.08,0.22,1.14,4.915,4.4884,-25.9676,175,75
2026-05-09 14:44:47.435,5,0.03,0.21,1.14,3.795,4.3384,-21.3276,175,75
2026-05-09 14:44:47.449,5,0.01,0.16,1.13,0.955,0.28839999999999977,-17.4076,175,75
2026-05-09 14:44:47.460,5,-0.01,0.1,1.12,0.46499999999999986,-5.1616,-15.897599999999999,175,75
2026-05-09 14:44:47.474,5,0.04,0.06,1.07,-0.0050000000000001155,-13.7916,-19.9876,175,75
2026-05-09 14:44:47.484,5,0.08,0.07,1.06,-0.6950000000000001,-14.3316,-24.0476,175,75
2026-05-09 14:44:47.506,5,0.13,0.07,1.03,-5.065,-12.5716,-30.0076,175,75
2026-05-09 14:44:47.518,5,0.15,0.03,1.0,-5.735,-10.0016,-28.8076,175,75
2026-05-09 14:44:47.533,5,0.14,0.0,0.99,-3.295,-7.5116,-28.0076,175,75
2026-05-09 14:44:47.533,5,0.14,0.02,1.03,0.43499999999999983,-5.9916,-28.677599999999998,175,75
2026-05-09 14:44:47.565,5,0.1,0.11,1.09,9.215,0.3184,-22.677599999999998,175,75
2026-05-09 14:44:47.576,5,0.04,0.15,1.1,11.015,2.0383999999999998,-23.8076,175,75
2026-05-09 14:44:47.586,5,0.01,0.18,1.11,11.754999999999999,1.1684,-24.5576,175,75
2026-05-09 14:44:47.603,5,0.02,0.22,1.12,10.485,-0.9716,-23.7576,175,75
2026-05-09 14:44:47.603,5,0.04,0.22,1.13,8.025,-2.1916,-20.8076,175,75
2026-05-09 14:44:47.618,5,0.02,0.18,1.12,5.135,-2.4716,-21.2276,175,75
2026-05-09 14:44:47.627,5,0.02,0.14,1.11,2.865,-3.0116,-26.9776,175,75
2026-05-09 14:44:47.643,5,0.03,0.11,1.09,0.975,-3.1216,-33.3476,175,75
2026-05-09 14:44:47.654,5,0.06,0.05,1.06,1.145,-1.4816000000000003,-37.497600000000006,175,75
2026-05-09 14:44:47.665,5,0.05,0.03,1.04,2.3049999999999997,-0.8616000000000001,-40.317600000000006,175,75
2026-05-09 14:44:47.677,5,0.03,0.03,1.02,4.015,0.22839999999999971,-45.077600000000004,175,75
2026-05-09 14:44:47.687,5,0.03,0.07,1.0,5.675,1.8084000000000002,-49.0976,175,75
2026-05-09 14:44:47.698,5,0.04,0.11,1.02,6.755,3.3584,-50.6676,175,75
2026-05-09 14:44:47.722,5,0.03,0.19,1.06,6.035,6.8484,-51.3476,175,75
2026-05-09 14:44:47.732,5,0.03,0.21,1.08,5.215,8.5184,-50.5576,175,75
2026-05-09 14:44:47.743,5,0.02,0.23,1.09,4.385,10.388399999999999,-49.9376,175,75
2026-05-09 14:44:47.743,5,0.02,0.23,1.08,3.205,11.2484,-48.967600000000004,175,75
2026-05-09 14:44:47.754,5,-0.0,0.23,1.08,2.655,11.6884,-47.7776,175,75
2026-05-09 14:44:47.772,5,-0.02,0.23,1.07,2.355,12.1084,-47.2276,175,75
2026-05-09 14:44:47.793,5,-0.02,0.23,1.04,0.615,12.0984,-44.007600000000004,175,75
2026-05-09 14:44:47.803,5,-0.03,0.24,1.03,-0.575,12.3784,-41.287600000000005,175,75
2026-05-09 14:44:47.803,5,-0.02,0.23,1.02,-1.925,12.5984,-38.8476,175,75
2026-05-09 14:44:47.814,5,-0.01,0.23,1.02,-3.7250000000000005,12.5984,-35.457600000000006,175,75
2026-05-09 14:44:47.824,5,-0.0,0.22,1.02,-6.195,13.1184,-30.927599999999998,175,75
2026-05-09 14:44:47.846,5,0.01,0.18,1.03,-9.385,13.7484,-19.8776,175,75
2026-05-09 14:44:47.857,5,0.03,0.15,1.04,-9.845,13.708400000000001,-13.0976,175,75
2026-05-09 14:44:47.884,5,0.07,0.08,1.09,-10.525,13.958400000000001,0.7724000000000002,175,75
2026-05-09 14:44:47.884,5,0.07,0.06,1.12,-9.245000000000001,15.278399999999998,5.0824,175,75
2026-05-09 14:44:47.895,5,0.07,0.04,1.17,-8.525,16.0684,4.862400000000001,175,75
2026-05-09 14:44:47.906,5,0.07,0.02,1.2,-8.115,16.8184,1.4924,175,75
2026-05-09 14:44:47.933,5,0.05,0.03,1.22,-5.695,21.4184,-0.7276,175,75
2026-05-09 14:44:47.955,5,-0.05,0.13,1.24,-4.855,14.458400000000001,-5.9475999999999996,175,75
2026-05-09 14:44:47.974,5,-0.03,0.13,1.17,-6.6850000000000005,6.0283999999999995,-1.7176,175,75
2026-05-09 14:44:47.988,5,-0.02,0.11,1.15,-7.005000000000001,2.8284,1.6924000000000001,175,75
2026-05-09 14:44:47.997,5,0.0,0.09,1.12,-7.325000000000001,0.9083999999999999,2.3224000000000005,175,75
2026-05-09 14:44:48.013,5,0.02,0.07,1.08,-6.255000000000001,1.0284,1.2824,175,75
2026-05-09 14:44:48.013,5,0.03,0.09,1.06,-5.825,1.7784,0.6623999999999999,175,75
2026-05-09 14:44:48.031,5,0.03,0.09,1.05,-5.615,2.4183999999999997,1.7724000000000002,175,75
2026-05-09 14:44:48.049,5,0.04,0.09,1.02,-6.045,1.2483999999999997,8.7024,175,75
2026-05-09 14:44:48.059,5,0.04,0.08,1.0,-5.825,1.1284,12.3024,175,75
2026-05-09 14:44:48.070,5,0.04,0.06,1.0,-4.815,1.0084,15.122399999999999,175,75
2026-05-09 14:44:48.081,5,0.03,0.03,0.99,-2.4750000000000005,0.008399999999999963,17.5224,175,75
2026-05-09 14:44:48.093,5,0.03,0.01,0.98,-0.04500000000000015,-0.9916,18.4624,175,75
2026-05-09 14:44:48.097,5,0.04,0.0,0.98,2.485,-1.3116,17.7524,175,75
2026-05-09 14:44:48.113,5,0.05,0.0,0.98,3.355,-0.4616,16.1524,175,75
2026-05-09 14:44:48.128,5,0.07,0.01,1.01,3.2649999999999997,5.8484,11.7424,175,75
2026-05-09 14:44:48.143,5,0.06,0.0,1.03,2.945,10.138399999999999,10.4824,175,75
2026-05-09 14:44:48.153,5,0.03,-0.01,1.06,2.355,13.6784,7.932400000000001,175,75
2026-05-09 14:44:48.153,5,-0.0,-0.0,1.09,1.825,15.5684,4.3324,175,75
2026-05-09 14:44:48.164,5,-0.02,-0.0,1.12,1.005,15.6984,1.6324,175,75
2026-05-09 14:44:48.174,5,-0.04,0.0,1.15,-0.04500000000000015,14.398399999999999,-0.5875999999999999,175,75
2026-05-09 14:44:48.198,5,-0.07,0.01,1.16,-1.485,9.548399999999999,-5.4676,175,75
2026-05-09 14:44:48.213,5,-0.07,0.02,1.17,-1.655,7.2684,-8.0776,175,75
2026-05-09 14:44:48.213,5,-0.07,0.04,1.19,-2.335,4.868399999999999,-9.9576,175,75
2026-05-09 14:44:48.232,5,-0.07,0.05,1.2,-2.665,2.7583999999999995,-10.227599999999999,175,75
2026-05-09 14:44:48.246,5,-0.11,0.06,1.21,-3.6850000000000005,-1.4716,-9.9076,175,75
2026-05-09 14:44:48.258,5,-0.12,0.05,1.2,-2.115,-6.0616,-8.8476,175,75
2026-05-09 14:44:48.272,5,-0.13,0.06,1.19,-1.2750000000000001,-11.8016,-6.3476,175,75
2026-05-09 14:44:48.284,5,-0.11,0.07,1.16,-1.3150000000000002,-17.2916,-3.0876,175,75
2026-05-09 14:44:48.284,5,-0.09,0.07,1.14,-2.085,-21.811600000000002,-0.29759999999999986,175,75
2026-05-09 14:44:48.295,5,-0.06,0.06,1.12,-3.835,-25.7016,0.7724000000000002,175,75
2026-05-09 14:44:48.314,5,0.03,0.04,1.08,-6.345000000000001,-25.1616,0.4424000000000001,175,75
2026-05-09 14:44:48.328,5,0.06,0.02,1.06,-7.875,-21.4216,1.3224,175,75
2026-05-09 14:44:48.347,5,0.04,-0.01,1.07,-9.845,-14.361600000000001,-1.4176,175,75
2026-05-09 14:44:48.359,5,0.02,-0.03,1.07,-10.545,-13.4116,-3.0675999999999997,175,75
2026-05-09 14:44:48.393,5,0.0,-0.02,1.1,-11.285,-19.2516,-2.3076,175,75
2026-05-09 14:44:48.409,5,0.02,-0.01,1.11,-11.265,-22.2516,2.5024,175,75
2026-05-09 14:44:48.422,5,0.03,-0.0,1.11,-10.925,-21.5216,4.4323999999999995,175,75
2026-05-09 14:44:48.432,5,0.01,-0.0,1.11,-9.475,-20.2816,5.3424,175,75
2026-05-09 14:44:48.432,5,-0.02,0.01,1.12,-7.925000000000001,-19.8316,5.782400000000001,175,75
2026-05-09 14:44:48.444,5,-0.03,0.02,1.14,-6.885,-21.8716,7.122400000000001,175,75
2026-05-09 14:44:48.467,5,0.0,0.01,1.13,-2.9050000000000002,-28.4816,12.3824,175,75
2026-05-09 14:44:48.494,5,0.12,-0.04,1.02,0.955,-27.061600000000002,13.892400000000002,175,75
2026-05-09 14:44:48.506,5,0.17,-0.05,0.98,2.535,-22.9616,17.3324,175,75
2026-05-09 14:44:48.538,5,0.18,-0.08,0.87,5.555,0.7483999999999997,19.3524,175,75
2026-05-09 14:44:48.566,5,0.1,-0.1,0.94,4.245,17.5484,9.352400000000001,175,75
2026-05-09 14:44:48.587,5,0.03,-0.16,1.04,3.275,20.938399999999998,7.212400000000001,175,75
2026-05-09 14:44:48.600,5,0.01,-0.23,1.04,2.205,21.3584,8.4224,175,75
2026-05-09 14:44:48.624,5,-0.04,-0.2,1.12,10.004999999999999,14.2984,-7.1975999999999996,175,75
2026-05-09 14:44:48.655,5,-0.01,-0.08,1.13,8.625,11.6184,-5.9076,175,75
2026-05-09 14:44:48.673,5,-0.02,-0.08,1.14,7.795,10.9084,-4.2276,175,75
2026-05-09 14:44:48.707,5,0.01,-0.08,1.08,7.005,13.8784,-9.6176,175,75
2026-05-09 14:44:48.729,5,-0.0,-0.06,1.11,7.395,12.8284,-11.477599999999999,175,75
2026-05-09 14:44:48.739,5,0.0,-0.03,1.14,7.185,10.308399999999999,-12.1976,175,75
2026-05-09 14:44:48.751,5,0.02,0.01,1.16,6.285,8.4284,-12.657599999999999,175,75
2026-05-09 14:44:48.763,5,0.03,0.04,1.17,5.055,7.888399999999999,-12.8276,175,75
2026-05-09 14:44:48.772,5,0.04,0.06,1.17,3.445,8.3684,-12.5876,175,75
2026-05-09 14:44:48.783,5,0.04,0.06,1.17,-0.15500000000000003,7.538399999999999,-7.7676,175,75
2026-05-09 14:44:48.795,5,0.01,0.05,1.16,-1.2049999999999998,7.648399999999999,-5.2376000000000005,175,75
2026-05-09 14:44:48.806,5,-0.01,0.03,1.15,-2.0250000000000004,6.898399999999999,-3.6976,175,75
2026-05-09 14:44:48.820,5,-0.02,0.01,1.14,-2.005,5.0884,-2.8876,175,75
2026-05-09 14:44:48.831,5,-0.02,0.0,1.12,-1.445,3.2183999999999995,-1.9476,175,75
2026-05-09 14:44:48.843,5,-0.02,0.0,1.1,-0.7350000000000001,1.2784,-1.2075999999999998,175,75
2026-05-09 14:44:48.854,5,-0.01,0.01,1.08,0.135,0.2984,-1.0175999999999998,175,75
2026-05-09 14:44:48.866,5,0.0,0.04,1.07,0.7449999999999999,1.7983999999999996,-0.8475999999999999,175,75
2026-05-09 14:44:48.927,5,0.02,0.01,1.05,1.265,0.4683999999999999,0.49239999999999995,175,75
2026-05-09 14:44:48.944,5,0.02,0.01,1.05,1.885,-0.12159999999999993,-0.28759999999999986,175,75
2026-05-09 14:44:48.955,5,0.03,0.02,1.07,1.805,-1.1616000000000002,0.35240000000000027,175,75
2026-05-09 14:44:48.972,5,0.03,0.03,1.06,1.7449999999999999,-1.6916000000000002,0.6524000000000001,175,75
2026-05-09 14:44:48.984,5,0.03,0.04,1.05,1.655,-1.8616000000000001,2.0324000000000004,175,75
2026-05-09 14:44:49.006,5,0.02,0.03,1.04,4.215,-1.6516000000000002,4.042400000000001,175,75
2026-05-09 14:44:49.016,5,0.02,0.03,1.04,5.455,-0.5416000000000001,4.032400000000001,175,75
2026-05-09 14:44:49.029,5,0.03,0.03,1.07,6.205,1.2584,3.2824000000000004,175,75
2026-05-09 14:44:49.042,5,0.02,0.03,1.08,6.574999999999999,3.7883999999999998,3.0924,175,75
2026-05-09 14:44:49.048,5,0.0,0.02,1.11,7.055,5.458399999999999,2.3824,175,75
2026-05-09 14:44:49.072,5,-0.04,0.03,1.15,5.625,5.3984000000000005,-0.4476,175,75
2026-05-09 14:44:49.072,5,-0.05,0.03,1.15,4.715,2.8383999999999996,-1.4176,175,75
2026-05-09 14:44:49.096,5,-0.03,0.03,1.15,2.225,-2.2416,-0.21760000000000002,175,75
2026-05-09 14:44:49.108,5,-0.02,0.03,1.12,1.7249999999999999,-4.0616,-0.4975999999999998,175,75
2026-05-09 14:44:49.118,5,0.01,0.02,1.11,1.4849999999999999,-4.3216,-1.1676,175,75
2026-05-09 14:44:49.128,5,0.02,0.02,1.1,1.545,-3.4316,-0.8976,175,75
2026-05-09 14:44:49.143,5,0.03,0.03,1.1,1.545,-2.3216,-0.41759999999999997,175,75
2026-05-09 14:44:49.152,5,0.02,0.04,1.11,1.755,-1.2416,-0.22760000000000002,175,75
2026-05-09 14:44:49.169,5,-0.01,0.05,1.12,0.825,-2.5116,1.4024,175,75
2026-05-09 14:44:49.180,5,-0.01,0.04,1.1,0.405,-3.8816,2.5924,175,75
2026-05-09 14:44:49.191,5,-0.01,0.04,1.1,0.03499999999999992,-5.2316,3.3324000000000003,175,75
2026-05-09 14:44:49.213,5,0.02,0.01,1.08,-0.385,-4.5316,2.5223999999999998,175,75
2026-05-09 14:44:49.213,5,0.02,0.0,1.08,-0.5850000000000002,-3.1016000000000004,1.8524000000000003,175,75
2026-05-09 14:44:49.225,5,0.02,-0.0,1.08,-0.7950000000000002,-2.0616000000000003,0.7324000000000002,175,75
2026-05-09 14:44:49.249,5,0.0,-0.02,1.1,-0.30499999999999994,-1.4516,-1.4575999999999998,175,75
2026-05-09 14:44:49.259,5,-0.0,-0.02,1.1,0.16500000000000004,-1.5116,-2.9076,175,75
2026-05-09 14:44:49.283,5,0.0,0.0,1.09,0.9149999999999999,-2.1516,-5.0076,175,75
2026-05-09 14:44:49.294,5,0.01,0.01,1.09,1.005,-2.6516,-5.4475999999999996,175,75
2026-05-09 14:44:49.304,5,0.01,0.01,1.08,1.1549999999999998,-2.3516,-5.9276,175,75
2026-05-09 14:44:49.304,5,0.01,0.02,1.07,1.275,-2.0816,-6.127599999999999,175,75
2026-05-09 14:44:49.315,5,0.01,0.03,1.07,1.365,-1.5316,-5.7476,175,75
2026-05-09 14:44:49.331,5,0.02,0.03,1.07,1.265,-0.7816000000000001,-5.2376000000000005,175,75
2026-05-09 14:44:49.343,5,0.01,0.04,1.07,1.045,-0.3216000000000001,-4.4276,175,75
2026-05-09 14:44:49.343,5,0.02,0.04,1.07,0.9949999999999999,-0.7416,-3.9375999999999998,175,75
2026-05-09 14:44:49.359,5,0.02,0.03,1.08,0.565,-1.0016,-3.3276,175,75
2026-05-09 14:44:49.369,5,0.02,0.02,1.08,0.635,-1.4016000000000002,-3.4176,175,75
2026-05-09 14:44:49.407,5,0.03,0.04,1.08,1.7249999999999999,-0.22160000000000002,-5.0176,175,75
2026-05-09 14:44:49.435,5,0.0,0.02,1.12,2.265,0.7683999999999997,-4.2676,175,75
2026-05-09 14:44:49.457,5,-0.02,0.03,1.11,2.145,-1.7816,-4.1876,175,75
2026-05-09 14:44:49.467,5,-0.01,0.03,1.11,1.6949999999999998,-2.8616,-4.1776,175,75
2026-05-09 14:44:49.478,5,0.01,0.03,1.09,1.015,-3.5516,-4.0876,175,75
2026-05-09 14:44:49.493,5,0.02,0.03,1.08,0.8749999999999999,-2.3716,-4.4076,175,75
2026-05-09 14:44:49.502,5,0.01,0.03,1.09,0.655,-1.8816000000000002,-4.1676,175,75
2026-05-09 14:44:49.513,5,-0.01,0.03,1.09,0.985,-2.6516,-3.8076,175,75
2026-05-09 14:44:49.513,5,-0.01,0.03,1.1,0.855,-3.7516,-3.4576000000000002,175,75
2026-05-09 14:44:49.525,5,-0.0,0.04,1.1,0.865,-4.5216,-3.6276,175,75
2026-05-09 14:44:49.537,5,0.01,0.04,1.09,0.645,-5.4516,-3.4375999999999998,175,75
2026-05-09 14:44:49.547,5,0.02,0.03,1.08,0.07499999999999996,-4.881600000000001,-3.3175999999999997,175,75
2026-05-09 14:44:49.563,5,0.02,0.03,1.08,-0.17500000000000004,-4.4216,-3.3876,175,75
2026-05-09 14:44:49.563,5,0.03,0.02,1.08,-0.19500000000000006,-3.7216,-4.3576,175,75
2026-05-09 14:44:49.577,5,0.03,0.02,1.09,-0.30499999999999994,-3.5816,-4.787599999999999,175,75
2026-05-09 14:44:49.612,5,0.02,0.03,1.1,-0.635,-3.3316,-4.8076,175,75
2026-05-09 14:44:49.612,5,0.02,0.03,1.09,-0.6650000000000003,-3.5016,-4.9076,175,75
2026-05-09 14:44:49.635,5,0.02,0.03,1.1,-0.6850000000000003,-3.6016000000000004,-4.7476,175,75
2026-05-09 14:44:49.635,5,0.02,0.03,1.09,-0.42500000000000004,-3.5016,-4.8576,175,75
2026-05-09 14:44:49.647,5,0.02,0.03,1.1,-0.19500000000000006,-4.0316,-4.5176,175,75
2026-05-09 14:44:49.667,5,0.03,0.03,1.09,0.31499999999999995,-4.2816,-4.2276,175,75
2026-05-09 14:44:49.680,5,0.03,0.03,1.08,0.4949999999999999,-4.1516,-4.1476,175,75
2026-05-09 14:44:49.714,5,0.02,0.02,1.09,0.985,-2.5816,-5.2476,175,75
2026-05-09 14:44:49.714,5,0.02,0.03,1.09,0.8749999999999999,-2.4116,-5.7776,175,75
2026-05-09 14:44:49.724,5,0.02,0.03,1.09,0.985,-2.9116,-5.877599999999999,175,75
2026-05-09 14:44:49.760,5,0.02,0.02,1.07,0.31499999999999995,-3.2516,-6.9376,175,75
2026-05-09 14:44:49.760,5,0.03,0.03,1.06,0.21499999999999986,-2.9316,-7.4876000000000005,175,75
2026-05-09 14:44:49.770,5,0.03,0.03,1.05,0.19499999999999984,-1.5616,-7.5176,175,75
2026-05-09 14:44:49.782,5,0.02,0.02,1.05,0.14500000000000002,-1.0416,-7.5876,175,75
2026-05-09 14:44:49.782,5,0.02,0.02,1.05,0.5549999999999999,-0.07160000000000011,-8.3076,175,75
2026-05-09 14:44:49.819,5,0.02,0.02,1.06,2.005,0.9683999999999999,-8.887599999999999,175,75
2026-05-09 14:44:49.830,5,0.02,0.03,1.07,1.9449999999999998,1.5684,-9.1776,175,75
2026-05-09 14:44:49.856,5,0.01,0.05,1.1,1.935,1.3083999999999998,-8.7176,175,75
2026-05-09 14:44:49.866,5,0.01,0.05,1.1,2.285,0.4583999999999997,-7.7676,175,75
2026-05-09 14:44:49.876,5,0.02,0.05,1.1,2.245,0.18840000000000012,-6.8476,175,75
2026-05-09 14:44:49.890,5,0.02,0.05,1.1,2.105,0.2984,-6.807600000000001,175,75
2026-05-09 14:44:49.904,5,0.01,0.02,1.11,2.985,0.23839999999999995,-7.1576,175,75
2026-05-09 14:44:49.916,5,0.01,0.03,1.1,3.455,-0.3316000000000001,-8.137599999999999,175,75
2026-05-09 14:44:49.927,5,0.01,0.04,1.11,2.945,-1.0616,-7.797599999999999,175,75
2026-05-09 14:44:49.936,5,0.01,0.03,1.11,2.655,-1.1316000000000002,-7.787599999999999,175,75
2026-05-09 14:44:49.943,5,0.01,0.04,1.11,2.565,-1.9116,-7.7376000000000005,175,75
2026-05-09 14:44:49.983,5,0.02,0.06,1.1,1.4649999999999999,-2.6416,-6.977600000000001,175,75
2026-05-09 14:44:49.983,5,0.02,0.06,1.1,0.9149999999999999,-2.4316,-6.3276,175,75
2026-05-09 14:44:49.994,5,0.03,0.05,1.1,0.7549999999999999,-2.4616000000000002,-5.7776,175,75
2026-05-09 14:44:50.004,5,0.02,0.04,1.08,0.595,-1.8716000000000002,-5.787599999999999,175,75
2026-05-09 14:44:50.028,5,0.02,0.04,1.08,0.41500000000000004,-2.2816,-5.037599999999999,175,75
2026-05-09 14:44:50.043,5,0.02,0.04,1.08,0.655,-2.6416,-4.7376000000000005,175,75
2026-05-09 14:44:50.054,5,0.02,0.03,1.09,0.575,-2.6316,-4.5776,175,75
2026-05-09 14:44:50.086,5,0.03,0.03,1.08,1.335,-1.7416,-4.5976,175,75
2026-05-09 14:44:50.097,5,0.02,0.03,1.09,1.625,-1.7916,-4.4676,175,75
2026-05-09 14:44:50.124,5,0.03,0.04,1.08,2.135,-1.8616000000000001,-4.5176,175,75
2026-05-09 14:44:50.124,5,0.03,0.05,1.09,1.545,-1.5116,-3.9576000000000002,175,75
2026-05-09 14:44:50.134,5,0.03,0.05,1.08,1.4949999999999999,-1.2516,-4.037599999999999,175,75
2026-05-09 14:44:50.153,5,0.04,0.05,1.08,1.205,-0.4716,-3.5176,175,75
2026-05-09 14:44:50.153,5,0.03,0.04,1.09,0.675,-0.38160000000000016,-3.9076,175,75
2026-05-09 14:44:50.165,5,0.03,0.04,1.09,0.955,-0.38160000000000016,-3.9375999999999998,175,75
2026-05-09 14:44:50.177,5,0.02,0.03,1.09,0.6949999999999998,-0.5516000000000001,-4.0676,175,75
2026-05-09 14:44:50.193,5,0.03,0.04,1.09,0.945,-0.5916000000000001,-4.0076,175,75
2026-05-09 14:44:50.193,5,0.03,0.03,1.08,1.045,-0.7516,-3.6676,175,75
2026-05-09 14:44:50.212,5,0.03,0.03,1.08,1.305,-0.3416000000000001,-3.5076,175,75
2026-05-09 14:44:50.226,5,0.03,0.03,1.09,1.2349999999999999,-0.12159999999999993,-3.7276,175,75
2026-05-09 14:44:50.237,5,0.03,0.03,1.08,1.415,-0.15160000000000018,-3.1576,175,75
2026-05-09 14:44:50.253,5,0.04,0.04,1.08,1.535,-0.19160000000000021,-2.5476,175,75
2026-05-09 14:44:50.264,5,0.04,0.04,1.09,1.515,-0.2016,-1.7576,175,75
2026-05-09 14:44:50.276,5,0.04,0.04,1.07,1.4449999999999998,-0.7716000000000001,-1.6876,175,75
2026-05-09 14:44:50.303,5,0.04,0.04,1.07,0.7349999999999999,-0.25160000000000027,-2.6776,175,75
2026-05-09 14:44:50.303,5,0.04,0.05,1.07,0.385,-0.8316000000000001,-2.8776,175,75
2026-05-09 14:44:50.315,5,0.05,0.05,1.07,-0.07499999999999996,-1.0716,-3.0576,175,75
2026-05-09 14:44:50.328,5,0.06,0.06,1.06,-0.7550000000000001,0.3483999999999998,-2.8476,175,75
2026-05-09 14:44:50.353,5,0.01,0.03,1.08,-1.305,1.6784,-3.0076,175,75
2026-05-09 14:44:50.357,5,-0.0,0.02,1.08,-1.175,0.4283999999999999,-3.2076000000000002,175,75
2026-05-09 14:44:50.373,5,0.0,0.01,1.1,-0.595,-0.4216000000000002,-3.5576,175,75
2026-05-09 14:44:50.384,5,0.02,0.02,1.11,0.22499999999999987,-2.1616,-3.6276,175,75
2026-05-09 14:44:50.403,5,0.03,0.02,1.12,0.2749999999999999,-2.4016,-3.8076,175,75
2026-05-09 14:44:50.417,5,0.02,0.03,1.11,0.47499999999999987,-1.8516000000000001,-4.3976,175,75
2026-05-09 14:44:50.448,5,0.02,0.05,1.08,-0.44500000000000006,-1.6616,-4.3976,175,75
2026-05-09 14:44:50.458,5,0.02,0.04,1.08,-0.8950000000000002,-1.0816000000000001,-4.037599999999999,175,75
2026-05-09 14:44:50.465,5,0.01,0.04,1.09,-1.015,-1.0916000000000001,-3.8676,175,75
2026-05-09 14:44:50.480,5,0.01,0.04,1.09,-0.6650000000000003,-1.7516,-3.1676,175,75
2026-05-09 14:44:50.493,5,0.01,0.04,1.1,-0.27500000000000013,-2.0316,-2.7876,175,75
2026-05-09 14:44:50.504,5,0.03,0.05,1.09,0.11499999999999999,-2.1516,-2.0176,175,75
2026-05-09 14:44:50.520,5,0.02,0.05,1.09,0.17500000000000004,-2.2516000000000003,-1.4975999999999998,175,75
2026-05-09 14:44:50.538,5,0.02,0.04,1.09,-0.11499999999999999,-2.5116,-1.4876,175,75
2026-05-09 14:44:50.538,5,0.03,0.04,1.09,0.05499999999999994,-2.2916000000000003,-1.3876,175,75
2026-05-09 14:44:50.548,5,0.03,0.04,1.09,-0.21500000000000008,-2.2016,-1.3476,175,75
2026-05-09 14:44:50.572,5,0.03,0.04,1.09,-0.08499999999999996,-1.6416,-0.7176,175,75
2026-05-09 14:44:50.572,5,0.03,0.04,1.09,-0.14500000000000002,-1.3216,-0.6976,175,75
2026-05-09 14:44:50.588,5,0.03,0.04,1.08,-0.2849999999999999,-1.1716000000000002,-0.41759999999999997,175,75
2026-05-09 14:44:50.598,5,0.02,0.05,1.1,0.135,-1.2616,0.16239999999999988,175,75
2026-05-09 14:44:50.612,5,0.02,0.04,1.09,0.09499999999999997,-2.0416,0.26239999999999997,175,75
2026-05-09 14:44:50.624,5,0.02,0.04,1.09,-0.405,-3.7816,0.8324000000000003,175,75
2026-05-09 14:44:50.643,5,0.03,0.03,1.08,-0.7049999999999998,-3.7716000000000003,0.9024000000000001,175,75
2026-05-09 14:44:50.651,5,0.04,0.03,1.07,-0.7350000000000001,-3.1016000000000004,0.9523999999999999,175,75
2026-05-09 14:44:50.663,5,0.03,0.02,1.07,-0.5650000000000002,-2.5016000000000003,0.11240000000000006,175,75
2026-05-09 14:44:50.688,5,0.03,0.02,1.08,0.7649999999999999,-0.7216,-1.9476,175,75
2026-05-09 14:44:50.699,5,0.03,0.02,1.09,0.625,-0.3416000000000001,-2.4175999999999997,175,75
2026-05-09 14:44:50.714,5,0.02,0.04,1.09,0.2849999999999999,-0.6416000000000002,-2.2176,175,75
2026-05-09 14:44:50.724,5,0.02,0.04,1.1,-0.345,-0.8616000000000001,-2.1376,175,75
2026-05-09 14:44:50.761,5,0.03,0.04,1.1,-0.405,-1.0916000000000001,-1.9276,175,75
2026-05-09 14:44:50.773,5,0.03,0.04,1.1,-0.405,-1.0616,-1.7775999999999998,175,75
2026-05-09 14:44:50.773,5,0.02,0.04,1.1,-0.125,-0.8616000000000001,-2.0476,175,75
2026-05-09 14:44:50.789,5,0.02,0.04,1.09,-0.08499999999999996,-0.7916000000000001,-1.7076,175,75
2026-05-09 14:44:50.814,5,0.03,0.04,1.09,0.385,-1.4716,-0.037599999999999856,175,75
2026-05-09 14:44:50.838,5,0.04,0.03,1.1,-0.2550000000000001,-0.8116000000000001,0.2524000000000002,175,75
2026-05-09 14:44:50.850,5,0.04,0.02,1.1,-0.405,-0.2816000000000001,0.5424000000000002,175,75
2026-05-09 14:44:50.863,5,0.03,0.02,1.09,0.18499999999999983,-0.8016000000000001,0.4323999999999999,175,75
2026-05-09 14:44:50.863,5,0.03,0.04,1.09,0.7149999999999999,-0.9916,0.6024000000000003,175,75
2026-05-09 14:44:50.877,5,0.04,0.04,1.08,0.575,-1.2816,0.8724000000000003,175,75
2026-05-09 14:44:50.889,5,0.03,0.05,1.09,0.605,-1.2816,1.2424,175,75
2026-05-09 14:44:50.900,5,0.04,0.05,1.08,0.385,-1.3516000000000001,1.7824,175,75
2026-05-09 14:44:50.912,5,0.05,0.05,1.08,0.6949999999999998,-0.8716000000000002,2.6424,175,75
2026-05-09 14:44:50.923,5,0.04,0.05,1.09,0.43499999999999983,-0.2816000000000001,3.1324,175,75
2026-05-09 14:44:50.923,5,0.04,0.04,1.1,0.46499999999999986,-0.14159999999999995,3.3124,175,75
2026-05-09 14:44:50.934,5,0.05,0.04,1.11,0.30499999999999994,-0.4516,3.9423999999999997,175,75
2026-05-09 14:44:50.947,5,0.05,0.04,1.12,0.31499999999999995,-0.3016000000000001,4.0024,175,75
2026-05-09 14:44:50.963,5,0.05,0.03,1.11,0.30499999999999994,-0.4416,4.2424,175,75
2026-05-09 14:44:50.974,5,0.06,0.03,1.11,0.44499999999999984,-0.0416000000000003,4.2324,175,75
2026-05-09 14:44:50.984,5,0.05,0.04,1.12,0.43499999999999983,-0.05160000000000009,4.2524,175,75
2026-05-09 14:44:50.996,5,0.04,0.05,1.12,0.23499999999999988,-0.8016000000000001,4.6823999999999995,175,75
2026-05-09 14:44:51.023,5,0.06,0.06,1.08,-1.0450000000000002,-2.5716,6.8124,175,75
2026-05-09 14:44:51.037,5,0.07,0.05,1.06,-1.075,-2.1216,7.1524,175,75
2026-05-09 14:44:51.046,5,0.07,0.06,1.06,-1.2449999999999999,-1.1216000000000002,7.9124,175,75
2026-05-09 14:44:51.059,5,0.06,0.06,1.06,-1.345,-0.5916000000000001,8.612400000000001,175,75
2026-05-09 14:44:51.069,5,0.05,0.06,1.06,-1.305,-0.6216000000000002,9.272400000000001,175,75
2026-05-09 14:44:51.078,5,0.04,0.06,1.06,-1.4549999999999998,-0.4616,10.442400000000001,175,75
2026-05-09 14:44:51.090,5,0.04,0.07,1.06,-2.0250000000000004,-1.0316,11.6424,175,75
2026-05-09 14:44:51.104,5,0.04,0.06,1.07,-3.505,-1.3116,13.8124,175,75
2026-05-09 14:44:51.114,5,0.04,0.05,1.06,-4.265000000000001,-1.2216,14.622399999999999,175,75
2026-05-09 14:44:51.127,5,0.03,0.03,1.06,-4.665,-1.5016,15.1324,175,75
2026-05-09 14:44:51.137,5,0.03,0.01,1.06,-4.275,-2.0416,14.6724,175,75
2026-05-09 14:44:51.149,5,0.03,0.01,1.05,-4.035,-2.4516,14.1524,175,75
2026-05-09 14:44:51.163,5,0.04,-0.0,1.04,-3.6050000000000004,-2.5816,13.5824,175,75
2026-05-09 14:44:51.163,5,0.05,-0.01,1.05,-3.295,-1.6216,12.7924,175,75
2026-05-09 14:44:51.176,5,0.05,-0.01,1.05,-3.005,-0.6416000000000002,11.4624,175,75
2026-05-09 14:44:51.199,5,0.03,-0.01,1.06,-2.4250000000000007,1.5183999999999997,9.352400000000001,175,75
2026-05-09 14:44:51.210,5,0.01,-0.02,1.08,-2.5950000000000006,1.9683999999999995,8.7024,175,75
2026-05-09 14:44:51.222,5,0.0,-0.03,1.09,-2.175,1.1784,7.122400000000001,175,75
2026-05-09 14:44:51.222,5,0.0,-0.03,1.1,-1.4350000000000003,0.06840000000000002,5.442399999999999,175,75
2026-05-09 14:44:51.236,5,0.01,-0.03,1.12,-0.825,0.1684000000000001,3.5124,175,75
2026-05-09 14:44:51.263,5,0.0,-0.01,1.12,1.545,-1.5016,-0.14759999999999995,175,75
2026-05-09 14:44:51.273,5,0.01,0.01,1.12,1.7249999999999999,-3.1116,-1.5476,175,75
2026-05-09 14:44:51.273,5,0.02,0.04,1.11,1.145,-4.3216,-1.6476,175,75
2026-05-09 14:44:51.286,5,0.04,0.05,1.09,0.11499999999999999,-4.1116,-1.1976,175,75
2026-05-09 14:44:51.299,5,0.05,0.06,1.08,-1.1650000000000003,-3.1316,-1.1576,175,75
2026-05-09 14:44:51.324,5,0.04,0.04,1.08,-2.865,0.1484000000000001,-1.3876,175,75
2026-05-09 14:44:51.324,5,0.02,0.04,1.09,-3.5150000000000006,0.5484,-1.2075999999999998,175,75
2026-05-09 14:44:51.338,5,0.01,0.03,1.09,-3.545,-0.39160000000000017,-1.9076,175,75
2026-05-09 14:44:51.354,5,0.01,0.02,1.09,-4.285,-2.6416,-2.7176,175,75
2026-05-09 14:44:51.354,5,0.03,0.02,1.07,-4.885000000000001,-3.8616,-2.8975999999999997,175,75
2026-05-09 14:44:51.373,5,0.05,0.0,1.05,-5.265000000000001,-3.8916000000000004,-2.5476,175,75
2026-05-09 14:44:51.386,5,0.06,-0.02,1.05,-4.4350000000000005,-0.7916000000000001,-2.3076,175,75
2026-05-09 14:44:51.399,5,0.05,-0.02,1.06,-3.3950000000000005,-0.11160000000000014,-2.5276,175,75
2026-05-09 14:44:51.404,5,0.03,-0.02,1.07,-2.2250000000000005,0.1983999999999999,-3.4976,175,75
2026-05-09 14:44:51.422,5,0.02,-0.02,1.09,-1.4150000000000003,-0.3216000000000001,-4.377599999999999,175,75
2026-05-09 14:44:51.436,5,0.01,0.0,1.11,-1.285,-0.8016000000000001,-7.5876,175,75
2026-05-09 14:44:51.451,5,0.01,0.0,1.11,-1.8550000000000002,-0.9916,-8.9576,175,75
2026-05-09 14:44:51.462,5,0.01,0.0,1.11,-1.885,-1.6616,-10.2476,175,75
2026-05-09 14:44:51.473,5,0.01,-0.0,1.12,-2.4050000000000002,-2.9416,-11.317599999999999,175,75
2026-05-09 14:44:51.473,5,0.01,0.01,1.1,-2.7350000000000003,-4.4716000000000005,-11.9976,175,75
2026-05-09 14:44:51.483,5,0.03,0.0,1.08,-3.1550000000000002,-6.0816,-11.407599999999999,175,75
2026-05-09 14:44:51.499,5,0.05,-0.02,1.06,-3.795,-5.8716,-8.8076,175,75
2026-05-09 14:44:51.512,5,0.05,-0.04,1.06,-2.465,-6.0716,-6.8675999999999995,175,75
2026-05-09 14:44:51.524,5,0.03,-0.05,1.06,0.42500000000000004,-5.3616,-8.1976,175,75
2026-05-09 14:44:51.524,5,0.03,-0.04,1.07,4.205,-4.2416,-12.4576,175,75
2026-05-09 14:44:51.536,5,0.04,0.02,1.09,6.404999999999999,-1.6516000000000002,-15.3276,175,75
2026-05-09 14:44:51.559,5,0.0,0.07,1.13,2.235,-0.15160000000000018,-15.8476,175,75
2026-05-09 14:44:51.571,5,-0.01,0.06,1.14,-1.0650000000000002,-1.0816000000000001,-15.397599999999999,175,75
2026-05-09 14:44:51.583,5,-0.02,0.03,1.15,-4.155,-2.8916,-15.5076,175,75
2026-05-09 14:44:51.583,5,-0.01,0.01,1.13,-6.275,-5.0516000000000005,-15.4276,175,75
2026-05-09 14:44:51.603,5,0.01,-0.01,1.13,-7.365,-6.9016,-15.057599999999999,175,75
2026-05-09 14:44:51.613,5,0.02,-0.02,1.11,-7.865,-8.1816,-12.1076,175,75
2026-05-09 14:44:51.613,5,0.04,-0.04,1.11,-7.3149999999999995,-9.3516,-8.8076,175,75
2026-05-09 14:44:51.653,5,0.03,-0.04,1.12,-1.485,-14.8216,-3.0276,175,75
2026-05-09 14:44:51.653,5,0.04,-0.01,1.1,0.7649999999999999,-16.9716,-0.7575999999999998,175,75
2026-05-09 14:44:51.686,5,0.06,0.03,1.04,3.175,-21.4416,10.3224,175,75
2026-05-09 14:44:51.699,5,0.07,0.02,1.02,3.075,-19.651600000000002,11.7324,175,75
2026-05-09 14:44:51.712,5,0.07,-0.01,0.99,3.485,-14.941600000000001,13.0424,175,75
2026-05-09 14:44:51.723,5,0.06,-0.04,0.99,4.365,-11.3216,14.1924,175,75
2026-05-09 14:44:51.735,5,0.01,-0.1,1.0,7.165,-5.6116,12.852400000000001,175,75
2026-05-09 14:44:51.745,5,-0.0,-0.12,1.0,8.565,-5.3116,12.4924,175,75
2026-05-09 14:44:51.770,5,-0.01,-0.14,1.0,17.895,-8.1016,9.342400000000001,175,75
2026-05-09 14:44:51.782,5,-0.01,-0.11,1.0,22.375,-9.7416,6.852400000000001,175,75
2026-05-09 14:44:51.794,5,0.03,-0.01,0.96,26.115,-11.2416,1.5124,175,75
2026-05-09 14:44:51.814,5,0.06,0.03,0.95,25.345,-8.451600000000001,2.4224,175,75
2026-05-09 14:44:51.823,5,0.04,0.09,1.02,26.065,-0.8316000000000001,4.442399999999999,175,75
2026-05-09 14:44:51.834,5,0.04,0.11,1.06,23.175,2.3284,6.962400000000001,175,75
2026-05-09 14:44:51.865,5,-0.05,0.08,1.17,25.044999999999998,14.238399999999999,16.2124,175,75
2026-05-09 14:44:51.882,5,-0.1,0.14,1.23,21.845,14.458400000000001,15.6024,175,75
2026-05-09 14:44:51.892,5,-0.16,0.14,1.25,17.595,11.798399999999999,12.8324,175,75
2026-05-09 14:44:51.920,5,-0.17,0.14,1.35,-0.5650000000000002,1.0084,8.592400000000001,175,75
2026-05-09 14:44:51.932,5,-0.18,0.23,1.37,-3.6350000000000007,-3.4516,12.1224,175,75
2026-05-09 14:44:51.944,5,-0.17,0.16,1.34,-13.965,-14.5916,32.502399999999994,175,75
2026-05-09 14:44:51.994,5,-0.04,-0.09,1.48,-27.665,-34.4516,51.532399999999996,175,75
2026-05-09 14:44:51.994,5,-0.02,-0.16,1.55,-29.825,-38.321600000000004,40.9724,175,75
2026-05-09 14:44:52.020,5,-0.04,-0.38,1.57,-35.405,-51.0616,7.2324,175,75
2026-05-09 14:44:52.034,5,-0.01,-0.42,1.54,-36.605,-61.0216,-12.7476,175,75
2026-05-09 14:44:52.034,5,0.1,-0.4,1.49,-40.215,-65.1116,-28.8976,175,75
2026-05-09 14:44:52.050,5,0.21,-0.36,1.42,-47.645,-61.5416,-37.4176,175,75
2026-05-09 14:44:52.060,5,0.31,-0.37,1.38,-54.755,-54.7816,-37.287600000000005,175,75
2026-05-09 14:44:52.081,5,0.35,-0.5,1.27,-55.985,-36.5516,-33.2276,175,75
2026-05-09 14:44:52.093,5,0.28,-0.51,1.16,-48.055,-30.4116,-38.327600000000004,175,75
2026-05-09 14:44:52.104,5,0.25,-0.37,0.97,-32.605,-31.7116,-59.257600000000004,175,75
2026-05-09 14:44:52.116,5,0.29,-0.29,0.86,-25.775,-34.0616,-63.5576,175,75
2026-05-09 14:44:52.130,5,0.32,-0.18,0.73,-19.515,-25.5016,-68.57759999999999,175,75
2026-05-09 14:44:52.140,5,0.23,-0.07,0.58,-14.934999999999999,-6.041600000000001,-77.2276,175,75
2026-05-09 14:44:52.152,5,0.04,0.01,0.42,-8.805,9.4984,-91.1276,175,75
2026-05-09 14:44:52.166,5,-0.18,0.12,0.27,0.665,11.2584,-109.2976,175,75
2026-05-09 14:44:52.166,5,-0.33,0.22,0.17,9.125,0.008399999999999963,-135.19760000000002,175,75
2026-05-09 14:44:52.178,5,-0.47,0.22,0.04,16.915,-20.6416,-165.7176,175,75
2026-05-09 14:44:52.188,5,-0.54,0.34,-0.08,20.315,-50.1216,-199.0376,175,75
2026-05-09 14:44:52.218,5,-0.29,0.26,-0.48,37.235,-174.0216,-166.1276,175,75
2026-05-09 14:44:52.226,5,-0.22,0.28,-0.49,42.285,-208.7116,-119.4276,175,75
2026-05-09 14:44:52.235,5,0.19,0.42,-0.51,39.035,-216.7016,-65.3576,175,75
2026-05-09 14:44:52.247,5,0.77,0.61,-0.4,27.435,-170.23160000000001,-2.6776,175,75
2026-05-09 14:44:52.264,5,1.01,0.89,0.07,-25.785,63.51839999999999,66.50240000000001,175,75
2026-05-09 14:44:52.275,5,1.22,1.12,0.8,-78.085,230.8484,46.612399999999994,175,75
2026-05-09 14:44:52.287,5,1.5,1.3,0.44,-156.935,247.8284,9.4224,175,75
2026-05-09 14:44:52.301,5,2.0,1.25,2.0,-237.665,247.8284,54.932399999999994,175,75
2026-05-09 14:44:52.322,5,0.79,-0.35,2.0,-248.33499999999998,247.8284,248.01239999999999,175,75
2026-05-09 14:44:52.334,5,-2.0,-1.83,0.82,-118.285,247.8284,195.58239999999998,175,75
2026-05-09 14:44:52.344,5,-2.0,-1.89,0.08,-11.415000000000001,247.8284,84.8324,175,75
2026-05-09 14:44:52.364,5,-2.0,-1.58,0.24,87.415,247.8284,-53.7376,175,75
2026-05-09 14:44:52.376,5,-2.0,-0.81,1.88,101.105,94.0584,-140.4576,175,75
2026-05-09 14:44:52.386,5,-2.0,0.01,2.0,50.525,-252.4416,-152.0076,175,75
2026-05-09 14:44:52.398,5,-1.45,-0.11,2.0,28.134999999999998,-252.4416,-132.29760000000002,175,75
2026-05-09 14:44:52.407,5,-0.81,-0.38,2.0,63.865,-252.4416,-47.8376,175,75
2026-05-09 14:44:52.420,5,-0.41,-0.38,1.67,117.06500000000001,-252.4416,52.612399999999994,175,75
2026-05-09 14:44:52.431,5,-0.34,-0.23,1.38,153.82500000000002,-252.4416,112.4124,175,75
2026-05-09 14:44:52.443,5,-0.17,-0.03,1.16,166.695,-252.4416,133.3224,175,75
2026-05-09 14:44:52.443,5,0.16,0.07,0.94,156.275,-252.4416,137.83239999999998,175,75
2026-05-09 14:44:52.454,5,0.45,0.16,0.65,146.04500000000002,-252.4416,151.61239999999998,175,75
2026-05-09 14:44:52.465,5,0.88,0.13,0.44,132.125,-252.4416,195.67239999999998,175,75
2026-05-09 14:44:52.487,5,1.46,0.08,0.16,101.405,-114.6716,248.01239999999999,175,75
2026-05-09 14:44:52.500,5,1.13,-0.31,0.06,80.33500000000001,-40.9116,248.01239999999999,175,75
2026-05-09 14:44:52.509,5,0.61,-0.43,0.37,29.605,-10.861600000000001,248.01239999999999,175,75
2026-05-09 14:44:52.525,5,0.24,-0.85,0.5,-33.605,-14.771600000000001,238.3524,175,75
2026-05-09 14:44:52.535,5,0.17,-1.31,0.16,-45.115,2.5483999999999996,95.3724,175,75
2026-05-09 14:44:52.545,5,0.02,-1.17,-0.13,-21.665,53.7984,-35.957600000000006,175,75
2026-05-09 14:44:52.545,5,-0.38,-0.76,-0.23,-2.8550000000000004,85.48840000000001,-149.69760000000002,175,75
2026-05-09 14:44:52.562,5,-0.5,-0.32,-0.17,12.135,85.9084,-239.3376,175,75
2026-05-09 14:44:52.574,5,-0.39,0.39,-0.01,22.905,58.858399999999996,-252.2576,175,75
2026-05-09 14:44:52.589,5,-0.11,0.55,0.02,21.305,36.8484,-252.2576,175,75
2026-05-09 14:44:52.603,5,0.5,1.02,0.24,15.975,-18.5216,-252.2576,175,75
2026-05-09 14:44:52.608,5,0.72,1.37,0.48,-0.675,-82.8616,-221.6476,175,75
2026-05-09 14:44:52.628,5,0.32,0.84,0.43,-38.855,-25.311600000000002,-160.4676,175,75
2026-05-09 14:44:52.643,5,0.25,0.58,0.3,-21.045,13.398399999999999,-105.82759999999999,175,75
2026-05-09 14:44:52.647,5,0.13,0.46,0.29,8.575,27.8884,-5.6676,175,75
2026-05-09 14:44:52.673,5,-0.35,0.2,0.48,16.555,38.9384,142.2524,175,75
2026-05-09 14:44:52.683,5,-0.01,-0.04,0.56,11.645,60.2784,235.70239999999998,175,75
2026-05-09 14:44:52.691,5,0.38,0.09,0.73,-4.515000000000001,99.1384,248.01239999999999,175,75
2026-05-09 14:44:52.705,5,1.49,1.37,2.0,-148.58499999999998,238.4684,248.01239999999999,175,75
2026-05-09 14:44:52.733,5,-1.68,-1.11,2.0,-161.165,-9.3516,248.01239999999999,175,75
2026-05-09 14:44:52.733,5,-1.33,-1.87,1.24,-80.705,49.9484,248.01239999999999,175,75
2026-05-09 14:44:52.757,5,-2.0,-1.65,1.1,31.745,118.61840000000001,-79.0876,175,75
2026-05-09 14:44:52.768,5,-2.0,-1.2,1.15,82.305,101.59840000000001,-252.2576,175,75
2026-05-09 14:44:52.785,5,-1.52,-0.5,1.62,117.825,9.0084,-252.2576,175,75
2026-05-09 14:44:52.785,5,-0.63,0.61,2.0,121.83500000000001,-203.3716,-252.2576,175,75
2026-05-09 14:44:52.802,5,-0.6,0.66,1.78,89.775,-205.8716,-252.2576,175,75
2026-05-09 14:44:52.806,5,-0.46,0.64,1.37,82.625,-242.2516,-252.2576,175,75
2026-05-09 14:44:52.824,5,-0.24,0.5,1.09,79.275,-252.4416,-218.4276,175,75
2026-05-09 14:44:52.824,5,0.12,0.38,0.93,77.11500000000001,-252.4416,-140.4276,175,75
2026-05-09 14:44:52.848,5,0.91,0.14,0.51,85.655,-169.8616,49.572399999999995,175,75
2026-05-09 14:44:52.860,5,1.15,0.08,0.25,104.125,-124.8116,182.7224,175,75
2026-05-09 14:44:52.871,5,1.09,0.13,0.12,116.295,-81.37159999999999,248.01239999999999,175,75
2026-05-09 14:44:52.880,5,0.86,0.09,0.17,111.95500000000001,-40.571600000000004,248.01239999999999,175,75
2026-05-09 14:44:52.893,5,0.95,0.19,0.39,92.17500000000001,0.09839999999999982,248.01239999999999,175,75
2026-05-09 14:44:52.893,5,0.68,0.03,0.94,44.585,20.1484,248.01239999999999,175,75
2026-05-09 14:44:52.921,5,1.16,-1.5,2.0,32.855000000000004,32.0884,48.2224,175,75
2026-05-09 14:44:52.950,5,-1.09,-0.91,2.0,90.075,247.8284,-252.2576,175,75
2026-05-09 14:44:52.963,5,-1.5,-0.35,1.67,110.275,247.8284,-252.2576,175,75
2026-05-09 14:44:52.968,5,-2.0,0.1,1.57,99.95500000000001,196.5784,-252.2576,175,75
2026-05-09 14:44:52.975,5,-2.0,0.38,1.49,59.375,104.6984,-252.2576,175,75
2026-05-09 14:44:53.010,5,-0.43,1.19,1.88,-45.355,-195.9716,-252.2576,175,75
2026-05-09 14:44:53.025,5,-0.23,0.98,1.23,32.575,-252.4416,-201.48760000000001,175,75
2026-05-09 14:44:53.039,5,-0.11,0.76,0.66,108.53500000000001,-252.4416,-107.6176,175,75
2026-05-09 14:44:53.056,5,0.28,0.83,0.41,148.995,-252.4416,71.9824,175,75
2026-05-09 14:44:53.069,5,0.91,0.79,0.12,117.98500000000001,-252.4416,147.1524,175,75
2026-05-09 14:44:53.084,5,2.0,1.06,-1.0,98.14500000000001,-192.8016,248.01239999999999,175,75
2026-05-09 14:44:53.084,5,2.0,0.49,-0.86,131.10500000000002,-65.1516,248.01239999999999,175,75
2026-05-09 14:44:53.101,5,0.87,1.13,-1.75,109.775,-3.7116,248.01239999999999,175,75
2026-05-09 14:44:53.116,5,-0.79,-0.22,-1.29,100.48500000000001,22.6184,248.01239999999999,175,75
2026-05-09 14:44:53.128,5,-1.14,-0.54,-0.86,87.125,-28.4116,165.3424,175,75
2026-05-09 14:44:53.142,5,-1.28,0.03,-0.47,72.075,-78.9716,98.4124,175,75
2026-05-09 14:44:53.153,5,-1.27,-0.39,-0.03,42.625,-107.1916,44.922399999999996,175,75
2026-05-09 14:44:53.153,5,-0.96,-0.33,0.21,4.585,-96.57159999999999,-3.1576,175,75
2026-05-09 14:44:53.165,5,-0.44,-0.22,0.31,-37.565,-25.0416,-58.1276,175,75
2026-05-09 14:44:53.182,5,0.12,-0.17,0.31,-77.345,87.03840000000001,-138.0076,175,75
2026-05-09 14:44:53.189,5,0.86,-0.19,0.27,-97.32499999999999,233.3884,-174.51760000000002,175,75
2026-05-09 14:44:53.204,5,2.0,0.45,0.73,-157.445,247.8284,-11.387599999999999,175,75
2026-05-09 14:44:53.222,5,2.0,2.0,2.0,-211.98499999999999,247.8284,248.01239999999999,175,75
2026-05-09 14:44:53.236,5,-0.54,0.04,1.74,-34.815,247.8284,210.4124,175,75
2026-05-09 14:44:53.268,5,-2.0,-0.21,2.0,-39.045,247.8284,-180.60760000000002,175,75
2026-05-09 14:44:53.279,5,-2.0,-0.23,2.0,-25.485,153.9384,-187.1276,175,75
2026-05-09 14:44:53.293,5,-2.0,-0.01,1.96,-47.955,62.0584,-194.6276,175,75
2026-05-09 14:44:53.303,5,-1.69,0.07,1.82,-69.585,-54.4116,-133.38760000000002,175,75
2026-05-09 14:44:53.303,5,-1.23,-0.0,1.7,-69.955,-138.5316,-24.2176,175,75
2026-05-09 14:44:53.314,5,-0.83,-0.15,1.53,-58.335,-170.9416,83.53240000000001,175,75
2026-05-09 14:44:53.326,5,-0.85,-0.16,1.4,-45.415,-200.35160000000002,188.2224,175,75
2026-05-09 14:44:53.335,5,-0.86,-0.17,1.27,-41.975,-234.5816,239.6524,175,75
2026-05-09 14:44:53.354,5,-0.47,-0.16,1.05,-47.345,-252.4416,245.6224,175,75
2026-05-09 14:44:53.369,5,-0.14,-0.16,0.97,-51.235,-252.4416,225.3724,175,75
2026-05-09 14:44:53.382,5,-0.06,-0.23,0.83,-48.175,-252.4416,209.9124,175,75
2026-05-09 14:44:53.392,5,0.22,-0.3,0.71,-32.625,-228.32160000000002,181.3524,175,75
2026-05-09 14:44:53.392,5,0.37,-0.36,0.56,-4.705,-190.4416,158.8524,175,75
2026-05-09 14:44:53.414,5,0.53,-0.42,0.22,59.495,-110.71159999999999,101.7624,175,75
2026-05-09 14:44:53.446,5,1.0,-0.67,-0.18,123.44500000000001,-29.0216,65.5124,175,75
2026-05-09 14:44:53.473,5,0.43,-0.41,0.74,-11.695,3.7883999999999998,-168.5876,175,75
2026-05-09 14:44:53.483,5,1.01,-0.81,1.2,-35.595,21.258399999999998,-238.98760000000001,175,75
2026-05-09 14:44:53.504,5,2.0,-0.68,2.0,-19.885,65.06840000000001,-252.2576,175,75
2026-05-09 14:44:53.504,5,2.0,0.34,2.0,-56.925,235.0784,-252.2576,175,75
2026-05-09 14:44:53.515,5,2.0,0.16,2.0,-102.18499999999999,247.8284,-227.6776,175,75
2026-05-09 14:44:53.534,5,-0.65,-1.1,1.17,-33.435,247.8284,-122.0176,175,75
2026-05-09 14:44:53.550,5,-1.45,-0.97,1.13,30.485,247.8284,-119.63759999999999,175,75
2026-05-09 14:44:53.560,5,-1.95,-0.5,1.7,68.495,205.9484,-153.8076,175,75
2026-05-09 14:44:53.573,5,-2.0,0.22,2.0,74.745,46.358399999999996,-218.9076,175,75
2026-05-09 14:44:53.573,5,-1.83,0.44,2.0,64.605,-124.13159999999999,-252.2576,175,75
2026-05-09 14:44:53.613,5,-0.57,0.61,0.25,91.44500000000001,-252.4416,-252.2576,175,75
2026-05-09 14:44:53.624,5,0.03,1.07,0.2,125.83500000000001,-252.4416,-252.2576,175,75
2026-05-09 14:44:53.643,5,1.03,1.25,-0.22,93.28500000000001,-252.4416,-202.8776,175,75
2026-05-09 14:44:53.654,5,1.27,1.07,-1.04,95.135,-114.4816,171.7124,175,75
2026-05-09 14:44:53.669,5,-0.24,0.93,-1.14,89.025,-104.6916,204.1024,175,75
2026-05-09 14:44:53.682,5,-0.64,0.43,-0.84,88.75500000000001,-138.07160000000002,198.9424,175,75
2026-05-09 14:44:53.682,5,-0.56,0.09,-0.53,81.34500000000001,-168.7416,200.3724,175,75
2026-05-09 14:44:53.703,5,-0.28,-0.11,-0.29,70.625,-166.8016,215.7224,175,75
2026-05-09 14:44:53.713,5,-0.05,-0.02,-0.08,60.685,-125.90159999999999,230.8824,175,75
2026-05-09 14:44:53.713,5,0.29,-0.07,-0.13,35.075,-55.9516,248.01239999999999,175,75
2026-05-09 14:44:53.726,5,0.04,-0.23,-0.0,19.265,30.5584,248.01239999999999,175,75
2026-05-09 14:44:53.753,5,0.37,-0.2,-0.08,-15.695,201.1984,212.7524,175,75
2026-05-09 14:44:53.763,5,0.52,-0.17,-0.02,-20.075,247.8284,196.4424,175,75
2026-05-09 14:44:53.774,5,0.26,0.08,0.21,-39.135,247.8284,126.78240000000001,175,75
2026-05-09 14:44:53.786,5,0.17,0.1,0.45,-64.505,247.8284,66.6824,175,75
2026-05-09 14:44:53.810,5,0.16,0.04,2.0,-86.57499999999999,155.0284,232.6624,175,75
2026-05-09 14:44:53.823,5,-0.56,-0.61,1.77,-47.275,247.8284,70.39240000000001,175,75
2026-05-09 14:44:53.837,5,-1.77,-0.67,1.53,-20.045,156.3784,-48.887600000000006,175,75
2026-05-09 14:44:53.847,5,-1.84,-0.17,1.72,-15.195,25.5584,-78.0676,175,75
2026-05-09 14:44:53.880,5,-0.15,-0.15,2.0,-72.01499999999999,-252.4416,27.3524,175,75
2026-05-09 14:44:53.891,5,-0.02,0.06,2.0,-59.415,-252.4416,113.5524,175,75
2026-05-09 14:44:53.903,5,-0.01,-0.56,1.56,-23.635,-252.4416,134.02239999999998,175,75
2026-05-09 14:44:53.913,5,0.29,-0.53,1.01,24.745,-252.4416,88.97240000000001,175,75
2026-05-09 14:44:53.924,5,2.0,-0.01,0.43,86.045,-228.35160000000002,53.212399999999995,175,75
2026-05-09 14:44:53.935,5,2.0,-0.03,0.16,87.48500000000001,-5.9416,61.2324,175,75
2026-05-09 14:44:53.964,5,0.76,-0.23,1.23,45.365,220.8784,-19.8776,175,75
2026-05-09 14:44:53.965,5,0.47,-0.32,1.82,14.725,247.8284,-59.1576,175,75
2026-05-09 14:44:53.976,5,0.2,-0.64,2.0,-3.6350000000000007,247.8284,-108.9876,175,75
2026-05-09 14:44:53.983,5,-0.19,-0.96,2.0,-4.955,247.8284,-152.4376,175,75
2026-05-09 14:44:54.007,5,-1.04,-1.17,1.89,7.1049999999999995,247.8284,-200.6476,175,75
2026-05-09 14:44:54.007,5,-2.0,-1.21,1.16,26.345,247.8284,-252.2576,175,75
2026-05-09 14:44:54.018,5,-2.0,-0.96,0.78,50.015,247.8284,-252.2576,175,75
2026-05-09 14:44:54.030,5,-2.0,-0.65,0.91,68.61500000000001,181.83839999999998,-252.2576,175,75
2026-05-09 14:44:54.042,5,-2.0,-0.06,1.48,77.25500000000001,43.9884,-252.2576,175,75
2026-05-09 14:44:54.052,5,-1.84,0.73,2.0,70.95500000000001,-75.1916,-252.2576,175,75
2026-05-09 14:44:54.083,5,-0.75,1.0,1.56,122.305,-252.4416,-247.0676,175,75
2026-05-09 14:44:54.093,5,-0.61,0.89,0.89,165.395,-252.4416,-167.6776,175,75
2026-05-09 14:44:54.093,5,-0.27,1.06,0.33,209.625,-252.4416,-95.77759999999999,175,75
2026-05-09 14:44:54.116,5,0.02,1.26,0.33,194.895,-252.4416,-34.0576,175,75
2026-05-09 14:44:54.116,5,2.0,1.48,-0.27,125.53500000000001,-252.4416,43.602399999999996,175,75
2026-05-09 14:44:54.126,5,2.0,2.0,-2.0,89.965,-97.2016,248.01239999999999,175,75
2026-05-09 14:44:54.143,5,0.6,1.46,-1.42,87.995,32.9884,248.01239999999999,175,75
2026-05-09 14:44:54.153,5,-0.4,0.41,-1.13,83.20500000000001,13.0184,248.01239999999999,175,75
2026-05-09 14:44:54.153,5,-0.4,-0.45,-1.03,95.275,-9.9416,248.01239999999999,175,75
2026-05-09 14:44:54.169,5,-0.48,1.34,-0.02,119.69500000000001,1.6183999999999998,248.01239999999999,175,75
2026-05-09 14:44:54.178,5,-0.89,-0.97,-0.96,127.625,27.8884,248.01239999999999,175,75
2026-05-09 14:44:54.195,5,-1.41,-0.86,-0.58,120.75500000000001,39.7384,163.8724,175,75
2026-05-09 14:44:54.195,5,-1.67,-0.63,-0.19,85.155,44.9984,16.9424,175,75
2026-05-09 14:44:54.209,5,-1.51,-0.41,0.1,26.425,66.3284,-131.19760000000002,175,75
2026-05-09 14:44:54.224,5,-0.73,-0.1,0.08,-92.79499999999999,146.1984,-252.2576,175,75
2026-05-09 14:44:54.243,5,-0.19,-0.0,-0.05,-119.79499999999999,175.5484,-252.2576,175,75
2026-05-09 14:44:54.243,5,0.49,0.21,0.02,-136.92499999999998,217.1984,-252.2576,175,75
2026-05-09 14:44:54.254,5,1.42,0.52,0.09,-159.305,247.8284,-252.2576,175,75
2026-05-09 14:44:54.269,5,2.0,0.66,0.17,-174.11499999999998,247.8284,-252.2576,175,75
2026-05-09 14:44:54.278,5,2.0,2.0,2.0,-146.095,166.8784,97.1524,175,75
2026-05-09 14:44:54.289,5,1.05,0.78,1.96,-164.605,19.3384,248.01239999999999,175,75
2026-05-09 14:44:54.301,5,0.5,-0.12,1.54,-163.665,95.61840000000001,248.01239999999999,175,75
2026-05-09 14:44:54.316,5,-0.42,-0.58,2.0,-99.02499999999999,166.6984,87.22240000000001,175,75
2026-05-09 14:44:54.329,5,-0.66,-0.51,2.0,-53.445,247.8284,-73.1676,175,75
2026-05-09 14:44:54.347,5,-0.93,0.05,2.0,-1.465,247.8284,-252.2576,175,75
2026-05-09 14:44:54.360,5,-1.03,0.08,2.0,-8.075000000000001,209.2884,-252.2576,175,75
2026-05-09 14:44:54.364,5,-1.66,-0.1,2.0,-3.785,139.7484,-209.0076,175,75
2026-05-09 14:44:54.383,5,-1.64,0.12,2.0,-31.005000000000003,53.6484,-122.21759999999999,175,75
2026-05-09 14:44:54.393,5,-1.53,-0.19,1.97,-27.275,-20.651600000000002,14.4024,175,75
2026-05-09 14:44:54.410,5,-1.5,-0.12,2.0,-12.705,-171.0316,227.64239999999998,175,75
2026-05-09 14:44:54.425,5,-1.36,-0.28,1.79,-15.215,-249.26160000000002,248.01239999999999,175,75
2026-05-09 14:44:54.436,5,-0.93,-0.39,1.54,-14.115,-252.4416,248.01239999999999,175,75
2026-05-09 14:44:54.436,5,-0.45,-0.41,1.34,-10.995000000000001,-252.4416,248.01239999999999,175,75
2026-05-09 14:44:54.447,5,-0.18,-0.45,1.15,-2.795,-252.4416,248.01239999999999,175,75
2026-05-09 14:44:54.459,5,-0.06,-0.46,0.98,9.065,-252.4416,234.9624,175,75
2026-05-09 14:44:54.473,5,0.0,-0.44,0.85,19.884999999999998,-252.4416,211.3824,175,75
2026-05-09 14:44:54.481,5,0.06,-0.43,0.72,29.155,-252.4416,185.2224,175,75
2026-05-09 14:44:54.484,5,0.22,-0.39,0.59,38.925,-238.4916,147.4624,175,75
2026-05-09 14:44:54.505,5,0.4,-0.4,0.44,48.925,-184.76160000000002,104.7924,175,75
2026-05-09 14:44:54.528,5,0.36,-0.04,-0.04,42.875,24.6384,-37.457600000000006,175,75
2026-05-09 14:44:54.539,5,0.17,-0.15,-0.22,41.275,57.5284,-67.71759999999999,175,75
2026-05-09 14:44:54.565,5,-0.1,-0.14,-0.37,45.415,65.1684,-115.8076,175,75
2026-05-09 14:44:54.565,5,-0.14,-0.13,-0.35,50.775,51.2184,-120.8976,175,75
2026-05-09 14:44:54.587,5,-0.09,-0.04,-0.33,49.245,4.9184,-93.5176,175,75
2026-05-09 14:44:54.602,5,0.02,0.11,-0.25,32.515,-7.3316,-80.1676,175,75
2026-05-09 14:44:54.602,5,0.04,0.2,-0.11,9.335,3.4583999999999997,-91.85759999999999,175,75
2026-05-09 14:44:54.623,5,-0.09,0.19,0.01,-4.565,27.9184,-136.5976,175,75
2026-05-09 14:44:54.629,5,-0.15,0.15,0.24,-5.265000000000001,60.0984,-200.9076,175,75
2026-05-09 14:44:54.639,5,0.06,0.02,0.62,-0.595,112.39840000000001,-252.2576,175,75
2026-05-09 14:44:54.653,5,0.73,-0.23,1.3,-18.725,192.0684,-252.2576,175,75
2026-05-09 14:44:54.653,5,2.0,1.07,2.0,-136.325,81.31840000000001,49.1924,175,75
2026-05-09 14:44:54.680,5,1.1,-0.43,2.0,-168.08499999999998,247.8284,116.4924,175,75
2026-05-09 14:44:54.692,5,-0.21,-1.14,2.0,-90.085,247.8284,-52.327600000000004,175,75
2026-05-09 14:44:54.706,5,-2.0,-1.21,1.64,81.525,247.8284,-252.2576,175,75
2026-05-09 14:44:54.715,5,-2.0,-0.82,1.54,144.235,215.5084,-252.2576,175,75
2026-05-09 14:44:54.730,5,-2.0,-0.04,2.0,168.435,36.5484,-252.2576,175,75
2026-05-09 14:44:54.736,5,-2.0,0.68,2.0,159.505,-132.1716,-252.2576,175,75
2026-05-09 14:44:54.749,5,-1.66,0.83,2.0,149.775,-252.4416,-252.2576,175,75
2026-05-09 14:44:54.763,5,-1.01,1.0,1.82,148.365,-252.4416,-252.2576,175,75
2026-05-09 14:44:54.774,5,0.08,0.9,1.15,179.965,-252.4416,-82.32759999999999,175,75
2026-05-09 14:44:54.784,5,0.34,0.88,0.91,171.655,-252.4416,-7.3376,175,75
2026-05-09 14:44:54.806,5,1.15,0.59,0.31,168.785,-252.4416,191.76239999999999,175,75
2026-05-09 14:44:54.833,5,1.98,0.52,-0.9,159.035,-93.99159999999999,248.01239999999999,175,75
2026-05-09 14:44:54.833,5,0.73,0.5,-0.73,161.875,-22.6916,248.01239999999999,175,75
2026-05-09 14:44:54.854,5,-0.12,-0.28,-0.88,127.555,36.8984,248.01239999999999,175,75
2026-05-09 14:44:54.873,5,-0.63,-0.06,-0.19,81.19500000000001,33.858399999999996,248.01239999999999,175,75
2026-05-09 14:44:54.873,5,-1.01,-0.52,-0.13,36.275,25.9184,202.39239999999998,175,75
2026-05-09 14:44:54.889,5,-1.23,-0.56,0.01,-13.505,23.6284,89.6924,175,75
2026-05-09 14:44:54.927,5,-0.51,-0.32,-0.11,-77.725,68.5484,-252.2576,175,75
2026-05-09 14:44:54.939,5,0.54,0.29,-0.09,-82.985,140.51839999999999,-252.2576,175,75
2026-05-09 14:44:54.953,5,1.33,0.71,0.03,-93.13499999999999,204.45839999999998,-252.2576,175,75
2026-05-09 14:44:54.953,5,1.45,0.85,0.18,-107.985,240.58839999999998,-252.2576,175,75
2026-05-09 14:44:54.967,5,0.94,0.85,0.7,-65.01499999999999,121.9084,-132.8676,175,75
2026-05-09 14:44:54.974,5,0.35,0.88,1.06,-79.29499999999999,63.9284,-67.0676,175,75
2026-05-09 14:44:54.986,5,0.39,0.92,1.68,-138.89499999999998,130.2284,-103.6476,175,75
2026-05-09 14:44:55.003,5,0.96,0.91,2.0,-221.885,192.7284,-35.067600000000006,175,75
2026-05-09 14:44:55.015,5,0.32,-0.52,1.42,-248.33499999999998,225.3884,248.01239999999999,175,75
2026-05-09 14:44:55.028,5,-0.53,-1.51,0.41,-181.225,247.8284,248.01239999999999,175,75
2026-05-09 14:44:55.038,5,-0.89,-1.12,1.72,-65.675,247.8284,218.9624,175,75
2026-05-09 14:44:55.050,5,-1.29,-0.67,2.0,-12.655000000000001,247.8284,179.8824,175,75
2026-05-09 14:44:55.062,5,-2.0,-0.96,2.0,-10.485,153.6584,75.3424,175,75
2026-05-09 14:44:55.062,5,-2.0,-1.04,1.83,2.165,81.6684,-58.2776,175,75
2026-05-09 14:44:55.348,5,-2.0,-0.99,1.35,29.145,-54.2016,-149.2776,175,75
2026-05-09 14:44:55.348,5,-2.0,-0.67,1.41,60.985,-207.1816,-182.97760000000002,175,75
2026-05-09 14:44:55.348,5,-1.3,-0.36,1.42,82.78500000000001,-252.4416,-192.0976,175,75
2026-05-09 14:44:55.348,5,0.57,0.36,0.89,117.17500000000001,-252.4416,-45.427600000000005,175,75
2026-05-09 14:44:55.348,5,0.7,0.53,0.83,114.915,-252.4416,-9.4976,175,75
2026-05-09 14:44:55.348,5,0.95,0.65,0.75,99.31500000000001,-252.4416,27.7524,175,75
2026-05-09 14:44:55.348,5,1.4,0.63,0.64,72.69500000000001,-240.7016,75.8524,175,75
2026-05-09 14:44:55.349,5,1.55,0.35,0.28,45.305,-4.4116,195.9924,175,75
2026-05-09 14:44:55.349,5,1.0,0.1,0.38,32.755,93.4484,201.0324,175,75
2026-05-09 14:44:55.349,5,0.69,-0.06,0.64,12.405,153.6084,202.80239999999998,175,75
2026-05-09 14:44:55.349,5,-0.24,-0.59,1.21,-26.125,178.9184,-49.387600000000006,175,75
2026-05-09 14:44:55.349,5,-0.5,-0.53,1.11,-8.195,186.0084,-111.2976,175,75
2026-05-09 14:44:55.349,5,-0.64,-0.33,1.17,3.625,147.4784,-139.1276,175,75
2026-05-09 14:44:55.349,5,-0.67,-0.09,1.28,3.8549999999999995,90.00840000000001,-153.5276,175,75
2026-05-09 14:44:55.349,5,-0.7,0.03,1.24,-4.985,43.7884,-171.8976,175,75
2026-05-09 14:44:55.349,5,-0.57,0.06,1.15,-11.505,5.5684000000000005,-178.3176,175,75
2026-05-09 14:44:55.349,5,-0.48,0.11,1.08,-11.495000000000001,-31.9516,-166.2576,175,75
2026-05-09 14:44:55.349,5,-0.34,0.15,1.03,-7.3149999999999995,-57.9616,-141.6776,175,75
2026-05-09 14:44:55.349,5,-0.18,0.21,1.0,-1.3350000000000002,-72.4516,-106.63759999999999,175,75
2026-05-09 14:44:55.349,5,-0.1,0.16,0.97,3.0949999999999998,-77.41159999999999,-68.0376,175,75
2026-05-09 14:44:55.349,5,-0.03,0.3,0.97,1.375,-78.6416,-31.3676,175,75
2026-05-09 14:44:55.453,5,0.12,0.24,0.93,-8.755,-63.2916,28.2224,175,75
2026-05-09 14:44:55.453,5,0.18,0.2,0.92,-12.695,-51.4816,57.072399999999995,175,75
2026-05-09 14:44:55.453,5,0.17,0.14,0.93,-13.595,-40.6016,76.5524,175,75
2026-05-09 14:44:55.453,5,-0.02,-0.16,0.89,-27.895,-28.901600000000002,70.22240000000001,175,75
2026-05-09 14:44:55.453,5,-0.05,-0.14,0.91,-31.814999999999998,-22.3216,47.392399999999995,175,75
2026-05-09 14:44:55.740,5,-0.07,-0.22,0.91,-26.665,-12.1516,-3.0476,175,75
2026-05-09 14:44:55.740,5,-0.07,-0.14,0.94,-22.585,-9.9416,-28.0376,175,75
2026-05-09 14:44:55.740,5,-0.09,-0.1,0.91,-20.145,-10.1116,-44.827600000000004,175,75
2026-05-09 14:44:55.740,5,-0.1,-0.09,0.82,-17.415,-13.4016,-53.357600000000005,175,75
2026-05-09 14:44:55.740,5,-0.08,-0.09,0.73,-12.825000000000001,-19.5416,-51.357600000000005,175,75
2026-05-09 14:44:55.740,5,0.1,-0.09,0.61,0.07499999999999996,-33.251599999999996,-17.5176,175,75
2026-05-09 14:44:55.740,5,0.17,-0.13,0.52,10.965,-32.291599999999995,7.762400000000001,175,75
2026-05-09 14:44:55.740,5,0.16,-0.18,0.33,40.255,-0.25160000000000027,27.052400000000002,175,75
2026-05-09 14:44:55.740,5,0.14,-0.19,0.22,56.645,3.7983999999999996,31.622400000000003,175,75
2026-05-09 14:44:55.741,5,0.6,-0.25,-0.02,82.17500000000001,-15.3116,46.5524,175,75
2026-05-09 14:44:55.741,5,0.39,-0.05,-0.11,80.855,-28.151600000000002,41.572399999999995,175,75
2026-05-09 14:44:55.741,5,0.29,0.1,-0.15,42.005,-41.6016,-4.5876,175,75
2026-05-09 14:44:55.741,5,0.1,0.09,-0.05,17.425,-34.1916,-54.647600000000004,175,75
2026-05-09 14:44:55.741,5,-0.04,0.11,0.11,-1.735,-14.0716,-122.4276,175,75
2026-05-09 14:44:55.741,5,0.89,0.21,0.93,-46.215,114.1384,-218.7176,175,75
2026-05-09 14:44:55.741,5,2.0,1.56,2.0,-118.755,171.36839999999998,-91.93759999999999,175,75
2026-05-09 14:44:55.741,5,2.0,0.36,2.0,-181.225,207.8884,83.72240000000001,175,75
2026-05-09 14:44:55.741,5,1.75,-0.08,2.0,-206.815,247.8284,17.9924,175,75
2026-05-09 14:44:55.741,5,0.74,-0.94,2.0,-209.875,247.8284,-25.8076,175,75
2026-05-09 14:44:55.985,5,-2.0,-2.0,0.96,-92.46499999999999,247.8284,-107.71759999999999,175,75
2026-05-09 14:44:55.985,5,-2.0,-2.0,0.24,18.835,247.8284,-177.22760000000002,175,75
2026-05-09 14:44:55.985,5,-2.0,-2.0,0.46,114.545,247.8284,-245.0676,175,75
2026-05-09 14:44:55.985,5,-2.0,-1.8,1.16,195.275,247.8284,-252.2576,175,75
2026-05-09 14:44:55.985,5,-2.0,-1.04,2.0,251.935,121.1884,-252.2576,175,75
2026-05-09 14:44:55.986,5,-2.0,0.03,2.0,251.935,-78.4216,-252.2576,175,75
2026-05-09 14:44:55.986,5,-2.0,0.27,2.0,251.935,-252.4416,-252.2576,175,75
2026-05-09 14:44:55.986,5,-2.0,0.44,1.25,251.935,-252.4416,-252.2576,175,75
2026-05-09 14:44:55.986,5,-2.0,0.48,0.67,251.935,-252.4416,-252.2576,175,75
2026-05-09 14:44:55.986,5,-0.82,0.97,0.0,251.935,-252.4416,-252.2576,175,75
2026-05-09 14:44:55.986,5,-0.32,1.23,-0.29,251.935,-252.4416,-252.2576,175,75
2026-05-09 14:44:55.986,5,0.16,1.58,-0.29,251.935,-252.4416,-159.7876,175,75
2026-05-09 14:44:55.986,5,1.76,2.0,-1.79,251.935,-156.35160000000002,248.01239999999999,175,75
2026-05-09 14:44:55.986,5,0.57,1.04,-1.16,229.88500000000002,-108.9816,248.01239999999999,175,75
2026-05-09 14:44:55.986,5,0.11,0.47,-0.7,192.815,-85.87159999999999,248.01239999999999,175,75
2026-05-09 14:44:55.986,5,-0.25,0.08,-0.17,135.04500000000002,-55.7616,248.01239999999999,175,75
2026-05-09 14:44:55.986,5,-0.21,1.63,0.22,93.215,3.8684,248.01239999999999,175,75
2026-05-09 14:44:55.986,5,-0.58,-0.55,-0.16,57.435,81.8884,248.01239999999999,175,75
2026-05-09 14:44:55.986,5,-0.99,-0.67,-0.25,29.955,147.51839999999999,248.01239999999999,175,75
2026-05-09 14:44:55.986,5,-1.23,-0.79,-0.31,9.955,191.4184,119.7324,175,75
2026-05-09 14:44:55.986,5,-1.19,-0.88,-0.27,5.175,212.7284,-24.7276,175,75
2026-05-09 14:44:55.986,5,-0.68,-0.75,-0.1,4.865,240.64839999999998,-151.63760000000002,175,75
2026-05-09 14:44:55.987,5,-0.16,-0.54,0.13,-2.955,247.8284,-237.6776,175,75
2026-05-09 14:44:55.987,5,0.18,-0.25,0.33,-22.845,247.8284,-252.2576,175,75
2026-05-09 14:44:56.019,5,0.39,0.02,0.59,-52.245,247.8284,-252.2576,175,75
2026-05-09 14:44:56.083,5,0.63,0.25,1.26,-65.41499999999999,180.1284,-252.2576,175,75
2026-05-09 14:44:56.083,5,1.3,0.55,1.54,-37.275,-128.2916,-31.427599999999998,175,75
2026-05-09 14:44:56.083,5,0.6,0.53,0.87,-51.745,-73.4516,-50.257600000000004,175,75
2026-05-09 14:44:56.083,5,-0.18,0.12,0.36,-66.175,53.0084,-153.6576,175,75
2026-05-09 14:44:56.083,5,-0.44,0.07,0.26,-60.175,83.23840000000001,-202.2476,175,75
2026-05-09 14:44:56.083,5,-0.53,0.07,0.2,-44.855,85.3584,-233.6176,175,75
2026-05-09 14:44:56.083,5,-0.15,0.29,0.44,-27.355,42.3884,-203.35760000000002,175,75
2026-05-09 14:44:56.083,5,-0.06,0.67,0.77,-15.285,-49.321600000000004,-93.8476,175,75
2026-05-09 14:44:56.083,5,-0.09,0.74,0.85,-20.285,-65.60159999999999,-58.2376,175,75
2026-05-09 14:44:56.374,5,0.24,0.53,0.78,-22.535,-54.7616,-9.2276,175,75
2026-05-09 14:44:56.374,5,0.37,0.47,0.83,-14.785,-26.2116,45.962399999999995,175,75
2026-05-09 14:44:56.374,5,1.17,1.29,2.0,-129.465,58.6184,248.01239999999999,175,75
2026-05-09 14:44:56.374,5,1.06,0.69,2.0,-187.875,97.50840000000001,248.01239999999999,175,75
2026-05-09 14:44:56.374,5,0.48,-0.19,1.44,-173.975,153.01839999999999,248.01239999999999,175,75
2026-05-09 14:44:56.375,5,-0.98,-1.78,2.0,-39.585,-86.99159999999999,115.9424,175,75
2026-05-09 14:44:56.375,5,0.03,-1.37,1.86,1.625,7.568399999999999,-43.0176,175,75
2026-05-09 14:44:56.375,5,-0.39,-1.05,1.97,28.165,167.0784,-166.7476,175,75
2026-05-09 14:44:56.375,5,-0.43,-0.72,2.0,43.145,141.6884,-252.2576,175,75
2026-05-09 14:44:56.375,5,0.41,-0.05,2.0,61.155,48.428399999999996,-179.9076,175,75
2026-05-09 14:44:56.375,5,-0.06,0.13,2.0,64.015,88.8084,-162.88760000000002,175,75
2026-05-09 14:44:56.376,5,-0.34,0.08,1.87,53.605,102.4384,-134.6176,175,75
2026-05-09 14:44:56.376,5,-0.48,0.01,1.76,44.595,92.70840000000001,-109.27759999999999,175,75
2026-05-09 14:44:56.376,5,-0.4,0.16,1.61,67.25500000000001,9.8684,-46.007600000000004,175,75
2026-05-09 14:44:56.376,5,-0.29,0.32,1.68,75.655,-27.1416,-39.0976,175,75
2026-05-09 14:44:56.376,5,-0.12,0.54,1.71,74.885,-75.99159999999999,-27.9376,175,75
2026-05-09 14:44:56.376,5,0.02,0.6,1.66,63.905,-123.54159999999999,-19.2576,175,75
2026-05-09 14:44:56.376,5,0.27,0.56,1.47,43.464999999999996,-156.4216,-0.4975999999999998,175,75
2026-05-09 14:44:56.376,5,0.47,0.36,1.08,24.175,-167.8316,25.2124,175,75
2026-05-09 14:44:56.376,5,0.53,0.17,0.7,22.185,-171.9016,54.3124,175,75
2026-05-09 14:44:56.376,5,0.47,0.08,0.45,18.175,-141.6716,52.362399999999994,175,75
2026-05-09 14:44:56.376,5,0.01,0.09,-0.14,8.565,-73.54159999999999,-22.6276,175,75
2026-05-09 14:44:56.376,5,-0.25,0.1,-0.39,7.694999999999999,-77.6716,-74.38759999999999,175,75
2026-05-09 14:44:56.409,5,-0.28,-0.06,-0.41,10.645,-95.74159999999999,-109.5476,175,75
2026-05-09 14:44:56.470,5,-0.21,-0.18,-0.49,29.845,-113.7016,-119.5676,175,75
2026-05-09 14:44:56.470,5,0.07,0.31,-0.39,28.865,-111.49159999999999,-91.2076,175,75
2026-05-09 14:44:56.470,5,0.22,-0.23,0.02,16.285,-86.24159999999999,-39.707600000000006,175,75
2026-05-09 14:44:56.470,5,0.04,-0.05,0.16,-14.105,-44.6716,-8.6176,175,75
2026-05-09 14:44:56.470,5,-0.16,0.01,0.09,-43.465,-2.2116000000000002,-20.5276,175,75
2026-05-09 14:44:56.470,5,-0.18,0.05,-0.05,-55.995,29.968400000000003,-55.887600000000006,175,75
2026-05-09 14:44:56.470,5,-0.07,0.09,-0.09,-58.385,62.1984,-94.6176,175,75
2026-05-09 14:44:56.537,5,0.15,-0.1,0.4,-65.71499999999999,197.0684,-198.6776,175,75
2026-05-09 14:44:56.537,5,0.92,-0.47,0.66,-88.675,247.8284,-144.38760000000002,175,75
2026-05-09 14:44:56.553,5,2.0,1.5,2.0,-168.565,247.8284,148.3524,175,75
2026-05-09 14:44:56.553,5,0.68,-0.08,2.0,-157.89499999999998,211.6084,248.01239999999999,175,75
2026-05-09 14:44:56.553,5,-1.33,-0.89,1.34,-47.515,213.7584,246.45239999999998,175,75
2026-05-09 14:44:56.558,5,-1.75,0.19,1.58,44.755,236.1284,-5.0976,175,75
2026-05-09 14:44:56.571,5,-1.51,-0.33,1.84,75.575,247.8284,-212.69760000000002,175,75
2026-05-09 14:44:56.571,5,-1.75,0.23,2.0,45.145,247.8284,-252.2576,175,75
2026-05-09 14:44:56.635,5,-1.73,0.11,2.0,34.735,124.00840000000001,-252.2576,175,75
2026-05-09 14:44:56.635,5,-1.9,-0.07,1.95,39.295,44.928399999999996,-252.2576,175,75
2026-05-09 14:44:56.635,5,-1.94,-0.03,1.49,48.725,-50.0516,-252.2576,175,75
2026-05-09 14:44:56.635,5,-1.47,-0.09,1.38,69.67500000000001,-130.0816,-202.07760000000002,175,75
2026-05-09 14:44:56.635,5,-1.02,0.08,1.39,93.25500000000001,-186.57160000000002,-94.9576,175,75
2026-05-09 14:44:56.635,5,-0.67,0.19,1.32,111.055,-222.0216,6.792400000000001,175,75
2026-05-09 14:44:56.635,5,-0.58,0.24,1.15,113.075,-252.4416,86.86240000000001,175,75
2026-05-09 14:44:56.814,5,0.17,0.17,0.43,48.335,-252.4416,173.30239999999998,175,75
2026-05-09 14:44:56.814,5,0.67,0.01,-0.15,39.595,-252.4416,141.2524,175,75
2026-05-09 14:44:56.814,5,1.87,0.07,-0.67,45.295,-215.8616,151.86239999999998,175,75
2026-05-09 14:44:56.814,5,2.0,0.25,-1.65,28.365,-50.1516,157.51239999999999,175,75
2026-05-09 14:44:56.814,5,-0.58,0.01,-1.03,7.595,0.6383999999999999,65.11240000000001,175,75
2026-05-09 14:44:56.814,5,-0.86,-0.12,-0.82,-0.8150000000000002,-78.6716,8.4524,175,75
2026-05-09 14:44:56.814,5,0.82,-0.43,0.3,-35.115,34.6484,-25.4876,175,75
2026-05-09 14:44:56.925,5,2.0,1.06,2.0,-138.785,247.8284,-94.7876,175,75
2026-05-09 14:44:56.925,5,2.0,2.0,2.0,-157.915,247.8284,133.7424,175,75
2026-05-09 14:44:56.925,5,0.3,1.07,2.0,-160.855,247.8284,-67.24759999999999,175,75
2026-05-09 14:44:56.925,5,-1.04,-0.04,2.0,-195.225,247.8284,-252.2576,175,75
2026-05-09 14:44:56.925,5,-1.39,-0.21,1.78,-174.785,247.8284,-252.2576,175,75
2026-05-09 14:44:56.925,5,-2.0,-0.76,1.03,-185.23499999999999,247.8284,-224.7776,175,75
2026-05-09 14:44:56.925,5,-2.0,-1.07,0.72,-158.39499999999998,247.8284,-124.35759999999999,175,75
2026-05-09 14:44:56.925,5,-2.0,-0.84,1.37,-148.825,146.2484,-6.037599999999999,175,75
2026-05-09 14:44:56.925,5,-2.0,-0.58,2.0,-143.725,-40.9416,112.1624,175,75
2026-05-09 14:44:56.925,5,-2.0,-0.91,2.0,-156.745,-252.4416,248.01239999999999,175,75
2026-05-09 14:44:56.925,5,-2.0,-0.83,1.88,-144.375,-252.4416,248.01239999999999,175,75
2026-05-09 14:44:56.932,5,-1.73,-1.68,0.97,-122.445,-252.4416,248.01239999999999,175,75
2026-05-09 14:44:56.934,5,-1.1,-1.83,0.36,-89.035,-252.4416,248.01239999999999,175,75
2026-05-09 14:44:56.946,5,-0.23,-1.87,-0.1,-47.375,-252.4416,248.01239999999999,175,75
2026-05-09 14:44:57.203,5,-0.09,-1.62,-0.3,13.045,-252.4416,248.01239999999999,175,75
2026-05-09 14:44:57.203,5,0.39,-1.2,-0.57,24.565,-252.4416,92.06240000000001,175,75
2026-05-09 14:44:57.203,5,-0.11,-1.04,-1.24,31.615,141.1984,-252.2576,175,75
2026-05-09 14:44:57.204,5,-0.46,-0.68,-0.55,97.305,115.1884,-252.2576,175,75
2026-05-09 14:44:57.204,5,-0.42,-0.4,-0.26,135.065,120.2984,-252.2576,175,75
2026-05-09 14:44:57.204,5,-0.73,0.14,-0.04,144.785,126.80840000000002,-252.2576,175,75
2026-05-09 14:44:57.204,5,-1.0,0.59,0.1,118.67500000000001,112.0484,-252.2576,175,75
2026-05-09 14:44:57.204,5,-0.78,1.29,0.21,-13.515,28.1384,-252.2576,175,75
2026-05-09 14:44:57.204,5,0.32,1.37,0.04,-87.21499999999999,-12.4016,-252.2576,175,75
2026-05-09 14:44:57.204,5,1.37,1.41,-0.08,-132.67499999999998,19.1284,-252.2576,175,75
2026-05-09 14:44:57.205,5,0.46,0.84,0.02,-166.135,49.2884,-190.63760000000002,175,75
2026-05-09 14:44:57.205,5,0.17,0.7,0.11,-176.305,82.4684,-112.02759999999999,175,75
2026-05-09 14:44:57.205,5,0.06,0.46,0.11,-156.315,98.8284,-44.9076,175,75
2026-05-09 14:44:57.205,5,0.24,0.4,0.31,-87.40499999999999,118.81840000000001,138.0424,175,75
2026-05-09 14:44:57.205,5,0.23,0.42,0.43,-63.26499999999999,121.8584,228.73239999999998,175,75
2026-05-09 14:44:57.205,5,0.12,0.41,0.45,-44.695,123.25840000000001,248.01239999999999,175,75
2026-05-09 14:44:57.205,5,0.06,0.35,0.45,-27.745,121.64840000000001,248.01239999999999,175,75
2026-05-09 14:44:57.205,5,0.03,0.29,0.64,-0.9749999999999999,82.9084,248.01239999999999,175,75
2026-05-09 14:44:57.205,5,0.28,0.21,0.59,2.615,56.9884,248.01239999999999,175,75
2026-05-09 14:44:57.384,5,-0.27,-0.96,1.39,-21.065,-103.8016,248.01239999999999,175,75
2026-05-09 14:44:57.384,5,0.05,-1.5,1.42,-1.175,-98.90159999999999,248.01239999999999,175,75
2026-05-09 14:44:57.384,5,0.07,-1.6,1.64,66.465,-7.9216,99.2924,175,75
2026-05-09 14:44:57.385,5,0.13,-1.42,2.0,133.465,114.86840000000001,-76.88759999999999,175,75
2026-05-09 14:44:57.385,5,0.07,-1.02,2.0,142.485,226.0384,-252.2576,175,75
2026-05-09 14:44:57.385,5,0.3,0.58,2.0,-248.33499999999998,68.58840000000001,-252.2576,175,75
2026-05-09 14:44:57.385,5,0.2,0.16,2.0,-248.33499999999998,121.61840000000001,-236.7076,175,75
2026-05-09 14:44:57.385,5,-0.32,-0.26,2.0,-217.11499999999998,189.73839999999998,-101.6176,175,75
2026-05-09 14:44:57.385,5,-2.0,-0.47,1.95,-34.595,105.61840000000001,163.67239999999998,175,75
2026-05-09 14:44:57.385,5,-2.0,-0.34,1.96,2.695,-62.7916,201.77239999999998,175,75
2026-05-09 14:44:57.385,5,-2.0,-0.27,1.67,3.145,-252.4416,105.9324,175,75
2026-05-09 14:44:57.387,5,-1.3,-0.47,1.08,15.254999999999999,-252.4416,80.3724,175,75
2026-05-09 14:44:57.464,5,0.22,-0.37,-0.26,199.455,-252.4416,117.4124,175,75
2026-05-09 14:44:57.464,5,0.56,-0.31,-0.86,251.935,-252.4416,151.6224,175,75
2026-05-09 14:44:57.489,5,-1.85,-0.46,-0.95,206.895,110.8884,114.7024,175,75
2026-05-09 14:44:57.501,5,-2.0,-0.39,-0.66,166.985,-33.7116,34.612399999999994,175,75
2026-05-09 14:44:57.501,5,-2.0,-0.22,-0.51,114.435,-164.5916,-84.0876,175,75
2026-05-09 14:44:57.509,5,-2.0,0.12,-0.41,38.035,-252.4416,-228.1176,175,75
2026-05-09 14:44:57.513,5,-1.45,0.46,-0.36,-49.635,-252.4416,-252.2576,175,75
2026-05-09 14:44:57.530,5,-0.16,0.6,-0.25,-116.04499999999999,-250.2216,-252.2576,175,75
2026-05-09 14:44:57.530,5,1.66,0.87,0.14,-169.315,-100.10159999999999,-252.2576,175,75
2026-05-09 14:44:57.540,5,2.0,1.57,1.02,-247.995,247.8284,-252.2576,175,75
2026-05-09 14:44:57.547,5,2.0,2.0,0.66,-248.33499999999998,247.8284,-239.0076,175,75
2026-05-09 14:44:57.563,5,2.0,1.78,2.0,-248.33499999999998,247.8284,248.01239999999999,175,75
2026-05-09 14:44:57.563,5,0.6,0.96,2.0,-248.33499999999998,247.8284,248.01239999999999,175,75
2026-05-09 14:44:57.587,5,-1.14,-1.91,1.41,-221.215,247.8284,-14.2876,175,75
2026-05-09 14:44:57.602,5,-2.0,-1.91,1.01,-149.92499999999998,247.8284,-37.2676,175,75
2026-05-09 14:44:57.602,5,-2.0,-2.0,0.72,-57.645,247.8284,-63.1176,175,75
2026-05-09 14:44:57.614,5,-2.0,-2.0,0.68,54.495,247.8284,-122.0676,175,75
2026-05-09 14:44:57.624,5,-2.0,-1.6,1.37,147.745,155.4784,-166.3776,175,75
2026-05-09 14:44:57.647,5,-2.0,0.01,2.0,203.525,-240.2516,-225.6776,175,75
2026-05-09 14:44:57.664,5,-2.0,0.22,1.85,196.985,-252.4416,-245.8176,175,75
2026-05-09 14:44:57.676,5,-1.01,0.1,0.61,225.485,-252.4416,-214.91760000000002,175,75
2026-05-09 14:44:57.690,5,-0.24,0.23,0.46,242.535,-252.4416,-182.01760000000002,175,75
2026-05-09 14:44:57.701,5,0.25,0.26,0.25,251.935,-252.4416,-137.7476,175,75
2026-05-09 14:44:57.713,5,0.79,0.32,0.03,251.935,-252.4416,-8.8976,175,75
2026-05-09 14:44:57.723,5,0.64,0.37,0.3,251.935,-252.4416,66.0524,175,75
2026-05-09 14:44:57.734,5,2.0,1.39,-0.36,151.275,-151.7416,228.9124,175,75
2026-05-09 14:44:57.744,5,2.0,0.88,-0.63,102.375,88.9384,248.01239999999999,175,75
2026-05-09 14:44:57.759,5,0.91,0.53,-0.49,66.355,199.08839999999998,228.5924,175,75
2026-05-09 14:44:57.781,5,-0.06,0.0,-0.02,1.6949999999999998,230.51839999999999,144.77239999999998,175,75
2026-05-09 14:44:57.793,5,-0.14,0.5,0.38,-20.645,211.9684,108.2924,175,75
2026-05-09 14:44:57.803,5,-0.32,-0.1,0.23,-19.515,182.42839999999998,69.7424,175,75
2026-05-09 14:44:57.814,5,-0.48,-0.2,0.28,-8.035,137.8784,21.3824,175,75
2026-05-09 14:44:57.834,5,-0.52,0.04,0.22,7.944999999999999,25.6784,-35.4076,175,75
2026-05-09 14:44:57.843,5,-0.48,0.09,0.19,3.245,-25.2516,-53.0576,175,75
2026-05-09 14:44:57.857,5,-0.27,0.12,-0.17,0.31499999999999995,-100.2516,-87.2976,175,75
2026-05-09 14:44:57.870,5,-0.02,0.17,-0.29,2.815,-122.12159999999999,-86.6276,175,75
2026-05-09 14:44:57.883,5,0.21,0.29,-0.46,11.844999999999999,-136.07160000000002,-69.93759999999999,175,75
2026-05-09 14:44:57.883,5,0.46,0.12,-0.4,14.375,-137.07160000000002,-21.3876,175,75
2026-05-09 14:44:57.894,5,0.43,-0.08,-0.33,12.855,-133.6416,43.992399999999996,175,75
2026-05-09 14:44:57.907,5,0.84,-0.32,-0.21,12.245,-110.4816,103.53240000000001,175,75
2026-05-09 14:44:57.918,5,1.62,-0.55,-0.1,19.585,-28.3516,170.3524,175,75
2026-05-09 14:44:57.926,5,2.0,-1.08,0.43,44.575,112.58840000000001,248.01239999999999,175,75
2026-05-09 14:44:57.943,5,1.84,-0.74,1.17,79.33500000000001,247.8284,248.01239999999999,175,75
2026-05-09 14:44:57.955,5,1.65,0.08,2.0,-31.104999999999997,247.8284,-194.9076,175,75
2026-05-09 14:44:57.977,5,-0.51,0.49,2.0,-98.815,247.8284,-252.2576,175,75
2026-05-09 14:44:57.988,5,-1.98,-0.05,2.0,-52.675,247.8284,-252.2576,175,75
2026-05-09 14:44:57.999,5,-2.0,-0.23,1.55,-24.145,247.8284,-252.2576,175,75
2026-05-09 14:44:58.013,5,-2.0,-0.7,1.17,-30.715000000000003,247.8284,-252.2576,175,75
2026-05-09 14:44:58.024,5,-2.0,-0.66,1.28,-24.925,211.70839999999998,-252.2576,175,75
2026-05-09 14:44:58.024,5,-2.0,-0.23,1.85,-44.355,19.6184,-159.60760000000002,175,75
2026-05-09 14:44:58.040,5,-2.0,0.23,2.0,-68.96499999999999,-157.2016,64.9124,175,75
2026-05-09 14:44:58.049,5,-2.0,0.49,2.0,-77.695,-252.4416,248.01239999999999,175,75
2026-05-09 14:44:58.062,5,-2.0,-0.19,2.0,-75.90499999999999,-252.4416,248.01239999999999,175,75
2026-05-09 14:44:58.073,5,-1.82,-0.8,1.4,-71.63499999999999,-252.4416,248.01239999999999,175,75
2026-05-09 14:44:58.073,5,-1.15,-1.36,0.9,-66.30499999999999,-252.4416,248.01239999999999,175,75
2026-05-09 14:44:58.098,5,-0.83,-1.31,0.45,-77.955,-252.4416,248.01239999999999,175,75
2026-05-09 14:44:58.113,5,-0.43,-1.12,-0.23,-123.345,-252.4416,248.01239999999999,175,75
2026-05-09 14:44:58.124,5,2.0,-1.66,-2.0,-187.265,-75.13159999999999,-252.2576,175,75
2026-05-09 14:44:58.136,5,-0.17,-1.13,-1.39,-108.035,67.4384,-252.2576,175,75
2026-05-09 14:44:58.164,5,-0.76,-0.4,-0.42,18.335,17.0784,-252.2576,175,75
2026-05-09 14:44:58.164,5,-0.81,0.08,-0.17,58.045,34.4584,-252.2576,175,75
2026-05-09 14:44:58.186,5,-0.81,1.01,0.07,27.535,60.358399999999996,-252.2576,175,75
2026-05-09 14:44:58.208,5,0.58,1.81,-0.1,-101.40499999999999,120.0184,-252.2576,175,75
2026-05-09 14:44:58.218,5,0.3,1.35,-0.11,-161.005,134.6384,-252.2576,175,75
2026-05-09 14:44:58.232,5,0.15,1.02,-0.17,-193.315,136.3884,-248.0076,175,75
2026-05-09 14:44:58.244,5,0.16,0.91,-0.07,-197.435,140.9184,-89.0376,175,75
2026-05-09 14:44:58.244,5,0.23,0.77,0.02,-173.92499999999998,147.2584,78.78240000000001,175,75
2026-05-09 14:44:58.255,5,0.38,0.76,0.25,-114.88499999999999,118.98840000000001,248.01239999999999,175,75
2026-05-09 14:44:58.265,5,0.44,0.49,0.34,-56.145,80.7484,248.01239999999999,175,75
2026-05-09 14:44:58.289,5,0.58,0.32,0.44,12.955,81.39840000000001,248.01239999999999,175,75
2026-05-09 14:44:58.311,5,0.73,-0.33,-0.31,87.14500000000001,134.9984,248.01239999999999,175,75
2026-05-09 14:44:58.323,5,0.08,-0.0,0.52,100.95500000000001,104.22840000000001,248.01239999999999,175,75
2026-05-09 14:44:58.333,5,-1.99,-0.69,2.0,-0.125,-163.9416,248.01239999999999,175,75
2026-05-09 14:44:58.333,5,-0.19,-1.78,2.0,-81.24499999999999,-252.4416,248.01239999999999,175,75
2026-05-09 14:44:58.346,5,0.06,-1.93,1.94,-25.525,-108.2516,206.3524,175,75
2026-05-09 14:44:58.356,5,-0.9,-1.98,2.0,45.625,58.8884,-45.7776,175,75
2026-05-09 14:44:58.383,5,-0.73,-0.05,1.55,33.235,247.8284,-252.2576,175,75
2026-05-09 14:44:58.396,5,1.03,0.23,2.0,-100.705,247.8284,-252.2576,175,75
2026-05-09 14:44:58.411,5,0.98,0.55,2.0,-166.575,247.8284,-252.2576,175,75
2026-05-09 14:44:58.423,5,-1.0,-0.46,1.82,-133.815,247.8284,-252.2576,175,75
2026-05-09 14:44:58.434,5,-2.0,-1.0,0.78,-103.13499999999999,247.8284,-252.2576,175,75
2026-05-09 14:44:58.435,5,-2.0,-1.02,0.79,-26.725,245.3584,-252.2576,175,75
2026-05-09 14:44:58.448,5,-2.0,-0.28,1.91,29.245,56.358399999999996,-118.24759999999999,175,75
2026-05-09 14:44:58.460,5,-2.0,0.62,2.0,40.825,-154.8016,27.1224,175,75
2026-05-09 14:44:58.473,5,-2.0,0.43,2.0,46.825,-252.4416,108.8724,175,75
2026-05-09 14:44:58.484,5,-2.0,-0.05,1.55,53.235,-252.4416,155.8424,175,75
2026-05-09 14:44:58.485,5,-1.15,-0.24,1.0,65.025,-252.4416,205.2224,175,75
2026-05-09 14:44:58.496,5,-0.48,-0.33,0.68,73.25500000000001,-252.4416,233.58239999999998,175,75
2026-05-09 14:44:58.508,5,0.31,-0.66,0.08,107.81500000000001,-252.4416,248.01239999999999,175,75
2026-05-09 14:44:58.521,5,0.74,-1.0,-0.62,180.29500000000002,-252.4416,248.01239999999999,175,75
2026-05-09 14:44:58.530,5,2.0,-0.54,-1.29,219.555,-252.4416,248.01239999999999,175,75
2026-05-09 14:44:58.539,5,2.0,0.18,-2.0,251.935,-38.891600000000004,248.01239999999999,175,75
2026-05-09 14:44:58.554,5,0.53,-0.81,-2.0,225.63500000000002,247.8284,248.01239999999999,175,75
2026-05-09 14:44:58.554,5,-1.91,-0.89,-1.48,205.645,238.7484,126.56240000000001,175,75
2026-05-09 14:44:58.573,5,-2.0,-0.61,-0.93,192.055,60.108399999999996,56.8024,175,75
2026-05-09 14:44:58.577,5,-2.0,-0.34,-0.67,158.91500000000002,-106.0316,-40.5476,175,75
2026-05-09 14:44:58.585,5,-2.0,0.02,-0.57,99.95500000000001,-239.32160000000002,-179.51760000000002,175,75
2026-05-09 14:44:58.600,5,-1.98,0.32,-0.66,25.175,-252.4416,-252.2576,175,75
2026-05-09 14:44:58.624,5,1.79,0.65,-0.78,-107.645,-188.7816,-252.2576,175,75
2026-05-09 14:44:58.625,5,2.0,1.09,-0.43,-137.45499999999998,74.3284,-252.2576,175,75
2026-05-09 14:44:58.639,5,2.0,1.38,0.34,-206.08499999999998,247.8284,-252.2576,175,75
2026-05-09 14:44:58.649,5,1.69,0.98,0.91,-248.33499999999998,247.8284,-252.2576,175,75
2026-05-09 14:44:58.668,5,2.0,2.0,2.0,-248.33499999999998,247.8284,248.01239999999999,175,75
2026-05-09 14:44:58.679,5,0.72,0.37,1.98,-248.33499999999998,247.8284,248.01239999999999,175,75
2026-05-09 14:44:58.692,5,-0.65,-0.83,0.41,-248.33499999999998,247.8284,208.4024,175,75
2026-05-09 14:44:58.705,5,-1.22,-1.98,0.7,-248.33499999999998,247.8284,71.3224,175,75
2026-05-09 14:44:58.705,5,-2.0,-1.98,1.44,-202.965,247.8284,113.78240000000001,175,75
2026-05-09 14:44:58.716,5,-2.0,-2.0,1.07,-89.63499999999999,247.8284,105.9924,175,75
2026-05-09 14:44:58.727,5,-2.0,-2.0,0.95,40.285,247.8284,30.4924,175,75
2026-05-09 14:44:58.757,5,-2.0,-2.0,1.42,136.005,64.47840000000001,-65.8876,175,75
2026-05-09 14:44:58.757,5,-2.0,-1.31,1.94,188.01500000000001,-145.5916,-179.7876,175,75
2026-05-09 14:44:58.770,5,-2.0,-0.6,1.8,213.01500000000001,-252.4416,-252.2576,175,75
2026-05-09 14:44:58.786,5,-2.0,-0.24,1.29,229.625,-252.4416,-252.2576,175,75
2026-05-09 14:44:58.796,5,-1.79,-0.04,0.7,251.935,-252.4416,-252.2576,175,75
2026-05-09 14:44:58.811,5,-0.11,0.21,0.05,251.935,-252.4416,-252.2576,175,75
2026-05-09 14:44:58.821,5,0.51,0.47,0.0,251.935,-252.4416,-186.6576,175,75
2026-05-09 14:44:58.834,5,0.59,0.7,0.2,251.935,-252.4416,-169.9076,175,75
2026-05-09 14:44:58.834,5,1.4,1.29,0.38,251.935,-252.4416,-149.41760000000002,175,75
2026-05-09 14:44:58.846,5,2.0,1.65,-0.07,244.595,-252.4416,-12.7476,175,75
2026-05-09 14:44:58.856,5,2.0,2.0,-0.63,152.315,-77.6116,211.1824,175,75
2026-05-09 14:44:58.856,5,0.89,1.41,-0.4,89.45500000000001,65.9684,248.01239999999999,175,75
2026-05-09 14:44:58.878,5,0.01,0.25,-0.22,-1.405,133.9984,178.77239999999998,175,75
2026-05-09 14:44:58.893,5,-0.01,0.05,-0.07,-12.795,148.7984,159.5424,175,75
2026-05-09 14:44:58.904,5,0.11,0.77,0.33,-16.795,168.5984,147.76239999999999,175,75
2026-05-09 14:44:58.904,5,-0.07,-0.16,-0.07,-7.245000000000001,183.7484,137.9624,175,75
2026-05-09 14:44:58.920,5,-0.2,-0.07,-0.08,7.205,184.7184,109.28240000000001,175,75
2026-05-09 14:44:58.932,5,-0.28,0.04,-0.02,21.945,164.8484,67.3524,175,75
2026-05-09 14:44:58.944,5,-0.28,0.06,0.08,24.685,125.12840000000001,39.0524,175,75
2026-05-09 14:44:58.944,5,-0.23,0.14,0.09,15.695,68.67840000000001,33.7024,175,75
2026-05-09 14:44:58.956,5,-0.29,0.09,-0.02,2.235,10.8284,38.1224,175,75
2026-05-09 14:44:58.974,5,-0.31,0.02,-0.15,-3.045,-36.391600000000004,33.7224,175,75
2026-05-09 14:44:58.984,5,-0.25,-0.03,-0.26,-0.9949999999999999,-79.07159999999999,27.1124,175,75
2026-05-09 14:44:58.993,5,-0.11,-0.14,-0.32,6.3549999999999995,-115.6716,34.0524,175,75
2026-05-09 14:44:59.003,5,0.15,-0.32,-0.25,16.115000000000002,-135.4216,58.322399999999995,175,75
2026-05-09 14:44:59.003,5,0.44,-0.25,-0.23,19.095,-133.4316,85.6324,175,75
2026-05-09 14:44:59.015,5,0.9,-0.53,-0.0,21.215,-96.9416,121.67240000000001,175,75
2026-05-09 14:44:59.025,5,1.35,-0.83,0.24,29.235,-11.9016,173.80239999999998,175,75
2026-05-09 14:44:59.035,5,1.48,-0.96,0.78,46.975,115.9184,224.7924,175,75
2026-05-09 14:44:59.047,5,1.14,-0.12,0.79,36.825,247.8284,207.30239999999998,175,75
2026-05-09 14:44:59.058,5,0.13,-0.77,2.0,34.005,115.84840000000001,-232.8476,175,75
2026-05-09 14:44:59.070,5,2.0,0.92,2.0,-94.485,247.8284,-252.2576,175,75
2026-05-09 14:44:59.075,5,1.75,1.19,2.0,-242.505,247.8284,-252.2576,175,75
2026-05-09 14:44:59.090,5,0.31,-0.18,2.0,-150.505,247.8284,-252.2576,175,75
2026-05-09 14:44:59.101,5,-1.38,-0.6,1.58,-68.285,247.8284,-252.2576,175,75
2026-05-09 14:44:59.111,5,-2.0,-0.56,0.81,-39.515,247.8284,-252.2576,175,75
2026-05-09 14:44:59.122,5,-2.0,-0.84,0.65,-12.865,247.8284,-252.2576,175,75
2026-05-09 14:44:59.133,5,-2.0,-0.33,1.38,-18.025,166.2584,-192.19760000000002,175,75
2026-05-09 14:44:59.145,5,-2.0,0.3,2.0,-66.535,-35.0616,-46.3376,175,75
2026-05-09 14:44:59.149,5,-2.0,0.63,2.0,-101.79499999999999,-252.4416,165.1924,175,75
2026-05-09 14:44:59.165,5,-2.0,-0.06,2.0,-101.15499999999999,-252.4416,248.01239999999999,175,75
2026-05-09 14:44:59.168,5,-1.94,-0.88,1.47,-79.85499999999999,-252.4416,248.01239999999999,175,75
2026-05-09 14:44:59.181,5,-1.27,-1.19,1.0,-48.245,-252.4416,248.01239999999999,175,75
2026-05-09 14:44:59.196,5,-0.81,-1.31,0.4,-10.225,-252.4416,248.01239999999999,175,75
2026-05-09 14:44:59.208,5,-0.81,-1.21,0.11,-16.485,-252.4416,248.01239999999999,175,75
2026-05-09 14:44:59.218,5,-0.46,-1.12,-0.37,-37.595,-252.4416,242.0924,175,75
2026-05-09 14:44:59.229,5,1.85,-1.35,-1.55,-66.975,-252.4416,-4.877599999999999,175,75
2026-05-09 14:44:59.251,5,0.26,-0.91,-1.61,-70.79499999999999,74.95840000000001,-252.2576,175,75
2026-05-09 14:44:59.257,5,-0.4,-0.73,-0.8,-22.435,63.218399999999995,-252.2576,175,75
2026-05-09 14:44:59.271,5,-0.5,-0.31,-0.45,22.955,53.2784,-252.2576,175,75
2026-05-09 14:44:59.282,5,-0.82,0.25,-0.22,41.565,46.9184,-252.2576,175,75
2026-05-09 14:44:59.301,5,-0.95,0.61,-0.09,31.175,38.6684,-252.2576,175,75
2026-05-09 14:44:59.301,5,-0.83,1.06,-0.05,-3.665,22.0184,-252.2576,175,75
2026-05-09 14:44:59.312,5,-0.31,1.39,0.01,-53.795,21.0584,-252.2576,175,75
2026-05-09 14:44:59.324,5,0.47,1.42,0.08,-113.565,45.0384,-252.2576,175,75
2026-05-09 14:44:59.324,5,0.6,1.27,0.12,-163.505,85.3084,-252.2576,175,75
2026-05-09 14:44:59.346,5,0.38,0.88,0.15,-208.015,123.3584,-252.2576,175,75
2026-05-09 14:44:59.346,5,0.22,0.7,0.14,-227.945,157.3284,-178.5576,175,75
2026-05-09 14:44:59.356,5,0.23,0.46,0.01,-218.39499999999998,180.5484,-54.3776,175,75
2026-05-09 14:44:59.368,5,0.33,0.39,0.0,-165.435,168.48839999999998,101.0924,175,75
2026-05-09 14:44:59.378,5,0.41,0.53,0.18,-91.695,113.6684,248.01239999999999,175,75
2026-05-09 14:44:59.394,5,0.42,0.74,0.53,-37.845,72.53840000000001,248.01239999999999,175,75
2026-05-09 14:44:59.404,5,0.39,0.54,0.58,-7.805,75.6684,248.01239999999999,175,75
2026-05-09 14:44:59.404,5,0.43,0.19,0.47,15.995,101.7484,248.01239999999999,175,75
2026-05-09 14:44:59.422,5,0.5,0.1,0.55,39.265,115.9684,248.01239999999999,175,75
2026-05-09 14:44:59.434,5,0.66,-0.18,1.07,19.245,94.6384,248.01239999999999,175,75
2026-05-09 14:44:59.445,5,-1.45,-0.3,2.0,-66.01499999999999,-155.51160000000002,248.01239999999999,175,75
2026-05-09 14:44:59.445,5,0.42,-2.0,2.0,-119.085,-252.4416,248.01239999999999,175,75
2026-05-09 14:44:59.468,5,-0.42,-2.0,2.0,33.415,53.678399999999996,133.0324,175,75
2026-05-09 14:44:59.498,5,-1.3,-0.3,0.9,120.72500000000001,236.3584,-252.2576,175,75
2026-05-09 14:44:59.511,5,-0.53,0.17,1.42,103.935,247.8284,-252.2576,175,75
2026-05-09 14:44:59.524,5,0.83,1.08,2.0,-9.515,247.8284,-252.2576,175,75
2026-05-09 14:44:59.534,5,0.36,1.06,2.0,-132.545,208.5484,-252.2576,175,75
2026-05-09 14:44:59.541,5,-0.97,-0.07,2.0,-136.715,247.8284,-252.2576,175,75
2026-05-09 14:44:59.544,5,-2.0,-0.19,1.35,-133.70499999999998,247.8284,-252.2576,175,75
2026-05-09 14:44:59.556,5,-1.89,-0.65,1.16,-75.63499999999999,218.17839999999998,-252.2576,175,75
2026-05-09 14:44:59.575,5,-2.0,0.41,2.0,23.305,-83.5816,89.1924,175,75
2026-05-09 14:44:59.586,5,-2.0,0.44,2.0,17.305,-252.4416,177.5324,175,75
2026-05-09 14:44:59.599,5,-1.96,0.12,1.69,8.175,-252.4416,216.52239999999998,175,75
2026-05-09 14:44:59.624,5,-0.23,-0.54,0.52,58.695,-252.4416,248.01239999999999,175,75
2026-05-09 14:44:59.624,5,0.11,-0.59,0.14,107.165,-252.4416,248.01239999999999,175,75
2026-05-09 14:44:59.649,5,1.86,-0.74,-1.23,173.775,-252.4416,248.01239999999999,175,75
2026-05-09 14:44:59.659,5,2.0,-0.72,-2.0,161.405,-27.8916,201.3724,175,75
2026-05-09 14:44:59.670,5,0.29,-0.76,-2.0,111.385,247.8284,-16.9676,175,75
2026-05-09 14:44:59.681,5,-1.41,-0.65,-1.03,91.45500000000001,185.2584,-69.8476,175,75
2026-05-09 14:44:59.704,5,-2.0,-0.36,-0.68,78.635,-75.51159999999999,-177.7776,175,75
2026-05-09 14:44:59.704,5,-2.0,0.05,-0.69,45.305,-203.7716,-252.2576,175,75
2026-05-09 14:44:59.716,5,-1.72,0.46,-0.84,-2.215,-252.4416,-252.2576,175,75
2026-05-09 14:44:59.738,5,0.45,0.73,-1.12,-51.375,-252.4416,-252.2576,175,75
2026-05-09 14:44:59.750,5,2.0,1.15,-1.21,-80.24499999999999,-75.7516,-245.29760000000002,175,75
2026-05-09 14:44:59.750,5,0.95,1.08,-0.38,-126.115,121.4484,-175.48760000000001,175,75
2026-05-09 14:44:59.758,5,0.21,0.95,-0.03,-185.685,241.83839999999998,-234.38760000000002,175,75
2026-05-09 14:44:59.781,5,1.3,0.59,0.88,-248.33499999999998,247.8284,-252.2576,175,75
2026-05-09 14:44:59.793,5,2.0,2.0,2.0,-248.33499999999998,247.8284,-54.457600000000006,175,75
2026-05-09 14:44:59.793,5,2.0,1.2,2.0,-248.33499999999998,242.8484,248.01239999999999,175,75
2026-05-09 14:44:59.805,5,0.81,-0.35,1.0,-248.33499999999998,247.8284,248.01239999999999,175,75
2026-05-09 14:44:59.816,5,-1.15,-1.54,0.28,-248.33499999999998,247.8284,248.01239999999999,175,75
2026-05-09 14:44:59.834,5,-2.0,-2.0,2.0,-90.725,247.8284,186.39239999999998,175,75
2026-05-09 14:44:59.845,5,-2.0,-2.0,1.74,-36.345,247.8284,23.7724,175,75
2026-05-09 14:44:59.845,5,-2.0,-2.0,0.74,57.635,247.8284,-160.2576,175,75
2026-05-09 14:44:59.864,5,-2.0,-1.99,0.92,149.725,247.8284,-252.2576,175,75
2026-05-09 14:44:59.864,5,-2.0,-1.36,1.85,207.095,29.9384,-252.2576,175,75
2026-05-09 14:44:59.875,5,-2.0,-0.55,2.0,231.835,-149.3416,-252.2576,175,75
2026-05-09 14:44:59.887,5,-2.0,-0.05,2.0,219.215,-252.4416,-252.2576,175,75
2026-05-09 14:44:59.903,5,-2.0,0.02,1.45,212.615,-252.4416,-252.2576,175,75
2026-05-09 14:44:59.904,5,-1.38,-0.03,0.86,222.785,-252.4416,-252.2576,175,75
2026-05-09 14:44:59.915,5,-0.58,-0.07,0.48,249.54500000000002,-252.4416,-214.94760000000002,175,75
2026-05-09 14:44:59.939,5,0.04,0.04,0.37,251.935,-252.4416,-147.26760000000002,175,75
2026-05-09 14:44:59.939,5,0.36,0.33,0.43,251.935,-252.4416,-65.7476,175,75
2026-05-09 14:44:59.951,5,0.57,0.57,0.6,251.935,-252.4416,-51.677600000000005,175,75
2026-05-09 14:44:59.961,5,0.93,0.76,0.61,229.82500000000002,-252.4416,-16.4776,175,75
2026-05-09 14:44:59.971,5,2.0,0.89,0.25,179.435,-252.4416,76.7324,175,75
2026-05-09 14:44:59.983,5,2.0,0.99,-0.2,148.405,-139.4616,202.33239999999998,175,75
2026-05-09 14:44:59.990,5,2.0,1.0,-0.45,114.95500000000001,24.6584,248.01239999999999,175,75
2026-05-09 14:45:00.003,5,0.93,0.6,-0.37,91.08500000000001,122.67840000000001,248.01239999999999,175,75
2026-05-09 14:45:00.026,5,-0.16,0.02,0.31,15.305,182.8884,73.9024,175,75
2026-05-09 14:45:00.050,5,-0.35,-0.37,0.39,-12.295,140.5484,-46.567600000000006,175,75
2026-05-09 14:45:00.062,5,-0.33,-0.27,0.27,-5.625,98.9384,-82.24759999999999,175,75
2026-05-09 14:45:00.073,5,-0.39,-0.15,0.17,6.915,57.0984,-102.2876,175,75
2026-05-09 14:45:00.077,5,-0.42,-0.02,0.1,13.725,16.438399999999998,-117.5476,175,75
2026-05-09 14:45:00.088,5,-0.4,0.07,-0.01,17.205000000000002,-24.7716,-129.6476,175,75
2026-05-09 14:45:00.099,5,-0.3,0.13,-0.14,19.765,-65.0316,-135.3776,175,75
2026-05-09 14:45:00.109,5,-0.02,0.14,-0.27,21.065,-100.13159999999999,-128.2476,175,75
2026-05-09 14:45:00.146,5,0.12,0.12,-0.42,42.955,-127.51159999999999,40.992399999999996,175,75
2026-05-09 14:45:00.159,5,0.73,-0.39,-0.33,30.675,-101.82159999999999,91.1524,175,75
2026-05-09 14:45:00.169,5,0.95,-0.6,0.16,21.965,-27.061600000000002,144.58239999999998,175,75
2026-05-09 14:45:00.184,5,1.09,-0.82,0.66,22.855,87.4684,215.05239999999998,175,75
2026-05-09 14:45:00.196,5,0.26,-0.29,2.0,-14.675,247.8284,79.4824,175,75
2026-05-09 14:45:00.210,5,1.26,-0.56,2.0,-49.005,247.8284,-252.2576,175,75
2026-05-09 14:45:00.225,5,2.0,-0.07,2.0,-93.21499999999999,247.8284,-252.2576,175,75
2026-05-09 14:45:00.225,5,0.5,-0.47,2.0,-104.475,247.8284,-252.2576,175,75
2026-05-09 14:45:00.248,5,-2.0,-1.54,0.03,23.955,247.8284,-252.2576,175,75
2026-05-09 14:45:00.259,5,-2.0,-1.45,0.1,92.84500000000001,247.8284,-252.2576,175,75
2026-05-09 14:45:00.269,5,-2.0,-0.67,1.1,111.715,88.4084,-214.88760000000002,175,75
2026-05-09 14:45:00.279,5,-2.0,0.56,2.0,67.775,-153.8616,-114.8976,175,75
2026-05-09 14:45:00.294,5,-2.0,1.06,2.0,12.905,-252.4416,48.2324,175,75
2026-05-09 14:45:00.294,5,-2.0,0.23,2.0,15.785,-252.4416,126.3824,175,75
2026-05-09 14:45:00.306,5,-1.99,-0.47,0.95,29.535,-252.4416,180.5024,175,75
2026-05-09 14:45:00.316,5,-0.73,-0.85,0.38,56.105,-252.4416,238.73239999999998,175,75
2026-05-09 14:45:00.327,5,0.15,-0.75,0.27,79.70500000000001,-252.4416,248.01239999999999,175,75
2026-05-09 14:45:00.338,5,0.56,-0.58,0.08,101.98500000000001,-252.4416,248.01239999999999,175,75
2026-05-09 14:45:00.354,5,-0.01,-0.6,-0.21,122.06500000000001,-252.4416,248.01239999999999,175,75
2026-05-09 14:45:00.364,5,0.83,-0.96,-0.61,108.81500000000001,-252.4416,248.01239999999999,175,75
2026-05-09 14:45:00.376,5,2.0,-0.63,-2.0,30.335,-188.1216,-18.677599999999998,175,75
2026-05-09 14:45:00.396,5,-0.89,-0.02,-0.55,-49.665,-8.9216,-252.2576,175,75
2026-05-09 14:45:00.418,5,-0.81,0.43,0.0,-66.235,-46.0116,-252.2576,175,75
2026-05-09 14:45:00.429,5,-0.43,0.48,0.06,-80.565,-31.1916,-252.2576,175,75
2026-05-09 14:45:00.441,5,0.26,0.58,0.12,-94.005,1.4083999999999999,-252.2576,175,75
2026-05-09 14:45:00.451,5,0.75,0.56,0.17,-110.345,64.17840000000001,-252.2576,175,75
2026-05-09 14:45:00.462,5,0.78,0.55,0.14,-116.125,118.64840000000001,-252.2576,175,75
2026-05-09 14:45:00.475,5,0.37,0.28,0.12,-113.625,196.9984,-110.7976,175,75
2026-05-09 14:45:00.485,5,0.26,0.25,0.25,-91.035,213.51839999999999,-31.3176,175,75
2026-05-09 14:45:00.504,5,0.26,0.31,0.47,-65.865,202.1884,58.1924,175,75
2026-05-09 14:45:00.514,5,0.35,0.39,0.71,-61.275,187.58839999999998,160.5724,175,75
2026-05-09 14:45:00.528,5,0.09,0.13,0.72,-74.535,178.9684,248.01239999999999,175,75
2026-05-09 14:45:00.540,5,-0.11,-0.08,0.7,-68.985,146.51839999999999,248.01239999999999,175,75
2026-05-09 14:45:00.552,5,-0.83,-0.38,0.92,-54.085,65.0784,248.01239999999999,175,75
2026-05-09 14:45:00.571,5,-0.93,-1.13,1.51,-55.235,-202.54160000000002,126.53240000000001,175,75
2026-05-09 14:45:00.579,5,-0.58,-1.21,1.16,-45.725,-215.3116,30.802400000000002,175,75
2026-05-09 14:45:00.594,5,-0.52,-1.19,1.08,-18.275,-187.88160000000002,-67.35759999999999,175,75
2026-05-09 14:45:00.604,5,-0.14,-1.11,1.21,11.754999999999999,-136.0216,-172.5576,175,75
2026-05-09 14:45:00.604,5,0.83,-0.95,1.53,32.205,0.3184,-230.22760000000002,175,75
2026-05-09 14:45:00.623,5,1.06,-0.93,2.0,33.245000000000005,161.51839999999999,-252.2576,175,75
2026-05-09 14:45:00.631,5,1.66,-0.45,2.0,27.455,160.5084,-252.2576,175,75
2026-05-09 14:45:00.641,5,1.19,-0.14,2.0,7.234999999999999,222.3584,-252.2576,175,75
2026-05-09 14:45:00.651,5,-0.2,-0.36,2.0,-0.08499999999999996,247.8284,-252.2576,175,75
2026-05-09 14:45:00.664,5,-1.62,-0.14,1.66,6.015,247.8284,-252.2576,175,75
2026-05-09 14:45:00.676,5,-1.7,-0.03,1.87,-9.575000000000001,216.7584,-252.2576,175,75
2026-05-09 14:45:00.686,5,-1.69,0.06,2.0,-24.385,115.9484,-252.2576,175,75
2026-05-09 14:45:00.699,5,-1.4,0.03,2.0,-22.975,9.7484,-236.2076,175,75
2026-05-09 14:45:00.710,5,-1.0,-0.1,2.0,0.46499999999999986,-76.2316,-144.2076,175,75
2026-05-09 14:45:00.724,5,-0.86,-0.21,1.91,28.785,-153.10160000000002,-40.8076,175,75
2026-05-09 14:45:00.724,5,-0.92,-0.26,1.57,40.195,-236.48160000000001,33.712399999999995,175,75
2026-05-09 14:45:00.735,5,-0.88,-0.27,1.25,37.875,-252.4416,59.2624,175,75
2026-05-09 14:45:00.750,5,-0.51,-0.3,0.9,29.525,-252.4416,44.932399999999994,175,75
2026-05-09 14:45:00.764,5,-0.26,-0.29,0.56,30.465,-252.4416,-1.6676,175,75
2026-05-09 14:45:00.764,5,-0.27,-0.07,0.26,28.145,-252.4416,-57.7776,175,75
2026-05-09 14:45:00.777,5,0.36,0.12,-0.21,24.565,-252.4416,-134.9076,175,75
2026-05-09 14:45:00.787,5,1.01,0.39,-0.49,21.725,-252.4416,-219.3076,175,75
2026-05-09 14:45:00.799,5,2.0,0.88,-1.07,9.605,-199.6716,-252.2576,175,75
2026-05-09 14:45:00.809,5,1.59,0.4,-0.74,53.995,-47.9116,-190.7076,175,75
2026-05-09 14:45:00.819,5,-0.42,0.69,-0.66,26.265,-19.9516,-227.4576,175,75
2026-05-09 14:45:00.834,5,-0.76,0.62,-0.48,13.995,-41.8616,-252.2576,175,75
2026-05-09 14:45:00.850,5,-0.38,0.48,-0.36,-4.075,-63.6716,-252.2576,175,75
2026-05-09 14:45:00.858,5,0.02,0.4,-0.26,-8.465,-48.0916,-252.2576,175,75
2026-05-09 14:45:00.886,5,0.56,0.23,0.27,-32.825,89.7484,-75.8676,175,75
2026-05-09 14:45:00.886,5,0.63,0.16,0.39,-50.325,188.3584,12.5624,175,75
2026-05-09 14:45:00.899,5,0.98,0.11,0.5,-59.175,247.8284,98.1924,175,75
2026-05-09 14:45:00.908,5,1.72,0.85,0.22,-83.785,247.8284,196.80239999999998,175,75
2026-05-09 14:45:00.919,5,2.0,2.0,2.0,-164.495,247.8284,248.01239999999999,175,75
2026-05-09 14:45:00.930,5,1.05,0.88,2.0,-168.345,99.3884,248.01239999999999,175,75
2026-05-09 14:45:00.949,5,-1.09,-2.0,2.0,-89.085,195.9384,248.01239999999999,175,75
2026-05-09 14:45:00.961,5,-1.95,-2.0,1.5,-65.365,247.8284,195.98239999999998,175,75
2026-05-09 14:45:00.974,5,-2.0,-2.0,0.86,-18.735,247.8284,-49.4376,175,75
2026-05-09 14:45:00.986,5,-2.0,-2.0,0.58,33.755,247.8284,-252.2576,175,75
2026-05-09 14:45:00.986,5,-2.0,-1.84,0.54,99.20500000000001,206.11839999999998,-252.2576,175,75
2026-05-09 14:45:00.997,5,-2.0,-1.37,0.88,165.85500000000002,138.5984,-252.2576,175,75
2026-05-09 14:45:01.013,5,-1.77,-0.64,1.76,198.565,50.9384,-252.2576,175,75
2026-05-09 14:45:01.024,5,-0.55,0.7,2.0,195.565,-175.7516,-252.2576,175,75
2026-05-09 14:45:01.024,5,-0.37,1.02,2.0,138.88500000000002,-208.57160000000002,-252.2576,175,75
2026-05-09 14:45:01.037,5,-0.19,0.66,1.41,101.405,-198.9516,-252.2576,175,75
2026-05-09 14:45:01.048,5,-0.29,0.69,1.1,84.36500000000001,-213.04160000000002,-252.2576,175,75
2026-05-09 14:45:01.059,5,-0.27,0.56,0.91,70.795,-204.6716,-252.2576,175,75
2026-05-09 14:45:01.069,5,-0.23,0.54,0.79,62.145,-206.5316,-223.98760000000001,175,75
2026-05-09 14:45:01.089,5,-0.2,0.64,0.6,29.695,-185.0516,-189.9376,175,75
2026-05-09 14:45:01.114,5,0.23,0.69,-0.24,55.075,-193.8416,-146.1276,175,75
2026-05-09 14:45:01.125,5,1.03,0.87,-0.55,68.84500000000001,-192.1916,-71.13759999999999,175,75
2026-05-09 14:45:01.125,5,1.15,0.91,-0.95,82.885,-150.32160000000002,-23.0876,175,75
2026-05-09 14:45:01.136,5,0.64,0.84,-1.11,97.14500000000001,-97.3316,36.292399999999994,175,75
2026-05-09 14:45:01.146,5,-0.28,0.58,-1.03,113.435,-98.79159999999999,47.532399999999996,175,75
2026-05-09 14:45:01.157,5,-0.69,0.38,-0.83,119.58500000000001,-135.66160000000002,34.532399999999996,175,75
2026-05-09 14:45:01.167,5,-0.75,0.32,-0.63,113.495,-172.5016,15.0624,175,75
2026-05-09 14:45:01.181,5,-0.54,0.28,-0.54,105.72500000000001,-185.2016,-4.1376,175,75
2026-05-09 14:45:01.193,5,-0.18,0.24,-0.33,91.95500000000001,-153.7716,-10.8476,175,75
2026-05-09 14:45:01.205,5,0.0,0.27,-0.08,69.59500000000001,-81.10159999999999,-18.2276,175,75
2026-05-09 14:45:01.205,5,0.16,0.18,0.16,40.175,19.3984,-30.427599999999998,175,75
2026-05-09 14:45:01.215,5,0.29,0.21,0.35,2.735,131.3284,-36.0876,175,75
2026-05-09 14:45:01.227,5,0.36,-0.06,0.32,-37.815,235.1284,-12.887599999999999,175,75
2026-05-09 14:45:01.244,5,0.51,-0.52,0.17,-72.07499999999999,247.8284,35.572399999999995,175,75
2026-05-09 14:45:01.244,5,0.83,-0.23,0.4,-89.40499999999999,247.8284,145.9624,175,75
2026-05-09 14:45:01.264,5,1.27,-0.55,0.23,-100.675,247.8284,248.01239999999999,175,75
2026-05-09 14:45:01.264,5,1.36,-0.53,0.19,-102.335,247.8284,248.01239999999999,175,75
2026-05-09 14:45:01.277,5,1.12,-0.58,0.31,-79.695,247.8284,248.01239999999999,175,75
2026-05-09 14:45:01.296,5,2.0,-2.0,2.0,19.485,247.8284,243.6024,175,75
2026-05-09 14:45:01.307,5,-2.0,-1.49,0.16,105.50500000000001,247.8284,175.3524,175,75
2026-05-09 14:45:01.319,5,-2.0,-1.18,-0.82,142.235,247.8284,-144.7776,175,75
2026-05-09 14:45:01.324,5,-2.0,-1.28,-1.23,194.145,247.8284,-252.2576,175,75
2026-05-09 14:45:01.339,5,-2.0,-1.26,-0.84,251.935,183.4784,-252.2576,175,75
2026-05-09 14:45:01.350,5,-2.0,-0.59,-0.77,251.935,-131.5616,-252.2576,175,75
2026-05-09 14:45:01.362,5,0.29,2.0,2.0,127.605,-252.4416,-252.2576,175,75
2026-05-09 14:45:01.374,5,-0.9,0.14,2.0,-73.04499999999999,-252.4416,-252.2576,175,75
2026-05-09 14:45:01.384,5,-1.5,-0.2,2.0,14.195,-175.41160000000002,-252.2576,175,75
2026-05-09 14:45:01.384,5,-1.86,-0.5,2.0,168.475,-208.5316,-201.10760000000002,175,75
2026-05-09 14:45:01.396,5,-2.0,-0.3,1.36,251.935,-252.4416,-143.38760000000002,175,75
2026-05-09 14:45:01.407,5,-2.0,0.15,0.99,251.935,-252.4416,-158.47760000000002,175,75
2026-05-09 14:45:01.421,5,-1.72,0.58,0.72,251.935,-252.4416,-205.5276,175,75
2026-05-09 14:45:01.425,5,-1.23,0.84,0.5,251.935,-252.4416,-252.2576,175,75
2026-05-09 14:45:01.447,5,-0.56,1.39,0.32,189.405,-252.4416,-252.2576,175,75
2026-05-09 14:45:01.458,5,-0.39,1.6,0.26,121.015,-252.4416,-252.2576,175,75
2026-05-09 14:45:01.469,5,0.03,1.72,0.02,59.655,-252.4416,-252.2576,175,75
2026-05-09 14:45:01.483,5,2.0,2.0,-1.45,42.095,-252.4416,-252.2576,175,75
2026-05-09 14:45:01.483,5,2.0,1.55,-0.44,6.425,-89.6116,-121.07759999999999,175,75
2026-05-09 14:45:01.511,5,-0.77,1.15,-0.52,-42.065,6.1684,-252.2576,175,75
2026-05-09 14:45:01.541,5,-0.15,0.31,0.17,-27.785,0.7584,-62.4476,175,75
2026-05-09 14:45:01.552,5,-0.27,0.17,0.18,-42.795,-21.1916,76.4824,175,75
2026-05-09 14:45:01.559,5,-0.43,0.11,0.13,-57.635,-44.1516,175.9924,175,75
2026-05-09 14:45:01.588,5,-0.14,-0.33,-0.31,-21.275,-127.0316,248.01239999999999,175,75
2026-05-09 14:45:01.622,5,0.14,-0.36,-0.42,13.705,-129.6916,248.01239999999999,175,75
2026-05-09 14:45:01.622,5,0.45,-0.41,-0.47,46.985,-107.51159999999999,248.01239999999999,175,75
2026-05-09 14:45:01.632,5,0.76,-0.29,-0.4,72.69500000000001,-43.391600000000004,248.01239999999999,175,75
2026-05-09 14:45:01.639,5,1.45,-0.69,-0.83,95.72500000000001,143.01839999999999,248.01239999999999,175,75
2026-05-09 14:45:01.652,5,0.1,-0.46,-0.59,105.69500000000001,247.8284,205.2224,175,75
2026-05-09 14:45:01.652,5,-0.53,-0.39,-0.22,99.22500000000001,247.8284,87.9924,175,75
2026-05-09 14:45:01.663,5,-0.71,-0.27,0.15,76.305,247.8284,-0.3475999999999999,175,75
2026-05-09 14:45:01.674,5,-0.67,-0.26,0.5,37.755,247.8284,-73.9876,175,75
2026-05-09 14:45:01.683,5,-0.63,-0.41,0.91,-14.405000000000001,247.8284,-155.0276,175,75
2026-05-09 14:45:01.694,5,-0.58,-0.89,1.87,-57.195,165.4984,-252.2576,175,75
2026-05-09 14:45:01.694,5,-0.05,-0.79,1.91,-106.625,54.5784,-252.2576,175,75
2026-05-09 14:45:01.705,5,0.42,-1.18,2.0,-105.40499999999999,20.688399999999998,-252.2576,175,75
2026-05-09 14:45:01.717,5,1.31,-1.25,1.88,-86.79499999999999,108.4184,-252.2576,175,75
2026-05-09 14:45:01.728,5,0.94,-1.49,1.81,-63.805,247.8284,-252.2576,175,75
2026-05-09 14:45:01.738,5,0.78,-1.57,1.52,-23.245,247.8284,-213.8776,175,75
2026-05-09 14:45:01.751,5,-1.03,-1.56,1.6,113.42500000000001,247.8284,-252.2576,175,75
2026-05-09 14:45:01.764,5,-1.78,0.09,1.93,137.025,247.8284,-252.2576,175,75
2026-05-09 14:45:01.764,5,-2.0,0.46,1.95,81.69500000000001,247.8284,-252.2576,175,75
2026-05-09 14:45:01.778,5,-2.0,0.65,2.0,-27.855,247.8284,-252.2576,175,75
2026-05-09 14:45:01.795,5,-2.0,0.43,2.0,-172.495,247.8284,-252.2576,175,75
2026-05-09 14:45:01.795,5,-2.0,-0.48,1.86,-248.33499999999998,76.6884,-252.2576,175,75
2026-05-09 14:45:01.807,5,-2.0,-1.45,1.32,-242.765,-57.1716,-134.5076,175,75
2026-05-09 14:45:01.820,5,-2.0,-2.0,1.18,-110.40499999999999,-151.79160000000002,125.7124,175,75
2026-05-09 14:45:01.831,5,-2.0,-1.79,1.76,16.515,-252.4416,248.01239999999999,175,75
2026-05-09 14:45:01.842,5,-2.0,-1.53,1.43,100.00500000000001,-252.4416,232.36239999999998,175,75
2026-05-09 14:45:01.854,5,-2.0,-1.1,0.94,156.205,-252.4416,110.5924,175,75
2026-05-09 14:45:01.854,5,-1.78,-0.56,0.55,189.065,-252.4416,-30.7776,175,75
2026-05-09 14:45:01.878,5,-0.96,0.58,-0.13,183.435,-252.4416,-234.85760000000002,175,75
2026-05-09 14:45:01.889,5,-0.03,0.88,-0.16,153.465,-252.4416,-252.2576,175,75
2026-05-09 14:45:01.900,5,-0.23,0.92,-0.66,100.415,-252.4416,-252.2576,175,75
2026-05-09 14:45:01.931,5,0.62,0.82,-1.86,222.175,-87.91159999999999,248.01239999999999,175,75
2026-05-09 14:45:01.953,5,-1.81,0.49,0.22,60.885,-165.6216,113.6624,175,75
2026-05-09 14:45:01.968,5,-1.06,1.16,0.67,-118.63499999999999,-79.29159999999999,-252.2576,175,75
2026-05-09 14:45:01.976,5,-0.38,1.52,1.16,-201.855,73.03840000000001,-252.2576,175,75
2026-05-09 14:45:01.987,5,1.82,1.99,2.0,-248.33499999999998,247.8284,-252.2576,175,75
2026-05-09 14:45:02.036,5,1.09,-0.69,1.8,-248.33499999999998,247.8284,248.01239999999999,175,75
2026-05-09 14:45:02.064,5,-2.0,-2.0,0.81,-126.345,247.8284,-83.77759999999999,175,75
2026-05-09 14:45:02.077,5,-2.0,-2.0,0.31,-20.045,247.8284,-252.2576,175,75
2026-05-09 14:45:02.077,5,-2.0,-2.0,0.13,123.59500000000001,142.67839999999998,-252.2576,175,75
2026-05-09 14:45:02.089,5,-2.0,-1.66,0.49,251.29500000000002,-44.4716,-252.2576,175,75
2026-05-09 14:45:02.114,5,-0.73,0.47,1.83,251.935,-252.4416,-182.5876,175,75
2026-05-09 14:45:02.127,5,-0.65,1.77,1.09,251.935,-252.4416,-252.2576,175,75
2026-05-09 14:45:02.146,5,-0.93,1.83,0.7,211.13500000000002,-252.4416,-252.2576,175,75
2026-05-09 14:45:02.146,5,-0.37,1.34,-0.16,166.785,-252.4416,-252.2576,175,75
2026-05-09 14:45:02.157,5,2.0,0.9,-1.56,196.535,-252.4416,-252.2576,175,75
2026-05-09 14:45:02.175,5,2.0,0.91,-1.63,251.935,-252.4416,175.0924,175,75
2026-05-09 14:45:02.175,5,-0.42,1.39,-1.04,251.935,-252.4416,248.01239999999999,175,75
2026-05-09 14:45:02.190,5,-0.93,0.61,-0.83,245.735,-252.4416,248.01239999999999,175,75
2026-05-09 14:45:02.200,5,-0.87,0.08,-0.65,196.535,-252.4416,248.01239999999999,175,75
2026-05-09 14:45:02.210,5,-0.62,-0.09,-0.32,160.35500000000002,-252.4416,248.01239999999999,175,75
2026-05-09 14:45:02.221,5,-0.56,-0.29,-0.24,97.00500000000001,-252.4416,248.01239999999999,175,75
2026-05-09 14:45:02.235,5,0.13,-0.56,-0.35,28.505,-252.4416,248.01239999999999,175,75
2026-05-09 14:45:02.276,5,-1.29,-0.55,-0.06,-171.275,204.23839999999998,-172.3076,175,75
2026-05-09 14:45:02.289,5,-0.51,-0.27,-0.1,-209.595,247.8284,-252.2576,175,75
2026-05-09 14:45:02.300,5,0.19,0.11,-0.03,-232.39499999999998,247.8284,-252.2576,175,75
2026-05-09 14:45:02.312,5,0.75,0.53,-0.03,-248.33499999999998,247.8284,-252.2576,175,75
2026-05-09 14:45:02.323,5,0.97,0.54,-0.1,-248.33499999999998,247.8284,-252.2576,175,75
2026-05-09 14:45:02.338,5,0.47,0.68,-0.1,-248.33499999999998,247.8284,-252.2576,175,75
2026-05-09 14:45:02.347,5,0.38,0.6,-0.15,-248.33499999999998,247.8284,-252.2576,175,75
2026-05-09 14:45:02.362,5,0.5,1.42,1.13,-245.36499999999998,247.8284,248.01239999999999,175,75
2026-05-09 14:45:02.373,5,-0.12,0.78,0.64,-213.915,247.8284,248.01239999999999,175,75
2026-05-09 14:45:02.381,5,0.28,-0.08,1.1,-203.825,247.8284,248.01239999999999,175,75
2026-05-09 14:45:02.392,5,0.73,-0.26,2.0,-248.33499999999998,247.8284,248.01239999999999,175,75
2026-05-09 14:45:02.403,5,0.71,0.59,2.0,-248.33499999999998,247.8284,248.01239999999999,175,75
2026-05-09 14:45:02.416,5,-0.59,-2.0,2.0,-248.33499999999998,247.8284,248.01239999999999,175,75
2026-05-09 14:45:02.416,5,-2.0,-2.0,-0.43,-203.58499999999998,247.8284,248.01239999999999,175,75
2026-05-09 14:45:02.429,5,-2.0,-2.0,-2.0,7.625,247.8284,248.01239999999999,175,75
2026-05-09 14:45:02.439,5,-2.0,-2.0,-1.74,236.245,-142.7016,128.5724,175,75
2026-05-09 14:45:02.450,5,-2.0,-1.44,-1.27,251.935,-252.4416,-219.7176,175,75
2026-05-09 14:45:02.464,5,-2.0,-0.91,0.18,251.935,-252.4416,-252.2576,175,75
2026-05-09 14:45:02.473,5,-0.2,-0.35,2.0,251.935,-225.38160000000002,-252.2576,175,75
2026-05-09 14:45:02.485,5,2.0,-0.76,2.0,-14.095,171.6884,-62.717600000000004,175,75
2026-05-09 14:45:02.497,5,-2.0,-2.0,2.0,-52.825,-27.0716,105.1924,175,75
2026-05-09 14:45:02.507,5,-2.0,-1.42,2.0,-98.255,-121.1916,-19.6576,175,75
2026-05-09 14:45:02.518,5,-2.0,-1.63,1.2,-116.99499999999999,-214.9916,-90.8476,175,75
2026-05-09 14:45:02.530,5,-2.0,-1.44,0.3,23.595,-252.4416,-234.91760000000002,175,75
2026-05-09 14:45:02.543,5,-1.55,-0.85,0.25,114.885,-252.4416,-252.2576,175,75
2026-05-09 14:45:02.555,5,-0.98,0.04,0.05,204.475,-252.4416,-252.2576,175,75
2026-05-09 14:45:02.590,5,-0.23,2.0,-0.5,235.91500000000002,-252.4416,-252.2576,175,75
2026-05-09 14:45:02.590,5,2.0,2.0,-2.0,105.23500000000001,-185.9416,-252.2576,175,75
2026-05-09 14:45:02.602,5,-0.92,2.0,-0.4,-16.615000000000002,75.5184,-252.2576,175,75
2026-05-09 14:45:02.615,5,-1.61,2.0,0.19,-145.845,37.9584,-252.2576,175,75
2026-05-09 14:45:02.616,5,-0.71,1.55,0.18,-222.915,14.918399999999998,-252.2576,175,75
2026-05-09 14:45:02.628,5,-0.12,0.95,0.15,-245.465,9.0784,-252.2576,175,75
2026-05-09 14:45:02.639,5,0.47,0.32,0.17,-240.825,35.2284,-252.2576,175,75
2026-05-09 14:45:02.656,5,0.17,-0.0,0.14,-210.015,72.9084,-177.6176,175,75
2026-05-09 14:45:02.656,5,-0.57,0.05,0.14,-166.325,118.12840000000001,-6.8376,175,75
2026-05-09 14:45:02.668,5,-1.13,0.13,0.1,-128.295,143.2984,100.03240000000001,175,75
2026-05-09 14:45:02.682,5,-1.46,0.09,-0.04,-90.43499999999999,126.1384,173.0324,175,75
2026-05-09 14:45:02.694,5,-1.49,-0.04,-0.23,-47.545,61.7884,243.58239999999998,175,75
2026-05-09 14:45:02.707,5,-0.83,-0.36,-0.45,47.915,-134.7816,248.01239999999999,175,75
2026-05-09 14:45:02.721,5,-0.27,-0.47,-0.44,90.58500000000001,-201.7716,248.01239999999999,175,75
2026-05-09 14:45:02.732,5,0.49,-0.52,-0.4,130.725,-236.13160000000002,248.01239999999999,175,75
2026-05-09 14:45:02.743,5,1.34,-0.24,-0.32,148.815,-226.0916,248.01239999999999,175,75
2026-05-09 14:45:02.757,5,2.0,-0.07,-0.47,162.755,-157.5816,248.01239999999999,175,75
2026-05-09 14:45:02.769,5,2.0,-0.76,-1.38,169.175,201.4184,248.01239999999999,175,75
2026-05-09 14:45:02.780,5,-0.21,-0.36,-0.66,133.57500000000002,247.8284,248.01239999999999,175,75
2026-05-09 14:45:02.780,5,-1.41,-0.31,-0.12,87.09500000000001,247.8284,216.36239999999998,175,75
2026-05-09 14:45:02.791,5,-1.91,-0.25,0.24,39.345,242.5084,25.6824,175,75
2026-05-09 14:45:02.806,5,-2.0,-0.19,0.44,-10.915000000000001,207.64839999999998,-182.0976,175,75
2026-05-09 14:45:02.822,5,-1.39,-0.16,0.59,-82.695,174.8884,-252.2576,175,75
2026-05-09 14:45:02.836,5,-0.84,-0.31,0.6,-98.695,164.42839999999998,-252.2576,175,75
2026-05-09 14:45:02.848,5,-0.05,-0.62,0.93,-102.645,155.9484,-252.2576,175,75
2026-05-09 14:45:02.861,5,0.84,-0.56,1.13,-110.625,129.0784,-252.2576,175,75
2026-05-09 14:45:02.861,5,1.41,-1.77,2.0,-78.485,44.8484,-252.2576,175,75
2026-05-09 14:45:02.871,5,1.25,-1.63,2.0,-65.41499999999999,-21.7016,-252.2576,175,75
2026-05-09 14:45:02.894,5,1.97,-1.91,2.0,-1.595,247.8284,-65.7476,175,75
2026-05-09 14:45:02.904,5,-1.45,-1.99,1.12,61.985,247.8284,-23.4876,175,75
2026-05-09 14:45:02.915,5,-2.0,-1.44,-0.49,201.455,247.8284,-237.44760000000002,175,75
2026-05-09 14:45:02.925,5,-2.0,-1.02,-0.51,251.935,247.8284,-252.2576,175,75
2026-05-09 14:45:02.937,5,-2.0,2.0,2.0,151.625,26.6784,-252.2576,175,75
2026-05-09 14:45:02.955,5,-2.0,1.39,2.0,-62.62500000000001,-176.54160000000002,-252.2576,175,75
2026-05-09 14:45:02.961,5,-2.0,0.32,1.47,-114.51499999999999,-252.4416,-252.2576,175,75
2026-05-09 14:45:02.969,5,-1.79,-0.77,1.0,-89.035,-252.4416,-252.2576,175,75
2026-05-09 14:45:02.999,5,-0.77,-0.65,0.8,251.935,-252.4416,248.01239999999999,175,75
2026-05-09 14:45:03.009,5,-1.19,0.09,0.84,251.935,-252.4416,248.01239999999999,175,75
2026-05-09 14:45:03.031,5,-1.45,0.78,0.73,187.245,-252.4416,248.01239999999999,175,75
2026-05-09 14:45:03.041,5,-0.94,0.34,0.04,83.715,-252.4416,142.1524,175,75
2026-05-09 14:45:03.055,5,-0.57,-0.12,-0.62,51.955,-252.4416,206.83239999999998,175,75
2026-05-09 14:45:03.068,5,2.0,-2.0,-2.0,14.915,58.8484,-252.2576,175,75
2026-05-09 14:45:03.078,5,-0.63,-0.42,-1.11,12.245,-78.52159999999999,-194.38760000000002,175,75
2026-05-09 14:45:03.086,5,-1.13,0.17,-0.64,-4.415,-222.7416,-155.1876,175,75
2026-05-09 14:45:03.098,5,-1.34,0.8,-0.21,-37.215,-252.4416,-250.9276,175,75
2026-05-09 14:45:03.108,5,-1.09,1.2,0.27,-78.975,-252.3316,-252.2576,175,75
2026-05-09 14:45:03.121,5,-0.64,1.92,0.9,-150.255,-129.1516,-252.2576,175,75
2026-05-09 14:45:03.131,5,0.62,2.0,1.91,-248.33499999999998,102.64840000000001,-252.2576,175,75
2026-05-09 14:45:03.142,5,2.0,2.0,2.0,-248.33499999999998,247.8284,-252.2576,175,75
2026-05-09 14:45:03.158,5,2.0,1.69,2.0,-248.33499999999998,247.8284,248.01239999999999,175,75
2026-05-09 14:45:03.168,5,1.51,0.85,1.16,-248.33499999999998,247.8284,248.01239999999999,175,75
2026-05-09 14:45:03.197,5,-2.0,-0.02,0.18,-248.33499999999998,247.8284,248.01239999999999,175,75
2026-05-09 14:45:03.197,5,-2.0,-0.56,1.96,-242.215,247.8284,248.01239999999999,175,75
2026-05-09 14:45:03.217,5,-2.0,-2.0,2.0,-219.795,-252.4416,-154.38760000000002,175,75
2026-05-09 14:45:03.229,5,-2.0,-2.0,0.68,-71.925,-252.4416,-252.2576,175,75
2026-05-09 14:45:03.241,5,-1.7,-2.0,0.04,100.59500000000001,-252.4416,-252.2576,175,75
2026-05-09 14:45:03.258,5,-0.43,-1.31,-0.02,251.935,-252.4416,-252.2576,175,75
2026-05-09 14:45:03.258,5,0.22,-0.51,-0.17,251.935,-252.4416,-252.2576,175,75
2026-05-09 14:45:03.273,5,0.05,0.67,0.1,251.935,-252.4416,-240.32760000000002,175,75
2026-05-09 14:45:03.284,5,-0.68,1.7,0.23,251.935,-252.4416,-252.2576,175,75
2026-05-09 14:45:03.295,5,-0.93,1.46,-0.4,251.935,-252.4416,-252.2576,175,75
2026-05-09 14:45:03.306,5,2.0,1.81,-2.0,251.935,-252.4416,-252.2576,175,75
2026-05-09 14:45:03.316,5,2.0,1.13,-2.0,251.935,-244.01160000000002,-26.2476,175,75
2026-05-09 14:45:03.316,5,-0.06,1.27,-1.22,251.935,-252.4416,135.7224,175,75
2026-05-09 14:45:03.341,5,-0.49,0.47,-0.17,251.935,-252.4416,248.01239999999999,175,75
2026-05-09 14:45:03.354,5,-0.29,-0.12,-0.12,138.285,-252.4416,248.01239999999999,175,75
2026-05-09 14:45:03.366,5,0.58,-0.62,-0.43,21.735,-252.4416,248.01239999999999,175,75
2026-05-09 14:45:03.376,5,0.14,-0.67,-0.36,-83.46499999999999,-195.5216,225.7824,175,75
2026-05-09 14:45:03.386,5,-0.99,-0.44,-0.07,-175.595,-37.4216,112.9524,175,75
2026-05-09 14:45:03.397,5,-1.83,-0.29,-0.07,-248.33499999999998,118.4984,-221.5276,175,75
2026-05-09 14:45:03.414,5,-1.44,-0.32,-0.16,-248.33499999999998,136.3284,-252.2576,175,75
2026-05-09 14:45:03.432,5,-0.2,-0.03,-0.1,-248.33499999999998,176.7484,-252.2576,175,75
2026-05-09 14:45:03.452,5,2.0,0.68,-0.13,-248.33499999999998,247.8284,-252.2576,175,75
2026-05-09 14:45:03.466,5,0.91,0.74,-0.04,-248.33499999999998,247.8284,-252.2576,175,75
2026-05-09 14:45:03.466,5,0.55,0.69,-0.33,-248.33499999999998,247.8284,-252.2576,175,75
2026-05-09 14:45:03.480,5,2.0,1.25,0.13,-244.355,247.8284,-142.85760000000002,175,75
2026-05-09 14:45:03.489,5,0.65,1.03,1.14,-184.325,159.3084,163.3524,175,75
2026-05-09 14:45:03.500,5,0.4,0.26,1.08,-186.505,231.0084,145.3824,175,75
2026-05-09 14:45:03.521,5,1.67,2.0,2.0,-248.33499999999998,247.8284,248.01239999999999,175,75
2026-05-09 14:45:03.538,5,1.18,1.54,2.0,-248.33499999999998,247.8284,248.01239999999999,175,75
2026-05-09 14:45:03.550,5,-2.0,-2.0,-0.78,-248.33499999999998,247.8284,248.01239999999999,175,75
2026-05-09 14:45:03.564,5,-2.0,-2.0,-2.0,-20.125,247.8284,248.01239999999999,175,75
2026-05-09 14:45:03.575,5,-2.0,-1.96,-2.0,222.465,247.8284,248.01239999999999,175,75
2026-05-09 14:45:03.576,5,-2.0,-1.09,-1.3,251.935,-119.91159999999999,209.5724,175,75
2026-05-09 14:45:03.598,5,-2.0,2.0,2.0,71.105,-85.18159999999999,-252.2576,175,75
2026-05-09 14:45:03.617,5,-2.0,0.73,2.0,-236.86499999999998,-147.66160000000002,-252.2576,175,75
2026-05-09 14:45:03.617,5,-2.0,-0.93,1.19,-248.33499999999998,-252.4416,-198.4076,175,75
2026-05-09 14:45:03.631,5,-2.0,-1.84,0.36,-174.20499999999998,-252.4416,22.1724,175,75
2026-05-09 14:45:03.653,5,-2.0,-1.76,1.04,-4.875,-252.4416,169.2924,175,75
2026-05-09 14:45:03.663,5,-2.0,-1.1,0.75,46.905,-252.4416,14.712399999999999,175,75
2026-05-09 14:45:03.674,5,-1.3,-0.46,0.19,37.205,-252.4416,-188.97760000000002,175,75
2026-05-09 14:45:03.685,5,-0.04,0.01,-0.33,16.275000000000002,-252.4416,-252.2576,175,75
2026-05-09 14:45:03.695,5,1.27,0.53,-0.29,16.895,-252.4416,-252.2576,175,75
2026-05-09 14:45:03.706,5,1.78,1.33,-0.28,-0.6850000000000003,-252.4416,-252.2576,175,75
2026-05-09 14:45:03.706,5,2.0,2.0,-2.0,-95.645,126.5884,-252.2576,175,75
2026-05-09 14:45:03.737,5,-0.39,0.45,-0.11,-130.775,247.8284,-252.2576,175,75
2026-05-09 14:45:03.737,5,-0.49,0.4,0.23,-139.055,247.8284,-252.2576,175,75
2026-05-09 14:45:03.765,5,-0.36,0.77,0.68,-189.415,247.8284,-252.2576,175,75
2026-05-09 14:45:03.776,5,-0.14,0.32,0.79,-219.505,247.8284,-252.2576,175,75
2026-05-09 14:45:03.787,5,-0.71,0.22,0.83,-217.405,247.8284,-251.6576,175,75
2026-05-09 14:45:03.787,5,-1.22,0.22,0.76,-178.325,217.7184,-159.6476,175,75
2026-05-09 14:45:03.817,5,-2.0,0.24,0.51,-29.565,44.3284,-48.4776,175,75
2026-05-09 14:45:03.828,5,-1.69,0.3,0.29,95.98500000000001,-202.1416,21.732400000000002,175,75
2026-05-09 14:45:03.850,5,-0.76,0.14,-0.01,152.085,-252.4416,80.6824,175,75
2026-05-09 14:45:03.876,5,0.0,0.1,-0.51,197.465,-252.4416,195.14239999999998,175,75
2026-05-09 14:45:03.876,5,0.74,0.06,-0.73,211.82500000000002,-252.4416,248.01239999999999,175,75
2026-05-09 14:45:03.887,5,2.0,0.51,-1.06,234.555,-252.4416,248.01239999999999,175,75
2026-05-09 14:45:03.912,5,1.6,0.47,-1.47,166.085,45.8184,248.01239999999999,175,75
2026-05-09 14:45:03.922,5,-0.4,0.26,-0.47,91.525,140.1884,248.01239999999999,175,75
2026-05-09 14:45:03.932,5,-1.06,0.37,-0.17,27.544999999999998,145.1384,207.0624,175,75
2026-05-09 14:45:03.951,5,-1.2,-0.01,0.21,-79.875,155.6384,-36.9076,175,75
2026-05-09 14:45:03.967,5,-0.95,-0.07,0.17,-119.895,160.20839999999998,-127.38759999999999,175,75
2026-05-09 14:45:03.967,5,-0.39,-0.53,0.15,-137.745,162.36839999999998,-154.6776,175,75
2026-05-09 14:45:03.977,5,0.25,-0.73,0.2,-140.73499999999999,170.8084,-101.5876,175,75
2026-05-09 14:45:03.999,5,1.37,-1.33,0.64,-111.065,178.42839999999998,157.51239999999999,175,75
2026-05-09 14:45:04.015,5,1.1,-2.0,2.0,-74.115,-54.0316,177.0724,175,75
2026-05-09 14:45:04.031,5,0.94,-2.0,2.0,-83.815,-211.60160000000002,109.3224,175,75
2026-05-09 14:45:04.044,5,0.36,-1.5,1.97,55.505,247.8284,-27.9076,175,75
2026-05-09 14:45:04.056,5,-0.75,-1.71,2.0,110.98500000000001,247.8284,-252.2576,175,75
2026-05-09 14:45:04.066,5,-1.69,-1.62,2.0,196.755,247.8284,-252.2576,175,75
2026-05-09 14:45:04.066,5,-2.0,-0.7,2.0,166.615,247.8284,-252.2576,175,75
2026-05-09 14:45:04.087,5,-2.0,0.04,2.0,33.065000000000005,247.8284,-252.2576,175,75
2026-05-09 14:45:04.098,5,-2.0,0.12,1.65,-15.835,157.9084,-252.2576,175,75
2026-05-09 14:45:04.126,5,-2.0,-0.58,1.24,-53.145,9.468399999999999,-252.2576,175,75
2026-05-09 14:45:04.136,5,-2.0,0.04,1.79,87.83500000000001,-252.4416,57.422399999999996,175,75
2026-05-09 14:45:04.149,5,-2.0,-0.01,1.24,100.20500000000001,-252.4416,118.4824,175,75
2026-05-09 14:45:04.162,5,-1.69,0.11,0.92,80.86500000000001,-252.4416,112.92240000000001,175,75
2026-05-09 14:45:04.167,5,-1.32,0.01,0.65,38.395,-252.4416,57.9024,175,75
2026-05-09 14:45:04.194,5,-0.53,-0.38,-0.92,5.045,-252.4416,59.7624,175,75
2026-05-09 14:45:04.199,5,-0.19,-1.62,-1.26,42.435,-252.4416,164.01239999999999,175,75
2026-05-09 14:45:04.220,5,-0.67,-0.53,-1.45,75.435,66.0184,-252.2576,175,75
2026-05-09 14:45:04.231,5,-1.36,0.09,-0.76,78.98500000000001,-89.6716,-252.2576,175,75
2026-05-09 14:45:04.244,5,-1.47,0.59,-0.25,50.115,-187.0316,-252.2576,175,75
2026-05-09 14:45:04.256,5,-1.2,1.07,0.23,4.8549999999999995,-189.2116,-252.2576,175,75
2026-05-09 14:45:04.267,5,0.0,2.0,1.66,-165.795,86.64840000000001,-252.2576,175,75
2026-05-09 14:45:04.276,5,1.11,2.0,2.0,-248.33499999999998,247.8284,-252.2576,175,75
2026-05-09 14:45:04.297,5,2.0,2.0,2.0,-248.33499999999998,247.8284,40.1524,175,75
2026-05-09 14:45:04.310,5,0.94,-0.23,0.53,-248.33499999999998,247.8284,245.36239999999998,175,75
2026-05-09 14:45:04.336,5,-2.0,-0.51,-1.3,-248.33499999999998,247.8284,248.01239999999999,175,75
