Time,ID,Ax,Ay,Az,Gx,Gy,Gz,Height,Weight
2026-05-09 15:09:01.141,5,0.09,-0.66,0.22,62.327600000000004,-129.90380000000002,169.1448,175,75
2026-05-09 15:09:01.153,5,0.11,-0.55,0.08,74.8176,-84.4738,90.1348,175,75
2026-05-09 15:09:01.164,5,0.07,-0.44,-0.05,76.1576,-38.733799999999995,3.5848,175,75
2026-05-09 15:09:01.175,5,0.2,-0.3,-0.09,70.2376,6.2762,-56.0052,175,75
2026-05-09 15:09:01.180,5,-0.06,-0.21,-0.26,50.7976,22.6362,-109.0852,175,75
2026-05-09 15:09:01.192,5,-0.05,-0.6,0.39,44.4476,28.3062,-149.2552,175,75
2026-05-09 15:09:01.204,5,-0.08,0.12,-0.16,16.1776,25.7962,-178.1352,175,75
2026-05-09 15:09:01.215,5,0.0,0.24,0.0,-9.7124,29.0662,-207.52519999999998,175,75
2026-05-09 15:09:01.226,5,0.15,0.3,0.16,-30.972399999999997,44.9162,-233.99519999999998,175,75
2026-05-09 15:09:01.240,5,0.46,0.21,0.41,-44.5124,79.1362,-249.99519999999998,175,75
2026-05-09 15:09:01.240,5,0.91,0.04,0.73,-37.1624,122.5262,-244.80519999999999,175,75
2026-05-09 15:09:01.252,5,1.57,0.32,1.13,-50.352399999999996,135.53619999999998,-138.6152,175,75
2026-05-09 15:09:01.262,5,2.0,0.6,1.96,-65.38239999999999,164.00619999999998,13.1248,175,75
2026-05-09 15:09:01.273,5,1.9,0.6,2.0,-89.0624,250.15619999999998,62.2348,175,75
2026-05-09 15:09:01.287,5,1.38,-0.14,2.0,-111.52239999999999,250.15619999999998,10.0648,175,75
2026-05-09 15:09:01.298,5,-1.01,-0.85,1.78,-86.7124,250.15619999999998,33.0248,175,75
2026-05-09 15:09:01.298,5,-1.88,-1.09,0.62,-63.4824,250.15619999999998,67.2248,175,75
2026-05-09 15:09:01.308,5,-2.0,-0.82,0.29,-31.612399999999997,245.78619999999998,45.55479999999999,175,75
2026-05-09 15:09:01.344,5,-2.0,-0.91,1.8,27.2876,-81.82379999999999,-10.8352,175,75
2026-05-09 15:09:01.355,5,-2.0,-1.04,2.0,51.457600000000006,-170.09380000000002,-66.5352,175,75
2026-05-09 15:09:01.366,5,-1.13,-0.87,1.86,81.2176,-250.1138,-100.5452,175,75
2026-05-09 15:09:01.377,5,-0.51,-0.59,1.46,108.0276,-250.1138,-97.5052,175,75
2026-05-09 15:09:01.394,5,0.06,0.14,1.05,108.7476,-250.1138,-108.6552,175,75
2026-05-09 15:09:01.407,5,0.5,0.34,0.94,80.22760000000001,-240.71380000000002,-110.0552,175,75
2026-05-09 15:09:01.407,5,0.67,0.39,0.8,54.8476,-195.5338,-121.3252,175,75
2026-05-09 15:09:01.438,5,1.2,0.6,0.7,18.8676,-103.4038,-85.3352,175,75
2026-05-09 15:09:01.438,5,1.16,0.58,0.65,0.1976,-27.5338,-76.06519999999999,175,75
2026-05-09 15:09:01.470,5,0.25,0.32,0.48,-15.612400000000001,66.5762,-75.6852,175,75
2026-05-09 15:09:01.470,5,-0.05,0.23,0.4,-11.3024,75.6162,-81.09519999999999,175,75
2026-05-09 15:09:01.483,5,-0.27,0.2,0.35,-6.4424,59.8162,-80.1652,175,75
2026-05-09 15:09:01.493,5,-0.39,0.25,0.31,-7.5924,22.9162,-68.3552,175,75
2026-05-09 15:09:01.506,5,-0.33,0.27,0.23,-11.7324,-23.823800000000002,-52.815200000000004,175,75
2026-05-09 15:09:01.510,5,-0.24,0.27,0.09,-11.7924,-76.7638,-27.5152,175,75
2026-05-09 15:09:01.527,5,0.1,0.22,-0.06,-5.1924,-113.68379999999999,0.5047999999999999,175,75
2026-05-09 15:09:01.558,5,1.0,0.01,-0.18,68.7776,-98.5238,205.2148,175,75
2026-05-09 15:09:01.558,5,1.19,0.02,-0.03,79.9876,-61.343799999999995,250.2748,175,75
2026-05-09 15:09:01.587,5,1.63,-0.2,0.75,64.6076,46.2062,250.2748,175,75
2026-05-09 15:09:01.587,5,2.0,-0.61,1.3,50.8376,139.28619999999998,250.2748,175,75
2026-05-09 15:09:01.603,5,1.72,-0.85,1.74,61.4176,250.15619999999998,250.2748,175,75
2026-05-09 15:09:01.613,5,1.02,-1.15,2.0,84.86760000000001,250.15619999999998,178.3048,175,75
2026-05-09 15:09:01.624,5,-1.85,-0.61,2.0,53.457600000000006,250.15619999999998,-45.7652,175,75
2026-05-09 15:09:01.635,5,-2.0,-0.41,1.56,10.2676,250.15619999999998,-249.99519999999998,175,75
2026-05-09 15:09:01.646,5,-2.0,-0.37,0.78,0.8476,250.15619999999998,-249.99519999999998,175,75
2026-05-09 15:09:01.657,5,-2.0,-0.5,0.54,6.9075999999999995,250.15619999999998,-249.99519999999998,175,75
2026-05-09 15:09:01.669,5,-1.66,0.1,0.89,25.8276,3.1361999999999997,-249.99519999999998,175,75
2026-05-09 15:09:01.680,5,-0.86,0.98,1.95,9.4376,-149.4238,-249.99519999999998,175,75
2026-05-09 15:09:01.693,5,-0.05,1.39,2.0,-17.7724,-164.37380000000002,-145.2252,175,75
2026-05-09 15:09:01.704,5,-0.14,0.75,1.79,-9.1524,-164.15380000000002,-16.1552,175,75
2026-05-09 15:09:01.715,5,-0.37,0.15,1.16,-3.7824,-166.9138,98.5848,175,75
2026-05-09 15:09:01.727,5,-0.44,-0.04,0.92,-0.5723999999999998,-150.3938,168.0548,175,75
2026-05-09 15:09:01.737,5,-0.41,-0.22,0.75,4.7076,-127.5038,216.1248,175,75
2026-05-09 15:09:01.747,5,-0.36,-0.24,0.67,13.8476,-99.9238,249.8748,175,75
2026-05-09 15:09:01.760,5,-0.33,-0.24,0.69,24.6876,-60.5338,250.2748,175,75
2026-05-09 15:09:01.793,5,-0.74,-0.32,1.09,38.967600000000004,-85.0338,144.6348,175,75
2026-05-09 15:09:01.798,5,-0.43,-0.39,1.19,57.9076,-84.3438,30.5348,175,75
2026-05-09 15:09:01.798,5,-0.27,-0.3,1.13,64.7076,-72.3138,-25.2352,175,75
2026-05-09 15:09:01.810,5,-0.23,-0.13,1.08,64.3176,-82.4438,-41.6852,175,75
2026-05-09 15:09:01.827,5,-0.02,0.04,1.23,50.52760000000001,-117.6638,-19.6752,175,75
2026-05-09 15:09:01.831,5,0.46,0.27,1.5,26.9176,-180.2238,56.3948,175,75
2026-05-09 15:09:01.854,5,0.74,0.05,1.3,45.747600000000006,-189.7638,118.7248,175,75
2026-05-09 15:09:01.867,5,1.01,0.21,1.65,45.067600000000006,-144.0738,95.5548,175,75
2026-05-09 15:09:01.871,5,1.17,0.02,1.96,-6.1924,-107.1238,98.7048,175,75
2026-05-09 15:09:01.889,5,1.17,-0.61,1.79,-42.8124,-71.9538,110.5348,175,75
2026-05-09 15:09:01.889,5,0.96,-0.37,1.68,-40.752399999999994,-49.9038,125.6748,175,75
2026-05-09 15:09:01.902,5,0.57,-1.08,1.09,-17.8424,-46.3638,149.8548,175,75
2026-05-09 15:09:01.917,5,0.18,-1.01,0.88,12.1676,-53.5738,145.0948,175,75
2026-05-09 15:09:01.927,5,-0.1,-0.77,0.93,28.767599999999998,-54.5338,87.2748,175,75
2026-05-09 15:09:01.940,5,-0.12,-0.64,1.05,22.2376,-44.443799999999996,-11.8452,175,75
2026-05-09 15:09:01.940,5,0.12,-0.63,1.06,17.3576,-24.5338,-128.3352,175,75
2026-05-09 15:09:01.951,5,0.51,-0.52,1.08,18.8976,1.8362,-217.1552,175,75
2026-05-09 15:09:01.978,5,1.04,-0.11,1.31,16.587600000000002,60.4262,-249.99519999999998,175,75
2026-05-09 15:09:01.988,5,1.12,0.09,1.39,7.8076,75.4462,-249.99519999999998,175,75
2026-05-09 15:09:01.998,5,1.01,0.28,1.32,-3.2224000000000004,83.1962,-219.4152,175,75
2026-05-09 15:09:02.017,5,0.78,0.47,1.07,-19.5124,70.6262,-150.6252,175,75
2026-05-09 15:09:02.029,5,0.57,0.65,0.94,-12.2024,59.2062,-95.3552,175,75
2026-05-09 15:09:02.040,5,0.43,0.55,0.81,-10.272400000000001,61.626200000000004,-79.3352,175,75
2026-05-09 15:09:02.052,5,0.26,0.41,0.68,-7.9024,66.0462,-66.9652,175,75
2026-05-09 15:09:02.067,5,0.08,0.28,0.56,-7.1823999999999995,67.2562,-56.4752,175,75
2026-05-09 15:09:02.078,5,-0.08,0.19,0.46,-8.9324,61.5362,-45.7852,175,75
2026-05-09 15:09:02.078,5,-0.23,0.19,0.41,-13.612400000000001,49.0262,-37.815200000000004,175,75
2026-05-09 15:09:02.094,5,-0.3,0.2,0.39,-20.8324,34.6862,-36.62520000000001,175,75
2026-05-09 15:09:02.100,5,-0.38,0.19,0.33,-27.5924,15.2862,-40.775200000000005,175,75
2026-05-09 15:09:02.113,5,-0.36,0.1,0.18,-28.8024,-10.793800000000001,-41.6052,175,75
2026-05-09 15:09:02.125,5,-0.36,0.05,0.14,-20.1624,-44.553799999999995,-30.3252,175,75
2026-05-09 15:09:02.138,5,-0.18,-0.03,0.16,-6.3324,-70.79379999999999,-9.5152,175,75
2026-05-09 15:09:02.153,5,0.34,-0.08,0.41,3.6276,-41.763799999999996,64.7848,175,75
2026-05-09 15:09:02.164,5,0.36,-0.08,0.46,3.7976,-4.7938,117.7748,175,75
2026-05-09 15:09:02.174,5,0.4,-0.08,0.46,4.8776,30.8762,165.9648,175,75
2026-05-09 15:09:02.184,5,0.32,-0.09,0.43,7.6975999999999996,53.4962,210.7748,175,75
2026-05-09 15:09:02.195,5,0.16,-0.0,0.41,11.0776,56.016200000000005,240.8148,175,75
2026-05-09 15:09:02.198,5,-0.06,0.1,0.39,11.6976,26.5762,238.8248,175,75
2026-05-09 15:09:02.215,5,-0.15,0.06,0.39,11.3376,-21.2838,198.4948,175,75
2026-05-09 15:09:02.227,5,-0.06,-0.02,0.32,20.8976,-59.623799999999996,157.0148,175,75
2026-05-09 15:09:02.237,5,0.08,-0.03,0.23,28.2076,-96.0538,88.8448,175,75
2026-05-09 15:09:02.250,5,0.35,0.03,0.17,30.3276,-110.4138,12.3248,175,75
2026-05-09 15:09:02.250,5,0.61,0.07,0.1,25.3876,-104.8438,-40.6152,175,75
2026-05-09 15:09:02.260,5,0.87,0.1,0.1,17.0376,-93.4238,-70.8652,175,75
2026-05-09 15:09:02.268,5,1.04,0.18,0.23,9.377600000000001,-80.4138,-80.4052,175,75
2026-05-09 15:09:02.285,5,1.26,0.25,0.49,3.6176000000000004,-63.633799999999994,-62.5152,175,75
2026-05-09 15:09:02.298,5,1.6,0.36,0.94,-5.5824,-29.9538,-18.0952,175,75
2026-05-09 15:09:02.322,5,1.87,0.63,2.0,-137.2424,250.15619999999998,97.0348,175,75
2026-05-09 15:09:02.345,5,1.69,0.27,2.0,-182.7124,250.15619999999998,93.29480000000001,175,75
2026-05-09 15:09:02.355,5,-0.3,-0.87,2.0,-156.7124,250.15619999999998,113.07480000000001,175,75
2026-05-09 15:09:02.355,5,-1.39,-1.36,1.09,-97.9824,250.15619999999998,115.7048,175,75
2026-05-09 15:09:02.378,5,-1.41,-1.11,0.56,-43.712399999999995,250.15619999999998,99.7148,175,75
2026-05-09 15:09:02.378,5,-2.0,-1.02,0.27,14.8976,196.8662,74.2048,175,75
2026-05-09 15:09:02.389,5,-2.0,-0.96,0.28,68.47760000000001,102.0562,43.80479999999999,175,75
2026-05-09 15:09:02.400,5,-1.98,-0.74,0.59,95.22760000000001,17.0362,12.9348,175,75
2026-05-09 15:09:02.400,5,-1.48,-0.4,1.12,84.0376,-29.2938,-38.065200000000004,175,75
2026-05-09 15:09:02.412,5,-0.89,0.03,1.77,56.757600000000004,-6.6838,-117.8552,175,75
2026-05-09 15:09:02.426,5,-0.43,0.22,2.0,48.747600000000006,33.556200000000004,-209.1952,175,75
2026-05-09 15:09:02.435,5,0.13,0.63,2.0,67.4676,0.7062,-185.1652,175,75
2026-05-09 15:09:02.447,5,0.25,0.86,2.0,49.997600000000006,-2.5838,-115.5052,175,75
2026-05-09 15:09:02.457,5,-0.45,0.56,1.8,22.3576,26.4762,-71.6052,175,75
2026-05-09 15:09:02.457,5,-0.68,0.18,1.39,1.3576,52.4962,-67.5252,175,75
2026-05-09 15:09:02.480,5,-0.76,0.03,1.27,-3.3524000000000003,71.9662,-33.775200000000005,175,75
2026-05-09 15:09:02.480,5,-0.65,-0.07,1.43,1.0575999999999999,105.5462,10.2048,175,75
2026-05-09 15:09:02.491,5,-0.58,-0.11,1.73,7.207599999999999,136.6362,89.7048,175,75
2026-05-09 15:09:02.505,5,-1.0,-0.12,2.0,5.4876,112.1562,190.8448,175,75
2026-05-09 15:09:02.515,5,-1.61,-0.42,2.0,4.9676,32.5962,235.25480000000002,175,75
2026-05-09 15:09:02.527,5,-1.74,-0.65,1.97,15.0476,-54.763799999999996,232.8248,175,75
2026-05-09 15:09:02.528,5,-1.59,-0.88,1.66,35.997600000000006,-121.3638,218.44480000000001,175,75
2026-05-09 15:09:02.540,5,-1.47,-0.93,1.46,61.957600000000006,-157.2838,185.47480000000002,175,75
2026-05-09 15:09:02.551,5,-1.39,-0.84,1.38,83.9376,-178.9238,119.3348,175,75
2026-05-09 15:09:02.562,5,-1.2,-0.75,1.33,101.2576,-197.0738,35.9648,175,75
2026-05-09 15:09:02.573,5,-0.87,-0.53,1.24,118.22760000000001,-216.7838,-44.455200000000005,175,75
2026-05-09 15:09:02.586,5,-0.53,-0.27,1.1,133.01760000000002,-233.4138,-106.37519999999999,175,75
2026-05-09 15:09:02.587,5,-0.28,0.03,0.98,140.8376,-242.56380000000001,-138.7652,175,75
2026-05-09 15:09:02.599,5,0.01,0.28,0.91,135.98760000000001,-241.5738,-167.30519999999999,175,75
2026-05-09 15:09:02.609,5,0.1,0.33,0.83,120.1276,-228.46380000000002,-195.2552,175,75
2026-05-09 15:09:02.642,5,-0.01,0.61,0.52,32.4176,-187.33380000000002,-212.6652,175,75
2026-05-09 15:09:02.656,5,-0.07,0.55,0.37,2.0076,-195.8838,-202.0452,175,75
2026-05-09 15:09:02.668,5,-0.1,0.49,0.23,-21.8324,-208.62380000000002,-183.5452,175,75
2026-05-09 15:09:02.668,5,0.03,0.34,0.06,-33.252399999999994,-219.4138,-147.3952,175,75
2026-05-09 15:09:02.681,5,0.2,0.19,-0.1,-27.0524,-220.9738,-85.1852,175,75
2026-05-09 15:09:02.696,5,0.27,0.11,-0.16,-9.8324,-213.90380000000002,-11.5152,175,75
2026-05-09 15:09:02.707,5,0.18,0.1,-0.16,7.1876,-203.34380000000002,60.87479999999999,175,75
2026-05-09 15:09:02.719,5,0.02,-0.07,-0.2,30.8376,-185.8538,155.9148,175,75
2026-05-09 15:09:02.731,5,0.03,-0.18,-0.2,45.2276,-172.56380000000001,192.1448,175,75
2026-05-09 15:09:02.740,5,-0.05,-0.4,-0.01,59.0176,-162.2038,223.7748,175,75
2026-05-09 15:09:02.751,5,0.11,-0.14,-0.14,66.16760000000001,-141.1438,248.7448,175,75
2026-05-09 15:09:02.762,5,0.12,-0.08,-0.07,64.9276,-109.43379999999999,250.2748,175,75
2026-05-09 15:09:02.774,5,0.16,-0.02,-0.04,52.567600000000006,-62.5038,242.1348,175,75
2026-05-09 15:09:02.780,5,0.12,-0.04,-0.05,38.207600000000006,-0.3138,208.2048,175,75
2026-05-09 15:09:02.801,5,0.18,-0.06,-0.09,24.7276,57.3562,168.8348,175,75
2026-05-09 15:09:02.801,5,0.19,-0.05,-0.15,9.3276,116.2262,112.3548,175,75
2026-05-09 15:09:02.813,5,0.2,-0.05,-0.21,0.27760000000000007,176.6762,69.5848,175,75
2026-05-09 15:09:02.825,5,0.16,-0.08,-0.25,-5.9524,219.0562,26.4548,175,75
2026-05-09 15:09:02.837,5,0.16,-0.1,-0.25,-4.9024,244.2062,-3.7852,175,75
2026-05-09 15:09:02.837,5,0.15,-0.06,-0.22,0.5476,250.15619999999998,-28.5652,175,75
2026-05-09 15:09:02.858,5,0.02,-0.02,-0.08,5.7776,240.2362,-53.415200000000006,175,75
2026-05-09 15:09:02.870,5,0.16,-0.02,0.41,4.1076,182.4662,-66.56519999999999,175,75
2026-05-09 15:09:02.884,5,0.24,-0.02,0.71,1.1476,164.7162,-53.745200000000004,175,75
2026-05-09 15:09:02.896,5,0.33,-0.19,1.23,-38.612399999999994,160.2962,-24.0552,175,75
2026-05-09 15:09:02.907,5,0.5,0.13,1.09,-57.4124,194.5762,2.1548,175,75
2026-05-09 15:09:02.907,5,0.48,0.22,1.54,-75.94239999999999,250.15619999999998,13.2048,175,75
2026-05-09 15:09:02.930,5,-0.49,-0.52,2.0,-75.1224,250.15619999999998,12.1748,175,75
2026-05-09 15:09:02.943,5,-2.0,0.02,2.0,-36.22239999999999,250.15619999999998,42.7748,175,75
2026-05-09 15:09:02.954,5,-2.0,-0.31,1.39,-37.2324,250.15619999999998,-33.635200000000005,175,75
2026-05-09 15:09:02.968,5,-2.0,-0.32,0.88,-36.2024,209.6762,-67.5152,175,75
2026-05-09 15:09:02.972,5,-2.0,-0.51,0.69,-38.672399999999996,49.0062,-88.92519999999999,175,75
2026-05-09 15:09:02.986,5,-2.0,-0.57,1.27,-42.992399999999996,-49.4638,-97.67519999999999,175,75
2026-05-09 15:09:02.997,5,-1.91,-0.94,1.84,-1.2124,-68.7738,-34.5752,175,75
2026-05-09 15:09:03.008,5,-1.79,-0.69,2.0,87.6276,-189.2538,89.3948,175,75
2026-05-09 15:09:03.008,5,-1.73,-0.19,2.0,77.22760000000001,-250.1138,131.1448,175,75
2026-05-09 15:09:03.019,5,-1.28,-0.51,2.0,34.327600000000004,-250.1138,132.9648,175,75
2026-05-09 15:09:03.037,5,-0.99,-0.78,0.86,32.6876,-250.1138,163.97480000000002,175,75
2026-05-09 15:09:03.037,5,-0.17,-0.8,0.29,63.817600000000006,-250.1138,200.1548,175,75
2026-05-09 15:09:03.048,5,0.43,-0.68,0.3,95.2876,-250.1138,233.9348,175,75
2026-05-09 15:09:03.060,5,-0.25,-0.04,0.25,103.9576,-250.1138,249.3448,175,75
2026-05-09 15:09:03.072,5,2.0,-0.49,0.25,79.6476,-250.1138,239.7448,175,75
2026-05-09 15:09:03.085,5,2.0,0.07,-0.27,6.4876,-250.1138,106.6148,175,75
2026-05-09 15:09:03.092,5,2.0,-0.1,-0.37,-45.22239999999999,-115.3338,7.1848,175,75
2026-05-09 15:09:03.107,5,0.58,-0.22,-0.15,-54.47239999999999,-33.5038,-56.9752,175,75
2026-05-09 15:09:03.117,5,0.0,-0.23,0.03,-42.922399999999996,19.3762,-117.7252,175,75
2026-05-09 15:09:03.117,5,-0.02,-0.26,0.24,-26.0324,69.5762,-176.0652,175,75
2026-05-09 15:09:03.140,5,0.71,-0.31,0.65,7.3275999999999994,225.7462,-205.7552,175,75
2026-05-09 15:09:03.150,5,1.08,-0.2,1.01,5.5476,250.15619999999998,-179.3252,175,75
2026-05-09 15:09:03.163,5,1.44,0.07,1.62,-14.6524,250.15619999999998,-142.5852,175,75
2026-05-09 15:09:03.173,5,1.75,0.67,2.0,-50.9024,250.15619999999998,-46.5152,175,75
2026-05-09 15:09:03.184,5,0.49,0.29,2.0,-55.8024,250.15619999999998,-7.0752,175,75
2026-05-09 15:09:03.195,5,-0.74,0.31,1.83,-59.9824,250.15619999999998,-50.925200000000004,175,75
2026-05-09 15:09:03.203,5,-1.45,0.25,1.17,-65.9924,227.0762,-101.45519999999999,175,75
2026-05-09 15:09:03.217,5,-1.64,0.25,1.11,-61.2724,168.4262,-163.49519999999998,175,75
2026-05-09 15:09:03.227,5,-1.39,0.46,1.36,-78.0624,79.6962,-159.8652,175,75
2026-05-09 15:09:03.241,5,-0.69,0.53,1.82,-116.5324,-16.2938,-54.315200000000004,175,75
2026-05-09 15:09:03.252,5,-0.48,0.5,1.9,-110.1524,-10.6338,16.3248,175,75
2026-05-09 15:09:03.263,5,-0.59,0.33,1.64,-83.83239999999999,-9.953800000000001,100.12480000000001,175,75
2026-05-09 15:09:03.278,5,-0.84,0.29,1.5,-58.5624,-26.4238,174.6048,175,75
2026-05-09 15:09:03.287,5,-0.94,0.17,1.38,-50.3024,-61.2838,236.3648,175,75
2026-05-09 15:09:03.298,5,-0.87,0.01,1.29,-53.322399999999995,-95.8038,250.2748,175,75
2026-05-09 15:09:03.298,5,-0.69,-0.29,1.23,-53.8024,-122.4538,250.2748,175,75
2026-05-09 15:09:03.309,5,-0.6,-0.61,1.3,-49.22239999999999,-156.0438,250.2748,175,75
2026-05-09 15:09:03.321,5,-0.49,-0.74,1.33,-45.352399999999996,-206.5438,250.2748,175,75
2026-05-09 15:09:03.345,5,-0.06,-1.2,1.02,-14.0724,-250.1138,250.2748,175,75
2026-05-09 15:09:03.353,5,0.12,-1.29,0.68,16.2976,-250.1138,250.2748,175,75
2026-05-09 15:09:03.367,5,0.16,-1.31,0.35,64.4976,-250.1138,250.2748,175,75
2026-05-09 15:09:03.377,5,0.17,-1.14,0.14,115.6376,-250.1138,250.2748,175,75
2026-05-09 15:09:03.377,5,0.17,-0.94,-0.15,140.8076,-250.1138,250.2748,175,75
2026-05-09 15:09:03.392,5,1.06,-1.33,-0.85,130.1476,-203.7638,210.3348,175,75
2026-05-09 15:09:03.405,5,0.34,-0.98,-1.05,124.7076,-66.82379999999999,-7.9152000000000005,175,75
2026-05-09 15:09:03.419,5,-0.28,-0.84,-0.81,114.4376,-3.1338,-155.0952,175,75
2026-05-09 15:09:03.419,5,-0.59,-0.27,-0.59,112.58760000000001,12.0862,-249.99519999999998,175,75
2026-05-09 15:09:03.428,5,-0.6,0.03,-0.46,84.0976,3.4562,-249.99519999999998,175,75
2026-05-09 15:09:03.447,5,-0.54,0.26,-0.37,44.897600000000004,-17.6038,-249.99519999999998,175,75
2026-05-09 15:09:03.449,5,-0.13,0.44,-0.3,-4.9824,-35.2938,-249.99519999999998,175,75
2026-05-09 15:09:03.460,5,0.45,0.52,-0.27,-48.0124,-19.4938,-249.99519999999998,175,75
2026-05-09 15:09:03.478,5,0.96,0.55,-0.15,-85.77239999999999,42.876200000000004,-249.99519999999998,175,75
2026-05-09 15:09:03.478,5,1.35,0.47,-0.03,-109.5424,132.6062,-249.99519999999998,175,75
2026-05-09 15:09:03.491,5,2.0,0.53,-0.02,-113.0024,219.2362,-168.4452,175,75
2026-05-09 15:09:03.502,5,2.0,1.55,0.85,-73.30239999999999,184.97619999999998,145.6148,175,75
2026-05-09 15:09:03.514,5,1.5,1.93,1.75,-107.3224,132.3062,250.2748,175,75
2026-05-09 15:09:03.527,5,1.16,1.47,2.0,-172.2924,230.2362,221.4148,175,75
2026-05-09 15:09:03.537,5,1.28,0.76,1.83,-244.5924,250.15619999999998,130.8848,175,75
2026-05-09 15:09:03.543,5,1.77,-0.48,2.0,-248.70239999999998,250.15619999999998,112.68480000000001,175,75
2026-05-09 15:09:03.561,5,-1.79,-1.72,1.39,-119.16239999999999,250.15619999999998,98.7448,175,75
2026-05-09 15:09:03.571,5,-2.0,-1.42,0.51,-35.5824,250.15619999999998,113.32480000000001,175,75
2026-05-09 15:09:03.584,5,-2.0,-1.24,0.12,43.8776,168.8262,75.76480000000001,175,75
2026-05-09 15:09:03.594,5,-2.0,-0.99,0.15,114.41760000000001,30.0562,32.4948,175,75
2026-05-09 15:09:03.605,5,-2.0,-0.7,0.8,140.9676,-73.85379999999999,-15.645199999999999,175,75
2026-05-09 15:09:03.613,5,-0.99,-0.51,2.0,86.1576,-74.18379999999999,-14.5652,175,75
2026-05-09 15:09:03.628,5,-1.93,-0.69,2.0,78.3576,-128.59380000000002,-42.6452,175,75
2026-05-09 15:09:03.628,5,-1.07,-0.39,2.0,90.4676,-250.1138,-68.7852,175,75
2026-05-09 15:09:03.650,5,-0.18,-0.13,1.14,101.6776,-250.1138,-40.4752,175,75
2026-05-09 15:09:03.665,5,0.09,0.01,0.85,104.6476,-250.1138,-36.5152,175,75
2026-05-09 15:09:03.677,5,-0.07,0.1,0.62,99.6476,-250.1138,-25.8352,175,75
2026-05-09 15:09:03.689,5,0.56,0.34,0.5,87.7776,-249.4538,-20.6952,175,75
2026-05-09 15:09:03.689,5,0.8,0.42,0.4,72.16760000000001,-243.4538,8.5848,175,75
2026-05-09 15:09:03.700,5,1.51,0.37,0.29,45.327600000000004,-201.5038,52.8148,175,75
2026-05-09 15:09:03.709,5,1.88,0.39,0.02,20.7076,-96.7538,87.93480000000001,175,75
2026-05-09 15:09:03.728,5,1.17,0.23,-0.12,2.9375999999999998,13.9362,107.3948,175,75
2026-05-09 15:09:03.739,5,0.37,0.1,-0.11,-4.1624,69.3662,106.0848,175,75
2026-05-09 15:09:03.739,5,-0.07,-0.02,-0.07,-6.692400000000001,84.9762,95.29480000000001,175,75
2026-05-09 15:09:03.749,5,-0.24,0.36,0.12,-8.0924,83.7962,89.93480000000001,175,75
2026-05-09 15:09:03.760,5,-0.19,-0.14,0.06,-5.3024000000000004,78.1962,77.90480000000001,175,75
2026-05-09 15:09:03.771,5,0.41,-0.13,0.15,-5.1824,90.9462,90.9948,175,75
2026-05-09 15:09:03.782,5,1.38,0.08,0.12,1.6776,137.93619999999999,111.4148,175,75
2026-05-09 15:09:03.792,5,0.9,0.3,0.5,-2.8124000000000002,134.56619999999998,45.9148,175,75
2026-05-09 15:09:03.812,5,0.75,-0.29,0.9,-31.042399999999997,90.2962,22.3448,175,75
2026-05-09 15:09:03.812,5,0.6,0.08,0.59,-56.7724,95.7562,81.5848,175,75
2026-05-09 15:09:03.821,5,0.79,-0.71,0.75,-49.792399999999994,148.93619999999999,164.0948,175,75
2026-05-09 15:09:03.837,5,0.92,-0.85,1.15,-17.5424,249.4662,219.1648,175,75
2026-05-09 15:09:03.847,5,1.59,-1.66,2.0,112.4276,250.15619999999998,221.1348,175,75
2026-05-09 15:09:03.847,5,-2.0,-0.25,2.0,119.4876,250.15619999999998,-29.0652,175,75
2026-05-09 15:09:03.867,5,-1.99,0.25,2.0,75.4576,250.15619999999998,-233.1652,175,75
2026-05-09 15:09:03.868,5,-2.0,0.26,1.02,43.077600000000004,245.87619999999998,-249.99519999999998,175,75
2026-05-09 15:09:03.881,5,-2.0,0.35,0.65,13.887599999999999,92.39620000000001,-249.99519999999998,175,75
2026-05-09 15:09:03.897,5,-2.0,0.45,0.93,-15.5824,-60.413799999999995,-249.99519999999998,175,75
2026-05-09 15:09:03.897,5,-1.08,0.35,1.59,-51.072399999999995,-127.8838,-249.99519999999998,175,75
2026-05-09 15:09:03.912,5,-0.42,-0.06,1.67,-43.822399999999995,-124.1638,-249.99519999999998,175,75
2026-05-09 15:09:03.924,5,0.24,0.0,1.98,17.517599999999998,-182.12380000000002,-29.0352,175,75
2026-05-09 15:09:03.929,5,0.11,0.3,2.0,38.7276,-215.5738,195.2948,175,75
2026-05-09 15:09:03.944,5,-0.24,0.4,1.95,15.9376,-216.02380000000002,250.2748,175,75
2026-05-09 15:09:03.954,5,-0.28,0.28,1.6,-14.612400000000001,-198.12380000000002,250.2748,175,75
2026-05-09 15:09:03.967,5,-0.12,-0.01,1.26,-25.7424,-180.46380000000002,250.2748,175,75
2026-05-09 15:09:03.967,5,0.05,-0.28,1.23,-20.2024,-174.21380000000002,250.2748,175,75
2026-05-09 15:09:03.983,5,0.3,-0.51,1.14,-16.0924,-176.7638,250.2748,175,75
2026-05-09 15:09:03.989,5,0.29,-0.49,0.94,0.4576,-161.1038,250.2748,175,75
2026-05-09 15:09:04.004,5,0.29,-0.44,0.85,19.8376,-144.12380000000002,250.2748,175,75
2026-05-09 15:09:04.029,5,0.3,-0.27,0.87,8.1076,-90.2838,216.8948,175,75
2026-05-09 15:09:04.045,5,0.26,-0.36,0.73,-0.8024000000000002,-67.82379999999999,175.0748,175,75
2026-05-09 15:09:04.058,5,0.16,-0.5,0.54,-2.9124,-49.2538,136.2848,175,75
2026-05-09 15:09:04.069,5,0.07,-0.59,0.33,6.5276,-36.513799999999996,101.4548,175,75
2026-05-09 15:09:04.070,5,0.01,-0.61,0.18,25.1276,-25.3638,65.4848,175,75
2026-05-09 15:09:04.078,5,0.0,-0.55,0.07,46.5476,-14.2438,28.0348,175,75
2026-05-09 15:09:04.102,5,0.13,-0.29,-0.05,61.0576,-5.823799999999999,-56.12520000000001,175,75
2026-05-09 15:09:04.112,5,0.3,-0.13,-0.15,63.0576,8.0962,-64.7252,175,75
2026-05-09 15:09:04.124,5,0.18,-0.02,-0.23,54.1576,1.0162,-101.5552,175,75
2026-05-09 15:09:04.134,5,0.25,0.08,-0.32,40.0876,-10.703800000000001,-135.74519999999998,175,75
2026-05-09 15:09:04.145,5,0.28,0.15,-0.39,24.2176,-18.7638,-157.8352,175,75
2026-05-09 15:09:04.158,5,0.29,-0.54,0.28,29.1176,-23.9538,-167.6152,175,75
2026-05-09 15:09:04.159,5,0.09,0.2,-0.32,19.517599999999998,-30.503800000000002,-168.5352,175,75
2026-05-09 15:09:04.174,5,0.07,0.21,-0.21,9.7476,-36.1538,-166.2952,175,75
2026-05-09 15:09:04.185,5,0.09,0.2,-0.13,0.25760000000000005,-38.3138,-163.1052,175,75
2026-05-09 15:09:04.198,5,0.38,0.21,-0.0,-7.0824,-26.5338,-149.4752,175,75
2026-05-09 15:09:04.198,5,0.81,0.29,0.14,-11.5424,4.4362,-98.7452,175,75
2026-05-09 15:09:04.220,5,1.27,1.55,-0.06,-53.602399999999996,14.5862,145.50480000000002,175,75
2026-05-09 15:09:04.237,5,1.18,1.03,1.21,-89.9024,51.656200000000005,250.2748,175,75
2026-05-09 15:09:04.237,5,1.0,1.15,1.57,-145.5924,157.18619999999999,250.2748,175,75
2026-05-09 15:09:04.250,5,0.96,1.21,2.0,-226.2224,250.15619999999998,174.9548,175,75
2026-05-09 15:09:04.265,5,2.0,0.61,2.0,-248.70239999999998,250.15619999999998,57.6348,175,75
2026-05-09 15:09:04.271,5,-1.26,-1.76,2.0,-248.70239999999998,250.15619999999998,44.224799999999995,175,75
2026-05-09 15:09:04.284,5,-1.35,-0.59,1.5,-205.0524,250.15619999999998,70.18480000000001,175,75
2026-05-09 15:09:04.297,5,-1.9,-1.42,0.33,-138.51239999999999,250.15619999999998,120.7148,175,75
2026-05-09 15:09:04.297,5,-2.0,-1.4,-0.14,-43.4524,148.2962,151.9948,175,75
2026-05-09 15:09:04.309,5,-2.0,-1.35,-0.11,47.77760000000001,-4.7938,171.8248,175,75
2026-05-09 15:09:04.320,5,-2.0,-1.39,1.28,93.2876,-66.9038,208.5648,175,75
2026-05-09 15:09:04.332,5,-2.0,-1.01,1.77,84.6276,-34.6038,207.0248,175,75
2026-05-09 15:09:04.343,5,-2.0,-0.85,1.65,96.80760000000001,-118.4238,5.7648,175,75
2026-05-09 15:09:04.354,5,-2.0,-0.69,1.7,93.6576,-178.4438,-163.2152,175,75
2026-05-09 15:09:04.367,5,-1.43,-0.6,1.34,105.22760000000001,-218.9838,-222.4152,175,75
2026-05-09 15:09:04.368,5,-0.84,-0.43,1.04,125.2476,-250.1138,-202.24519999999998,175,75
2026-05-09 15:09:04.380,5,-0.5,-0.15,0.96,142.3576,-250.1138,-160.9452,175,75
2026-05-09 15:09:04.407,5,-0.08,0.28,0.97,117.7876,-250.1138,-116.84519999999999,175,75
2026-05-09 15:09:04.413,5,0.05,0.48,0.86,93.7376,-250.1138,-130.5052,175,75
2026-05-09 15:09:04.423,5,0.51,0.65,0.66,77.9976,-250.1138,-96.2952,175,75
2026-05-09 15:09:04.435,5,1.28,1.05,0.84,83.0276,-250.1138,19.2948,175,75
2026-05-09 15:09:04.445,5,1.94,1.4,1.1,61.3076,-250.1138,117.4448,175,75
2026-05-09 15:09:04.460,5,1.87,1.09,0.86,32.4476,-160.24380000000002,184.8848,175,75
2026-05-09 15:09:04.460,5,1.26,0.52,0.71,22.1976,-50.1138,230.1848,175,75
2026-05-09 15:09:04.471,5,0.96,0.13,0.75,13.7576,46.1062,250.2748,175,75
2026-05-09 15:09:04.494,5,1.26,0.24,1.38,-23.3824,215.0462,250.2748,175,75
2026-05-09 15:09:04.507,5,1.41,0.19,2.0,-112.5724,230.6362,250.2748,175,75
2026-05-09 15:09:04.507,5,-0.18,-0.8,2.0,-123.2824,152.5162,250.2748,175,75
2026-05-09 15:09:04.522,5,-0.47,-0.83,2.0,-88.88239999999999,60.7862,250.2748,175,75
2026-05-09 15:09:04.535,5,-0.68,-1.38,1.33,-33.542399999999994,21.996199999999998,250.2748,175,75
2026-05-09 15:09:04.546,5,-0.9,-1.25,1.16,28.4976,7.2062,213.9648,175,75
2026-05-09 15:09:04.552,5,-1.05,-0.96,1.24,58.217600000000004,-4.8438,119.2748,175,75
2026-05-09 15:09:04.568,5,-1.0,-0.72,1.29,55.497600000000006,-27.0638,8.1448,175,75
2026-05-09 15:09:04.568,5,-0.72,-0.58,1.18,45.5476,-58.4638,-90.3252,175,75
2026-05-09 15:09:04.579,5,-0.33,-0.46,0.94,45.6976,-82.8638,-152.02519999999998,175,75
2026-05-09 15:09:04.598,5,0.01,-0.31,0.73,52.6176,-93.6138,-176.3652,175,75
2026-05-09 15:09:04.609,5,0.26,-0.15,0.57,56.8676,-90.3738,-174.7152,175,75
2026-05-09 15:09:04.609,5,0.54,-0.08,0.37,59.5476,-92.82379999999999,-130.0452,175,75
2026-05-09 15:09:04.630,5,0.62,0.1,0.13,71.3176,-148.9538,-30.6052,175,75
2026-05-09 15:09:04.630,5,0.55,0.37,0.16,75.7776,-186.7338,54.6448,175,75
2026-05-09 15:09:04.643,5,0.61,0.31,-0.02,68.3976,-185.7038,111.3448,175,75
2026-05-09 15:09:04.656,5,0.45,0.23,-0.21,46.9776,-172.4438,118.68480000000001,175,75
2026-05-09 15:09:04.671,5,-0.09,0.22,-0.84,36.2676,-161.4738,109.3948,175,75
2026-05-09 15:09:04.682,5,-0.16,0.01,-0.6,39.9376,-177.9538,88.0948,175,75
2026-05-09 15:09:04.694,5,-0.17,-0.01,-0.59,33.4476,-196.6738,61.574799999999996,175,75
2026-05-09 15:09:04.707,5,-0.18,-0.06,-0.47,23.9676,-202.80380000000002,38.724799999999995,175,75
2026-05-09 15:09:04.708,5,-0.01,-0.11,-0.31,20.017599999999998,-185.7638,22.2548,175,75
2026-05-09 15:09:04.718,5,0.07,-0.13,-0.23,13.3376,-141.4438,5.4248,175,75
2026-05-09 15:09:04.732,5,0.08,-0.11,-0.14,7.537599999999999,-78.1438,-15.7752,175,75
2026-05-09 15:09:04.741,5,0.02,-0.1,-0.07,3.1475999999999997,-6.6038,-44.805200000000006,175,75
2026-05-09 15:09:04.757,5,0.04,-0.1,-0.03,0.5176,66.4762,-70.7752,175,75
2026-05-09 15:09:04.757,5,0.15,-0.07,0.03,-2.5423999999999998,137.2162,-97.2752,175,75
2026-05-09 15:09:04.776,5,0.57,-0.0,-0.01,-6.0324,222.9962,-104.2652,175,75
2026-05-09 15:09:04.787,5,1.12,0.44,0.16,-23.7724,250.15619999999998,-105.7752,175,75
2026-05-09 15:09:04.792,5,2.0,0.78,0.36,-62.422399999999996,250.15619999999998,57.474799999999995,175,75
2026-05-09 15:09:04.808,5,2.0,2.0,1.08,-103.8124,250.15619999999998,250.2748,175,75
2026-05-09 15:09:04.819,5,0.56,0.6,1.8,-147.1624,250.15619999999998,243.4248,175,75
2026-05-09 15:09:04.830,5,0.29,-0.52,1.37,-153.5824,250.15619999999998,93.3548,175,75
2026-05-09 15:09:04.842,5,-0.25,-2.0,2.0,-143.5424,250.15619999999998,65.2148,175,75
2026-05-09 15:09:04.853,5,-1.03,-2.0,2.0,-174.1624,250.15619999999998,128.47480000000002,175,75
2026-05-09 15:09:04.882,5,-2.0,-1.95,0.66,-112.1024,250.15619999999998,118.5948,175,75
2026-05-09 15:09:04.883,5,-2.0,-1.82,-0.03,-9.5124,250.15619999999998,32.3948,175,75
2026-05-09 15:09:04.893,5,-2.0,-1.67,0.17,88.7576,119.1362,-41.3552,175,75
2026-05-09 15:09:04.903,5,-2.0,-1.48,0.95,136.5876,-5.8538,-105.2452,175,75
2026-05-09 15:09:04.914,5,-2.0,-1.18,1.59,157.3176,-77.18379999999999,-196.2652,175,75
2026-05-09 15:09:04.914,5,-2.0,-0.49,1.74,196.1376,-165.5038,-249.99519999999998,175,75
2026-05-09 15:09:04.924,5,-1.25,0.35,2.0,180.6976,-240.62380000000002,-249.99519999999998,175,75
2026-05-09 15:09:04.934,5,-0.37,0.95,2.0,132.5876,-250.1138,-249.99519999999998,175,75
2026-05-09 15:09:04.939,5,0.19,0.87,2.0,106.4576,-250.1138,-249.99519999999998,175,75
2026-05-09 15:09:04.953,5,0.8,0.95,1.66,94.3276,-250.1138,-175.0052,175,75
2026-05-09 15:09:04.962,5,0.81,0.71,1.27,77.2076,-250.1138,-85.4052,175,75
2026-05-09 15:09:04.973,5,0.85,0.46,1.08,52.77760000000001,-189.87380000000002,-18.2752,175,75
2026-05-09 15:09:04.988,5,0.85,0.35,1.03,33.4876,-100.2838,43.014799999999994,175,75
2026-05-09 15:09:04.998,5,0.9,0.24,1.09,18.6976,11.5062,102.9948,175,75
2026-05-09 15:09:04.998,5,0.84,0.29,1.27,4.9776,116.03620000000001,152.0348,175,75
2026-05-09 15:09:05.012,5,0.67,0.4,1.64,-14.0524,211.5162,196.8048,175,75
2026-05-09 15:09:05.022,5,0.26,0.3,1.88,-29.0324,250.15619999999998,236.8848,175,75
2026-05-09 15:09:05.033,5,-0.28,0.02,1.98,-37.352399999999996,226.90619999999998,250.2748,175,75
2026-05-09 15:09:05.047,5,-0.75,-0.35,1.86,-36.4024,172.7162,250.2748,175,75
2026-05-09 15:09:05.059,5,-1.05,-0.86,1.58,-28.1524,127.2362,250.2748,175,75
2026-05-09 15:09:05.059,5,-1.33,-1.03,1.27,7.2976,87.3362,246.0848,175,75
2026-05-09 15:09:05.073,5,-1.65,-1.06,1.12,54.707600000000006,37.6762,216.0248,175,75
2026-05-09 15:09:05.089,5,-1.8,-0.96,1.15,94.2876,-9.103800000000001,155.5148,175,75
2026-05-09 15:09:05.089,5,-1.7,-0.79,1.26,120.0276,-54.3938,81.6448,175,75
2026-05-09 15:09:05.102,5,-1.36,-0.57,1.37,133.6076,-97.6338,23.4948,175,75
2026-05-09 15:09:05.115,5,-1.01,-0.34,1.42,133.6476,-129.99380000000002,-15.5152,175,75
2026-05-09 15:09:05.127,5,-0.78,-0.11,1.35,123.3476,-147.43380000000002,-48.885200000000005,175,75
2026-05-09 15:09:05.127,5,-0.57,0.09,1.23,108.16760000000001,-150.5038,-85.59519999999999,175,75
2026-05-09 15:09:05.138,5,-0.35,0.17,1.04,90.41760000000001,-137.1938,-127.3552,175,75
2026-05-09 15:09:05.150,5,-0.32,0.28,0.87,75.9876,-135.1138,-149.4252,175,75
2026-05-09 15:09:05.160,5,-0.23,0.25,0.62,73.0976,-169.5338,-145.9052,175,75
2026-05-09 15:09:05.171,5,-0.15,0.35,0.48,88.7376,-238.8938,-119.1052,175,75
2026-05-09 15:09:05.184,5,0.06,0.47,0.51,94.94760000000001,-250.1138,-91.1652,175,75
2026-05-09 15:09:05.197,5,0.24,0.52,0.49,77.7876,-250.1138,-66.7752,175,75
2026-05-09 15:09:05.197,5,0.3,0.4,0.35,53.6276,-250.1138,-39.2652,175,75
2026-05-09 15:09:05.208,5,0.34,0.21,0.15,37.4176,-250.1138,-4.3552,175,75
2026-05-09 15:09:05.224,5,0.41,0.03,-0.06,31.7076,-250.1138,50.2748,175,75
2026-05-09 15:09:05.239,5,0.26,-0.22,-0.48,34.327600000000004,-250.1138,171.5248,175,75
2026-05-09 15:09:05.249,5,0.2,-0.05,-0.61,67.9376,-237.7638,230.1548,175,75
2026-05-09 15:09:05.263,5,0.18,-0.11,-0.51,74.8576,-237.6038,250.2748,175,75
2026-05-09 15:09:05.273,5,0.09,-0.11,-0.23,79.3576,-218.87380000000002,250.2748,175,75
2026-05-09 15:09:05.284,5,0.13,-0.09,-0.15,71.6476,-178.3638,250.2748,175,75
2026-05-09 15:09:05.291,5,0.11,-0.08,-0.03,57.1976,-117.5138,243.8748,175,75
2026-05-09 15:09:05.298,5,0.02,-0.07,0.04,37.707600000000006,-42.5038,196.25480000000002,175,75
2026-05-09 15:09:05.317,5,-0.07,-0.1,0.04,18.6076,29.676199999999998,138.1548,175,75
2026-05-09 15:09:05.333,5,-0.13,-0.13,-0.01,2.1875999999999998,98.3862,76.2148,175,75
2026-05-09 15:09:05.333,5,-0.1,-0.15,-0.09,-6.5324,149.2062,30.5848,175,75
2026-05-09 15:09:05.343,5,0.04,-0.16,-0.18,-8.772400000000001,193.2962,-0.1552,175,75
2026-05-09 15:09:05.354,5,0.15,-0.11,-0.23,-6.3824000000000005,232.5862,-15.9652,175,75
2026-05-09 15:09:05.365,5,0.23,-0.05,-0.24,-2.7824,250.15619999999998,-17.4652,175,75
2026-05-09 15:09:05.377,5,0.25,0.01,-0.22,-1.1924,250.15619999999998,-10.2752,175,75
2026-05-09 15:09:05.377,5,0.33,0.08,-0.15,-0.37240000000000006,250.15619999999998,4.2548,175,75
2026-05-09 15:09:05.390,5,0.12,0.17,-0.04,-4.0324,250.15619999999998,13.9948,175,75
2026-05-09 15:09:05.406,5,0.11,0.19,0.16,-8.7524,250.15619999999998,20.4148,175,75
2026-05-09 15:09:05.414,5,0.28,0.16,0.45,-7.612400000000001,207.94619999999998,45.904799999999994,175,75
2026-05-09 15:09:05.428,5,0.13,0.58,0.58,-46.8324,150.91619999999998,80.9948,175,75
2026-05-09 15:09:05.451,5,0.75,0.49,2.0,-101.38239999999999,250.15619999999998,65.87480000000001,175,75
2026-05-09 15:09:05.462,5,2.0,-0.1,2.0,-179.5824,250.15619999999998,69.3348,175,75
2026-05-09 15:09:05.477,5,-1.44,-0.35,2.0,-97.16239999999999,250.15619999999998,161.4348,175,75
2026-05-09 15:09:05.489,5,-2.0,-0.06,2.0,-86.58239999999999,250.15619999999998,150.0948,175,75
2026-05-09 15:09:05.489,5,-2.0,-0.38,1.0,-111.0624,250.15619999999998,72.3948,175,75
2026-05-09 15:09:05.512,5,-2.0,-0.75,0.58,-102.6124,-8.4238,39.324799999999996,175,75
2026-05-09 15:09:05.527,5,-2.0,-0.83,1.4,-101.5124,-103.9738,58.87479999999999,175,75
2026-05-09 15:09:05.540,5,-2.0,-1.08,1.97,-39.072399999999995,-166.1938,116.37480000000001,175,75
2026-05-09 15:09:05.557,5,-1.99,-0.97,2.0,11.2576,-250.1138,109.2548,175,75
2026-05-09 15:09:05.557,5,-1.61,-0.79,1.66,51.577600000000004,-250.1138,71.6748,175,75
2026-05-09 15:09:05.575,5,-1.26,-0.61,1.34,83.2576,-250.1138,26.7848,175,75
2026-05-09 15:09:05.587,5,-0.85,-0.49,1.14,121.80760000000001,-250.1138,-15.7252,175,75
2026-05-09 15:09:05.598,5,-0.18,-0.18,1.11,132.3876,-250.1138,-27.8752,175,75
2026-05-09 15:09:05.608,5,0.74,0.06,1.09,107.9076,-250.1138,15.0948,175,75
2026-05-09 15:09:05.618,5,1.64,0.07,0.93,75.9676,-250.1138,168.8548,175,75
2026-05-09 15:09:05.629,5,2.0,-0.13,0.55,60.4176,-250.1138,250.2748,175,75
2026-05-09 15:09:05.629,5,2.0,-0.26,0.28,61.8076,-250.1138,250.2748,175,75
2026-05-09 15:09:05.640,5,2.0,-0.35,-0.18,74.6576,-194.2938,250.2748,175,75
2026-05-09 15:09:05.651,5,1.42,-0.18,-0.26,82.3476,-71.35379999999999,250.2748,175,75
2026-05-09 15:09:05.662,5,0.34,0.0,-0.18,59.2276,8.9362,250.2748,175,75
2026-05-09 15:09:05.674,5,-0.26,-0.08,-0.04,32.537600000000005,61.806200000000004,198.0748,175,75
2026-05-09 15:09:05.685,5,-0.4,-0.28,0.1,28.4576,102.9762,51.834799999999994,175,75
2026-05-09 15:09:05.697,5,-0.07,-0.37,0.33,38.9076,150.69619999999998,-57.1052,175,75
2026-05-09 15:09:05.697,5,0.42,-0.29,0.68,40.7976,216.3962,-120.1852,175,75
2026-05-09 15:09:05.722,5,1.2,0.09,1.86,-20.072400000000002,250.15619999999998,-173.3752,175,75
2026-05-09 15:09:05.728,5,1.83,0.25,2.0,-53.642399999999995,250.15619999999998,-203.6052,175,75
2026-05-09 15:09:05.742,5,0.72,0.09,2.0,-27.3524,250.15619999999998,-107.7952,175,75
2026-05-09 15:09:05.755,5,-0.82,0.73,2.0,-48.042399999999994,250.15619999999998,-50.915200000000006,175,75
2026-05-09 15:09:05.767,5,-1.58,0.64,1.47,-99.4524,233.12619999999998,-89.8952,175,75
2026-05-09 15:09:05.779,5,-1.71,0.44,1.36,-149.23239999999998,156.1762,-152.9052,175,75
2026-05-09 15:09:05.779,5,-1.41,0.16,1.2,-178.2224,69.45620000000001,-117.1952,175,75
2026-05-09 15:09:05.797,5,-0.93,-0.28,1.2,-160.3124,-1.5638,9.8148,175,75
2026-05-09 15:09:05.807,5,-0.84,-0.39,1.34,-104.4524,-66.5538,168.0248,175,75
2026-05-09 15:09:05.807,5,-1.04,-0.16,1.59,-66.2924,-132.5338,250.2748,175,75
2026-05-09 15:09:05.825,5,-0.92,-0.16,1.54,-45.822399999999995,-175.6338,250.2748,175,75
2026-05-09 15:09:05.832,5,-0.45,-0.23,1.4,-28.822400000000002,-191.1938,250.2748,175,75
2026-05-09 15:09:05.839,5,-0.05,-0.22,1.35,-32.292399999999994,-192.4138,250.2748,175,75
2026-05-09 15:09:05.852,5,-0.01,-0.32,1.31,-42.862399999999994,-196.8638,250.2748,175,75
2026-05-09 15:09:05.863,5,-0.04,-0.69,1.22,-45.3424,-227.0138,250.2748,175,75
2026-05-09 15:09:05.874,5,-0.04,-0.92,1.12,-39.492399999999996,-250.1138,250.2748,175,75
2026-05-09 15:09:05.883,5,0.14,-0.99,0.84,-22.2024,-250.1138,250.2748,175,75
2026-05-09 15:09:05.894,5,0.16,-0.91,0.54,9.4176,-250.1138,250.2748,175,75
2026-05-09 15:09:05.907,5,-0.04,-0.79,0.31,42.207600000000006,-250.1138,250.2748,175,75
2026-05-09 15:09:05.918,5,-0.09,-0.69,0.18,56.4476,-250.1138,250.2748,175,75
2026-05-09 15:09:05.918,5,-0.08,-0.68,-0.04,52.5176,-217.4838,174.8048,175,75
2026-05-09 15:09:05.931,5,0.15,-0.93,-0.4,49.857600000000005,-142.1638,42.824799999999996,175,75
2026-05-09 15:09:05.941,5,0.08,-0.52,-0.65,38.8676,-79.6938,-95.3052,175,75
2026-05-09 15:09:05.955,5,0.26,-1.19,0.02,21.9076,-32.553799999999995,-174.1652,175,75
2026-05-09 15:09:05.964,5,0.1,-0.17,-0.65,9.0576,-11.0638,-206.1452,175,75
2026-05-09 15:09:05.988,5,-0.28,0.15,-0.4,-40.612399999999994,-45.1538,-235.7352,175,75
2026-05-09 15:09:06.018,5,0.28,0.11,-0.34,-38.2624,-38.763799999999996,-244.2152,175,75
2026-05-09 15:09:06.033,5,1.36,0.23,-0.23,-19.0924,98.17620000000001,-152.5352,175,75
2026-05-09 15:09:06.044,5,1.65,0.44,-0.05,-27.0924,197.65619999999998,-68.62519999999999,175,75
2026-05-09 15:09:06.056,5,2.0,0.8,0.25,-35.5624,250.15619999999998,99.9948,175,75
2026-05-09 15:09:06.066,5,2.0,1.49,1.33,-42.5824,201.2962,250.2748,175,75
2026-05-09 15:09:06.087,5,1.35,0.7,1.95,-135.6824,250.15619999999998,250.2748,175,75
2026-05-09 15:09:06.097,5,2.0,-0.02,2.0,-164.0724,250.15619999999998,181.5848,175,75
2026-05-09 15:09:06.098,5,-1.26,-1.84,2.0,-150.9424,250.15619999999998,79.1648,175,75
2026-05-09 15:09:06.109,5,-2.0,-2.0,1.35,-102.77239999999999,250.15619999999998,14.6348,175,75
2026-05-09 15:09:06.124,5,-2.0,-1.45,0.01,-16.9324,250.15619999999998,-6.3152,175,75
2026-05-09 15:09:06.145,5,-2.0,-1.25,-0.19,165.4576,117.5862,-55.735200000000006,175,75
2026-05-09 15:09:06.157,5,-2.0,-0.91,0.13,226.1676,-18.9438,-78.6652,175,75
2026-05-09 15:09:06.158,5,-1.4,-0.22,1.98,199.7476,-72.5938,-77.0452,175,75
2026-05-09 15:09:06.170,5,-1.47,-0.16,2.0,68.69760000000001,14.9862,-65.67519999999999,175,75
2026-05-09 15:09:06.179,5,-1.78,-0.21,2.0,96.2576,-172.6038,-88.7452,175,75
2026-05-09 15:09:06.196,5,-0.81,0.15,2.0,98.2976,-250.1138,-69.0552,175,75
2026-05-09 15:09:06.196,5,-0.58,0.03,1.23,87.5176,-250.1138,-49.4052,175,75
2026-05-09 15:09:06.210,5,-0.45,0.06,0.8,79.8876,-250.1138,-59.8252,175,75
2026-05-09 15:09:06.222,5,-0.23,0.2,0.64,59.927600000000005,-250.1138,-90.8852,175,75
2026-05-09 15:09:06.232,5,-0.04,0.32,0.46,38.2276,-247.3538,-133.7852,175,75
2026-05-09 15:09:06.246,5,0.39,0.43,0.09,35.8676,-241.80380000000002,-115.5052,175,75
2026-05-09 15:09:06.247,5,0.85,0.5,-0.19,57.497600000000006,-250.1138,-54.7652,175,75
2026-05-09 15:09:06.263,5,1.82,0.95,0.03,68.2776,-250.1138,75.8848,175,75
2026-05-09 15:09:06.275,5,1.99,1.11,-0.05,28.6576,-145.1138,138.4648,175,75
2026-05-09 15:09:06.293,5,1.25,0.67,-0.24,2.5276,-38.413799999999995,155.7948,175,75
2026-05-09 15:09:06.293,5,0.93,0.22,-0.35,-1.4424,43.0362,136.47480000000002,175,75
2026-05-09 15:09:06.306,5,0.56,0.11,-0.14,-1.1924,99.06620000000001,117.57480000000001,175,75
2026-05-09 15:09:06.313,5,0.35,0.06,0.11,-7.522400000000001,130.62619999999998,106.2148,175,75
2026-05-09 15:09:06.318,5,0.32,-0.1,0.22,-9.2524,151.4662,116.1648,175,75
2026-05-09 15:09:06.329,5,0.63,-0.49,0.22,-16.6624,178.2962,160.22480000000002,175,75
2026-05-09 15:09:06.349,5,0.85,-0.53,0.62,5.6276,250.15619999999998,250.2748,175,75
2026-05-09 15:09:06.360,5,0.71,-0.49,1.03,28.7576,250.15619999999998,250.2748,175,75
2026-05-09 15:09:06.370,5,1.44,-1.5,2.0,80.94760000000001,250.15619999999998,199.2748,175,75
2026-05-09 15:09:06.381,5,-1.68,-0.7,2.0,93.7776,250.15619999999998,-75.9752,175,75
2026-05-09 15:09:06.403,5,-1.98,0.02,1.06,53.3476,250.15619999999998,-249.99519999999998,175,75
2026-05-09 15:09:06.417,5,-2.0,0.07,0.74,24.8476,130.09619999999998,-249.99519999999998,175,75
2026-05-09 15:09:06.428,5,-1.22,0.13,1.49,-27.5224,-94.04379999999999,-249.99519999999998,175,75
2026-05-09 15:09:06.441,5,-0.49,-0.03,1.72,-17.1824,-126.5938,-249.99519999999998,175,75
2026-05-09 15:09:06.448,5,-0.07,0.01,1.79,31.4876,-200.1738,-43.995200000000004,175,75
2026-05-09 15:09:06.459,5,-0.1,0.38,1.92,51.5976,-250.1138,135.2648,175,75
2026-05-09 15:09:06.470,5,-0.22,0.4,1.62,23.927599999999998,-250.1138,207.2348,175,75
2026-05-09 15:09:06.483,5,-0.02,0.19,1.21,2.0376,-225.8638,224.7048,175,75
2026-05-09 15:09:06.497,5,0.37,-0.01,1.01,-9.112400000000001,-191.49380000000002,250.2748,175,75
2026-05-09 15:09:06.497,5,0.61,-0.09,0.9,-16.7124,-160.0138,250.2748,175,75
2026-05-09 15:09:06.508,5,0.65,-0.22,0.84,-22.7724,-138.31380000000001,250.2748,175,75
2026-05-09 15:09:06.531,5,0.14,-0.27,0.95,-34.7724,-201.9538,250.2748,175,75
2026-05-09 15:09:06.541,5,0.35,-0.4,0.92,-48.1524,-212.5738,250.2748,175,75
2026-05-09 15:09:06.555,5,0.39,-0.54,0.72,-50.212399999999995,-154.7838,201.8748,175,75
2026-05-09 15:09:06.568,5,0.17,-0.58,0.53,-40.0524,-77.32379999999999,111.0648,175,75
2026-05-09 15:09:06.568,5,-0.09,-0.52,0.45,-27.2024,-9.4138,26.2348,175,75
2026-05-09 15:09:06.579,5,-0.27,-0.43,0.45,-17.6124,41.4562,-52.175200000000004,175,75
2026-05-09 15:09:06.591,5,-0.37,-0.36,0.48,-13.6024,75.17620000000001,-123.8552,175,75
2026-05-09 15:09:06.606,5,-0.34,-0.29,0.54,-14.872399999999999,87.67620000000001,-185.77519999999998,175,75
2026-05-09 15:09:06.617,5,-0.22,-0.22,0.61,-19.8024,78.81620000000001,-234.9352,175,75
2026-05-09 15:09:06.617,5,-0.01,-0.16,0.63,-21.572400000000002,57.336200000000005,-249.99519999999998,175,75
2026-05-09 15:09:06.637,5,0.19,-0.08,0.59,-20.3824,38.1662,-249.99519999999998,175,75
2026-05-09 15:09:06.651,5,0.25,-0.01,0.53,-18.4924,19.246199999999998,-249.99519999999998,175,75
2026-05-09 15:09:06.651,5,0.24,0.05,0.45,-10.4224,-8.3338,-220.0652,175,75
2026-05-09 15:09:06.667,5,0.23,0.2,0.51,1.2576,-33.5738,-168.3452,175,75
2026-05-09 15:09:06.678,5,0.19,0.23,0.59,2.8175999999999997,-38.1838,-132.02519999999998,175,75
2026-05-09 15:09:06.678,5,0.11,0.23,0.63,1.5176,-26.4538,-111.09519999999999,175,75
2026-05-09 15:09:06.690,5,0.16,0.21,0.64,-1.9223999999999999,-4.7038,-91.31519999999999,175,75
2026-05-09 15:09:06.699,5,0.19,0.17,0.68,-2.2324,26.336199999999998,-64.8352,175,75
2026-05-09 15:09:06.713,5,0.14,0.16,0.72,-2.7624000000000004,62.656200000000005,-41.805200000000006,175,75
2026-05-09 15:09:06.737,5,-0.01,0.19,0.92,-7.4724,136.0462,-2.9352,175,75
2026-05-09 15:09:06.748,5,-0.11,0.23,1.24,-11.3524,158.1062,12.3448,175,75
2026-05-09 15:09:06.760,5,-0.41,0.31,1.94,-45.352399999999996,95.7562,98.1748,175,75
2026-05-09 15:09:06.770,5,-0.7,0.1,1.83,-71.8724,-1.4438,145.8748,175,75
2026-05-09 15:09:06.782,5,-0.89,-0.3,1.37,-51.502399999999994,-73.4038,135.3748,175,75
2026-05-09 15:09:06.793,5,-0.84,-0.4,1.14,-2.9624000000000006,-110.5138,93.37480000000001,175,75
2026-05-09 15:09:06.808,5,-0.57,-0.41,1.14,32.8676,-128.52380000000002,62.9648,175,75
2026-05-09 15:09:06.819,5,-0.14,-0.11,1.39,48.3776,-142.4438,67.76480000000001,175,75
2026-05-09 15:09:06.840,5,0.52,-0.29,1.38,31.7276,-131.6638,107.18480000000001,175,75
2026-05-09 15:09:06.868,5,0.59,-0.43,1.44,12.3176,-87.54379999999999,138.7648,175,75
2026-05-09 15:09:06.874,5,0.43,-0.45,1.53,11.0976,-69.32379999999999,105.9948,175,75
2026-05-09 15:09:06.889,5,0.37,-0.44,1.67,12.8776,-50.1738,33.2348,175,75
2026-05-09 15:09:06.889,5,0.34,-0.34,1.74,11.5876,-28.1938,-55.235200000000006,175,75
2026-05-09 15:09:06.920,5,0.53,-0.26,1.69,9.0076,-5.283799999999999,-107.8352,175,75
2026-05-09 15:09:06.953,5,0.44,-0.48,1.58,19.8376,24.8962,-33.9752,175,75
2026-05-09 15:09:06.966,5,0.38,-0.52,1.41,32.967600000000004,25.7562,-18.9352,175,75
2026-05-09 15:09:06.991,5,0.27,-0.38,1.28,56.8376,41.4662,-44.5152,175,75
2026-05-09 15:09:07.002,5,0.24,-0.2,1.25,65.7476,45.3962,-75.98519999999999,175,75
2026-05-09 15:09:07.002,5,0.25,0.04,1.25,68.4876,43.046200000000006,-115.70519999999999,175,75
2026-05-09 15:09:07.012,5,0.29,0.35,1.27,61.77760000000001,41.6062,-154.5452,175,75
2026-05-09 15:09:07.028,5,0.32,0.49,1.2,51.27760000000001,38.046200000000006,-198.5352,175,75
2026-05-09 15:09:07.041,5,0.59,0.8,0.92,25.7576,10.706199999999999,-213.6752,175,75
2026-05-09 15:09:07.052,5,0.53,0.87,0.78,28.4476,-11.443800000000001,-179.27519999999998,175,75
2026-05-09 15:09:07.062,5,0.29,0.81,0.65,28.1876,-16.8438,-168.0652,175,75
2026-05-09 15:09:07.072,5,0.14,0.69,0.58,16.9376,-14.703800000000001,-166.4152,175,75
2026-05-09 15:09:07.085,5,0.09,0.55,0.51,-5.6224,-4.4338,-154.6852,175,75
2026-05-09 15:09:07.099,5,-0.08,0.34,0.36,-58.97239999999999,13.3362,-95.06519999999999,175,75
2026-05-09 15:09:07.110,5,-0.23,0.23,0.22,-69.88239999999999,6.716200000000001,-57.12520000000001,175,75
2026-05-09 15:09:07.133,5,-0.22,-0.08,-0.06,-45.792399999999994,-38.2538,43.694799999999994,175,75
2026-05-09 15:09:07.144,5,-0.11,-0.25,-0.14,-9.6424,-58.1538,110.7148,175,75
2026-05-09 15:09:07.154,5,0.07,-0.29,-0.03,28.7076,-58.8538,176.22480000000002,175,75
2026-05-09 15:09:07.164,5,0.17,-0.1,0.16,50.107600000000005,-35.8638,226.8748,175,75
2026-05-09 15:09:07.179,5,0.14,-0.03,0.24,53.467600000000004,-6.4338,250.2748,175,75
2026-05-09 15:09:07.190,5,0.14,0.11,0.3,38.4176,53.796200000000006,250.2748,175,75
2026-05-09 15:09:07.201,5,0.15,0.15,0.27,23.6876,79.5262,250.2748,175,75
2026-05-09 15:09:07.223,5,0.59,-0.03,0.13,9.2776,80.42620000000001,250.2748,175,75
2026-05-09 15:09:07.246,5,0.37,-0.23,0.29,31.7776,-40.1838,250.2748,175,75
2026-05-09 15:09:07.259,5,0.3,-0.35,0.18,30.4476,-55.4738,205.5148,175,75
2026-05-09 15:09:07.259,5,-0.01,-0.36,0.07,31.4776,-56.4638,150.0348,175,75
2026-05-09 15:09:07.287,5,-0.2,-0.29,0.08,28.9976,-57.303799999999995,72.9148,175,75
2026-05-09 15:09:07.310,5,0.36,-0.22,0.31,3.3076,-35.8938,-87.6052,175,75
2026-05-09 15:09:07.310,5,0.71,-0.09,0.54,-8.9324,-27.1238,-178.8352,175,75
2026-05-09 15:09:07.363,5,2.0,-0.3,2.0,-248.70239999999998,250.15619999999998,-122.3052,175,75
2026-05-09 15:09:07.374,5,0.09,-0.95,1.1,-150.8324,250.15619999999998,71.8648,175,75
2026-05-09 15:09:07.374,5,-0.32,0.18,0.73,-98.9224,250.15619999999998,197.69480000000001,175,75
2026-05-09 15:09:07.399,5,-1.94,-0.58,0.37,-16.8524,211.7462,195.7448,175,75
2026-05-09 15:09:07.399,5,-2.0,-0.63,1.05,-13.9024,101.0962,162.7048,175,75
2026-05-09 15:09:07.411,5,-1.58,-0.83,2.0,-53.8024,2.4261999999999997,117.04480000000001,175,75
2026-05-09 15:09:07.431,5,-1.09,-1.33,1.31,37.467600000000004,-124.5338,-15.645199999999999,175,75
2026-05-09 15:09:07.449,5,-0.63,-0.86,1.15,97.41760000000001,-144.2838,-60.6452,175,75
2026-05-09 15:09:07.460,5,-0.27,0.27,1.42,121.9276,-96.9238,-163.5652,175,75
2026-05-09 15:09:07.472,5,-0.05,0.47,1.45,96.8776,-78.60379999999999,-193.9552,175,75
2026-05-09 15:09:07.483,5,0.1,0.73,1.43,69.6476,-71.1438,-206.9752,175,75
2026-05-09 15:09:07.495,5,0.45,0.88,1.4,39.497600000000006,-78.0638,-165.4852,175,75
2026-05-09 15:09:07.506,5,0.59,0.87,1.44,8.9276,-62.553799999999995,-106.48519999999999,175,75
2026-05-09 15:09:07.521,5,0.5,0.34,1.21,-44.97239999999999,63.7862,-3.6452,175,75
2026-05-09 15:09:07.529,5,0.37,0.18,1.16,-56.612399999999994,126.4462,63.4948,175,75
2026-05-09 15:09:07.543,5,0.19,0.04,1.17,-66.7824,175.65619999999998,131.8348,175,75
2026-05-09 15:09:07.565,5,-0.58,-0.15,1.35,-71.6424,197.4662,232.5748,175,75
2026-05-09 15:09:07.577,5,-0.95,-0.38,1.54,-65.41239999999999,170.3362,235.7848,175,75
2026-05-09 15:09:07.588,5,-1.2,-0.64,1.82,-44.102399999999996,128.2962,205.3748,175,75
2026-05-09 15:09:07.609,5,-1.67,-1.05,1.83,23.2576,51.876200000000004,86.6148,175,75
2026-05-09 15:09:07.609,5,-1.77,-0.97,1.51,56.8376,2.4261999999999997,26.1148,175,75
2026-05-09 15:09:07.618,5,-1.73,-0.8,1.3,85.61760000000001,-46.553799999999995,-22.7352,175,75
2026-05-09 15:09:07.632,5,-1.55,-0.56,1.28,107.3276,-100.3938,-52.2652,175,75
2026-05-09 15:09:07.643,5,-1.2,-0.35,1.39,121.16760000000001,-150.31380000000001,-64.5452,175,75
2026-05-09 15:09:07.659,5,-0.78,-0.17,1.51,128.2576,-191.1938,-58.305200000000006,175,75
2026-05-09 15:09:07.659,5,-0.4,0.06,1.53,124.7476,-211.7638,-43.495200000000004,175,75
2026-05-09 15:09:07.670,5,-0.11,0.27,1.37,108.8576,-210.15380000000002,-37.5852,175,75
2026-05-09 15:09:07.684,5,-0.04,0.3,1.21,93.86760000000001,-205.30380000000002,-39.1852,175,75
2026-05-09 15:09:07.709,5,0.21,0.58,0.99,68.2776,-225.9438,-46.9352,175,75
2026-05-09 15:09:07.741,5,0.27,0.1,0.46,11.1676,-103.82379999999999,-13.4452,175,75
2026-05-09 15:09:07.776,5,-0.04,-0.07,0.25,-6.9224,-79.2838,74.7048,175,75
2026-05-09 15:09:07.812,5,-0.22,-0.19,-0.15,10.3776,-150.6638,195.44480000000001,175,75
2026-05-09 15:09:07.829,5,-0.2,-0.15,-0.23,15.1276,-174.6738,210.1348,175,75
2026-05-09 15:09:07.837,5,-0.16,-0.41,-0.06,26.7076,-185.9138,213.6048,175,75
2026-05-09 15:09:07.859,5,0.27,-0.11,-0.32,27.267599999999998,-158.37380000000002,170.1048,175,75
2026-05-09 15:09:07.859,5,0.46,-0.18,-0.4,20.5476,-103.93379999999999,126.6648,175,75
2026-05-09 15:09:07.871,5,0.41,-0.22,-0.42,15.0476,-37.1538,73.5848,175,75
2026-05-09 15:09:07.880,5,0.23,-0.2,-0.32,7.2176,16.5562,23.2548,175,75
2026-05-09 15:09:07.946,5,0.41,0.16,0.32,-78.5624,250.15619999999998,-212.1752,175,75
2026-05-09 15:09:07.970,5,1.51,0.71,1.44,-67.9024,238.7362,-45.3552,175,75
2026-05-09 15:09:07.975,5,1.29,0.88,1.94,-96.0024,218.53619999999998,96.3848,175,75
2026-05-09 15:09:07.987,5,0.91,0.84,2.0,-135.1824,250.15619999999998,132.3248,175,75
2026-05-09 15:09:08.007,5,-1.29,-0.39,2.0,-162.2524,250.15619999999998,142.7748,175,75
2026-05-09 15:09:08.027,5,-2.0,-0.61,1.2,-160.4224,250.15619999999998,70.07480000000001,175,75
2026-05-09 15:09:08.038,5,-2.0,-0.73,0.75,-141.95239999999998,222.03619999999998,45.4148,175,75
2026-05-09 15:09:08.041,5,-2.0,-0.9,0.66,-111.2824,94.1962,36.1048,175,75
2026-05-09 15:09:08.054,5,-2.0,-0.98,1.06,-77.1824,-1.9938,47.3848,175,75
2026-05-09 15:09:08.065,5,-2.0,-1.01,1.43,-42.6524,-46.2838,56.0648,175,75
2026-05-09 15:09:08.088,5,-1.56,-0.46,1.38,76.2076,-250.1138,-58.6452,175,75
2026-05-09 15:09:08.101,5,-1.08,-0.24,1.06,92.83760000000001,-250.1138,-82.2552,175,75
2026-05-09 15:09:08.135,5,0.19,0.29,0.75,91.22760000000001,-250.1138,-31.3352,175,75
2026-05-09 15:09:08.155,5,1.18,0.65,0.94,88.8176,-250.1138,115.15480000000001,175,75
2026-05-09 15:09:08.165,5,1.5,0.56,0.92,83.3476,-250.1138,185.3248,175,75
2026-05-09 15:09:08.188,5,2.0,-0.19,0.18,83.5476,-184.18380000000002,250.2748,175,75
2026-05-09 15:09:08.242,5,-0.28,-0.25,0.13,139.9976,60.556200000000004,250.2748,175,75
2026-05-09 15:09:08.242,5,-0.72,-0.24,0.34,109.7176,90.4662,250.2748,175,75
2026-05-09 15:09:08.311,5,0.77,-0.09,2.0,41.927600000000005,250.15619999999998,-249.99519999999998,175,75
2026-05-09 15:09:08.318,5,-0.52,0.75,2.0,7.4876,250.15619999999998,-249.2952,175,75
2026-05-09 15:09:08.329,5,-1.15,0.65,1.75,-26.2524,141.3862,-214.7852,175,75
2026-05-09 15:09:08.344,5,-1.48,0.8,1.45,-73.91239999999999,63.9262,-244.5852,175,75
2026-05-09 15:09:08.344,5,-1.12,0.39,1.23,-106.0324,-8.203800000000001,-225.6352,175,75
2026-05-09 15:09:08.356,5,-0.65,0.08,1.09,-99.94239999999999,-54.663799999999995,-139.4552,175,75
2026-05-09 15:09:08.408,5,0.17,-0.11,1.25,-26.4324,-102.6338,250.2748,175,75
2026-05-09 15:09:08.435,5,0.05,-0.38,1.17,-26.8724,-127.4438,250.2748,175,75
2026-05-09 15:09:08.445,5,-0.04,-0.56,1.07,-20.9424,-175.4138,250.2748,175,75
2026-05-09 15:09:08.478,5,0.33,-0.55,0.35,36.1676,-203.7938,250.2748,175,75
2026-05-09 15:09:08.512,5,0.47,-0.27,-0.19,42.327600000000004,-98.5338,119.0348,175,75
2026-05-09 15:09:08.529,5,0.37,-0.4,-0.38,40.037600000000005,-35.373799999999996,50.9948,175,75
2026-05-09 15:09:08.529,5,0.04,-0.31,-0.48,30.9976,3.8562000000000003,-15.1652,175,75
2026-05-09 15:09:08.546,5,-0.5,-0.15,-0.17,22.5676,6.2362,-133.0352,175,75
2026-05-09 15:09:08.557,5,-0.54,0.1,-0.16,2.6875999999999998,-12.863800000000001,-190.3952,175,75
2026-05-09 15:09:08.568,5,-0.37,0.25,-0.08,-22.5624,-27.6038,-240.4252,175,75
2026-05-09 15:09:08.639,5,1.07,1.04,1.74,-173.5924,173.2962,110.29480000000001,175,75
2026-05-09 15:09:08.653,5,1.27,0.62,1.76,-243.6224,250.15619999999998,45.194799999999994,175,75
2026-05-09 15:09:08.668,5,-0.16,-1.79,2.0,-161.5624,250.15619999999998,119.8848,175,75
2026-05-09 15:09:08.675,5,-1.47,-0.89,1.43,-79.1724,250.15619999999998,168.9048,175,75
2026-05-09 15:09:08.730,5,-2.0,-0.93,2.0,55.0576,42.876200000000004,-56.9352,175,75
2026-05-09 15:09:08.761,5,-1.03,-0.23,1.33,131.5076,-250.1138,-68.4352,175,75
2026-05-09 15:09:08.761,5,-0.79,-0.07,0.93,129.14759999999998,-250.1138,-81.7452,175,75
2026-05-09 15:09:08.784,5,-0.12,0.09,0.62,97.9276,-250.1138,-120.9452,175,75
2026-05-09 15:09:08.900,5,0.22,-0.14,0.52,16.1076,209.87619999999998,220.1848,175,75
2026-05-09 15:09:08.930,5,0.02,-0.39,1.88,-0.6024,194.5262,134.8448,175,75
2026-05-09 15:09:08.953,5,-0.64,-0.47,1.77,54.9876,244.5762,-110.7152,175,75
2026-05-09 15:09:08.975,5,-1.42,0.19,1.34,25.4776,168.81619999999998,-249.99519999999998,175,75
2026-05-09 15:09:08.984,5,-1.64,0.31,1.25,-3.7524000000000006,89.1162,-249.99519999999998,175,75
2026-05-09 15:09:08.997,5,-1.1,0.21,1.35,-25.2024,5.8762,-249.99519999999998,175,75
2026-05-09 15:09:09.012,5,-0.56,0.09,1.32,-22.0324,-61.273799999999994,-219.3552,175,75
2026-05-09 15:09:09.017,5,-0.24,0.12,1.36,-0.12240000000000006,-105.1138,-90.42519999999999,175,75
2026-05-09 15:09:09.038,5,-0.2,0.27,1.17,-13.4124,-156.81380000000001,143.3248,175,75
2026-05-09 15:09:09.077,5,0.39,-0.14,0.92,-21.0124,-106.4538,250.2748,175,75
2026-05-09 15:09:09.114,5,0.16,-0.3,0.85,-20.6124,-103.6338,201.50480000000002,175,75
2026-05-09 15:09:09.139,5,-0.12,-0.22,0.58,-0.1524000000000001,24.2062,43.12479999999999,175,75
2026-05-09 15:09:09.154,5,-0.19,-0.21,0.63,-3.3124000000000002,55.6362,-9.895199999999999,175,75
2026-05-09 15:09:09.190,5,-0.16,-0.07,0.79,10.387599999999999,54.236200000000004,-109.42519999999999,175,75
2026-05-09 15:09:09.286,5,-0.18,0.23,0.87,40.1276,-4.8938,38.084799999999994,175,75
2026-05-09 15:09:09.289,5,-0.09,0.32,1.03,40.537600000000005,6.0162,29.9548,175,75
2026-05-09 15:09:09.346,5,-0.28,0.12,0.91,1.9576,-18.5438,108.29480000000001,175,75
2026-05-09 15:09:09.365,5,0.03,-0.1,1.04,25.3576,-4.8838,105.8848,175,75
2026-05-09 15:09:09.365,5,0.22,0.01,1.51,23.177599999999998,19.2162,147.22480000000002,175,75
2026-05-09 15:09:09.388,5,-0.12,-0.48,1.61,-33.3824,15.976199999999999,239.3948,175,75
2026-05-09 15:09:09.400,5,-0.34,-0.95,1.71,-34.932399999999994,-33.953799999999994,250.2748,175,75
2026-05-09 15:09:09.417,5,-0.51,-1.08,1.6,-9.3424,-67.0538,239.4548,175,75
2026-05-09 15:09:09.458,5,-0.16,-0.49,1.38,56.5476,-122.5638,-15.2152,175,75
2026-05-09 15:09:09.505,5,0.98,-0.01,1.58,11.5876,-44.5738,92.7048,175,75
2026-05-09 15:09:09.600,5,0.39,0.2,1.16,26.6476,86.8462,-106.1052,175,75
2026-05-09 15:09:09.619,5,0.31,0.29,1.08,15.2676,89.1362,-142.4852,175,75
2026-05-09 15:09:09.635,5,0.35,0.44,1.05,11.3676,76.42620000000001,-167.2952,175,75
2026-05-09 15:09:09.646,5,0.22,0.64,0.91,11.7076,38.8862,-141.3252,175,75
2026-05-09 15:09:09.652,5,0.08,0.59,0.8,-0.13240000000000007,21.0962,-118.8052,175,75
2026-05-09 15:09:09.716,5,-0.31,-0.11,0.11,-29.3824,-55.2238,108.90480000000001,175,75
2026-05-09 15:09:09.740,5,-0.3,-0.17,0.01,-10.9324,-82.9938,149.2948,175,75
2026-05-09 15:09:09.740,5,-0.22,-0.22,-0.05,13.4976,-108.2438,181.1348,175,75
2026-05-09 15:09:09.759,5,0.13,-0.3,-0.1,51.997600000000006,-133.4138,233.4048,175,75
2026-05-09 15:09:09.774,5,0.61,-0.07,0.04,67.0276,-103.32379999999999,250.2748,175,75
2026-05-09 15:09:09.786,5,1.15,-0.09,-0.06,69.1276,-61.2238,250.2748,175,75
2026-05-09 15:09:09.832,5,-0.14,-0.1,0.24,22.5076,87.64620000000001,22.9848,175,75
2026-05-09 15:09:09.876,5,0.15,0.03,0.71,-0.7524,43.366200000000006,-175.1352,175,75
2026-05-09 15:09:09.876,5,0.57,0.15,0.95,-12.4224,12.046199999999999,-189.9152,175,75
2026-05-09 15:09:10.001,5,-0.64,-0.34,1.74,-31.972399999999997,-9.683800000000002,12.0148,175,75
2026-05-09 15:09:10.019,5,-0.22,-0.24,1.33,-11.4124,-53.9238,73.5048,175,75
2026-05-09 15:09:10.129,5,-1.14,-0.08,1.63,-7.962400000000001,107.8062,37.9948,175,75
2026-05-09 15:09:10.175,5,-1.11,-0.45,1.69,29.1176,-81.5138,126.4148,175,75
2026-05-09 15:09:10.259,5,-0.56,-0.01,1.17,67.58760000000001,-129.1338,53.014799999999994,175,75
2026-05-09 15:09:10.259,5,-0.17,-0.07,1.05,66.80760000000001,-165.4738,7.3748000000000005,175,75
2026-05-09 15:09:10.281,5,0.18,-0.0,0.73,47.1576,-106.5138,-96.4752,175,75
2026-05-09 15:09:10.290,5,0.08,0.02,0.63,43.967600000000004,-78.3038,-98.4952,175,75
2026-05-09 15:09:10.308,5,-0.08,0.07,0.52,39.147600000000004,-68.0838,-93.9952,175,75
2026-05-09 15:09:10.329,5,-0.19,0.12,0.35,23.6276,-99.7838,-69.5752,175,75
2026-05-09 15:09:10.342,5,-0.09,0.08,0.21,3.9276,-148.99380000000002,-20.4652,175,75
2026-05-09 15:09:10.362,5,0.01,-0.01,0.02,-6.1624,-180.2338,34.2348,175,75
2026-05-09 15:09:10.404,5,0.18,-0.04,-0.26,-9.2124,-198.4738,90.6948,175,75
2026-05-09 15:09:10.483,5,0.37,-0.0,-0.36,28.7076,-112.1238,177.5448,175,75
2026-05-09 15:09:10.483,5,0.26,-0.06,-0.24,19.3976,-65.3738,153.3248,175,75
2026-05-09 15:09:10.494,5,0.14,-0.06,-0.11,10.6776,-10.0838,109.0948,175,75
2026-05-09 15:09:10.500,5,-0.01,-0.01,0.03,0.5176,48.366200000000006,47.254799999999996,175,75
2026-05-09 15:09:10.512,5,-0.11,0.03,0.18,-10.112400000000001,106.28620000000001,-26.5152,175,75
2026-05-09 15:09:10.524,5,0.03,0.14,0.36,-21.8624,219.94619999999998,-157.8852,175,75
2026-05-09 15:09:10.541,5,0.44,0.26,0.68,-54.97239999999999,250.15619999999998,-249.99519999999998,175,75
2026-05-09 15:09:10.551,5,1.25,0.5,1.02,-70.2824,250.15619999999998,-226.9452,175,75
2026-05-09 15:09:10.562,5,2.0,1.5,2.0,-110.7924,250.15619999999998,76.7048,175,75
2026-05-09 15:09:10.570,5,1.77,1.25,2.0,-134.1424,250.15619999999998,238.1148,175,75
2026-05-09 15:09:10.592,5,-1.95,-0.0,1.67,-184.7224,250.15619999999998,45.1348,175,75
2026-05-09 15:09:10.592,5,-2.0,-0.42,0.87,-197.5424,233.2462,44.7348,175,75
2026-05-09 15:09:10.603,5,-2.0,-0.75,0.46,-179.26239999999999,98.9762,76.4248,175,75
2026-05-09 15:09:10.603,5,-2.0,-0.98,0.57,-131.5424,-14.4238,145.8748,175,75
2026-05-09 15:09:10.613,5,-1.98,-0.99,1.19,-87.05239999999999,-67.5238,211.8748,175,75
2026-05-09 15:09:10.628,5,-2.0,-0.92,1.72,-70.19239999999999,-93.6938,234.6148,175,75
2026-05-09 15:09:10.640,5,-1.72,-1.0,1.92,-2.9324000000000003,-250.1138,92.54480000000001,175,75
2026-05-09 15:09:10.657,5,-1.13,-0.88,1.53,28.8576,-250.1138,28.4548,175,75
2026-05-09 15:09:10.681,5,-0.3,-0.2,0.74,92.2776,-250.1138,-53.8252,175,75
2026-05-09 15:09:10.698,5,0.01,0.1,0.8,91.2876,-226.40380000000002,-83.0252,175,75
2026-05-09 15:09:10.712,5,0.42,0.34,0.88,75.2676,-199.5338,-63.9352,175,75
2026-05-09 15:09:10.743,5,0.74,0.54,0.94,54.257600000000004,-195.7938,112.3348,175,75
2026-05-09 15:09:10.766,5,0.6,0.1,0.61,28.9576,-104.9138,179.69480000000001,175,75
2026-05-09 15:09:10.766,5,0.52,-0.05,0.47,31.9476,-57.4638,212.0748,175,75
2026-05-09 15:09:10.777,5,0.42,0.0,0.47,35.0976,-14.5038,238.9248,175,75
2026-05-09 15:09:10.777,5,0.38,-0.01,0.49,33.357600000000005,23.8262,250.2748,175,75
2026-05-09 15:09:10.791,5,0.33,0.05,0.56,27.0776,44.7562,250.2748,175,75
2026-05-09 15:09:10.791,5,0.25,0.05,0.7,14.5776,21.0062,250.2748,175,75
2026-05-09 15:09:10.823,5,0.19,-0.4,0.69,-35.3324,-97.46379999999999,250.2748,175,75
2026-05-09 15:09:10.838,5,0.15,-0.65,0.55,-30.762400000000003,-98.5938,250.2748,175,75
2026-05-09 15:09:10.850,5,0.14,-0.74,0.64,3.8376,-58.6438,250.2748,175,75
2026-05-09 15:09:10.866,5,0.15,-0.81,0.76,19.9976,-21.823800000000002,203.19480000000001,175,75
2026-05-09 15:09:10.915,5,0.26,-0.8,1.0,25.8576,26.3962,131.6548,175,75
2026-05-09 15:09:10.915,5,0.34,-0.79,1.33,20.4876,89.4662,50.0648,175,75
2026-05-09 15:09:10.943,5,0.4,-0.95,2.0,27.8076,250.15619999999998,-158.4052,175,75
2026-05-09 15:09:10.943,5,-0.52,-0.47,2.0,46.3076,250.15619999999998,-249.99519999999998,175,75
2026-05-09 15:09:10.943,5,-0.84,0.1,1.94,29.1176,250.15619999999998,-249.99519999999998,175,75
2026-05-09 15:09:10.954,5,-0.92,0.28,1.74,-6.8324,250.15619999999998,-249.99519999999998,175,75
2026-05-09 15:09:10.967,5,-0.34,0.54,1.73,-36.5524,128.5562,-249.99519999999998,175,75
2026-05-09 15:09:10.983,5,-0.36,0.38,1.56,-80.3924,27.8762,39.30479999999999,175,75
2026-05-09 15:09:11.006,5,-0.7,-0.09,1.45,-99.66239999999999,1.5362,241.4648,175,75
2026-05-09 15:09:11.016,5,-0.83,-0.33,1.46,-97.2224,-27.503800000000002,250.2748,175,75
2026-05-09 15:09:11.039,5,-1.02,-0.88,1.34,-60.712399999999995,-221.09380000000002,215.8748,175,75
2026-05-09 15:09:11.047,5,-0.6,-0.94,1.03,-38.2324,-250.1138,173.0548,175,75
2026-05-09 15:09:11.063,5,-0.17,-0.89,0.74,-9.5024,-250.1138,163.7948,175,75
2026-05-09 15:09:11.063,5,0.1,-0.76,0.54,20.9176,-250.1138,172.9948,175,75
2026-05-09 15:09:11.078,5,0.24,-0.57,0.4,51.7976,-250.1138,194.3448,175,75
2026-05-09 15:09:11.099,5,0.0,-0.18,0.18,67.08760000000001,-250.1138,184.6248,175,75
2026-05-09 15:09:11.099,5,0.81,-0.35,-0.06,54.3776,-250.1138,170.9048,175,75
2026-05-09 15:09:11.113,5,1.16,0.0,-0.35,22.9476,-250.1138,88.7748,175,75
2026-05-09 15:09:11.127,5,1.43,-0.14,-0.81,-8.9924,-146.4138,-20.2052,175,75
2026-05-09 15:09:11.154,5,-0.44,-0.03,-0.42,7.7976,-63.2838,-117.6352,175,75
2026-05-09 15:09:11.165,5,-0.54,0.08,-0.23,1.4276,-91.54379999999999,-147.30519999999999,175,75
2026-05-09 15:09:11.204,5,-0.13,0.07,-0.07,-23.4524,-104.82379999999999,-173.4552,175,75
2026-05-09 15:09:11.204,5,0.19,0.1,-0.03,-31.3924,-78.0838,-164.7252,175,75
2026-05-09 15:09:11.214,5,0.56,0.2,0.01,-39.172399999999996,-25.1338,-150.99519999999998,175,75
2026-05-09 15:09:11.225,5,1.16,0.41,0.14,-49.932399999999994,60.5262,-120.12519999999999,175,75
2026-05-09 15:09:11.225,5,2.0,0.63,0.36,-63.19239999999999,182.5562,-36.37520000000001,175,75
2026-05-09 15:09:11.264,5,2.0,0.98,2.0,-231.3824,250.15619999999998,250.2748,175,75
2026-05-09 15:09:11.275,5,2.0,-1.49,2.0,-171.0024,250.15619999999998,250.2748,175,75
2026-05-09 15:09:11.275,5,-1.46,-1.73,2.0,-125.8624,250.15619999999998,200.3248,175,75
2026-05-09 15:09:11.297,5,-2.0,-1.29,-0.14,18.0776,250.15619999999998,92.1648,175,75
2026-05-09 15:09:11.311,5,-2.0,-1.24,-0.33,108.41760000000001,197.3262,18.0848,175,75
2026-05-09 15:09:11.328,5,-2.0,-1.15,-0.21,200.6576,22.4362,-41.6852,175,75
2026-05-09 15:09:11.339,5,-2.0,-0.95,0.16,250.6376,-100.4538,-74.1652,175,75
2026-05-09 15:09:11.350,5,-0.55,-0.4,2.0,208.6476,-94.6438,-57.0352,175,75
2026-05-09 15:09:11.360,5,-1.46,-0.53,2.0,84.7776,11.8662,-72.20519999999999,175,75
2026-05-09 15:09:11.360,5,-1.81,-0.33,2.0,117.7776,-192.2538,-141.4852,175,75
2026-05-09 15:09:11.371,5,-0.67,0.06,1.82,127.55760000000001,-250.1138,-142.6152,175,75
2026-05-09 15:09:11.383,5,-0.51,0.17,1.17,108.7776,-250.1138,-150.3252,175,75
2026-05-09 15:09:11.454,5,1.47,1.04,0.18,20.1376,-139.2638,31.6948,175,75
2026-05-09 15:09:11.465,5,0.93,0.76,0.05,-6.252400000000001,-72.07379999999999,93.8348,175,75
2026-05-09 15:09:11.495,5,0.17,-0.17,0.14,-15.362400000000001,23.246199999999998,162.00480000000002,175,75
2026-05-09 15:09:11.495,5,0.37,-0.47,0.14,-11.9524,55.366200000000006,206.9948,175,75
2026-05-09 15:09:11.520,5,0.63,-0.22,0.33,10.6076,162.1162,250.2748,175,75
2026-05-09 15:09:11.520,5,0.83,-0.19,0.47,22.4576,242.7762,250.2748,175,75
2026-05-09 15:09:11.532,5,0.97,-0.23,0.87,36.357600000000005,250.15619999999998,250.2748,175,75
2026-05-09 15:09:11.540,5,1.69,-0.93,2.0,25.4176,250.15619999999998,250.2748,175,75
2026-05-09 15:09:11.551,5,-0.44,-1.06,2.0,22.1576,250.15619999999998,73.4748,175,75
2026-05-09 15:09:11.575,5,-0.95,-0.58,1.88,29.5776,250.15619999999998,-115.81519999999999,175,75
2026-05-09 15:09:11.591,5,-1.64,-0.18,0.64,25.8876,219.1762,-249.99519999999998,175,75
2026-05-09 15:09:11.593,5,-1.92,0.02,0.64,14.5276,133.5162,-249.99519999999998,175,75
2026-05-09 15:09:11.610,5,-1.5,0.09,1.13,-12.6724,39.616200000000006,-249.99519999999998,175,75
2026-05-09 15:09:11.623,5,-0.26,0.05,1.75,-7.2324,-108.5838,-169.6052,175,75
2026-05-09 15:09:11.637,5,-0.01,0.19,1.82,16.4276,-175.4738,4.0148,175,75
2026-05-09 15:09:11.648,5,-0.17,0.29,1.62,0.3475999999999999,-206.6638,103.9848,175,75
2026-05-09 15:09:11.663,5,-0.06,0.13,1.33,-24.0324,-202.49380000000002,143.1248,175,75
2026-05-09 15:09:11.674,5,0.24,-0.1,1.16,-38.1524,-171.6638,174.5148,175,75
2026-05-09 15:09:11.684,5,0.67,-0.38,0.89,-32.8124,-115.3438,250.2748,175,75
2026-05-09 15:09:11.694,5,0.17,-0.31,1.0,-20.5524,-127.8138,250.2748,175,75
2026-05-09 15:09:11.706,5,0.11,-0.32,1.1,-22.2924,-168.31380000000001,239.3148,175,75
2026-05-09 15:09:11.730,5,0.18,-0.44,0.63,-22.9924,-37.913799999999995,91.8048,175,75
2026-05-09 15:09:11.739,5,-0.0,-0.44,0.59,-13.7824,16.5462,39.80479999999999,175,75
2026-05-09 15:09:11.749,5,-0.23,-0.42,0.65,-10.4524,58.8262,-19.8852,175,75
2026-05-09 15:09:11.763,5,-0.45,-0.45,0.76,-10.7224,73.5962,-93.1452,175,75
2026-05-09 15:09:11.779,5,-0.46,-0.49,0.78,-4.2724,63.1762,-158.1252,175,75
2026-05-09 15:09:11.788,5,-0.33,-0.38,0.72,11.3576,45.766200000000005,-211.2252,175,75
2026-05-09 15:09:11.788,5,-0.25,-0.17,0.67,17.6576,32.3262,-239.7652,175,75
2026-05-09 15:09:11.811,5,-0.16,0.11,0.53,13.5676,-26.1838,-249.99519999999998,175,75
2026-05-09 15:09:11.833,5,-0.03,0.23,0.49,21.4376,-83.1238,-210.4152,175,75
2026-05-09 15:09:11.881,5,0.06,0.24,0.51,34.8676,-114.10379999999999,-154.6852,175,75
2026-05-09 15:09:11.881,5,0.11,0.2,0.47,35.8776,-102.1238,-135.4252,175,75
2026-05-09 15:09:11.889,5,0.18,0.15,0.43,40.967600000000004,-85.1438,-105.70519999999999,175,75
2026-05-09 15:09:11.905,5,0.17,0.16,0.41,47.5176,-66.9238,-73.9052,175,75
2026-05-09 15:09:11.905,5,0.14,0.19,0.4,52.5476,-48.123799999999996,-46.8952,175,75
2026-05-09 15:09:11.916,5,0.1,0.22,0.41,52.717600000000004,-27.9238,-24.3852,175,75
2026-05-09 15:09:11.918,5,0.09,0.22,0.38,49.387600000000006,-9.953800000000001,-2.2952,175,75
2026-05-09 15:09:11.943,5,1.12,0.81,1.04,14.8676,-57.2538,250.2748,175,75
2026-05-09 15:09:11.950,5,0.94,0.9,1.15,-7.5724,-57.953799999999994,250.2748,175,75
2026-05-09 15:09:11.961,5,0.72,0.54,0.97,-19.1524,-11.683800000000002,250.2748,175,75
2026-05-09 15:09:11.966,5,0.48,0.15,0.91,-4.9124,26.7262,250.2748,175,75
2026-05-09 15:09:11.994,5,0.25,-0.2,1.44,20.2576,35.2562,197.0648,175,75
2026-05-09 15:09:11.999,5,0.7,-0.49,2.0,15.387599999999999,42.406200000000005,84.57480000000001,175,75
2026-05-09 15:09:12.023,5,0.19,-0.9,2.0,-61.4024,178.6162,-3.5152,175,75
2026-05-09 15:09:12.023,5,-0.08,-0.96,1.53,-47.672399999999996,182.97619999999998,-10.3552,175,75
2026-05-09 15:09:12.034,5,-0.43,-0.93,1.25,-19.3924,172.5562,-10.8652,175,75
2026-05-09 15:09:12.037,5,-0.88,-0.89,1.36,20.3476,127.7962,-33.87520000000001,175,75
2026-05-09 15:09:12.054,5,-0.93,-0.19,1.96,80.4076,-8.5638,-154.8252,175,75
2026-05-09 15:09:12.069,5,-0.57,0.16,2.0,82.4376,-71.7338,-180.6652,175,75
2026-05-09 15:09:12.082,5,-0.09,0.4,2.0,70.7076,-128.9538,-145.1652,175,75
2026-05-09 15:09:12.082,5,0.35,0.63,2.0,47.9476,-161.2838,-73.0452,175,75
2026-05-09 15:09:12.095,5,0.61,0.51,1.9,20.2076,-160.46380000000002,11.9048,175,75
2026-05-09 15:09:12.110,5,0.65,-0.13,1.67,-11.7424,-135.05380000000002,125.1948,175,75
2026-05-09 15:09:12.128,5,0.7,-0.44,1.59,-16.0024,-130.84380000000002,145.2448,175,75
2026-05-09 15:09:12.139,5,0.78,-0.78,1.36,-9.8824,-126.1338,156.1048,175,75
2026-05-09 15:09:12.152,5,0.74,-0.79,1.04,36.647600000000004,-95.5038,152.9548,175,75
2026-05-09 15:09:12.195,5,0.55,-0.47,0.82,32.4076,32.5962,-70.0552,175,75
2026-05-09 15:09:12.195,5,0.51,-0.36,0.77,31.9976,78.9762,-150.3252,175,75
2026-05-09 15:09:12.209,5,0.46,-0.21,0.77,35.897600000000004,115.8562,-214.5452,175,75
2026-05-09 15:09:12.209,5,0.39,-0.01,0.81,37.707600000000006,139.28619999999998,-249.99519999999998,175,75
2026-05-09 15:09:12.232,5,0.34,0.24,0.86,33.457600000000006,144.5562,-249.99519999999998,175,75
2026-05-09 15:09:12.243,5,0.32,0.46,0.86,24.4676,127.6062,-249.99519999999998,175,75
2026-05-09 15:09:12.243,5,0.29,0.68,0.8,16.9476,87.4962,-249.99519999999998,175,75
2026-05-09 15:09:12.254,5,0.14,0.39,0.71,11.6776,48.016200000000005,-249.99519999999998,175,75
2026-05-09 15:09:12.264,5,-0.09,0.71,0.75,0.48760000000000003,19.496199999999998,-243.6452,175,75
2026-05-09 15:09:12.275,5,-0.16,0.62,0.7,-21.3524,-1.7638,-220.9852,175,75
2026-05-09 15:09:12.337,5,-0.17,0.52,0.62,-43.9024,-17.073800000000002,-177.3552,175,75
2026-05-09 15:09:12.337,5,-0.17,0.36,0.51,-57.8724,-23.1938,-139.4152,175,75
2026-05-09 15:09:12.342,5,-0.22,0.24,0.41,-57.9124,-35.0038,-82.9752,175,75
2026-05-09 15:09:12.369,5,-0.22,0.03,0.15,-6.622400000000001,-69.4438,91.9148,175,75
2026-05-09 15:09:12.380,5,-0.15,0.0,0.11,18.8076,-72.3438,142.1148,175,75
2026-05-09 15:09:12.391,5,0.04,0.03,0.15,39.0576,-66.8938,189.0448,175,75
2026-05-09 15:09:12.391,5,0.21,0.05,0.22,45.8376,-51.6738,234.6548,175,75
2026-05-09 15:09:12.401,5,0.31,0.08,0.24,44.037600000000005,-31.573800000000002,250.2748,175,75
2026-05-09 15:09:12.419,5,0.49,0.04,0.23,39.4176,-11.7338,250.2748,175,75
2026-05-09 15:09:12.419,5,0.68,0.11,0.16,38.6576,9.046199999999999,250.2748,175,75
2026-05-09 15:09:12.487,5,1.0,-0.07,-0.06,62.6976,38.946200000000005,250.2748,175,75
2026-05-09 15:09:12.487,5,0.75,-0.07,0.0,73.5076,29.8062,250.2748,175,75
2026-05-09 15:09:12.487,5,0.28,-0.18,0.09,57.637600000000006,4.9762,250.2748,175,75
2026-05-09 15:09:12.536,5,-0.64,-0.4,0.14,18.0576,-18.4038,-10.7352,175,75
2026-05-09 15:09:12.548,5,0.29,-0.41,0.44,-6.7424,-40.053799999999995,-209.5052,175,75
2026-05-09 15:09:12.558,5,0.81,-0.25,0.6,-17.8724,-40.633799999999994,-249.99519999999998,175,75
2026-05-09 15:09:12.558,5,1.71,0.1,1.21,-40.362399999999994,-11.793800000000001,-249.99519999999998,175,75
2026-05-09 15:09:12.569,5,2.0,0.37,1.88,-72.3924,36.5362,-183.4852,175,75
2026-05-09 15:09:12.569,5,2.0,0.8,2.0,-138.9224,153.0462,-91.8052,175,75
2026-05-09 15:09:12.580,5,2.0,1.15,2.0,-214.2924,250.15619999999998,-87.73519999999999,175,75
2026-05-09 15:09:12.580,5,0.83,-0.65,2.0,-72.27239999999999,250.15619999999998,-49.9052,175,75
2026-05-09 15:09:12.592,5,-0.66,-0.24,1.09,-31.472399999999997,250.15619999999998,39.1648,175,75
2026-05-09 15:09:12.610,5,-1.31,-0.28,0.66,-26.2224,250.15619999999998,56.004799999999996,175,75
2026-05-09 15:09:12.610,5,-1.78,-0.22,0.62,-31.612399999999997,250.15619999999998,-4.6752,175,75
2026-05-09 15:09:12.621,5,-1.51,-0.39,0.61,-38.3124,186.3262,-26.1052,175,75
2026-05-09 15:09:12.635,5,-0.72,-0.75,1.86,-38.712399999999995,89.95620000000001,39.8448,175,75
2026-05-09 15:09:12.644,5,-0.92,-0.93,2.0,17.8176,67.3362,13.5048,175,75
2026-05-09 15:09:12.648,5,-1.01,-0.52,2.0,54.1876,9.8262,-31.5452,175,75
2026-05-09 15:09:12.660,5,-0.79,-0.16,2.0,63.537600000000005,-8.9738,-77.2252,175,75
2026-05-09 15:09:12.671,5,-0.68,0.04,1.76,56.2976,-8.1338,-86.59519999999999,175,75
2026-05-09 15:09:12.671,5,-0.68,0.11,1.49,42.677600000000005,-9.3238,-75.20519999999999,175,75
2026-05-09 15:09:12.684,5,-0.66,0.12,1.35,30.7076,-8.6738,-55.19520000000001,175,75
2026-05-09 15:09:12.699,5,-0.32,0.17,1.76,22.4476,31.2062,28.3448,175,75
2026-05-09 15:09:12.716,5,-0.35,0.14,1.96,15.0976,39.9162,74.65480000000001,175,75
2026-05-09 15:09:12.747,5,-0.86,-0.46,1.68,0.9176,-4.0438,149.8148,175,75
2026-05-09 15:09:12.756,5,-0.96,-0.71,1.48,19.2976,-31.9238,141.25480000000002,175,75
2026-05-09 15:09:12.758,5,-0.96,-0.75,1.44,40.0176,-51.133799999999994,116.0948,175,75
2026-05-09 15:09:12.774,5,-0.9,-0.71,1.42,58.6276,-63.2238,77.9448,175,75
2026-05-09 15:09:12.832,5,-0.75,-0.43,1.39,74.7976,-79.60379999999999,-14.5452,175,75
2026-05-09 15:09:12.832,5,-0.64,-0.23,1.33,68.9376,-98.9238,-62.5052,175,75
2026-05-09 15:09:12.897,5,-0.14,0.11,1.02,37.707600000000006,-125.60379999999999,-161.4652,175,75
2026-05-09 15:09:12.909,5,-0.02,0.25,0.94,29.677599999999998,-116.7338,-174.2552,175,75
2026-05-09 15:09:12.909,5,-0.0,0.3,0.89,18.9676,-107.96379999999999,-175.8152,175,75
2026-05-09 15:09:12.909,5,-0.05,0.32,0.78,8.2676,-104.43379999999999,-169.6852,175,75
2026-05-09 15:09:12.916,5,-0.14,0.32,0.68,-0.9223999999999999,-109.60379999999999,-160.9852,175,75
2026-05-09 15:09:12.925,5,-0.23,0.3,0.47,-13.7624,-141.5738,-138.0452,175,75
2026-05-09 15:09:12.939,5,-0.18,0.26,0.39,-17.7424,-163.6638,-120.34519999999999,175,75
2026-05-09 15:09:12.943,5,-0.13,0.2,0.28,-21.1024,-185.21380000000002,-93.4752,175,75
2026-05-09 15:09:12.953,5,-0.05,0.14,0.19,-21.4324,-201.99380000000002,-61.3352,175,75
2026-05-09 15:09:12.957,5,0.03,0.08,0.1,-20.1624,-214.1638,-24.9052,175,75
2026-05-09 15:09:12.982,5,0.1,-0.02,-0.13,-13.5724,-228.33380000000002,49.9148,175,75
2026-05-09 15:09:12.982,5,0.06,-0.04,-0.23,-8.1224,-235.2838,78.1948,175,75
2026-05-09 15:09:12.990,5,0.28,-0.31,-0.33,3.9875999999999996,-232.43380000000002,97.8348,175,75
2026-05-09 15:09:13.002,5,-0.0,0.03,-0.35,22.2376,-229.59380000000002,121.1948,175,75
2026-05-09 15:09:13.014,5,0.15,0.01,-0.28,30.6476,-218.8538,124.7048,175,75
2026-05-09 15:09:13.014,5,0.32,0.03,-0.21,30.6076,-183.5738,117.0348,175,75
2026-05-09 15:09:13.014,5,0.38,-0.0,-0.13,22.7776,-129.40380000000002,101.3648,175,75
2026-05-09 15:09:13.033,5,0.28,-0.02,-0.08,12.4176,-65.85379999999999,77.2348,175,75
2026-05-09 15:09:13.050,5,-0.0,-0.01,0.03,-7.2224,44.4562,19.0648,175,75
2026-05-09 15:09:13.050,5,-0.06,0.09,0.05,-20.1524,91.2262,-25.9352,175,75
2026-05-09 15:09:13.078,5,0.03,0.27,0.17,-47.742399999999996,196.90619999999998,-148.1252,175,75
2026-05-09 15:09:13.078,5,0.21,0.19,0.26,-55.5124,250.15619999999998,-203.49519999999998,175,75
2026-05-09 15:09:13.108,5,1.06,0.18,0.41,-65.52239999999999,250.15619999999998,-191.8352,175,75
2026-05-09 15:09:13.120,5,1.73,0.39,0.86,-80.1724,250.15619999999998,-14.6152,175,75
2026-05-09 15:09:13.120,5,1.8,0.83,1.47,-114.7124,250.15619999999998,219.5248,175,75
2026-05-09 15:09:13.134,5,1.33,0.9,1.67,-158.95239999999998,250.15619999999998,250.2748,175,75
2026-05-09 15:09:13.148,5,2.0,0.78,2.0,-219.1524,250.15619999999998,250.2748,175,75
2026-05-09 15:09:13.161,5,-2.0,-0.9,2.0,-191.3224,250.15619999999998,218.8148,175,75
2026-05-09 15:09:13.171,5,-2.0,-1.1,1.11,-149.6724,250.15619999999998,94.6748,175,75
2026-05-09 15:09:13.198,5,-2.0,-1.17,0.22,-32.4424,91.0062,-74.7852,175,75
2026-05-09 15:09:13.210,5,-2.0,-1.25,0.78,37.1176,-36.8138,-101.2552,175,75
2026-05-09 15:09:13.210,5,-2.0,-1.02,1.63,84.6876,-89.85379999999999,-119.2852,175,75
2026-05-09 15:09:13.221,5,-2.0,-0.8,2.0,106.8776,-112.0838,-149.7552,175,75
2026-05-09 15:09:13.233,5,-2.0,-0.41,1.89,140.3876,-250.1138,-196.0352,175,75
2026-05-09 15:09:13.256,5,-1.41,0.17,0.98,159.3876,-250.1138,-237.80519999999999,175,75
2026-05-09 15:09:13.266,5,-0.76,0.29,0.56,158.48760000000001,-250.1138,-226.5652,175,75
2026-05-09 15:09:13.279,5,-0.06,0.44,0.44,158.1576,-250.1138,-180.1252,175,75
2026-05-09 15:09:13.279,5,0.57,0.58,0.43,161.9376,-250.1138,-102.7152,175,75
2026-05-09 15:09:13.290,5,1.2,0.71,0.4,180.7576,-250.1138,3.7048,175,75
2026-05-09 15:09:13.312,5,2.0,1.13,-0.23,181.76760000000002,-250.1138,250.2748,175,75
2026-05-09 15:09:13.320,5,2.0,1.4,-0.61,163.4776,-89.3438,250.2748,175,75
2026-05-09 15:09:13.343,5,0.45,0.02,0.07,89.1276,107.9462,250.2748,175,75
2026-05-09 15:09:13.353,5,0.15,-0.79,-0.58,87.47760000000001,126.3762,250.2748,175,75
2026-05-09 15:09:13.368,5,0.03,-0.37,-0.07,94.8476,141.3962,250.2748,175,75
2026-05-09 15:09:13.379,5,-0.19,-0.36,0.14,101.1576,170.16619999999998,250.2748,175,75
2026-05-09 15:09:13.379,5,-0.51,-0.41,0.41,94.4876,198.2062,250.2748,175,75
2026-05-09 15:09:13.390,5,-1.17,-0.87,1.18,64.3976,175.1162,195.0348,175,75
2026-05-09 15:09:13.403,5,-0.67,-1.39,1.86,30.0776,114.20620000000001,-54.87520000000001,175,75
2026-05-09 15:09:13.413,5,-0.01,-0.9,1.56,-13.6524,145.41619999999998,-217.49519999999998,175,75
2026-05-09 15:09:13.432,5,0.05,-1.02,2.0,152.5576,250.15619999999998,-249.99519999999998,175,75
2026-05-09 15:09:13.447,5,-1.17,0.33,2.0,108.2976,250.15619999999998,-249.99519999999998,175,75
2026-05-09 15:09:13.458,5,-1.72,0.91,2.0,21.6076,170.4662,-249.99519999999998,175,75
2026-05-09 15:09:13.458,5,-1.68,0.58,1.56,-56.9424,47.476200000000006,-249.99519999999998,175,75
2026-05-09 15:09:13.480,5,-0.73,0.05,1.16,-104.0624,-70.7038,-249.99519999999998,175,75
2026-05-09 15:09:13.492,5,-0.19,-0.06,1.31,-75.6724,-73.4038,-249.99519999999998,175,75
2026-05-09 15:09:13.504,5,0.14,0.08,1.55,-26.2524,-88.2738,-222.0452,175,75
2026-05-09 15:09:13.528,5,-0.01,0.84,1.98,25.517599999999998,-118.71379999999999,14.9248,175,75
2026-05-09 15:09:13.539,5,-0.2,0.93,1.72,-7.9323999999999995,-113.4538,33.514799999999994,175,75
2026-05-09 15:09:13.539,5,-0.04,0.72,1.4,-32.4824,-94.46379999999999,32.5648,175,75
2026-05-09 15:09:13.554,5,0.26,0.51,1.21,-37.862399999999994,-69.07379999999999,59.334799999999994,175,75
2026-05-09 15:09:13.571,5,0.38,0.39,1.14,-36.252399999999994,-36.523799999999994,105.6448,175,75
2026-05-09 15:09:13.571,5,0.31,0.32,1.11,-36.962399999999995,-4.7938,149.4148,175,75
2026-05-09 15:09:13.578,5,0.21,0.25,1.11,-43.322399999999995,18.6662,185.3548,175,75
2026-05-09 15:09:13.591,5,0.13,0.15,1.16,-53.6624,32.3862,209.6748,175,75
2026-05-09 15:09:13.602,5,-0.01,0.02,1.24,-59.242399999999996,27.5262,232.3048,175,75
2026-05-09 15:09:13.612,5,-0.1,-0.15,1.25,-55.9124,1.5462,243.9648,175,75
2026-05-09 15:09:13.619,5,-0.36,-0.4,1.16,-40.72239999999999,-49.983799999999995,232.4148,175,75
2026-05-09 15:09:13.634,5,-0.45,-0.61,0.94,-16.6924,-117.2838,198.0348,175,75
2026-05-09 15:09:13.649,5,-0.22,-0.63,0.67,6.3076,-158.0438,173.5148,175,75
2026-05-09 15:09:13.649,5,-0.03,-0.54,0.47,30.4076,-168.06380000000001,167.44480000000001,175,75
2026-05-09 15:09:13.660,5,-0.02,-0.41,0.33,48.0476,-170.0138,165.4248,175,75
2026-05-09 15:09:13.670,5,-0.01,-0.27,0.22,53.8676,-181.7938,157.9648,175,75
2026-05-09 15:09:13.684,5,0.06,-0.18,0.07,48.387600000000006,-201.1438,137.3548,175,75
2026-05-09 15:09:13.696,5,0.22,0.12,-0.22,27.5076,-192.4738,95.0348,175,75
2026-05-09 15:09:13.707,5,0.68,-0.1,-0.39,8.0276,-147.68380000000002,37.474799999999995,175,75
2026-05-09 15:09:13.718,5,0.69,-0.16,-0.73,-14.1224,-85.7638,-21.5352,175,75
2026-05-09 15:09:13.729,5,-0.11,-0.08,-0.62,-16.0924,-49.5038,-90.6452,175,75
2026-05-09 15:09:13.744,5,-0.36,0.04,-0.46,-29.5424,-70.6538,-128.1252,175,75
2026-05-09 15:09:13.754,5,-0.24,0.08,-0.23,-46.1924,-84.4538,-159.5652,175,75
2026-05-09 15:09:13.768,5,0.04,0.04,-0.08,-57.4124,-71.3638,-176.7652,175,75
2026-05-09 15:09:13.777,5,0.44,-0.02,0.02,-59.042399999999994,-25.4038,-179.9652,175,75
2026-05-09 15:09:13.788,5,0.71,-0.0,0.11,-55.712399999999995,38.7862,-175.1252,175,75
2026-05-09 15:09:13.799,5,1.02,0.07,0.31,-50.862399999999994,123.5762,-168.9152,175,75
2026-05-09 15:09:13.809,5,1.49,0.05,0.72,-43.4824,202.2662,-155.3552,175,75
2026-05-09 15:09:13.809,5,2.0,0.5,1.78,-74.7524,243.8062,-44.0852,175,75
2026-05-09 15:09:13.821,5,2.0,0.95,2.0,-140.3024,250.15619999999998,136.0548,175,75
2026-05-09 15:09:13.839,5,2.0,0.5,2.0,-197.5824,250.15619999999998,142.7048,175,75
2026-05-09 15:09:13.839,5,0.36,-1.09,2.0,-67.6724,250.15619999999998,-12.4252,175,75
2026-05-09 15:09:13.848,5,-1.63,0.59,1.71,-31.0324,250.15619999999998,-41.6152,175,75
2026-05-09 15:09:13.869,5,-1.78,-0.46,0.5,0.4376,250.15619999999998,-55.8552,175,75
2026-05-09 15:09:13.880,5,-2.0,-0.65,0.13,50.1176,194.75619999999998,-143.9452,175,75
2026-05-09 15:09:13.902,5,-1.9,-0.19,1.71,14.307599999999999,3.8162000000000003,-152.1252,175,75
2026-05-09 15:09:13.916,5,-1.6,-0.63,1.58,49.9476,-27.3138,-115.6452,175,75
2026-05-09 15:09:13.922,5,-1.23,-0.28,1.87,100.5276,-173.30380000000002,-12.0552,175,75
2026-05-09 15:09:13.933,5,-0.99,0.03,1.64,116.8876,-250.1138,48.254799999999996,175,75
2026-05-09 15:09:13.942,5,-0.85,0.16,1.11,108.5676,-250.1138,45.12479999999999,175,75
2026-05-09 15:09:13.954,5,-0.48,0.2,0.72,96.0376,-250.1138,27.5048,175,75
2026-05-09 15:09:13.968,5,-0.02,0.19,0.55,82.7476,-250.1138,21.5348,175,75
2026-05-09 15:09:13.979,5,0.36,0.2,0.42,72.91760000000001,-250.1138,47.434799999999996,175,75
2026-05-09 15:09:13.979,5,0.72,0.22,0.32,67.2676,-250.1138,98.1148,175,75
2026-05-09 15:09:14.008,5,1.17,0.21,0.15,54.5576,-229.77380000000002,165.2448,175,75
2026-05-09 15:09:14.019,5,1.39,0.21,0.18,43.857600000000005,-148.1138,178.75480000000002,175,75
2026-05-09 15:09:14.019,5,1.39,0.14,0.24,32.3676,-37.0638,181.9948,175,75
2026-05-09 15:09:14.030,5,1.19,0.01,0.39,21.1376,66.3462,168.5348,175,75
2026-05-09 15:09:14.040,5,0.96,-0.07,0.57,13.7776,156.81619999999998,157.9848,175,75
2026-05-09 15:09:14.053,5,0.86,-0.13,0.78,6.1076,244.0562,152.4048,175,75
2026-05-09 15:09:14.061,5,0.84,-0.2,0.97,-0.5124,250.15619999999998,147.6748,175,75
2026-05-09 15:09:14.072,5,0.51,-0.58,1.5,-0.7424000000000002,250.15619999999998,123.9948,175,75
2026-05-09 15:09:14.083,5,0.04,-0.94,2.0,-22.0624,250.15619999999998,63.834799999999994,175,75
2026-05-09 15:09:14.096,5,-1.06,-1.01,1.92,-13.0724,250.15619999999998,-39.0352,175,75
2026-05-09 15:09:14.106,5,-1.49,-0.77,1.2,3.3175999999999997,250.15619999999998,-119.6652,175,75
2026-05-09 15:09:14.118,5,-1.44,-0.64,0.91,27.2576,247.37619999999998,-204.3152,175,75
2026-05-09 15:09:14.127,5,-1.81,-0.38,0.96,32.4176,194.03619999999998,-249.99519999999998,175,75
2026-05-09 15:09:14.138,5,-1.65,-0.25,1.25,22.9376,136.8362,-249.99519999999998,175,75
2026-05-09 15:09:14.149,5,-1.47,-0.11,1.47,28.9176,79.17620000000001,-249.99519999999998,175,75
2026-05-09 15:09:14.149,5,-1.22,0.13,1.71,38.857600000000005,-1.0038,-249.99519999999998,175,75
2026-05-09 15:09:14.159,5,-0.93,0.39,1.82,40.207600000000006,-100.9938,-205.8552,175,75
2026-05-09 15:09:14.170,5,-0.82,0.66,1.72,27.5876,-165.6338,-134.7952,175,75
2026-05-09 15:09:14.180,5,-0.72,0.56,1.36,6.5076,-202.0438,-85.8852,175,75
2026-05-09 15:09:14.191,5,-0.47,0.38,1.04,-11.8324,-214.5338,-42.8652,175,75
2026-05-09 15:09:14.212,5,0.07,0.01,0.74,-13.2824,-179.06380000000001,57.324799999999996,175,75
2026-05-09 15:09:14.225,5,0.19,-0.06,0.7,-0.9223999999999999,-144.74380000000002,104.57480000000001,175,75
2026-05-09 15:09:14.246,5,0.29,-0.07,0.73,9.727599999999999,-77.3438,197.1548,175,75
2026-05-09 15:09:14.256,5,0.19,0.13,0.8,2.7676,-54.8538,227.9548,175,75
2026-05-09 15:09:14.268,5,-0.08,-0.01,0.77,-3.5824,-48.123799999999996,245.7948,175,75
2026-05-09 15:09:14.283,5,-0.32,-0.28,0.92,-18.2624,-113.0338,158.97480000000002,175,75
2026-05-09 15:09:14.297,5,-0.1,-0.38,0.7,-20.1724,-121.3638,100.8648,175,75
2026-05-09 15:09:14.306,5,-0.11,-0.41,0.46,-7.0724,-103.85379999999999,59.80479999999999,175,75
2026-05-09 15:09:14.318,5,-0.16,-0.37,0.35,11.8776,-86.7438,23.2548,175,75
2026-05-09 15:09:14.330,5,-0.16,-0.26,0.33,23.9076,-72.5338,-10.3552,175,75
2026-05-09 15:09:14.330,5,-0.12,-0.13,0.34,25.3576,-58.3938,-40.5752,175,75
2026-05-09 15:09:14.339,5,-0.06,-0.03,0.33,19.2376,-44.2138,-68.0052,175,75
2026-05-09 15:09:14.349,5,-0.02,0.04,0.32,9.6176,-30.1538,-93.6152,175,75
2026-05-09 15:09:14.359,5,0.02,0.07,0.3,2.3376,-17.1938,-117.37519999999999,175,75
2026-05-09 15:09:14.394,5,0.42,0.18,0.38,23.4076,11.1062,-122.1952,175,75
2026-05-09 15:09:14.405,5,0.51,0.25,0.51,34.1676,18.3862,-87.31519999999999,175,75
2026-05-09 15:09:14.408,5,0.38,0.36,0.57,40.5476,31.8962,-64.5052,175,75
2026-05-09 15:09:14.420,5,0.53,0.44,0.77,29.6876,30.9562,-15.5852,175,75
2026-05-09 15:09:14.431,5,0.94,0.64,1.19,0.04760000000000009,-2.7737999999999996,109.0848,175,75
2026-05-09 15:09:14.443,5,0.96,0.75,1.38,-34.0824,-40.663799999999995,240.5848,175,75
2026-05-09 15:09:14.450,5,0.53,0.49,1.13,-45.9024,-17.3138,250.2748,175,75
2026-05-09 15:09:14.469,5,0.19,0.26,0.98,-28.3424,33.906200000000005,172.0248,175,75
2026-05-09 15:09:14.489,5,0.54,-0.22,2.0,15.8776,131.84619999999998,0.9947999999999999,175,75
2026-05-09 15:09:14.502,5,0.4,-0.59,2.0,-28.3324,202.0862,60.184799999999996,175,75
2026-05-09 15:09:14.510,5,-0.09,-0.63,1.65,-37.2724,212.4562,113.5848,175,75
2026-05-09 15:09:14.527,5,-0.72,-0.68,1.21,-23.9624,184.3562,143.2748,175,75
2026-05-09 15:09:14.530,5,-1.15,-0.75,1.1,2.1576,133.5462,127.0348,175,75
2026-05-09 15:09:14.545,5,-1.47,-0.7,1.31,30.5776,74.8762,80.1948,175,75
2026-05-09 15:09:14.558,5,-1.45,-0.53,1.75,55.2376,-1.5338,22.7448,175,75
2026-05-09 15:09:14.569,5,-1.07,-0.29,2.0,67.72760000000001,-74.9038,-9.2152,175,75
2026-05-09 15:09:14.575,5,-0.61,-0.11,2.0,72.4976,-138.7538,3.4848,175,75
2026-05-09 15:09:14.583,5,-0.23,-0.02,1.82,74.5076,-179.06380000000001,42.5648,175,75
2026-05-09 15:09:14.596,5,0.03,0.1,1.67,63.0576,-192.9138,82.7448,175,75
2026-05-09 15:09:14.607,5,0.3,0.18,1.65,34.607600000000005,-177.8938,115.8348,175,75
2026-05-09 15:09:14.628,5,0.7,-0.08,1.77,6.3376,-125.43379999999999,158.1248,175,75
2026-05-09 15:09:14.628,5,0.88,-0.3,1.76,4.8076,-97.7638,167.0948,175,75
2026-05-09 15:09:14.641,5,0.83,-0.51,1.6,5.1176,-51.3538,170.3548,175,75
2026-05-09 15:09:14.652,5,0.56,-0.55,1.39,9.1476,-3.0838,153.1048,175,75
2026-05-09 15:09:14.662,5,0.23,-0.68,1.23,26.2376,37.976200000000006,107.6648,175,75
2026-05-09 15:09:14.673,5,-0.04,-0.63,1.26,42.52760000000001,69.2562,35.3848,175,75
2026-05-09 15:09:14.684,5,-0.14,-0.54,1.35,50.467600000000004,88.4762,-45.5852,175,75
2026-05-09 15:09:14.701,5,-0.07,-0.42,1.42,57.0476,91.5562,-109.87519999999999,175,75
2026-05-09 15:09:14.712,5,0.08,0.01,1.52,61.0876,70.3862,-152.9852,175,75
2026-05-09 15:09:14.724,5,0.1,0.15,1.47,52.567600000000006,52.8962,-143.9352,175,75
2026-05-09 15:09:14.734,5,0.08,0.26,1.4,41.257600000000004,35.5662,-124.5052,175,75
2026-05-09 15:09:14.746,5,0.03,0.26,1.25,28.3276,21.496199999999998,-102.59519999999999,175,75
2026-05-09 15:09:14.757,5,-0.0,0.27,1.11,17.5476,10.8462,-85.4752,175,75
2026-05-09 15:09:14.769,5,-0.02,0.2,0.97,10.6276,0.3062,-68.2252,175,75
2026-05-09 15:09:14.769,5,0.01,0.14,0.86,8.0376,-9.0638,-47.555200000000006,175,75
2026-05-09 15:09:14.781,5,0.06,0.05,0.77,6.8675999999999995,-17.1238,-20.0452,175,75
2026-05-09 15:09:14.792,5,0.06,-0.05,0.68,7.5076,-26.323800000000002,12.5448,175,75
2026-05-09 15:09:14.804,5,-0.01,-0.02,0.61,7.4475999999999996,-41.803799999999995,42.4548,175,75
2026-05-09 15:09:14.815,5,-0.12,-0.12,0.49,8.6876,-67.5338,64.15480000000001,175,75
2026-05-09 15:09:14.828,5,-0.21,-0.13,0.4,8.9876,-100.2638,72.6748,175,75
2026-05-09 15:09:14.849,5,-0.25,-0.07,0.2,-6.3824000000000005,-174.3938,54.6048,175,75
2026-05-09 15:09:14.849,5,-0.16,0.02,0.11,-20.0624,-206.1738,39.1648,175,75
2026-05-09 15:09:14.864,5,-0.07,-0.01,-0.02,-28.322400000000002,-223.5438,29.6448,175,75
2026-05-09 15:09:14.879,5,0.24,0.0,-0.16,-38.9124,-209.5738,-0.9352,175,75
2026-05-09 15:09:14.879,5,0.53,-0.06,-0.31,-45.322399999999995,-160.15380000000002,-46.5452,175,75
2026-05-09 15:09:14.892,5,0.54,-0.13,-0.41,-46.9424,-94.9138,-89.6152,175,75
2026-05-09 15:09:14.902,5,0.4,-0.14,-0.39,-45.742399999999996,-48.2238,-112.6552,175,75
2026-05-09 15:09:14.925,5,0.22,-0.04,-0.04,-30.4524,25.0762,-130.27519999999998,175,75
2026-05-09 15:09:14.938,5,0.18,-0.04,0.09,-30.5224,61.7162,-134.7152,175,75
2026-05-09 15:09:14.949,5,0.12,0.01,0.17,-28.0024,100.6262,-145.7152,175,75
2026-05-09 15:09:14.959,5,0.09,0.1,0.19,-28.1624,135.87619999999998,-162.6152,175,75
2026-05-09 15:09:14.959,5,0.1,0.15,0.17,-28.3924,167.5562,-183.0352,175,75
2026-05-09 15:09:14.971,5,0.14,0.19,0.15,-26.4024,188.65619999999998,-198.0852,175,75
2026-05-09 15:09:14.979,5,0.4,0.28,0.18,-19.9524,176.4862,-173.02519999999998,175,75
2026-05-09 15:09:14.992,5,0.64,0.66,0.44,0.4476,83.6662,-76.7652,175,75
2026-05-09 15:09:15.008,5,0.61,0.78,0.83,3.2776,6.2362,0.7747999999999999,175,75
2026-05-09 15:09:15.019,5,0.56,0.67,0.84,-11.2124,-10.7138,22.6148,175,75
2026-05-09 15:09:15.029,5,0.56,0.26,0.64,-12.9024,-0.8338,43.9648,175,75
2026-05-09 15:09:15.040,5,0.51,-0.04,0.55,2.0476,22.7562,66.5048,175,75
2026-05-09 15:09:15.052,5,1.02,-0.18,1.02,17.0976,113.3662,140.69480000000001,175,75
2026-05-09 15:09:15.065,5,1.57,0.34,1.83,-14.6324,203.00619999999998,218.2048,175,75
2026-05-09 15:09:15.075,5,2.0,0.64,2.0,-99.8724,250.15619999999998,250.2748,175,75
2026-05-09 15:09:15.089,5,-0.64,-0.66,2.0,-172.4924,250.15619999999998,104.8348,175,75
2026-05-09 15:09:15.089,5,-1.55,-0.55,1.98,-99.4624,250.15619999999998,-45.885200000000005,175,75
2026-05-09 15:09:15.101,5,-1.93,-0.87,0.91,-61.1624,250.15619999999998,-123.6352,175,75
2026-05-09 15:09:15.112,5,-2.0,-0.65,0.36,-13.612400000000001,229.25619999999998,-214.5852,175,75
2026-05-09 15:09:15.124,5,-1.95,-0.72,0.47,35.927600000000005,167.3962,-249.99519999999998,175,75
2026-05-09 15:09:15.134,5,-1.45,-0.55,1.01,65.1976,111.4762,-244.3252,175,75
2026-05-09 15:09:15.149,5,-1.07,-0.36,1.83,60.6176,35.3262,-172.3152,175,75
2026-05-09 15:09:15.149,5,-0.81,-0.07,2.0,78.1076,-56.633799999999994,-89.6152,175,75
2026-05-09 15:09:15.162,5,-0.6,0.45,2.0,72.1776,-97.4038,-44.025200000000005,175,75
2026-05-09 15:09:15.173,5,-0.55,0.61,2.0,42.5976,-93.0138,-41.6852,175,75
2026-05-09 15:09:15.186,5,-0.36,0.36,1.77,28.7576,-83.57379999999999,-33.345200000000006,175,75
2026-05-09 15:09:15.192,5,-0.25,0.1,1.49,41.207600000000006,-81.8838,6.2148,175,75
2026-05-09 15:09:15.209,5,-0.27,0.07,1.41,50.9076,-71.6138,37.4848,175,75
2026-05-09 15:09:15.230,5,0.01,-0.16,1.63,5.2776,43.366200000000006,76.01480000000001,175,75
2026-05-09 15:09:15.252,5,-0.52,-0.51,1.78,-0.6923999999999999,97.6262,104.3548,175,75
2026-05-09 15:09:15.266,5,-0.95,-0.66,1.77,5.0376,81.8762,75.2548,175,75
2026-05-09 15:09:15.278,5,-1.22,-0.79,1.62,16.8076,58.2562,26.6048,175,75
2026-05-09 15:09:15.298,5,-1.45,-0.88,1.34,52.4076,17.5562,-68.6952,175,75
2026-05-09 15:09:15.298,5,-1.45,-0.81,1.29,73.7476,-16.8538,-110.3552,175,75
2026-05-09 15:09:15.311,5,-1.36,-0.65,1.26,95.2576,-58.0638,-154.0352,175,75
2026-05-09 15:09:15.321,5,-1.2,-0.4,1.25,111.4876,-93.04379999999999,-202.77519999999998,175,75
2026-05-09 15:09:15.333,5,-1.05,-0.11,1.25,117.4576,-118.9238,-249.99519999999998,175,75
2026-05-09 15:09:15.349,5,-0.93,0.18,1.24,113.1476,-141.7938,-249.99519999999998,175,75
2026-05-09 15:09:15.359,5,-0.86,0.43,1.17,99.6476,-165.46380000000002,-249.99519999999998,175,75
2026-05-09 15:09:15.370,5,-0.78,0.51,1.1,85.0976,-195.0138,-249.99519999999998,175,75
2026-05-09 15:09:15.381,5,-0.49,0.71,0.91,53.02760000000001,-244.6738,-249.99519999999998,175,75
2026-05-09 15:09:15.394,5,-0.34,0.68,0.81,39.1576,-250.1138,-249.99519999999998,175,75
2026-05-09 15:09:15.405,5,-0.21,0.63,0.69,27.8076,-250.1138,-249.99519999999998,175,75
2026-05-09 15:09:15.417,5,-0.12,0.55,0.56,22.7176,-249.2838,-249.99519999999998,175,75
2026-05-09 15:09:15.431,5,-0.07,0.49,0.45,19.5876,-244.24380000000002,-249.99519999999998,175,75
2026-05-09 15:09:15.439,5,0.01,0.43,0.16,20.3576,-243.40380000000002,-157.2952,175,75
2026-05-09 15:09:15.456,5,0.33,0.42,-0.06,25.0776,-243.02380000000002,-88.70519999999999,175,75
2026-05-09 15:09:15.468,5,0.51,0.48,-0.23,29.0676,-234.96380000000002,-9.7752,175,75
2026-05-09 15:09:15.475,5,0.74,0.44,-0.33,27.5576,-231.4738,59.904799999999994,175,75
2026-05-09 15:09:15.485,5,0.59,0.46,-0.34,21.9976,-204.27380000000002,120.2548,175,75
2026-05-09 15:09:15.492,5,0.57,0.42,-0.6,15.727599999999999,-168.2838,157.9648,175,75
2026-05-09 15:09:15.506,5,0.43,0.16,-0.61,12.8776,-128.80380000000002,171.9848,175,75
2026-05-09 15:09:15.518,5,0.25,0.01,-0.55,12.0976,-96.9038,169.4848,175,75
2026-05-09 15:09:15.541,5,-0.16,-0.25,-0.08,6.3576,2.3962000000000003,109.2248,175,75
2026-05-09 15:09:15.552,5,-0.24,-0.18,0.03,0.4576,37.3262,78.4448,175,75
2026-05-09 15:09:15.562,5,-0.34,-0.16,0.11,-9.9324,68.6962,40.974799999999995,175,75
2026-05-09 15:09:15.580,5,-0.34,-0.17,0.1,-30.7124,118.5262,-44.775200000000005,175,75
2026-05-09 15:09:15.595,5,-0.23,-0.09,0.09,-40.042399999999994,145.1362,-95.0352,175,75
2026-05-09 15:09:15.653,5,1.58,0.65,1.36,-113.08239999999999,177.2662,-124.9452,175,75
2026-05-09 15:09:15.665,5,1.83,0.56,2.0,-150.4924,99.9762,37.4248,175,75
2026-05-09 15:09:15.679,5,1.46,0.16,1.89,-178.5924,183.4262,82.90480000000001,175,75
2026-05-09 15:09:15.689,5,1.21,-0.46,1.84,-172.6124,250.15619999999998,79.6448,175,75
2026-05-09 15:09:15.689,5,1.66,-0.73,2.0,-183.5024,250.15619999999998,37.1748,175,75
2026-05-09 15:09:15.701,5,-2.0,-1.18,2.0,-141.4924,250.15619999999998,-57.9352,175,75
2026-05-09 15:09:15.712,5,-2.0,-1.17,1.39,-92.5124,250.15619999999998,-124.9052,175,75
2026-05-09 15:09:15.712,5,-2.0,-1.39,0.59,-25.4924,250.15619999999998,-194.05519999999999,175,75
2026-05-09 15:09:15.722,5,-2.0,-1.3,0.17,60.007600000000004,178.8662,-226.4652,175,75
2026-05-09 15:09:15.742,5,-2.0,-0.73,1.63,163.5276,104.4662,-249.99519999999998,175,75
2026-05-09 15:09:15.754,5,-2.0,-0.32,1.97,197.5776,74.1062,-249.99519999999998,175,75
2026-05-09 15:09:15.780,5,-2.0,0.59,2.0,196.0976,-194.6738,-249.99519999999998,175,75
2026-05-09 15:09:15.780,5,-1.96,0.7,1.48,164.7176,-250.1138,-249.99519999999998,175,75
2026-05-09 15:09:15.790,5,-1.44,0.61,0.98,132.4176,-250.1138,-249.99519999999998,175,75
2026-05-09 15:09:15.802,5,-0.97,0.5,0.66,106.2376,-250.1138,-249.99519999999998,175,75
2026-05-09 15:09:15.825,5,0.2,0.37,0.47,87.11760000000001,-250.1138,-203.52519999999998,175,75
2026-05-09 15:09:15.839,5,0.5,0.45,0.43,95.7776,-250.1138,-165.3152,175,75
2026-05-09 15:09:15.852,5,0.88,0.77,0.4,98.86760000000001,-226.5138,-43.6152,175,75
2026-05-09 15:09:15.863,5,0.66,0.89,0.23,80.7376,-195.6038,0.30479999999999996,175,75
2026-05-09 15:09:15.875,5,0.55,1.0,0.08,58.4876,-176.65380000000002,34.7048,175,75
2026-05-09 15:09:15.888,5,0.41,0.97,-0.1,33.7676,-156.40380000000002,58.224799999999995,175,75
2026-05-09 15:09:15.897,5,0.44,0.78,-0.2,16.4176,-136.4138,54.514799999999994,175,75
2026-05-09 15:09:15.908,5,0.67,0.54,-0.26,6.5876,-92.1438,42.1648,175,75
2026-05-09 15:09:15.922,5,0.92,0.18,-0.03,0.8775999999999999,58.9162,62.2748,175,75
2026-05-09 15:09:15.942,5,1.16,0.09,0.21,-5.542400000000001,220.4962,124.82480000000001,175,75
2026-05-09 15:09:15.955,5,1.59,0.12,0.64,-25.6124,250.15619999999998,209.7148,175,75
2026-05-09 15:09:15.963,5,1.83,0.17,1.51,-46.782399999999996,250.15619999999998,250.2748,175,75
2026-05-09 15:09:15.974,5,1.57,-0.09,2.0,-59.0224,250.15619999999998,250.2748,175,75
2026-05-09 15:09:15.982,5,0.67,-0.93,2.0,-38.542399999999994,250.15619999999998,206.5848,175,75
2026-05-09 15:09:16.004,5,-2.0,-0.5,1.62,-36.1624,250.15619999999998,-189.9152,175,75
2026-05-09 15:09:16.023,5,-2.0,-0.64,0.59,-6.252400000000001,230.62619999999998,-249.99519999999998,175,75
2026-05-09 15:09:16.039,5,-1.9,-0.51,0.76,31.0976,149.3962,-249.99519999999998,175,75
2026-05-09 15:09:16.049,5,-1.06,-0.13,1.59,50.147600000000004,78.0762,-249.99519999999998,175,75
2026-05-09 15:09:16.074,5,-0.68,1.17,2.0,31.9476,-28.893800000000002,-134.3152,175,75
2026-05-09 15:09:16.074,5,-1.14,1.18,2.0,-14.4724,-66.1538,-92.3652,175,75
2026-05-09 15:09:16.106,5,-0.41,0.12,1.18,-56.172399999999996,-92.8738,51.614799999999995,175,75
2026-05-09 15:09:16.118,5,-0.28,0.05,1.17,-34.782399999999996,-73.79379999999999,122.15480000000001,175,75
2026-05-09 15:09:16.134,5,-0.36,0.02,1.34,-24.2924,-73.5638,194.2948,175,75
2026-05-09 15:09:16.144,5,-0.39,-0.18,1.36,-24.3924,-91.4738,183.9948,175,75
2026-05-09 15:09:16.165,5,-0.44,-0.43,1.19,-19.0924,-159.0338,142.75480000000002,175,75
2026-05-09 15:09:16.173,5,-0.35,-0.52,0.9,-5.1924,-188.7638,119.2148,175,75
2026-05-09 15:09:16.190,5,-0.16,-0.54,0.58,20.2176,-201.68380000000002,108.7148,175,75
2026-05-09 15:09:16.190,5,-0.0,-0.48,0.36,53.397600000000004,-203.7238,115.1048,175,75
2026-05-09 15:09:16.202,5,0.04,-0.37,0.24,79.94760000000001,-220.7338,129.6848,175,75
2026-05-09 15:09:16.230,5,0.5,-0.11,0.02,89.2876,-250.1138,136.4348,175,75
2026-05-09 15:09:16.241,5,1.01,-0.06,-0.28,71.6776,-250.1138,115.6148,175,75
2026-05-09 15:09:16.246,5,1.75,-0.22,-0.86,49.3376,-171.34380000000002,50.334799999999994,175,75
2026-05-09 15:09:16.258,5,1.21,-0.21,-1.25,21.4176,-58.523799999999994,1.1948,175,75
2026-05-09 15:09:16.270,5,0.2,-0.32,-0.67,38.0176,-22.663800000000002,-32.3952,175,75
2026-05-09 15:09:16.280,5,-0.4,-0.18,-0.58,24.4876,-42.163799999999995,-57.665200000000006,175,75
2026-05-09 15:09:16.292,5,-0.62,-0.12,-0.33,8.6476,-77.7038,-84.0052,175,75
2026-05-09 15:09:16.292,5,-0.54,-0.11,-0.13,-10.3424,-100.6738,-109.67519999999999,175,75
2026-05-09 15:09:16.303,5,-0.26,-0.11,0.03,-26.5124,-91.3938,-131.1952,175,75
2026-05-09 15:09:16.316,5,0.05,-0.08,0.12,-41.142399999999995,-46.6738,-156.80519999999999,175,75
2026-05-09 15:09:16.329,5,0.23,-0.05,0.13,-51.8424,14.146199999999999,-182.1852,175,75
2026-05-09 15:09:16.339,5,0.66,0.01,0.15,-57.932399999999994,91.4162,-207.80519999999999,175,75
2026-05-09 15:09:16.339,5,1.18,-0.01,0.27,-60.002399999999994,192.09619999999998,-214.3152,175,75
2026-05-09 15:09:16.351,5,1.61,-0.08,0.76,-56.572399999999995,250.15619999999998,-200.74519999999998,175,75
2026-05-09 15:09:16.372,5,2.0,0.49,2.0,-80.3124,163.2962,-121.9752,175,75
2026-05-09 15:09:16.385,5,2.0,1.09,2.0,-150.0824,209.8962,-38.3252,175,75
2026-05-09 15:09:16.385,5,1.74,0.6,2.0,-233.2124,250.15619999999998,-62.235200000000006,175,75
2026-05-09 15:09:16.396,5,2.0,-0.12,2.0,-246.5824,250.15619999999998,-136.3852,175,75
2026-05-09 15:09:16.406,5,-0.17,-1.74,1.77,-63.422399999999996,250.15619999999998,-81.7252,175,75
2026-05-09 15:09:16.429,5,-2.0,-0.89,0.34,50.1276,250.15619999999998,-10.6052,175,75
2026-05-09 15:09:16.442,5,-2.0,-0.5,0.68,117.66760000000001,115.0062,-116.87519999999999,175,75
2026-05-09 15:09:16.452,5,-2.0,-0.15,1.92,125.61760000000001,28.9862,-174.4152,175,75
2026-05-09 15:09:16.471,5,-1.65,-0.16,2.0,129.3576,-2.5637999999999996,-160.9052,175,75
2026-05-09 15:09:16.478,5,-1.36,0.23,2.0,149.4776,-153.5338,-33.8952,175,75
2026-05-09 15:09:16.482,5,-1.16,0.55,1.79,131.1976,-234.37380000000002,23.9348,175,75
2026-05-09 15:09:16.496,5,-0.91,0.4,1.23,102.2476,-250.1138,28.3048,175,75
2026-05-09 15:09:16.520,5,-0.18,0.1,0.6,78.2676,-250.1138,29.2948,175,75
2026-05-09 15:09:16.524,5,0.13,0.09,0.48,80.3976,-250.1138,28.0448,175,75
2026-05-09 15:09:16.539,5,0.51,0.26,0.41,77.2076,-246.84380000000002,48.30479999999999,175,75
2026-05-09 15:09:16.540,5,0.45,0.31,0.35,68.41760000000001,-222.5338,56.0948,175,75
2026-05-09 15:09:16.550,5,0.55,0.3,0.26,55.6576,-198.7638,76.8548,175,75
2026-05-09 15:09:16.564,5,0.73,0.19,0.14,44.007600000000004,-170.34380000000002,110.7448,175,75
2026-05-09 15:09:16.586,5,0.55,-0.06,-0.06,33.4776,-92.1638,156.1448,175,75
2026-05-09 15:09:16.594,5,0.53,-0.12,-0.14,38.457600000000006,-51.023799999999994,166.0348,175,75
2026-05-09 15:09:16.607,5,0.43,-0.3,-0.05,43.327600000000004,-11.4138,166.9348,175,75
2026-05-09 15:09:16.620,5,0.48,-0.15,0.17,45.4076,39.016200000000005,158.9948,175,75
2026-05-09 15:09:16.631,5,0.53,-0.11,0.41,41.957600000000006,105.3462,135.7348,175,75
2026-05-09 15:09:16.643,5,0.67,-0.16,1.07,6.9276,233.68619999999999,51.9848,175,75
2026-05-09 15:09:16.662,5,0.84,-0.69,2.0,-26.3524,250.15619999999998,-58.87520000000001,175,75
2026-05-09 15:09:16.678,5,0.47,-0.85,2.0,2.0776,250.15619999999998,-129.2552,175,75
2026-05-09 15:09:16.693,5,-1.42,-0.39,1.78,18.7776,250.15619999999998,-166.7652,175,75
2026-05-09 15:09:16.714,5,-2.0,-0.05,0.55,-1.8223999999999998,212.9262,-249.99519999999998,175,75
2026-05-09 15:09:16.714,5,-2.0,-0.01,0.62,-17.9124,79.1362,-249.99519999999998,175,75
2026-05-09 15:09:16.724,5,-1.65,0.13,0.9,-32.852399999999996,-58.5638,-249.99519999999998,175,75
2026-05-09 15:09:16.737,5,-0.84,0.27,1.38,-34.5824,-114.9938,-221.77519999999998,175,75
2026-05-09 15:09:16.751,5,-0.21,0.4,1.55,25.7176,-129.2538,42.264799999999994,175,75
2026-05-09 15:09:16.763,5,-0.5,0.51,1.41,21.3176,-147.9238,127.7348,175,75
2026-05-09 15:09:16.774,5,-0.6,0.32,1.09,2.8575999999999997,-162.8538,161.5148,175,75
2026-05-09 15:09:16.803,5,-0.17,-0.04,0.77,-10.2224,-164.12380000000002,209.3348,175,75
2026-05-09 15:09:16.803,5,0.04,-0.16,0.72,-6.3724,-149.12380000000002,240.0448,175,75
2026-05-09 15:09:16.814,5,0.08,0.14,0.92,-7.1324000000000005,-133.4138,250.2748,175,75
2026-05-09 15:09:16.837,5,0.11,-0.27,0.75,-9.6424,-124.4038,250.2748,175,75
2026-05-09 15:09:16.860,5,0.0,-0.36,0.77,-20.2424,-139.4438,224.3248,175,75
2026-05-09 15:09:16.872,5,0.01,-0.49,0.45,-4.6724000000000006,-65.4538,92.1048,175,75
2026-05-09 15:09:16.883,5,-0.12,-0.45,0.37,8.9876,-20.1038,24.9148,175,75
2026-05-09 15:09:16.900,5,-0.24,-0.35,0.37,15.2576,20.106199999999998,-42.485200000000006,175,75
2026-05-09 15:09:16.900,5,-0.27,-0.3,0.4,19.6076,53.736200000000004,-103.3052,175,75
2026-05-09 15:09:16.912,5,-0.16,-0.28,0.5,26.6276,87.6162,-150.3252,175,75
2026-05-09 15:09:16.948,5,-0.16,-0.18,0.8,43.037600000000005,134.0462,-197.7052,175,75
2026-05-09 15:09:16.962,5,-0.07,0.3,0.82,70.9376,53.7462,-134.8352,175,75
2026-05-09 15:09:17.000,5,-0.54,0.63,0.84,31.4076,26.3462,-175.4152,175,75
2026-05-09 15:09:17.001,5,-0.34,0.53,0.87,11.6776,11.4962,-166.7652,175,75
2026-05-09 15:09:17.012,5,0.02,0.64,1.17,-10.3024,-14.1538,-90.9152,175,75
2026-05-09 15:09:17.029,5,0.55,1.02,1.66,-39.1924,-65.0238,86.2848,175,75
2026-05-09 15:09:17.032,5,0.61,1.29,1.71,-50.642399999999995,-120.4138,250.2748,175,75
2026-05-09 15:09:17.067,5,0.21,0.14,0.66,-84.2124,-70.0038,250.2748,175,75
2026-05-09 15:09:17.079,5,0.67,-0.38,0.5,-51.5124,-21.3038,250.2748,175,75
2026-05-09 15:09:17.102,5,0.7,-0.33,0.61,8.3376,114.0062,250.2748,175,75
2026-05-09 15:09:17.114,5,0.26,-0.18,0.97,21.1876,153.4262,250.2748,175,75
2026-05-09 15:09:17.114,5,-0.43,-0.16,2.0,-45.7324,95.67620000000001,250.2748,175,75
2026-05-09 15:09:17.131,5,-0.75,-1.2,2.0,-102.5124,69.92620000000001,250.2748,175,75
2026-05-09 15:09:17.143,5,-1.04,-1.31,2.0,-67.7824,51.976200000000006,250.2748,175,75
2026-05-09 15:09:17.143,5,-1.26,-1.14,1.69,-35.282399999999996,51.4562,151.69480000000001,175,75
2026-05-09 15:09:17.153,5,-1.4,-1.02,1.27,1.6076,32.0062,60.364799999999995,175,75
2026-05-09 15:09:17.164,5,-1.18,-0.92,1.47,34.3076,16.2162,1.8448,175,75
2026-05-09 15:09:17.176,5,-1.07,-0.67,1.76,55.1176,-41.703799999999994,-9.4552,175,75
2026-05-09 15:09:17.189,5,-0.74,-0.37,1.83,70.8776,-128.18380000000002,12.8148,175,75
2026-05-09 15:09:17.200,5,-0.17,-0.11,1.65,79.2876,-186.4438,72.1648,175,75
2026-05-09 15:09:17.212,5,0.27,0.04,1.49,78.97760000000001,-191.7238,140.7848,175,75
2026-05-09 15:09:17.224,5,0.54,0.33,1.49,62.9376,-152.84380000000002,195.3948,175,75
2026-05-09 15:09:17.224,5,0.57,0.34,1.46,42.6676,-111.0638,250.2748,175,75
2026-05-09 15:09:17.235,5,0.75,0.35,1.47,31.1376,-60.3338,250.2748,175,75
2026-05-09 15:09:17.247,5,0.72,0.26,1.49,27.2776,-3.5637999999999996,250.2748,175,75
2026-05-09 15:09:17.258,5,0.66,0.1,1.54,30.677599999999998,57.296200000000006,250.2748,175,75
2026-05-09 15:09:17.270,5,0.52,-0.07,1.75,39.3376,114.2362,250.2748,175,75
2026-05-09 15:09:17.281,5,0.19,-0.34,1.98,52.9076,156.4662,250.2748,175,75
2026-05-09 15:09:17.292,5,-0.34,-0.51,1.96,78.61760000000001,166.15619999999998,250.2748,175,75
2026-05-09 15:09:17.303,5,-0.73,-0.47,1.7,103.7776,155.15619999999998,235.7048,175,75
2026-05-09 15:09:17.306,5,-0.93,-0.28,1.52,121.61760000000001,133.4962,192.22480000000002,175,75
2026-05-09 15:09:17.313,5,-0.84,-0.07,1.53,119.1276,101.28620000000001,159.7348,175,75
2026-05-09 15:09:17.325,5,-0.84,0.19,1.6,99.9876,49.236200000000004,159.7348,175,75
2026-05-09 15:09:17.337,5,-0.78,0.3,1.6,72.9976,-3.3738,170.69480000000001,175,75
2026-05-09 15:09:17.347,5,-0.65,0.33,1.53,44.467600000000004,-44.193799999999996,175.5448,175,75
2026-05-09 15:09:17.359,5,-0.47,0.24,1.32,27.7076,-72.1538,172.5448,175,75
2026-05-09 15:09:17.373,5,-0.32,0.12,1.07,16.2976,-84.4138,165.3048,175,75
2026-05-09 15:09:17.392,5,-0.06,-0.05,0.64,11.8376,-96.6638,178.8448,175,75
2026-05-09 15:09:17.402,5,-0.04,-0.08,0.57,12.6176,-99.3338,190.6148,175,75
2026-05-09 15:09:17.417,5,0.01,-0.2,0.43,11.637599999999999,-103.2238,212.1648,175,75
2026-05-09 15:09:17.417,5,0.07,-0.24,0.34,7.9776,-106.8338,239.7348,175,75
2026-05-09 15:09:17.428,5,0.12,-0.31,0.2,2.6075999999999997,-106.3738,250.2748,175,75
2026-05-09 15:09:17.439,5,0.06,-0.36,0.03,6.2376,-109.8038,250.2748,175,75
2026-05-09 15:09:17.449,5,-0.03,-0.38,-0.18,14.137599999999999,-124.60379999999999,250.2748,175,75
2026-05-09 15:09:17.462,5,-0.05,-0.36,-0.39,22.8276,-129.12380000000002,250.2748,175,75
2026-05-09 15:09:17.462,5,-0.24,-0.48,-0.46,36.4876,-114.2538,250.2748,175,75
2026-05-09 15:09:17.480,5,-0.36,-0.11,-0.5,44.02760000000001,-110.7338,189.72480000000002,175,75
2026-05-09 15:09:17.492,5,-0.28,-0.13,-0.48,27.3976,-106.93379999999999,111.9248,175,75
2026-05-09 15:09:17.505,5,-0.0,-0.28,-0.39,15.5076,-89.1338,59.8548,175,75
2026-05-09 15:09:17.505,5,0.21,-0.35,-0.22,15.4076,-47.873799999999996,38.324799999999996,175,75
2026-05-09 15:09:17.520,5,0.28,-0.36,-0.06,19.9776,7.1062,35.3948,175,75
2026-05-09 15:09:17.527,5,0.25,-0.33,0.03,27.7176,64.6162,41.2348,175,75
2026-05-09 15:09:17.540,5,0.22,-0.31,0.04,40.827600000000004,119.1562,42.654799999999994,175,75
2026-05-09 15:09:17.547,5,0.21,-0.23,0.06,57.3376,171.25619999999998,35.2448,175,75
2026-05-09 15:09:17.556,5,0.19,-0.1,0.04,70.0076,214.2962,20.2648,175,75
2026-05-09 15:09:17.564,5,0.27,0.07,0.07,69.6076,250.15619999999998,12.5748,175,75
2026-05-09 15:09:17.573,5,0.36,0.18,0.13,62.507600000000004,250.15619999999998,14.9048,175,75
2026-05-09 15:09:17.594,5,0.42,0.44,0.73,46.827600000000004,79.2562,104.79480000000001,175,75
2026-05-09 15:09:17.615,5,0.14,0.48,0.68,11.6576,26.6262,57.3548,175,75
2026-05-09 15:09:17.630,5,0.12,0.43,0.67,-3.3024000000000004,23.6562,23.6148,175,75
2026-05-09 15:09:17.642,5,0.21,0.5,0.77,-18.7924,4.3662,17.7548,175,75
2026-05-09 15:09:17.642,5,0.4,0.59,0.9,-38.8424,-11.4138,28.7748,175,75
2026-05-09 15:09:17.671,5,0.66,0.6,1.05,-56.142399999999995,-1.5738,47.754799999999996,175,75
2026-05-09 15:09:17.671,5,0.9,0.67,1.32,-75.91239999999999,50.696200000000005,62.0948,175,75
2026-05-09 15:09:17.684,5,1.08,0.73,1.64,-107.05239999999999,143.25619999999998,73.6348,175,75
2026-05-09 15:09:17.694,5,1.2,0.67,1.9,-148.9724,250.15619999999998,99.6448,175,75
2026-05-09 15:09:17.694,5,1.07,0.51,1.87,-187.7724,250.15619999999998,131.0548,175,75
2026-05-09 15:09:17.710,5,0.51,0.1,1.55,-194.1824,250.15619999999998,169.6648,175,75
2026-05-09 15:09:17.722,5,-0.64,-0.14,1.15,-161.48239999999998,250.15619999999998,227.3248,175,75
2026-05-09 15:09:17.735,5,-1.72,-0.13,0.81,-141.9324,250.15619999999998,196.7648,175,75
2026-05-09 15:09:17.735,5,-2.0,-0.08,0.95,-130.0024,250.15619999999998,142.6448,175,75
2026-05-09 15:09:17.747,5,-2.0,-0.18,1.17,-122.02239999999999,250.15619999999998,59.2848,175,75
2026-05-09 15:09:17.758,5,-2.0,-0.15,1.47,-124.2924,192.9262,-0.23520000000000002,175,75
2026-05-09 15:09:17.769,5,-2.0,-0.17,1.82,-123.44239999999999,125.2162,-1.7451999999999999,175,75
2026-05-09 15:09:17.786,5,-1.84,-0.22,2.0,-101.3124,82.0062,22.2448,175,75
2026-05-09 15:09:17.802,5,-1.97,-0.18,1.64,-31.192400000000003,-0.2038,123.7748,175,75
2026-05-09 15:09:17.812,5,-2.0,-0.08,1.53,-20.0824,-70.04379999999999,148.1548,175,75
2026-05-09 15:09:17.816,5,-1.82,-0.07,1.51,-24.5324,-128.81380000000001,148.4048,175,75
2026-05-09 15:09:17.832,5,-1.4,-0.17,1.47,-28.7624,-159.43380000000002,146.1548,175,75
2026-05-09 15:09:17.843,5,-0.99,-0.26,1.46,-21.322400000000002,-152.0038,146.4148,175,75
2026-05-09 15:09:17.853,5,-0.73,-0.27,1.55,-8.1824,-121.96379999999999,147.25480000000002,175,75
2026-05-09 15:09:17.863,5,-0.64,-0.19,1.74,1.4676,-90.0238,147.2448,175,75
2026-05-09 15:09:17.864,5,-0.65,-0.11,1.85,2.8175999999999997,-68.0538,143.1648,175,75
2026-05-09 15:09:17.878,5,-0.71,-0.12,1.85,-0.9324000000000001,-52.6538,135.9948,175,75
2026-05-09 15:09:17.892,5,-0.8,-0.23,1.67,0.2076,-45.633799999999994,134.5848,175,75
2026-05-09 15:09:17.905,5,-0.9,-0.29,1.53,8.5576,-45.693799999999996,136.1848,175,75
2026-05-09 15:09:17.912,5,-0.96,-0.28,1.49,17.8376,-52.733799999999995,132.8348,175,75
2026-05-09 15:09:17.927,5,-0.93,-0.24,1.49,22.3476,-68.1638,127.0248,175,75
2026-05-09 15:09:17.939,5,-0.87,-0.22,1.48,22.9376,-87.96379999999999,119.87480000000001,175,75
2026-05-09 15:09:17.951,5,-0.75,-0.23,1.43,23.1976,-110.4538,111.2248,175,75
2026-05-09 15:09:17.951,5,-0.64,-0.24,1.35,25.177599999999998,-124.35379999999999,99.6148,175,75
2026-05-09 15:09:17.968,5,-0.56,-0.27,1.22,31.3976,-133.4538,83.4848,175,75
2026-05-09 15:09:17.968,5,-0.51,-0.27,1.09,40.757600000000004,-140.3238,64.3848,175,75
2026-05-09 15:09:17.981,5,-0.42,-0.25,0.99,50.9076,-141.9438,41.904799999999994,175,75
2026-05-09 15:09:17.992,5,-0.35,-0.21,0.9,60.077600000000004,-140.6638,22.3948,175,75
2026-05-09 15:09:18.011,5,-0.21,-0.05,0.77,64.5476,-149.1038,-2.4152,175,75
2026-05-09 15:09:18.024,5,-0.14,0.04,0.7,60.8076,-153.5738,-12.0452,175,75
2026-05-09 15:09:18.024,5,-0.12,0.04,0.59,57.1176,-158.5038,-17.5452,175,75
2026-05-09 15:09:18.041,5,-0.0,0.12,0.51,51.497600000000006,-161.2838,-21.6352,175,75
2026-05-09 15:09:18.053,5,0.04,0.13,0.38,43.2276,-163.4438,-21.6552,175,75
2026-05-09 15:09:18.062,5,0.06,0.11,0.24,35.3776,-169.4438,-14.8552,175,75
2026-05-09 15:09:18.073,5,0.11,0.07,0.08,27.9976,-183.18380000000002,-3.6552,175,75
2026-05-09 15:09:18.073,5,0.32,0.01,-0.1,24.0276,-189.15380000000002,19.2148,175,75
2026-05-09 15:09:18.084,5,0.57,-0.02,-0.24,29.7476,-173.4738,69.9148,175,75
2026-05-09 15:09:18.096,5,0.46,-0.62,0.2,53.52760000000001,-159.33380000000002,104.7348,175,75
2026-05-09 15:09:18.112,5,0.28,-0.1,-0.34,56.4176,-158.46380000000002,128.8748,175,75
2026-05-09 15:09:18.128,5,-0.08,0.09,-0.43,47.427600000000005,-169.1338,125.1648,175,75
2026-05-09 15:09:18.139,5,-0.11,0.06,-0.35,33.0676,-170.34380000000002,105.7048,175,75
2026-05-09 15:09:18.163,5,0.1,-0.19,-0.13,8.5576,-115.2338,77.4548,175,75
2026-05-09 15:09:18.163,5,0.08,-0.19,-0.06,6.0676,-64.60379999999999,68.3548,175,75
2026-05-09 15:09:18.173,5,0.04,-0.21,0.01,7.0276,-5.1937999999999995,61.324799999999996,175,75
2026-05-09 15:09:18.184,5,-0.08,-0.14,0.03,4.2876,43.476200000000006,39.294799999999995,175,75
2026-05-09 15:09:18.216,5,-0.07,0.1,0.08,-15.612400000000001,166.4862,-52.3552,175,75
2026-05-09 15:09:18.242,5,0.27,0.1,0.24,-27.8624,246.5862,-115.7152,175,75
2026-05-09 15:09:18.264,5,0.8,0.4,0.38,-46.9124,250.15619999999998,-72.5452,175,75
2026-05-09 15:09:18.282,5,1.26,1.09,1.87,-103.3924,250.15619999999998,183.75480000000002,175,75
2026-05-09 15:09:18.293,5,0.56,1.09,2.0,-154.7924,250.15619999999998,250.2748,175,75
2026-05-09 15:09:18.303,5,-0.06,0.59,1.54,-184.2224,250.15619999999998,249.5548,175,75
2026-05-09 15:09:18.303,5,-0.32,0.09,1.25,-181.4224,250.15619999999998,222.8048,175,75
2026-05-09 15:09:18.321,5,-0.44,-0.07,1.21,-162.5024,250.15619999999998,153.19480000000001,175,75
2026-05-09 15:09:18.327,5,-0.34,-0.67,2.0,-137.20239999999998,250.15619999999998,132.1048,175,75
2026-05-09 15:09:18.342,5,-2.0,-0.56,2.0,-132.9424,250.15619999999998,149.3548,175,75
2026-05-09 15:09:18.357,5,-2.0,-1.0,1.87,-26.4124,154.3362,-9.5352,175,75
2026-05-09 15:09:18.367,5,-2.0,-0.81,1.51,19.0376,9.9962,-72.56519999999999,175,75
2026-05-09 15:09:18.393,5,-2.0,-0.34,1.51,78.2676,-235.4438,-60.245200000000004,175,75
2026-05-09 15:09:18.393,5,-2.0,0.0,1.6,85.2676,-250.1138,-8.3552,175,75
2026-05-09 15:09:18.405,5,-1.6,0.33,1.6,61.707600000000006,-250.1138,20.6148,175,75
2026-05-09 15:09:18.418,5,-0.93,0.36,1.34,28.1676,-250.1138,30.9348,175,75
2026-05-09 15:09:18.429,5,-0.5,0.21,1.02,9.9376,-250.1138,37.544799999999995,175,75
2026-05-09 15:09:18.445,5,-0.0,0.09,0.91,6.1676,-250.1138,43.4848,175,75
2026-05-09 15:09:18.445,5,0.31,0.07,0.88,12.0976,-250.1138,44.7048,175,75
2026-05-09 15:09:18.463,5,0.31,-0.05,0.83,30.2276,-250.1138,65.3848,175,75
2026-05-09 15:09:18.474,5,0.56,0.25,0.78,49.107600000000005,-250.1138,82.7448,175,75
2026-05-09 15:09:18.474,5,0.66,0.4,0.71,54.4876,-250.1138,90.1948,175,75
2026-05-09 15:09:18.483,5,0.98,0.41,0.51,35.9476,-250.1138,76.3048,175,75
2026-05-09 15:09:18.501,5,1.14,0.23,0.22,18.3276,-250.1138,69.2148,175,75
2026-05-09 15:09:18.512,5,1.22,0.05,-0.04,16.997600000000002,-211.4738,88.5248,175,75
2026-05-09 15:09:18.512,5,1.05,-0.13,-0.27,24.9976,-144.33380000000002,108.9148,175,75
2026-05-09 15:09:18.534,5,0.88,-0.16,-0.36,33.7976,-82.2638,122.4848,175,75
2026-05-09 15:09:18.544,5,0.76,-0.11,0.03,50.077600000000004,39.6762,127.2448,175,75
2026-05-09 15:09:18.556,5,0.8,-0.27,0.14,56.3076,119.6862,130.8048,175,75
2026-05-09 15:09:18.567,5,0.86,-0.23,0.38,57.5576,201.5862,133.0948,175,75
2026-05-09 15:09:18.578,5,0.87,0.11,0.57,39.5176,250.15619999999998,138.6648,175,75
2026-05-09 15:09:18.595,5,0.64,-0.03,1.93,-32.4024,250.15619999999998,66.2548,175,75
2026-05-09 15:09:18.608,5,0.43,-0.06,2.0,-69.13239999999999,250.15619999999998,-46.565200000000004,175,75
2026-05-09 15:09:18.623,5,-0.05,-0.1,1.75,-98.9324,250.15619999999998,-166.9052,175,75
2026-05-09 15:09:18.623,5,-0.49,-0.23,1.5,-106.7424,250.15619999999998,-249.99519999999998,175,75
2026-05-09 15:09:18.635,5,-0.7,-0.15,1.51,-93.7924,250.15619999999998,-249.99519999999998,175,75
2026-05-09 15:09:18.650,5,-0.57,0.1,1.72,-78.3224,250.15619999999998,-204.0652,175,75
2026-05-09 15:09:18.662,5,-1.07,0.24,1.71,-72.16239999999999,213.1362,-138.6652,175,75
2026-05-09 15:09:18.672,5,-1.43,0.51,1.78,-78.3124,147.8662,-124.1452,175,75
2026-05-09 15:09:18.683,5,-1.42,0.56,1.84,-91.7124,88.7662,-95.1052,175,75
2026-05-09 15:09:18.697,5,-1.16,0.32,1.65,-87.8724,-26.1138,30.6748,175,75
2026-05-09 15:09:18.711,5,-1.04,0.22,1.58,-76.5024,-67.8638,98.2448,175,75
2026-05-09 15:09:18.723,5,-0.89,0.11,1.53,-72.8924,-107.21379999999999,158.00480000000002,175,75
2026-05-09 15:09:18.736,5,-0.69,-0.06,1.48,-72.1724,-140.4238,208.1348,175,75
2026-05-09 15:09:18.736,5,-0.51,-0.24,1.39,-67.2924,-172.12380000000002,250.2748,175,75
2026-05-09 15:09:18.747,5,-0.36,-0.37,1.34,-59.1224,-208.7938,250.2748,175,75
2026-05-09 15:09:18.759,5,-0.51,-0.58,1.25,-51.4124,-250.1138,250.2748,175,75
2026-05-09 15:09:18.783,5,-0.12,-0.85,0.58,-26.2524,-250.1138,227.5548,175,75
2026-05-09 15:09:18.783,5,0.22,-0.91,0.21,11.1776,-250.1138,215.5148,175,75
2026-05-09 15:09:18.804,5,0.74,-0.84,-0.03,57.317600000000006,-250.1138,212.6748,175,75
2026-05-09 15:09:18.816,5,1.06,-0.64,-0.24,88.19760000000001,-250.1138,165.22480000000002,175,75
2026-05-09 15:09:18.816,5,1.68,-0.36,-0.63,99.6476,-166.9838,78.2248,175,75
2026-05-09 15:09:18.839,5,0.34,-0.02,-1.31,69.08760000000001,20.3862,-95.4052,175,75
2026-05-09 15:09:18.849,5,-0.21,-0.16,-0.67,56.397600000000004,18.5462,-128.9352,175,75
2026-05-09 15:09:18.867,5,-0.55,0.03,-0.41,32.4476,-16.0238,-158.8352,175,75
2026-05-09 15:09:18.877,5,-0.7,0.19,-0.25,-2.2923999999999998,-61.6438,-190.9252,175,75
2026-05-09 15:09:18.877,5,-0.59,0.23,-0.21,-39.112399999999994,-102.6438,-218.55519999999999,175,75
2026-05-09 15:09:18.888,5,-0.21,0.13,-0.24,-65.0024,-122.3738,-226.0952,175,75
2026-05-09 15:09:18.900,5,0.32,0.04,-0.2,-76.3124,-102.3438,-218.5152,175,75
2026-05-09 15:09:18.902,5,0.74,0.04,-0.13,-77.13239999999999,-37.383799999999994,-209.3552,175,75
2026-05-09 15:09:18.915,5,0.96,0.1,0.01,-73.94239999999999,55.766200000000005,-200.5652,175,75
2026-05-09 15:09:18.930,5,1.29,0.04,0.23,-67.7324,158.7162,-181.3152,175,75
2026-05-09 15:09:18.942,5,1.85,-0.02,0.64,-58.6324,250.15619999999998,-132.9652,175,75
2026-05-09 15:09:18.942,5,2.0,0.82,0.93,-107.80239999999999,250.15619999999998,30.2648,175,75
2026-05-09 15:09:18.974,5,2.0,0.66,2.0,-220.4124,250.15619999999998,250.2748,175,75
2026-05-09 15:09:18.985,5,0.53,-0.23,1.51,-208.7124,250.15619999999998,166.3848,175,75
2026-05-09 15:09:18.985,5,-0.74,-1.71,1.35,-72.41239999999999,250.15619999999998,33.764799999999994,175,75
2026-05-09 15:09:18.993,5,-2.0,-1.37,1.53,42.357600000000005,250.15619999999998,-17.9952,175,75
2026-05-09 15:09:19.008,5,-2.0,-1.06,0.93,88.8876,250.15619999999998,-106.0452,175,75
2026-05-09 15:09:19.016,5,-2.0,-0.98,0.73,141.3776,250.15619999999998,-149.8252,175,75
2026-05-09 15:09:19.028,5,-2.0,-0.71,0.86,176.5276,199.3662,-184.0952,175,75
2026-05-09 15:09:19.042,5,-2.0,-0.2,1.21,185.51760000000002,32.6062,-181.6852,175,75
2026-05-09 15:09:19.042,5,-2.0,0.25,1.51,164.5876,-133.93380000000002,-151.02519999999998,175,75
2026-05-09 15:09:19.055,5,-2.0,0.51,1.5,138.4676,-250.1138,-104.6452,175,75
2026-05-09 15:09:19.072,5,-1.61,0.48,1.21,119.8976,-250.1138,-82.42519999999999,175,75
2026-05-09 15:09:19.072,5,-0.93,0.27,0.81,111.1576,-250.1138,-68.6452,175,75
2026-05-09 15:09:19.087,5,-0.4,0.15,0.48,114.7776,-250.1138,-60.095200000000006,175,75
2026-05-09 15:09:19.100,5,-0.14,0.15,0.32,120.33760000000001,-250.1138,-67.6152,175,75
2026-05-09 15:09:19.113,5,0.11,0.44,0.14,96.08760000000001,-250.1138,-129.5952,175,75
2026-05-09 15:09:19.134,5,0.3,0.49,-0.05,76.9076,-250.1138,-136.3252,175,75
2026-05-09 15:09:19.134,5,0.64,0.36,-0.42,74.4376,-250.1138,-91.2552,175,75
2026-05-09 15:09:19.145,5,0.91,0.43,-0.68,96.5376,-250.1138,12.7048,175,75
2026-05-09 15:09:19.161,5,1.19,0.25,-0.39,129.1576,-250.1138,112.93480000000001,175,75
2026-05-09 15:09:19.172,5,1.41,0.61,-0.57,123.69760000000001,-250.1138,206.4548,175,75
2026-05-09 15:09:19.182,5,1.25,0.39,-0.38,101.3276,-167.71380000000002,241.2048,175,75
2026-05-09 15:09:19.193,5,0.82,0.13,0.09,64.3576,-0.7138,250.2748,175,75
2026-05-09 15:09:19.204,5,1.25,-0.0,0.65,48.8676,115.7462,250.2748,175,75
2026-05-09 15:09:19.215,5,1.61,-0.58,1.04,32.3176,250.15619999999998,250.2748,175,75
2026-05-09 15:09:19.233,5,1.85,-0.13,0.81,29.3276,250.15619999999998,228.9348,175,75
2026-05-09 15:09:19.233,5,1.36,0.18,1.2,4.0276,250.15619999999998,149.75480000000002,175,75
2026-05-09 15:09:19.247,5,0.06,-0.3,2.0,-18.4224,250.15619999999998,-64.06519999999999,175,75
2026-05-09 15:09:19.259,5,-0.33,-0.97,2.0,-7.362400000000001,250.15619999999998,-161.3552,175,75
2026-05-09 15:09:19.272,5,-1.74,0.28,1.44,28.4876,250.15619999999998,-146.4852,175,75
2026-05-09 15:09:19.284,5,-2.0,-0.14,0.87,37.77760000000001,250.15619999999998,-243.0052,175,75
2026-05-09 15:09:19.295,5,-2.0,-0.17,0.6,23.4976,216.9662,-249.99519999999998,175,75
2026-05-09 15:09:19.295,5,-2.0,-0.14,0.56,12.4576,29.5762,-249.99519999999998,175,75
2026-05-09 15:09:19.320,5,-1.55,0.29,1.09,-30.7024,-250.1138,-204.2952,175,75
2026-05-09 15:09:19.332,5,-0.62,0.27,1.27,-33.8424,-250.1138,-102.0152,175,75
2026-05-09 15:09:19.342,5,-0.06,0.39,1.31,-0.7724,-250.1138,24.2848,175,75
2026-05-09 15:09:19.362,5,0.07,0.29,1.01,69.4876,-250.1138,192.00480000000002,175,75
2026-05-09 15:09:19.372,5,0.03,0.2,0.83,69.4676,-248.49380000000002,242.6748,175,75
2026-05-09 15:09:19.372,5,0.02,0.16,0.75,56.327600000000004,-222.52380000000002,250.2748,175,75
2026-05-09 15:09:19.385,5,0.04,0.04,0.63,37.4176,-185.4738,250.2748,175,75
2026-05-09 15:09:19.396,5,0.06,-0.01,0.56,22.6176,-152.5738,250.2748,175,75
2026-05-09 15:09:19.407,5,0.06,-0.09,0.46,9.807599999999999,-123.5138,250.2748,175,75
2026-05-09 15:09:19.420,5,0.03,-0.04,0.47,2.2876,-99.8138,250.2748,175,75
2026-05-09 15:09:19.433,5,0.07,-0.04,0.48,2.1475999999999997,-62.5638,240.0648,175,75
2026-05-09 15:09:19.444,5,0.11,-0.14,0.58,21.3576,44.336200000000005,132.2648,175,75
2026-05-09 15:09:19.454,5,0.08,-0.21,0.69,36.4176,94.9962,71.26480000000001,175,75
2026-05-09 15:09:19.473,5,0.02,-0.24,0.96,43.997600000000006,128.0762,21.3248,175,75
2026-05-09 15:09:19.473,5,-0.07,-0.29,1.31,44.0176,128.59619999999998,-8.8152,175,75
2026-05-09 15:09:19.485,5,-0.18,-0.27,1.3,45.9376,108.9662,-14.4752,175,75
2026-05-09 15:09:19.505,5,-0.6,-0.04,0.78,47.5476,36.1762,-6.4052,175,75
2026-05-09 15:09:19.517,5,-0.69,0.08,0.68,46.1976,3.8162000000000003,-23.7052,175,75
2026-05-09 15:09:19.551,5,-0.51,0.3,0.67,45.9076,-17.7638,-130.5152,175,75
2026-05-09 15:09:19.561,5,-0.28,0.36,0.73,46.8476,-37.443799999999996,-116.2652,175,75
2026-05-09 15:09:19.573,5,0.23,0.57,1.02,40.5876,-73.4438,-38.025200000000005,175,75
