Time,ID,Ax,Ay,Az,Gx,Gy,Gz,Height,Weight
2026-05-09 16:13:16.676,5,-0.13,0.18,0.52,18.1522,-109.719,48.7992,175,75
2026-05-09 16:13:16.688,5,-0.01,0.15,0.31,15.6722,-131.769,39.4692,175,75
2026-05-09 16:13:16.701,5,0.05,0.13,0.23,11.0422,-134.639,41.5392,175,75
2026-05-09 16:13:16.716,5,0.04,0.07,0.15,8.6922,-135.59900000000002,43.2992,175,75
2026-05-09 16:13:16.727,5,0.02,-0.05,-0.02,13.892199999999999,-139.389,46.1092,175,75
2026-05-09 16:13:16.737,5,0.01,-0.11,-0.17,26.6722,-149.18900000000002,66.6292,175,75
2026-05-09 16:13:16.737,5,0.1,-0.19,-0.29,41.4422,-159.799,84.9992,175,75
2026-05-09 16:13:16.749,5,0.15,-0.18,-0.31,62.3022,-171.15900000000002,104.9692,175,75
2026-05-09 16:13:16.760,5,0.14,-0.23,-0.46,87.1222,-184.809,119.9892,175,75
2026-05-09 16:13:16.771,5,0.1,-0.12,-0.53,93.5622,-203.049,126.9992,175,75
2026-05-09 16:13:16.796,5,0.5,-0.17,-0.7,70.4022,-207.299,121.7992,175,75
2026-05-09 16:13:16.796,5,1.09,-0.31,-0.73,58.7022,-140.299,117.3692,175,75
2026-05-09 16:13:16.816,5,1.02,-0.33,-0.51,52.6722,-33.599,108.3492,175,75
2026-05-09 16:13:16.827,5,1.11,-0.6,-0.1,59.0522,85.921,105.9892,175,75
2026-05-09 16:13:16.827,5,1.12,-0.39,0.6,80.4722,248.101,104.1292,175,75
2026-05-09 16:13:16.838,5,0.76,-0.67,1.1,36.852199999999996,251.21099999999998,59.1992,175,75
2026-05-09 16:13:16.849,5,0.45,-0.04,0.76,11.1322,251.21099999999998,-30.1108,175,75
2026-05-09 16:13:16.861,5,0.51,-0.22,0.84,-19.5278,251.21099999999998,-139.3408,175,75
2026-05-09 16:13:16.872,5,-1.7,-1.6,2.0,1.6922000000000001,251.21099999999998,-249.8108,175,75
2026-05-09 16:13:16.901,5,-0.95,0.86,2.0,-3.7678,251.21099999999998,-249.8108,175,75
2026-05-09 16:13:16.901,5,-1.99,0.75,2.0,-105.1078,251.21099999999998,-249.8108,175,75
2026-05-09 16:13:16.912,5,-2.0,0.23,2.0,-132.1778,251.21099999999998,-249.8108,175,75
2026-05-09 16:13:16.926,5,-2.0,-0.48,1.93,-124.4978,227.191,-240.0808,175,75
2026-05-09 16:13:16.937,5,-2.0,-0.71,1.79,-106.4478,12.860999999999999,56.0192,175,75
2026-05-09 16:13:16.937,5,-2.0,-0.39,2.0,-104.7178,-137.809,250.45919999999998,175,75
2026-05-09 16:13:16.948,5,-2.0,0.02,2.0,-120.4278,-232.199,250.45919999999998,175,75
2026-05-09 16:13:16.971,5,-2.0,0.37,2.0,-134.5478,-249.059,250.45919999999998,175,75
2026-05-09 16:13:16.971,5,-1.69,0.51,2.0,-173.02779999999998,-249.059,250.45919999999998,175,75
2026-05-09 16:13:16.988,5,-1.72,-0.37,2.0,-249.19779999999997,-249.059,250.45919999999998,175,75
2026-05-09 16:13:16.988,5,-1.6,-1.12,1.81,-249.19779999999997,-249.059,250.45919999999998,175,75
2026-05-09 16:13:17.011,5,0.32,-1.91,-0.06,-249.19779999999997,-249.059,250.45919999999998,175,75
2026-05-09 16:13:17.022,5,1.17,-1.74,-0.23,-229.3978,-249.059,250.45919999999998,175,75
2026-05-09 16:13:17.034,5,2.0,-1.17,-0.72,-175.1678,-249.059,192.6892,175,75
2026-05-09 16:13:17.046,5,1.38,-1.17,-1.09,-135.4578,-129.139,-64.8708,175,75
2026-05-09 16:13:17.046,5,-0.12,-1.01,-0.61,-76.3478,-13.249,-230.38080000000002,175,75
2026-05-09 16:13:17.063,5,-0.45,-0.8,-0.28,-3.1577999999999995,21.730999999999998,-249.8108,175,75
2026-05-09 16:13:17.099,5,-0.01,0.35,-0.0,138.68220000000002,194.231,-249.8108,175,75
2026-05-09 16:13:17.116,5,0.3,0.72,-0.02,100.5422,219.911,-249.8108,175,75
2026-05-09 16:13:17.116,5,0.29,1.23,-0.27,70.2522,235.331,-249.8108,175,75
2026-05-09 16:13:17.129,5,0.82,0.76,-0.3,33.4222,218.701,-249.8108,175,75
2026-05-09 16:13:17.143,5,0.75,0.93,-0.46,7.3122,151.231,-120.8108,175,75
2026-05-09 16:13:17.156,5,-0.01,0.92,-0.28,-12.2278,39.931000000000004,0.6792,175,75
2026-05-09 16:13:17.156,5,-0.16,0.65,-0.05,-32.9278,-25.349,23.1092,175,75
2026-05-09 16:13:17.180,5,0.1,0.38,0.05,-41.0178,-28.929000000000002,14.459200000000001,175,75
2026-05-09 16:13:17.180,5,0.33,0.21,0.18,-38.8178,5.771000000000001,9.0892,175,75
2026-05-09 16:13:17.203,5,0.54,0.24,0.26,-39.147800000000004,91.681,41.6492,175,75
2026-05-09 16:13:17.215,5,0.34,0.49,0.12,-26.2078,99.681,74.3492,175,75
2026-05-09 16:13:17.226,5,0.3,0.28,0.48,-15.297799999999999,83.881,117.1792,175,75
2026-05-09 16:13:17.240,5,0.13,0.14,0.46,-4.037800000000001,58.92100000000001,154.11919999999998,175,75
2026-05-09 16:13:17.249,5,0.06,-0.01,0.39,-0.7878,47.001000000000005,162.74919999999997,175,75
2026-05-09 16:13:17.278,5,0.18,-0.22,0.33,18.0522,30.451,181.0992,175,75
2026-05-09 16:13:17.278,5,0.26,-0.32,0.31,26.8422,24.931,188.23919999999998,175,75
2026-05-09 16:13:17.301,5,0.26,-0.4,0.51,26.8922,27.091,192.30919999999998,175,75
2026-05-09 16:13:17.312,5,0.34,-0.51,0.69,22.7622,36.401,182.6392,175,75
2026-05-09 16:13:17.318,5,0.35,-0.68,1.01,22.8222,42.201,149.76919999999998,175,75
2026-05-09 16:13:17.329,5,0.43,-0.94,1.46,31.3622,49.811,92.2392,175,75
2026-05-09 16:13:17.340,5,0.56,-1.25,2.0,40.6322,61.331,30.3592,175,75
2026-05-09 16:13:17.351,5,0.79,-1.41,2.0,47.3722,112.331,-40.6308,175,75
2026-05-09 16:13:17.380,5,-0.67,-0.03,1.58,30.2522,251.21099999999998,-249.8108,175,75
2026-05-09 16:13:17.391,5,-0.88,-0.19,1.74,-9.6778,251.21099999999998,-249.8108,175,75
2026-05-09 16:13:17.406,5,-0.48,0.69,2.0,-57.9178,251.21099999999998,-249.8108,175,75
2026-05-09 16:13:17.408,5,-2.0,0.28,2.0,-77.8178,177.15099999999998,-217.0508,175,75
2026-05-09 16:13:17.422,5,-2.0,0.18,2.0,-98.0378,150.97099999999998,-249.8108,175,75
2026-05-09 16:13:17.427,5,-2.0,0.29,2.0,-123.5678,93.62100000000001,-245.91080000000002,175,75
2026-05-09 16:13:17.438,5,-2.0,0.16,2.0,-127.0178,-21.989,-127.0608,175,75
2026-05-09 16:13:17.448,5,-2.0,-0.07,2.0,-99.8778,-133.989,0.2792,175,75
2026-05-09 16:13:17.463,5,-2.0,-0.27,2.0,-48.0178,-203.46900000000002,78.8292,175,75
2026-05-09 16:13:17.473,5,-2.0,-0.21,2.0,-9.7178,-249.059,128.0892,175,75
2026-05-09 16:13:17.486,5,-1.91,-0.2,1.73,-3.5078,-249.059,151.3592,175,75
2026-05-09 16:13:17.487,5,-1.42,-0.24,1.34,-8.0078,-249.059,128.1592,175,75
2026-05-09 16:13:17.499,5,-0.84,-0.34,0.91,-15.0478,-249.059,100.1192,175,75
2026-05-09 16:13:17.510,5,-0.45,-0.11,0.62,-13.9178,-249.059,97.5692,175,75
2026-05-09 16:13:17.534,5,0.67,-0.77,-0.31,63.3422,-249.059,169.1392,175,75
2026-05-09 16:13:17.548,5,2.0,0.01,-2.0,108.9522,-107.429,84.9892,175,75
2026-05-09 16:13:17.567,5,1.24,-0.76,-2.0,142.21220000000002,124.811,-41.5608,175,75
2026-05-09 16:13:17.567,5,-0.91,-0.82,-1.22,168.7322,53.581,-35.5608,175,75
2026-05-09 16:13:17.589,5,-1.31,-0.26,-0.36,216.46220000000002,-188.18900000000002,-2.1708,175,75
2026-05-09 16:13:17.600,5,-1.39,0.03,-0.28,196.43220000000002,-249.059,-29.3908,175,75
2026-05-09 16:13:17.617,5,-1.36,0.3,-0.34,146.34220000000002,-249.059,-81.9408,175,75
2026-05-09 16:13:17.617,5,-0.94,0.62,-0.65,69.8122,-249.059,-154.2408,175,75
2026-05-09 16:13:17.629,5,0.96,0.5,-1.49,-42.4678,-249.059,-249.8108,175,75
2026-05-09 16:13:17.642,5,0.44,0.35,-1.01,-122.0478,-145.96900000000002,-249.8108,175,75
2026-05-09 16:13:17.652,5,0.07,0.41,-0.41,-167.7378,-85.15899999999999,-249.8108,175,75
2026-05-09 16:13:17.666,5,0.36,0.52,-0.08,-188.19779999999997,-11.149000000000001,-249.8108,175,75
2026-05-09 16:13:17.678,5,1.25,0.65,0.17,-211.9878,112.611,-249.8108,175,75
2026-05-09 16:13:17.678,5,2.0,0.82,0.18,-232.21779999999998,251.21099999999998,-151.8108,175,75
2026-05-09 16:13:17.708,5,1.31,0.39,-0.19,-249.19779999999997,251.21099999999998,41.4092,175,75
2026-05-09 16:13:17.727,5,2.0,2.0,2.0,-249.19779999999997,251.21099999999998,250.45919999999998,175,75
2026-05-09 16:13:17.727,5,-0.16,0.6,2.0,-249.19779999999997,251.21099999999998,250.45919999999998,175,75
2026-05-09 16:13:17.739,5,-0.69,-0.87,2.0,-180.2378,187.861,250.45919999999998,175,75
2026-05-09 16:13:17.752,5,-1.05,-1.21,2.0,-120.6378,251.21099999999998,250.45919999999998,175,75
2026-05-09 16:13:17.763,5,-2.0,-1.19,2.0,-86.8978,251.21099999999998,250.45919999999998,175,75
2026-05-09 16:13:17.788,5,-2.0,-1.91,1.59,-29.0978,220.951,-133.3108,175,75
2026-05-09 16:13:17.817,5,-2.0,-1.49,1.89,203.6322,-78.809,-249.8108,175,75
2026-05-09 16:13:17.817,5,-1.99,-0.58,2.0,251.0722,-179.559,-249.8108,175,75
2026-05-09 16:13:17.838,5,0.05,0.96,1.98,251.0722,-249.059,-249.8108,175,75
2026-05-09 16:13:17.855,5,0.05,1.11,1.43,221.96220000000002,-249.059,-249.8108,175,75
2026-05-09 16:13:17.865,5,0.18,0.99,1.05,183.93220000000002,-249.059,-249.8108,175,75
2026-05-09 16:13:17.871,5,0.35,0.8,0.83,151.74220000000003,-249.059,-249.8108,175,75
2026-05-09 16:13:17.887,5,0.59,0.66,0.59,128.7322,-249.059,-226.20080000000002,175,75
2026-05-09 16:13:17.899,5,1.12,0.75,0.24,120.5622,-228.06900000000002,-57.3708,175,75
2026-05-09 16:13:17.911,5,1.34,0.79,0.13,106.1022,-160.43900000000002,20.6192,175,75
2026-05-09 16:13:17.921,5,1.38,0.76,-0.04,87.1722,-76.969,93.5992,175,75
2026-05-09 16:13:17.947,5,0.23,0.22,-0.03,61.602199999999996,88.48100000000001,162.70919999999998,175,75
2026-05-09 16:13:17.961,5,0.05,0.21,0.02,56.4422,112.771,153.6392,175,75
2026-05-09 16:13:17.976,5,-0.07,0.16,-0.0,52.352199999999996,125.20100000000001,140.6992,175,75
2026-05-09 16:13:17.989,5,-0.27,0.14,-0.23,40.9722,94.961,115.8892,175,75
2026-05-09 16:13:18.002,5,-0.18,-0.02,-0.19,48.3822,57.061,115.7092,175,75
2026-05-09 16:13:18.017,5,0.04,-0.03,-0.64,53.0322,15.600999999999999,135.4192,175,75
2026-05-09 16:13:18.017,5,0.28,-0.17,-0.8,60.5722,-18.309,168.5792,175,75
2026-05-09 16:13:18.028,5,0.51,-0.38,-0.91,71.3622,-39.049,215.51919999999998,175,75
2026-05-09 16:13:18.041,5,0.64,-0.46,-0.91,80.2922,-44.339,250.45919999999998,175,75
2026-05-09 16:13:18.053,5,0.67,-0.51,-0.74,88.4122,-32.439,250.45919999999998,175,75
2026-05-09 16:13:18.064,5,0.47,-0.45,-0.37,90.1222,-4.529,250.45919999999998,175,75
2026-05-09 16:13:18.077,5,0.19,-0.32,0.12,86.8322,41.381,250.45919999999998,175,75
2026-05-09 16:13:18.077,5,0.11,-0.36,0.52,77.1322,118.851,250.45919999999998,175,75
2026-05-09 16:13:18.088,5,0.24,0.57,0.47,52.5522,243.611,197.6392,175,75
2026-05-09 16:13:18.098,5,0.15,0.36,0.93,2.8222,251.21099999999998,50.0892,175,75
2026-05-09 16:13:18.110,5,0.14,0.5,1.22,-53.2678,251.21099999999998,-144.1508,175,75
2026-05-09 16:13:18.146,5,0.8,-0.07,2.0,-178.72779999999997,251.21099999999998,-249.8108,175,75
2026-05-09 16:13:18.157,5,-1.41,-0.54,2.0,-183.5878,251.21099999999998,-191.41080000000002,175,75
2026-05-09 16:13:18.157,5,-2.0,-1.07,2.0,-81.73780000000001,251.21099999999998,-44.5508,175,75
2026-05-09 16:13:18.186,5,-2.0,-0.43,2.0,35.3422,-18.439,76.4292,175,75
2026-05-09 16:13:18.198,5,-2.0,0.06,2.0,-13.8478,-249.059,59.4392,175,75
2026-05-09 16:13:18.198,5,-2.0,0.03,2.0,-63.5878,-249.059,86.0292,175,75
2026-05-09 16:13:18.208,5,-1.88,-0.43,1.51,-67.0778,-249.059,147.14919999999998,175,75
2026-05-09 16:13:18.224,5,-0.58,-0.79,0.68,-45.6178,-249.059,202.2892,175,75
2026-05-09 16:13:18.238,5,0.01,-0.62,0.15,-33.2378,-249.059,250.45919999999998,175,75
2026-05-09 16:13:18.259,5,1.56,-0.71,-0.56,-32.5678,-249.059,250.45919999999998,175,75
2026-05-09 16:13:18.266,5,2.0,-1.13,-1.85,-0.44779999999999986,-249.059,243.5692,175,75
2026-05-09 16:13:18.266,5,2.0,-0.37,-2.0,-12.2078,-249.059,118.2492,175,75
2026-05-09 16:13:18.278,5,0.15,-0.31,-0.74,13.2722,-175.96900000000002,46.7892,175,75
2026-05-09 16:13:18.296,5,-0.44,-0.54,-0.21,44.852199999999996,-169.15900000000002,12.1992,175,75
2026-05-09 16:13:18.306,5,-0.46,-0.44,0.08,63.3922,-159.31900000000002,-18.5508,175,75
2026-05-09 16:13:18.322,5,-0.54,0.03,0.28,49.7322,-116.04899999999999,-119.2508,175,75
2026-05-09 16:13:18.334,5,-0.69,0.27,0.34,17.0422,-94.209,-193.69080000000002,175,75
2026-05-09 16:13:18.359,5,-0.53,0.71,0.16,-110.4478,-78.389,-249.8108,175,75
2026-05-09 16:13:18.371,5,-0.14,0.59,-0.19,-140.68779999999998,-84.819,-249.8108,175,75
2026-05-09 16:13:18.383,5,1.82,0.16,-0.91,-126.3378,-28.459,-249.8108,175,75
2026-05-09 16:13:18.394,5,2.0,0.25,-1.44,-81.8378,144.25099999999998,-141.9208,175,75
2026-05-09 16:13:18.407,5,0.51,0.51,-0.56,-73.0078,215.601,-46.6608,175,75
2026-05-09 16:13:18.407,5,-0.12,0.35,-0.24,-80.0478,224.611,-30.9708,175,75
2026-05-09 16:13:18.421,5,-0.15,0.14,-0.16,-75.2978,219.391,-26.1908,175,75
2026-05-09 16:13:18.436,5,0.1,-0.08,-0.13,-55.2278,220.72099999999998,4.2292,175,75
2026-05-09 16:13:18.436,5,0.25,-0.07,-0.06,-33.8178,232.78099999999998,40.9892,175,75
2026-05-09 16:13:18.447,5,0.28,0.01,0.09,-14.8778,251.21099999999998,79.7292,175,75
2026-05-09 16:13:18.477,5,0.44,0.25,0.04,-14.5878,251.21099999999998,134.99919999999997,175,75
2026-05-09 16:13:18.477,5,0.52,0.16,0.24,-14.2378,251.21099999999998,169.3492,175,75
2026-05-09 16:13:18.525,5,0.64,0.23,0.39,-20.3578,251.21099999999998,216.21919999999997,175,75
2026-05-09 16:13:18.525,5,1.01,0.48,0.8,-41.1078,251.21099999999998,250.45919999999998,175,75
2026-05-09 16:13:18.525,5,0.89,0.85,2.0,-75.6278,251.21099999999998,250.45919999999998,175,75
2026-05-09 16:13:18.537,5,-1.12,-1.26,2.0,-1.6978,-142.62900000000002,250.45919999999998,175,75
2026-05-09 16:13:18.549,5,0.57,-0.41,1.82,-37.1178,-177.34900000000002,131.0392,175,75
2026-05-09 16:13:18.561,5,-0.18,-0.91,1.97,-45.0078,251.21099999999998,-70.9508,175,75
2026-05-09 16:13:18.571,5,-0.66,-1.21,2.0,-37.0778,251.21099999999998,-177.23080000000002,175,75
2026-05-09 16:13:18.582,5,-1.06,-1.72,2.0,-12.4978,251.21099999999998,-249.8108,175,75
2026-05-09 16:13:18.597,5,-2.0,-1.5,2.0,8.6722,251.21099999999998,-249.8108,175,75
2026-05-09 16:13:18.608,5,-1.97,-0.99,2.0,34.8322,211.90099999999998,-249.8108,175,75
2026-05-09 16:13:18.608,5,-2.0,-0.47,2.0,77.7222,77.09100000000001,-249.8108,175,75
2026-05-09 16:13:18.628,5,-2.0,-0.0,2.0,116.6622,-52.759,-179.63080000000002,175,75
2026-05-09 16:13:18.639,5,-2.0,0.48,2.0,121.01219999999999,-217.27900000000002,-117.4808,175,75
2026-05-09 16:13:18.639,5,-2.0,0.62,1.98,89.2022,-249.059,-67.7208,175,75
2026-05-09 16:13:18.649,5,-1.63,0.6,1.62,55.3622,-249.059,-27.5808,175,75
2026-05-09 16:13:18.662,5,-0.7,0.46,1.27,30.8322,-249.059,21.1892,175,75
2026-05-09 16:13:18.672,5,-0.06,0.28,0.87,25.8322,-249.059,79.6192,175,75
2026-05-09 16:13:18.683,5,0.67,0.08,0.41,39.5322,-249.059,129.7592,175,75
2026-05-09 16:13:18.693,5,1.35,0.08,0.06,70.6922,-249.059,232.2892,175,75
2026-05-09 16:13:18.712,5,2.0,0.42,-1.32,107.26219999999999,-249.059,250.45919999999998,175,75
2026-05-09 16:13:18.723,5,1.73,0.42,-1.82,111.6122,-70.779,250.45919999999998,175,75
2026-05-09 16:13:18.736,5,0.1,-0.18,-1.22,92.9422,-11.839,238.98919999999998,175,75
2026-05-09 16:13:18.747,5,-0.85,-0.59,-0.72,107.9322,-54.538999999999994,165.2292,175,75
2026-05-09 16:13:18.758,5,-1.21,-0.47,-0.31,154.8822,-191.18900000000002,9.8192,175,75
2026-05-09 16:13:18.768,5,-1.13,-0.39,-0.44,158.09220000000002,-249.059,-47.2208,175,75
2026-05-09 16:13:18.779,5,-1.11,-0.11,-0.6,137.06220000000002,-249.059,-87.8108,175,75
2026-05-09 16:13:18.788,5,-0.76,0.12,-0.88,77.7122,-249.059,-139.29080000000002,175,75
2026-05-09 16:13:18.799,5,-0.12,0.16,-1.19,0.2822,-249.059,-191.9208,175,75
2026-05-09 16:13:18.814,5,0.31,0.17,-0.97,-65.6878,-249.059,-215.75080000000003,175,75
2026-05-09 16:13:18.825,5,0.31,0.28,-0.53,-112.3678,-154.859,-226.45080000000002,175,75
2026-05-09 16:13:18.834,5,0.46,0.39,-0.25,-140.3678,-39.419,-238.20080000000002,175,75
2026-05-09 16:13:18.846,5,0.73,0.43,0.05,-161.37779999999998,90.021,-249.8108,175,75
2026-05-09 16:13:18.856,5,1.67,0.42,0.21,-172.28779999999998,251.21099999999998,-230.3308,175,75
2026-05-09 16:13:18.856,5,2.0,0.55,0.35,-180.3278,251.21099999999998,-112.5408,175,75
2026-05-09 16:13:18.870,5,2.0,1.03,-0.49,-235.7678,251.21099999999998,18.6692,175,75
2026-05-09 16:13:18.881,5,1.48,0.54,-0.27,-249.19779999999997,251.21099999999998,39.8792,175,75
2026-05-09 16:13:18.895,5,1.23,0.35,-0.44,-249.19779999999997,251.21099999999998,77.1792,175,75
2026-05-09 16:13:18.907,5,2.0,2.0,2.0,-249.19779999999997,251.21099999999998,250.45919999999998,175,75
2026-05-09 16:13:18.912,5,-1.95,0.95,2.0,-189.3678,251.21099999999998,250.45919999999998,175,75
2026-05-09 16:13:18.930,5,-2.0,-0.77,1.92,-129.78779999999998,251.21099999999998,87.0892,175,75
2026-05-09 16:13:18.941,5,-2.0,-1.61,2.0,-107.6478,251.21099999999998,-125.1408,175,75
2026-05-09 16:13:18.953,5,-2.0,-2.0,1.8,-47.8778,217.641,-249.8108,175,75
2026-05-09 16:13:18.960,5,-2.0,-2.0,1.7,40.2022,89.901,-249.8108,175,75
2026-05-09 16:13:18.969,5,-2.0,-1.97,1.75,154.7322,-51.759,-249.8108,175,75
2026-05-09 16:13:18.977,5,-2.0,-0.92,1.95,241.9122,-188.239,-249.8108,175,75
2026-05-09 16:13:18.988,5,-1.61,0.26,2.0,251.0722,-249.059,-249.8108,175,75
2026-05-09 16:13:19.009,5,0.19,1.16,1.48,251.0722,-249.059,-249.8108,175,75
2026-05-09 16:13:19.026,5,0.49,1.24,1.13,241.99220000000003,-249.059,-249.8108,175,75
2026-05-09 16:13:19.039,5,0.71,1.15,0.85,196.43220000000002,-249.059,-249.8108,175,75
2026-05-09 16:13:19.039,5,1.06,0.89,0.5,163.9222,-249.059,-226.4208,175,75
2026-05-09 16:13:19.050,5,1.88,0.76,0.16,158.3322,-249.059,-97.0408,175,75
2026-05-09 16:13:19.064,5,1.65,0.78,0.12,141.5422,-165.90900000000002,21.1392,175,75
2026-05-09 16:13:19.076,5,1.04,0.79,0.15,100.8822,-75.589,84.4592,175,75
2026-05-09 16:13:19.076,5,0.63,0.55,0.12,64.68220000000001,-9.869,113.2692,175,75
2026-05-09 16:13:19.089,5,0.35,0.33,0.1,38.9922,40.741,130.39919999999998,175,75
2026-05-09 16:13:19.099,5,0.11,0.15,0.09,22.9422,73.031,138.98919999999998,175,75
2026-05-09 16:13:19.136,5,-0.21,-0.04,-0.13,17.0822,83.061,113.5992,175,75
2026-05-09 16:13:19.150,5,-0.24,-0.23,-0.2,25.2122,48.901,77.7092,175,75
2026-05-09 16:13:19.166,5,-0.07,-0.0,-0.63,22.432199999999998,26.980999999999998,44.0892,175,75
2026-05-09 16:13:19.172,5,-0.04,0.03,-0.74,13.8222,8.161,6.6992,175,75
2026-05-09 16:13:19.187,5,-0.11,-0.03,-0.71,7.7222,-19.579,-17.8908,175,75
2026-05-09 16:13:19.187,5,-0.02,-0.25,-0.78,14.6022,-51.449,-16.9708,175,75
2026-05-09 16:13:19.197,5,0.34,-0.33,-0.71,25.9522,-67.039,10.5692,175,75
2026-05-09 16:13:19.209,5,0.68,-0.25,-0.39,30.9122,-42.718999999999994,42.7892,175,75
2026-05-09 16:13:19.219,5,0.71,-0.35,-0.13,28.6022,9.261,67.2592,175,75
2026-05-09 16:13:19.237,5,0.78,-0.36,0.11,27.5722,78.661,94.3692,175,75
2026-05-09 16:13:19.237,5,1.18,-0.46,0.45,41.1422,187.90099999999998,119.2692,175,75
2026-05-09 16:13:19.266,5,1.38,0.44,1.29,1.7722,251.21099999999998,60.2792,175,75
2026-05-09 16:13:19.266,5,0.0,-0.16,2.0,-13.937800000000001,251.21099999999998,-176.8008,175,75
2026-05-09 16:13:19.279,5,2.0,0.84,2.0,-81.8078,251.21099999999998,-249.8108,175,75
2026-05-09 16:13:19.306,5,-1.08,0.0,2.0,-248.3278,251.21099999999998,-249.8108,175,75
2026-05-09 16:13:19.316,5,-2.0,-0.71,2.0,-200.78779999999998,251.21099999999998,-249.8108,175,75
2026-05-09 16:13:19.336,5,-2.0,-0.54,2.0,-22.6578,61.301,91.2692,175,75
2026-05-09 16:13:19.338,5,-2.0,-0.08,2.0,-12.8078,-147.459,170.01919999999998,175,75
2026-05-09 16:13:19.354,5,-2.0,0.15,2.0,-55.7078,-249.059,168.8892,175,75
2026-05-09 16:13:19.367,5,-2.0,-0.27,2.0,-82.6278,-249.059,177.49919999999997,175,75
2026-05-09 16:13:19.367,5,-0.95,-0.61,1.55,-76.73780000000001,-249.059,202.08919999999998,175,75
2026-05-09 16:13:19.378,5,0.2,-0.32,1.1,-57.4378,-249.059,243.58919999999998,175,75
2026-05-09 16:13:19.388,5,0.62,-0.67,0.56,-35.397800000000004,-249.059,250.45919999999998,175,75
2026-05-09 16:13:19.401,5,0.96,-0.56,-0.0,-20.3678,-249.059,238.64919999999998,175,75
2026-05-09 16:13:19.411,5,2.0,-0.66,-0.68,4.962199999999999,-249.059,221.21919999999997,175,75
2026-05-09 16:13:19.420,5,2.0,-0.62,-1.36,38.4322,-249.059,173.54919999999998,175,75
2026-05-09 16:13:19.428,5,1.17,-0.26,-0.79,48.6922,-94.449,108.4392,175,75
2026-05-09 16:13:19.457,5,-0.47,-0.3,0.09,87.0422,-3.2689999999999997,2.6392,175,75
2026-05-09 16:13:19.457,5,-0.64,-0.25,0.15,96.4022,1.9409999999999998,-46.8608,175,75
2026-05-09 16:13:19.474,5,-0.74,-0.16,0.19,96.8622,-2.019,-102.9408,175,75
2026-05-09 16:13:19.484,5,-0.75,-0.03,0.21,89.9922,-8.689,-158.44080000000002,175,75
2026-05-09 16:13:19.494,5,-0.69,0.13,0.19,73.2822,-15.568999999999999,-210.00080000000003,175,75
2026-05-09 16:13:19.500,5,-0.59,0.29,0.12,47.6922,-22.319,-249.8108,175,75
2026-05-09 16:13:19.524,5,-0.52,0.36,0.03,-21.8778,-52.259,-249.8108,175,75
2026-05-09 16:13:19.537,5,-0.28,0.88,-0.37,-71.8278,-80.309,-249.8108,175,75
2026-05-09 16:13:19.559,5,1.58,0.78,-0.98,-113.6678,-37.218999999999994,-223.1808,175,75
2026-05-09 16:13:19.559,5,1.31,0.75,-0.81,-105.8378,28.741,-73.4008,175,75
2026-05-09 16:13:19.577,5,0.43,0.56,-0.45,-101.5078,70.401,3.9792,175,75
2026-05-09 16:13:19.577,5,0.22,0.23,-0.26,-86.73780000000001,100.431,36.0192,175,75
2026-05-09 16:13:19.590,5,0.33,-0.1,-0.09,-59.1378,137.72099999999998,64.7092,175,75
2026-05-09 16:13:19.606,5,0.55,-0.29,0.06,-25.6078,189.101,108.3192,175,75
2026-05-09 16:13:19.618,5,0.86,0.16,-0.37,-10.4078,244.101,156.70919999999998,175,75
2026-05-09 16:13:19.628,5,0.93,-0.12,0.12,7.0922,251.21099999999998,221.23919999999998,175,75
2026-05-09 16:13:19.642,5,1.02,-0.13,0.28,34.2522,251.21099999999998,250.45919999999998,175,75
2026-05-09 16:13:19.659,5,-0.09,0.14,2.0,23.7322,251.21099999999998,250.45919999999998,175,75
2026-05-09 16:13:19.659,5,-0.25,-1.01,2.0,3.7922000000000002,-144.15900000000002,250.45919999999998,175,75
2026-05-09 16:13:19.674,5,0.91,-1.19,2.0,50.1422,-91.449,96.8592,175,75
2026-05-09 16:13:19.684,5,-0.37,0.2,1.95,27.8322,-44.619,-119.1008,175,75
2026-05-09 16:13:19.697,5,-0.21,0.28,1.58,-26.9578,118.301,-249.8108,175,75
2026-05-09 16:13:19.697,5,-0.48,0.25,1.74,-79.0678,251.21099999999998,-249.8108,175,75
2026-05-09 16:13:19.730,5,-0.11,-0.44,2.0,-199.5878,251.21099999999998,-249.8108,175,75
2026-05-09 16:13:19.741,5,-0.71,-0.27,2.0,-117.7778,251.21099999999998,-21.5508,175,75
2026-05-09 16:13:19.751,5,-2.0,-0.25,2.0,-52.9978,195.541,114.6392,175,75
2026-05-09 16:13:19.762,5,-2.0,-0.33,2.0,-20.3878,80.671,88.5392,175,75
2026-05-09 16:13:19.772,5,-2.0,-0.26,2.0,-13.0678,-61.648999999999994,19.4292,175,75
2026-05-09 16:13:19.787,5,-2.0,-0.27,2.0,-20.0378,-249.059,-1.3808,175,75
2026-05-09 16:13:19.787,5,-2.0,-0.29,1.82,-10.3278,-249.059,-3.3108,175,75
2026-05-09 16:13:19.805,5,-1.23,-0.27,1.29,10.4622,-249.059,9.8192,175,75
2026-05-09 16:13:19.819,5,0.06,-0.05,0.41,45.0722,-249.059,67.3092,175,75
2026-05-09 16:13:19.831,5,0.81,-0.19,-0.19,79.8322,-249.059,115.8892,175,75
2026-05-09 16:13:19.858,5,2.0,0.22,-1.71,142.4222,-249.059,250.45919999999998,175,75
2026-05-09 16:13:19.858,5,2.0,0.87,-2.0,142.65220000000002,-175.99900000000002,250.45919999999998,175,75
2026-05-09 16:13:19.884,5,-0.47,-0.36,-0.72,93.0722,-46.939,107.9892,175,75
2026-05-09 16:13:19.896,5,-1.05,-0.82,-0.41,132.8322,-109.649,98.0392,175,75
2026-05-09 16:13:19.917,5,-1.33,-0.52,-0.24,192.84220000000002,-249.059,22.3792,175,75
2026-05-09 16:13:19.919,5,-1.45,-0.13,-0.18,182.05220000000003,-249.059,-20.3808,175,75
2026-05-09 16:13:19.932,5,-1.29,0.48,-0.24,110.3622,-249.059,-80.7008,175,75
2026-05-09 16:13:19.938,5,-0.61,0.6,-0.99,-13.1678,-249.059,-150.07080000000002,175,75
2026-05-09 16:13:19.949,5,-0.01,0.38,-1.05,-138.9278,-249.059,-216.0908,175,75
2026-05-09 16:13:19.961,5,0.01,0.34,-0.5,-203.8078,-233.649,-244.6708,175,75
2026-05-09 16:13:19.975,5,0.27,0.29,-0.17,-222.99779999999998,-130.449,-249.8108,175,75
2026-05-09 16:13:19.987,5,0.62,0.34,0.28,-226.59779999999998,12.030999999999999,-249.8108,175,75
2026-05-09 16:13:19.999,5,1.16,0.39,0.35,-224.4278,179.00099999999998,-249.8108,175,75
2026-05-09 16:13:19.999,5,1.66,0.26,0.5,-237.81779999999998,251.21099999999998,-249.8108,175,75
2026-05-09 16:13:20.009,5,2.0,0.68,0.46,-249.19779999999997,251.21099999999998,-225.5508,175,75
2026-05-09 16:13:20.019,5,2.0,1.13,0.39,-249.19779999999997,251.21099999999998,-88.4408,175,75
2026-05-09 16:13:20.041,5,2.0,0.82,-0.36,-249.19779999999997,251.21099999999998,-43.4408,175,75
2026-05-09 16:13:20.041,5,2.0,0.84,-0.44,-249.19779999999997,251.21099999999998,25.0892,175,75
2026-05-09 16:13:20.061,5,-2.0,0.17,2.0,-191.21779999999998,251.21099999999998,250.45919999999998,175,75
2026-05-09 16:13:20.078,5,-2.0,-0.89,2.0,-118.1778,251.21099999999998,250.45919999999998,175,75
2026-05-09 16:13:20.078,5,-2.0,-1.07,2.0,-91.2578,251.21099999999998,160.08919999999998,175,75
2026-05-09 16:13:20.091,5,-2.0,-1.5,2.0,-69.2478,251.21099999999998,-96.6508,175,75
2026-05-09 16:13:20.108,5,-2.0,-1.75,1.67,-20.6178,98.301,-249.8108,175,75
2026-05-09 16:13:20.108,5,-2.0,-1.8,1.3,68.5422,-151.389,-249.8108,175,75
2026-05-09 16:13:20.126,5,-2.0,-1.53,1.3,167.12220000000002,-249.059,-249.8108,175,75
2026-05-09 16:13:20.138,5,-1.66,-0.89,1.49,237.15220000000002,-249.059,-249.8108,175,75
2026-05-09 16:13:20.149,5,-0.85,0.13,1.6,251.0722,-249.059,-249.8108,175,75
2026-05-09 16:13:20.149,5,-0.18,0.56,1.32,251.0722,-249.059,-249.8108,175,75
2026-05-09 16:13:20.166,5,0.37,1.03,0.89,248.12220000000002,-249.059,-249.8108,175,75
2026-05-09 16:13:20.176,5,0.49,1.15,0.59,225.03220000000002,-249.059,-249.8108,175,75
2026-05-09 16:13:20.182,5,0.82,1.14,0.38,189.50220000000002,-249.059,-249.8108,175,75
2026-05-09 16:13:20.198,5,1.63,0.95,0.1,164.6722,-249.059,-238.29080000000002,175,75
2026-05-09 16:13:20.208,5,2.0,0.91,-0.15,159.7322,-249.059,-108.6908,175,75
2026-05-09 16:13:20.208,5,1.89,0.93,-0.11,138.6422,-154.31900000000002,-5.9108,175,75
2026-05-09 16:13:20.228,5,1.0,0.71,0.05,103.6022,-42.888999999999996,35.3092,175,75
2026-05-09 16:13:20.228,5,0.47,0.51,0.09,77.4422,26.841,41.9692,175,75
2026-05-09 16:13:20.241,5,0.18,0.33,0.14,59.5422,73.541,35.9892,175,75
2026-05-09 16:13:20.254,5,0.05,0.17,0.12,50.9922,103.381,32.7992,175,75
2026-05-09 16:13:20.268,5,-0.09,0.03,0.02,49.2522,115.171,38.8192,175,75
2026-05-09 16:13:20.268,5,-0.05,0.0,-0.04,55.8622,114.721,50.6392,175,75
2026-05-09 16:13:20.279,5,-0.07,0.01,-0.08,63.5422,113.271,74.4392,175,75
2026-05-09 16:13:20.313,5,-0.11,-0.11,-0.16,75.8922,56.291000000000004,124.9692,175,75
2026-05-09 16:13:20.322,5,-0.1,0.05,-0.4,77.9222,23.551,139.4492,175,75
2026-05-09 16:13:20.337,5,-0.03,-0.02,-0.56,79.4522,-13.339,154.8192,175,75
2026-05-09 16:13:20.347,5,0.05,-0.16,-0.76,83.6922,-52.778999999999996,171.5092,175,75
2026-05-09 16:13:20.359,5,0.36,-0.3,-0.92,90.5022,-77.289,183.70919999999998,175,75
2026-05-09 16:13:20.369,5,0.95,-0.45,-1.12,93.0422,-57.159,182.5992,175,75
2026-05-09 16:13:20.369,5,1.12,-0.54,-0.95,95.4422,10.850999999999999,165.04919999999998,175,75
2026-05-09 16:13:20.380,5,0.81,-0.56,-0.39,95.2722,88.031,157.6092,175,75
2026-05-09 16:13:20.402,5,0.65,-0.71,0.13,98.7122,166.421,165.48919999999998,175,75
2026-05-09 16:13:20.402,5,0.76,-0.16,0.78,108.7122,251.21099999999998,151.79919999999998,175,75
2026-05-09 16:13:20.415,5,0.34,0.7,0.57,44.3722,251.21099999999998,54.7792,175,75
2026-05-09 16:13:20.427,5,-0.05,0.4,1.32,8.6622,251.21099999999998,-115.8808,175,75
2026-05-09 16:13:20.439,5,-1.24,-0.15,2.0,35.8322,251.21099999999998,-249.8108,175,75
2026-05-09 16:13:20.445,5,2.0,1.84,2.0,-42.3778,251.21099999999998,-249.8108,175,75
2026-05-09 16:13:20.453,5,0.22,1.65,2.0,-217.03779999999998,251.21099999999998,-249.8108,175,75
2026-05-09 16:13:20.460,5,-0.52,0.91,2.0,-249.19779999999997,251.21099999999998,-249.8108,175,75
2026-05-09 16:13:20.471,5,-1.9,-0.33,2.0,-247.0778,251.21099999999998,-249.8108,175,75
2026-05-09 16:13:20.478,5,-2.0,-1.06,2.0,-129.1078,179.391,-117.7608,175,75
2026-05-09 16:13:20.496,5,-2.0,-0.95,2.0,-30.8278,29.241,192.6092,175,75
2026-05-09 16:13:20.503,5,-2.0,-0.22,2.0,1.9622000000000002,-92.419,250.45919999999998,175,75
2026-05-09 16:13:20.519,5,-2.0,0.31,2.0,-2.3977999999999997,-198.559,250.45919999999998,175,75
2026-05-09 16:13:20.529,5,-2.0,0.51,2.0,-9.767800000000001,-249.059,250.45919999999998,175,75
2026-05-09 16:13:20.529,5,-1.61,0.44,2.0,-68.2778,-249.059,250.45919999999998,175,75
2026-05-09 16:13:20.541,5,-0.98,0.34,1.49,-163.93779999999998,-249.059,250.45919999999998,175,75
2026-05-09 16:13:20.558,5,0.25,-0.56,0.53,-231.24779999999998,-249.059,250.45919999999998,175,75
2026-05-09 16:13:20.568,5,1.49,-0.76,-0.03,-225.28779999999998,-249.059,250.45919999999998,175,75
2026-05-09 16:13:20.578,5,2.0,-1.08,-0.93,-181.2978,-249.059,250.45919999999998,175,75
2026-05-09 16:13:20.578,5,2.0,-0.72,-1.88,-150.4578,-249.059,250.45919999999998,175,75
2026-05-09 16:13:20.625,5,-0.88,-0.2,0.08,-53.1778,-57.159,-204.53080000000003,175,75
2026-05-09 16:13:20.637,5,-0.75,-0.19,-0.12,-25.1978,-72.079,-249.8108,175,75
2026-05-09 16:13:20.648,5,-0.58,-0.11,0.01,-3.6378,-78.54899999999999,-249.8108,175,75
2026-05-09 16:13:20.660,5,-0.39,-0.03,-0.06,13.5822,-84.259,-249.8108,175,75
2026-05-09 16:13:20.660,5,-0.36,0.16,-0.13,20.9222,-89.699,-249.8108,175,75
2026-05-09 16:13:20.676,5,-0.26,0.4,-0.26,11.0722,-98.369,-249.8108,175,75
2026-05-09 16:13:20.686,5,0.14,0.35,0.05,17.5722,-101.37899999999999,-249.8108,175,75
2026-05-09 16:13:20.693,5,0.99,0.98,-0.88,-0.16780000000000006,-54.509,-175.75080000000003,175,75
2026-05-09 16:13:20.709,5,0.88,0.95,-0.81,-2.5078,7.991,-66.3008,175,75
2026-05-09 16:13:20.709,5,0.14,0.99,-0.59,-16.7878,51.331,-13.8208,175,75
2026-05-09 16:13:20.724,5,-0.12,0.67,-0.41,-19.6578,74.721,0.8792,175,75
2026-05-09 16:13:20.738,5,-0.03,0.39,-0.32,-7.267800000000001,96.37100000000001,21.7092,175,75
2026-05-09 16:13:20.738,5,0.09,0.13,-0.24,17.6622,124.021,68.8392,175,75
2026-05-09 16:13:20.753,5,-0.07,-0.05,-0.01,38.7022,143.511,115.8592,175,75
2026-05-09 16:13:20.764,5,0.15,-0.09,0.03,54.1822,163.231,165.92919999999998,175,75
2026-05-09 16:13:20.775,5,0.37,-0.11,0.09,70.0722,205.09099999999998,224.1092,175,75
2026-05-09 16:13:20.785,5,0.59,-0.09,0.15,65.9022,251.21099999999998,250.45919999999998,175,75
2026-05-09 16:13:20.796,5,0.84,0.17,0.18,65.5722,251.21099999999998,250.45919999999998,175,75
2026-05-09 16:13:20.802,5,1.19,0.16,0.24,63.4722,251.21099999999998,250.45919999999998,175,75
2026-05-09 16:13:20.813,5,1.44,0.18,0.32,63.6622,251.21099999999998,250.45919999999998,175,75
2026-05-09 16:13:20.829,5,-2.0,-1.22,2.0,57.0822,251.21099999999998,248.49919999999997,175,75
2026-05-09 16:13:20.829,5,1.12,-0.49,2.0,-67.4578,-249.059,-188.6808,175,75
2026-05-09 16:13:20.848,5,1.92,-0.28,1.59,-67.8978,-249.059,-149.88080000000002,175,75
2026-05-09 16:13:20.863,5,2.0,-0.39,2.0,-70.5278,53.481,-130.3308,175,75
2026-05-09 16:13:20.863,5,2.0,-0.41,2.0,-76.2578,251.21099999999998,-117.9708,175,75
2026-05-09 16:13:20.877,5,1.48,-0.38,2.0,-82.6578,251.21099999999998,-111.2108,175,75
2026-05-09 16:13:20.888,5,-0.29,-0.57,2.0,-54.147800000000004,251.21099999999998,-115.6608,175,75
2026-05-09 16:13:20.898,5,-1.89,0.67,2.0,32.8322,251.21099999999998,110.3592,175,75
2026-05-09 16:13:20.898,5,-2.0,0.58,2.0,37.0622,117.401,141.61919999999998,175,75
2026-05-09 16:13:20.909,5,-2.0,0.32,2.0,-16.5878,-25.699,39.7592,175,75
2026-05-09 16:13:20.935,5,-2.0,-0.17,2.0,-52.9678,-157.199,-4.6208,175,75
2026-05-09 16:13:20.945,5,-1.63,-0.57,1.48,-30.1878,-249.059,99.3492,175,75
2026-05-09 16:13:20.956,5,-0.74,-0.63,1.14,-11.6678,-249.059,151.11919999999998,175,75
2026-05-09 16:13:20.968,5,0.12,-0.39,0.84,4.3822,-249.059,191.2292,175,75
2026-05-09 16:13:20.971,5,0.38,-0.28,0.47,11.6022,-249.059,236.14919999999998,175,75
2026-05-09 16:13:20.983,5,0.67,-0.26,-0.17,11.6222,-249.059,250.45919999999998,175,75
2026-05-09 16:13:20.989,5,2.0,-0.38,-1.29,22.8922,-249.059,250.45919999999998,175,75
2026-05-09 16:13:21.002,5,2.0,-0.07,-2.0,19.3122,-112.51899999999999,250.45919999999998,175,75
2026-05-09 16:13:21.013,5,0.26,-0.41,-0.93,62.6622,25.570999999999998,248.23919999999998,175,75
2026-05-09 16:13:21.026,5,-0.91,-0.36,-0.31,86.0422,12.741,168.46919999999997,175,75
2026-05-09 16:13:21.038,5,-1.29,-0.42,-0.13,113.6422,-27.699,77.8692,175,75
2026-05-09 16:13:21.049,5,-1.65,-0.15,-0.05,133.87220000000002,-99.499,-33.4508,175,75
2026-05-09 16:13:21.049,5,-1.37,0.08,-0.03,125.8422,-167.579,-116.3308,175,75
2026-05-09 16:13:21.060,5,-1.14,0.13,-0.22,106.6022,-224.239,-177.01080000000002,175,75
2026-05-09 16:13:21.072,5,-0.72,0.23,-0.84,83.4122,-249.059,-229.75080000000003,175,75
2026-05-09 16:13:21.084,5,0.62,0.27,-2.0,35.3422,-225.839,-249.8108,175,75
2026-05-09 16:13:21.098,5,0.8,0.29,-1.6,-12.857800000000001,-146.209,-249.8108,175,75
2026-05-09 16:13:21.108,5,0.1,0.48,-0.61,-50.1678,-109.589,-185.88080000000002,175,75
2026-05-09 16:13:21.119,5,-0.28,0.56,-0.09,-80.1278,-81.579,-161.4608,175,75
2026-05-09 16:13:21.119,5,-0.1,0.49,0.17,-104.7278,-42.248999999999995,-170.7408,175,75
2026-05-09 16:13:21.138,5,0.54,0.44,0.26,-112.2178,40.461000000000006,-155.20080000000002,175,75
2026-05-09 16:13:21.139,5,1.54,0.43,0.34,-114.3678,184.90099999999998,-93.4008,175,75
2026-05-09 16:13:21.150,5,2.0,0.65,0.36,-131.4178,251.21099999999998,36.9592,175,75
2026-05-09 16:13:21.161,5,2.0,0.84,0.24,-176.22779999999997,251.21099999999998,185.6292,175,75
2026-05-09 16:13:21.173,5,1.59,0.46,-0.16,-211.5578,251.21099999999998,250.45919999999998,175,75
2026-05-09 16:13:21.184,5,1.89,0.4,-0.04,-214.24779999999998,251.21099999999998,250.45919999999998,175,75
2026-05-09 16:13:21.195,5,0.45,1.05,2.0,-174.52779999999998,251.21099999999998,250.45919999999998,175,75
2026-05-09 16:13:21.205,5,-1.17,-0.87,2.0,-110.1878,138.97099999999998,250.45919999999998,175,75
2026-05-09 16:13:21.221,5,-2.0,-0.93,2.0,-70.7778,251.21099999999998,94.7392,175,75
2026-05-09 16:13:21.242,5,-2.0,-1.09,1.95,-30.8278,251.21099999999998,-125.3308,175,75
2026-05-09 16:13:21.253,5,-2.0,-1.62,1.85,22.8922,251.21099999999998,-249.8108,175,75
2026-05-09 16:13:21.253,5,-2.0,-1.66,2.0,65.8122,175.421,-249.8108,175,75
2026-05-09 16:13:21.279,5,-1.74,-0.71,2.0,145.53220000000002,-166.019,-249.8108,175,75
2026-05-09 16:13:21.279,5,-0.85,0.27,2.0,154.00220000000002,-249.059,-231.04080000000002,175,75
2026-05-09 16:13:21.292,5,-0.5,0.49,1.88,143.9822,-249.059,-214.69080000000002,175,75
2026-05-09 16:13:21.308,5,-0.15,0.6,1.44,126.4722,-249.059,-222.8608,175,75
2026-05-09 16:13:21.318,5,0.12,0.55,1.14,108.2522,-249.059,-217.01080000000002,175,75
2026-05-09 16:13:21.318,5,0.4,0.48,0.91,90.1122,-249.059,-209.47080000000003,175,75
2026-05-09 16:13:21.336,5,0.62,0.37,0.63,84.8522,-249.059,-183.3008,175,75
2026-05-09 16:13:21.345,5,0.84,0.33,0.33,95.1922,-249.059,-122.3608,175,75
2026-05-09 16:13:21.350,5,1.42,0.57,0.15,111.0522,-210.65900000000002,-22.6308,175,75
2026-05-09 16:13:21.363,5,1.49,0.75,0.15,110.2822,-139.96900000000002,66.6292,175,75
2026-05-09 16:13:21.375,5,1.09,0.84,0.2,85.4322,-51.608999999999995,117.4792,175,75
2026-05-09 16:13:21.379,5,0.72,0.66,0.18,63.1722,14.831,128.23919999999998,175,75
2026-05-09 16:13:21.400,5,0.17,0.22,0.17,42.3822,94.161,122.8692,175,75
2026-05-09 16:13:21.421,5,-0.03,0.04,-0.02,54.0822,99.45100000000001,136.67919999999998,175,75
2026-05-09 16:13:21.434,5,0.0,0.07,-0.13,68.6022,81.931,152.5392,175,75
2026-05-09 16:13:21.451,5,0.07,0.24,-0.33,79.26219999999999,33.391000000000005,183.6392,175,75
2026-05-09 16:13:21.462,5,0.1,0.3,-0.5,87.7322,5.531000000000001,191.4092,175,75
2026-05-09 16:13:21.472,5,0.23,0.05,-0.48,90.8422,-19.289,207.49919999999997,175,75
2026-05-09 16:13:21.479,5,0.42,-0.17,-0.51,97.4722,-36.129,230.4092,175,75
2026-05-09 16:13:21.492,5,0.72,-0.34,-0.56,103.3822,-26.709,250.45919999999998,175,75
2026-05-09 16:13:21.502,5,0.56,-0.31,-0.36,112.6322,1.821,250.45919999999998,175,75
2026-05-09 16:13:21.519,5,0.11,-0.25,0.03,112.7022,23.521,250.45919999999998,175,75
2026-05-09 16:13:21.519,5,-0.11,-0.35,0.35,101.6622,46.681000000000004,250.45919999999998,175,75
2026-05-09 16:13:21.530,5,-0.38,-0.01,0.59,87.2522,85.221,219.30919999999998,175,75
2026-05-09 16:13:21.542,5,-0.16,0.72,0.44,38.7822,152.661,111.7292,175,75
2026-05-09 16:13:21.564,5,0.3,0.16,1.2,-21.0878,251.21099999999998,-137.16080000000002,175,75
2026-05-09 16:13:21.577,5,0.12,-0.2,2.0,-50.4778,251.21099999999998,-249.8108,175,75
2026-05-09 16:13:21.586,5,0.42,-0.39,2.0,-77.4278,251.21099999999998,-249.8108,175,75
2026-05-09 16:13:21.598,5,1.27,-0.42,2.0,-137.3878,251.21099999999998,-249.8108,175,75
2026-05-09 16:13:21.598,5,-0.47,-0.25,2.0,-169.1378,251.21099999999998,-249.8108,175,75
2026-05-09 16:13:21.609,5,-2.0,-0.75,2.0,-138.8278,251.21099999999998,-196.94080000000002,175,75
2026-05-09 16:13:21.620,5,-2.0,-0.84,2.0,-69.9178,251.21099999999998,-110.8908,175,75
2026-05-09 16:13:21.668,5,-2.0,0.03,2.0,-2.9778,-249.059,96.2092,175,75
2026-05-09 16:13:21.675,5,-1.13,-0.18,1.71,-9.3678,-249.059,110.8392,175,75
2026-05-09 16:13:21.687,5,-0.21,-0.32,1.18,-3.3277999999999994,-249.059,122.9292,175,75
2026-05-09 16:13:21.690,5,0.44,-0.32,0.81,4.9222,-249.059,144.36919999999998,175,75
2026-05-09 16:13:21.700,5,0.66,-0.14,0.51,7.3022,-249.059,145.0392,175,75
2026-05-09 16:13:21.715,5,0.53,-0.13,0.08,3.4722,-249.059,124.4892,175,75
2026-05-09 16:13:21.728,5,1.58,-0.1,-0.18,8.3222,-249.059,143.23919999999998,175,75
2026-05-09 16:13:21.751,5,2.0,-0.04,-0.58,15.0422,-249.059,168.9492,175,75
2026-05-09 16:13:21.751,5,1.75,0.09,-0.79,5.5922,-223.869,148.7292,175,75
2026-05-09 16:13:21.751,5,0.76,-0.23,-0.16,7.6322,-123.899,116.1792,175,75
2026-05-09 16:13:21.765,5,-0.01,-0.13,-0.02,20.5922,-71.279,78.6492,175,75
2026-05-09 16:13:21.776,5,-0.2,-0.09,0.07,32.202200000000005,-45.439,39.2392,175,75
2026-05-09 16:13:21.787,5,-0.27,-0.21,0.05,43.9122,-29.199,4.1091999999999995,175,75
2026-05-09 16:13:21.797,5,-0.41,-0.18,0.02,56.7922,-25.209,-32.8608,175,75
2026-05-09 16:13:21.808,5,-0.37,-0.04,0.02,62.8322,-22.839000000000002,-69.7908,175,75
2026-05-09 16:13:21.808,5,-0.25,0.13,-0.01,58.8622,-17.869,-101.8208,175,75
2026-05-09 16:13:21.821,5,-0.08,0.27,-0.06,46.4122,-5.539,-121.5108,175,75
2026-05-09 16:13:21.834,5,0.11,0.19,-0.06,37.1222,9.600999999999999,-127.4308,175,75
2026-05-09 16:13:21.845,5,0.44,0.4,-0.28,17.9722,34.491,-111.4008,175,75
2026-05-09 16:13:21.858,5,0.7,0.43,-0.45,11.1522,60.971000000000004,-69.1808,175,75
2026-05-09 16:13:21.858,5,0.83,0.51,-0.48,7.6422,93.291,-6.7508,175,75
2026-05-09 16:13:21.883,5,0.25,0.29,-0.22,5.3822,136.451,66.7192,175,75
2026-05-09 16:13:21.898,5,0.13,0.16,-0.07,9.3622,143.06099999999998,79.3292,175,75
2026-05-09 16:13:21.898,5,0.15,0.07,0.12,11.6222,151.84099999999998,90.9592,175,75
2026-05-09 16:13:21.910,5,0.25,-0.01,0.29,19.1122,169.451,103.7292,175,75
2026-05-09 16:13:21.920,5,0.62,0.02,0.41,0.5422,205.421,121.7592,175,75
2026-05-09 16:13:21.931,5,0.8,0.1,0.59,2.9822,251.21099999999998,148.17919999999998,175,75
2026-05-09 16:13:21.945,5,1.15,0.07,1.03,-12.6478,251.21099999999998,198.9492,175,75
2026-05-09 16:13:21.952,5,-0.37,-0.16,2.0,-52.0978,56.971000000000004,220.05919999999998,175,75
2026-05-09 16:13:21.970,5,1.72,-0.35,2.0,-96.1678,4.111,197.8292,175,75
2026-05-09 16:13:21.970,5,0.68,-0.42,1.86,-98.1278,114.321,164.17919999999998,175,75
2026-05-09 16:13:21.987,5,0.63,-0.68,2.0,-90.4578,251.21099999999998,103.0092,175,75
2026-05-09 16:13:21.999,5,-0.7,-0.84,2.0,-74.0078,251.21099999999998,-4.0708,175,75
2026-05-09 16:13:22.016,5,-1.78,-1.38,2.0,-20.7478,251.21099999999998,-234.6808,175,75
2026-05-09 16:13:22.027,5,-2.0,-1.21,2.0,5.1522,251.21099999999998,-249.8108,175,75
2026-05-09 16:13:22.046,5,-2.0,-0.36,2.0,62.7722,-20.409,-225.3108,175,75
2026-05-09 16:13:22.056,5,-2.0,-0.04,2.0,83.76219999999999,-133.34900000000002,-161.8708,175,75
2026-05-09 16:13:22.070,5,-1.44,0.2,1.76,81.5222,-249.059,-30.2408,175,75
2026-05-09 16:13:22.094,5,-0.93,0.22,1.42,69.6022,-249.059,0.5492,175,75
2026-05-09 16:13:22.094,5,-0.45,0.25,1.08,61.9922,-249.059,29.5792,175,75
2026-05-09 16:13:22.121,5,0.08,0.32,0.17,77.9822,-249.059,144.3292,175,75
2026-05-09 16:13:22.121,5,0.95,-0.06,-0.27,83.1822,-249.059,223.6692,175,75
2026-05-09 16:13:22.133,5,2.0,0.16,-0.86,81.7222,-249.059,250.45919999999998,175,75
2026-05-09 16:13:22.145,5,2.0,-0.12,-2.0,77.9822,-249.059,250.45919999999998,175,75
2026-05-09 16:13:22.159,5,1.1,-0.16,-1.56,107.6722,-115.579,250.45919999999998,175,75
2026-05-09 16:13:22.159,5,-0.59,-0.26,-0.66,111.3122,-89.189,183.86919999999998,175,75
2026-05-09 16:13:22.170,5,-0.79,-0.44,-0.26,118.4122,-106.999,108.6592,175,75
2026-05-09 16:13:22.209,5,-1.36,-0.28,-0.08,111.9922,-228.639,-65.7608,175,75
2026-05-09 16:13:22.233,5,-1.18,-0.01,-0.13,78.7022,-249.059,-114.5108,175,75
2026-05-09 16:13:22.233,5,-0.89,0.28,-0.28,13.1922,-249.059,-163.5808,175,75
2026-05-09 16:13:22.243,5,-0.56,0.51,-0.53,-79.1178,-249.059,-229.1708,175,75
2026-05-09 16:13:22.255,5,0.36,0.49,-0.84,-175.94779999999997,-238.02900000000002,-249.8108,175,75
2026-05-09 16:13:22.255,5,1.03,0.36,-0.76,-229.1378,-95.839,-249.8108,175,75
2026-05-09 16:13:22.265,5,1.97,0.42,-0.36,-245.62779999999998,110.131,-249.8108,175,75
2026-05-09 16:13:22.280,5,2.0,0.74,0.32,-249.19779999999997,251.21099999999998,-224.9208,175,75
2026-05-09 16:13:22.290,5,1.76,0.78,0.2,-249.19779999999997,251.21099999999998,-170.1208,175,75
2026-05-09 16:13:22.305,5,1.25,0.67,0.14,-249.19779999999997,251.21099999999998,-175.6208,175,75
2026-05-09 16:13:22.318,5,0.84,0.06,-0.26,-249.19779999999997,251.21099999999998,-187.38080000000002,175,75
2026-05-09 16:13:22.332,5,-0.16,0.96,2.0,-249.19779999999997,251.21099999999998,250.45919999999998,175,75
2026-05-09 16:13:22.347,5,-2.0,0.06,2.0,-209.8578,251.21099999999998,250.45919999999998,175,75
2026-05-09 16:13:22.358,5,-2.0,-1.33,2.0,-133.34779999999998,251.21099999999998,250.45919999999998,175,75
2026-05-09 16:13:22.363,5,-2.0,-1.68,2.0,-90.7778,251.21099999999998,53.5792,175,75
2026-05-09 16:13:22.375,5,-2.0,-1.82,2.0,-44.6778,235.941,-112.6908,175,75
2026-05-09 16:13:22.381,5,-2.0,-2.0,2.0,10.5722,120.971,-161.1808,175,75
2026-05-09 16:13:22.402,5,-2.0,-1.79,2.0,90.9322,-67.51899999999999,-201.03080000000003,175,75
2026-05-09 16:13:22.412,5,-1.73,-0.06,1.73,177.71220000000002,-249.059,-249.8108,175,75
2026-05-09 16:13:22.423,5,-0.56,0.54,1.33,193.74220000000003,-249.059,-249.8108,175,75
2026-05-09 16:13:22.439,5,-0.21,0.57,0.97,208.8622,-249.059,-249.8108,175,75
2026-05-09 16:13:22.439,5,0.5,0.98,0.72,201.47220000000002,-249.059,-249.8108,175,75
2026-05-09 16:13:22.450,5,1.0,0.92,0.41,182.7322,-249.059,-249.8108,175,75
2026-05-09 16:13:22.461,5,2.0,0.82,-0.4,207.65220000000002,-249.059,-164.0208,175,75
2026-05-09 16:13:22.474,5,2.0,1.28,-0.44,230.0722,-249.059,48.5592,175,75
2026-05-09 16:13:22.493,5,0.68,0.99,-0.22,157.56220000000002,-46.288999999999994,161.7892,175,75
2026-05-09 16:13:22.498,5,0.12,0.66,-0.07,124.1222,1.151,126.8692,175,75
2026-05-09 16:13:22.520,5,-0.19,0.35,-0.11,107.4422,23.221,83.1492,175,75
2026-05-09 16:13:22.520,5,-0.32,0.12,-0.18,103.8122,22.891,59.0492,175,75
2026-05-09 16:13:22.542,5,-0.05,-0.04,-0.36,134.22220000000002,-0.029000000000000137,71.6692,175,75
2026-05-09 16:13:22.559,5,-0.07,-0.07,-0.41,136.0122,-9.999,102.4392,175,75
2026-05-09 16:13:22.570,5,-0.03,-0.06,-0.62,149.4422,-29.879,142.1092,175,75
2026-05-09 16:13:22.570,5,-0.04,-0.28,-0.72,173.74220000000003,-50.489,188.8892,175,75
2026-05-09 16:13:22.581,5,0.3,-0.44,-0.68,193.53220000000002,-58.479,242.8292,175,75
2026-05-09 16:13:22.604,5,0.73,-0.54,-0.31,218.65220000000002,59.061,250.45919999999998,175,75
2026-05-09 16:13:22.618,5,0.34,-0.38,-0.01,217.7922,126.831,250.45919999999998,175,75
2026-05-09 16:13:22.618,5,0.09,-0.27,0.31,214.22220000000002,197.391,250.45919999999998,175,75
2026-05-09 16:13:22.640,5,-0.15,-0.1,1.0,153.09220000000002,251.21099999999998,195.5092,175,75
2026-05-09 16:13:22.652,5,-0.28,0.36,1.03,97.1622,251.21099999999998,15.4792,175,75
2026-05-09 16:13:22.666,5,-2.0,-0.64,2.0,70.6022,251.21099999999998,-249.8108,175,75
2026-05-09 16:13:22.680,5,-2.0,0.36,2.0,76.01219999999999,180.701,-249.8108,175,75
2026-05-09 16:13:22.680,5,1.03,2.0,2.0,-81.0578,251.21099999999998,-249.8108,175,75
2026-05-09 16:13:22.698,5,1.39,1.6,2.0,-241.77779999999998,251.21099999999998,-249.8108,175,75
2026-05-09 16:13:22.698,5,0.59,0.7,2.0,-249.19779999999997,251.21099999999998,-249.8108,175,75
2026-05-09 16:13:22.710,5,-0.96,-0.71,2.0,-180.49779999999998,251.21099999999998,-249.8108,175,75
2026-05-09 16:13:22.731,5,-2.0,-0.76,2.0,65.8822,-0.9990000000000001,61.6592,175,75
2026-05-09 16:13:22.742,5,-2.0,-0.12,2.0,116.3922,-177.049,153.76919999999998,175,75
2026-05-09 16:13:22.753,5,-2.0,0.44,2.0,120.7922,-249.059,142.1692,175,75
2026-05-09 16:13:22.765,5,-2.0,0.59,1.77,118.5522,-249.059,140.7292,175,75
2026-05-09 16:13:22.779,5,-0.43,0.55,1.36,112.5822,-249.059,218.7892,175,75
2026-05-09 16:13:22.779,5,0.43,0.38,0.93,103.5522,-249.059,250.45919999999998,175,75
2026-05-09 16:13:22.791,5,0.81,0.33,0.71,82.4122,-249.059,250.45919999999998,175,75
2026-05-09 16:13:22.802,5,2.0,0.28,0.15,63.1522,-249.059,250.45919999999998,175,75
2026-05-09 16:13:22.813,5,2.0,0.34,-0.59,53.0722,-249.059,250.45919999999998,175,75
2026-05-09 16:13:22.825,5,2.0,0.39,-1.21,6.1022,-36.82899999999999,250.45919999999998,175,75
2026-05-09 16:13:22.833,5,0.49,-0.33,0.38,-27.6578,136.90099999999998,245.20919999999998,175,75
2026-05-09 16:13:22.845,5,-0.63,0.06,-0.01,-53.9978,148.31099999999998,145.3792,175,75
2026-05-09 16:13:22.858,5,-0.87,-0.02,0.17,-68.2978,131.74099999999999,52.669200000000004,175,75
2026-05-09 16:13:22.868,5,-1.0,-0.05,0.21,-73.1778,111.461,-40.9808,175,75
2026-05-09 16:13:22.879,5,-1.01,-0.08,0.11,-74.6678,71.311,-128.23080000000002,175,75
2026-05-09 16:13:22.889,5,-0.78,0.03,0.05,-75.7278,34.821000000000005,-206.13080000000002,175,75
2026-05-09 16:13:22.889,5,-0.48,0.18,-0.02,-79.4278,12.171,-249.8108,175,75
2026-05-09 16:13:22.912,5,0.42,0.31,-0.19,-91.8478,10.770999999999999,-249.8108,175,75
2026-05-09 16:13:22.923,5,1.05,0.4,-0.27,-90.4478,45.42100000000001,-229.2708,175,75
2026-05-09 16:13:22.934,5,1.37,0.42,-0.34,-74.8378,97.551,-140.1108,175,75
2026-05-09 16:13:22.946,5,0.9,0.41,-0.14,-49.1678,137.521,-55.1508,175,75
2026-05-09 16:13:22.972,5,0.14,0.55,-0.11,-3.6177999999999995,118.34100000000001,57.0192,175,75
2026-05-09 16:13:22.982,5,0.1,0.14,0.5,3.9922,91.221,115.3792,175,75
2026-05-09 16:13:22.994,5,0.02,0.03,0.5,8.8622,65.551,167.36919999999998,175,75
2026-05-09 16:13:23.010,5,0.02,-0.06,0.53,18.9422,48.501000000000005,204.0392,175,75
2026-05-09 16:13:23.021,5,0.2,-0.11,0.78,32.6122,49.581,244.0992,175,75
2026-05-09 16:13:23.031,5,0.36,-0.09,1.1,32.5822,65.381,250.45919999999998,175,75
2026-05-09 16:13:23.049,5,-0.33,-0.41,2.0,18.022199999999998,-15.408999999999999,213.76919999999998,175,75
2026-05-09 16:13:23.049,5,0.05,-0.8,2.0,13.1122,-117.649,100.3592,175,75
2026-05-09 16:13:23.064,5,0.49,-0.32,1.71,1.1222,-90.599,1.0191999999999999,175,75
2026-05-09 16:13:23.072,5,0.55,-0.22,1.57,-9.4978,65.071,-46.0708,175,75
2026-05-09 16:13:23.085,5,0.02,-0.18,1.84,-24.1078,195.821,-126.4508,175,75
2026-05-09 16:13:23.096,5,-0.06,-0.3,2.0,-45.9778,251.21099999999998,-218.20080000000002,175,75
2026-05-09 16:13:23.116,5,-0.47,-0.28,2.0,-55.9878,251.21099999999998,-249.8108,175,75
2026-05-09 16:13:23.126,5,-0.72,-0.08,2.0,-46.897800000000004,251.21099999999998,-249.8108,175,75
2026-05-09 16:13:23.142,5,-2.0,0.03,2.0,6.0722,104.781,-120.4108,175,75
2026-05-09 16:13:23.165,5,-2.0,0.35,2.0,23.1022,-179.739,34.7392,175,75
2026-05-09 16:13:23.186,5,-1.12,0.24,1.89,-0.7177999999999999,-249.059,169.30919999999998,175,75
2026-05-09 16:13:23.194,5,-0.31,0.05,1.47,-14.3278,-249.059,205.30919999999998,175,75
2026-05-09 16:13:23.210,5,0.75,-0.41,0.02,-81.9978,-249.059,250.45919999999998,175,75
2026-05-09 16:13:23.241,5,-0.1,-0.61,-0.86,48.0422,-27.709,133.05919999999998,175,75
2026-05-09 16:13:23.252,5,-1.29,-0.58,-0.48,82.6322,-51.669,18.5092,175,75
2026-05-09 16:13:23.263,5,-1.44,-0.24,-0.21,103.2022,-110.62899999999999,-82.4008,175,75
2026-05-09 16:13:23.274,5,-1.35,-0.04,-0.09,101.6722,-169.34900000000002,-173.3608,175,75
2026-05-09 16:13:23.285,5,-1.31,0.15,-0.08,87.8322,-226.369,-246.54080000000002,175,75
2026-05-09 16:13:23.308,5,-1.09,0.5,-0.23,36.9522,-249.059,-249.8108,175,75
2026-05-09 16:13:23.319,5,-0.92,0.79,-0.5,-11.3278,-249.059,-249.8108,175,75
2026-05-09 16:13:23.331,5,1.13,0.74,-1.32,-118.8378,-249.059,-167.54080000000002,175,75
2026-05-09 16:13:23.340,5,1.06,0.7,-0.59,-140.6478,-207.389,-61.8808,175,75
2026-05-09 16:13:23.359,5,0.71,0.73,0.1,-162.4178,-58.229,-26.6108,175,75
2026-05-09 16:13:23.371,5,0.77,0.53,0.41,-171.65779999999998,119.651,-42.7708,175,75
2026-05-09 16:13:23.371,5,1.09,0.33,0.37,-170.49779999999998,251.21099999999998,-67.8108,175,75
2026-05-09 16:13:23.393,5,1.67,0.19,0.31,-179.9578,251.21099999999998,-60.8908,175,75
2026-05-09 16:13:23.404,5,1.83,0.24,0.02,-199.6078,251.21099999999998,-10.8208,175,75
2026-05-09 16:13:23.413,5,1.24,0.25,-0.43,-235.09779999999998,251.21099999999998,20.7692,175,75
2026-05-09 16:13:23.424,5,0.73,0.17,-0.69,-249.19779999999997,251.21099999999998,68.0292,175,75
2026-05-09 16:13:23.442,5,-2.0,1.33,2.0,-248.8878,251.21099999999998,250.45919999999998,175,75
2026-05-09 16:13:23.452,5,-2.0,-0.22,2.0,-162.96779999999998,245.191,250.45919999999998,175,75
2026-05-09 16:13:23.460,5,-2.0,-0.44,2.0,-156.6378,176.261,250.45919999999998,175,75
2026-05-09 16:13:23.475,5,-2.0,-1.2,2.0,-138.0778,92.651,-54.6308,175,75
2026-05-09 16:13:23.483,5,-2.0,-1.69,2.0,-81.1878,0.7609999999999999,-242.16080000000002,175,75
2026-05-09 16:13:23.489,5,-2.0,-2.0,1.94,6.752199999999999,-69.539,-249.8108,175,75
2026-05-09 16:13:23.499,5,-2.0,-1.82,1.99,85.8022,-142.179,-249.8108,175,75
2026-05-09 16:13:23.511,5,-2.0,-1.02,1.75,160.90220000000002,-249.059,-249.8108,175,75
2026-05-09 16:13:23.523,5,-1.02,0.14,1.56,192.27220000000003,-249.059,-249.8108,175,75
2026-05-09 16:13:23.535,5,0.19,0.62,1.06,210.05220000000003,-249.059,-249.8108,175,75
2026-05-09 16:13:23.545,5,0.55,1.09,0.9,213.4222,-249.059,-249.8108,175,75
2026-05-09 16:13:23.553,5,0.75,1.2,0.7,182.28220000000002,-249.059,-249.8108,175,75
2026-05-09 16:13:23.561,5,1.35,1.09,0.39,150.2922,-249.059,-249.8108,175,75
2026-05-09 16:13:23.572,5,2.0,1.02,-0.04,149.05220000000003,-249.059,-153.7108,175,75
2026-05-09 16:13:23.585,5,1.96,1.09,0.03,138.9222,-182.869,-14.0908,175,75
2026-05-09 16:13:23.600,5,1.11,1.0,0.23,105.2322,-68.869,42.9892,175,75
2026-05-09 16:13:23.600,5,0.53,0.84,0.29,67.0222,14.030999999999999,48.9292,175,75
2026-05-09 16:13:23.613,5,0.26,0.67,0.33,31.3722,73.111,42.0892,175,75
2026-05-09 16:13:23.625,5,0.06,0.48,0.26,3.7722,111.221,37.2592,175,75
2026-05-09 16:13:23.637,5,-0.03,0.28,0.09,-9.9878,126.921,45.6792,175,75
2026-05-09 16:13:23.649,5,-0.03,0.17,-0.07,-6.667800000000001,125.141,71.2392,175,75
2026-05-09 16:13:23.649,5,-0.09,0.1,-0.28,11.1222,106.491,111.4392,175,75
2026-05-09 16:13:23.660,5,-0.06,0.05,-0.39,41.0522,78.95100000000001,151.98919999999998,175,75
2026-05-09 16:13:23.675,5,-0.05,0.11,-0.4,73.6922,42.351000000000006,193.95919999999998,175,75
2026-05-09 16:13:23.704,5,0.14,-0.06,-0.42,135.31220000000002,-49.479,250.45919999999998,175,75
2026-05-09 16:13:23.715,5,0.61,-0.24,-0.47,147.9222,-53.229,250.45919999999998,175,75
2026-05-09 16:13:23.729,5,1.27,-0.33,-0.6,172.4522,-11.819,250.45919999999998,175,75
2026-05-09 16:13:23.729,5,0.91,-0.42,-0.4,189.0122,54.291000000000004,250.45919999999998,175,75
2026-05-09 16:13:23.743,5,0.46,-0.41,-0.08,208.09220000000002,106.251,250.45919999999998,175,75
2026-05-09 16:13:23.756,5,0.23,-0.31,0.34,231.46220000000002,165.96099999999998,250.45919999999998,175,75
2026-05-09 16:13:23.767,5,-0.26,1.03,0.02,228.3922,250.06099999999998,250.45919999999998,175,75
2026-05-09 16:13:23.780,5,-2.0,-1.18,2.0,143.7022,224.93099999999998,-249.8108,175,75
2026-05-09 16:13:23.792,5,-0.94,0.64,2.0,56.4922,206.611,-249.8108,175,75
2026-05-09 16:13:23.804,5,-0.34,1.02,2.0,-62.7978,251.21099999999998,-249.8108,175,75
2026-05-09 16:13:23.814,5,-0.05,0.52,2.0,-189.1378,251.21099999999998,-249.8108,175,75
2026-05-09 16:13:23.838,5,-1.5,-1.1,2.0,-141.2078,251.21099999999998,-249.8108,175,75
2026-05-09 16:13:23.854,5,-2.0,-1.05,2.0,30.7422,251.21099999999998,-249.8108,175,75
2026-05-09 16:13:23.866,5,-2.0,-0.24,2.0,129.4422,18.221,-40.0708,175,75
2026-05-09 16:13:23.879,5,-2.0,0.56,2.0,131.28220000000002,-205.71900000000002,10.8092,175,75
2026-05-09 16:13:23.905,5,0.48,0.5,1.03,135.75220000000002,-249.059,250.45919999999998,175,75
2026-05-09 16:13:23.916,5,0.76,0.5,0.93,118.7122,-249.059,250.45919999999998,175,75
2026-05-09 16:13:23.927,5,1.14,0.4,0.66,85.76219999999999,-249.059,250.45919999999998,175,75
2026-05-09 16:13:23.938,5,1.61,0.28,0.32,65.5522,-249.059,250.45919999999998,175,75
2026-05-09 16:13:23.938,5,1.37,0.33,0.16,52.7622,-249.059,250.45919999999998,175,75
2026-05-09 16:13:23.962,5,1.2,0.14,-0.88,24.5022,-227.93900000000002,250.45919999999998,175,75
2026-05-09 16:13:23.974,5,1.06,0.09,-1.51,24.8122,-112.289,250.45919999999998,175,75
2026-05-09 16:13:23.988,5,0.19,-0.09,-1.17,5.4121999999999995,-30.289,250.45919999999998,175,75
2026-05-09 16:13:23.996,5,-0.38,-0.17,-0.46,-4.3878,-10.359,158.1592,175,75
2026-05-09 16:13:24.001,5,-0.67,-0.17,-0.12,-9.267800000000001,-14.659,83.1392,175,75
2026-05-09 16:13:24.011,5,-0.88,-0.14,-0.04,-7.9678,-45.229,22.4392,175,75
2026-05-09 16:13:24.020,5,-0.9,-0.11,-0.06,-5.8478,-84.569,-34.1808,175,75
2026-05-09 16:13:24.031,5,-0.68,-0.03,-0.03,-6.6778,-115.079,-82.6708,175,75
2026-05-09 16:13:24.044,5,-0.46,0.14,-0.02,-20.2978,-125.899,-119.2008,175,75
2026-05-09 16:13:24.058,5,-0.3,0.25,-0.05,-42.2378,-128.919,-144.2708,175,75
2026-05-09 16:13:24.064,5,-0.03,0.26,-0.14,-65.6378,-118.149,-153.35080000000002,175,75
2026-05-09 16:13:24.087,5,0.63,0.09,-0.27,-81.4078,-28.399,-108.4808,175,75
2026-05-09 16:13:24.088,5,0.76,0.01,-0.26,-67.3278,40.511,-63.3008,175,75
2026-05-09 16:13:24.101,5,0.68,-0.03,-0.17,-48.9378,107.811,-15.980799999999999,175,75
2026-05-09 16:13:24.110,5,0.62,-0.08,-0.12,-26.6978,168.661,22.8992,175,75
2026-05-09 16:13:24.123,5,0.71,-0.16,-0.01,3.3322000000000003,240.101,54.6992,175,75
2026-05-09 16:13:24.138,5,0.78,-0.12,0.15,32.5722,251.21099999999998,73.5392,175,75
2026-05-09 16:13:24.149,5,0.85,0.26,-0.01,25.3722,251.21099999999998,81.7992,175,75
2026-05-09 16:13:24.159,5,0.73,0.02,0.35,25.4922,251.21099999999998,72.3892,175,75
2026-05-09 16:13:24.159,5,0.76,-0.06,0.43,24.4122,251.21099999999998,47.4592,175,75
2026-05-09 16:13:24.180,5,1.09,-0.03,2.0,-36.4378,251.21099999999998,-222.4908,175,75
2026-05-09 16:13:24.191,5,-0.03,-0.43,2.0,-77.8078,251.21099999999998,-249.8108,175,75
2026-05-09 16:13:24.203,5,-1.78,-0.1,2.0,-122.8778,251.21099999999998,-249.8108,175,75
2026-05-09 16:13:24.216,5,-2.0,-0.74,2.0,-157.6078,251.21099999999998,-249.8108,175,75
2026-05-09 16:13:24.229,5,-2.0,-1.0,1.93,-143.43779999999998,251.21099999999998,-249.8108,175,75
2026-05-09 16:13:24.239,5,-2.0,-1.2,1.94,-80.7178,187.881,-225.1108,175,75
2026-05-09 16:13:24.239,5,-2.0,-0.91,2.0,-1.3377999999999997,-13.049000000000001,-17.9808,175,75
2026-05-09 16:13:24.255,5,-2.0,-0.24,2.0,54.2822,-169.59900000000002,142.5692,175,75
2026-05-09 16:13:24.268,5,-2.0,0.44,2.0,79.76219999999999,-249.059,228.08919999999998,175,75
2026-05-09 16:13:24.281,5,-1.61,0.81,2.0,65.4422,-249.059,250.45919999999998,175,75
2026-05-09 16:13:24.281,5,-1.03,0.63,2.0,12.6022,-249.059,250.45919999999998,175,75
2026-05-09 16:13:24.294,5,-0.2,0.26,1.15,-56.7178,-249.059,231.1992,175,75
2026-05-09 16:13:24.305,5,0.71,-0.14,0.41,-106.0278,-249.059,211.04919999999998,175,75
2026-05-09 16:13:24.319,5,1.95,-0.49,-0.21,-111.1378,-249.059,237.98919999999998,175,75
2026-05-09 16:13:24.322,5,2.0,-0.89,-1.37,-59.8678,-249.059,250.45919999999998,175,75
2026-05-09 16:13:24.339,5,2.0,-1.95,-1.84,6.6522,-249.059,250.45919999999998,175,75
2026-05-09 16:13:24.350,5,0.52,-0.13,-1.73,28.9122,-178.229,174.3492,175,75
2026-05-09 16:13:24.350,5,-0.59,-0.04,-0.87,11.2522,-143.479,45.8492,175,75
2026-05-09 16:13:24.361,5,-0.87,-0.07,-0.36,-3.9278,-158.239,-47.3008,175,75
2026-05-09 16:13:24.383,5,-1.13,-0.11,-0.28,-10.5078,-234.28900000000002,-207.4308,175,75
2026-05-09 16:13:24.397,5,-1.1,0.07,-0.24,-9.1978,-249.059,-249.8108,175,75
2026-05-09 16:13:24.418,5,-0.84,0.51,-0.59,-43.9078,-249.059,-249.8108,175,75
2026-05-09 16:13:24.429,5,0.24,0.66,-0.87,-86.73780000000001,-249.059,-249.8108,175,75
2026-05-09 16:13:24.429,5,1.07,0.56,-0.76,-110.8878,-249.059,-201.53080000000003,175,75
2026-05-09 16:13:24.451,5,1.4,0.6,0.12,-139.49779999999998,27.551,-14.2208,175,75
2026-05-09 16:13:24.462,5,1.89,0.6,0.37,-147.9278,234.851,49.5592,175,75
2026-05-09 16:13:24.471,5,1.99,0.68,0.26,-168.68779999999998,251.21099999999998,113.6192,175,75
2026-05-09 16:13:24.483,5,1.83,0.85,0.22,-198.7078,251.21099999999998,153.71919999999997,175,75
2026-05-09 16:13:24.489,5,1.51,0.72,-0.11,-232.84779999999998,251.21099999999998,152.83919999999998,175,75
2026-05-09 16:13:24.500,5,1.05,0.19,-0.64,-248.3378,251.21099999999998,100.7992,175,75
2026-05-09 16:13:24.524,5,0.37,-0.16,-0.88,-198.97779999999997,251.21099999999998,175.1292,175,75
2026-05-09 16:13:24.535,5,-2.0,2.0,2.0,-189.9178,251.21099999999998,250.45919999999998,175,75
2026-05-09 16:13:24.542,5,-2.0,-0.38,2.0,-60.5978,200.441,250.45919999999998,175,75
2026-05-09 16:13:24.558,5,-2.0,-0.43,2.0,-46.1078,122.73100000000001,250.45919999999998,175,75
2026-05-09 16:13:24.558,5,-2.0,-0.62,2.0,-63.2278,40.231,20.4292,175,75
2026-05-09 16:13:24.580,5,-2.0,-1.03,2.0,-51.4978,-39.049,-197.38080000000002,175,75
2026-05-09 16:13:24.580,5,-2.0,-1.27,2.0,-20.7478,-100.079,-249.8108,175,75
2026-05-09 16:13:24.592,5,-2.0,-1.5,2.0,13.232199999999999,-185.839,-225.4008,175,75
2026-05-09 16:13:24.607,5,-1.76,-1.16,1.77,71.4822,-249.059,-241.5208,175,75
2026-05-09 16:13:24.616,5,-0.72,-0.48,1.38,117.0522,-249.059,-249.8108,175,75
2026-05-09 16:13:24.628,5,0.22,0.06,1.02,145.72220000000002,-249.059,-217.5508,175,75
2026-05-09 16:13:24.628,5,0.64,0.32,0.71,165.7322,-249.059,-204.0908,175,75
2026-05-09 16:13:24.650,5,1.13,0.5,0.57,143.7922,-249.059,-208.9908,175,75
2026-05-09 16:13:24.660,5,1.62,0.44,0.25,136.05220000000003,-249.059,-167.6408,175,75
2026-05-09 16:13:24.682,5,1.51,0.61,-0.01,147.81220000000002,-78.809,69.0292,175,75
2026-05-09 16:13:24.699,5,0.79,0.7,0.15,122.9522,2.261,105.1792,175,75
2026-05-09 16:13:24.718,5,0.11,0.42,0.19,59.0622,91.09100000000001,77.9692,175,75
2026-05-09 16:13:24.726,5,0.02,0.22,0.1,41.9622,109.551,66.5092,175,75
2026-05-09 16:13:24.739,5,0.03,0.1,0.0,40.0222,115.161,70.6992,175,75
2026-05-09 16:13:24.751,5,0.06,0.11,-0.07,43.352199999999996,106.961,90.0592,175,75
2026-05-09 16:13:24.751,5,0.03,0.13,-0.1,48.5022,91.23100000000001,114.5992,175,75
2026-05-09 16:13:24.778,5,-0.16,0.2,-0.04,48.7122,46.281000000000006,132.3792,175,75
2026-05-09 16:13:24.809,5,0.19,-0.12,-0.16,66.7722,-60.708999999999996,217.77919999999997,175,75
2026-05-09 16:13:24.829,5,0.48,-0.67,-0.43,98.6322,-77.949,250.45919999999998,175,75
2026-05-09 16:13:24.829,5,0.46,-0.7,-0.33,133.5722,-74.279,250.45919999999998,175,75
2026-05-09 16:13:24.858,5,0.34,-0.47,0.34,158.97220000000002,20.901,250.45919999999998,175,75
2026-05-09 16:13:24.858,5,0.41,-0.45,0.95,162.80220000000003,145.53099999999998,221.8292,175,75
2026-05-09 16:13:24.873,5,-0.28,0.02,1.35,113.6822,251.21099999999998,11.4692,175,75
2026-05-09 16:13:24.886,5,-1.6,-1.06,2.0,81.5422,157.441,-249.8108,175,75
2026-05-09 16:13:24.903,5,0.55,0.48,2.0,4.4722,157.31099999999998,-249.8108,175,75
2026-05-09 16:13:24.914,5,0.3,0.65,2.0,-75.1378,251.21099999999998,-249.8108,175,75
2026-05-09 16:13:24.925,5,0.39,0.43,2.0,-173.19779999999997,251.21099999999998,-249.8108,175,75
2026-05-09 16:13:24.936,5,-0.86,-0.47,2.0,-179.21779999999998,251.21099999999998,-249.8108,175,75
2026-05-09 16:13:24.948,5,-2.0,-0.44,2.0,-46.4578,251.21099999999998,-197.94080000000002,175,75
2026-05-09 16:13:24.956,5,-2.0,-0.12,2.0,42.7022,102.34100000000001,-15.1108,175,75
2026-05-09 16:13:24.969,5,-2.0,0.36,2.0,63.6222,-83.51899999999999,49.5992,175,75
2026-05-09 16:13:24.980,5,-2.0,0.55,2.0,57.0522,-249.059,98.4192,175,75
2026-05-09 16:13:24.991,5,-1.13,0.33,1.84,57.2422,-249.059,192.6092,175,75
2026-05-09 16:13:25.016,5,0.21,0.13,1.02,66.7522,-249.059,250.45919999999998,175,75
2026-05-09 16:13:25.027,5,0.6,-0.07,0.55,68.0322,-249.059,250.45919999999998,175,75
2026-05-09 16:13:25.037,5,0.69,0.12,0.2,59.602199999999996,-249.059,250.45919999999998,175,75
2026-05-09 16:13:25.049,5,2.0,0.03,-0.6,38.9422,-249.059,250.45919999999998,175,75
2026-05-09 16:13:25.062,5,0.99,-0.57,-0.04,30.5622,60.461000000000006,219.6892,175,75
2026-05-09 16:13:25.073,5,-0.13,0.01,0.04,5.1822,114.23100000000001,155.4192,175,75
2026-05-09 16:13:25.084,5,-0.68,-0.06,0.22,-3.6177999999999995,127.48100000000001,84.2792,175,75
2026-05-09 16:13:25.120,5,-0.78,-0.08,-0.05,3.9222,20.160999999999998,-189.4908,175,75
2026-05-09 16:13:25.134,5,-0.49,0.14,-0.2,-2.6477999999999997,-6.058999999999999,-231.8308,175,75
2026-05-09 16:13:25.148,5,-0.18,0.13,0.04,-11.2378,-23.689,-249.8108,175,75
2026-05-09 16:13:25.160,5,0.16,0.51,-0.34,-52.1178,-22.269000000000002,-249.8108,175,75
2026-05-09 16:13:25.160,5,0.6,0.58,-0.41,-82.3478,-8.779,-249.8108,175,75
2026-05-09 16:13:25.175,5,0.84,0.57,-0.4,-101.6678,13.341,-249.8108,175,75
2026-05-09 16:13:25.186,5,0.87,0.53,-0.4,-98.9978,36.161,-179.78080000000003,175,75
2026-05-09 16:13:25.198,5,0.63,0.37,-0.32,-82.3078,52.331,-105.8308,175,75
2026-05-09 16:13:25.198,5,0.3,0.19,-0.16,-52.0278,59.961000000000006,-44.1908,175,75
2026-05-09 16:13:25.212,5,0.21,0.07,0.07,-19.5578,66.651,14.3192,175,75
2026-05-09 16:13:25.236,5,0.41,0.7,-0.45,5.002199999999999,88.391,129.3492,175,75
2026-05-09 16:13:25.258,5,0.61,0.04,0.59,18.4122,169.411,244.2292,175,75
2026-05-09 16:13:25.258,5,0.94,0.09,0.82,19.2822,236.68099999999998,250.45919999999998,175,75
2026-05-09 16:13:25.270,5,1.74,0.69,2.0,-12.4278,239.361,250.45919999999998,175,75
2026-05-09 16:13:25.279,5,0.42,-0.08,2.0,-68.1778,-171.78900000000002,250.45919999999998,175,75
2026-05-09 16:13:25.291,5,0.18,-0.56,2.0,-58.9778,-60.858999999999995,250.45919999999998,175,75
2026-05-09 16:13:25.337,5,-1.14,-1.09,2.0,-8.107800000000001,190.65099999999998,-127.97080000000001,175,75
2026-05-09 16:13:25.337,5,-1.16,-1.19,2.0,-3.3677999999999995,251.21099999999998,-249.8108,175,75
2026-05-09 16:13:25.348,5,-1.23,-1.23,2.0,13.982199999999999,251.21099999999998,-249.8108,175,75
2026-05-09 16:13:25.359,5,-1.51,-1.01,2.0,41.5922,251.21099999999998,-249.8108,175,75
2026-05-09 16:13:25.359,5,-1.57,-0.54,2.0,81.76219999999999,141.611,-249.8108,175,75
2026-05-09 16:13:25.373,5,-1.12,0.22,2.0,104.9222,-45.939,-249.8108,175,75
2026-05-09 16:13:25.388,5,-1.18,0.57,2.0,96.6022,-160.31900000000002,-245.63080000000002,175,75
2026-05-09 16:13:25.399,5,-1.38,0.75,2.0,59.8722,-212.709,-206.0508,175,75
2026-05-09 16:13:25.399,5,-1.14,0.6,1.75,22.5722,-249.059,-160.19080000000002,175,75
2026-05-09 16:13:25.418,5,-0.72,0.41,1.42,-5.497800000000001,-249.059,-105.4108,175,75
2026-05-09 16:13:25.430,5,0.04,0.17,0.85,-26.4278,-249.059,-1.8508000000000002,175,75
2026-05-09 16:13:25.441,5,0.36,0.18,0.63,-24.7978,-249.059,38.4092,175,75
2026-05-09 16:13:25.452,5,0.75,0.23,0.3,-11.5878,-249.059,110.6592,175,75
2026-05-09 16:13:25.483,5,2.0,0.45,-0.22,-10.9178,-205.739,250.45919999999998,175,75
2026-05-09 16:13:25.483,5,1.74,0.26,-0.81,-31.397800000000004,-62.449,242.1692,175,75
2026-05-09 16:13:25.498,5,1.03,-0.35,-0.5,-26.0478,41.92100000000001,188.4192,175,75
2026-05-09 16:13:25.513,5,-0.34,-0.32,-0.25,13.4622,93.601,81.8692,175,75
2026-05-09 16:13:25.524,5,-0.72,-0.3,-0.14,29.1522,79.641,28.8492,175,75
2026-05-09 16:13:25.530,5,-0.9,-0.19,-0.11,44.5222,48.42100000000001,-40.9408,175,75
2026-05-09 16:13:25.549,5,-1.08,-0.07,-0.06,50.9622,10.971,-115.0308,175,75
2026-05-09 16:13:25.549,5,-1.05,0.13,-0.01,44.1222,-31.749,-195.3908,175,75
2026-05-09 16:13:25.573,5,-0.65,0.5,-0.02,-13.6278,-103.849,-249.8108,175,75
2026-05-09 16:13:25.586,5,-0.34,0.61,-0.04,-55.0678,-131.419,-249.8108,175,75
2026-05-09 16:13:25.624,5,2.0,0.84,0.59,-193.8678,99.081,-195.57080000000002,175,75
2026-05-09 16:13:25.624,5,2.0,0.84,0.82,-249.19779999999997,251.21099999999998,-121.0408,175,75
2026-05-09 16:13:25.642,5,1.13,0.1,0.39,-249.19779999999997,251.21099999999998,-82.2708,175,75
2026-05-09 16:13:25.654,5,2.0,1.83,2.0,-249.19779999999997,251.21099999999998,250.45919999999998,175,75
2026-05-09 16:13:25.670,5,-1.31,-0.9,2.0,-154.94779999999997,251.21099999999998,250.45919999999998,175,75
2026-05-09 16:13:25.693,5,-1.79,-1.47,2.0,-24.8978,201.521,146.7592,175,75
2026-05-09 16:13:25.714,5,-2.0,-1.39,1.97,46.2322,89.221,-119.4908,175,75
2026-05-09 16:13:25.725,5,-2.0,-1.1,1.87,69.26219999999999,-7.819000000000001,-249.8108,175,75
2026-05-09 16:13:25.737,5,-2.0,-0.7,1.71,88.0222,-105.12899999999999,-249.8108,175,75
2026-05-09 16:13:25.748,5,-1.48,-0.28,1.54,105.4222,-186.589,-249.8108,175,75
2026-05-09 16:13:25.759,5,-0.62,0.19,1.43,123.1522,-249.059,-249.8108,175,75
2026-05-09 16:13:25.760,5,0.25,0.51,1.25,142.22220000000002,-249.059,-249.8108,175,75
2026-05-09 16:13:25.776,5,0.59,0.66,1.19,152.06220000000002,-249.059,-249.8108,175,75
2026-05-09 16:13:25.785,5,0.75,0.87,1.0,132.3922,-249.059,-249.8108,175,75
2026-05-09 16:13:25.805,5,1.06,0.7,0.64,83.2322,-184.52900000000002,-167.50080000000003,175,75
2026-05-09 16:13:25.816,5,1.14,0.6,0.51,67.4722,-114.609,-100.9308,175,75
2026-05-09 16:13:25.827,5,1.03,0.6,0.46,51.8322,-45.538999999999994,-39.7408,175,75
2026-05-09 16:13:25.851,5,0.44,0.29,0.36,8.5122,112.48100000000001,43.3392,175,75
2026-05-09 16:13:25.872,5,0.18,0.19,0.33,20.1922,132.75099999999998,70.3392,175,75
2026-05-09 16:13:25.883,5,0.03,0.19,0.34,32.1522,115.071,77.0892,175,75
2026-05-09 16:13:25.894,5,-0.09,0.19,0.36,39.1622,89.98100000000001,71.5592,175,75
2026-05-09 16:13:25.916,5,-0.2,0.16,0.37,33.5022,40.301,43.0192,175,75
2026-05-09 16:13:25.926,5,-0.22,0.14,0.32,24.7422,15.541,31.1392,175,75
2026-05-09 16:13:25.938,5,-0.21,0.13,0.26,15.1822,-13.519,21.1192,175,75
2026-05-09 16:13:25.938,5,-0.08,0.19,0.15,9.6222,-50.129,23.249200000000002,175,75
2026-05-09 16:13:25.961,5,-0.02,0.05,-0.0,7.1022,-101.229,32.1092,175,75
2026-05-09 16:13:25.961,5,0.36,-0.1,-0.16,9.2122,-154.71900000000002,66.4792,175,75
2026-05-09 16:13:25.971,5,0.82,-0.38,-0.29,18.9222,-166.929,121.1892,175,75
2026-05-09 16:13:26.001,5,0.79,-0.92,0.14,143.0422,-35.739,250.45919999999998,175,75
2026-05-09 16:13:26.012,5,0.81,-0.35,0.58,169.71220000000002,76.141,250.45919999999998,175,75
2026-05-09 16:13:26.029,5,0.65,-0.17,1.18,149.4122,249.40099999999998,175.05919999999998,175,75
2026-05-09 16:13:26.029,5,-0.61,-0.64,2.0,112.1022,251.21099999999998,-118.6408,175,75
2026-05-09 16:13:26.058,5,0.94,-0.75,2.0,78.2422,251.21099999999998,-249.8108,175,75
2026-05-09 16:13:26.058,5,-1.04,0.33,2.0,-1.8777999999999997,251.21099999999998,-249.8108,175,75
2026-05-09 16:13:26.068,5,-1.32,0.21,2.0,-85.0778,251.21099999999998,-249.8108,175,75
2026-05-09 16:13:26.068,5,-1.4,-0.39,2.0,-140.5878,251.21099999999998,-249.8108,175,75
2026-05-09 16:13:26.083,5,-1.92,-1.02,2.0,-97.3478,251.21099999999998,-249.8108,175,75
2026-05-09 16:13:26.100,5,-2.0,-0.78,2.0,21.8322,222.941,-249.8108,175,75
2026-05-09 16:13:26.100,5,-2.0,-0.02,2.0,88.3122,1.991,-103.4508,175,75
2026-05-09 16:13:26.129,5,-2.0,0.93,2.0,60.1222,-249.059,53.6292,175,75
2026-05-09 16:13:26.129,5,-1.48,0.73,2.0,51.1422,-249.059,107.8592,175,75
2026-05-09 16:13:26.151,5,-0.62,0.44,1.91,50.7622,-249.059,195.3792,175,75
2026-05-09 16:13:26.151,5,-0.07,0.16,1.48,35.0622,-249.059,250.45919999999998,175,75
2026-05-09 16:13:26.161,5,-0.01,0.11,1.17,2.5122,-249.059,250.45919999999998,175,75
2026-05-09 16:13:26.179,5,0.35,-0.07,0.72,-32.4578,-249.059,250.45919999999998,175,75
2026-05-09 16:13:26.190,5,1.03,-0.27,0.27,-81.3378,-249.059,250.45919999999998,175,75
2026-05-09 16:13:26.215,5,1.12,-0.34,-0.96,-90.0878,-221.649,158.96919999999997,175,75
2026-05-09 16:13:26.229,5,0.43,-0.96,-0.13,-91.5378,-127.849,45.4692,175,75
2026-05-09 16:13:26.239,5,-0.12,-0.19,-0.66,-107.5578,-81.869,-65.8408,175,75
2026-05-09 16:13:26.239,5,-0.48,-0.27,-0.49,-107.7978,-67.289,-151.6208,175,75
2026-05-09 16:13:26.250,5,-0.61,-0.12,-0.3,-105.9978,-74.419,-228.4908,175,75
2026-05-09 16:13:26.260,5,-0.64,0.06,-0.22,-111.7078,-88.669,-249.8108,175,75
2026-05-09 16:13:26.270,5,-0.5,0.31,-0.12,-124.0778,-98.62899999999999,-249.8108,175,75
2026-05-09 16:13:26.282,5,-0.3,0.55,-0.09,-142.6678,-95.949,-249.8108,175,75
2026-05-09 16:13:26.294,5,-0.04,0.75,-0.11,-165.37779999999998,-79.839,-249.8108,175,75
2026-05-09 16:13:26.307,5,0.88,0.82,-0.26,-207.0178,8.221,-249.8108,175,75
2026-05-09 16:13:26.330,5,0.94,0.73,-0.28,-203.9878,153.521,-209.57080000000002,175,75
2026-05-09 16:13:26.340,5,0.44,0.54,-0.19,-197.2978,210.201,-153.1708,175,75
2026-05-09 16:13:26.355,5,0.23,0.19,-0.15,-177.3378,243.84099999999998,-111.8408,175,75
2026-05-09 16:13:26.370,5,0.38,-0.19,-0.2,-135.0578,251.21099999999998,-38.0208,175,75
2026-05-09 16:13:26.390,5,0.76,0.67,-0.71,-49.1078,251.21099999999998,181.5392,175,75
2026-05-09 16:13:26.390,5,0.74,-0.06,0.28,-28.1378,251.21099999999998,250.45919999999998,175,75
2026-05-09 16:13:26.401,5,0.82,0.21,0.48,-28.2978,251.21099999999998,250.45919999999998,175,75
2026-05-09 16:13:26.430,5,1.56,0.86,1.29,-59.0778,251.21099999999998,250.45919999999998,175,75
2026-05-09 16:13:26.430,5,-1.86,-0.34,2.0,-61.9778,127.431,250.45919999999998,175,75
2026-05-09 16:13:26.442,5,-0.44,-0.96,2.0,-77.8278,-128.829,245.67919999999998,175,75
2026-05-09 16:13:26.442,5,-0.03,-0.84,2.0,-84.9378,-46.108999999999995,116.3492,175,75
2026-05-09 16:13:26.457,5,-0.48,-0.89,1.9,-55.1678,113.471,2.3592,175,75
2026-05-09 16:13:26.470,5,-0.55,-1.45,2.0,-9.687800000000001,251.21099999999998,-95.7708,175,75
2026-05-09 16:13:26.470,5,-1.13,-1.57,2.0,34.852199999999996,251.21099999999998,-170.73080000000002,175,75
2026-05-09 16:13:26.488,5,-1.89,-1.72,2.0,73.9222,251.21099999999998,-234.32080000000002,175,75
2026-05-09 16:13:26.488,5,-2.0,-1.62,2.0,110.3822,251.21099999999998,-249.8108,175,75
2026-05-09 16:13:26.503,5,-2.0,-0.87,2.0,157.65220000000002,155.611,-249.8108,175,75
2026-05-09 16:13:26.513,5,-2.0,0.25,2.0,170.4122,-124.979,-249.8108,175,75
2026-05-09 16:13:26.525,5,-2.0,0.96,2.0,146.00220000000002,-249.059,-249.8108,175,75
2026-05-09 16:13:26.543,5,-0.99,1.08,1.59,77.1122,-249.059,-249.8108,175,75
2026-05-09 16:13:26.553,5,-0.17,0.83,1.14,51.8922,-249.059,-223.6808,175,75
2026-05-09 16:13:26.569,5,0.77,0.56,0.64,48.1522,-249.059,-128.82080000000002,175,75
2026-05-09 16:13:26.581,5,1.38,0.34,-0.07,87.1222,-249.059,36.4992,175,75
2026-05-09 16:13:26.581,5,2.0,0.29,-0.3,135.21220000000002,-249.059,237.05919999999998,175,75
2026-05-09 16:13:26.592,5,2.0,0.53,-0.75,157.09220000000002,-249.059,250.45919999999998,175,75
2026-05-09 16:13:26.602,5,1.47,0.21,-0.91,184.21220000000002,-198.78900000000002,250.45919999999998,175,75
2026-05-09 16:13:26.615,5,0.85,-0.04,-1.2,230.6322,-134.419,250.45919999999998,175,75
2026-05-09 16:13:26.629,5,0.67,-0.24,-2.0,226.4122,-66.179,250.45919999999998,175,75
2026-05-09 16:13:26.629,5,-0.42,-0.43,-2.0,196.09220000000002,7.821,195.79919999999998,175,75
2026-05-09 16:13:26.648,5,-1.24,-0.59,-1.27,163.99220000000003,-18.529,62.1892,175,75
2026-05-09 16:13:26.648,5,-1.51,-0.34,-0.67,121.9322,-93.65899999999999,-26.2308,175,75
2026-05-09 16:13:26.659,5,-1.35,-0.04,-0.3,62.0222,-160.709,-86.9108,175,75
2026-05-09 16:13:26.670,5,-1.22,0.31,-0.13,-16.067800000000002,-202.019,-154.4908,175,75
2026-05-09 16:13:26.682,5,-0.96,0.54,-0.09,-104.1478,-209.299,-245.04080000000002,175,75
2026-05-09 16:13:26.693,5,-0.62,0.64,-0.13,-177.6178,-181.25900000000001,-249.8108,175,75
2026-05-09 16:13:26.704,5,0.03,0.61,-0.01,-218.50779999999997,-107.869,-249.8108,175,75
2026-05-09 16:13:26.714,5,1.43,0.39,0.3,-229.18779999999998,38.251000000000005,-249.8108,175,75
2026-05-09 16:13:26.737,5,2.0,0.75,0.48,-249.19779999999997,251.21099999999998,-12.1908,175,75
2026-05-09 16:13:26.749,5,1.87,0.34,-0.27,-249.19779999999997,251.21099999999998,92.6392,175,75
2026-05-09 16:13:26.749,5,1.28,0.42,-0.31,-249.19779999999997,251.21099999999998,101.3892,175,75
2026-05-09 16:13:26.760,5,2.0,2.0,2.0,-249.19779999999997,251.21099999999998,250.45919999999998,175,75
2026-05-09 16:13:26.786,5,-1.33,0.4,2.0,-168.03779999999998,251.21099999999998,250.45919999999998,175,75
2026-05-09 16:13:26.786,5,-2.0,-0.56,2.0,-134.0778,251.21099999999998,250.45919999999998,175,75
2026-05-09 16:13:26.797,5,-2.0,-0.49,1.8,-119.7878,251.21099999999998,-1.6208,175,75
2026-05-09 16:13:26.808,5,-2.0,-1.66,2.0,-73.0378,251.21099999999998,-209.3608,175,75
2026-05-09 16:13:26.808,5,-2.0,-2.0,2.0,-15.497800000000002,190.571,-249.8108,175,75
2026-05-09 16:13:26.819,5,-2.0,-1.97,2.0,72.8622,-13.659,-220.72080000000003,175,75
2026-05-09 16:13:26.829,5,-2.0,-1.15,2.0,161.93220000000002,-201.459,-195.32080000000002,175,75
2026-05-09 16:13:26.840,5,-1.65,-0.07,2.0,184.5122,-249.059,-211.0208,175,75
2026-05-09 16:13:26.851,5,-0.88,0.36,1.91,169.87220000000002,-249.059,-232.1408,175,75
2026-05-09 16:13:26.861,5,-0.27,0.58,1.41,152.72220000000002,-249.059,-243.22080000000003,175,75
2026-05-09 16:13:26.872,5,0.14,0.56,1.03,135.5122,-249.059,-231.22080000000003,175,75
2026-05-09 16:13:26.884,5,0.48,0.54,0.71,118.4122,-249.059,-220.1508,175,75
2026-05-09 16:13:26.901,5,0.75,0.45,0.41,107.6222,-249.059,-198.98080000000002,175,75
2026-05-09 16:13:26.911,5,1.32,0.49,0.25,98.3822,-249.059,-156.4208,175,75
2026-05-09 16:13:26.912,5,1.91,0.52,-0.1,89.3122,-204.149,-60.3008,175,75
2026-05-09 16:13:26.923,5,1.52,0.5,-0.2,82.7222,-106.709,42.0992,175,75
2026-05-09 16:13:26.934,5,1.06,0.5,-0.19,69.6022,-27.089000000000002,88.7192,175,75
2026-05-09 16:13:26.948,5,0.48,0.42,-0.09,52.2522,25.691,88.1892,175,75
2026-05-09 16:13:26.958,5,0.15,0.32,0.01,36.3422,61.061,66.5292,175,75
2026-05-09 16:13:26.974,5,-0.06,0.19,0.05,21.272199999999998,80.37100000000001,36.9692,175,75
2026-05-09 16:13:26.974,5,-0.1,0.08,0.03,14.0722,88.971,13.4392,175,75
2026-05-09 16:13:26.988,5,-0.07,0.05,-0.0,13.0522,93.26100000000001,-1.2308000000000001,175,75
2026-05-09 16:13:27.000,5,-0.06,0.04,-0.06,14.8422,93.34100000000001,-9.6108,175,75
2026-05-09 16:13:27.012,5,-0.1,0.06,-0.15,17.0522,85.401,-12.8208,175,75
2026-05-09 16:13:27.012,5,-0.18,0.09,-0.22,17.7522,66.711,-16.2108,175,75
2026-05-09 16:13:27.022,5,-0.17,0.04,-0.18,21.6022,38.001000000000005,-19.2308,175,75
2026-05-09 16:13:27.033,5,-0.07,-0.01,-0.39,27.022199999999998,4.321,-10.9408,175,75
2026-05-09 16:13:27.044,5,0.23,-0.2,-0.6,40.9922,-32.138999999999996,19.9692,175,75
2026-05-09 16:13:27.055,5,0.62,-0.3,-0.6,55.4222,-44.32899999999999,63.5392,175,75
2026-05-09 16:13:27.068,5,0.33,-0.4,-0.2,61.1422,-33.82899999999999,101.7292,175,75
2026-05-09 16:13:27.083,5,0.45,-0.31,0.45,88.1422,34.011,187.70919999999998,175,75
2026-05-09 16:13:27.096,5,0.86,-0.19,0.73,63.6122,134.201,200.4792,175,75
2026-05-09 16:13:27.111,5,0.95,0.08,1.8,11.0822,251.21099999999998,2.8992,175,75
2026-05-09 16:13:27.122,5,0.3,-0.4,2.0,13.9322,251.21099999999998,-249.8108,175,75
2026-05-09 16:13:27.134,5,1.76,-0.31,2.0,-62.2578,251.21099999999998,-249.8108,175,75
2026-05-09 16:13:27.145,5,-0.96,-0.04,2.0,-144.4178,251.21099999999998,-249.8108,175,75
2026-05-09 16:13:27.156,5,-1.53,-0.61,2.0,-178.3978,251.21099999999998,-249.8108,175,75
2026-05-09 16:13:27.168,5,-2.0,-0.87,1.99,-119.6578,251.21099999999998,-249.8108,175,75
2026-05-09 16:13:27.178,5,-2.0,-0.8,2.0,-27.6178,133.581,-113.3208,175,75
2026-05-09 16:13:27.190,5,-2.0,-0.4,2.0,27.9522,-87.919,11.5592,175,75
2026-05-09 16:13:27.190,5,-2.0,-0.01,2.0,43.8822,-249.059,72.5392,175,75
2026-05-09 16:13:27.209,5,-2.0,0.3,2.0,39.9322,-249.059,107.8892,175,75
2026-05-09 16:13:27.209,5,-1.07,0.3,2.0,47.4222,-249.059,164.73919999999998,175,75
2026-05-09 16:13:27.259,5,1.56,-0.47,0.03,-37.7378,-249.059,216.3492,175,75
2026-05-09 16:13:27.270,5,2.0,-0.58,-0.65,-15.567800000000002,-249.059,199.8892,175,75
2026-05-09 16:13:27.298,5,0.39,-0.53,-0.46,-9.8478,-119.389,55.2092,175,75
2026-05-09 16:13:27.308,5,-0.04,-0.23,-0.09,-1.3377999999999997,-76.949,-5.0207999999999995,175,75
2026-05-09 16:13:27.319,5,-0.4,-0.23,0.02,-0.39780000000000004,-55.979,-61.330799999999996,175,75
2026-05-09 16:13:27.319,5,-0.56,-0.15,0.05,0.5022,-55.419,-115.6208,175,75
2026-05-09 16:13:27.338,5,-0.59,0.01,0.06,-5.787800000000001,-63.699,-167.25080000000003,175,75
2026-05-09 16:13:27.338,5,-0.47,0.19,0.01,-21.2378,-72.119,-215.5608,175,75
2026-05-09 16:13:27.349,5,-0.24,0.33,-0.15,-43.1078,-75.389,-249.8108,175,75
2026-05-09 16:13:27.368,5,0.18,0.45,-0.34,-69.1178,-64.48899999999999,-249.8108,175,75
2026-05-09 16:13:27.368,5,0.59,0.44,-0.49,-90.3278,-34.549,-249.20080000000002,175,75
2026-05-09 16:13:27.382,5,0.83,0.4,-0.48,-98.5678,14.481,-203.70080000000002,175,75
2026-05-09 16:13:27.398,5,0.66,0.42,-0.26,-100.8978,62.341,-163.07080000000002,175,75
2026-05-09 16:13:27.409,5,0.39,0.41,-0.05,-108.0378,106.401,-142.9908,175,75
2026-05-09 16:13:27.420,5,0.35,0.39,0.11,-112.8178,155.321,-143.3308,175,75
2026-05-09 16:13:27.442,5,0.49,0.2,-0.01,-102.0378,251.21099999999998,-66.5208,175,75
2026-05-09 16:13:27.458,5,0.42,0.04,0.05,-78.9578,251.21099999999998,-9.0908,175,75
2026-05-09 16:13:27.458,5,0.57,0.03,0.13,-44.9178,251.21099999999998,81.8492,175,75
2026-05-09 16:13:27.471,5,0.84,0.32,0.56,-13.4778,232.34099999999998,250.45919999999998,175,75
2026-05-09 16:13:27.482,5,0.67,0.53,1.13,-12.6178,124.831,250.45919999999998,175,75
2026-05-09 16:13:27.492,5,0.41,0.07,1.26,-28.5178,80.961,250.45919999999998,175,75
2026-05-09 16:13:27.504,5,-0.13,-0.46,1.97,-35.0378,5.611000000000001,250.45919999999998,175,75
2026-05-09 16:13:27.513,5,0.0,-0.8,2.0,-42.8878,-88.699,250.45919999999998,175,75
2026-05-09 16:13:27.523,5,0.14,-0.82,1.64,-32.8178,-66.289,213.52919999999997,175,75
2026-05-09 16:13:27.535,5,0.36,-0.86,2.0,-21.0178,55.611000000000004,121.7292,175,75
2026-05-09 16:13:27.549,5,-0.27,-0.95,2.0,-9.4778,181.06099999999998,-21.7308,175,75
2026-05-09 16:13:27.549,5,-0.67,-1.21,2.0,0.31220000000000003,251.21099999999998,-184.04080000000002,175,75
2026-05-09 16:13:27.561,5,-0.69,-1.36,2.0,-10.4278,251.21099999999998,-249.8108,175,75
2026-05-09 16:13:27.573,5,-1.11,-1.61,2.0,-13.9478,251.21099999999998,-249.8108,175,75
2026-05-09 16:13:27.584,5,-1.68,-1.77,2.0,15.0922,251.21099999999998,-249.8108,175,75
2026-05-09 16:13:27.599,5,-2.0,-1.52,2.0,83.4122,251.21099999999998,-249.8108,175,75
2026-05-09 16:13:27.608,5,-2.0,-0.62,2.0,146.3922,33.321000000000005,-249.8108,175,75
2026-05-09 16:13:27.635,5,-2.0,0.74,2.0,104.6922,-249.059,-230.8108,175,75
2026-05-09 16:13:27.647,5,-1.71,0.86,1.81,73.6022,-249.059,-211.9008,175,75
2026-05-09 16:13:27.647,5,-0.63,0.79,1.36,55.3422,-249.059,-168.9608,175,75
2026-05-09 16:13:27.652,5,0.3,0.71,1.02,45.7122,-249.059,-130.7108,175,75
2026-05-09 16:13:27.661,5,1.2,0.52,0.42,49.1122,-249.059,-78.6108,175,75
2026-05-09 16:13:27.673,5,2.0,0.43,-0.21,86.0522,-249.059,38.7392,175,75
2026-05-09 16:13:27.685,5,2.0,0.56,-0.54,128.7922,-249.059,186.5792,175,75
2026-05-09 16:13:27.698,5,1.48,0.59,-0.76,145.06220000000002,-249.059,250.45919999999998,175,75
2026-05-09 16:13:27.717,5,0.04,-0.14,-1.23,176.74220000000003,-224.68900000000002,248.5792,175,75
2026-05-09 16:13:27.728,5,0.24,-0.44,-1.92,192.6622,-209.18900000000002,156.8292,175,75
2026-05-09 16:13:27.740,5,-0.75,-0.43,-1.27,207.15220000000002,-215.449,27.5292,175,75
2026-05-09 16:13:27.751,5,-0.72,-0.37,-0.9,189.55220000000003,-249.059,2.8292,175,75
2026-05-09 16:13:27.770,5,-0.57,0.25,0.21,70.2522,-249.059,-49.5208,175,75
2026-05-09 16:13:27.781,5,-0.55,0.44,0.42,-9.3278,-209.389,-101.1508,175,75
2026-05-09 16:13:27.804,5,-0.07,0.61,0.38,-148.3878,-79.90899999999999,-243.63080000000002,175,75
2026-05-09 16:13:27.816,5,0.75,0.47,0.43,-187.6378,58.521,-249.8108,175,75
2026-05-09 16:13:27.833,5,2.0,0.44,0.47,-217.8078,251.21099999999998,-249.8108,175,75
2026-05-09 16:13:27.833,5,2.0,0.69,0.05,-249.19779999999997,251.21099999999998,-249.8108,175,75
2026-05-09 16:13:27.854,5,2.0,0.42,-0.09,-249.19779999999997,251.21099999999998,-190.3408,175,75
2026-05-09 16:13:27.868,5,2.0,0.83,0.31,-249.19779999999997,251.21099999999998,25.9092,175,75
2026-05-09 16:13:27.868,5,0.6,1.79,2.0,-176.7678,251.21099999999998,250.45919999999998,175,75
2026-05-09 16:13:27.880,5,-1.61,-0.51,2.0,-61.8378,251.21099999999998,250.45919999999998,175,75
2026-05-09 16:13:27.900,5,-2.0,1.28,2.0,-63.98780000000001,251.21099999999998,245.14919999999998,175,75
2026-05-09 16:13:27.900,5,-2.0,-0.84,2.0,-53.4378,251.21099999999998,-50.2608,175,75
2026-05-09 16:13:27.910,5,-2.0,-1.0,1.74,-32.4278,115.161,-249.8108,175,75
2026-05-09 16:13:27.930,5,-2.0,-1.14,1.54,19.1122,-81.709,-249.8108,175,75
2026-05-09 16:13:27.949,5,-2.0,-1.0,1.51,77.8322,-241.389,-249.8108,175,75
2026-05-09 16:13:27.949,5,-1.05,-0.64,1.6,143.31220000000002,-249.059,-249.8108,175,75
2026-05-09 16:13:27.960,5,-0.28,0.07,1.65,207.1122,-249.059,-190.5608,175,75
2026-05-09 16:13:27.960,5,-0.11,0.44,1.5,224.8322,-249.059,-122.0708,175,75
2026-05-09 16:13:28.000,5,0.67,0.68,0.39,125.0322,-249.059,-103.5308,175,75
2026-05-09 16:13:28.000,5,1.35,0.46,0.03,103.4422,-249.059,-65.6508,175,75
2026-05-09 16:13:28.012,5,1.88,0.41,-0.21,101.5922,-249.059,29.9492,175,75
2026-05-09 16:13:28.021,5,1.49,0.41,-0.25,99.0422,-171.84900000000002,123.6992,175,75
2026-05-09 16:13:28.034,5,0.82,0.46,-0.12,81.76219999999999,-98.249,144.5692,175,75
2026-05-09 16:13:28.054,5,0.36,0.43,0.03,56.0922,-43.229,125.4392,175,75
2026-05-09 16:13:28.054,5,0.13,0.33,0.09,32.8022,-0.399,87.9592,175,75
2026-05-09 16:13:28.064,5,-0.03,0.22,0.08,13.7022,31.480999999999998,48.9592,175,75
2026-05-09 16:13:28.078,5,-0.09,0.14,0.07,0.7922,53.591,11.6692,175,75
2026-05-09 16:13:28.089,5,-0.11,0.06,0.02,-5.5078000000000005,68.191,-16.9408,175,75
2026-05-09 16:13:28.089,5,-0.16,-0.02,-0.05,-6.1478,75.471,-36.5508,175,75
2026-05-09 16:13:28.101,5,-0.16,-0.04,-0.09,-2.0378,73.191,-46.2308,175,75
2026-05-09 16:13:28.114,5,-0.16,-0.07,-0.14,4.4722,66.70100000000001,-49.0408,175,75
2026-05-09 16:13:28.125,5,-0.14,-0.06,-0.17,11.9622,56.321000000000005,-47.8008,175,75
2026-05-09 16:13:28.138,5,-0.14,-0.06,-0.21,19.2122,43.931000000000004,-44.2008,175,75
2026-05-09 16:13:28.154,5,-0.09,-0.11,-0.2,29.8722,28.401,-34.7708,175,75
2026-05-09 16:13:28.168,5,1.32,-0.43,-0.77,76.0422,24.331,97.0892,175,75
2026-05-09 16:13:28.182,5,1.73,-0.55,-0.42,98.3022,132.611,164.48919999999998,175,75
2026-05-09 16:13:28.194,5,1.96,-0.04,0.36,119.2822,251.21099999999998,224.58919999999998,175,75
2026-05-09 16:13:28.208,5,1.42,0.88,0.27,105.0222,251.21099999999998,230.64919999999998,175,75
2026-05-09 16:13:28.218,5,-1.83,-0.18,2.0,79.1922,251.21099999999998,56.5492,175,75
2026-05-09 16:13:28.218,5,1.35,0.05,2.0,68.5522,251.21099999999998,-249.8108,175,75
2026-05-09 16:13:28.239,5,1.57,1.1,2.0,-33.1278,251.21099999999998,-249.8108,175,75
2026-05-09 16:13:28.256,5,-0.71,1.18,2.0,-155.65779999999998,251.21099999999998,-249.8108,175,75
2026-05-09 16:13:28.257,5,-1.18,0.6,2.0,-249.19779999999997,251.21099999999998,-249.8108,175,75
2026-05-09 16:13:28.267,5,-2.0,-0.32,2.0,-249.19779999999997,251.21099999999998,-249.8108,175,75
2026-05-09 16:13:28.276,5,-2.0,-1.0,2.0,-181.46779999999998,251.21099999999998,-249.8108,175,75
2026-05-09 16:13:28.288,5,-2.0,-1.0,2.0,-81.4478,107.291,-87.8408,175,75
2026-05-09 16:13:28.289,5,-2.0,-0.47,2.0,-14.0978,-48.119,141.6392,175,75
2026-05-09 16:13:28.300,5,-2.0,0.26,2.0,6.8522,-150.919,233.9192,175,75
2026-05-09 16:13:28.311,5,-2.0,0.55,2.0,14.3422,-249.059,250.45919999999998,175,75
2026-05-09 16:13:28.322,5,-1.35,0.46,2.0,19.7022,-249.059,250.45919999999998,175,75
2026-05-09 16:13:28.343,5,-0.84,0.17,1.93,-9.6578,-249.059,250.45919999999998,175,75
2026-05-09 16:13:28.356,5,0.46,-0.43,0.6,-120.9478,-249.059,250.45919999999998,175,75
2026-05-09 16:13:28.369,5,0.99,-0.77,0.17,-126.1678,-249.059,250.45919999999998,175,75
2026-05-09 16:13:28.369,5,1.17,-0.68,0.12,-106.2578,-249.059,250.45919999999998,175,75
2026-05-09 16:13:28.380,5,1.13,-0.58,-0.21,-85.6578,-249.059,250.45919999999998,175,75
2026-05-09 16:13:28.392,5,0.64,-0.35,-0.69,-83.2978,-249.059,226.3492,175,75
2026-05-09 16:13:28.400,5,-0.1,-0.09,-0.82,-113.7678,-249.059,75.3092,175,75
2026-05-09 16:13:28.412,5,-0.62,-0.03,-0.49,-120.7678,-221.99900000000002,-63.4508,175,75
2026-05-09 16:13:28.421,5,-0.85,-0.08,-0.55,-136.87779999999998,-227.839,-175.13080000000002,175,75
2026-05-09 16:13:28.433,5,-0.8,-0.02,-0.47,-152.3878,-243.809,-249.8108,175,75
2026-05-09 16:13:28.453,5,-0.72,0.17,-0.35,-164.00779999999997,-249.059,-249.8108,175,75
2026-05-09 16:13:28.467,5,-0.49,0.4,-0.24,-181.3278,-249.059,-249.8108,175,75
2026-05-09 16:13:28.478,5,0.26,0.72,-0.22,-215.3378,-183.479,-249.8108,175,75
2026-05-09 16:13:28.487,5,1.1,0.64,-0.51,-216.0778,-100.639,-249.8108,175,75
2026-05-09 16:13:28.506,5,0.81,0.72,-0.5,-166.3678,116.971,-249.8108,175,75
2026-05-09 16:13:28.517,5,0.31,0.64,-0.32,-150.56779999999998,182.65099999999998,-221.72080000000003,175,75
2026-05-09 16:13:28.519,5,0.27,0.51,-0.24,-132.8578,227.791,-176.1708,175,75
2026-05-09 16:13:28.541,5,0.21,0.34,-0.27,-108.7878,251.00099999999998,-95.3408,175,75
2026-05-09 16:13:28.557,5,0.27,0.04,-0.06,-51.0078,251.21099999999998,128.4392,175,75
2026-05-09 16:13:28.570,5,0.36,0.02,0.02,-28.0778,251.21099999999998,246.1592,175,75
2026-05-09 16:13:28.582,5,0.52,0.46,-0.06,7.9022,251.21099999999998,250.45919999999998,175,75
2026-05-09 16:13:28.594,5,0.93,0.18,0.18,25.0622,251.21099999999998,250.45919999999998,175,75
2026-05-09 16:13:28.608,5,1.09,0.21,0.1,45.2322,251.21099999999998,250.45919999999998,175,75
2026-05-09 16:13:28.608,5,1.23,0.35,0.28,60.7922,251.21099999999998,250.45919999999998,175,75
2026-05-09 16:13:28.620,5,-1.08,-1.64,2.0,30.6722,251.21099999999998,226.86919999999998,175,75
2026-05-09 16:13:28.640,5,-1.11,-0.81,2.0,-35.1878,243.791,-98.7908,175,75
2026-05-09 16:13:28.669,5,-2.0,-0.86,2.0,-9.2078,251.21099999999998,-249.8108,175,75
2026-05-09 16:13:28.695,5,-2.0,-1.28,2.0,59.8022,214.071,-178.4308,175,75
2026-05-09 16:13:28.695,5,-2.0,-0.93,2.0,80.9222,57.511,-70.8308,175,75
2026-05-09 16:13:28.718,5,-2.0,-0.4,2.0,104.7022,-180.52900000000002,-33.7208,175,75
2026-05-09 16:13:28.718,5,-2.0,0.42,2.0,96.4722,-249.059,-74.3308,175,75
2026-05-09 16:13:28.729,5,-0.81,0.53,2.0,56.8922,-249.059,-98.8808,175,75
2026-05-09 16:13:28.729,5,-0.0,0.48,1.28,36.0922,-249.059,-101.0408,175,75
2026-05-09 16:13:28.741,5,0.61,0.49,0.85,17.8922,-249.059,-110.7908,175,75
2026-05-09 16:13:28.753,5,1.09,0.36,0.39,10.472199999999999,-249.059,-111.5308,175,75
2026-05-09 16:13:28.765,5,2.0,0.19,-0.34,49.4922,-249.059,-5.9608,175,75
2026-05-09 16:13:28.776,5,2.0,0.28,-0.57,107.7322,-249.059,165.89919999999998,175,75
2026-05-09 16:13:28.786,5,0.93,0.34,-0.58,134.4422,-186.46900000000002,250.45919999999998,175,75
2026-05-09 16:13:28.800,5,0.06,0.14,-0.65,147.05220000000003,-173.65900000000002,232.96919999999997,175,75
2026-05-09 16:13:28.800,5,-0.17,-0.14,-1.24,180.5422,-184.43900000000002,172.21919999999997,175,75
2026-05-09 16:13:28.811,5,-0.02,-0.23,-1.79,205.1322,-188.87900000000002,97.0892,175,75
2026-05-09 16:13:28.823,5,-0.16,-0.46,-1.87,213.6422,-180.77900000000002,36.4392,175,75
2026-05-09 16:13:28.835,5,-0.63,-0.56,-1.9,222.9422,-197.27900000000002,-3.9807999999999995,175,75
2026-05-09 16:13:28.845,5,-0.63,-0.5,-1.12,216.6722,-227.09900000000002,-15.3708,175,75
2026-05-09 16:13:28.857,5,-0.57,-0.32,-0.54,183.68220000000002,-245.649,-1.7808,175,75
2026-05-09 16:13:28.861,5,-0.52,-0.1,-0.13,122.9622,-236.74900000000002,9.6992,175,75
2026-05-09 16:13:28.873,5,-0.53,0.23,0.16,30.9022,-206.649,8.7992,175,75
2026-05-09 16:13:28.888,5,-0.51,0.47,0.31,-81.1078,-154.769,-25.5908,175,75
2026-05-09 16:13:28.888,5,-0.27,0.5,0.35,-177.3578,-75.48899999999999,-94.1108,175,75
2026-05-09 16:13:28.900,5,0.24,0.57,0.37,-243.34779999999998,46.261,-185.10080000000002,175,75
2026-05-09 16:13:28.911,5,0.77,0.53,0.49,-249.19779999999997,204.53099999999998,-249.8108,175,75
2026-05-09 16:13:28.928,5,1.81,0.56,0.63,-249.19779999999997,251.21099999999998,-249.8108,175,75
2026-05-09 16:13:28.941,5,2.0,0.38,0.27,-249.19779999999997,251.21099999999998,-249.8108,175,75
2026-05-09 16:13:28.960,5,2.0,0.27,0.13,-249.19779999999997,251.21099999999998,-249.8108,175,75
2026-05-09 16:13:28.973,5,2.0,2.0,2.0,-249.19779999999997,251.21099999999998,250.45919999999998,175,75
2026-05-09 16:13:28.984,5,-2.0,-0.41,2.0,-100.1078,251.21099999999998,250.45919999999998,175,75
2026-05-09 16:13:29.005,5,-2.0,-1.24,2.0,-24.2478,251.21099999999998,-200.20080000000002,175,75
2026-05-09 16:13:29.019,5,-2.0,-1.19,2.0,12.7422,-63.419,-249.8108,175,75
2026-05-09 16:13:29.029,5,-2.0,-1.01,2.0,70.0922,-249.059,-249.8108,175,75
2026-05-09 16:13:29.029,5,-1.87,-0.59,2.0,124.5422,-249.059,-159.88080000000002,175,75
2026-05-09 16:13:29.040,5,-0.68,-0.08,1.74,174.28220000000002,-249.059,-86.6608,175,75
2026-05-09 16:13:29.055,5,0.12,0.18,1.23,196.6322,-249.059,-63.0708,175,75
2026-05-09 16:13:29.066,5,0.44,0.34,0.68,189.99220000000003,-249.059,-66.2608,175,75
2026-05-09 16:13:29.073,5,0.77,0.41,0.01,175.6922,-249.059,-68.1408,175,75
2026-05-09 16:13:29.088,5,2.0,0.42,-0.51,175.06220000000002,-249.059,27.3592,175,75
2026-05-09 16:13:29.089,5,2.0,0.43,-0.89,172.6022,-249.059,164.5692,175,75
2026-05-09 16:13:29.100,5,1.96,0.31,-0.67,153.6322,-155.77900000000002,184.33919999999998,175,75
2026-05-09 16:13:29.113,5,0.51,0.16,0.14,131.9222,-69.479,137.0692,175,75
2026-05-09 16:13:29.124,5,0.1,0.1,0.42,110.01219999999999,-15.839000000000002,93.3192,175,75
2026-05-09 16:13:29.136,5,0.05,0.07,0.57,95.8022,37.261,54.7192,175,75
2026-05-09 16:13:29.150,5,-0.26,-0.08,0.42,49.4922,117.461,-11.460799999999999,175,75
2026-05-09 16:13:29.161,5,-0.39,-0.12,0.33,44.6722,133.90099999999998,-38.4308,175,75
2026-05-09 16:13:29.185,5,-0.34,-0.06,0.17,39.8722,139.53099999999998,-86.7108,175,75
2026-05-09 16:13:29.194,5,-0.18,0.0,0.07,37.6522,136.56099999999998,-100.5408,175,75
2026-05-09 16:13:29.206,5,0.08,0.05,-0.12,32.702200000000005,133.21099999999998,-99.8808,175,75
2026-05-09 16:13:29.219,5,0.21,0.1,-0.28,23.8422,126.881,-84.1408,175,75
2026-05-09 16:13:29.219,5,0.27,0.16,-0.48,29.682199999999998,106.401,-56.5908,175,75
2026-05-09 16:13:29.248,5,0.01,0.2,-0.38,20.8522,28.811,-7.5408,175,75
2026-05-09 16:13:29.248,5,-0.11,0.1,-0.3,15.0922,-15.039000000000001,2.3392,175,75
2026-05-09 16:13:29.271,5,-0.03,-0.15,-0.37,20.9922,-58.358999999999995,24.5792,175,75
2026-05-09 16:13:29.271,5,0.38,-0.31,-0.4,35.2322,-87.189,66.1092,175,75
2026-05-09 16:13:29.283,5,0.64,-0.35,-0.25,45.4422,-68.099,103.4992,175,75
2026-05-09 16:13:29.293,5,0.25,-0.38,0.09,55.2122,-40.489,125.5392,175,75
2026-05-09 16:13:29.303,5,0.43,-0.43,0.48,64.5022,6.920999999999999,137.7592,175,75
2026-05-09 16:13:29.314,5,0.7,0.21,0.55,72.6322,112.351,127.9192,175,75
2026-05-09 16:13:29.324,5,0.98,0.09,1.21,31.2622,251.21099999999998,58.5192,175,75
2026-05-09 16:13:29.336,5,0.6,0.31,1.76,-16.2878,251.21099999999998,-81.8208,175,75
2026-05-09 16:13:29.348,5,1.73,-0.76,2.0,-9.3778,251.21099999999998,-249.8108,175,75
2026-05-09 16:13:29.353,5,-0.12,0.29,2.0,-52.5878,251.21099999999998,-249.8108,175,75
2026-05-09 16:13:29.360,5,-1.2,0.11,2.0,-157.1178,251.21099999999998,-249.8108,175,75
2026-05-09 16:13:29.374,5,-1.84,-0.46,2.0,-206.5178,251.21099999999998,-249.8108,175,75
2026-05-09 16:13:29.385,5,-2.0,-1.32,2.0,-141.6178,251.21099999999998,-249.8108,175,75
2026-05-09 16:13:29.396,5,-2.0,-1.39,2.0,-15.357800000000001,185.541,-130.78080000000003,175,75
2026-05-09 16:13:29.408,5,-2.0,-0.76,2.0,78.9322,-57.898999999999994,60.7592,175,75
2026-05-09 16:13:29.419,5,-2.0,0.6,2.0,91.7222,-249.059,99.0392,175,75
2026-05-09 16:13:29.429,5,-1.46,0.84,2.0,74.5222,-249.059,175.8892,175,75
2026-05-09 16:13:29.448,5,-0.36,0.49,1.77,53.3322,-249.059,250.45919999999998,175,75
2026-05-09 16:13:29.448,5,0.66,0.35,1.3,17.5722,-249.059,250.45919999999998,175,75
2026-05-09 16:13:29.459,5,0.7,0.05,0.77,-29.2078,-249.059,250.45919999999998,175,75
2026-05-09 16:13:29.470,5,0.95,-0.2,0.36,-62.3478,-249.059,250.45919999999998,175,75
2026-05-09 16:13:29.511,5,2.0,-0.57,-0.42,-69.7478,-249.059,250.45919999999998,175,75
2026-05-09 16:13:29.511,5,1.47,-0.25,-1.0,-72.7178,-249.059,242.8592,175,75
2026-05-09 16:13:29.522,5,-0.36,-0.15,-0.4,-107.98780000000001,-121.73899999999999,19.6792,175,75
2026-05-09 16:13:29.543,5,-0.83,-0.21,-0.34,-105.8378,-159.919,-129.03080000000003,175,75
2026-05-09 16:13:29.559,5,-0.8,-0.03,-0.31,-103.4478,-196.68900000000002,-194.1708,175,75
2026-05-09 16:13:29.569,5,-0.61,0.21,-0.27,-110.8478,-217.389,-249.8108,175,75
2026-05-09 16:13:29.569,5,-0.33,0.48,-0.26,-130.25779999999997,-213.68900000000002,-249.8108,175,75
2026-05-09 16:13:29.582,5,0.14,0.6,-0.42,-154.97779999999997,-186.639,-249.8108,175,75
2026-05-09 16:13:29.594,5,0.79,0.39,-0.71,-160.94779999999997,-118.219,-249.8108,175,75
2026-05-09 16:13:29.616,5,0.96,0.23,-0.71,-144.0578,-30.889,-249.8108,175,75
2026-05-09 16:13:29.616,5,0.71,0.24,-0.38,-120.1878,48.871,-213.0608,175,75
2026-05-09 16:13:29.627,5,0.54,0.22,-0.03,-106.3978,113.95100000000001,-177.4308,175,75
2026-05-09 16:13:29.637,5,0.25,0.24,0.12,-102.4378,169.351,-159.57080000000002,175,75
2026-05-09 16:13:29.649,5,0.25,0.23,0.17,-102.7478,212.581,-136.0908,175,75
2026-05-09 16:13:29.649,5,0.26,0.19,0.16,-105.6978,248.851,-100.9008,175,75
2026-05-09 16:13:29.670,5,0.29,0.23,0.12,-114.4478,251.21099999999998,-24.4908,175,75
2026-05-09 16:13:29.684,5,0.57,0.04,0.09,-112.5278,251.21099999999998,28.0192,175,75
2026-05-09 16:13:29.709,5,0.78,-0.08,0.11,-84.3578,251.21099999999998,178.5092,175,75
2026-05-09 16:13:29.719,5,0.98,0.03,0.32,-74.6878,251.21099999999998,250.45919999999998,175,75
2026-05-09 16:13:29.728,5,1.81,0.5,0.97,-85.8778,251.21099999999998,250.45919999999998,175,75
2026-05-09 16:13:29.740,5,1.54,0.39,2.0,-104.7978,251.21099999999998,250.45919999999998,175,75
2026-05-09 16:13:29.758,5,-1.36,-0.41,2.0,-58.4778,251.21099999999998,149.8892,175,75
2026-05-09 16:13:29.771,5,-2.0,-1.16,2.0,-33.5578,251.21099999999998,-2.4608,175,75
2026-05-09 16:13:29.772,5,-2.0,-1.4,2.0,6.1522,251.21099999999998,-97.1708,175,75
2026-05-09 16:13:29.784,5,-2.0,-1.68,2.0,38.1922,248.351,-133.3308,175,75
2026-05-09 16:13:29.795,5,-2.0,-1.77,2.0,65.8622,159.97099999999998,-166.5608,175,75
2026-05-09 16:13:29.806,5,-2.0,-1.57,2.0,90.1122,18.651,-235.72080000000003,175,75
2026-05-09 16:13:29.814,5,-2.0,-0.89,2.0,119.2022,-147.49900000000002,-249.8108,175,75
2026-05-09 16:13:29.828,5,-2.0,-0.15,2.0,130.6122,-249.059,-249.8108,175,75
2026-05-09 16:13:29.828,5,-1.45,0.33,1.62,138.7322,-249.059,-249.8108,175,75
2026-05-09 16:13:29.850,5,-0.8,0.73,1.16,150.80220000000003,-249.059,-249.8108,175,75
2026-05-09 16:13:29.850,5,-0.24,1.02,0.89,159.47220000000002,-249.059,-249.8108,175,75
2026-05-09 16:13:29.870,5,0.66,1.06,0.57,148.6022,-249.059,-249.8108,175,75
2026-05-09 16:13:29.870,5,1.6,0.85,0.05,169.87220000000002,-249.059,-171.25080000000003,175,75
2026-05-09 16:13:29.883,5,2.0,0.92,-0.35,227.53220000000002,-249.059,86.5592,175,75
2026-05-09 16:13:29.899,5,1.76,1.16,0.02,224.1122,-249.059,213.17919999999998,175,75
2026-05-09 16:13:29.908,5,1.08,0.87,-0.13,189.5422,-212.12900000000002,237.14919999999998,175,75
2026-05-09 16:13:29.908,5,0.51,0.47,-0.44,175.7922,-166.81900000000002,250.45919999999998,175,75
2026-05-09 16:13:29.922,5,0.21,-0.05,-0.61,184.1622,-162.309,250.45919999999998,175,75
2026-05-09 16:13:29.934,5,0.33,-0.24,-1.22,220.3322,-162.589,237.9092,175,75
2026-05-09 16:13:29.939,5,0.38,-0.33,-1.55,230.00220000000002,-123.819,185.6392,175,75
2026-05-09 16:13:29.960,5,-0.13,-0.27,-1.19,199.9822,-84.899,107.8492,175,75
2026-05-09 16:13:29.970,5,-0.57,-0.3,-0.83,169.5122,-89.869,58.3392,175,75
2026-05-09 16:13:29.970,5,-0.91,-0.26,-0.49,130.3822,-125.719,36.669200000000004,175,75
2026-05-09 16:13:29.982,5,-1.03,-0.06,-0.16,74.1222,-181.419,29.8892,175,75
2026-05-09 16:13:29.993,5,-0.91,0.14,0.05,0.7422,-216.579,22.0592,175,75
2026-05-09 16:13:30.004,5,-0.68,0.32,-0.03,-82.7778,-215.62900000000002,-16.6308,175,75
2026-05-09 16:13:30.021,5,-0.25,0.33,-0.23,-153.1178,-156.449,-94.0408,175,75
2026-05-09 16:13:30.036,5,0.14,0.41,-0.37,-205.8878,-40.189,-203.73080000000002,175,75
2026-05-09 16:13:30.036,5,0.38,0.55,-0.32,-236.03779999999998,79.971,-249.8108,175,75
2026-05-09 16:13:30.046,5,0.59,0.64,0.13,-249.19779999999997,224.37099999999998,-249.8108,175,75
2026-05-09 16:13:30.066,5,1.77,0.84,0.48,-249.19779999999997,251.21099999999998,-249.8108,175,75
2026-05-09 16:13:30.066,5,2.0,0.99,0.39,-249.19779999999997,251.21099999999998,-249.8108,175,75
2026-05-09 16:13:30.077,5,2.0,1.18,0.24,-249.19779999999997,251.21099999999998,-164.2708,175,75
2026-05-09 16:13:30.099,5,2.0,2.0,1.11,-249.19779999999997,251.21099999999998,250.45919999999998,175,75
2026-05-09 16:13:30.103,5,-2.0,1.15,1.86,-249.19779999999997,251.21099999999998,250.45919999999998,175,75
2026-05-09 16:13:30.116,5,-2.0,-1.18,2.0,-236.9278,251.21099999999998,250.45919999999998,175,75
2026-05-09 16:13:30.128,5,-2.0,-1.25,2.0,-156.49779999999998,251.21099999999998,118.7292,175,75
2026-05-09 16:13:30.139,5,-2.0,-1.74,2.0,-105.9478,186.71099999999998,-55.5508,175,75
2026-05-09 16:13:30.151,5,-2.0,-1.93,1.5,-26.5078,-174.12900000000002,-165.88080000000002,175,75
2026-05-09 16:13:30.151,5,-2.0,-1.86,1.48,82.0822,-249.059,-205.4908,175,75
2026-05-09 16:13:30.162,5,-1.91,-1.34,2.0,153.96220000000002,-249.059,-205.88080000000002,175,75
2026-05-09 16:13:30.173,5,-1.16,-0.64,2.0,176.75220000000002,-249.059,-215.5208,175,75
2026-05-09 16:13:30.185,5,-1.73,-0.0,1.7,183.5122,-249.059,-249.8108,175,75
2026-05-09 16:13:30.198,5,0.45,0.82,1.21,171.8322,-249.059,-249.8108,175,75
2026-05-09 16:13:30.209,5,1.03,0.98,0.76,143.6122,-249.059,-249.8108,175,75
2026-05-09 16:13:30.217,5,1.23,0.76,0.31,120.6722,-249.059,-249.8108,175,75
2026-05-09 16:13:30.229,5,2.0,0.58,-0.02,131.06220000000002,-249.059,-249.8108,175,75
2026-05-09 16:13:30.240,5,2.0,0.42,-0.07,157.8622,-249.059,-67.0108,175,75
2026-05-09 16:13:30.240,5,1.56,0.37,0.28,163.5822,-122.79899999999999,37.2492,175,75
2026-05-09 16:13:30.256,5,0.66,0.33,0.47,146.25220000000002,-27.479,65.3092,175,75
2026-05-09 16:13:30.266,5,0.29,0.27,0.47,118.8022,37.561,58.4392,175,75
2026-05-09 16:13:30.279,5,0.02,0.17,0.34,95.0222,79.791,41.4092,175,75
2026-05-09 16:13:30.279,5,-0.12,0.1,0.21,78.7522,97.661,28.7692,175,75
2026-05-09 16:13:30.290,5,-0.25,0.03,0.03,67.9522,94.821,21.3892,175,75
2026-05-09 16:13:30.314,5,-0.15,0.01,-0.22,63.6122,54.641000000000005,26.5692,175,75
2026-05-09 16:13:30.336,5,0.4,0.29,-0.48,43.2322,32.831,24.0192,175,75
2026-05-09 16:13:30.349,5,0.39,0.29,-0.53,12.5922,45.011,-1.9507999999999999,175,75
2026-05-09 16:13:30.349,5,0.1,0.2,-0.39,-16.5478,41.801,-28.6708,175,75
2026-05-09 16:13:30.361,5,-0.14,0.16,-0.25,-38.0778,26.771,-53.7808,175,75
2026-05-09 16:13:30.373,5,-0.32,0.16,-0.17,-53.7778,4.340999999999999,-79.8108,175,75
2026-05-09 16:13:30.383,5,-0.29,0.1,-0.15,-63.797799999999995,-19.189,-105.8208,175,75
2026-05-09 16:13:30.397,5,-0.13,-0.11,-0.3,-60.0378,-40.849,-108.1408,175,75
2026-05-09 16:13:30.409,5,0.35,-0.4,-0.55,-36.397800000000004,-53.028999999999996,-79.3608,175,75
2026-05-09 16:13:30.422,5,0.74,-0.45,-0.48,1.1622000000000001,-21.559,-41.2408,175,75
2026-05-09 16:13:30.422,5,0.44,-0.34,-0.09,21.7922,7.521000000000001,-8.7208,175,75
2026-05-09 16:13:30.436,5,0.57,-0.31,0.35,35.3322,48.031000000000006,25.3392,175,75
2026-05-09 16:13:30.448,5,1.0,-0.25,0.7,51.2022,132.47099999999998,53.9692,175,75
2026-05-09 16:13:30.450,5,1.62,0.46,0.54,11.1522,251.21099999999998,58.0592,175,75
2026-05-09 16:13:30.469,5,2.0,0.33,1.79,-11.1378,251.21099999999998,18.3492,175,75
2026-05-09 16:13:30.479,5,1.31,-0.2,2.0,-11.9578,251.21099999999998,-219.2408,175,75
2026-05-09 16:13:30.490,5,2.0,0.36,2.0,-79.9478,251.21099999999998,-249.8108,175,75
2026-05-09 16:13:30.500,5,-1.01,0.22,2.0,-153.90779999999998,251.21099999999998,-249.8108,175,75
2026-05-09 16:13:30.501,5,-2.0,-0.35,2.0,-184.1178,251.21099999999998,-249.8108,175,75
2026-05-09 16:13:30.514,5,-2.0,-0.71,1.7,-152.0178,251.21099999999998,-249.8108,175,75
2026-05-09 16:13:30.526,5,-2.0,-0.9,1.79,-85.6478,248.68099999999998,-249.8108,175,75
2026-05-09 16:13:30.537,5,-2.0,-0.85,2.0,-24.8478,-30.319,-94.8508,175,75
2026-05-09 16:13:30.548,5,-2.0,-0.62,2.0,16.2322,-227.059,76.6492,175,75
2026-05-09 16:13:30.575,5,-0.95,0.19,2.0,40.5022,-249.059,250.45919999999998,175,75
2026-05-09 16:13:30.586,5,-0.48,0.17,2.0,19.4422,-249.059,250.45919999999998,175,75
2026-05-09 16:13:30.601,5,0.12,0.12,1.34,-47.397800000000004,-249.059,190.1292,175,75
2026-05-09 16:13:30.601,5,0.89,-0.28,0.54,-94.6478,-249.059,155.5092,175,75
2026-05-09 16:13:30.619,5,1.33,-0.35,0.19,-97.5778,-249.059,146.23919999999998,175,75
2026-05-09 16:13:30.619,5,1.71,-0.51,-0.08,-81.7978,-249.059,137.29919999999998,175,75
2026-05-09 16:13:30.631,5,1.48,-0.42,-0.53,-66.7978,-249.059,81.5292,175,75
2026-05-09 16:13:30.644,5,0.94,-0.21,-0.58,-67.3178,-203.839,9.3892,175,75
2026-05-09 16:13:30.665,5,-0.05,-0.13,-0.07,-66.7478,-68.12899999999999,-106.4708,175,75
2026-05-09 16:13:30.675,5,-0.4,-0.05,-0.07,-64.4978,-52.849,-160.5608,175,75
2026-05-09 16:13:30.687,5,-0.59,0.07,-0.11,-64.6878,-64.929,-210.3008,175,75
2026-05-09 16:13:30.699,5,-0.58,0.17,-0.13,-68.1578,-89.669,-249.8108,175,75
2026-05-09 16:13:30.710,5,-0.48,0.34,-0.19,-73.8678,-107.599,-249.8108,175,75
2026-05-09 16:13:30.710,5,-0.23,0.46,-0.3,-82.4578,-121.679,-249.8108,175,75
2026-05-09 16:13:30.721,5,0.14,0.61,-0.41,-91.5278,-119.979,-249.8108,175,75
2026-05-09 16:13:30.754,5,0.43,0.62,-0.26,-89.2978,-1.9689999999999999,-145.8408,175,75
2026-05-09 16:13:30.765,5,0.38,0.51,-0.09,-87.3678,48.751000000000005,-118.9808,175,75
2026-05-09 16:13:30.780,5,0.49,0.37,-0.05,-78.0278,103.921,-81.1308,175,75
2026-05-09 16:13:30.780,5,0.54,0.17,-0.06,-58.2078,159.00099999999998,-26.1508,175,75
2026-05-09 16:13:30.809,5,0.61,-0.08,0.02,-0.16780000000000006,251.21099999999998,108.9392,175,75
2026-05-09 16:13:30.809,5,0.67,0.03,0.05,20.2622,251.21099999999998,177.92919999999998,175,75
2026-05-09 16:13:30.832,5,1.15,0.12,0.37,29.3022,251.21099999999998,250.45919999999998,175,75
2026-05-09 16:13:30.848,5,1.63,0.42,0.91,18.8722,251.21099999999998,250.45919999999998,175,75
2026-05-09 16:13:30.857,5,-1.2,-0.12,2.0,-16.2378,100.26100000000001,250.45919999999998,175,75
2026-05-09 16:13:30.872,5,1.11,-0.5,2.0,-50.9078,81.191,191.70919999999998,175,75
2026-05-09 16:13:30.887,5,-0.29,-0.56,1.66,-32.9278,244.641,99.4492,175,75
2026-05-09 16:13:30.899,5,-0.81,-0.81,1.87,-6.287800000000001,251.21099999999998,-18.6608,175,75
2026-05-09 16:13:30.902,5,-1.2,-1.11,2.0,24.8022,251.21099999999998,-148.8708,175,75
2026-05-09 16:13:30.913,5,-1.74,-1.47,2.0,52.0122,251.21099999999998,-234.0908,175,75
2026-05-09 16:13:30.922,5,-2.0,-1.79,2.0,91.3822,251.21099999999998,-249.8108,175,75
2026-05-09 16:13:30.939,5,-2.0,-1.26,2.0,138.3822,224.821,-234.32080000000002,175,75
2026-05-09 16:13:30.958,5,-2.0,0.56,2.0,92.9722,-249.059,-205.0608,175,75
2026-05-09 16:13:30.968,5,-2.0,0.57,2.0,51.1722,-249.059,-183.70080000000002,175,75
2026-05-09 16:13:30.973,5,-1.38,0.43,1.49,29.022199999999998,-249.059,-130.9908,175,75
2026-05-09 16:13:30.979,5,-0.38,0.31,1.08,27.4422,-249.059,-75.9608,175,75
2026-05-09 16:13:30.991,5,0.5,0.2,0.71,29.6922,-249.059,-42.1008,175,75
2026-05-09 16:13:31.005,5,1.11,0.03,0.08,38.6722,-249.059,30.3992,175,75
2026-05-09 16:13:31.018,5,2.0,-0.09,-0.63,86.0222,-249.059,176.1392,175,75
2026-05-09 16:13:31.029,5,2.0,0.09,-2.0,146.0722,-249.059,250.45919999999998,175,75
2026-05-09 16:13:31.050,5,0.02,-0.14,-1.06,172.8522,-35.998999999999995,250.45919999999998,175,75
2026-05-09 16:13:31.063,5,-1.31,-0.38,-0.22,174.53220000000002,-107.189,66.5492,175,75
2026-05-09 16:13:31.075,5,-1.43,-0.34,-0.41,183.40220000000002,-176.239,-11.0008,175,75
2026-05-09 16:13:31.086,5,-1.57,-0.1,-0.23,168.18220000000002,-249.059,-89.6408,175,75
2026-05-09 16:13:31.097,5,-1.46,0.28,-0.5,108.3022,-249.059,-177.60080000000002,175,75
2026-05-09 16:13:31.109,5,-1.18,0.42,-1.03,-1.9377999999999997,-249.059,-249.8108,175,75
2026-05-09 16:13:31.119,5,-0.69,0.17,-1.25,-111.9778,-249.059,-249.8108,175,75
2026-05-09 16:13:31.124,5,-0.2,0.14,-0.79,-186.5178,-249.059,-249.8108,175,75
2026-05-09 16:13:31.133,5,-0.11,0.28,-0.29,-233.3078,-249.059,-231.23080000000002,175,75
2026-05-09 16:13:31.145,5,-0.11,0.42,0.02,-249.19779999999997,-193.889,-229.29080000000002,175,75
2026-05-09 16:13:31.155,5,0.06,0.63,0.38,-249.19779999999997,-82.059,-249.8108,175,75
2026-05-09 16:13:31.178,5,0.77,0.69,0.43,-249.19779999999997,67.221,-249.8108,175,75
2026-05-09 16:13:31.178,5,2.0,0.65,0.14,-249.19779999999997,251.21099999999998,-248.45080000000002,175,75
2026-05-09 16:13:31.190,5,2.0,1.08,-0.14,-249.19779999999997,251.21099999999998,-24.250799999999998,175,75
2026-05-09 16:13:31.201,5,2.0,1.28,-0.35,-249.19779999999997,251.21099999999998,154.76919999999998,175,75
2026-05-09 16:13:31.212,5,1.15,0.9,-0.73,-249.19779999999997,251.21099999999998,148.1692,175,75
2026-05-09 16:13:31.212,5,1.07,0.71,-0.92,-249.19779999999997,251.21099999999998,124.2792,175,75
2026-05-09 16:13:31.226,5,2.0,2.0,1.9,-249.19779999999997,251.21099999999998,250.45919999999998,175,75
2026-05-09 16:13:31.239,5,-0.65,1.94,2.0,-249.19779999999997,251.21099999999998,250.45919999999998,175,75
2026-05-09 16:13:31.239,5,-2.0,0.03,2.0,-208.78779999999998,251.21099999999998,250.45919999999998,175,75
2026-05-09 16:13:31.252,5,-2.0,0.98,2.0,-116.1378,251.21099999999998,250.45919999999998,175,75
2026-05-09 16:13:31.266,5,-2.0,-1.46,2.0,-80.2478,251.21099999999998,250.45919999999998,175,75
2026-05-09 16:13:31.283,5,-2.0,-1.4,2.0,-69.3078,117.071,3.9792,175,75
2026-05-09 16:13:31.294,5,-2.0,-1.74,1.59,-18.3078,-99.689,-231.5608,175,75
2026-05-09 16:13:31.309,5,-1.53,-1.61,1.7,152.1422,-249.059,-249.8108,175,75
2026-05-09 16:13:31.320,5,-0.7,0.0,1.81,144.96220000000002,-249.059,-249.8108,175,75
2026-05-09 16:13:31.339,5,0.1,0.35,1.41,147.7922,-249.059,-249.8108,175,75
2026-05-09 16:13:31.347,5,0.66,0.68,1.12,150.21220000000002,-249.059,-249.8108,175,75
2026-05-09 16:13:31.361,5,0.92,0.61,0.77,127.6522,-249.059,-249.8108,175,75
2026-05-09 16:13:31.383,5,0.91,0.5,0.61,124.6322,-225.06900000000002,-249.8108,175,75
2026-05-09 16:13:31.403,5,1.17,0.59,0.55,106.0922,-104.259,-112.8508,175,75
2026-05-09 16:13:31.417,5,1.01,0.6,0.57,89.8922,-37.748999999999995,-31.8208,175,75
2026-05-09 16:13:31.428,5,0.74,0.58,0.57,65.6622,25.851,29.7092,175,75
2026-05-09 16:13:31.428,5,0.46,0.52,0.49,42.4222,75.491,71.4092,175,75
2026-05-09 16:13:31.439,5,0.3,0.47,0.37,27.5022,104.251,101.4392,175,75
2026-05-09 16:13:31.450,5,0.15,0.41,0.24,21.5022,106.031,129.1392,175,75
2026-05-09 16:13:31.458,5,0.06,0.36,0.12,23.8322,85.431,158.6992,175,75
2026-05-09 16:13:31.469,5,0.03,0.32,0.03,31.5622,46.971000000000004,188.54919999999998,175,75
2026-05-09 16:13:31.470,5,0.06,0.26,-0.01,42.8222,11.821,224.9392,175,75
2026-05-09 16:13:31.496,5,0.19,0.25,-0.05,49.0222,-15.879000000000001,245.8892,175,75
2026-05-09 16:13:31.515,5,0.24,0.19,-0.12,54.2122,-33.009,250.45919999999998,175,75
2026-05-09 16:13:31.525,5,0.27,0.18,-0.23,56.4422,-46.608999999999995,250.45919999999998,175,75
2026-05-09 16:13:31.533,5,0.27,0.01,-0.29,59.1222,-65.529,236.8292,175,75
2026-05-09 16:13:31.543,5,0.32,-0.03,-0.35,58.7622,-65.169,213.99919999999997,175,75
2026-05-09 16:13:31.543,5,0.3,-0.22,-0.3,50.3722,-56.708999999999996,194.58919999999998,175,75
2026-05-09 16:13:31.553,5,0.14,-0.38,-0.17,47.8622,-45.428999999999995,184.9392,175,75
2026-05-09 16:13:31.564,5,0.04,-0.61,0.0,57.7322,-33.239,181.01919999999998,175,75
2026-05-09 16:13:31.575,5,0.12,-0.59,0.29,74.51219999999999,-4.388999999999999,185.6892,175,75
2026-05-09 16:13:31.607,5,0.42,-0.64,0.67,105.1222,62.831,185.2592,175,75
2026-05-09 16:13:31.608,5,0.69,-0.58,1.01,89.1922,198.111,144.1292,175,75
2026-05-09 16:13:31.618,5,0.74,-0.17,1.35,82.7422,251.21099999999998,55.8892,175,75
2026-05-09 16:13:31.629,5,0.39,-0.73,2.0,49.5622,251.21099999999998,-141.5908,175,75
2026-05-09 16:13:31.629,5,0.37,-0.72,2.0,-1.3177999999999996,251.21099999999998,-249.8108,175,75
2026-05-09 16:13:31.639,5,-0.78,-0.74,2.0,-56.9078,251.21099999999998,-249.8108,175,75
2026-05-09 16:13:31.646,5,-1.75,-0.87,2.0,-98.5378,251.21099999999998,-249.8108,175,75
2026-05-09 16:13:31.651,5,-2.0,-1.04,2.0,-58.6278,251.21099999999998,-249.8108,175,75
2026-05-09 16:13:31.663,5,-2.0,-0.83,2.0,24.8322,198.731,-203.10080000000002,175,75
2026-05-09 16:13:31.703,5,-2.0,0.21,2.0,84.7022,-220.639,-111.1408,175,75
2026-05-09 16:13:31.703,5,-2.0,0.35,2.0,79.9922,-249.059,-100.6308,175,75
2026-05-09 16:13:31.714,5,-1.36,0.33,1.86,89.8322,-249.059,6.8292,175,75
2026-05-09 16:13:31.714,5,-0.41,0.27,1.48,98.6022,-249.059,98.4792,175,75
2026-05-09 16:13:31.724,5,0.22,0.21,1.13,98.4822,-249.059,124.5392,175,75
2026-05-09 16:13:31.734,5,0.32,0.24,0.86,77.3622,-249.059,133.29919999999998,175,75
2026-05-09 16:13:31.754,5,0.88,0.01,0.11,20.7922,-249.059,119.6992,175,75
2026-05-09 16:13:31.765,5,1.01,-0.18,-0.19,19.8322,-249.059,159.04919999999998,175,75
2026-05-09 16:13:31.772,5,1.55,-0.31,-0.94,27.2422,-249.059,197.52919999999997,175,75
2026-05-09 16:13:31.786,5,1.42,-1.46,-0.49,47.4022,-249.059,169.36919999999998,175,75
2026-05-09 16:13:31.799,5,0.7,-0.38,-0.92,45.8622,-215.239,106.5692,175,75
2026-05-09 16:13:31.809,5,0.15,-0.36,-0.43,43.2522,-176.709,59.9692,175,75
2026-05-09 16:13:31.819,5,-0.25,-0.18,-0.11,34.0222,-159.09900000000002,16.3092,175,75
2026-05-09 16:13:31.819,5,-0.4,-0.04,0.11,12.472199999999999,-152.049,-31.1408,175,75
2026-05-09 16:13:31.843,5,-0.31,0.32,0.18,-68.3978,-119.12899999999999,-134.75080000000003,175,75
2026-05-09 16:13:31.854,5,-0.26,0.43,0.07,-115.4378,-102.839,-182.38080000000002,175,75
2026-05-09 16:13:31.864,5,-0.09,0.49,-0.07,-156.53779999999998,-85.189,-221.0908,175,75
2026-05-09 16:13:31.875,5,0.26,0.5,-0.21,-182.1678,-55.07899999999999,-240.53080000000003,175,75
2026-05-09 16:13:31.886,5,0.7,0.44,-0.3,-191.19779999999997,3.521,-231.82080000000002,175,75
2026-05-09 16:13:31.904,5,0.8,0.5,-0.21,-187.28779999999998,146.74099999999999,-181.95080000000002,175,75
2026-05-09 16:13:31.919,5,0.67,0.49,-0.1,-187.2378,218.581,-163.44080000000002,175,75
2026-05-09 16:13:31.920,5,0.57,0.34,-0.11,-181.5578,251.21099999999998,-146.32080000000002,175,75
2026-05-09 16:13:31.936,5,0.3,0.15,-0.09,-168.52779999999998,251.21099999999998,-124.2808,175,75
2026-05-09 16:13:31.946,5,0.23,-0.11,-0.1,-138.52779999999998,251.21099999999998,-94.0608,175,75
2026-05-09 16:13:31.953,5,0.22,-0.3,-0.09,-95.5378,251.21099999999998,-40.0708,175,75
2026-05-09 16:13:31.963,5,0.38,-0.57,0.15,-60.9678,251.21099999999998,45.9292,175,75
2026-05-09 16:13:31.974,5,0.91,-0.07,0.33,-35.2678,251.21099999999998,211.1992,175,75
2026-05-09 16:13:31.990,5,1.88,0.61,1.41,-60.4578,233.351,250.45919999999998,175,75
2026-05-09 16:13:32.016,5,1.44,-0.91,2.0,-99.6278,144.411,250.45919999999998,175,75
2026-05-09 16:13:32.018,5,1.43,-1.51,2.0,-82.4978,218.31099999999998,250.45919999999998,175,75
2026-05-09 16:13:32.045,5,-2.0,-0.97,1.85,-19.3478,251.21099999999998,77.2192,175,75
2026-05-09 16:13:32.045,5,-2.0,-1.07,1.92,17.5722,251.21099999999998,-155.4308,175,75
2026-05-09 16:13:32.057,5,-2.0,-1.27,2.0,64.3822,251.21099999999998,-249.8108,175,75
2026-05-09 16:13:32.069,5,-2.0,-1.45,2.0,114.2022,251.21099999999998,-249.8108,175,75
2026-05-09 16:13:32.069,5,-2.0,-1.34,2.0,162.5422,251.21099999999998,-249.8108,175,75
2026-05-09 16:13:32.085,5,-2.0,-0.68,2.0,201.7922,98.651,-249.8108,175,75
2026-05-09 16:13:32.101,5,-2.0,0.6,2.0,213.9422,-249.059,-208.04080000000002,175,75
2026-05-09 16:13:32.113,5,-1.94,1.26,2.0,161.7022,-249.059,-104.6108,175,75
2026-05-09 16:13:32.124,5,-1.2,1.08,1.68,103.2122,-249.059,-75.2008,175,75
2026-05-09 16:13:32.124,5,-0.04,0.76,0.91,80.3022,-249.059,-33.4108,175,75
2026-05-09 16:13:32.136,5,1.39,0.48,0.56,71.2722,-249.059,26.2192,175,75
2026-05-09 16:13:32.149,5,1.93,0.21,-0.02,71.6222,-249.059,104.5992,175,75
2026-05-09 16:13:32.149,5,2.0,-0.27,-0.73,110.4422,-249.059,250.45919999999998,175,75
2026-05-09 16:13:32.160,5,1.85,-0.33,-1.55,163.4222,-249.059,250.45919999999998,175,75
2026-05-09 16:13:32.172,5,1.15,0.03,-2.0,215.21220000000002,-249.059,250.45919999999998,175,75
2026-05-09 16:13:32.183,5,0.6,-0.24,-2.0,219.7622,-243.089,236.05919999999998,175,75
2026-05-09 16:13:32.199,5,-0.5,-0.28,-1.4,188.6922,-213.49900000000002,112.0492,175,75
2026-05-09 16:13:32.199,5,-1.22,-0.24,-0.82,159.7622,-249.059,39.8192,175,75
2026-05-09 16:13:32.223,5,-1.06,-0.0,-0.2,121.0022,-249.059,-15.4908,175,75
2026-05-09 16:13:32.223,5,-1.13,0.27,0.13,65.4622,-249.059,-64.8708,175,75
2026-05-09 16:13:32.234,5,-1.13,0.43,0.17,-5.8178,-249.059,-115.4908,175,75
2026-05-09 16:13:32.245,5,-0.95,0.55,0.05,-92.7878,-249.059,-149.6208,175,75
2026-05-09 16:13:32.267,5,0.29,0.11,-0.47,-206.34779999999998,-249.059,-168.82080000000002,175,75
2026-05-09 16:13:32.281,5,0.97,0.06,-0.48,-208.1078,-159.579,-162.0608,175,75
2026-05-09 16:13:32.281,5,1.77,0.21,-0.46,-194.0478,36.681000000000004,-126.2008,175,75
2026-05-09 16:13:32.294,5,2.0,0.63,-0.25,-189.12779999999998,251.21099999999998,-59.6608,175,75
2026-05-09 16:13:32.312,5,2.0,0.95,0.1,-217.9278,251.21099999999998,-4.5308,175,75
2026-05-09 16:13:32.323,5,1.23,0.67,-0.06,-249.19779999999997,251.21099999999998,-40.0008,175,75
2026-05-09 16:13:32.334,5,0.88,0.52,-0.33,-249.19779999999997,251.21099999999998,-114.7708,175,75
2026-05-09 16:13:32.355,5,2.0,2.0,2.0,-249.19779999999997,251.21099999999998,250.45919999999998,175,75
2026-05-09 16:13:32.366,5,-1.47,1.26,2.0,-249.19779999999997,251.21099999999998,250.45919999999998,175,75
2026-05-09 16:13:32.379,5,-2.0,0.89,2.0,-146.4278,251.21099999999998,250.45919999999998,175,75
2026-05-09 16:13:32.379,5,-2.0,-1.71,2.0,-72.9078,251.21099999999998,250.45919999999998,175,75
2026-05-09 16:13:32.418,5,-2.0,-1.66,1.67,8.7522,-236.269,-249.8108,175,75
2026-05-09 16:13:32.431,5,-1.59,-1.64,1.7,104.3722,-249.059,-249.8108,175,75
2026-05-09 16:13:32.431,5,-0.69,-1.06,1.7,156.47220000000002,-249.059,-249.8108,175,75
2026-05-09 16:13:32.442,5,-0.47,-0.23,1.49,189.46220000000002,-249.059,-249.8108,175,75
2026-05-09 16:13:32.455,5,0.12,0.39,1.24,206.9222,-249.059,-249.8108,175,75
2026-05-09 16:13:32.465,5,0.77,0.86,1.01,181.52220000000003,-249.059,-249.8108,175,75
2026-05-09 16:13:32.480,5,1.11,0.76,0.69,146.8922,-249.059,-249.8108,175,75
2026-05-09 16:13:32.490,5,1.54,0.49,0.39,129.90220000000002,-249.059,-249.8108,175,75
2026-05-09 16:13:32.490,5,1.73,0.38,0.14,135.6022,-225.419,-174.6208,175,75
2026-05-09 16:13:32.501,5,1.66,0.56,0.1,139.7322,-134.419,-71.1508,175,75
2026-05-09 16:13:32.513,5,1.1,0.54,0.18,125.4522,-45.689,-6.4308,175,75
2026-05-09 16:13:32.530,5,0.53,0.5,0.17,103.0022,16.261,9.6392,175,75
2026-05-09 16:13:32.548,5,0.22,0.41,0.11,80.7722,49.771,9.539200000000001,175,75
2026-05-09 16:13:32.580,5,0.05,0.33,0.03,65.3522,60.131,8.3292,175,75
2026-05-09 16:13:32.580,5,0.08,0.28,-0.1,57.7722,57.551,22.6992,175,75
2026-05-09 16:13:32.593,5,0.1,0.21,-0.16,61.2622,44.581,47.7392,175,75
2026-05-09 16:13:32.593,5,0.11,0.29,-0.27,69.6622,26.320999999999998,77.0892,175,75
2026-05-09 16:13:32.605,5,0.04,0.34,-0.28,72.0522,3.911,98.0792,175,75
2026-05-09 16:13:32.618,5,-0.08,0.25,-0.34,56.8422,-54.358999999999995,90.8192,175,75
2026-05-09 16:13:32.629,5,-0.06,0.11,-0.33,59.1722,-72.829,92.5192,175,75
2026-05-09 16:13:32.643,5,-0.08,-0.14,-0.34,70.1022,-90.679,108.8992,175,75
2026-05-09 16:13:32.643,5,0.01,-0.32,-0.36,88.8222,-109.699,132.6692,175,75
2026-05-09 16:13:32.655,5,0.41,-0.54,-0.74,122.9522,-115.599,170.95919999999998,175,75
2026-05-09 16:13:32.668,5,0.96,-0.64,-0.6,150.18220000000002,-64.419,212.0092,175,75
2026-05-09 16:13:32.679,5,0.67,-0.54,-0.12,177.5722,7.621,243.5792,175,75
2026-05-09 16:13:32.679,5,0.86,-0.54,0.37,197.74220000000003,89.311,250.45919999999998,175,75
2026-05-09 16:13:32.690,5,1.47,0.46,0.35,194.8822,251.21099999999998,250.45919999999998,175,75
2026-05-09 16:13:32.719,5,-1.5,-0.3,2.0,153.7922,251.21099999999998,-121.5108,175,75
2026-05-09 16:13:32.719,5,2.0,-0.09,2.0,85.4722,251.21099999999998,-249.8108,175,75
2026-05-09 16:13:32.741,5,0.71,0.13,2.0,-11.6778,251.21099999999998,-249.8108,175,75
2026-05-09 16:13:32.741,5,-2.0,0.19,2.0,-106.1378,251.21099999999998,-249.8108,175,75
2026-05-09 16:13:32.751,5,-2.0,-0.31,2.0,-122.8478,251.21099999999998,-249.8108,175,75
2026-05-09 16:13:32.763,5,-2.0,-0.65,1.94,-58.0778,147.541,-249.8108,175,75
2026-05-09 16:13:32.774,5,-2.0,-0.69,1.99,1.9122,-162.359,-249.8108,175,75
2026-05-09 16:13:32.784,5,-2.0,-0.55,2.0,34.2322,-249.059,-115.2708,175,75
2026-05-09 16:13:32.794,5,-2.0,-0.17,2.0,42.0822,-249.059,11.7692,175,75
2026-05-09 16:13:32.805,5,-1.27,0.06,2.0,56.4122,-249.059,79.1192,175,75
2026-05-09 16:13:32.815,5,-0.43,0.09,1.55,132.28220000000002,-249.059,196.76919999999998,175,75
2026-05-09 16:13:32.826,5,-0.0,0.44,1.44,199.43220000000002,-249.059,250.45919999999998,175,75
2026-05-09 16:13:32.854,5,0.59,0.62,0.97,101.5422,-249.059,250.45919999999998,175,75
2026-05-09 16:13:32.854,5,1.39,0.38,0.26,26.5622,-249.059,250.45919999999998,175,75
2026-05-09 16:13:32.899,5,-0.28,-0.13,0.1,-111.3378,-18.399,34.6492,175,75
2026-05-09 16:13:32.899,5,-0.65,0.32,0.43,-117.0378,-2.069,-28.7708,175,75
2026-05-09 16:13:32.910,5,-0.84,-0.01,0.1,-112.4278,-2.839,-93.4508,175,75
2026-05-09 16:13:32.921,5,-1.16,-0.3,0.15,-106.2478,-39.619,-152.69080000000002,175,75
2026-05-09 16:13:32.948,5,-1.15,0.05,-0.0,-90.8478,-150.03900000000002,-249.8108,175,75
2026-05-09 16:13:32.958,5,-0.86,0.32,-0.08,-105.5378,-198.359,-249.8108,175,75
2026-05-09 16:13:32.960,5,-0.62,0.53,-0.18,-126.6578,-229.809,-249.8108,175,75
2026-05-09 16:13:32.984,5,0.87,0.63,-0.41,-162.5178,-182.96900000000002,-249.8108,175,75
2026-05-09 16:13:32.997,5,1.89,0.66,-0.85,-161.1178,-64.479,-184.25080000000003,175,75
2026-05-09 16:13:33.009,5,1.19,0.71,-0.73,-140.49779999999998,43.941,-65.3008,175,75
2026-05-09 16:13:33.009,5,0.17,0.64,-0.35,-129.4178,110.851,-25.5608,175,75
2026-05-09 16:13:33.020,5,-0.12,0.3,-0.11,-113.9578,151.041,-33.9808,175,75
2026-05-09 16:13:33.049,5,0.46,-0.23,0.05,-54.2178,246.441,18.0992,175,75
2026-05-09 16:13:33.049,5,1.02,0.08,-0.49,-25.4578,251.21099999999998,100.1992,175,75
2026-05-09 16:13:33.072,5,1.37,-0.17,0.12,21.182199999999998,251.21099999999998,250.45919999999998,175,75
2026-05-09 16:13:33.087,5,1.65,-0.14,0.11,40.9922,251.21099999999998,250.45919999999998,175,75
2026-05-09 16:13:33.100,5,1.57,-1.21,2.0,-60.2178,-249.059,208.01919999999998,175,75
2026-05-09 16:13:33.112,5,0.88,-0.62,2.0,-52.7978,-103.579,151.14919999999998,175,75
2026-05-09 16:13:33.123,5,0.05,-0.47,2.0,-65.2278,126.901,45.2692,175,75
2026-05-09 16:13:33.134,5,-0.57,-0.56,2.0,-86.0578,251.21099999999998,-117.1408,175,75
2026-05-09 16:13:33.146,5,-1.1,-1.0,2.0,-97.0878,251.21099999999998,-249.8108,175,75
2026-05-09 16:13:33.158,5,-2.0,-1.51,2.0,-67.3978,251.21099999999998,-249.8108,175,75
2026-05-09 16:13:33.171,5,-2.0,-2.0,2.0,25.9222,251.21099999999998,-249.8108,175,75
2026-05-09 16:13:33.185,5,-2.0,-1.51,2.0,163.8322,215.03099999999998,-249.8108,175,75
2026-05-09 16:13:33.185,5,-2.0,0.18,2.0,220.00220000000002,-132.12900000000002,-249.8108,175,75
2026-05-09 16:13:33.196,5,-2.0,0.96,2.0,192.6122,-249.059,-249.8108,175,75
2026-05-09 16:13:33.207,5,-2.0,0.96,1.87,156.6422,-249.059,-249.8108,175,75
2026-05-09 16:13:33.219,5,-1.42,0.85,1.21,136.18220000000002,-249.059,-249.8108,175,75
2026-05-09 16:13:33.230,5,-0.52,0.88,0.91,120.3622,-249.059,-249.8108,175,75
2026-05-09 16:13:33.230,5,0.39,0.88,0.5,105.2022,-249.059,-249.8108,175,75
2026-05-09 16:13:33.254,5,2.0,0.88,-0.46,135.21220000000002,-249.059,-119.5508,175,75
2026-05-09 16:13:33.254,5,2.0,1.07,-0.69,175.7922,-249.059,117.1792,175,75
2026-05-09 16:13:33.264,5,1.16,0.79,-0.75,171.21220000000002,-249.059,227.99919999999997,175,75
2026-05-09 16:13:33.274,5,0.27,0.71,-1.17,181.1122,-249.059,250.45919999999998,175,75
2026-05-09 16:13:33.286,5,-0.32,-0.09,-1.65,204.4522,-249.059,242.58919999999998,175,75
2026-05-09 16:13:33.296,5,0.29,-0.66,-2.0,251.0722,-249.059,190.8292,175,75
2026-05-09 16:13:33.309,5,0.29,-0.78,-2.0,251.0722,-249.059,108.4992,175,75
2026-05-09 16:13:33.309,5,-0.79,-0.42,-1.06,251.0722,-249.059,80.7992,175,75
2026-05-09 16:13:33.330,5,-0.72,-0.2,-0.2,210.7322,-249.059,92.6492,175,75
2026-05-09 16:13:33.330,5,-0.61,0.04,0.53,134.3622,-249.059,120.0092,175,75
