Time,ID,Ax,Ay,Az,Gx,Gy,Gz,Height,Weight
2026-05-09 17:09:54.033,5,0.42,-0.06,0.54,-0.9322,-27.7254,27.913800000000002,175,75
2026-05-09 17:09:54.060,5,0.51,-0.14,0.71,8.1378,-6.5954,56.733799999999995,175,75
2026-05-09 17:09:54.071,5,0.56,-0.19,0.95,18.1378,8.1846,86.4138,175,75
2026-05-09 17:09:54.071,5,0.55,-0.26,1.19,25.3678,19.084600000000002,106.6738,175,75
2026-05-09 17:09:54.081,5,0.36,-0.32,1.34,27.6478,29.7146,108.3838,175,75
2026-05-09 17:09:54.093,5,0.02,-0.36,1.35,24.8778,34.8146,88.60379999999999,175,75
2026-05-09 17:09:54.100,5,-0.34,-0.24,1.34,17.0778,26.4646,49.5438,175,75
2026-05-09 17:09:54.112,5,-0.53,-0.41,1.26,9.917800000000002,11.384599999999999,0.8637999999999999,175,75
2026-05-09 17:09:54.123,5,-0.4,-0.31,1.31,0.1078,-4.5954,-104.6862,175,75
2026-05-09 17:09:54.133,5,-0.17,-0.23,1.39,-4.3322,-8.1554,-143.9862,175,75
2026-05-09 17:09:54.133,5,0.1,-0.12,1.47,-6.7522,-15.145399999999999,-160.1962,175,75
2026-05-09 17:09:54.141,5,0.31,0.0,1.53,-10.2722,-17.0554,-150.9162,175,75
2026-05-09 17:09:54.155,5,0.4,0.06,1.53,-13.152199999999999,-8.955400000000001,-127.9862,175,75
2026-05-09 17:09:54.187,5,0.24,0.22,1.72,-26.3622,31.304600000000004,-53.2762,175,75
2026-05-09 17:09:54.191,5,0.14,0.22,1.85,-30.1522,40.4246,-36.946200000000005,175,75
2026-05-09 17:09:54.206,5,0.06,0.22,2.0,-33.9822,48.154599999999995,-25.5462,175,75
2026-05-09 17:09:54.217,5,-0.01,0.22,2.0,-37.0522,52.4646,-17.426199999999998,175,75
2026-05-09 17:09:54.227,5,-0.12,0.16,2.0,-35.7022,51.974599999999995,-6.9962,175,75
2026-05-09 17:09:54.239,5,-0.27,0.1,2.0,-29.982200000000002,44.5246,8.9338,175,75
2026-05-09 17:09:54.250,5,-0.43,0.05,2.0,-22.3122,27.8746,33.1438,175,75
2026-05-09 17:09:54.250,5,-0.59,0.0,2.0,-15.1122,0.6446000000000001,59.8838,175,75
2026-05-09 17:09:54.262,5,-0.73,-0.03,1.88,-13.082199999999998,-44.9254,92.2438,175,75
2026-05-09 17:09:54.275,5,-0.69,-0.05,1.72,-15.832199999999998,-92.8154,116.6938,175,75
2026-05-09 17:09:54.288,5,-0.47,-0.15,1.53,-19.7222,-133.0654,135.3138,175,75
2026-05-09 17:09:54.288,5,-0.2,-0.14,1.36,-22.7022,-161.24540000000002,150.1938,175,75
2026-05-09 17:09:54.302,5,0.06,-0.24,1.16,-22.8622,-181.0754,170.0638,175,75
2026-05-09 17:09:54.317,5,0.33,-0.33,0.95,-15.5722,-188.0154,182.9138,175,75
2026-05-09 17:09:54.317,5,0.56,-0.43,0.76,-5.2622,-192.2254,184.9138,175,75
2026-05-09 17:09:54.343,5,0.83,-0.55,0.59,1.9878,-192.43540000000002,190.0838,175,75
2026-05-09 17:09:54.343,5,0.97,-0.76,0.41,16.1078,-178.0054,205.5538,175,75
2026-05-09 17:09:54.366,5,1.08,-0.99,0.04,62.677800000000005,-88.4054,189.7138,175,75
2026-05-09 17:09:54.375,5,0.86,-1.01,-0.12,80.6878,-17.1754,132.28379999999999,175,75
2026-05-09 17:09:54.388,5,0.33,-0.81,-0.15,96.4778,47.694599999999994,63.543800000000005,175,75
2026-05-09 17:09:54.388,5,-0.17,-0.51,-0.1,103.9978,88.61460000000001,-12.1362,175,75
2026-05-09 17:09:54.408,5,-0.45,-0.21,-0.05,98.2078,109.8546,-92.78620000000001,175,75
2026-05-09 17:09:54.423,5,-0.46,0.01,-0.03,73.7578,114.75460000000001,-162.6562,175,75
2026-05-09 17:09:54.434,5,-0.56,0.03,0.05,47.927800000000005,101.58460000000001,-236.2062,175,75
2026-05-09 17:09:54.445,5,-0.52,0.24,-0.01,23.197799999999997,74.72460000000001,-250.7762,175,75
2026-05-09 17:09:54.456,5,-0.31,0.31,-0.08,-6.3922,41.8146,-250.7762,175,75
2026-05-09 17:09:54.469,5,-0.04,0.29,-0.11,-29.6322,14.404600000000002,-250.7762,175,75
2026-05-09 17:09:54.469,5,0.28,0.31,-0.03,-51.112199999999994,-2.8454,-250.7762,175,75
2026-05-09 17:09:54.478,5,0.86,0.36,0.08,-59.0522,-35.1454,-243.9062,175,75
2026-05-09 17:09:54.491,5,1.55,0.52,0.35,-40.602199999999996,-106.38539999999999,-90.1162,175,75
2026-05-09 17:09:54.497,5,1.68,0.8,0.55,-37.4522,-150.27540000000002,63.7338,175,75
2026-05-09 17:09:54.503,5,1.35,0.66,0.52,-53.0522,-163.27540000000002,149.8438,175,75
2026-05-09 17:09:54.514,5,1.05,0.52,0.48,-59.032199999999996,-140.93540000000002,162.1538,175,75
2026-05-09 17:09:54.531,5,0.99,0.51,0.65,-69.1022,-91.13539999999999,127.65379999999999,175,75
2026-05-09 17:09:54.531,5,1.09,0.39,0.92,-81.2922,-14.5454,73.3438,175,75
2026-05-09 17:09:54.540,5,1.31,0.03,1.14,-89.0622,85.94460000000001,43.5638,175,75
2026-05-09 17:09:54.553,5,1.7,-0.4,1.24,-88.9722,202.9346,77.3038,175,75
2026-05-09 17:09:54.563,5,1.94,-0.02,1.78,-92.2722,248.09459999999999,179.25379999999998,175,75
2026-05-09 17:09:54.567,5,1.14,-1.06,1.67,-64.73219999999999,248.09459999999999,249.4938,175,75
2026-05-09 17:09:54.610,5,-2.0,-0.83,1.49,67.4578,134.0446,100.60379999999999,175,75
2026-05-09 17:09:54.621,5,-2.0,-0.72,1.55,72.4478,114.9946,-91.42620000000001,175,75
2026-05-09 17:09:54.634,5,-2.0,-0.65,1.77,75.01780000000001,113.5646,-250.7762,175,75
2026-05-09 17:09:54.642,5,-1.59,-0.65,2.0,90.1978,103.5946,-250.7762,175,75
2026-05-09 17:09:54.645,5,-1.09,-0.27,2.0,126.4978,1.6646,-250.7762,175,75
2026-05-09 17:09:54.662,5,-0.09,0.76,2.0,139.2078,-121.13539999999999,-250.7762,175,75
2026-05-09 17:09:54.684,5,-0.09,0.8,1.75,121.0778,-106.85539999999999,-250.7762,175,75
2026-05-09 17:09:54.685,5,0.04,0.64,1.5,102.8578,-88.66539999999999,-250.7762,175,75
2026-05-09 17:09:54.710,5,0.46,0.07,0.98,77.98780000000001,54.2446,45.9738,175,75
2026-05-09 17:09:54.736,5,0.03,0.12,0.78,67.73780000000001,138.28459999999998,174.5138,175,75
2026-05-09 17:09:54.747,5,-0.27,0.25,0.77,51.497800000000005,153.38459999999998,182.00379999999998,175,75
2026-05-09 17:09:54.760,5,-0.52,0.35,0.79,28.7778,154.8746,148.6738,175,75
2026-05-09 17:09:54.760,5,-0.73,0.41,0.83,6.2678,136.0246,82.9438,175,75
2026-05-09 17:09:54.790,5,0.04,0.38,1.28,-22.502200000000002,-2.3254,-52.5462,175,75
2026-05-09 17:09:54.809,5,0.38,0.37,1.28,-15.282199999999998,-92.3254,-23.376199999999997,175,75
2026-05-09 17:09:54.809,5,0.72,0.41,1.14,-6.9122,-169.64540000000002,9.5838,175,75
2026-05-09 17:09:54.822,5,0.87,0.28,0.8,-6.0622,-184.4254,27.6338,175,75
2026-05-09 17:09:54.833,5,0.96,0.06,0.48,-5.1122000000000005,-159.65540000000001,45.6538,175,75
2026-05-09 17:09:54.845,5,0.99,-0.25,0.2,6.8278,-124.9854,77.7438,175,75
2026-05-09 17:09:54.877,5,1.89,-0.48,0.92,57.567800000000005,50.694599999999994,217.6838,175,75
2026-05-09 17:09:54.895,5,1.08,-0.41,2.0,84.1878,202.59459999999999,134.9238,175,75
2026-05-09 17:09:54.899,5,0.39,-0.18,2.0,76.6878,232.6446,15.5438,175,75
2026-05-09 17:09:54.908,5,-0.36,0.11,1.78,58.5778,248.09459999999999,-118.39620000000001,175,75
2026-05-09 17:09:54.919,5,-0.81,0.28,1.65,41.537800000000004,232.7046,-233.2962,175,75
2026-05-09 17:09:54.931,5,-0.83,0.55,1.85,21.3078,156.09459999999999,-250.7762,175,75
2026-05-09 17:09:54.948,5,-0.58,0.73,1.99,-3.0722,55.544599999999996,-250.7762,175,75
2026-05-09 17:09:54.948,5,-0.38,0.79,2.0,-24.2222,-15.825399999999998,-197.5662,175,75
2026-05-09 17:09:54.960,5,-0.16,0.51,1.79,-30.1522,-46.5754,-111.7462,175,75
2026-05-09 17:09:54.972,5,-0.06,0.3,1.62,-18.842200000000002,-47.1854,8.053799999999999,175,75
2026-05-09 17:09:54.987,5,0.01,0.16,1.51,4.5578,-31.8754,139.6438,175,75
2026-05-09 17:09:54.998,5,-0.07,0.27,1.53,28.0378,-23.1254,249.4938,175,75
2026-05-09 17:09:55.002,5,-0.13,0.45,1.62,20.607799999999997,-33.745400000000004,249.4938,175,75
2026-05-09 17:09:55.007,5,-0.12,0.49,1.61,-8.7922,-55.275400000000005,249.4938,175,75
2026-05-09 17:09:55.021,5,-0.51,0.5,1.6,-42.7322,-87.3954,249.4938,175,75
2026-05-09 17:09:55.034,5,-0.03,0.15,1.36,-71.7722,-119.2654,249.4938,175,75
2026-05-09 17:09:55.046,5,0.01,-0.26,1.21,-88.87219999999999,-157.8254,249.4938,175,75
2026-05-09 17:09:55.064,5,0.02,-0.67,1.11,-89.7222,-201.8154,249.4938,175,75
2026-05-09 17:09:55.076,5,0.18,-0.93,0.88,-73.1522,-216.21540000000002,249.4938,175,75
2026-05-09 17:09:55.076,5,0.24,-0.98,0.62,-48.532199999999996,-188.3454,249.4938,175,75
2026-05-09 17:09:55.083,5,0.19,-0.97,0.32,-19.1922,-132.5154,217.1238,175,75
2026-05-09 17:09:55.097,5,0.04,-0.94,0.02,15.6978,-68.5954,131.78379999999999,175,75
2026-05-09 17:09:55.127,5,-0.26,-0.7,-0.45,53.207800000000006,8.334599999999998,-38.5762,175,75
2026-05-09 17:09:55.139,5,-0.18,-0.59,-0.57,45.857800000000005,23.404600000000002,-86.4662,175,75
2026-05-09 17:09:55.139,5,-0.25,-0.47,-0.54,54.717800000000004,21.4146,-122.2562,175,75
2026-05-09 17:09:55.158,5,-0.32,-0.26,-0.55,33.0178,5.8546,-154.7062,175,75
2026-05-09 17:09:55.158,5,-0.17,-0.16,-0.54,6.0678,-14.645399999999999,-182.0262,175,75
2026-05-09 17:09:55.181,5,-0.3,0.1,-0.47,-34.782199999999996,-50.625400000000006,-201.2962,175,75
2026-05-09 17:09:55.191,5,-0.17,0.26,-0.43,-75.6322,-73.91539999999999,-222.3962,175,75
2026-05-09 17:09:55.191,5,0.12,0.26,-0.33,-108.8222,-71.7854,-244.6162,175,75
2026-05-09 17:09:55.215,5,0.29,0.14,-0.21,-119.0022,-16.1254,-250.7762,175,75
2026-05-09 17:09:55.227,5,0.23,0.14,-0.16,-104.9122,12.084599999999998,-250.7762,175,75
2026-05-09 17:09:55.237,5,0.15,0.16,-0.1,-90.95219999999999,32.4646,-250.7762,175,75
2026-05-09 17:09:55.253,5,0.11,0.24,-0.02,-76.5022,49.3446,-250.7762,175,75
2026-05-09 17:09:55.264,5,0.23,0.27,0.12,-61.322199999999995,66.1046,-250.7762,175,75
2026-05-09 17:09:55.264,5,0.95,0.41,0.45,-46.9822,76.0146,-250.7762,175,75
2026-05-09 17:09:55.277,5,2.0,1.37,1.84,-71.95219999999999,-3.8654,57.763799999999996,175,75
2026-05-09 17:09:55.285,5,1.5,0.94,1.9,-163.47220000000002,232.2646,154.3738,175,75
2026-05-09 17:09:55.297,5,2.0,0.73,2.0,-209.46220000000002,248.09459999999999,192.8938,175,75
2026-05-09 17:09:55.306,5,1.81,0.34,2.0,-224.4122,248.09459999999999,249.4938,175,75
2026-05-09 17:09:55.318,5,-0.25,-0.47,1.89,-147.0422,248.09459999999999,249.4938,175,75
2026-05-09 17:09:55.320,5,-2.0,-0.63,0.97,-89.6322,248.09459999999999,249.4938,175,75
2026-05-09 17:09:55.347,5,-2.0,-0.86,1.27,-45.362199999999994,236.6746,249.4938,175,75
2026-05-09 17:09:55.382,5,-2.0,-1.47,1.38,138.53779999999998,-158.05540000000002,5.7438,175,75
2026-05-09 17:09:55.382,5,-2.0,-1.12,1.87,143.4778,-169.8154,-122.0062,175,75
2026-05-09 17:09:55.393,5,-1.58,-0.85,2.0,112.3978,-152.9254,-242.6162,175,75
2026-05-09 17:09:55.403,5,-1.08,-0.51,1.78,114.9478,-153.7654,-250.7762,175,75
2026-05-09 17:09:55.414,5,-0.32,0.06,1.55,139.00779999999997,-134.8254,-250.7762,175,75
2026-05-09 17:09:55.427,5,-0.03,0.66,1.5,154.53779999999998,-105.4554,-250.7762,175,75
2026-05-09 17:09:55.427,5,0.09,1.03,1.58,160.1378,-108.80539999999999,-250.7762,175,75
2026-05-09 17:09:55.438,5,0.36,1.43,1.75,137.81779999999998,-182.21540000000002,-250.7762,175,75
2026-05-09 17:09:55.450,5,0.63,1.55,1.66,104.8578,-252.1754,-250.7762,175,75
2026-05-09 17:09:55.450,5,0.79,1.32,1.28,80.2078,-252.1754,-203.6562,175,75
2026-05-09 17:09:55.461,5,1.27,0.92,0.78,74.4778,-252.1754,-86.6062,175,75
2026-05-09 17:09:55.484,5,2.0,0.93,0.06,82.7878,-179.14540000000002,226.2238,175,75
2026-05-09 17:09:55.495,5,1.61,0.85,0.18,63.3378,-67.8754,249.4938,175,75
2026-05-09 17:09:55.526,5,2.0,0.63,2.0,-2.6322,242.7946,249.4938,175,75
2026-05-09 17:09:55.541,5,1.84,0.31,2.0,1.3378,196.8946,249.4938,175,75
2026-05-09 17:09:55.544,5,1.06,0.05,2.0,27.3278,248.09459999999999,249.4938,175,75
2026-05-09 17:09:55.551,5,-0.61,0.08,1.95,6.9277999999999995,248.09459999999999,140.8638,175,75
2026-05-09 17:09:55.564,5,-1.9,-0.21,1.41,-19.4022,248.09459999999999,-33.226200000000006,175,75
2026-05-09 17:09:55.575,5,-2.0,-0.19,1.48,-26.912200000000002,235.88459999999998,-144.5562,175,75
2026-05-09 17:09:55.602,5,-1.67,-0.32,1.45,-12.1022,100.1046,-145.6362,175,75
2026-05-09 17:09:55.623,5,-1.08,-0.14,1.76,9.7978,-8.5354,-70.4862,175,75
2026-05-09 17:09:55.633,5,-0.77,0.04,1.89,26.0478,-70.85539999999999,12.733799999999999,175,75
2026-05-09 17:09:55.633,5,-0.45,0.29,1.83,24.267799999999998,-127.1854,104.7638,175,75
2026-05-09 17:09:55.677,5,-0.17,0.21,1.52,5.6078,-167.7954,184.6038,175,75
2026-05-09 17:09:55.690,5,0.51,0.32,1.09,-18.1022,-186.11540000000002,249.4938,175,75
2026-05-09 17:09:55.690,5,0.81,-0.57,0.51,0.7678,-170.2854,249.4938,175,75
2026-05-09 17:09:55.700,5,0.61,-0.79,0.26,23.607799999999997,-204.6754,249.4938,175,75
2026-05-09 17:09:55.709,5,1.18,-1.09,-0.1,46.217800000000004,-252.1754,249.4938,175,75
2026-05-09 17:09:55.721,5,2.0,-1.99,-1.66,74.87780000000001,-56.6054,249.4938,175,75
2026-05-09 17:09:55.734,5,1.08,-1.59,-1.55,126.5978,104.91460000000001,186.3738,175,75
2026-05-09 17:09:55.734,5,-0.77,-0.92,-1.32,155.2378,98.3546,122.5438,175,75
2026-05-09 17:09:55.747,5,-1.63,-0.11,-0.88,201.3978,32.444599999999994,37.9538,175,75
2026-05-09 17:09:55.747,5,-1.64,-0.36,-0.39,202.12779999999998,-18.2254,-85.14620000000001,175,75
2026-05-09 17:09:55.781,5,-0.19,0.09,-0.1,67.87780000000001,-54.5754,-238.6862,175,75
2026-05-09 17:09:55.791,5,0.15,0.35,-0.03,-16.1822,-25.2954,-235.3062,175,75
2026-05-09 17:09:55.806,5,0.24,0.5,-0.07,-97.2822,18.154600000000002,-250.7762,175,75
2026-05-09 17:09:55.814,5,0.08,0.21,-0.28,-158.93220000000002,66.0946,-250.7762,175,75
2026-05-09 17:09:55.826,5,0.03,0.16,-0.29,-141.4822,75.9646,-250.7762,175,75
2026-05-09 17:09:55.826,5,0.17,0.03,-0.26,-107.0522,89.8446,-250.7762,175,75
2026-05-09 17:09:55.836,5,0.62,0.21,0.0,-35.032199999999996,158.1146,-250.7762,175,75
2026-05-09 17:09:55.852,5,0.68,0.41,0.23,-3.2622,171.60459999999998,-247.71620000000001,175,75
2026-05-09 17:09:55.864,5,0.68,0.86,0.32,-3.4722,114.0146,-86.6862,175,75
2026-05-09 17:09:55.864,5,0.1,0.84,0.92,5.1478,67.33460000000001,16.8538,175,75
2026-05-09 17:09:55.875,5,0.11,0.68,1.06,-4.1522,58.9246,67.0538,175,75
2026-05-09 17:09:55.882,5,0.22,0.53,1.08,-12.972199999999999,59.944599999999994,137.1238,175,75
2026-05-09 17:09:55.894,5,0.21,0.51,1.04,-14.502199999999998,33.264599999999994,234.2138,175,75
2026-05-09 17:09:55.904,5,0.28,0.69,1.17,-23.5822,-34.7554,249.4938,175,75
2026-05-09 17:09:55.922,5,0.52,0.85,1.33,-45.852199999999996,-106.5754,249.4938,175,75
2026-05-09 17:09:55.932,5,0.9,1.01,1.8,-75.1822,-223.5954,249.4938,175,75
2026-05-09 17:09:55.943,5,1.0,0.93,2.0,-94.6922,-252.1754,249.4938,175,75
2026-05-09 17:09:55.955,5,2.0,-0.63,2.0,-74.6322,159.88459999999998,88.3038,175,75
2026-05-09 17:09:55.967,5,2.0,-1.34,1.32,-19.752200000000002,248.09459999999999,112.6238,175,75
2026-05-09 17:09:55.978,5,1.21,-2.0,0.59,23.5278,248.09459999999999,248.25379999999998,175,75
2026-05-09 17:09:55.978,5,-0.0,-1.13,1.04,16.4978,248.09459999999999,249.4938,175,75
2026-05-09 17:09:55.988,5,-1.19,-1.1,1.07,20.657799999999998,239.7746,249.4938,175,75
2026-05-09 17:09:56.001,5,-1.86,-1.02,1.19,57.7278,197.2346,249.4938,175,75
2026-05-09 17:09:56.016,5,-2.0,-0.82,1.51,78.98780000000001,209.66459999999998,18.8638,175,75
2026-05-09 17:09:56.028,5,-2.0,-0.66,1.85,78.79780000000001,243.0146,-250.7762,175,75
2026-05-09 17:09:56.039,5,-1.85,-0.74,2.0,82.6678,248.09459999999999,-250.7762,175,75
2026-05-09 17:09:56.050,5,-1.5,-0.64,2.0,113.8378,222.34459999999999,-250.7762,175,75
2026-05-09 17:09:56.060,5,-0.81,0.23,2.0,172.9778,-14.395399999999999,-250.7762,175,75
2026-05-09 17:09:56.060,5,-0.74,0.59,2.0,203.52779999999998,-125.7654,-250.7762,175,75
2026-05-09 17:09:56.072,5,-1.11,0.98,1.7,203.0178,-180.8454,-250.7762,175,75
2026-05-09 17:09:56.087,5,-0.96,1.17,1.43,190.8878,-242.9754,-250.7762,175,75
2026-05-09 17:09:56.112,5,-0.32,0.91,0.9,146.52779999999998,-252.1754,-134.3262,175,75
2026-05-09 17:09:56.112,5,0.26,0.75,0.76,127.4778,-252.1754,-30.3962,175,75
2026-05-09 17:09:56.123,5,1.02,0.71,0.83,106.23780000000001,-252.1754,85.5938,175,75
2026-05-09 17:09:56.134,5,1.75,1.27,0.99,78.8578,-177.1654,249.4938,175,75
2026-05-09 17:09:56.144,5,2.0,0.89,1.25,31.4778,0.11459999999999981,249.4938,175,75
2026-05-09 17:09:56.165,5,1.55,0.55,1.11,-44.532199999999996,248.09459999999999,249.4938,175,75
2026-05-09 17:09:56.170,5,0.99,0.5,1.1,-39.112199999999994,248.09459999999999,249.4938,175,75
2026-05-09 17:09:56.188,5,-0.63,0.33,1.86,-32.5922,248.09459999999999,249.4938,175,75
2026-05-09 17:09:56.189,5,-1.27,-0.29,2.0,-33.0522,248.09459999999999,249.4938,175,75
2026-05-09 17:09:56.200,5,-1.78,-0.58,1.7,-21.1922,248.09459999999999,133.4538,175,75
2026-05-09 17:09:56.211,5,-2.0,-0.94,1.23,9.9778,248.09459999999999,-56.3262,175,75
2026-05-09 17:09:56.232,5,-2.0,-1.16,1.19,134.34779999999998,216.41459999999998,-250.7762,175,75
2026-05-09 17:09:56.245,5,-2.0,-0.58,1.74,203.7978,28.7346,-250.7762,175,75
2026-05-09 17:09:56.254,5,-1.97,0.31,2.0,220.7278,-167.0754,-228.0662,175,75
2026-05-09 17:09:56.268,5,-1.69,0.78,2.0,205.9578,-252.1754,-209.4362,175,75
2026-05-09 17:09:56.279,5,-1.25,0.8,1.62,190.0178,-252.1754,-205.8362,175,75
2026-05-09 17:09:56.291,5,-0.78,0.7,1.08,175.46779999999998,-252.1754,-185.5062,175,75
2026-05-09 17:09:56.291,5,-0.28,0.64,0.77,148.6478,-252.1754,-156.24620000000002,175,75
2026-05-09 17:09:56.304,5,0.13,0.59,0.59,115.40780000000001,-252.1754,-138.9762,175,75
2026-05-09 17:09:56.315,5,0.32,0.47,0.23,84.2178,-252.1754,-126.6962,175,75
2026-05-09 17:09:56.324,5,0.93,0.35,-0.49,71.8978,-252.1754,-59.8162,175,75
2026-05-09 17:09:56.340,5,2.0,0.33,-1.49,116.65780000000001,-252.1754,240.9038,175,75
2026-05-09 17:09:56.351,5,0.69,0.4,-1.27,119.8378,-191.1254,249.4938,175,75
2026-05-09 17:09:56.360,5,0.02,0.14,-1.07,103.8878,-172.2254,249.4938,175,75
2026-05-09 17:09:56.375,5,-0.49,-0.11,-0.72,92.6778,-167.0154,249.4938,175,75
2026-05-09 17:09:56.394,5,-0.87,-0.19,-0.23,75.3678,-147.77540000000002,249.4938,175,75
2026-05-09 17:09:56.405,5,-1.0,-0.26,0.18,51.8378,-99.2654,177.0238,175,75
2026-05-09 17:09:56.405,5,-0.93,-0.21,0.47,17.3478,-18.595399999999998,64.6338,175,75
2026-05-09 17:09:56.415,5,-0.89,-0.22,-0.08,-16.8622,67.41460000000001,-52.7562,175,75
2026-05-09 17:09:56.428,5,-0.52,-0.39,0.19,-46.782199999999996,141.69459999999998,-73.4862,175,75
2026-05-09 17:09:56.454,5,-0.32,-0.13,0.04,-71.1822,196.06459999999998,-110.2662,175,75
2026-05-09 17:09:56.454,5,-0.05,-0.05,-0.11,-86.8022,239.7346,-138.9162,175,75
2026-05-09 17:09:56.468,5,0.19,-0.06,-0.17,-86.1722,248.09459999999999,-158.9862,175,75
2026-05-09 17:09:56.485,5,0.29,0.03,-0.18,-76.5322,248.09459999999999,-168.0062,175,75
2026-05-09 17:09:56.496,5,0.38,0.07,-0.14,-63.0922,248.09459999999999,-176.4562,175,75
2026-05-09 17:09:56.496,5,0.69,0.17,-0.05,-47.9822,248.09459999999999,-158.3362,175,75
2026-05-09 17:09:56.516,5,0.33,0.56,0.3,18.677799999999998,-11.435400000000001,188.4738,175,75
2026-05-09 17:09:56.522,5,0.22,0.73,0.82,8.8778,-37.1954,154.1338,175,75
2026-05-09 17:09:56.535,5,0.14,0.28,0.57,-3.5522,-25.7354,128.4738,175,75
2026-05-09 17:09:56.544,5,-0.12,0.08,0.34,1.4978,-11.9754,112.0938,175,75
2026-05-09 17:09:56.556,5,-0.34,0.08,0.27,14.1178,-10.955400000000001,92.10379999999999,175,75
2026-05-09 17:09:56.556,5,-0.3,0.02,0.38,27.2078,-6.6654,69.9038,175,75
2026-05-09 17:09:56.566,5,0.0,0.1,0.63,29.4578,32.724599999999995,46.4538,175,75
2026-05-09 17:09:56.571,5,0.48,0.14,0.95,21.8878,112.4646,40.7838,175,75
2026-05-09 17:09:56.587,5,1.2,0.39,1.53,-10.3722,225.28459999999998,91.9038,175,75
2026-05-09 17:09:56.595,5,1.69,1.14,2.0,-83.8022,248.09459999999999,224.1038,175,75
2026-05-09 17:09:56.607,5,1.18,1.59,2.0,-171.09220000000002,248.09459999999999,249.4938,175,75
2026-05-09 17:09:56.628,5,-1.13,0.23,2.0,-170.87220000000002,248.09459999999999,190.8338,175,75
2026-05-09 17:09:56.643,5,-2.0,-0.73,1.44,-96.9322,248.09459999999999,99.2238,175,75
2026-05-09 17:09:56.654,5,-2.0,-0.77,1.42,-40.2422,161.0846,85.0238,175,75
2026-05-09 17:09:56.689,5,-2.0,-0.42,2.0,54.5978,-252.1754,-49.5462,175,75
2026-05-09 17:09:56.702,5,-1.89,-0.23,1.6,81.2478,-252.1754,-71.4362,175,75
2026-05-09 17:09:56.702,5,-0.84,-0.01,1.05,97.76780000000001,-252.1754,-68.6962,175,75
2026-05-09 17:09:56.714,5,-0.36,0.17,0.74,108.1778,-252.1754,-50.8562,175,75
2026-05-09 17:09:56.726,5,0.63,0.03,0.26,116.51780000000001,-252.1754,-21.3662,175,75
2026-05-09 17:09:56.749,5,2.0,0.4,-1.02,119.5278,-252.1754,96.43379999999999,175,75
2026-05-09 17:09:56.749,5,2.0,-0.6,-2.0,133.50779999999997,-12.5654,196.6638,175,75
2026-05-09 17:09:56.760,5,1.9,0.2,-2.0,129.34779999999998,106.16460000000001,202.5238,175,75
2026-05-09 17:09:56.774,5,0.07,0.09,-0.87,95.9378,60.9246,180.5538,175,75
2026-05-09 17:09:56.792,5,-0.16,-0.15,-0.19,67.29780000000001,-6.0454,188.5238,175,75
2026-05-09 17:09:56.802,5,0.15,-0.3,0.4,56.6878,-28.525399999999998,221.5938,175,75
2026-05-09 17:09:56.812,5,0.78,-0.7,0.97,31.8878,22.1446,249.4938,175,75
2026-05-09 17:09:56.812,5,1.57,-1.09,1.95,-2.4322,161.4046,249.4938,175,75
2026-05-09 17:09:56.823,5,0.39,-0.31,2.0,-11.6322,248.09459999999999,220.75379999999998,175,75
2026-05-09 17:09:56.838,5,0.14,-0.41,2.0,55.9078,248.09459999999999,-181.9762,175,75
2026-05-09 17:09:56.838,5,0.18,0.52,2.0,41.7778,248.09459999999999,-250.7762,175,75
2026-05-09 17:09:56.849,5,-0.6,0.55,2.0,13.8078,248.09459999999999,-250.7762,175,75
2026-05-09 17:09:56.870,5,-1.03,0.4,1.98,31.3978,236.0246,-250.7762,175,75
2026-05-09 17:09:56.880,5,-2.0,0.76,1.77,39.1578,80.2346,-219.9862,175,75
2026-05-09 17:09:56.880,5,-2.0,0.82,1.95,14.577800000000002,-33.3054,-123.8462,175,75
2026-05-09 17:09:56.892,5,-1.85,0.87,2.0,-25.502200000000002,-118.4254,17.1838,175,75
2026-05-09 17:09:56.908,5,-1.14,0.81,2.0,-45.2222,-171.1754,215.25379999999998,175,75
2026-05-09 17:09:56.920,5,-0.42,0.7,2.0,-25.7822,-184.4854,249.4938,175,75
2026-05-09 17:09:56.954,5,0.33,0.6,1.84,-33.612199999999994,-178.9854,249.4938,175,75
2026-05-09 17:09:56.962,5,0.61,0.36,1.46,-63.20219999999999,-129.2754,249.4938,175,75
2026-05-09 17:09:56.974,5,0.39,-0.03,1.16,-73.7222,-103.8254,249.4938,175,75
2026-05-09 17:09:56.998,5,-0.75,-0.22,1.4,-102.4022,-195.8554,249.4938,175,75
2026-05-09 17:09:57.019,5,-1.01,-1.06,1.45,-183.5722,-252.1754,249.4938,175,75
2026-05-09 17:09:57.019,5,-0.64,-2.0,0.59,-189.40220000000002,-252.1754,249.4938,175,75
2026-05-09 17:09:57.087,5,-1.77,-2.0,-0.52,0.5978,-135.1054,102.5438,175,75
2026-05-09 17:09:57.147,5,-1.09,-1.63,-0.8,173.5778,14.724600000000002,-250.7762,175,75
2026-05-09 17:09:57.189,5,0.01,-0.87,-0.85,201.9478,118.1346,-250.7762,175,75
2026-05-09 17:09:57.205,5,0.47,-0.51,-0.48,183.9478,228.1146,-250.7762,175,75
2026-05-09 17:09:57.205,5,0.12,0.15,-0.44,151.49779999999998,248.09459999999999,-250.7762,175,75
2026-05-09 17:09:57.218,5,-0.51,0.36,-0.41,107.8878,248.09459999999999,-250.7762,175,75
2026-05-09 17:09:57.231,5,-0.83,1.27,-0.31,1.4078,99.1546,-250.7762,175,75
2026-05-09 17:09:57.235,5,0.57,1.45,-0.52,-51.7222,-9.615400000000001,-250.7762,175,75
2026-05-09 17:09:57.259,5,1.05,1.6,1.66,-41.792199999999994,54.184599999999996,249.4938,175,75
2026-05-09 17:09:57.275,5,1.61,-0.21,1.39,-119.1122,248.09459999999999,249.4938,175,75
2026-05-09 17:09:57.281,5,0.75,-0.15,2.0,-124.70219999999999,248.09459999999999,249.4938,175,75
2026-05-09 17:09:57.288,5,-1.21,-0.9,1.4,-78.4722,248.09459999999999,249.4938,175,75
2026-05-09 17:09:57.312,5,-2.0,-1.41,1.61,-38.6522,71.05460000000001,249.4938,175,75
2026-05-09 17:09:57.312,5,-2.0,-1.42,1.32,10.8178,-41.885400000000004,249.4938,175,75
2026-05-09 17:09:57.322,5,-2.0,-1.3,1.69,68.7878,-56.565400000000004,-250.7762,175,75
2026-05-09 17:09:57.336,5,-1.47,-1.37,2.0,65.9578,22.724600000000002,-250.7762,175,75
2026-05-09 17:09:57.336,5,-1.62,-1.19,2.0,86.1478,2.6646,-250.7762,175,75
2026-05-09 17:09:57.349,5,-0.65,-0.54,1.44,147.3978,-63.0354,-250.7762,175,75
2026-05-09 17:09:57.360,5,0.05,0.17,1.14,196.81779999999998,-79.3454,-250.7762,175,75
2026-05-09 17:09:57.360,5,0.31,1.21,1.15,195.24779999999998,-80.3254,-250.7762,175,75
2026-05-09 17:09:57.370,5,0.21,0.94,1.08,164.3278,-94.9754,-250.7762,175,75
2026-05-09 17:09:57.370,5,-0.03,1.37,1.16,116.6678,-84.0454,-250.7762,175,75
2026-05-09 17:09:57.382,5,-0.11,1.26,1.05,61.3778,-73.1754,-250.7762,175,75
2026-05-09 17:09:57.394,5,-0.06,1.17,0.91,11.6278,-74.0154,-250.7762,175,75
2026-05-09 17:09:57.394,5,0.2,1.29,0.64,-23.0222,-87.8954,-176.5262,175,75
2026-05-09 17:09:57.416,5,1.02,1.58,0.29,-26.502200000000002,-78.13539999999999,7.303800000000001,175,75
2026-05-09 17:09:57.431,5,1.27,1.82,0.14,-26.142200000000003,-17.6954,168.6738,175,75
2026-05-09 17:09:57.443,5,1.26,1.3,-0.11,-7.4722,61.8446,249.4938,175,75
2026-05-09 17:09:57.455,5,0.65,0.85,0.1,8.4278,108.36460000000001,249.4938,175,75
2026-05-09 17:09:57.455,5,0.45,0.64,0.34,0.8778,114.22460000000001,249.4938,175,75
2026-05-09 17:09:57.455,5,0.57,0.35,0.44,-7.0122,91.6046,249.4938,175,75
2026-05-09 17:09:57.486,5,0.82,0.34,0.62,-14.5122,68.50460000000001,249.4938,175,75
2026-05-09 17:09:57.496,5,1.13,0.7,0.45,-21.4322,70.8446,249.4938,175,75
2026-05-09 17:09:57.509,5,0.88,-0.89,2.0,48.3078,80.0346,249.4938,175,75
2026-05-09 17:09:57.527,5,0.43,-0.78,2.0,101.2078,158.35459999999998,249.4938,175,75
2026-05-09 17:09:57.552,5,-2.0,-0.27,1.99,72.0778,248.09459999999999,-26.876199999999997,175,75
2026-05-09 17:09:57.552,5,-2.0,-0.37,1.81,28.607799999999997,248.09459999999999,-217.5862,175,75
2026-05-09 17:09:57.563,5,-1.71,-0.43,1.72,25.6878,120.64460000000001,-250.7762,175,75
2026-05-09 17:09:57.573,5,-0.75,-0.16,2.0,48.8478,-15.9054,-203.9062,175,75
2026-05-09 17:09:57.573,5,-0.22,0.32,2.0,34.7578,-99.2854,-74.39620000000001,175,75
2026-05-09 17:09:57.589,5,-0.22,0.43,2.0,12.597800000000001,-123.1854,34.3838,175,75
2026-05-09 17:09:57.589,5,-0.12,0.22,1.83,-9.2122,-135.5754,156.6738,175,75
2026-05-09 17:09:57.606,5,-0.08,0.04,1.48,-21.732200000000002,-140.5354,249.4938,175,75
2026-05-09 17:09:57.617,5,-0.02,-0.14,1.09,-38.0122,-138.52540000000002,249.4938,175,75
2026-05-09 17:09:57.628,5,0.03,-0.05,1.01,-47.1622,-144.80540000000002,249.4938,175,75
2026-05-09 17:09:57.628,5,-0.07,-0.44,0.7,-41.282199999999996,-166.18540000000002,249.4938,175,75
2026-05-09 17:09:57.647,5,-0.17,-0.73,0.52,-55.292199999999994,-252.1754,249.4938,175,75
2026-05-09 17:09:57.659,5,0.28,-1.09,0.19,-49.392199999999995,-252.1754,249.4938,175,75
2026-05-09 17:09:57.661,5,0.86,-1.58,-0.49,-18.0222,-202.9854,239.0738,175,75
2026-05-09 17:09:57.673,5,0.36,-1.46,-0.78,40.9078,-71.44539999999999,83.2038,175,75
2026-05-09 17:09:57.693,5,-0.38,-0.72,-0.85,106.9478,47.374599999999994,-133.0362,175,75
2026-05-09 17:09:57.711,5,-0.37,-0.29,-0.63,130.0478,60.2346,-175.1862,175,75
2026-05-09 17:09:57.713,5,-0.2,-0.36,-0.54,122.2878,65.30460000000001,-186.3262,175,75
2026-05-09 17:09:57.723,5,-0.28,-0.15,-0.43,97.26780000000001,47.1746,-166.0962,175,75
2026-05-09 17:09:57.735,5,-0.29,0.1,-0.33,53.397800000000004,14.3046,-140.4462,175,75
2026-05-09 17:09:57.745,5,-0.15,0.28,-0.23,-2.6022000000000003,-12.7254,-126.2762,175,75
2026-05-09 17:09:57.759,5,0.18,0.23,-0.18,-48.0822,-5.465400000000001,-128.4562,175,75
2026-05-09 17:09:57.770,5,0.34,0.1,-0.19,-66.6322,26.334600000000002,-137.0562,175,75
2026-05-09 17:09:57.770,5,0.34,0.06,-0.19,-64.1122,63.7246,-149.6162,175,75
2026-05-09 17:09:57.783,5,0.3,0.03,-0.18,-47.712199999999996,91.3246,-161.9062,175,75
2026-05-09 17:09:57.794,5,-0.06,0.07,-0.14,15.7178,40.9146,-221.9462,175,75
2026-05-09 17:09:57.798,5,0.66,0.45,0.26,46.397800000000004,-100.83539999999999,-214.71620000000001,175,75
2026-05-09 17:09:57.810,5,1.24,0.84,0.75,41.787800000000004,-169.3454,-154.6262,175,75
2026-05-09 17:09:57.821,5,1.0,1.51,-0.08,-8.3722,-163.3554,-119.1362,175,75
2026-05-09 17:09:57.832,5,1.24,1.03,1.06,-33.542199999999994,-65.2154,-151.6862,175,75
2026-05-09 17:09:57.839,5,1.28,0.91,1.38,-89.5222,114.0746,-213.2562,175,75
2026-05-09 17:09:57.849,5,2.0,0.69,1.97,-144.9822,248.09459999999999,-198.1462,175,75
2026-05-09 17:09:57.860,5,2.0,0.58,2.0,-218.59220000000002,248.09459999999999,18.4738,175,75
2026-05-09 17:09:57.860,5,2.0,0.4,2.0,-249.2722,248.09459999999999,249.4938,175,75
2026-05-09 17:09:57.872,5,0.41,0.05,1.24,-205.0222,248.09459999999999,249.4938,175,75
2026-05-09 17:09:57.898,5,-2.0,-0.42,1.4,-65.4722,248.09459999999999,249.4938,175,75
2026-05-09 17:09:57.898,5,-2.0,-0.99,1.55,-32.572199999999995,224.7746,249.4938,175,75
2026-05-09 17:09:57.914,5,-2.0,-1.42,1.67,16.2078,68.33460000000001,126.0438,175,75
2026-05-09 17:09:57.927,5,-2.0,-1.55,1.67,76.23780000000001,-40.0154,-24.086199999999998,175,75
2026-05-09 17:09:57.938,5,-2.0,-1.38,1.86,119.4478,-84.0054,-120.6062,175,75
2026-05-09 17:09:57.938,5,-2.0,-0.94,1.87,149.5778,-111.30539999999999,-193.9262,175,75
2026-05-09 17:09:57.962,5,-2.0,-0.51,1.75,183.1778,-179.3554,-250.7762,175,75
2026-05-09 17:09:57.962,5,-1.32,0.18,1.76,205.62779999999998,-252.1754,-250.7762,175,75
2026-05-09 17:09:58.007,5,0.63,1.54,1.87,123.1078,-252.1754,-250.7762,175,75
2026-05-09 17:09:58.019,5,1.53,1.52,1.58,72.4278,-252.1754,-171.4062,175,75
2026-05-09 17:09:58.029,5,2.0,1.34,1.4,15.017800000000001,-252.1754,-53.8162,175,75
2026-05-09 17:09:58.039,5,2.0,0.46,0.45,54.677800000000005,-6.9454,249.4938,175,75
2026-05-09 17:09:58.054,5,2.0,0.59,0.77,60.857800000000005,131.1146,249.4938,175,75
2026-05-09 17:09:58.058,5,1.87,0.53,1.3,47.5178,174.72459999999998,249.4938,175,75
2026-05-09 17:09:58.075,5,1.24,0.35,2.0,25.3078,130.9546,249.4938,175,75
2026-05-09 17:09:58.086,5,0.71,0.11,2.0,12.9078,138.97459999999998,249.4938,175,75
2026-05-09 17:09:58.097,5,0.26,0.11,1.86,-11.3522,215.0146,219.5938,175,75
2026-05-09 17:09:58.109,5,-0.23,-0.25,1.54,-35.4822,248.09459999999999,91.1738,175,75
2026-05-09 17:09:58.117,5,-0.67,-0.37,1.33,-45.4822,248.09459999999999,18.9438,175,75
2026-05-09 17:09:58.132,5,-0.96,-1.02,1.43,-38.572199999999995,208.8246,24.7738,175,75
2026-05-09 17:09:58.152,5,-0.81,-0.8,1.32,-18.5122,128.1746,70.0838,175,75
2026-05-09 17:09:58.192,5,-0.96,-0.74,1.26,12.1178,41.5346,130.78379999999999,175,75
2026-05-09 17:09:58.192,5,-1.02,-0.49,1.29,22.447799999999997,-36.745400000000004,160.2138,175,75
2026-05-09 17:09:58.228,5,-0.72,-0.43,1.12,17.7178,-107.8154,160.3838,175,75
2026-05-09 17:09:58.231,5,-0.34,-0.49,0.82,13.6378,-171.4854,154.1238,175,75
2026-05-09 17:09:58.248,5,0.02,-0.58,0.52,14.6378,-232.52540000000002,151.7438,175,75
2026-05-09 17:09:58.248,5,0.51,-0.75,0.08,21.2778,-252.1754,142.1838,175,75
2026-05-09 17:09:58.260,5,2.0,-1.22,-0.76,43.8678,-211.27540000000002,101.3838,175,75
2026-05-09 17:09:58.260,5,2.0,-1.38,-1.91,86.2078,50.184599999999996,-4.776199999999999,175,75
2026-05-09 17:09:58.279,5,0.2,-0.46,-0.87,129.1678,165.13459999999998,-22.1362,175,75
2026-05-09 17:09:58.300,5,-0.6,-0.0,-0.54,107.6778,103.7846,-22.9762,175,75
2026-05-09 17:09:58.300,5,-0.83,0.26,-0.28,66.12780000000001,32.044599999999996,-53.1662,175,75
2026-05-09 17:09:58.310,5,-0.87,0.24,-0.21,24.7178,-28.0154,-96.64620000000001,175,75
2026-05-09 17:09:58.310,5,-0.69,0.15,-0.15,-8.9622,-82.4854,-133.6562,175,75
2026-05-09 17:09:58.323,5,-0.22,0.05,-0.01,-31.7522,-102.9554,-150.3962,175,75
2026-05-09 17:09:58.323,5,0.11,0.03,0.09,-42.6322,-78.0954,-154.3362,175,75
2026-05-09 17:09:58.335,5,0.21,0.0,0.12,-42.2622,-33.565400000000004,-159.1062,175,75
2026-05-09 17:09:58.344,5,0.06,0.04,0.06,-24.2922,34.7846,-169.24620000000002,175,75
2026-05-09 17:09:58.357,5,0.06,0.09,0.05,-13.0222,65.4946,-153.3962,175,75
2026-05-09 17:09:58.367,5,0.06,0.14,0.06,-8.922199999999998,65.91460000000001,-133.0362,175,75
2026-05-09 17:09:58.380,5,0.11,0.14,0.1,-3.4622,65.75460000000001,-109.7562,175,75
2026-05-09 17:09:58.390,5,0.22,0.12,0.2,8.3978,70.4846,-82.7662,175,75
2026-05-09 17:09:58.390,5,0.14,0.58,-0.24,6.2078,69.1546,-38.5662,175,75
2026-05-09 17:09:58.401,5,0.3,0.1,0.55,21.1378,70.4946,-7.4862,175,75
2026-05-09 17:09:58.420,5,0.24,0.31,0.65,21.1178,65.4546,66.85379999999999,175,75
2026-05-09 17:09:58.431,5,0.26,0.32,0.7,21.427799999999998,49.4846,110.3338,175,75
2026-05-09 17:09:58.431,5,0.44,0.49,0.92,16.3678,-4.135400000000001,185.6538,175,75
2026-05-09 17:09:58.444,5,0.74,0.68,1.25,-3.1122,-110.9554,249.4938,175,75
2026-05-09 17:09:58.455,5,0.88,0.74,1.69,-21.9422,-252.1754,249.4938,175,75
2026-05-09 17:09:58.465,5,2.0,0.65,1.99,-14.232199999999999,-252.1754,249.4938,175,75
2026-05-09 17:09:58.472,5,2.0,1.46,2.0,-69.2822,-88.1554,-45.2962,175,75
2026-05-09 17:09:58.483,5,2.0,0.79,1.83,-102.7922,248.09459999999999,-250.7762,175,75
2026-05-09 17:09:58.493,5,1.59,0.44,1.62,-121.4022,248.09459999999999,-250.7762,175,75
2026-05-09 17:09:58.547,5,1.03,-0.95,0.81,-66.9022,248.09459999999999,249.4938,175,75
2026-05-09 17:09:58.547,5,-2.0,-0.86,1.32,-25.342200000000002,248.09459999999999,249.4938,175,75
2026-05-09 17:09:58.568,5,-2.0,-0.99,1.92,-1.9622000000000002,-6.9254,249.4938,175,75
2026-05-09 17:09:58.579,5,-2.0,-1.0,1.96,2.5278,47.0746,-22.3662,175,75
2026-05-09 17:09:58.600,5,-1.69,-1.02,2.0,12.517800000000001,138.6546,-250.7762,175,75
2026-05-09 17:09:58.622,5,-1.31,-1.23,2.0,45.287800000000004,194.06459999999998,-250.7762,175,75
2026-05-09 17:09:58.634,5,-1.14,-0.97,2.0,107.5278,124.14460000000001,-250.7762,175,75
2026-05-09 17:09:58.645,5,-0.73,-0.24,1.78,184.4478,-15.645399999999999,-250.7762,175,75
2026-05-09 17:09:58.659,5,-0.39,0.58,1.68,225.1778,-121.4354,-250.7762,175,75
2026-05-09 17:09:58.673,5,-0.54,0.94,1.55,222.3578,-186.7054,-250.7762,175,75
2026-05-09 17:09:58.673,5,-0.65,1.21,1.38,194.2078,-235.3754,-250.7762,175,75
2026-05-09 17:09:58.680,5,-0.51,1.13,1.17,156.15779999999998,-252.1754,-250.7762,175,75
2026-05-09 17:09:58.690,5,-0.16,0.99,1.04,120.9778,-252.1754,-250.74620000000002,175,75
2026-05-09 17:09:58.701,5,0.34,0.86,1.07,88.54780000000001,-215.77540000000002,-149.3162,175,75
2026-05-09 17:09:58.721,5,1.49,1.02,1.59,11.347800000000001,-16.1954,107.5138,175,75
2026-05-09 17:09:58.731,5,1.42,0.98,1.71,-26.4622,87.66460000000001,249.4938,175,75
2026-05-09 17:09:58.731,5,1.18,0.86,1.67,-53.032199999999996,167.9846,249.4938,175,75
2026-05-09 17:09:58.755,5,0.84,0.63,1.49,-66.1522,240.5846,249.4938,175,75
2026-05-09 17:09:58.755,5,0.28,0.55,1.38,-70.2822,248.09459999999999,249.4938,175,75
2026-05-09 17:09:58.766,5,-0.9,0.45,1.55,-73.87219999999999,248.09459999999999,249.4938,175,75
2026-05-09 17:09:58.778,5,-2.0,-0.13,2.0,-78.6922,148.8046,249.4938,175,75
2026-05-09 17:09:58.778,5,-2.0,-0.96,2.0,-64.84219999999999,48.4146,209.3038,175,75
2026-05-09 17:09:58.790,5,-2.0,-1.26,1.11,54.037800000000004,-6.2654000000000005,-90.42620000000001,175,75
2026-05-09 17:09:58.814,5,-1.86,-0.87,0.96,123.4678,-55.705400000000004,-205.0162,175,75
2026-05-09 17:09:58.814,5,-1.44,-0.45,0.98,157.68779999999998,-111.9054,-250.7762,175,75
2026-05-09 17:09:58.824,5,-0.86,0.08,1.05,177.6178,-184.39540000000002,-250.7762,175,75
2026-05-09 17:09:58.850,5,-0.34,0.53,0.94,179.77779999999998,-245.7354,-250.7762,175,75
2026-05-09 17:09:58.850,5,0.08,0.65,0.96,171.2278,-252.1754,-250.7762,175,75
2026-05-09 17:09:58.862,5,0.27,1.03,0.9,141.0178,-252.1754,-250.7762,175,75
2026-05-09 17:09:58.875,5,0.37,1.04,0.66,100.4178,-252.1754,-250.7762,175,75
2026-05-09 17:09:58.887,5,0.53,0.86,0.32,60.9778,-252.1754,-245.2262,175,75
2026-05-09 17:09:58.898,5,0.96,0.64,-0.13,32.8678,-233.05540000000002,-199.1062,175,75
2026-05-09 17:09:58.913,5,0.86,0.14,-0.03,39.3078,-150.43540000000002,74.2338,175,75
2026-05-09 17:09:58.913,5,0.09,0.36,-0.35,10.1378,-149.4554,146.0438,175,75
2026-05-09 17:09:58.928,5,-0.04,0.05,-0.47,3.1078,-159.7954,205.3438,175,75
2026-05-09 17:09:58.933,5,-0.17,-0.15,-0.51,7.7378,-186.89540000000002,249.4938,175,75
2026-05-09 17:09:58.947,5,-0.14,-0.17,-0.46,21.087799999999998,-196.1054,249.4938,175,75
2026-05-09 17:09:58.958,5,-0.04,-0.14,-0.31,26.0278,-168.3154,249.4938,175,75
2026-05-09 17:09:58.974,5,-0.07,-0.08,-0.11,16.8178,4.9646,240.5438,175,75
2026-05-09 17:09:58.992,5,-0.03,-0.12,-0.08,6.1078,90.8146,178.1838,175,75
2026-05-09 17:09:59.006,5,-0.19,-0.2,-0.23,2.2078,154.7646,116.8838,175,75
2026-05-09 17:09:59.019,5,-0.18,-0.16,-0.24,-3.5922,198.03459999999998,55.7038,175,75
2026-05-09 17:09:59.022,5,-0.07,-0.09,-0.18,-8.252199999999998,234.2746,2.5838,175,75
2026-05-09 17:09:59.048,5,-0.03,-0.05,-0.14,-11.662199999999999,248.09459999999999,-41.8562,175,75
2026-05-09 17:09:59.062,5,0.04,0.0,-0.09,-11.982199999999999,248.09459999999999,-82.3062,175,75
2026-05-09 17:09:59.084,5,0.09,0.04,-0.04,-10.082199999999998,248.09459999999999,-113.78620000000001,175,75
2026-05-09 17:09:59.084,5,0.05,0.03,0.03,-1.3622,248.09459999999999,-138.0262,175,75
2026-05-09 17:09:59.084,5,0.29,0.44,0.67,28.427799999999998,68.2046,-29.946199999999997,175,75
2026-05-09 17:09:59.111,5,0.56,0.88,0.45,-0.7921999999999999,-68.4354,45.3838,175,75
2026-05-09 17:09:59.129,5,0.23,0.13,0.45,0.7578,-54.2254,41.843799999999995,175,75
2026-05-09 17:09:59.145,5,-0.1,0.05,0.35,21.8478,-26.115399999999998,19.8338,175,75
2026-05-09 17:09:59.155,5,-0.16,0.11,0.47,33.717800000000004,0.9045999999999998,-9.6562,175,75
2026-05-09 17:09:59.155,5,0.18,0.12,0.74,33.0178,52.7746,-24.8662,175,75
2026-05-09 17:09:59.178,5,0.79,0.32,1.24,10.3078,132.4346,-0.17620000000000008,175,75
2026-05-09 17:09:59.189,5,1.56,0.61,1.98,-48.5622,234.35459999999998,110.1338,175,75
2026-05-09 17:09:59.200,5,0.91,1.27,2.0,-230.6622,248.09459999999999,249.4938,175,75
2026-05-09 17:09:59.200,5,-0.64,0.67,2.0,-249.2722,248.09459999999999,249.4938,175,75
2026-05-09 17:09:59.212,5,-2.0,-0.32,1.97,-212.7722,248.09459999999999,233.1538,175,75
2026-05-09 17:09:59.222,5,-2.0,-0.83,1.54,-169.6922,248.09459999999999,173.0438,175,75
2026-05-09 17:09:59.234,5,-2.0,-1.56,1.7,-45.2422,31.314600000000002,90.5138,175,75
2026-05-09 17:09:59.253,5,-2.0,-1.45,2.0,17.107799999999997,-146.39540000000002,2.7338,175,75
2026-05-09 17:09:59.263,5,-2.0,-1.09,2.0,53.2578,-252.1754,-117.1562,175,75
2026-05-09 17:09:59.270,5,-2.0,-0.64,2.0,96.5878,-252.1754,-201.6662,175,75
2026-05-09 17:09:59.280,5,-1.55,-0.18,1.46,134.1478,-252.1754,-234.6362,175,75
2026-05-09 17:09:59.291,5,-0.39,0.33,0.98,154.59779999999998,-252.1754,-245.3262,175,75
2026-05-09 17:09:59.296,5,0.47,0.37,0.56,151.6778,-252.1754,-239.24620000000002,175,75
2026-05-09 17:09:59.310,5,1.22,0.64,-0.18,122.48780000000001,-252.1754,-169.46620000000001,175,75
2026-05-09 17:09:59.320,5,2.0,0.82,-1.87,125.9278,-252.1754,17.0638,175,75
2026-05-09 17:09:59.320,5,2.0,0.91,-2.0,136.4278,-27.4054,244.6038,175,75
2026-05-09 17:09:59.331,5,0.82,0.57,-1.3,67.4678,82.3446,188.5938,175,75
2026-05-09 17:09:59.344,5,-0.16,-0.01,-0.66,35.107800000000005,52.0346,166.4838,175,75
2026-05-09 17:09:59.377,5,1.4,-0.61,1.7,-9.642199999999999,235.4346,249.4938,175,75
2026-05-09 17:09:59.396,5,-0.34,-0.27,2.0,3.8678,248.09459999999999,102.3838,175,75
2026-05-09 17:09:59.422,5,0.47,-0.19,2.0,54.6278,248.09459999999999,-250.7762,175,75
2026-05-09 17:09:59.433,5,0.8,0.5,2.0,6.8378,248.09459999999999,-250.7762,175,75
2026-05-09 17:09:59.467,5,-2.0,0.34,1.38,47.747800000000005,81.91460000000001,-159.6662,175,75
2026-05-09 17:09:59.481,5,-1.79,0.72,1.93,-4.7022,-139.0454,43.4938,175,75
2026-05-09 17:09:59.510,5,0.15,-0.45,1.33,-41.602199999999996,-179.4554,249.4938,175,75
2026-05-09 17:09:59.520,5,-0.03,-1.02,1.19,-84.37219999999999,-252.1754,249.4938,175,75
2026-05-09 17:09:59.535,5,0.56,-2.0,-0.29,-41.0622,-209.68540000000002,249.4938,175,75
2026-05-09 17:09:59.549,5,-0.91,-1.97,-0.38,45.9778,-68.3954,148.9238,175,75
2026-05-09 17:09:59.559,5,-0.88,-0.8,-0.54,228.09779999999998,16.4846,-250.7762,175,75
2026-05-09 17:09:59.575,5,-0.33,-0.12,-0.48,211.4278,54.624599999999994,-250.7762,175,75
2026-05-09 17:09:59.582,5,-0.29,0.31,-0.45,185.31779999999998,82.9846,-250.7762,175,75
2026-05-09 17:09:59.593,5,-0.41,0.37,-0.2,128.7978,69.4346,-250.7762,175,75
2026-05-09 17:09:59.602,5,-0.62,0.6,-0.22,69.8478,15.9146,-250.7762,175,75
2026-05-09 17:09:59.625,5,-0.7,0.93,-0.23,3.5678,-55.9254,-250.7762,175,75
2026-05-09 17:09:59.643,5,2.0,0.97,-0.42,-99.4122,-83.91539999999999,-250.7762,175,75
2026-05-09 17:09:59.654,5,1.89,1.36,-0.15,-86.0422,121.64460000000001,249.4938,175,75
2026-05-09 17:09:59.696,5,0.32,1.84,1.64,-103.7522,30.6146,189.3238,175,75
2026-05-09 17:09:59.707,5,2.0,0.77,2.0,-201.8922,195.13459999999998,164.9638,175,75
2026-05-09 17:09:59.722,5,2.0,-0.23,1.8,-222.71220000000002,248.09459999999999,249.4938,175,75
2026-05-09 17:09:59.722,5,1.7,-0.94,1.37,-196.09220000000002,248.09459999999999,249.4938,175,75
2026-05-09 17:09:59.750,5,-2.0,-1.24,1.46,-61.9722,190.5446,249.4938,175,75
2026-05-09 17:09:59.760,5,-2.0,-1.43,1.48,-11.1322,-14.955400000000001,249.4938,175,75
2026-05-09 17:09:59.760,5,-2.0,-1.31,1.41,29.677799999999998,-120.2354,208.25379999999998,175,75
2026-05-09 17:09:59.771,5,-2.0,-1.25,1.58,51.5978,-142.74540000000002,-97.89620000000001,175,75
2026-05-09 17:09:59.782,5,-1.81,-1.26,2.0,64.9778,-79.35539999999999,-250.7762,175,75
2026-05-09 17:09:59.793,5,-2.0,-1.01,2.0,91.8878,-44.025400000000005,-250.7762,175,75
2026-05-09 17:09:59.811,5,-0.03,0.24,1.25,197.5778,-175.3554,-250.7762,175,75
2026-05-09 17:09:59.838,5,0.65,1.11,1.19,194.06779999999998,-185.90540000000001,-250.7762,175,75
2026-05-09 17:09:59.854,5,0.43,1.03,1.05,161.46779999999998,-160.5354,-250.7762,175,75
2026-05-09 17:09:59.859,5,0.44,1.1,1.04,114.7478,-109.5954,-250.7762,175,75
2026-05-09 17:09:59.873,5,0.44,0.87,0.95,65.7178,-52.055400000000006,-250.7762,175,75
2026-05-09 17:09:59.873,5,0.53,0.69,0.76,28.0678,-0.5454000000000001,-200.6862,175,75
2026-05-09 17:09:59.879,5,0.24,0.73,0.57,0.9078,38.504599999999996,-80.0162,175,75
2026-05-09 17:09:59.910,5,-0.15,1.03,0.27,-47.502199999999995,58.1646,55.593799999999995,175,75
2026-05-09 17:09:59.923,5,0.23,0.99,0.07,-53.002199999999995,60.864599999999996,113.4938,175,75
2026-05-09 17:09:59.935,5,0.76,0.81,0.05,-30.4722,98.1746,249.4938,175,75
2026-05-09 17:09:59.959,5,0.99,0.49,0.23,-17.982200000000002,79.5446,249.4938,175,75
2026-05-09 17:09:59.959,5,1.03,0.41,0.18,-3.0322,40.4146,249.4938,175,75
2026-05-09 17:09:59.974,5,0.59,0.19,0.44,4.2378,-19.415399999999998,249.4938,175,75
2026-05-09 17:10:00.018,5,0.43,-1.2,1.38,122.4278,142.6546,249.4938,175,75
2026-05-09 17:10:00.018,5,-0.43,-0.73,1.94,161.3078,248.09459999999999,30.983800000000002,175,75
2026-05-09 17:10:00.030,5,-1.28,-0.56,2.0,181.31779999999998,248.09459999999999,-250.7762,175,75
2026-05-09 17:10:00.049,5,-0.96,-0.06,2.0,155.2378,248.09459999999999,-250.7762,175,75
2026-05-09 17:10:00.063,5,-0.88,0.6,2.0,111.7878,206.72459999999998,-250.7762,175,75
2026-05-09 17:10:00.074,5,-0.71,0.94,2.0,91.90780000000001,-3.5254000000000003,-250.7762,175,75
2026-05-09 17:10:00.085,5,-0.61,1.04,2.0,72.6378,-79.1854,-250.7762,175,75
2026-05-09 17:10:00.095,5,-0.46,0.61,1.91,29.5278,-109.5454,-117.0162,175,75
2026-05-09 17:10:00.128,5,0.04,0.7,1.66,70.54780000000001,-105.80539999999999,249.4938,175,75
2026-05-09 17:10:00.138,5,0.19,0.85,1.59,37.5478,-101.8254,249.4938,175,75
2026-05-09 17:10:00.138,5,0.46,0.68,1.4,-11.222199999999999,-75.85539999999999,249.4938,175,75
2026-05-09 17:10:00.154,5,0.76,0.28,1.05,-47.6222,-45.845400000000005,249.4938,175,75
2026-05-09 17:10:00.168,5,0.1,0.31,1.11,-75.73219999999999,-63.4654,249.4938,175,75
2026-05-09 17:10:00.187,5,-0.59,-0.42,1.12,-120.6322,-206.9854,249.4938,175,75
2026-05-09 17:10:00.187,5,-0.44,-1.22,0.92,-148.15220000000002,-252.1754,249.4938,175,75
2026-05-09 17:10:00.198,5,0.15,-2.0,0.11,-118.1022,-252.1754,249.4938,175,75
2026-05-09 17:10:00.209,5,-0.45,-1.88,-0.2,-44.572199999999995,-123.74539999999999,229.8538,175,75
2026-05-09 17:10:00.232,5,-0.98,-1.23,-0.46,85.0278,19.814600000000002,-156.6362,175,75
2026-05-09 17:10:00.232,5,-0.65,-0.92,-0.61,122.0978,54.5646,-250.7762,175,75
2026-05-09 17:10:00.239,5,-0.23,-0.52,-0.7,122.90780000000001,89.9346,-250.7762,175,75
2026-05-09 17:10:00.253,5,-0.1,-0.38,-0.47,131.75779999999997,111.8246,-250.7762,175,75
2026-05-09 17:10:00.262,5,-0.19,-0.1,-0.49,102.2078,97.0446,-250.7762,175,75
2026-05-09 17:10:00.277,5,-0.35,0.08,-0.47,66.1078,43.334599999999995,-250.7762,175,75
2026-05-09 17:10:00.298,5,-0.04,0.57,-0.32,-39.4822,-80.2354,-246.6662,175,75
2026-05-09 17:10:00.298,5,0.6,0.38,-0.32,-81.7122,-70.2654,-229.0062,175,75
2026-05-09 17:10:00.325,5,0.81,0.14,-0.4,-66.2722,40.6346,-156.3462,175,75
2026-05-09 17:10:00.340,5,0.44,0.17,-0.29,-42.3722,74.72460000000001,-138.74620000000002,175,75
2026-05-09 17:10:00.340,5,0.23,0.13,-0.22,-17.7422,87.2846,-131.5862,175,75
2026-05-09 17:10:00.359,5,0.19,0.22,-0.1,5.8978,68.94460000000001,-109.9962,175,75
2026-05-09 17:10:00.359,5,0.36,0.47,0.28,17.337799999999998,1.8445999999999998,-35.1762,175,75
2026-05-09 17:10:00.368,5,0.53,0.64,0.75,5.1278,-65.6854,48.3138,175,75
2026-05-09 17:10:00.399,5,1.75,0.62,1.63,-91.3222,60.834599999999995,137.0138,175,75
2026-05-09 17:10:00.451,5,-2.0,-2.0,1.71,2.2378,248.09459999999999,136.2938,175,75
2026-05-09 17:10:00.464,5,-2.0,-1.41,0.89,51.067800000000005,248.09459999999999,49.9738,175,75
2026-05-09 17:10:00.476,5,-2.0,-1.46,0.9,117.6878,208.7746,-1.3162000000000003,175,75
2026-05-09 17:10:00.487,5,-2.0,-1.28,1.28,176.75779999999997,92.9246,-65.06620000000001,175,75
2026-05-09 17:10:00.497,5,-2.0,-0.79,2.0,195.3078,15.374600000000001,-143.7662,175,75
2026-05-09 17:10:00.497,5,-2.0,-0.28,2.0,191.27779999999998,-59.6854,-214.9362,175,75
2026-05-09 17:10:00.509,5,-2.0,0.3,2.0,194.68779999999998,-205.4854,-250.7762,175,75
2026-05-09 17:10:00.537,5,-1.17,1.18,1.49,204.2378,-252.1754,-250.7762,175,75
2026-05-09 17:10:00.562,5,-0.04,1.23,1.14,171.9278,-252.1754,-250.7762,175,75
2026-05-09 17:10:00.562,5,0.49,1.42,0.81,132.1378,-252.1754,-250.7762,175,75
2026-05-09 17:10:00.573,5,1.48,1.38,0.4,81.1978,-252.1754,-185.4462,175,75
2026-05-09 17:10:00.581,5,2.0,0.61,-1.06,87.5278,-252.1754,189.6338,175,75
2026-05-09 17:10:00.599,5,2.0,1.39,-0.68,83.8878,-104.7954,249.4938,175,75
2026-05-09 17:10:00.618,5,0.56,-0.16,-0.53,35.707800000000006,159.9346,249.4938,175,75
2026-05-09 17:10:00.635,5,0.79,-0.26,-0.39,63.887800000000006,201.88459999999998,249.4938,175,75
2026-05-09 17:10:00.635,5,1.13,-0.93,1.24,72.1378,248.09459999999999,249.4938,175,75
2026-05-09 17:10:00.648,5,0.68,0.24,2.0,5.5878,248.09459999999999,-148.0362,175,75
2026-05-09 17:10:00.663,5,0.38,0.36,2.0,-46.432199999999995,248.09459999999999,-250.7762,175,75
2026-05-09 17:10:00.663,5,-0.2,0.17,2.0,-60.3722,248.09459999999999,-250.7762,175,75
2026-05-09 17:10:00.683,5,-0.86,0.2,2.0,-41.3422,204.03459999999998,-211.1362,175,75
2026-05-09 17:10:00.689,5,-1.57,0.07,1.77,-33.9822,38.4246,-51.236200000000004,175,75
2026-05-09 17:10:00.700,5,-1.33,-0.02,1.67,-25.982200000000002,-6.3354,56.4238,175,75
2026-05-09 17:10:00.710,5,-0.95,-0.01,1.64,-1.5722,-40.0154,188.6138,175,75
2026-05-09 17:10:00.723,5,-0.6,0.21,1.76,25.247799999999998,-81.9754,249.4938,175,75
2026-05-09 17:10:00.738,5,-0.21,0.35,1.72,19.3878,-114.1754,249.4938,175,75
2026-05-09 17:10:00.741,5,0.17,0.18,1.42,-2.7922000000000002,-126.0954,249.4938,175,75
2026-05-09 17:10:00.758,5,0.43,-0.16,1.18,-15.692199999999998,-117.9854,249.4938,175,75
2026-05-09 17:10:00.777,5,0.38,-0.28,0.8,-19.842200000000002,-120.1454,249.4938,175,75
2026-05-09 17:10:00.790,5,1.53,-1.19,-0.08,-17.162200000000002,-240.3454,249.4938,175,75
2026-05-09 17:10:00.790,5,2.0,-2.0,-1.37,13.1578,3.3145999999999995,221.03379999999999,175,75
2026-05-09 17:10:00.850,5,-1.31,-0.39,-0.03,165.4478,55.364599999999996,-106.9062,175,75
2026-05-09 17:10:00.885,5,-0.45,-0.06,0.14,-2.8222,33.4146,-250.7762,175,75
2026-05-09 17:10:00.900,5,-0.16,0.27,0.14,-88.1822,33.474599999999995,-250.7762,175,75
2026-05-09 17:10:00.912,5,-0.04,0.47,0.14,-114.8922,53.114599999999996,-250.7762,175,75
2026-05-09 17:10:00.926,5,-0.06,0.54,0.09,-128.22220000000002,66.9346,-250.7762,175,75
2026-05-09 17:10:00.926,5,0.02,0.5,0.04,-128.4122,85.25460000000001,-250.7762,175,75
2026-05-09 17:10:00.946,5,1.0,0.35,-0.18,-28.4422,24.654600000000002,-250.7762,175,75
2026-05-09 17:10:00.987,5,-0.25,0.36,0.43,-30.6822,10.334599999999998,-20.6662,175,75
2026-05-09 17:10:00.987,5,-0.21,0.28,0.34,-10.822199999999999,31.0346,38.3838,175,75
2026-05-09 17:10:01.008,5,0.04,0.38,0.32,21.5378,42.1346,108.0438,175,75
2026-05-09 17:10:01.023,5,1.66,1.5,0.91,27.7978,-65.7354,249.4938,175,75
2026-05-09 17:10:01.032,5,2.0,1.71,1.3,7.1178,-153.5654,249.4938,175,75
2026-05-09 17:10:01.049,5,2.0,1.49,2.0,-14.9522,-230.7254,249.4938,175,75
2026-05-09 17:10:01.060,5,2.0,0.17,2.0,9.3878,183.0446,97.2038,175,75
2026-05-09 17:10:01.085,5,1.19,0.42,1.66,-4.5322000000000005,248.09459999999999,-62.0762,175,75
2026-05-09 17:10:01.101,5,1.57,2.0,2.0,-91.8322,248.09459999999999,158.4238,175,75
2026-05-09 17:10:01.101,5,0.15,-0.71,1.42,-142.2922,248.09459999999999,249.4938,175,75
2026-05-09 17:10:01.118,5,-2.0,-1.09,0.95,-82.3122,248.09459999999999,249.4938,175,75
2026-05-09 17:10:01.118,5,-2.0,-1.16,1.41,-21.982200000000002,170.2346,249.4938,175,75
2026-05-09 17:10:01.140,5,-2.0,-1.14,2.0,31.1678,-13.4254,-166.4162,175,75
2026-05-09 17:10:01.189,5,-0.63,0.67,1.66,200.5478,-252.1754,-250.7762,175,75
2026-05-09 17:10:01.215,5,-0.37,1.3,1.2,214.3678,-252.1754,-250.7762,175,75
2026-05-09 17:10:01.232,5,0.33,1.11,1.08,172.65779999999998,-252.1754,-250.7762,175,75
2026-05-09 17:10:01.256,5,1.4,1.22,1.47,55.3078,35.404599999999995,181.3138,175,75
2026-05-09 17:10:01.267,5,0.82,1.14,1.43,-1.8722000000000003,137.0746,249.4938,175,75
2026-05-09 17:10:01.271,5,0.74,0.89,1.28,-40.532199999999996,194.59459999999999,249.4938,175,75
2026-05-09 17:10:01.278,5,0.46,0.88,1.2,-55.3422,234.7946,249.4938,175,75
2026-05-09 17:10:01.307,5,0.48,0.55,1.18,-57.9022,248.09459999999999,249.4938,175,75
2026-05-09 17:10:01.307,5,0.11,0.51,1.18,-56.8022,248.09459999999999,249.4938,175,75
2026-05-09 17:10:01.375,5,-2.0,-0.7,1.93,-76.98219999999999,7.6146,225.1738,175,75
2026-05-09 17:10:01.375,5,-1.83,-0.63,1.66,-46.2422,-42.7654,44.053799999999995,175,75
2026-05-09 17:10:01.387,5,-1.33,-0.74,0.86,72.2178,-94.77539999999999,-201.3762,175,75
2026-05-09 17:10:01.410,5,-0.56,0.4,0.77,109.8478,-157.5354,-250.7762,175,75
2026-05-09 17:10:01.429,5,-0.07,0.81,0.49,117.8578,-252.1754,-250.7762,175,75
2026-05-09 17:10:01.440,5,0.11,1.01,0.27,100.2078,-252.1754,-250.7762,175,75
2026-05-09 17:10:01.446,5,0.57,0.83,0.03,73.01780000000001,-252.1754,-250.7762,175,75
2026-05-09 17:10:01.487,5,0.01,0.06,-0.25,64.1878,-225.9854,249.4938,175,75
2026-05-09 17:10:01.510,5,-0.27,-0.15,-0.16,63.717800000000004,-71.0154,249.4938,175,75
2026-05-09 17:10:01.520,5,-0.04,-0.11,-0.35,56.3678,105.30460000000001,123.9538,175,75
2026-05-09 17:10:01.529,5,-0.1,-0.01,-0.28,42.5978,173.59459999999999,67.1338,175,75
2026-05-09 17:10:01.544,5,-0.1,0.08,-0.21,22.5578,222.60459999999998,18.9338,175,75
2026-05-09 17:10:01.554,5,-0.08,0.12,-0.14,7.3378,248.09459999999999,-11.2262,175,75
2026-05-09 17:10:01.588,5,0.14,0.07,-0.06,4.3978,248.09459999999999,-57.9162,175,75
2026-05-09 17:10:01.610,5,0.69,1.7,0.32,26.0978,100.25460000000001,249.4938,175,75
2026-05-09 17:10:01.683,5,-0.22,0.32,0.77,49.247800000000005,77.8146,235.2638,175,75
2026-05-09 17:10:01.684,5,0.5,0.35,1.26,27.6478,127.9446,214.3238,175,75
2026-05-09 17:10:01.721,5,0.13,0.99,2.0,-186.6922,248.09459999999999,224.8138,175,75
2026-05-09 17:10:01.786,5,-2.0,0.15,2.0,26.657799999999998,-252.1754,7.0838,175,75
2026-05-09 17:10:01.790,5,-1.36,0.07,2.0,28.9678,-252.1754,15.9538,175,75
2026-05-09 17:10:01.803,5,-0.37,-0.08,1.26,36.717800000000004,-252.1754,51.7038,175,75
2026-05-09 17:10:01.818,5,0.79,-0.23,0.73,44.5778,-252.1754,107.3438,175,75
2026-05-09 17:10:01.830,5,1.11,-0.53,-0.31,78.2278,-252.1754,209.6838,175,75
2026-05-09 17:10:01.874,5,0.07,-0.35,-0.22,109.12780000000001,-4.1654,135.9338,175,75
2026-05-09 17:10:01.885,5,0.31,-0.08,0.51,90.8578,14.7146,167.4738,175,75
2026-05-09 17:10:01.885,5,0.82,-0.26,1.21,82.29780000000001,128.78459999999998,175.1138,175,75
2026-05-09 17:10:01.897,5,0.92,0.78,0.85,19.607799999999997,248.09459999999999,126.68379999999999,175,75
2026-05-09 17:10:01.908,5,0.77,0.34,1.93,-16.1022,248.09459999999999,-3.2962000000000002,175,75
2026-05-09 17:10:01.925,5,-1.04,-0.35,2.0,29.4378,248.09459999999999,-250.7762,175,75
2026-05-09 17:10:01.937,5,-1.31,0.53,2.0,-30.982200000000002,213.4646,-250.7762,175,75
2026-05-09 17:10:01.947,5,-2.0,0.24,1.88,-7.182200000000001,150.4546,-250.7762,175,75
2026-05-09 17:10:01.947,5,-2.0,0.18,1.65,41.2678,7.5246,-179.5562,175,75
2026-05-09 17:10:01.961,5,-2.0,0.6,1.99,54.7678,-121.4854,-39.1462,175,75
2026-05-09 17:10:01.971,5,-1.52,0.95,2.0,43.9878,-223.08540000000002,96.7738,175,75
2026-05-09 17:10:01.971,5,-0.44,0.95,2.0,37.6678,-252.1754,246.6038,175,75
2026-05-09 17:10:01.988,5,0.54,0.67,1.92,24.9878,-252.1754,249.4938,175,75
2026-05-09 17:10:02.000,5,1.17,0.44,1.53,5.9677999999999995,-252.1754,249.4938,175,75
2026-05-09 17:10:02.011,5,1.4,-0.19,0.74,0.7278,-110.3754,249.4938,175,75
2026-05-09 17:10:02.021,5,0.8,-0.41,0.55,18.8878,-134.4154,249.4938,175,75
2026-05-09 17:10:02.050,5,0.84,-1.27,0.48,-28.0622,-241.08540000000002,249.4938,175,75
2026-05-09 17:10:02.080,5,-0.52,-1.37,-0.03,-6.6622,-6.3054,249.4938,175,75
2026-05-09 17:10:02.094,5,-1.64,-1.24,-0.13,107.3478,53.654599999999995,-80.31620000000001,175,75
2026-05-09 17:10:02.152,5,0.07,0.38,-0.23,94.90780000000001,157.4646,-250.7762,175,75
2026-05-09 17:10:02.160,5,-0.07,0.46,-0.24,28.8678,166.4046,-250.7762,175,75
2026-05-09 17:10:02.171,5,-0.4,0.53,-0.37,-29.7622,118.1746,-250.7762,175,75
2026-05-09 17:10:02.225,5,0.12,0.66,-0.65,-100.1022,-42.0454,-250.7762,175,75
2026-05-09 17:10:02.247,5,1.36,0.87,-0.25,-99.8222,-44.0154,-157.4562,175,75
2026-05-09 17:10:02.247,5,0.29,0.43,-0.1,-108.5622,-29.8154,-75.4562,175,75
2026-05-09 17:10:02.260,5,0.06,0.36,0.07,-101.5722,-17.4054,-66.2062,175,75
2026-05-09 17:10:02.271,5,0.14,0.14,0.26,-74.0222,8.7346,-43.6062,175,75
2026-05-09 17:10:02.271,5,0.36,0.49,-0.2,-45.9122,18.814600000000002,19.123800000000003,175,75
2026-05-09 17:10:02.280,5,0.61,0.35,0.48,-6.5122,-30.4654,157.1338,175,75
2026-05-09 17:10:02.291,5,0.66,0.72,0.75,23.9678,-125.2054,249.4938,175,75
2026-05-09 17:10:02.302,5,0.75,1.0,1.0,31.4678,-194.3454,249.4938,175,75
2026-05-09 17:10:02.302,5,0.97,0.97,1.25,23.997799999999998,-220.43540000000002,249.4938,175,75
2026-05-09 17:10:02.333,5,2.0,0.68,2.0,-24.2922,67.8546,249.4938,175,75
2026-05-09 17:10:02.346,5,2.0,0.15,2.0,-60.6922,248.09459999999999,249.4938,175,75
2026-05-09 17:10:02.357,5,1.97,-0.15,2.0,-67.7822,248.09459999999999,249.4938,175,75
2026-05-09 17:10:02.368,5,-1.1,-0.78,1.67,-52.3322,248.09459999999999,218.6638,175,75
2026-05-09 17:10:02.380,5,-1.74,-0.59,0.54,-35.1522,248.09459999999999,126.2338,175,75
2026-05-09 17:10:02.391,5,-1.98,-1.25,1.42,-4.2922,189.1546,66.0938,175,75
2026-05-09 17:10:02.405,5,-2.0,-1.14,2.0,71.23780000000001,8.784600000000001,-74.8062,175,75
2026-05-09 17:10:02.435,5,-1.12,-0.22,2.0,101.7278,-168.05540000000002,-250.7762,175,75
2026-05-09 17:10:02.435,5,-0.68,0.13,1.51,123.6078,-229.90540000000001,-250.7762,175,75
2026-05-09 17:10:02.435,5,-0.33,0.43,1.18,141.8978,-252.1754,-250.7762,175,75
2026-05-09 17:10:02.450,5,0.03,0.86,0.97,147.4778,-252.1754,-250.7762,175,75
2026-05-09 17:10:02.475,5,0.49,1.03,0.79,139.0878,-252.1754,-250.7762,175,75
2026-05-09 17:10:02.475,5,0.65,1.06,0.59,127.73780000000001,-252.1754,-250.7762,175,75
2026-05-09 17:10:02.494,5,2.0,1.15,-0.21,117.4978,-78.0154,26.5238,175,75
2026-05-09 17:10:02.506,5,1.26,0.77,-0.17,97.7878,62.7246,138.4438,175,75
2026-05-09 17:10:02.527,5,0.03,0.63,-0.19,80.8178,112.22460000000001,149.4438,175,75
2026-05-09 17:10:02.589,5,0.07,-0.24,-0.2,109.98780000000001,4.4346,184.4538,175,75
2026-05-09 17:10:02.615,5,0.36,-0.18,0.03,122.5978,36.654599999999995,214.9338,175,75
2026-05-09 17:10:02.638,5,0.69,-0.29,0.31,126.4378,96.8546,249.4938,175,75
2026-05-09 17:10:02.702,5,1.48,0.12,0.84,90.2078,248.09459999999999,249.4938,175,75
2026-05-09 17:10:02.702,5,1.98,0.15,1.44,63.9378,248.09459999999999,249.4938,175,75
2026-05-09 17:10:02.778,5,0.57,0.06,2.0,-8.322199999999999,248.09459999999999,249.4938,175,75
2026-05-09 17:10:02.778,5,0.11,-0.04,2.0,-43.0822,224.63459999999998,198.1738,175,75
2026-05-09 17:10:02.779,5,-0.66,0.05,2.0,-71.9722,248.09459999999999,-49.7062,175,75
2026-05-09 17:10:02.805,5,-1.59,-0.46,2.0,-81.37219999999999,248.09459999999999,-250.7762,175,75
2026-05-09 17:10:02.805,5,-1.49,-0.76,1.96,-40.792199999999994,248.09459999999999,-250.7762,175,75
2026-05-09 17:10:02.816,5,-1.87,0.31,2.0,25.4778,14.474600000000002,-219.24620000000002,175,75
2026-05-09 17:10:02.816,5,-1.94,0.6,2.0,5.8178,-83.2154,-193.9862,175,75
2026-05-09 17:10:02.826,5,-1.46,0.49,2.0,-10.392199999999999,-170.7854,-139.0062,175,75
2026-05-09 17:10:02.826,5,-0.61,0.25,1.84,19.2078,-252.1754,79.4538,175,75
2026-05-09 17:10:02.826,5,0.1,0.26,1.42,-10.392199999999999,-252.1754,196.3538,175,75
2026-05-09 17:10:02.837,5,0.72,-0.14,0.72,-46.752199999999995,-252.1754,249.4938,175,75
2026-05-09 17:10:02.837,5,0.41,-0.29,0.32,-46.4022,-252.1754,249.4938,175,75
2026-05-09 17:10:02.849,5,-0.08,-0.5,-0.61,8.8078,67.08460000000001,-15.0562,175,75
2026-05-09 17:10:02.849,5,-0.47,-0.49,-0.36,40.9478,74.8546,-67.7162,175,75
2026-05-09 17:10:02.849,5,-0.85,-0.29,-0.25,40.1978,52.4646,-128.5262,175,75
2026-05-09 17:10:02.860,5,-0.83,-0.1,-0.28,20.747799999999998,-64.33539999999999,-188.5962,175,75
2026-05-09 17:10:02.871,5,-0.28,0.37,-0.23,-60.3022,-148.1054,-211.6762,175,75
2026-05-09 17:10:02.882,5,0.08,0.45,-0.21,-109.8622,-134.0954,-247.3062,175,75
2026-05-09 17:10:02.905,5,0.35,0.32,-0.23,-132.0822,-93.4854,-250.7762,175,75
2026-05-09 17:10:02.917,5,0.53,0.29,-0.21,-129.15220000000002,-35.2154,-250.7762,175,75
2026-05-09 17:10:02.927,5,0.63,0.42,-0.07,-119.09219999999999,33.1346,-250.7762,175,75
2026-05-09 17:10:02.936,5,1.59,0.75,-0.05,-85.5622,142.97459999999998,-250.7762,175,75
2026-05-09 17:10:02.993,5,2.0,0.82,-0.09,-0.7122,-29.505399999999998,137.8538,175,75
2026-05-09 17:10:03.007,5,0.73,1.99,1.58,-48.572199999999995,-92.7854,148.0538,175,75
2026-05-09 17:10:03.038,5,1.03,1.47,1.81,-114.1122,40.754599999999996,33.6738,175,75
2026-05-09 17:10:03.059,5,2.0,0.9,2.0,-243.7722,248.09459999999999,215.9238,175,75
2026-05-09 17:10:03.070,5,2.0,0.22,2.0,-236.1122,248.09459999999999,249.4938,175,75
2026-05-09 17:10:03.070,5,-0.29,0.02,1.57,-133.6022,248.09459999999999,249.4938,175,75
2026-05-09 17:10:03.094,5,-2.0,-0.22,2.0,-54.7622,248.09459999999999,249.4938,175,75
2026-05-09 17:10:03.113,5,-2.0,-0.54,2.0,-47.862199999999994,196.6146,249.4938,175,75
2026-05-09 17:10:03.129,5,-2.0,-0.95,2.0,-47.9522,16.834600000000002,126.0438,175,75
2026-05-09 17:10:03.129,5,-2.0,-1.14,2.0,-41.1922,-134.3754,-43.0462,175,75
2026-05-09 17:10:03.160,5,-0.54,-0.12,0.54,106.0978,-252.1754,-230.7862,175,75
2026-05-09 17:10:03.160,5,0.2,0.15,0.15,130.71779999999998,-252.1754,-250.7762,175,75
2026-05-09 17:10:03.173,5,0.59,0.41,-0.15,140.31779999999998,-252.1754,-250.7762,175,75
2026-05-09 17:10:03.173,5,0.45,0.61,-0.45,133.8578,-252.1754,-250.7762,175,75
2026-05-09 17:10:03.184,5,2.0,0.91,-1.89,132.8278,-252.1754,-185.1062,175,75
2026-05-09 17:10:03.184,5,2.0,0.84,-2.0,202.28779999999998,-146.0754,93.6638,175,75
2026-05-09 17:10:03.194,5,0.02,0.74,-1.74,178.8278,-123.5354,153.1038,175,75
2026-05-09 17:10:03.194,5,-0.69,0.12,-1.16,134.9478,-215.4754,166.4438,175,75
2026-05-09 17:10:03.194,5,-0.66,-0.36,-0.75,104.3278,-252.1754,208.03379999999999,175,75
2026-05-09 17:10:03.217,5,-0.18,-0.15,-0.15,92.51780000000001,-252.1754,245.4538,175,75
2026-05-09 17:10:03.235,5,2.0,0.15,1.01,44.6578,248.09459999999999,249.4938,175,75
2026-05-09 17:10:03.245,5,2.0,0.01,1.0,36.5078,248.09459999999999,235.4338,175,75
2026-05-09 17:10:03.245,5,-1.22,-2.0,2.0,55.457800000000006,248.09459999999999,-250.7762,175,75
2026-05-09 17:10:03.257,5,0.07,-0.25,2.0,-69.23219999999999,248.09459999999999,-250.7762,175,75
2026-05-09 17:10:03.278,5,-2.0,-0.81,2.0,58.8278,248.09459999999999,-207.1962,175,75
2026-05-09 17:10:03.289,5,-2.0,1.02,2.0,137.7078,-229.05540000000002,-12.9762,175,75
2026-05-09 17:10:03.311,5,-0.45,0.41,2.0,109.4578,-252.1754,156.5738,175,75
2026-05-09 17:10:03.320,5,0.82,0.06,1.7,100.23780000000001,-252.1754,249.4938,175,75
2026-05-09 17:10:03.338,5,1.76,0.05,1.3,70.7578,-252.1754,249.4938,175,75
2026-05-09 17:10:03.340,5,1.82,-0.3,0.76,53.177800000000005,-252.1754,249.4938,175,75
2026-05-09 17:10:03.357,5,2.0,-0.35,-0.16,54.5278,-252.1754,249.4938,175,75
2026-05-09 17:10:03.357,5,2.0,-1.9,-2.0,35.1878,-62.9454,249.4938,175,75
2026-05-09 17:10:03.364,5,1.92,-2.0,-2.0,23.0778,134.7446,135.2138,175,75
2026-05-09 17:10:03.374,5,0.17,-1.99,-0.94,90.6678,157.6246,109.6738,175,75
2026-05-09 17:10:03.386,5,-0.98,-1.17,-0.71,138.53779999999998,105.2146,97.18379999999999,175,75
2026-05-09 17:10:03.397,5,-1.72,-0.62,-0.17,167.49779999999998,44.5946,25.6738,175,75
2026-05-09 17:10:03.397,5,-2.0,-0.25,0.04,160.50779999999997,-10.3854,-117.7262,175,75
2026-05-09 17:10:03.411,5,-2.0,-0.02,0.1,130.81779999999998,-67.63539999999999,-250.7762,175,75
2026-05-09 17:10:03.422,5,-1.95,0.15,0.02,94.90780000000001,-126.2654,-250.7762,175,75
2026-05-09 17:10:03.422,5,-1.42,0.25,-0.15,60.3778,-179.9854,-250.7762,175,75
2026-05-09 17:10:03.436,5,-1.1,0.41,-0.34,24.9778,-248.8554,-250.7762,175,75
2026-05-09 17:10:03.468,5,-0.81,0.71,-0.44,-21.3322,-252.1754,-250.7762,175,75
2026-05-09 17:10:03.480,5,-0.31,1.03,-0.5,-81.5622,-252.1754,-250.7762,175,75
2026-05-09 17:10:03.491,5,1.54,1.29,-0.72,-135.56220000000002,-252.1754,-250.7762,175,75
2026-05-09 17:10:03.491,5,2.0,1.29,-1.17,-162.6622,-104.8254,-110.17620000000001,175,75
2026-05-09 17:10:03.491,5,0.46,0.83,-0.95,-168.9422,9.5546,-3.8162000000000003,175,75
2026-05-09 17:10:03.502,5,-0.13,0.47,-0.61,-146.5222,71.66460000000001,-10.196200000000001,175,75
2026-05-09 17:10:03.516,5,-0.09,0.21,-0.34,-117.0622,137.7046,-17.7362,175,75
2026-05-09 17:10:03.525,5,0.05,-0.03,-0.27,-82.3222,201.6746,-2.7062,175,75
2026-05-09 17:10:03.538,5,0.17,-0.17,-0.18,-45.9822,248.09459999999999,38.0038,175,75
2026-05-09 17:10:03.550,5,0.23,-0.22,-0.11,-15.312199999999999,248.09459999999999,89.2638,175,75
2026-05-09 17:10:03.577,5,0.32,-0.3,-0.05,15.5578,248.09459999999999,141.00379999999998,175,75
2026-05-09 17:10:03.577,5,0.5,-0.41,0.09,26.9878,248.09459999999999,207.1738,175,75
2026-05-09 17:10:03.595,5,0.58,-0.24,0.03,40.9478,248.09459999999999,249.4938,175,75
2026-05-09 17:10:03.595,5,0.49,-0.13,0.14,53.3478,248.09459999999999,249.4938,175,75
2026-05-09 17:10:03.608,5,-0.56,-0.0,0.72,58.747800000000005,248.09459999999999,249.4938,175,75
2026-05-09 17:10:03.619,5,-0.73,-0.27,1.21,46.9178,97.9946,249.4938,175,75
2026-05-09 17:10:03.619,5,-1.06,-0.32,1.15,30.657799999999998,27.224600000000002,138.2938,175,75
2026-05-09 17:10:03.630,5,-1.31,-0.22,1.23,9.0678,-25.3054,-33.0062,175,75
2026-05-09 17:10:03.630,5,-0.87,-0.12,1.5,-17.4022,-79.66539999999999,-173.8462,175,75
2026-05-09 17:10:03.642,5,-0.28,0.04,1.63,-14.492199999999999,-181.1954,-250.7762,175,75
2026-05-09 17:10:03.654,5,0.18,0.92,1.65,32.3078,-252.1754,-250.7762,175,75
2026-05-09 17:10:03.681,5,0.49,1.87,1.37,39.1978,-252.1754,-250.7762,175,75
2026-05-09 17:10:03.710,5,1.71,2.0,1.68,-3.8022,-252.1754,-250.7762,175,75
2026-05-09 17:10:03.726,5,2.0,2.0,2.0,-92.5822,-204.55540000000002,-250.7762,175,75
2026-05-09 17:10:03.726,5,2.0,1.22,1.2,-144.62220000000002,169.4846,43.6538,175,75
2026-05-09 17:10:03.738,5,1.38,0.26,0.84,-142.68220000000002,248.09459999999999,75.1738,175,75
2026-05-09 17:10:03.749,5,1.51,-0.35,0.18,-149.0822,248.09459999999999,249.4938,175,75
2026-05-09 17:10:03.760,5,0.5,-0.31,0.14,-132.50220000000002,248.09459999999999,249.4938,175,75
2026-05-09 17:10:03.771,5,-2.0,-0.58,1.07,-77.0422,248.09459999999999,249.4938,175,75
2026-05-09 17:10:03.782,5,-2.0,-0.88,1.71,8.527800000000001,56.9846,-187.6662,175,75
2026-05-09 17:10:03.802,5,-1.89,-0.61,1.86,5.3078,173.5746,-250.7762,175,75
2026-05-09 17:10:03.816,5,-1.49,0.21,2.0,128.5178,88.7646,-250.7762,175,75
2026-05-09 17:10:03.831,5,-0.72,1.09,2.0,180.0478,-143.0454,-250.7762,175,75
2026-05-09 17:10:03.843,5,-1.47,1.08,1.38,211.6178,-196.4454,-250.7762,175,75
2026-05-09 17:10:03.853,5,-1.46,1.06,1.09,217.21779999999998,-252.1754,-250.7762,175,75
2026-05-09 17:10:03.871,5,-0.92,1.02,1.06,199.18779999999998,-252.1754,-220.0062,175,75
2026-05-09 17:10:03.871,5,-0.2,1.19,1.33,184.81779999999998,-252.1754,-90.6562,175,75
2026-05-09 17:10:03.882,5,0.62,1.66,1.75,153.0478,-252.1754,48.773799999999994,175,75
2026-05-09 17:10:03.893,5,1.44,1.73,1.9,108.3178,-194.15540000000001,167.1638,175,75
2026-05-09 17:10:03.905,5,1.47,2.0,1.65,49.207800000000006,-80.60539999999999,249.4938,175,75
2026-05-09 17:10:03.917,5,0.88,0.94,1.37,-30.642200000000003,126.8746,249.4938,175,75
2026-05-09 17:10:03.917,5,0.81,0.72,1.31,-58.712199999999996,216.2746,249.4938,175,75
2026-05-09 17:10:03.934,5,0.56,0.63,1.26,-66.6422,248.09459999999999,249.4938,175,75
2026-05-09 17:10:03.945,5,-0.79,0.51,1.55,-45.2222,248.09459999999999,249.4938,175,75
2026-05-09 17:10:03.957,5,-1.88,0.27,1.97,-42.0822,139.81459999999998,249.4938,175,75
2026-05-09 17:10:03.977,5,-1.96,-0.63,1.52,-36.7222,-111.3954,40.2138,175,75
2026-05-09 17:10:03.996,5,-1.57,-0.98,1.05,-2.2122,-169.5054,-49.1862,175,75
2026-05-09 17:10:04.007,5,-1.16,-0.69,0.8,29.8078,-201.5754,-116.5262,175,75
2026-05-09 17:10:04.007,5,-0.71,-0.33,0.69,47.3278,-215.55540000000002,-160.5562,175,75
2026-05-09 17:10:04.024,5,-0.42,-0.02,0.57,51.9778,-224.5654,-191.49620000000002,175,75
2026-05-09 17:10:04.024,5,-0.2,0.21,0.37,46.537800000000004,-239.36540000000002,-214.3662,175,75
2026-05-09 17:10:04.035,5,-0.08,0.44,0.12,31.4878,-252.1754,-238.8462,175,75
2026-05-09 17:10:04.046,5,0.17,0.44,-0.51,6.2978,-252.1754,-192.5662,175,75
2026-05-09 17:10:04.046,5,1.43,0.21,-0.88,18.9778,-252.1754,-116.8062,175,75
2026-05-09 17:10:04.059,5,1.97,0.36,-1.39,27.837799999999998,-252.1754,46.913799999999995,175,75
2026-05-09 17:10:04.069,5,0.79,0.37,-1.17,21.9878,-240.18540000000002,127.2838,175,75
2026-05-09 17:10:04.077,5,0.0,0.13,-1.01,11.0478,-248.74540000000002,155.9638,175,75
2026-05-09 17:10:04.077,5,-0.19,-0.04,-0.61,-0.9522,-252.1754,157.3838,175,75
2026-05-09 17:10:04.081,5,-0.16,-0.03,-0.21,-12.3622,-210.40540000000001,142.1038,175,75
2026-05-09 17:10:04.107,5,-0.15,-0.11,0.09,-16.732200000000002,-135.05540000000002,97.7038,175,75
2026-05-09 17:10:04.119,5,-0.28,-0.19,0.14,-38.102199999999996,40.794599999999996,56.7238,175,75
2026-05-09 17:10:04.150,5,0.11,-0.01,-0.27,-41.6222,204.03459999999998,-32.5962,175,75
2026-05-09 17:10:04.166,5,0.39,0.08,-0.24,-35.862199999999994,248.09459999999999,-46.3462,175,75
2026-05-09 17:10:04.166,5,0.58,0.23,-0.27,-38.572199999999995,248.09459999999999,-50.7862,175,75
2026-05-09 17:10:04.188,5,0.72,0.31,-0.0,-47.182199999999995,248.09459999999999,-26.0762,175,75
2026-05-09 17:10:04.195,5,0.66,0.47,0.34,-40.2422,248.09459999999999,47.0338,175,75
2026-05-09 17:10:04.218,5,0.4,0.55,1.13,-27.412200000000002,108.8846,174.9938,175,75
2026-05-09 17:10:04.229,5,0.43,0.48,1.28,-37.6322,127.9746,149.1638,175,75
2026-05-09 17:10:04.239,5,0.4,0.29,1.32,-57.252199999999995,247.1446,91.6138,175,75
2026-05-09 17:10:04.254,5,0.52,0.49,1.82,-89.6022,248.09459999999999,43.8838,175,75
2026-05-09 17:10:04.264,5,0.6,1.16,2.0,-179.8922,248.09459999999999,35.513799999999996,175,75
2026-05-09 17:10:04.264,5,-0.05,1.04,2.0,-249.2722,248.09459999999999,58.733799999999995,175,75
2026-05-09 17:10:04.278,5,-1.82,-0.23,2.0,-249.2722,248.09459999999999,56.4238,175,75
2026-05-09 17:10:04.282,5,-2.0,-1.03,1.87,-205.78220000000002,248.09459999999999,52.763799999999996,175,75
2026-05-09 17:10:04.291,5,-2.0,-1.29,1.67,-124.6922,248.09459999999999,103.3638,175,75
2026-05-09 17:10:04.302,5,-2.0,-1.25,2.0,-65.2422,43.4946,122.1238,175,75
2026-05-09 17:10:04.312,5,-2.0,-1.24,2.0,-29.2622,-205.1754,63.5838,175,75
2026-05-09 17:10:04.346,5,-2.0,-0.95,1.78,51.207800000000006,-252.1754,-92.39620000000001,175,75
2026-05-09 17:10:04.358,5,-1.81,-0.72,1.03,103.7878,-252.1754,-121.3662,175,75
2026-05-09 17:10:04.369,5,-0.52,-0.32,0.59,142.2278,-252.1754,-142.4462,175,75
2026-05-09 17:10:04.380,5,0.05,-0.03,0.45,156.8078,-252.1754,-169.8562,175,75
2026-05-09 17:10:04.380,5,0.6,0.27,0.25,155.62779999999998,-252.1754,-179.7662,175,75
2026-05-09 17:10:04.391,5,0.9,0.51,0.04,136.4578,-252.1754,-182.96620000000001,175,75
2026-05-09 17:10:04.404,5,1.86,0.59,-0.75,123.2778,-252.1754,-128.2662,175,75
2026-05-09 17:10:04.416,5,2.0,0.38,-2.0,108.4678,-117.9254,8.4138,175,75
2026-05-09 17:10:04.416,5,2.0,0.99,-2.0,43.537800000000004,107.58460000000001,-4.3462,175,75
2026-05-09 17:10:04.426,5,-0.16,0.28,-0.9,-5.4322,79.7646,-28.336199999999998,175,75
2026-05-09 17:10:04.462,5,-0.03,-0.5,-0.17,-32.002199999999995,-58.0354,37.6038,175,75
2026-05-09 17:10:04.474,5,1.12,-0.49,0.67,-27.322200000000002,-19.2654,214.8438,175,75
2026-05-09 17:10:04.474,5,1.47,-0.36,1.48,-16.9522,108.66460000000001,249.4938,175,75
2026-05-09 17:10:04.483,5,0.58,0.04,2.0,-62.3122,221.3746,213.9938,175,75
2026-05-09 17:10:04.508,5,0.66,0.81,2.0,-59.362199999999994,248.09459999999999,-250.7762,175,75
2026-05-09 17:10:04.522,5,-0.98,0.5,2.0,-61.0922,246.7046,-250.7762,175,75
2026-05-09 17:10:04.534,5,-1.53,0.33,1.62,2.2378,108.0646,-250.7762,175,75
2026-05-09 17:10:04.544,5,-2.0,0.48,1.54,40.4078,-30.685399999999998,-165.4062,175,75
2026-05-09 17:10:04.554,5,-1.94,0.67,1.63,44.607800000000005,-142.7254,-48.8962,175,75
2026-05-09 17:10:04.560,5,-1.08,0.63,1.67,28.4578,-213.05540000000002,108.6738,175,75
2026-05-09 17:10:04.573,5,-0.1,0.54,1.56,19.1878,-232.3554,249.4938,175,75
2026-05-09 17:10:04.585,5,0.68,0.53,1.41,14.7178,-220.27540000000002,249.4938,175,75
2026-05-09 17:10:04.598,5,1.17,0.44,1.23,-0.1522,-178.27540000000002,249.4938,175,75
2026-05-09 17:10:04.618,5,1.79,-0.0,0.58,0.2278,-119.3454,249.4938,175,75
2026-05-09 17:10:04.639,5,0.89,-0.91,0.58,1.4978,-248.27540000000002,249.4938,175,75
2026-05-09 17:10:04.652,5,2.0,-2.0,-0.36,5.2378,-178.15540000000001,249.4938,175,75
2026-05-09 17:10:04.652,5,0.47,-2.0,-0.49,62.2778,-27.865399999999998,249.4938,175,75
2026-05-09 17:10:04.662,5,-1.23,-1.2,-0.26,129.7278,33.724599999999995,159.3438,175,75
2026-05-09 17:10:04.698,5,-1.79,-0.8,-0.17,173.84779999999998,38.1746,-10.2462,175,75
2026-05-09 17:10:04.710,5,-0.47,-0.62,0.06,173.9478,54.584599999999995,-250.7762,175,75
2026-05-09 17:10:04.747,5,-0.07,0.32,-0.26,8.3978,38.584599999999995,-250.7762,175,75
2026-05-09 17:10:04.747,5,-0.09,0.45,-0.24,-45.502199999999995,2.2446,-250.7762,175,75
2026-05-09 17:10:04.758,5,0.09,0.48,-0.21,-93.0422,-23.0354,-250.7762,175,75
2026-05-09 17:10:04.770,5,0.41,0.35,-0.19,-118.1322,-17.4554,-250.7762,175,75
2026-05-09 17:10:04.781,5,0.72,0.28,-0.22,-119.37219999999999,24.814600000000002,-250.7762,175,75
2026-05-09 17:10:04.793,5,1.37,0.35,-0.07,-107.84219999999999,89.3746,-214.71620000000001,175,75
2026-05-09 17:10:04.793,5,1.82,0.63,0.03,-80.3522,91.3146,-46.976200000000006,175,75
2026-05-09 17:10:04.814,5,1.22,1.05,0.47,-42.0822,-47.205400000000004,205.0238,175,75
2026-05-09 17:10:04.828,5,0.7,1.0,0.69,-49.182199999999995,-126.2154,249.4938,175,75
2026-05-09 17:10:04.828,5,0.64,0.66,0.8,-48.6322,-157.5054,249.4938,175,75
2026-05-09 17:10:04.840,5,0.9,0.63,1.0,-48.7322,-134.9454,191.5538,175,75
2026-05-09 17:10:04.854,5,2.0,-0.06,1.79,-89.8222,162.6546,52.0038,175,75
2026-05-09 17:10:04.865,5,2.0,-0.63,1.91,-100.9222,248.09459999999999,136.3538,175,75
2026-05-09 17:10:04.875,5,2.0,-0.06,2.0,-119.1022,248.09459999999999,249.4938,175,75
2026-05-09 17:10:04.886,5,0.2,-1.24,2.0,-101.8322,248.09459999999999,249.4938,175,75
2026-05-09 17:10:04.898,5,-2.0,-1.59,1.49,69.76780000000001,248.09459999999999,192.3438,175,75
2026-05-09 17:10:04.908,5,-2.0,-1.47,1.38,124.5678,183.2646,-59.2162,175,75
2026-05-09 17:10:04.911,5,-2.0,-1.22,1.54,164.46779999999998,118.47460000000001,-250.7762,175,75
2026-05-09 17:10:04.931,5,-2.0,-1.03,1.85,189.49779999999998,96.0146,-250.7762,175,75
2026-05-09 17:10:04.931,5,-2.0,-0.67,2.0,229.81779999999998,24.3746,-250.7762,175,75
2026-05-09 17:10:04.944,5,-1.48,0.14,2.0,250.99779999999998,-126.91539999999999,-250.7762,175,75
2026-05-09 17:10:04.955,5,-0.94,0.78,1.78,250.99779999999998,-210.1654,-250.7762,175,75
2026-05-09 17:10:04.978,5,-0.76,1.27,1.58,250.99779999999998,-224.6054,-250.7762,175,75
2026-05-09 17:10:04.978,5,-0.69,1.27,1.34,250.99779999999998,-216.8254,-250.7762,175,75
2026-05-09 17:10:05.001,5,-0.74,1.48,1.06,172.31779999999998,-209.49540000000002,-250.7762,175,75
2026-05-09 17:10:05.021,5,-0.52,1.75,0.62,81.5978,-252.1754,-250.7762,175,75
2026-05-09 17:10:05.030,5,2.0,2.0,-0.1,57.6178,-252.1754,-180.0262,175,75
2026-05-09 17:10:05.030,5,2.0,2.0,-0.03,12.6278,-104.83539999999999,142.1238,175,75
2026-05-09 17:10:05.043,5,1.08,2.0,-0.44,-69.45219999999999,18.9846,249.4938,175,75
2026-05-09 17:10:05.053,5,-0.08,1.33,-0.57,-115.5022,61.2746,249.4938,175,75
2026-05-09 17:10:05.068,5,-0.12,0.72,-0.45,-120.6422,70.11460000000001,249.4938,175,75
2026-05-09 17:10:05.081,5,0.15,-0.12,-0.45,-72.1122,82.7646,249.4938,175,75
2026-05-09 17:10:05.099,5,0.52,-0.32,-0.19,-39.2422,101.2046,249.4938,175,75
2026-05-09 17:10:05.110,5,1.12,-0.13,0.19,-2.5722,140.3646,249.4938,175,75
2026-05-09 17:10:05.120,5,2.0,0.26,1.38,-22.2422,164.3346,249.4938,175,75
2026-05-09 17:10:05.120,5,2.0,-0.06,2.0,-10.9522,86.4546,249.4938,175,75
2026-05-09 17:10:05.149,5,0.08,-0.09,2.0,87.7278,248.09459999999999,135.1238,175,75
2026-05-09 17:10:05.168,5,-1.36,0.15,1.97,78.4578,248.09459999999999,-160.1562,175,75
2026-05-09 17:10:05.176,5,-2.0,-0.17,1.7,66.4778,248.09459999999999,-250.7762,175,75
2026-05-09 17:10:05.199,5,-2.0,0.3,1.75,58.4078,248.09459999999999,-250.7762,175,75
2026-05-09 17:10:05.257,5,-2.0,0.61,2.0,49.9378,-6.8754,-250.7762,175,75
2026-05-09 17:10:05.257,5,-1.89,1.01,2.0,8.687800000000001,-170.4454,-250.7762,175,75
2026-05-09 17:10:05.268,5,-0.17,0.43,1.93,-34.862199999999994,-252.1754,11.0238,175,75
2026-05-09 17:10:05.280,5,0.49,0.13,1.63,2.6078,-246.9554,235.4738,175,75
2026-05-09 17:10:05.298,5,0.99,0.15,1.25,12.997800000000002,-179.15540000000001,249.4938,175,75
2026-05-09 17:10:05.298,5,1.27,0.61,1.01,-0.5121999999999999,-120.6154,249.4938,175,75
2026-05-09 17:10:05.321,5,-0.03,-0.37,0.54,-2.7922000000000002,-185.2554,249.4938,175,75
2026-05-09 17:10:05.332,5,0.43,-2.0,-0.9,-47.1522,-65.1654,249.4938,175,75
2026-05-09 17:10:05.342,5,-1.22,-1.43,-0.61,4.1378,7.3846,47.9638,175,75
2026-05-09 17:10:05.346,5,-1.97,-1.06,-0.48,50.2378,-6.3654,-139.4462,175,75
2026-05-09 17:10:05.361,5,-1.73,-0.68,-0.55,64.5178,-47.0754,-250.7762,175,75
2026-05-09 17:10:05.389,5,-0.69,0.02,-0.43,52.5978,-120.33539999999999,-250.7762,175,75
2026-05-09 17:10:05.400,5,-0.12,0.32,-0.39,-2.8522000000000003,-135.5354,-250.7762,175,75
2026-05-09 17:10:05.415,5,0.62,0.71,-0.27,-152.28220000000002,-80.2154,-250.7762,175,75
2026-05-09 17:10:05.415,5,0.83,0.56,-0.31,-200.6122,-15.5454,-250.7762,175,75
2026-05-09 17:10:05.425,5,0.93,0.44,-0.44,-199.3222,52.7846,-250.7762,175,75
2026-05-09 17:10:05.448,5,0.32,0.18,-0.31,-148.06220000000002,141.1846,-250.7762,175,75
2026-05-09 17:10:05.454,5,-0.0,0.32,-0.2,-121.0822,146.4246,-250.7762,175,75
2026-05-09 17:10:05.468,5,0.22,0.37,-0.04,-90.98219999999999,136.25459999999998,-250.7762,175,75
2026-05-09 17:10:05.479,5,1.28,1.6,1.37,-89.2422,-38.245400000000004,184.4138,175,75
2026-05-09 17:10:05.502,5,1.94,0.65,2.0,-172.7022,248.09459999999999,196.7038,175,75
2026-05-09 17:10:05.526,5,0.11,0.31,2.0,-221.6022,248.09459999999999,249.4938,175,75
2026-05-09 17:10:05.526,5,-2.0,-0.62,2.0,-129.8622,248.09459999999999,249.4938,175,75
2026-05-09 17:10:05.526,5,-2.0,-0.69,1.84,-61.9522,248.09459999999999,249.4938,175,75
2026-05-09 17:10:05.543,5,-2.0,-1.23,1.4,-11.6922,143.47459999999998,148.8538,175,75
2026-05-09 17:10:05.560,5,-2.0,-1.48,1.24,54.467800000000004,-41.2654,16.9338,175,75
2026-05-09 17:10:05.573,5,-2.0,-1.22,1.42,115.87780000000001,-157.5654,-109.2662,175,75
2026-05-09 17:10:05.573,5,-2.0,-0.77,1.61,153.21779999999998,-209.6254,-247.7362,175,75
2026-05-09 17:10:05.584,5,-1.77,-0.17,1.67,186.0778,-252.1754,-250.7762,175,75
2026-05-09 17:10:05.597,5,-1.05,0.65,1.48,198.65779999999998,-252.1754,-250.7762,175,75
2026-05-09 17:10:05.597,5,0.17,1.14,1.22,193.59779999999998,-252.1754,-250.7762,175,75
2026-05-09 17:10:05.620,5,1.16,1.75,0.55,127.3878,-252.1754,-250.7762,175,75
2026-05-09 17:10:05.620,5,2.0,1.5,-0.92,103.0078,-252.1754,-126.67620000000001,175,75
2026-05-09 17:10:05.630,5,2.0,1.95,-1.82,109.8178,-14.2254,249.4938,175,75
2026-05-09 17:10:05.630,5,1.25,1.0,-0.84,85.23780000000001,149.9046,249.4938,175,75
2026-05-09 17:10:05.655,5,0.02,0.26,-0.5,50.8278,174.3346,249.4938,175,75
2026-05-09 17:10:05.655,5,0.01,-0.3,-0.21,39.0978,145.72459999999998,249.4938,175,75
2026-05-09 17:10:05.667,5,1.64,2.0,0.87,34.5878,116.5646,249.4938,175,75
2026-05-09 17:10:05.677,5,1.55,-0.54,1.18,15.1278,97.1746,249.4938,175,75
2026-05-09 17:10:05.687,5,1.25,-1.0,2.0,-0.4222,90.2046,249.4938,175,75
2026-05-09 17:10:05.699,5,0.9,-0.45,2.0,55.3778,120.2146,65.7538,175,75
2026-05-09 17:10:05.710,5,0.17,0.61,2.0,41.1578,248.09459999999999,-250.7762,175,75
2026-05-09 17:10:05.722,5,-0.46,0.65,2.0,-33.0122,248.09459999999999,-250.7762,175,75
2026-05-09 17:10:05.722,5,-0.89,0.46,2.0,-60.4422,248.09459999999999,-250.7762,175,75
2026-05-09 17:10:05.748,5,-1.65,0.63,2.0,-24.4422,-23.7254,-187.9862,175,75
2026-05-09 17:10:05.757,5,-1.68,0.54,2.0,-41.6322,-85.66539999999999,-67.3662,175,75
2026-05-09 17:10:05.771,5,-1.34,0.46,2.0,-36.8322,-113.8954,84.60379999999999,175,75
2026-05-09 17:10:05.771,5,-0.79,0.41,2.0,2.2478,-147.52540000000002,247.8138,175,75
2026-05-09 17:10:05.796,5,-0.4,0.52,2.0,16.3778,-186.18540000000002,249.4938,175,75
2026-05-09 17:10:05.796,5,0.02,0.53,1.87,-6.5722000000000005,-189.24540000000002,249.4938,175,75
2026-05-09 17:10:05.807,5,0.43,0.36,1.53,-43.6622,-155.5654,249.4938,175,75
2026-05-09 17:10:05.819,5,0.84,-0.02,1.07,-66.70219999999999,-127.3154,249.4938,175,75
2026-05-09 17:10:05.824,5,0.36,-0.31,0.97,-76.1522,-132.49540000000002,249.4938,175,75
2026-05-09 17:10:05.836,5,0.24,-0.78,0.62,-72.2222,-197.2354,249.4938,175,75
2026-05-09 17:10:05.847,5,0.35,-1.3,0.29,-64.3222,-252.1754,249.4938,175,75
2026-05-09 17:10:05.858,5,1.5,-2.0,-0.63,-41.462199999999996,-193.9854,249.4938,175,75
2026-05-09 17:10:05.869,5,0.63,-2.0,-0.86,17.657799999999998,-43.9254,171.28379999999999,175,75
2026-05-09 17:10:05.880,5,-0.27,-2.0,-0.97,96.7578,59.7446,-5.5962,175,75
2026-05-09 17:10:05.880,5,-0.82,-1.85,-1.02,180.6778,97.9546,-141.6262,175,75
2026-05-09 17:10:05.891,5,-1.11,-1.12,-1.0,227.3678,97.5446,-250.7762,175,75
2026-05-09 17:10:05.910,5,-0.82,-0.1,-0.38,215.4278,94.86460000000001,-250.7762,175,75
2026-05-09 17:10:05.929,5,-0.62,0.03,-0.3,170.46779999999998,79.9846,-250.7762,175,75
2026-05-09 17:10:05.942,5,-0.65,0.15,-0.22,131.2278,34.4246,-250.7762,175,75
2026-05-09 17:10:05.942,5,-0.61,0.31,-0.22,85.4778,-33.6654,-250.7762,175,75
2026-05-09 17:10:05.958,5,-0.49,0.55,-0.17,29.7178,-103.8754,-250.7762,175,75
2026-05-09 17:10:05.969,5,-0.22,0.89,-0.06,-40.572199999999995,-147.05540000000002,-250.7762,175,75
2026-05-09 17:10:05.973,5,0.11,0.86,-0.09,-112.2122,-148.9454,-250.7762,175,75
2026-05-09 17:10:05.985,5,0.81,0.87,-0.12,-163.1022,-106.8154,-250.7762,175,75
2026-05-09 17:10:05.998,5,1.19,0.69,-0.19,-182.28220000000002,-38.875400000000006,-250.7762,175,75
2026-05-09 17:10:06.021,5,0.21,0.49,-0.15,-184.90220000000002,55.8546,-184.1262,175,75
2026-05-09 17:10:06.021,5,-0.17,0.42,-0.05,-178.87220000000002,68.5646,-149.2662,175,75
2026-05-09 17:10:06.049,5,-0.14,0.02,0.07,-121.9222,90.8846,-82.2362,175,75
2026-05-09 17:10:06.060,5,0.13,-0.08,0.12,-64.2822,101.4946,-24.446199999999997,175,75
2026-05-09 17:10:06.071,5,0.28,-0.2,0.66,-17.6322,109.8546,61.733799999999995,175,75
2026-05-09 17:10:06.108,5,0.4,0.22,0.71,7.4878,108.2946,164.7638,175,75
2026-05-09 17:10:06.120,5,-0.02,0.33,0.67,26.5978,88.75460000000001,249.4938,175,75
2026-05-09 17:10:06.132,5,-0.26,0.3,0.58,25.6178,73.00460000000001,249.4938,175,75
2026-05-09 17:10:06.132,5,-0.46,0.24,0.49,23.267799999999998,40.374599999999994,249.4938,175,75
2026-05-09 17:10:06.144,5,-0.2,0.27,0.64,15.0478,-2.3054,249.4938,175,75
2026-05-09 17:10:06.149,5,-0.03,0.32,0.94,-2.9322,-108.4054,249.4938,175,75
2026-05-09 17:10:06.164,5,-0.0,0.6,1.44,-24.4322,-252.1754,249.4938,175,75
2026-05-09 17:10:06.175,5,1.48,0.07,1.65,-46.0522,-252.1754,222.4238,175,75
2026-05-09 17:10:06.186,5,2.0,0.38,1.43,-68.4322,-252.1754,-7.716200000000001,175,75
2026-05-09 17:10:06.186,5,2.0,0.95,2.0,-125.3922,126.64460000000001,-250.7762,175,75
2026-05-09 17:10:06.198,5,1.95,0.48,1.74,-157.4122,248.09459999999999,-250.7762,175,75
2026-05-09 17:10:06.219,5,2.0,-0.61,1.16,-210.4222,248.09459999999999,238.7438,175,75
2026-05-09 17:10:06.230,5,1.24,-0.72,0.27,-164.7722,248.09459999999999,249.4938,175,75
2026-05-09 17:10:06.230,5,-0.97,-0.64,-0.04,-59.112199999999994,248.09459999999999,249.4938,175,75
2026-05-09 17:10:06.240,5,-2.0,-0.88,1.47,33.457800000000006,248.09459999999999,249.4938,175,75
2026-05-09 17:10:06.247,5,-2.0,-1.23,2.0,81.3478,186.0146,247.9838,175,75
2026-05-09 17:10:06.253,5,-2.0,-1.26,2.0,107.6878,69.1546,-159.3262,175,75
2026-05-09 17:10:06.266,5,-2.0,-1.19,2.0,129.1478,25.564600000000002,-250.7762,175,75
2026-05-09 17:10:06.280,5,-2.0,-0.99,2.0,153.5578,-19.595399999999998,-250.7762,175,75
2026-05-09 17:10:06.292,5,-2.0,-0.41,2.0,240.18779999999998,-225.7554,-250.7762,175,75
2026-05-09 17:10:06.292,5,-1.96,0.46,1.91,250.99779999999998,-252.1754,-250.7762,175,75
2026-05-09 17:10:06.303,5,-1.75,1.04,1.4,250.99779999999998,-252.1754,-250.7762,175,75
2026-05-09 17:10:06.320,5,-0.88,1.56,0.81,250.99779999999998,-252.1754,-250.7762,175,75
2026-05-09 17:10:06.331,5,-0.58,1.44,0.6,246.03779999999998,-252.1754,-250.7762,175,75
2026-05-09 17:10:06.342,5,0.14,1.33,0.26,191.6978,-252.1754,-250.7762,175,75
2026-05-09 17:10:06.352,5,2.0,1.45,-0.35,175.71779999999998,-252.1754,-145.1962,175,75
2026-05-09 17:10:06.375,5,2.0,1.98,0.03,153.3978,-252.1754,170.6738,175,75
2026-05-09 17:10:06.385,5,1.88,1.94,0.81,43.3078,-63.1154,231.3638,175,75
2026-05-09 17:10:06.385,5,1.17,0.82,0.92,-31.902200000000004,128.97459999999998,212.2038,175,75
2026-05-09 17:10:06.395,5,0.85,0.58,0.74,-78.3222,248.09459999999999,188.6638,175,75
2026-05-09 17:10:06.407,5,1.06,0.2,0.81,-111.6322,248.09459999999999,203.5138,175,75
2026-05-09 17:10:06.420,5,1.15,0.39,0.74,-129.0122,248.09459999999999,249.4938,175,75
2026-05-09 17:10:06.430,5,0.34,0.73,1.05,-83.9622,248.09459999999999,249.4938,175,75
2026-05-09 17:10:06.441,5,-0.84,0.68,1.93,-37.182199999999995,248.09459999999999,249.4938,175,75
2026-05-09 17:10:06.441,5,-1.7,0.46,2.0,-35.6722,220.59459999999999,249.4938,175,75
2026-05-09 17:10:06.462,5,-2.0,-0.38,2.0,-43.142199999999995,151.6746,100.6338,175,75
2026-05-09 17:10:06.473,5,-2.0,-0.5,1.4,-11.562199999999999,86.8846,-91.9562,175,75
2026-05-09 17:10:06.488,5,-2.0,-0.87,1.01,54.0478,-11.3354,-209.2662,175,75
2026-05-09 17:10:06.488,5,-1.96,-0.49,0.96,124.9578,-133.68540000000002,-235.6062,175,75
2026-05-09 17:10:06.499,5,-1.54,0.24,1.05,169.8078,-252.1754,-250.7762,175,75
2026-05-09 17:10:06.510,5,-1.06,0.56,0.98,174.8878,-252.1754,-250.7762,175,75
2026-05-09 17:10:06.521,5,-0.57,0.9,0.78,148.6978,-252.1754,-250.7762,175,75
2026-05-09 17:10:06.521,5,0.07,0.95,0.49,106.40780000000001,-252.1754,-250.7762,175,75
2026-05-09 17:10:06.533,5,0.53,0.69,0.29,66.8178,-252.1754,-250.7762,175,75
2026-05-09 17:10:06.546,5,1.3,0.54,-0.25,30.747799999999998,-252.1754,-178.1362,175,75
2026-05-09 17:10:06.557,5,2.0,0.28,-1.55,50.5978,-252.1754,143.6038,175,75
2026-05-09 17:10:06.568,5,1.34,0.33,-0.76,88.6378,-226.74540000000002,249.4938,175,75
2026-05-09 17:10:06.572,5,0.35,0.22,-0.99,74.9178,-213.30540000000002,249.4938,175,75
2026-05-09 17:10:06.599,5,-0.36,-0.06,-0.94,67.7478,-244.4254,249.4938,175,75
2026-05-09 17:10:06.613,5,-0.56,-0.2,-0.47,48.817800000000005,-230.4754,249.4938,175,75
2026-05-09 17:10:06.613,5,-0.55,-0.32,-0.15,29.9878,-137.8554,228.9838,175,75
2026-05-09 17:10:06.636,5,-0.54,-0.39,0.02,9.1478,-12.3354,102.2938,175,75
2026-05-09 17:10:06.636,5,-0.53,-0.57,-0.01,-15.0322,98.8546,9.4138,175,75
2026-05-09 17:10:06.652,5,-0.32,-0.17,-0.1,-65.0322,243.25459999999998,-130.5562,175,75
2026-05-09 17:10:06.679,5,-0.13,-0.0,-0.16,-88.1522,248.09459999999999,-180.2362,175,75
2026-05-09 17:10:06.691,5,0.04,0.08,-0.16,-102.5322,248.09459999999999,-221.7862,175,75
2026-05-09 17:10:06.705,5,0.06,0.17,-0.1,-107.6922,248.09459999999999,-250.7762,175,75
2026-05-09 17:10:06.728,5,0.47,0.23,0.08,-92.3122,248.09459999999999,-250.7762,175,75
2026-05-09 17:10:06.728,5,1.27,0.67,0.53,-47.9222,247.5246,-139.9462,175,75
2026-05-09 17:10:06.728,5,0.67,1.72,1.26,-25.4722,51.5246,72.7638,175,75
2026-05-09 17:10:06.743,5,0.3,0.91,1.13,-32.6322,15.194600000000001,89.8838,175,75
2026-05-09 17:10:06.754,5,0.05,0.4,0.88,-27.912200000000002,32.8546,67.32379999999999,175,75
2026-05-09 17:10:06.754,5,-0.14,0.14,0.79,-14.822199999999999,63.4446,50.1338,175,75
2026-05-09 17:10:06.764,5,-0.05,0.25,0.99,-7.4722,105.5646,43.1338,175,75
2026-05-09 17:10:06.775,5,0.4,0.26,1.34,-16.9322,169.85459999999998,71.5938,175,75
2026-05-09 17:10:06.785,5,1.02,0.62,2.0,-55.1222,241.0446,179.9538,175,75
2026-05-09 17:10:06.796,5,1.18,1.17,2.0,-132.6122,248.09459999999999,249.4938,175,75
2026-05-09 17:10:06.809,5,0.13,1.16,2.0,-196.37220000000002,248.09459999999999,249.4938,175,75
2026-05-09 17:10:06.818,5,-1.26,0.39,2.0,-197.5222,248.09459999999999,249.4938,175,75
2026-05-09 17:10:06.829,5,-2.0,-0.4,2.0,-169.74220000000003,248.09459999999999,175.3838,175,75
2026-05-09 17:10:06.840,5,-2.0,-1.04,2.0,-133.5122,201.56459999999998,89.9938,175,75
2026-05-09 17:10:06.840,5,-2.0,-1.43,1.67,-53.0822,27.1746,33.2438,175,75
2026-05-09 17:10:06.851,5,-2.0,-1.46,2.0,28.7178,-143.2054,-16.1562,175,75
2026-05-09 17:10:06.864,5,-2.0,-0.97,2.0,105.6678,-252.1754,-100.9762,175,75
2026-05-09 17:10:06.887,5,-1.07,-0.08,0.97,165.34779999999998,-252.1754,-210.3462,175,75
2026-05-09 17:10:06.898,5,-0.3,0.04,0.48,176.02779999999998,-252.1754,-208.6762,175,75
2026-05-09 17:10:06.911,5,0.71,0.29,-0.03,188.1078,-252.1754,-186.8962,175,75
2026-05-09 17:10:06.922,5,0.62,0.48,-0.13,186.7378,-252.1754,-180.46620000000001,175,75
2026-05-09 17:10:06.922,5,2.0,0.79,-0.97,157.46779999999998,-252.1754,-145.3762,175,75
2026-05-09 17:10:06.933,5,2.0,0.8,-2.0,119.9378,-10.5154,-63.1862,175,75
2026-05-09 17:10:06.951,5,0.61,0.74,-1.64,56.0278,78.5246,-31.996199999999998,175,75
2026-05-09 17:10:06.951,5,-0.7,0.19,-0.83,18.6278,-10.4454,-13.9762,175,75
2026-05-09 17:10:06.967,5,-0.53,-0.2,-0.3,-6.4122,-125.4054,39.0638,175,75
2026-05-09 17:10:06.979,5,0.12,-0.13,0.31,-25.4222,-183.7054,115.3438,175,75
2026-05-09 17:10:06.979,5,0.8,-0.25,0.8,-61.0122,-139.3154,171.8438,175,75
2026-05-09 17:10:07.002,5,1.47,0.84,0.78,-87.2522,33.124599999999994,241.4338,175,75
2026-05-09 17:10:07.003,5,2.0,0.1,1.75,-111.4422,248.09459999999999,240.1038,175,75
2026-05-09 17:10:07.013,5,1.53,0.17,2.0,-98.1622,248.09459999999999,63.57379999999999,175,75
2026-05-09 17:10:07.025,5,2.0,0.18,2.0,-30.5322,248.09459999999999,-151.0362,175,75
2026-05-09 17:10:07.039,5,-0.13,0.39,2.0,-63.15219999999999,248.09459999999999,-250.7762,175,75
2026-05-09 17:10:07.053,5,-2.0,0.25,2.0,-47.112199999999994,248.09459999999999,-250.7762,175,75
2026-05-09 17:10:07.053,5,-2.0,0.2,2.0,14.847800000000001,224.0546,-250.7762,175,75
2026-05-09 17:10:07.068,5,-2.0,0.97,2.0,32.787800000000004,-31.665399999999998,-139.9062,175,75
2026-05-09 17:10:07.078,5,-2.0,1.05,2.0,8.2078,-201.3254,-38.0762,175,75
2026-05-09 17:10:07.090,5,-1.18,0.94,2.0,-9.5422,-252.1754,51.4738,175,75
2026-05-09 17:10:07.094,5,0.08,0.6,2.0,4.2278,-252.1754,197.6038,175,75
2026-05-09 17:10:07.108,5,1.15,0.45,1.92,0.8678,-252.1754,249.4938,175,75
2026-05-09 17:10:07.118,5,1.59,0.4,1.64,-15.3822,-241.7254,249.4938,175,75
2026-05-09 17:10:07.130,5,1.32,0.04,1.18,-27.7022,-184.33540000000002,249.4938,175,75
2026-05-09 17:10:07.148,5,0.89,-0.27,0.75,-40.782199999999996,-206.08540000000002,249.4938,175,75
2026-05-09 17:10:07.148,5,1.07,-0.64,0.49,-41.6722,-231.52540000000002,249.4938,175,75
2026-05-09 17:10:07.169,5,0.86,-1.35,-0.22,-1.3422,-20.5654,249.4938,175,75
2026-05-09 17:10:07.170,5,-0.21,-1.21,-0.11,37.6678,69.1746,175.9638,175,75
2026-05-09 17:10:07.190,5,-0.75,-1.17,-0.2,79.9278,94.2346,61.1338,175,75
2026-05-09 17:10:07.200,5,-0.91,-1.05,-0.29,114.8878,87.7946,-46.0462,175,75
2026-05-09 17:10:07.213,5,-0.69,-0.84,-0.39,128.0178,77.47460000000001,-155.9462,175,75
2026-05-09 17:10:07.224,5,-0.28,-0.49,-0.46,113.1778,88.6846,-250.7762,175,75
2026-05-09 17:10:07.224,5,-0.06,-0.13,-0.45,72.7578,118.41460000000001,-250.7762,175,75
2026-05-09 17:10:07.234,5,-0.17,0.09,-0.29,53.7378,131.88459999999998,-250.7762,175,75
2026-05-09 17:10:07.243,5,-0.33,0.23,-0.28,12.8978,113.08460000000001,-250.7762,175,75
2026-05-09 17:10:07.257,5,-0.47,0.31,-0.29,-25.8522,60.624599999999994,-250.7762,175,75
2026-05-09 17:10:07.268,5,-0.48,0.25,-0.39,-49.4922,-2.8954,-250.7762,175,75
2026-05-09 17:10:07.275,5,-0.37,0.18,-0.47,-58.612199999999994,-75.4354,-250.7762,175,75
2026-05-09 17:10:07.286,5,-0.28,0.19,-0.51,-61.432199999999995,-141.6954,-250.7762,175,75
2026-05-09 17:10:07.300,5,0.01,0.23,-0.42,-64.8322,-186.08540000000002,-250.7762,175,75
2026-05-09 17:10:07.311,5,0.42,0.27,-0.24,-71.45219999999999,-179.8154,-250.7762,175,75
2026-05-09 17:10:07.311,5,0.56,0.28,-0.2,-75.1422,-139.5154,-207.6562,175,75
2026-05-09 17:10:07.328,5,0.34,0.26,-0.19,-75.5722,-98.1454,-156.8162,175,75
2026-05-09 17:10:07.335,5,0.13,0.22,-0.28,-73.5822,-74.85539999999999,-119.4662,175,75
2026-05-09 17:10:07.345,5,-0.11,0.33,-0.22,-67.5622,-62.485400000000006,-99.5162,175,75
2026-05-09 17:10:07.357,5,-0.05,0.38,-0.15,-65.23219999999999,-52.0854,-86.7362,175,75
2026-05-09 17:10:07.374,5,0.23,0.4,-0.09,-63.51219999999999,-37.0754,-64.0262,175,75
2026-05-09 17:10:07.374,5,0.58,0.48,0.0,-60.282199999999996,-15.7954,-10.686200000000001,175,75
2026-05-09 17:10:07.380,5,1.93,0.83,0.15,-42.0822,-41.5354,190.7938,175,75
2026-05-09 17:10:07.393,5,1.25,0.15,0.34,-25.072200000000002,-121.0054,249.4938,175,75
2026-05-09 17:10:07.403,5,1.2,1.51,1.25,-35.5522,-120.7954,249.4938,175,75
2026-05-09 17:10:07.433,5,2.0,1.08,1.91,-52.3422,27.8446,249.4938,175,75
2026-05-09 17:10:07.433,5,2.0,0.53,2.0,-70.1122,228.4646,235.4238,175,75
2026-05-09 17:10:07.433,5,2.0,-0.12,2.0,-90.1122,248.09459999999999,249.4938,175,75
2026-05-09 17:10:07.447,5,1.72,-0.42,2.0,-94.1122,248.09459999999999,249.4938,175,75
2026-05-09 17:10:07.457,5,-0.32,-0.82,2.0,-66.8922,248.09459999999999,249.4938,175,75
2026-05-09 17:10:07.470,5,-2.0,-0.96,2.0,-41.432199999999995,248.09459999999999,249.4938,175,75
2026-05-09 17:10:07.480,5,-2.0,-1.08,1.92,-18.302200000000003,245.7446,149.5738,175,75
2026-05-09 17:10:07.490,5,-2.0,-1.45,1.79,3.6477999999999997,123.4546,-23.946199999999997,175,75
2026-05-09 17:10:07.490,5,-2.0,-1.53,2.0,32.3678,0.1846000000000001,-153.6362,175,75
2026-05-09 17:10:07.501,5,-2.0,-1.48,2.0,53.067800000000005,-90.94539999999999,-225.3262,175,75
2026-05-09 17:10:07.511,5,-1.54,-1.17,2.0,85.0078,-165.30540000000002,-250.7762,175,75
2026-05-09 17:10:07.536,5,-1.08,-0.48,1.93,123.3378,-230.8154,-250.7762,175,75
2026-05-09 17:10:07.544,5,-0.49,0.2,1.46,143.6078,-252.1754,-250.7762,175,75
2026-05-09 17:10:07.556,5,-0.08,0.63,1.08,153.3278,-252.1754,-250.7762,175,75
2026-05-09 17:10:07.556,5,0.22,1.07,0.98,156.0478,-248.27540000000002,-250.7762,175,75
2026-05-09 17:10:07.570,5,0.22,1.42,0.84,139.3378,-245.90540000000001,-250.7762,175,75
2026-05-09 17:10:07.570,5,0.46,1.53,0.62,106.1478,-246.9554,-250.7762,175,75
2026-05-09 17:10:07.582,5,2.0,1.5,0.07,77.4978,-195.6054,-250.7762,175,75
2026-05-09 17:10:07.595,5,2.0,1.65,-0.09,58.177800000000005,-77.9254,-89.0162,175,75
2026-05-09 17:10:07.606,5,0.4,1.15,0.19,21.8778,8.724599999999999,28.2738,175,75
2026-05-09 17:10:07.630,5,-0.69,0.83,0.08,-13.002199999999998,20.7146,52.3338,175,75
2026-05-09 17:10:07.630,5,-0.71,0.4,-0.11,-24.092200000000002,-5.0154,77.57379999999999,175,75
2026-05-09 17:10:07.650,5,-0.53,0.11,-0.4,-7.922199999999999,-40.4054,122.07379999999999,175,75
2026-05-09 17:10:07.650,5,-0.07,-0.11,-0.5,29.6178,-65.0054,158.6138,175,75
2026-05-09 17:10:07.661,5,0.62,-0.28,-0.56,87.48780000000001,-39.3654,191.2038,175,75
2026-05-09 17:10:07.671,5,1.24,-0.11,-0.27,132.8678,25.8946,249.4938,175,75
2026-05-09 17:10:07.681,5,2.0,0.11,1.08,137.4278,248.09459999999999,249.4938,175,75
2026-05-09 17:10:07.704,5,2.0,0.48,2.0,113.9778,248.09459999999999,249.4938,175,75
2026-05-09 17:10:07.704,5,0.69,-0.36,2.0,90.23780000000001,248.09459999999999,249.4938,175,75
2026-05-09 17:10:07.712,5,-0.31,0.07,2.0,68.8578,248.09459999999999,249.4938,175,75
2026-05-09 17:10:07.727,5,-1.69,0.29,2.0,20.4678,248.09459999999999,-98.9562,175,75
2026-05-09 17:10:07.746,5,-2.0,-0.44,2.0,-12.1022,248.09459999999999,-250.7762,175,75
2026-05-09 17:10:07.756,5,-2.0,-0.4,1.97,16.3378,248.09459999999999,-250.7762,175,75
2026-05-09 17:10:07.756,5,-2.0,-0.29,2.0,89.4978,146.60459999999998,-250.7762,175,75
2026-05-09 17:10:07.782,5,-1.46,1.04,2.0,50.0778,-252.1754,-152.9162,175,75
2026-05-09 17:10:07.811,5,-0.74,0.62,1.87,61.1578,-252.1754,-57.6362,175,75
2026-05-09 17:10:07.811,5,0.0,0.44,1.62,87.9178,-252.1754,104.1738,175,75
2026-05-09 17:10:07.822,5,0.54,0.48,1.5,84.65780000000001,-252.1754,248.3738,175,75
2026-05-09 17:10:07.842,5,1.16,0.29,1.24,60.0778,-252.1754,249.4938,175,75
2026-05-09 17:10:07.854,5,1.41,-0.13,0.54,39.0878,-160.7354,249.4938,175,75
2026-05-09 17:10:07.868,5,1.14,-0.26,0.05,52.207800000000006,-137.96540000000002,249.4938,175,75
2026-05-09 17:10:07.879,5,2.0,-0.87,-1.05,55.997800000000005,-94.2054,249.4938,175,75
2026-05-09 17:10:07.879,5,1.5,-1.48,-1.29,14.7178,-35.3654,249.4938,175,75
2026-05-09 17:10:07.888,5,0.09,-1.21,-0.88,31.5978,18.6746,227.00379999999998,175,75
2026-05-09 17:10:07.901,5,-0.96,-0.78,-0.46,54.997800000000005,32.124599999999994,96.96379999999999,175,75
2026-05-09 17:10:07.930,5,-1.56,-0.49,-0.29,56.817800000000005,12.854600000000001,-34.7862,175,75
2026-05-09 17:10:07.930,5,-1.52,-0.58,-0.09,54.1578,-14.185400000000001,-183.2262,175,75
2026-05-09 17:10:07.943,5,-1.48,-0.23,-0.28,42.967800000000004,-56.955400000000004,-250.7762,175,75
2026-05-09 17:10:07.955,5,-1.12,-0.13,-0.46,26.157799999999998,-107.3654,-250.7762,175,75
2026-05-09 17:10:07.955,5,-0.69,0.01,-0.58,-1.3322000000000003,-162.2854,-250.7762,175,75
2026-05-09 17:10:07.974,5,-0.27,0.29,-0.64,-49.3822,-200.08540000000002,-250.7762,175,75
2026-05-09 17:10:07.992,5,0.26,0.49,-0.63,-112.5822,-193.4154,-250.7762,175,75
2026-05-09 17:10:08.003,5,0.63,0.44,-0.61,-164.8222,-142.8554,-250.7762,175,75
2026-05-09 17:10:08.003,5,0.63,0.25,-0.59,-182.25220000000002,-78.0954,-250.7762,175,75
2026-05-09 17:10:08.015,5,0.43,0.19,-0.55,-170.6622,-18.5354,-250.7762,175,75
2026-05-09 17:10:08.016,5,0.24,0.12,-0.42,-145.8822,28.884600000000002,-244.6162,175,75
2026-05-09 17:10:08.025,5,0.07,0.2,-0.31,-128.4822,58.1046,-233.1462,175,75
2026-05-09 17:10:08.041,5,0.14,0.31,-0.2,-114.8522,83.6046,-210.1362,175,75
2026-05-09 17:10:08.041,5,0.35,0.42,-0.1,-110.6022,108.2946,-163.7862,175,75
2026-05-09 17:10:08.048,5,0.54,0.53,0.06,-117.5722,139.31459999999998,-99.1662,175,75
2026-05-09 17:10:08.050,5,0.82,0.52,0.16,-117.9022,162.59459999999999,-33.976200000000006,175,75
2026-05-09 17:10:08.062,5,2.0,2.0,1.75,-107.5622,30.694599999999998,249.4938,175,75
2026-05-09 17:10:08.071,5,1.24,1.77,1.51,-143.6922,-18.2054,249.4938,175,75
2026-05-09 17:10:08.081,5,1.3,1.73,2.0,-204.1322,151.66459999999998,249.4938,175,75
2026-05-09 17:10:08.128,5,2.0,1.69,2.0,-249.2722,248.09459999999999,249.4938,175,75
2026-05-09 17:10:08.129,5,1.63,0.89,2.0,-249.2722,248.09459999999999,249.4938,175,75
2026-05-09 17:10:08.141,5,-1.59,-0.64,1.53,-153.5722,248.09459999999999,249.4938,175,75
2026-05-09 17:10:08.141,5,-2.0,-0.81,1.05,-130.1322,248.09459999999999,249.4938,175,75
2026-05-09 17:10:08.160,5,-2.0,-1.4,1.33,-92.9422,107.30460000000001,249.4938,175,75
2026-05-09 17:10:08.185,5,-2.0,-1.64,2.0,-27.9022,-252.1754,249.4938,175,75
2026-05-09 17:10:08.185,5,-2.0,-1.59,2.0,-53.1722,-252.1754,199.1538,175,75
2026-05-09 17:10:08.196,5,-1.39,-1.48,2.0,-69.6822,-252.1754,50.2538,175,75
2026-05-09 17:10:08.196,5,-0.45,-1.32,2.0,-29.6822,-252.1754,-150.4862,175,75
2026-05-09 17:10:08.208,5,0.05,-0.72,1.77,27.5578,-202.30540000000002,-250.7762,175,75
2026-05-09 17:10:08.219,5,0.4,-0.25,1.46,77.9678,-107.1154,-250.7762,175,75
2026-05-09 17:10:08.231,5,0.61,0.04,1.23,128.7878,-15.2654,-250.7762,175,75
2026-05-09 17:10:08.241,5,1.03,0.46,1.36,191.4578,-33.5154,-250.7762,175,75
2026-05-09 17:10:08.241,5,1.24,0.86,2.0,206.6178,-56.915400000000005,-245.2662,175,75
2026-05-09 17:10:08.254,5,0.92,0.67,2.0,194.27779999999998,-9.3554,-111.0762,175,75
2026-05-09 17:10:08.266,5,0.89,1.01,2.0,156.4278,47.184599999999996,42.0838,175,75
2026-05-09 17:10:08.284,5,1.15,0.93,2.0,110.7178,79.9846,249.4938,175,75
2026-05-09 17:10:08.284,5,1.53,0.9,2.0,71.0778,116.6846,249.4938,175,75
2026-05-09 17:10:08.292,5,1.79,0.7,2.0,30.0778,189.4646,249.4938,175,75
2026-05-09 17:10:08.313,5,0.04,1.28,2.0,-38.112199999999994,177.10459999999998,249.4938,175,75
2026-05-09 17:10:08.315,5,-1.59,-0.32,2.0,-76.1522,17.0446,249.4938,175,75
2026-05-09 17:10:08.326,5,-2.0,-1.29,2.0,-88.1522,-160.1954,249.4938,175,75
2026-05-09 17:10:08.333,5,-2.0,-1.56,2.0,-63.73219999999999,-246.0754,249.4938,175,75
2026-05-09 17:10:08.350,5,-2.0,-1.66,1.53,-35.102199999999996,-252.1754,249.4938,175,75
2026-05-09 17:10:08.366,5,-2.0,-1.67,1.09,-12.2822,-252.1754,248.0238,175,75
2026-05-09 17:10:08.366,5,-1.52,-1.45,0.75,0.3278,-252.1754,43.9938,175,75
2026-05-09 17:10:08.379,5,0.13,-1.29,0.25,-3.0122,-252.1754,-193.8462,175,75
2026-05-09 17:10:08.389,5,2.0,-1.13,-0.38,-10.072199999999999,-82.4254,-250.7762,175,75
2026-05-09 17:10:08.395,5,2.0,-0.74,-0.83,3.4377999999999997,158.09459999999999,-250.7762,175,75
2026-05-09 17:10:08.407,5,2.0,-0.38,-1.24,37.0178,248.09459999999999,-250.7762,175,75
2026-05-09 17:10:08.415,5,2.0,-0.38,-1.4,70.40780000000001,248.09459999999999,-250.7762,175,75
2026-05-09 17:10:08.430,5,1.3,0.21,-1.52,154.9478,248.09459999999999,-154.1562,175,75
2026-05-09 17:10:08.442,5,-0.18,0.71,-0.89,202.9278,63.394600000000004,36.943799999999996,175,75
2026-05-09 17:10:08.454,5,-1.05,0.84,-0.41,178.28779999999998,-75.0654,47.2838,175,75
2026-05-09 17:10:08.454,5,-1.27,0.97,-0.26,120.6878,-187.1354,-18.4862,175,75
2026-05-09 17:10:08.496,5,-0.61,0.56,-0.43,68.23780000000001,-252.1754,-37.8862,175,75
2026-05-09 17:10:08.496,5,0.42,0.23,-0.35,47.427800000000005,-252.1754,40.8638,175,75
2026-05-09 17:10:08.496,5,0.67,0.13,-0.26,48.6178,-247.39540000000002,118.7838,175,75
2026-05-09 17:10:08.514,5,0.51,-0.14,-0.19,68.5678,-159.0454,179.25379999999998,175,75
2026-05-09 17:10:08.514,5,0.18,-0.11,-0.19,92.8278,-83.1854,209.9338,175,75
2026-05-09 17:10:08.525,5,0.01,-0.06,-0.19,112.7778,-24.755399999999998,226.1838,175,75
2026-05-09 17:10:08.525,5,-0.0,-0.01,-0.18,120.3678,16.2846,240.8738,175,75
2026-05-09 17:10:08.537,5,0.0,0.04,-0.13,115.23780000000001,44.2346,249.4938,175,75
2026-05-09 17:10:08.554,5,0.0,0.1,-0.1,104.4678,65.7846,249.4938,175,75
2026-05-09 17:10:08.554,5,-0.03,0.12,-0.1,92.12780000000001,82.9346,249.4938,175,75
2026-05-09 17:10:08.569,5,-0.05,0.14,-0.05,77.65780000000001,97.7346,249.4938,175,75
2026-05-09 17:10:08.581,5,0.01,0.12,0.04,62.287800000000004,115.9646,249.4938,175,75
2026-05-09 17:10:08.592,5,0.1,0.11,0.15,50.5278,147.7346,249.4938,175,75
2026-05-09 17:10:08.592,5,0.23,0.06,0.22,51.397800000000004,189.2746,221.9038,175,75
2026-05-09 17:10:08.603,5,0.13,0.32,0.16,46.2678,235.50459999999998,193.7638,175,75
2026-05-09 17:10:08.614,5,-0.08,0.01,0.39,45.7978,248.09459999999999,149.3938,175,75
2026-05-09 17:10:08.625,5,-0.23,-0.02,1.01,53.1978,157.3746,96.3838,175,75
2026-05-09 17:10:08.647,5,0.03,-0.04,1.2,43.717800000000004,68.8446,69.6438,175,75
2026-05-09 17:10:08.660,5,-0.14,-0.01,0.93,35.9178,47.8846,40.7038,175,75
2026-05-09 17:10:08.660,5,-0.57,-0.01,0.64,35.787800000000004,26.814600000000002,12.0238,175,75
2026-05-09 17:10:08.674,5,-0.69,0.03,0.6,36.397800000000004,-11.165400000000002,-2.7562,175,75
2026-05-09 17:10:08.686,5,-0.43,0.03,0.71,33.0778,-34.0054,-14.4562,175,75
2026-05-09 17:10:08.696,5,-0.03,0.19,0.95,32.1578,-57.985400000000006,-2.3062,175,75
2026-05-09 17:10:08.708,5,0.33,0.27,1.25,34.247800000000005,-100.9254,40.733799999999995,175,75
2026-05-09 17:10:08.719,5,0.86,0.58,1.58,32.4078,-172.4554,90.4138,175,75
2026-05-09 17:10:08.719,5,1.17,0.64,1.57,17.447799999999997,-216.1054,132.2338,175,75
2026-05-09 17:10:08.730,5,1.52,0.42,1.36,-2.8322000000000003,-197.99540000000002,165.0738,175,75
2026-05-09 17:10:08.745,5,1.88,-0.03,1.02,-11.8422,-113.6454,209.5938,175,75
2026-05-09 17:10:08.758,5,2.0,-0.23,0.86,-0.7821999999999999,16.7946,249.4938,175,75
2026-05-09 17:10:08.758,5,1.55,-0.29,0.82,17.0678,125.91460000000001,249.4938,175,75
2026-05-09 17:10:08.771,5,1.24,-0.41,1.02,33.887800000000006,198.2446,249.4938,175,75
2026-05-09 17:10:08.792,5,0.88,-0.27,1.41,41.0878,242.9846,246.1338,175,75
2026-05-09 17:10:08.792,5,0.37,-0.31,1.62,41.0778,248.09459999999999,169.8038,175,75
2026-05-09 17:10:08.802,5,-0.05,-0.23,1.67,34.707800000000006,248.09459999999999,54.803799999999995,175,75
2026-05-09 17:10:08.813,5,-0.41,-0.27,1.71,21.6678,248.09459999999999,-74.8862,175,75
2026-05-09 17:10:08.820,5,-0.56,-0.38,2.0,4.4278,248.09459999999999,-178.0862,175,75
2026-05-09 17:10:08.829,5,-0.72,-0.4,2.0,-21.9622,248.09459999999999,-222.1962,175,75
2026-05-09 17:10:08.853,5,-1.85,-0.29,2.0,-9.252199999999998,248.09459999999999,-169.1562,175,75
2026-05-09 17:10:08.867,5,-2.0,-0.2,2.0,9.267800000000001,172.88459999999998,-125.42620000000001,175,75
2026-05-09 17:10:08.878,5,-2.0,0.37,2.0,4.6778,-42.6054,-40.8962,175,75
2026-05-09 17:10:08.892,5,-1.99,0.42,2.0,-9.082199999999998,-142.7954,9.2538,175,75
2026-05-09 17:10:08.892,5,-1.62,0.17,2.0,-4.9222,-216.58540000000002,72.9138,175,75
2026-05-09 17:10:08.913,5,-1.47,-0.05,2.0,-1.3422,-252.1754,128.2638,175,75
2026-05-09 17:10:08.919,5,-1.13,-0.18,1.88,-4.7122,-252.1754,150.8838,175,75
2026-05-09 17:10:08.924,5,-0.7,-0.33,1.65,-12.072199999999999,-252.1754,148.2938,175,75
2026-05-09 17:10:08.936,5,-0.39,-0.43,1.55,-20.572200000000002,-252.1754,126.5638,175,75
2026-05-09 17:10:08.947,5,-0.11,-0.56,1.32,-19.8622,-252.1754,108.10379999999999,175,75
2026-05-09 17:10:08.960,5,0.27,-0.62,1.26,-11.972199999999999,-252.1754,69.8038,175,75
2026-05-09 17:10:08.972,5,0.84,-0.6,1.07,10.337800000000001,-223.3454,-27.716199999999997,175,75
2026-05-09 17:10:08.982,5,0.96,-0.52,0.89,24.3978,-132.6954,-79.3662,175,75
2026-05-09 17:10:08.994,5,0.8,-0.27,0.74,32.9178,-34.915400000000005,-138.2362,175,75
2026-05-09 17:10:09.004,5,0.47,-0.07,0.73,32.4278,42.5646,-204.1862,175,75
2026-05-09 17:10:09.020,5,0.27,0.03,0.72,29.2978,102.1046,-250.7762,175,75
2026-05-09 17:10:09.020,5,0.1,0.13,0.72,26.7178,138.69459999999998,-250.7762,175,75
2026-05-09 17:10:09.033,5,-0.02,0.24,0.73,27.1678,136.3946,-250.7762,175,75
2026-05-09 17:10:09.052,5,-0.04,0.34,0.78,30.087799999999998,98.2346,-250.7762,175,75
2026-05-09 17:10:09.067,5,-0.14,0.47,0.91,30.2178,37.614599999999996,-250.7762,175,75
2026-05-09 17:10:09.078,5,-0.19,0.54,0.9,27.9678,-17.7054,-250.7762,175,75
2026-05-09 17:10:09.090,5,-0.22,0.54,0.76,27.3278,-54.5054,-224.24620000000002,175,75
2026-05-09 17:10:09.090,5,-0.26,0.42,0.55,33.397800000000004,-88.27539999999999,-178.8862,175,75
2026-05-09 17:10:09.102,5,-0.22,0.32,0.35,40.2278,-112.2054,-135.0862,175,75
2026-05-09 17:10:09.114,5,-0.23,0.28,0.18,41.637800000000006,-128.5954,-92.1362,175,75
2026-05-09 17:10:09.114,5,-0.1,0.19,-0.02,41.967800000000004,-141.5954,-38.6162,175,75
2026-05-09 17:10:09.127,5,0.2,0.09,-0.39,50.2378,-155.7954,46.5338,175,75
2026-05-09 17:10:09.138,5,0.16,0.05,-0.49,58.5578,-173.1654,140.4838,175,75
2026-05-09 17:10:09.152,5,0.32,0.1,-0.67,70.3978,-199.5954,249.4938,175,75
2026-05-09 17:10:09.165,5,0.52,0.07,-0.64,60.3078,-178.89540000000002,249.4938,175,75
2026-05-09 17:10:09.175,5,0.52,0.08,-0.48,45.8778,-130.5954,249.4938,175,75
2026-05-09 17:10:09.188,5,0.24,0.08,-0.32,28.3778,-64.6854,249.4938,175,75
2026-05-09 17:10:09.200,5,-0.11,-0.01,-0.22,15.9878,-2.4154,249.4938,175,75
2026-05-09 17:10:09.210,5,-0.34,-0.02,-0.18,9.917800000000002,47.9146,237.4938,175,75
2026-05-09 17:10:09.210,5,-0.48,-0.12,-0.12,6.2678,80.4346,181.75379999999998,175,75
2026-05-09 17:10:09.222,5,-0.54,-0.12,-0.04,5.1078,101.6346,124.82379999999999,175,75
2026-05-09 17:10:09.238,5,-0.42,-0.03,0.09,-2.9522,120.3446,67.2438,175,75
2026-05-09 17:10:09.261,5,-0.04,0.17,0.25,-31.072200000000002,180.7146,-38.586200000000005,175,75
2026-05-09 17:10:09.274,5,0.13,0.2,0.34,-46.4722,217.8246,-84.5562,175,75
2026-05-09 17:10:09.284,5,0.3,0.19,0.53,-59.1322,248.09459999999999,-115.7662,175,75
2026-05-09 17:10:09.301,5,0.83,0.77,1.36,-67.6922,56.444599999999994,79.4738,175,75
2026-05-09 17:10:09.311,5,0.76,0.81,1.53,-72.20219999999999,-1.0154,146.50379999999998,175,75
2026-05-09 17:10:09.316,5,0.45,0.46,1.28,-83.59219999999999,24.1746,156.0238,175,75
2026-05-09 17:10:09.329,5,0.24,0.07,1.08,-85.98219999999999,76.16460000000001,161.5738,175,75
2026-05-09 17:10:09.340,5,0.19,-0.22,0.87,-81.5322,190.16459999999998,248.9238,175,75
2026-05-09 17:10:09.352,5,0.36,-0.13,1.41,-84.1522,236.81459999999998,249.4938,175,75
2026-05-09 17:10:09.362,5,-0.03,0.03,2.0,-103.0022,248.09459999999999,249.4938,175,75
2026-05-09 17:10:09.379,5,-0.94,-0.34,2.0,-111.5022,212.7346,249.4938,175,75
2026-05-09 17:10:09.379,5,-1.68,-0.65,2.0,-103.4422,179.6546,224.3438,175,75
2026-05-09 17:10:09.403,5,-2.0,-1.02,2.0,-89.2822,204.3246,70.3138,175,75
2026-05-09 17:10:09.403,5,-2.0,-1.23,2.0,-76.5322,240.4546,-63.9562,175,75
2026-05-09 17:10:09.414,5,-2.0,-1.41,2.0,-65.2122,216.16459999999998,-115.6062,175,75
2026-05-09 17:10:09.425,5,-2.0,-1.56,2.0,-45.502199999999995,119.4246,-115.0962,175,75
2026-05-09 17:10:09.438,5,-2.0,-1.63,2.0,6.0878,-14.955400000000001,-114.6662,175,75
2026-05-09 17:10:09.449,5,-2.0,-1.3,2.0,57.6878,-166.1354,-143.0862,175,75
2026-05-09 17:10:09.458,5,-2.0,-0.9,2.0,84.8878,-252.1754,-200.3362,175,75
2026-05-09 17:10:09.470,5,-1.99,-0.38,1.89,98.2278,-252.1754,-243.9062,175,75
2026-05-09 17:10:09.470,5,-1.14,-0.11,1.55,112.3178,-252.1754,-250.7762,175,75
2026-05-09 17:10:09.485,5,-0.48,0.19,1.29,130.78779999999998,-252.1754,-250.7762,175,75
2026-05-09 17:10:09.496,5,0.24,0.19,0.97,151.77779999999998,-252.1754,-250.7762,175,75
2026-05-09 17:10:09.509,5,0.46,0.74,0.62,161.4778,-252.1754,-250.7762,175,75
2026-05-09 17:10:09.519,5,0.67,1.11,0.36,145.2078,-252.1754,-250.7762,175,75
2026-05-09 17:10:09.529,5,1.22,1.39,-0.13,117.8878,-252.1754,-250.7762,175,75
2026-05-09 17:10:09.540,5,2.0,1.59,-1.85,95.4678,-252.1754,-49.2562,175,75
2026-05-09 17:10:09.540,5,2.0,1.68,-1.44,38.5578,-3.5454,63.543800000000005,175,75
2026-05-09 17:10:09.551,5,0.16,0.46,-0.85,-18.7022,57.334599999999995,17.3138,175,75
2026-05-09 17:10:09.560,5,-0.09,-0.2,-0.62,-30.822200000000002,15.084600000000002,31.5438,175,75
2026-05-09 17:10:09.579,5,-0.06,-0.53,-0.38,-21.8122,-37.635400000000004,84.7238,175,75
2026-05-09 17:10:09.586,5,0.73,1.67,0.68,-17.6222,-57.6154,160.1938,175,75
2026-05-09 17:10:09.592,5,0.75,-0.43,0.55,-18.1522,-29.865399999999998,221.4138,175,75
2026-05-09 17:10:09.603,5,1.23,-0.09,1.35,-12.0222,77.9546,246.7238,175,75
2026-05-09 17:10:09.617,5,1.42,0.11,1.99,-63.15219999999999,248.09459999999999,198.6438,175,75
2026-05-09 17:10:09.638,5,0.84,-0.06,2.0,-38.642199999999995,248.09459999999999,-66.42620000000001,175,75
2026-05-09 17:10:09.638,5,1.25,0.3,2.0,-44.5222,248.09459999999999,-226.3862,175,75
2026-05-09 17:10:09.650,5,0.14,0.09,2.0,-50.9922,248.09459999999999,-250.7762,175,75
2026-05-09 17:10:09.662,5,-1.3,-0.08,1.47,-11.9522,248.09459999999999,-222.2862,175,75
2026-05-09 17:10:09.674,5,-1.93,-0.01,1.16,28.9378,214.2446,-170.6162,175,75
2026-05-09 17:10:09.680,5,-2.0,0.45,1.33,46.8078,46.504599999999996,-118.6362,175,75
2026-05-09 17:10:09.692,5,-2.0,0.82,1.78,18.0078,-88.5354,-73.39620000000001,175,75
2026-05-09 17:10:09.692,5,-1.01,0.81,1.91,-16.6022,-168.7054,20.8338,175,75
2026-05-09 17:10:09.702,5,-0.0,0.52,1.77,-18.3122,-200.6654,175.2638,175,75
2026-05-09 17:10:09.720,5,0.57,0.42,1.62,-8.7922,-193.9254,249.4938,175,75
2026-05-09 17:10:09.730,5,1.13,0.11,1.32,-9.0122,-144.0954,249.4938,175,75
2026-05-09 17:10:09.736,5,1.0,-0.18,1.03,2.4278,-89.4254,249.4938,175,75
2026-05-09 17:10:09.750,5,0.89,-0.39,0.89,11.687800000000001,-84.9254,249.4938,175,75
2026-05-09 17:10:09.750,5,0.27,-0.7,0.94,7.2278,-183.5954,249.4938,175,75
2026-05-09 17:10:09.762,5,0.56,-1.29,0.79,-5.4322,-252.1754,249.4938,175,75
2026-05-09 17:10:09.776,5,1.95,-2.0,-0.21,5.8078,-167.9554,249.4938,175,75
2026-05-09 17:10:09.787,5,0.83,-1.87,-0.55,60.287800000000004,0.014599999999999724,151.1738,175,75
2026-05-09 17:10:09.800,5,-0.35,-1.36,-0.59,122.2078,86.3246,13.3338,175,75
2026-05-09 17:10:09.809,5,-0.78,-0.91,-0.64,162.0878,112.4046,-101.67620000000001,175,75
2026-05-09 17:10:09.822,5,-0.78,-0.44,-0.63,161.6678,118.0746,-194.9162,175,75
2026-05-09 17:10:09.832,5,-0.7,0.08,-0.46,160.71779999999998,117.0446,-250.7762,175,75
2026-05-09 17:10:09.853,5,-0.56,-0.02,-0.27,126.4578,107.8546,-250.7762,175,75
2026-05-09 17:10:09.863,5,-0.45,0.19,-0.17,71.7278,76.5246,-250.7762,175,75
2026-05-09 17:10:09.863,5,-0.29,0.29,-0.13,14.9678,41.0546,-250.7762,175,75
2026-05-09 17:10:09.892,5,-0.13,0.35,-0.12,-41.602199999999996,4.0446,-250.7762,175,75
2026-05-09 17:10:09.892,5,0.12,0.34,-0.16,-94.1122,-25.0154,-250.7762,175,75
2026-05-09 17:10:09.914,5,0.37,0.16,-0.23,-125.1722,-29.915399999999998,-232.0862,175,75
2026-05-09 17:10:09.914,5,0.49,-0.01,-0.31,-126.9922,-13.1354,-196.1662,175,75
2026-05-09 17:10:09.927,5,0.48,-0.09,-0.36,-108.0822,14.944600000000001,-171.1662,175,75
2026-05-09 17:10:09.939,5,0.29,-0.0,-0.28,-81.4722,43.9846,-162.3762,175,75
2026-05-09 17:10:09.950,5,0.24,0.07,-0.13,-67.2222,63.03459999999999,-161.6362,175,75
2026-05-09 17:10:09.961,5,0.26,0.12,-0.01,-64.0222,71.8446,-150.2962,175,75
2026-05-09 17:10:09.961,5,0.42,0.22,0.16,-70.4922,64.75460000000001,-112.7162,175,75
2026-05-09 17:10:09.969,5,0.6,0.47,0.5,-73.0222,-78.1254,33.8538,175,75
2026-05-09 17:10:09.982,5,0.9,0.61,1.15,-55.8022,-252.1754,156.8038,175,75
2026-05-09 17:10:09.997,5,2.0,0.64,2.0,-116.9322,-57.2854,49.3138,175,75
2026-05-09 17:10:10.009,5,2.0,-0.2,2.0,-136.0522,248.09459999999999,28.053800000000003,175,75
2026-05-09 17:10:10.020,5,2.0,-0.72,2.0,-134.8922,248.09459999999999,85.5438,175,75
2026-05-09 17:10:10.032,5,1.88,-1.5,2.0,-117.6822,248.09459999999999,227.3538,175,75
2026-05-09 17:10:10.043,5,-1.37,-1.62,2.0,-31.982200000000002,248.09459999999999,249.4938,175,75
2026-05-09 17:10:10.054,5,-2.0,-1.55,1.64,45.2978,248.09459999999999,213.8738,175,75
2026-05-09 17:10:10.066,5,-2.0,-1.19,1.38,133.2978,43.1446,-195.2262,175,75
2026-05-09 17:10:10.077,5,-2.0,-0.65,1.9,175.3678,-144.5054,-250.7762,175,75
2026-05-09 17:10:10.098,5,-0.56,0.69,1.6,243.75779999999997,-252.1754,-250.7762,175,75
2026-05-09 17:10:10.106,5,0.02,0.93,1.44,250.99779999999998,-252.1754,-250.7762,175,75
2026-05-09 17:10:10.120,5,0.31,1.69,1.35,226.1378,-252.1754,-250.7762,175,75
2026-05-09 17:10:10.120,5,0.23,1.76,1.1,166.3278,-249.39540000000002,-250.7762,175,75
2026-05-09 17:10:10.131,5,0.4,1.63,0.94,99.76780000000001,-196.8554,-250.7762,175,75
2026-05-09 17:10:10.141,5,1.54,1.6,0.53,40.497800000000005,-128.8254,-250.7762,175,75
2026-05-09 17:10:10.159,5,1.82,1.54,0.07,-4.9522,-33.6754,-164.7562,175,75
2026-05-09 17:10:10.171,5,1.09,1.56,-0.02,-46.282199999999996,43.084599999999995,35.093799999999995,175,75
2026-05-09 17:10:10.184,5,0.51,1.4,-0.38,-80.6122,82.7646,165.4738,175,75
2026-05-09 17:10:10.184,5,0.22,0.99,-0.58,-85.4222,100.16460000000001,245.0638,175,75
2026-05-09 17:10:10.195,5,0.28,0.6,-0.62,-59.9122,109.30460000000001,249.4938,175,75
2026-05-09 17:10:10.212,5,0.67,0.29,-0.52,-10.6022,122.3846,249.4938,175,75
2026-05-09 17:10:10.212,5,0.79,0.34,-0.09,10.257800000000001,127.36460000000001,249.4938,175,75
2026-05-09 17:10:10.226,5,1.27,0.22,0.54,-7.762200000000001,101.94460000000001,249.4938,175,75
2026-05-09 17:10:10.243,5,0.92,0.11,1.76,-88.09219999999999,-34.135400000000004,249.4938,175,75
2026-05-09 17:10:10.254,5,1.43,-1.27,2.0,-33.8422,-135.08540000000002,249.4938,175,75
2026-05-09 17:10:10.264,5,1.2,-0.94,2.0,43.6278,96.4546,249.4938,175,75
2026-05-09 17:10:10.279,5,-0.26,-0.44,2.0,79.4678,248.09459999999999,140.53379999999999,175,75
2026-05-09 17:10:10.293,5,-1.2,-0.43,2.0,84.3178,248.09459999999999,-137.1762,175,75
2026-05-09 17:10:10.303,5,-1.92,-0.57,2.0,73.65780000000001,248.09459999999999,-250.7762,175,75
2026-05-09 17:10:10.303,5,-2.0,-0.57,2.0,74.4378,248.09459999999999,-250.7762,175,75
2026-05-09 17:10:10.313,5,-1.46,-0.02,2.0,96.8878,106.94460000000001,-250.7762,175,75
2026-05-09 17:10:10.321,5,-1.11,0.61,2.0,82.6478,-30.7954,-250.7762,175,75
2026-05-09 17:10:10.335,5,-1.25,0.61,2.0,41.997800000000005,-102.4554,-211.2662,175,75
2026-05-09 17:10:10.345,5,-1.12,0.49,2.0,17.7378,-154.0154,-94.9062,175,75
2026-05-09 17:10:10.354,5,-0.65,0.22,1.7,30.677799999999998,-199.7854,65.3738,175,75
2026-05-09 17:10:10.371,5,-0.19,0.22,1.52,47.9778,-227.33540000000002,222.5638,175,75
2026-05-09 17:10:10.371,5,0.17,0.34,1.42,40.287800000000004,-227.5954,249.4938,175,75
2026-05-09 17:10:10.382,5,0.66,0.2,1.18,17.337799999999998,-195.71540000000002,249.4938,175,75
2026-05-09 17:10:10.394,5,1.11,0.02,0.82,-0.7522000000000001,-150.1054,249.4938,175,75
2026-05-09 17:10:10.417,5,0.95,-0.14,0.6,-0.7821999999999999,-111.0754,249.4938,175,75
2026-05-09 17:10:10.417,5,0.63,-0.31,0.39,8.4278,-117.1254,249.4938,175,75
2026-05-09 17:10:10.427,5,0.54,-0.48,0.32,9.1278,-158.6654,249.4938,175,75
2026-05-09 17:10:10.440,5,1.11,-1.2,-0.42,-22.8522,-112.8254,249.4938,175,75
2026-05-09 17:10:10.450,5,0.38,-1.29,-0.67,-17.9222,-11.115400000000001,175.9938,175,75
2026-05-09 17:10:10.460,5,-0.38,-1.03,-0.61,11.3978,58.264599999999994,5.4138,175,75
2026-05-09 17:10:10.471,5,-0.85,-0.83,-0.61,43.397800000000004,73.9246,-131.3262,175,75
2026-05-09 17:10:10.482,5,-0.9,-0.63,-0.6,64.6978,55.124599999999994,-206.21620000000001,175,75
2026-05-09 17:10:10.491,5,-0.8,-0.15,-0.7,92.5678,22.5246,-250.7762,175,75
2026-05-09 17:10:10.502,5,-0.53,-0.26,-0.45,94.3078,-14.6954,-250.7762,175,75
2026-05-09 17:10:10.502,5,-0.31,-0.06,-0.43,74.1778,-46.5054,-240.2062,175,75
2026-05-09 17:10:10.513,5,-0.15,0.13,-0.41,38.5878,-70.1454,-219.8062,175,75
2026-05-09 17:10:10.529,5,0.07,0.28,-0.37,-10.152199999999999,-75.63539999999999,-201.8762,175,75
2026-05-09 17:10:10.530,5,0.28,0.34,-0.31,-63.48219999999999,-56.845400000000005,-189.9362,175,75
2026-05-09 17:10:10.567,5,0.39,-0.05,-0.29,-97.4722,33.794599999999996,-169.0062,175,75
2026-05-09 17:10:10.567,5,0.27,-0.13,-0.26,-78.76219999999999,75.0346,-161.1162,175,75
2026-05-09 17:10:10.578,5,0.2,-0.16,-0.25,-48.962199999999996,106.0446,-161.3862,175,75
2026-05-09 17:10:10.591,5,0.12,-0.09,-0.1,-23.002200000000002,124.1746,-154.3162,175,75
2026-05-09 17:10:10.605,5,0.11,0.08,0.03,-11.412199999999999,139.28459999999998,-159.8462,175,75
2026-05-09 17:10:10.605,5,0.26,0.22,0.21,-14.742199999999999,149.94459999999998,-158.9462,175,75
2026-05-09 17:10:10.617,5,0.81,0.6,0.94,-18.572200000000002,-79.4354,56.8838,175,75
2026-05-09 17:10:10.628,5,1.73,2.0,1.71,-38.7022,-252.1754,249.4938,175,75
2026-05-09 17:10:10.642,5,2.0,1.49,1.98,-93.7922,-252.1754,249.4938,175,75
2026-05-09 17:10:10.642,5,2.0,1.36,2.0,-188.6922,92.44460000000001,-59.3662,175,75
2026-05-09 17:10:10.653,5,1.37,0.8,1.81,-249.2722,248.09459999999999,-215.7762,175,75
2026-05-09 17:10:10.663,5,1.24,-0.31,1.28,-249.2722,248.09459999999999,-250.7762,175,75
2026-05-09 17:10:10.676,5,1.01,-0.44,0.83,-233.12220000000002,248.09459999999999,-20.036199999999997,175,75
2026-05-09 17:10:10.686,5,0.49,-0.47,1.2,-154.3322,248.09459999999999,249.4938,175,75
2026-05-09 17:10:10.700,5,-0.37,-0.2,1.52,-104.2822,248.09459999999999,249.4938,175,75
2026-05-09 17:10:10.700,5,-1.74,-0.36,1.72,-100.5022,248.09459999999999,249.4938,175,75
2026-05-09 17:10:10.711,5,-2.0,-0.73,2.0,-104.2922,148.9646,249.4938,175,75
2026-05-09 17:10:10.737,5,-2.0,-1.38,2.0,-66.5422,-184.7354,-66.9162,175,75
2026-05-09 17:10:10.765,5,-1.76,-1.07,2.0,-40.602199999999996,-206.18540000000002,-247.9462,175,75
2026-05-09 17:10:10.765,5,-1.24,-0.86,2.0,2.8878,-199.2954,-250.7762,175,75
2026-05-09 17:10:10.778,5,-0.52,-0.29,1.58,69.8578,-252.1754,-250.7762,175,75
2026-05-09 17:10:10.778,5,0.24,0.27,1.4,126.1878,-252.1754,-250.7762,175,75
2026-05-09 17:10:10.790,5,0.87,0.7,1.34,148.5878,-252.1754,-250.7762,175,75
2026-05-09 17:10:10.803,5,1.01,0.99,1.35,148.84779999999998,-252.1754,-250.7762,175,75
2026-05-09 17:10:10.803,5,1.13,1.15,1.39,128.93779999999998,-197.02540000000002,-250.7762,175,75
2026-05-09 17:10:10.819,5,1.34,0.92,1.44,106.4278,-92.0354,-199.5762,175,75
2026-05-09 17:10:10.837,5,0.8,0.67,1.4,95.7778,119.0446,34.013799999999996,175,75
2026-05-09 17:10:10.848,5,0.66,1.11,1.8,103.1478,150.91459999999998,203.8138,175,75
2026-05-09 17:10:10.859,5,0.68,1.44,2.0,86.5978,139.4546,249.4938,175,75
2026-05-09 17:10:10.870,5,0.74,1.64,2.0,46.787800000000004,147.75459999999998,249.4938,175,75
2026-05-09 17:10:10.880,5,0.99,1.44,2.0,2.2478,188.1446,249.4938,175,75
2026-05-09 17:10:10.890,5,0.93,1.06,2.0,-20.4022,248.09459999999999,249.4938,175,75
2026-05-09 17:10:10.898,5,0.12,2.0,2.0,-55.822199999999995,248.09459999999999,249.4938,175,75
2026-05-09 17:10:10.910,5,-2.0,0.55,2.0,-68.7422,166.3946,249.4938,175,75
2026-05-09 17:10:10.910,5,-2.0,-0.62,2.0,-55.602199999999996,21.0246,249.4938,175,75
2026-05-09 17:10:10.923,5,-2.0,-1.23,2.0,-16.2422,-81.7654,249.4938,175,75
2026-05-09 17:10:10.934,5,-2.0,-1.52,1.64,36.927800000000005,-159.1354,249.4938,175,75
2026-05-09 17:10:10.946,5,-2.0,-1.47,1.46,88.8078,-215.52540000000002,249.4938,175,75
2026-05-09 17:10:10.957,5,-1.76,-1.32,1.46,114.6878,-241.58540000000002,141.2138,175,75
2026-05-09 17:10:10.977,5,-0.43,-0.73,1.03,87.29780000000001,-252.1754,66.43379999999999,175,75
2026-05-09 17:10:10.988,5,0.48,-0.72,0.47,81.7878,-252.1754,75.7338,175,75
2026-05-09 17:10:10.999,5,1.93,-0.75,-0.18,102.2778,-252.1754,134.7338,175,75
2026-05-09 17:10:11.010,5,2.0,-1.39,-2.0,164.9478,-71.3154,198.7238,175,75
2026-05-09 17:10:11.010,5,2.0,-0.7,-2.0,250.99779999999998,211.10459999999998,249.4938,175,75
2026-05-09 17:10:11.021,5,0.12,-0.1,-1.48,250.99779999999998,197.10459999999998,249.4938,175,75
2026-05-09 17:10:11.040,5,-0.94,0.25,-0.94,250.99779999999998,95.2046,249.4938,175,75
2026-05-09 17:10:11.048,5,-1.69,0.31,-0.67,248.56779999999998,-61.8654,249.4938,175,75
2026-05-09 17:10:11.048,5,-2.0,0.37,-0.48,193.46779999999998,-231.6954,249.4938,175,75
2026-05-09 17:10:11.068,5,-1.7,0.42,-0.19,105.5278,-252.1754,178.2038,175,75
2026-05-09 17:10:11.080,5,-0.52,0.14,-0.02,21.607799999999997,-252.1754,126.4238,175,75
2026-05-09 17:10:11.103,5,0.67,-0.24,-0.2,-69.8922,-55.0054,83.5138,175,75
2026-05-09 17:10:11.113,5,0.33,-0.26,-0.43,-66.0322,82.1746,50.2138,175,75
2026-05-09 17:10:11.113,5,0.01,-0.21,-0.52,-44.352199999999996,171.5846,9.653799999999999,175,75
2026-05-09 17:10:11.165,5,0.31,0.13,0.2,4.9078,248.09459999999999,-41.3862,175,75
2026-05-09 17:10:11.165,5,0.73,0.11,0.42,14.4678,248.09459999999999,-14.6362,175,75
2026-05-09 17:10:11.182,5,0.79,0.72,1.18,-2.3422,177.75459999999998,249.4938,175,75
2026-05-09 17:10:11.216,5,-1.08,0.41,0.64,-2.1622,93.0446,249.4938,175,75
2026-05-09 17:10:11.239,5,-0.98,0.15,0.59,-28.592200000000002,14.724600000000002,216.9238,175,75
2026-05-09 17:10:11.250,5,-0.55,0.24,0.88,-38.792199999999994,-9.955400000000001,198.9538,175,75
2026-05-09 17:10:11.250,5,-0.01,0.5,1.29,-43.9722,-55.9454,230.7238,175,75
2026-05-09 17:10:11.298,5,0.92,0.2,1.19,69.0678,-62.305400000000006,249.4938,175,75
2026-05-09 17:10:11.313,5,0.83,0.05,0.93,85.6078,96.5146,249.4938,175,75
2026-05-09 17:10:11.324,5,1.02,-0.02,1.08,69.79780000000001,175.3046,249.4938,175,75
2026-05-09 17:10:11.343,5,1.02,0.01,1.08,37.397800000000004,248.09459999999999,249.4938,175,75
2026-05-09 17:10:11.344,5,0.41,0.08,1.8,6.2378,248.09459999999999,249.4938,175,75
2026-05-09 17:10:11.356,5,-0.73,-0.19,2.0,8.277800000000001,237.4246,249.4938,175,75
2026-05-09 17:10:11.369,5,-1.04,-0.3,2.0,15.837800000000001,207.7646,212.7638,175,75
