Time,ID,Ax,Ay,Az,Gx,Gy,Gz,Height,Weight
2026-05-07 18:24:24.595,5,-0.15,-0.07,1.06,7.9798,-2.6612,-18.5216,175,75
2026-05-07 18:24:24.607,5,-0.13,-0.07,1.06,8.3098,-2.1612,-18.711599999999997,175,75
2026-05-07 18:24:24.617,5,-0.13,-0.07,1.06,8.4098,-1.4811999999999999,-19.351599999999998,175,75
2026-05-07 18:24:24.634,5,-0.14,-0.06,1.06,8.5498,-0.45120000000000005,-20.1616,175,75
2026-05-07 18:24:24.654,5,-0.17,-0.0,1.09,8.319799999999999,1.9988000000000006,-21.441599999999998,175,75
2026-05-07 18:24:24.666,5,-0.18,0.02,1.1,7.2298,0.7088000000000001,-20.531599999999997,175,75
2026-05-07 18:24:24.666,5,-0.19,0.02,1.12,5.8598,-1.1611999999999998,-19.351599999999998,175,75
2026-05-07 18:24:24.677,5,-0.18,0.01,1.12,4.8798,-3.1712,-17.831599999999998,175,75
2026-05-07 18:24:24.686,5,-0.17,0.0,1.11,5.1498,-3.4412,-16.4316,175,75
2026-05-07 18:24:24.699,5,-0.17,-0.02,1.1,6.2798,-3.5711999999999997,-14.3916,175,75
2026-05-07 18:24:24.714,5,-0.17,-0.03,1.1,7.0698,-3.2412,-13.5516,175,75
2026-05-07 18:24:24.725,5,-0.18,-0.03,1.09,8.4098,-6.2912,-13.8916,175,75
2026-05-07 18:24:24.737,5,-0.17,-0.01,1.08,8.719800000000001,-8.1512,-14.5416,175,75
2026-05-07 18:24:24.748,5,-0.15,0.01,1.09,7.7898000000000005,-9.9512,-14.6916,175,75
2026-05-07 18:24:24.769,5,-0.12,0.01,1.1,3.3598,-9.5412,-14.7616,175,75
2026-05-07 18:24:24.783,5,-0.12,-0.01,1.09,1.4898,-8.3212,-14.9316,175,75
2026-05-07 18:24:24.786,5,-0.12,-0.04,1.1,0.8198000000000001,-6.7512,-15.1316,175,75
2026-05-07 18:24:24.800,5,-0.13,-0.06,1.12,0.25980000000000003,-7.401199999999999,-15.301599999999999,175,75
2026-05-07 18:24:24.807,5,-0.15,-0.1,1.13,1.1398000000000001,-10.5412,-16.321599999999997,175,75
2026-05-07 18:24:24.821,5,-0.15,-0.12,1.13,3.1197999999999997,-15.001199999999999,-17.6316,175,75
2026-05-07 18:24:24.833,5,-0.13,-0.13,1.13,5.2498000000000005,-19.581200000000003,-19.9516,175,75
2026-05-07 18:24:24.855,5,-0.09,-0.12,1.11,7.409800000000001,-28.0412,-23.6816,175,75
2026-05-07 18:24:24.855,5,-0.05,-0.1,1.08,6.5598,-30.8212,-25.481599999999997,175,75
2026-05-07 18:24:24.866,5,-0.0,-0.11,1.05,4.6798,-28.421200000000002,-26.641599999999997,175,75
2026-05-07 18:24:24.876,5,0.02,-0.12,1.05,3.3297999999999996,-22.0012,-27.801599999999997,175,75
2026-05-07 18:24:24.889,5,0.01,-0.15,1.04,2.5898000000000003,-15.4512,-30.9016,175,75
2026-05-07 18:24:24.900,5,-0.01,-0.19,1.04,3.1997999999999998,-11.4412,-36.3816,175,75
2026-05-07 18:24:24.910,5,-0.01,-0.23,1.03,5.2698,-8.2912,-42.3516,175,75
2026-05-07 18:24:24.923,5,-0.03,-0.25,1.03,7.5698,-5.4712,-48.3016,175,75
2026-05-07 18:24:24.934,5,-0.06,-0.26,1.02,9.719800000000001,-3.4212,-54.721599999999995,175,75
2026-05-07 18:24:24.934,5,-0.09,-0.28,0.99,11.3298,-3.4812,-60.2616,175,75
2026-05-07 18:24:24.974,5,-0.1,-0.22,0.94,10.559800000000001,1.2288000000000001,-76.7916,175,75
2026-05-07 18:24:24.974,5,-0.09,-0.23,0.94,10.1598,4.4488,-83.2616,175,75
2026-05-07 18:24:24.987,5,-0.07,-0.26,0.97,13.1998,8.1988,-88.3816,175,75
2026-05-07 18:24:24.998,5,-0.08,-0.28,1.0,19.619799999999998,13.638800000000002,-92.2916,175,75
2026-05-07 18:24:25.012,5,-0.13,-0.26,1.05,26.7398,17.0388,-96.39160000000001,175,75
2026-05-07 18:24:25.016,5,-0.18,-0.23,1.1,31.549799999999998,17.758799999999997,-99.3516,175,75
2026-05-07 18:24:25.030,5,-0.23,-0.19,1.14,35.8998,17.648799999999998,-102.5116,175,75
2026-05-07 18:24:25.040,5,-0.28,-0.14,1.21,37.9798,15.138800000000002,-104.0116,175,75
2026-05-07 18:24:25.067,5,-0.35,-0.07,1.3,39.169799999999995,-0.33119999999999994,-104.08160000000001,175,75
2026-05-07 18:24:25.067,5,-0.35,-0.05,1.29,38.949799999999996,-11.3612,-102.1216,175,75
2026-05-07 18:24:25.094,5,-0.34,-0.0,1.27,37.0698,-29.0212,-95.53160000000001,175,75
2026-05-07 18:24:25.104,5,-0.32,0.02,1.29,35.169799999999995,-38.321200000000005,-92.7616,175,75
2026-05-07 18:24:25.125,5,-0.27,0.01,1.11,44.2998,-58.431200000000004,-75.7916,175,75
2026-05-07 18:24:25.136,5,-0.23,0.06,1.13,48.9398,-61.3812,-76.0616,175,75
2026-05-07 18:24:25.148,5,-0.19,0.12,1.15,49.7198,-60.611200000000004,-77.28160000000001,175,75
2026-05-07 18:24:25.160,5,-0.13,0.15,1.14,47.629799999999996,-58.1212,-75.5216,175,75
2026-05-07 18:24:25.178,5,-0.09,0.2,1.12,43.129799999999996,-57.2712,-62.721599999999995,175,75
2026-05-07 18:24:25.191,5,-0.08,0.23,1.08,40.169799999999995,-58.1912,-59.1616,175,75
2026-05-07 18:24:25.202,5,-0.09,0.27,1.06,35.9798,-59.0412,-60.791599999999995,175,75
2026-05-07 18:24:25.208,5,-0.08,0.36,1.06,30.2598,-61.8912,-66.2416,175,75
2026-05-07 18:24:25.221,5,-0.02,0.36,1.01,22.2698,-66.0712,-70.58160000000001,175,75
2026-05-07 18:24:25.234,5,0.07,0.37,0.96,15.8798,-68.9312,-69.1616,175,75
2026-05-07 18:24:25.246,5,0.13,0.35,0.9,8.319799999999999,-66.60119999999999,-64.00160000000001,175,75
2026-05-07 18:24:25.247,5,0.21,0.31,0.86,2.2498,-56.5912,-59.3516,175,75
2026-05-07 18:24:25.268,5,0.32,0.21,0.8,6.2498000000000005,-20.101200000000002,-46.971599999999995,175,75
2026-05-07 18:24:25.279,5,0.35,0.19,0.86,9.979800000000001,4.168800000000001,-36.221599999999995,175,75
2026-05-07 18:24:25.305,5,0.16,0.14,0.92,3.1197999999999997,47.3288,-29.941599999999998,175,75
2026-05-07 18:24:25.305,5,0.05,0.11,0.94,-0.49019999999999997,63.5188,-37.541599999999995,175,75
2026-05-07 18:24:25.315,5,-0.05,0.1,0.97,-3.8902,74.8088,-45.471599999999995,175,75
2026-05-07 18:24:25.326,5,-0.13,0.1,0.99,-8.280199999999999,81.47879999999999,-50.3116,175,75
2026-05-07 18:24:25.336,5,-0.2,0.1,0.99,-12.9902,84.5488,-52.9616,175,75
2026-05-07 18:24:25.348,5,-0.36,0.1,0.97,-17.610200000000003,81.83879999999999,-55.3716,175,75
2026-05-07 18:24:25.367,5,-0.52,0.13,0.99,-21.430200000000003,70.5788,-68.33160000000001,175,75
2026-05-07 18:24:25.367,5,-0.56,0.16,1.04,-19.9902,53.2888,-85.0216,175,75
2026-05-07 18:24:25.388,5,-0.36,0.27,1.26,-3.7001999999999997,14.4288,-88.05160000000001,175,75
2026-05-07 18:24:25.401,5,-0.3,0.29,1.31,-1.3002,4.9588,-68.8416,175,75
2026-05-07 18:24:25.416,5,-0.34,0.19,1.29,-4.4502,-4.3512,-30.2516,175,75
2026-05-07 18:24:25.429,5,-0.33,0.12,1.29,-2.6902,-10.9312,-18.2916,175,75
2026-05-07 18:24:25.454,5,-0.26,0.06,1.29,9.3298,-20.3712,-11.6516,175,75
2026-05-07 18:24:25.454,5,-0.22,0.07,1.26,16.3898,-23.281200000000002,-12.6016,175,75
2026-05-07 18:24:25.476,5,-0.16,0.14,1.2,16.8798,-29.4312,-20.511599999999998,175,75
2026-05-07 18:24:25.494,5,-0.11,0.16,1.17,13.059800000000001,-31.1612,-24.7016,175,75
2026-05-07 18:24:25.494,5,-0.08,0.14,1.12,8.4098,-28.0412,-27.691599999999998,175,75
2026-05-07 18:24:25.508,5,-0.12,0.11,1.04,5.2598,-23.831200000000003,-31.971599999999995,175,75
2026-05-07 18:24:25.517,5,-0.17,0.09,0.97,6.3998,-25.6412,-37.8516,175,75
2026-05-07 18:24:25.528,5,-0.17,0.11,0.95,8.1698,-31.7712,-43.9216,175,75
2026-05-07 18:24:25.538,5,-0.14,0.13,0.96,6.5298,-37.3312,-45.9116,175,75
2026-05-07 18:24:25.580,5,0.07,0.19,0.93,2.8498,-40.001200000000004,-53.6916,175,75
2026-05-07 18:24:25.596,5,0.11,0.21,0.93,3.9798,-31.8412,-52.3516,175,75
2026-05-07 18:24:25.597,5,0.08,0.19,0.88,5.949800000000001,-18.9712,-53.611599999999996,175,75
2026-05-07 18:24:25.606,5,0.0,0.18,0.82,9.7898,-7.3512,-57.7816,175,75
2026-05-07 18:24:25.634,5,-0.07,0.26,0.86,16.7698,-1.6411999999999998,-63.8816,175,75
2026-05-07 18:24:25.635,5,-0.04,0.31,0.91,12.9098,-1.7611999999999999,-62.9416,175,75
2026-05-07 18:24:25.652,5,-0.02,0.35,0.96,7.0098,-0.7611999999999997,-59.4516,175,75
2026-05-07 18:24:25.665,5,-0.01,0.36,0.98,2.3898,0.6488,-52.9216,175,75
2026-05-07 18:24:25.694,5,-0.07,0.3,0.93,2.6898,-6.0312,-15.8316,175,75
2026-05-07 18:24:25.704,5,-0.12,0.27,0.88,3.9598000000000004,-13.101199999999999,1.9184,175,75
2026-05-07 18:24:25.704,5,-0.12,0.28,0.87,4.949800000000001,-21.3012,13.6084,175,75
2026-05-07 18:24:25.728,5,-0.01,0.29,0.87,1.6298000000000001,-20.8712,24.1584,175,75
2026-05-07 18:24:25.752,5,0.02,0.31,0.88,-2.3701999999999996,-3.3411999999999997,22.108400000000003,175,75
2026-05-07 18:24:25.771,5,-0.08,0.23,0.84,-8.0002,13.4188,15.3584,175,75
2026-05-07 18:24:25.784,5,-0.12,0.19,0.81,-8.7502,13.748800000000001,17.198400000000003,175,75
2026-05-07 18:24:25.784,5,-0.15,0.2,0.81,-8.4302,6.678800000000001,20.428400000000003,175,75
2026-05-07 18:24:25.795,5,-0.15,0.21,0.82,-10.0802,-2.9911999999999996,22.418400000000002,175,75
2026-05-07 18:24:25.805,5,-0.17,0.23,0.8,-13.440199999999999,-10.4012,18.018400000000003,175,75
2026-05-07 18:24:25.824,5,-0.13,0.23,0.81,-13.6602,-16.0712,10.1384,175,75
2026-05-07 18:24:25.836,5,0.05,0.25,0.9,-26.1202,-10.1512,16.1084,175,75
2026-05-07 18:24:25.847,5,0.05,0.18,0.89,-35.0402,2.2887999999999997,30.0484,175,75
2026-05-07 18:24:25.860,5,-0.0,0.13,0.87,-38.8902,13.6488,46.4184,175,75
2026-05-07 18:24:25.875,5,-0.07,0.11,0.88,-39.3402,21.6888,58.4184,175,75
2026-05-07 18:24:25.883,5,-0.13,0.14,0.97,-38.9302,25.6288,61.4484,175,75
2026-05-07 18:24:25.898,5,-0.15,0.19,1.07,-40.0002,23.738799999999998,56.5784,175,75
2026-05-07 18:24:25.909,5,-0.14,0.23,1.19,-42.5402,16.6588,49.1184,175,75
2026-05-07 18:24:25.909,5,-0.18,0.23,1.24,-46.6102,10.578800000000001,35.318400000000004,175,75
2026-05-07 18:24:25.919,5,-0.29,0.18,1.18,-47.4202,8.998800000000001,11.8684,175,75
2026-05-07 18:24:25.931,5,-0.51,0.19,1.04,-43.1402,4.838800000000001,-24.2716,175,75
2026-05-07 18:24:25.944,5,-0.66,0.29,0.95,-34.6702,-8.3512,-76.5916,175,75
2026-05-07 18:24:25.954,5,-0.62,0.4,0.92,-22.090200000000003,-37.5312,-123.5716,175,75
2026-05-07 18:24:25.954,5,-0.49,0.6,0.92,-15.2002,-74.0812,-138.48160000000001,175,75
2026-05-07 18:24:25.968,5,-0.1,0.55,1.03,-6.5702,-119.4512,-118.17160000000001,175,75
2026-05-07 18:24:25.979,5,1.26,0.64,1.6,-22.000200000000003,-221.8012,83.8384,175,75
2026-05-07 18:24:25.994,5,1.18,0.19,1.23,-46.3402,-221.0312,250.8884,175,75
2026-05-07 18:24:25.994,5,1.14,-0.19,0.98,-43.050200000000004,-115.1112,250.8884,175,75
2026-05-07 18:24:26.007,5,1.05,0.61,0.94,-34.6402,-4.2412,250.8884,175,75
2026-05-07 18:24:26.016,5,0.56,-0.26,0.56,-16.1702,71.5688,250.8884,175,75
2026-05-07 18:24:26.027,5,-0.24,0.07,0.58,-4.2501999999999995,127.3888,250.8884,175,75
2026-05-07 18:24:26.054,5,-1.45,0.36,0.93,8.4598,182.5288,88.9084,175,75
2026-05-07 18:24:26.054,5,-1.07,0.28,1.43,34.4698,129.7188,-160.6316,175,75
2026-05-07 18:24:26.065,5,-0.12,0.34,1.75,26.5598,108.5188,-249.3816,175,75
2026-05-07 18:24:26.076,5,0.43,0.4,1.97,-5.3302,61.0088,-175.2216,175,75
2026-05-07 18:24:26.088,5,0.3,0.28,1.68,-24.720200000000002,23.6588,-37.541599999999995,175,75
2026-05-07 18:24:26.100,5,-0.03,0.11,1.39,-24.2802,46.9388,44.2384,175,75
2026-05-07 18:24:26.106,5,-0.22,0.09,1.3,-23.310200000000002,67.1288,110.2984,175,75
2026-05-07 18:24:26.122,5,-0.47,0.16,1.28,-37.2802,51.248799999999996,193.7784,175,75
2026-05-07 18:24:26.133,5,-0.71,0.14,1.22,-58.1102,11.2888,250.8884,175,75
2026-05-07 18:24:26.144,5,-0.69,-0.03,1.14,-73.8502,-27.581200000000003,250.8884,175,75
2026-05-07 18:24:26.154,5,-0.53,-0.18,1.13,-80.0702,-59.251200000000004,250.8884,175,75
2026-05-07 18:24:26.155,5,-0.45,-0.28,1.22,-77.9602,-94.7512,250.8884,175,75
2026-05-07 18:24:26.166,5,-0.55,-0.37,1.4,-75.5002,-150.2712,250.8884,175,75
2026-05-07 18:24:26.182,5,-0.39,-0.5,1.44,-74.3002,-191.1312,250.8884,175,75
2026-05-07 18:24:26.194,5,-0.14,-0.63,1.29,-64.3702,-177.6112,250.8884,175,75
2026-05-07 18:24:26.204,5,-0.09,-0.66,1.1,-42.6502,-128.9312,206.23839999999998,175,75
2026-05-07 18:24:26.204,5,-0.12,-0.59,0.94,-16.5102,-81.3812,109.27839999999999,175,75
2026-05-07 18:24:26.227,5,0.06,-0.26,0.87,17.3798,-16.9612,-53.901599999999995,175,75
2026-05-07 18:24:26.238,5,0.18,-0.09,0.9,22.9898,9.418800000000001,-101.22160000000001,175,75
2026-05-07 18:24:26.251,5,0.27,0.02,0.93,23.589799999999997,34.0288,-122.8816,175,75
2026-05-07 18:24:26.262,5,0.34,0.08,0.97,20.7598,53.6288,-116.28160000000001,175,75
2026-05-07 18:24:26.273,5,0.37,0.11,1.02,15.6798,64.8488,-80.58160000000001,175,75
2026-05-07 18:24:26.286,5,0.35,0.14,1.1,8.1098,64.2788,-18.8416,175,75
2026-05-07 18:24:26.286,5,0.28,0.19,1.18,-3.3701999999999996,56.6088,58.2884,175,75
2026-05-07 18:24:26.297,5,0.12,0.18,1.2,-20.770200000000003,60.4788,124.0384,175,75
2026-05-07 18:24:26.310,5,-0.04,0.09,1.15,-32.8102,70.7388,168.6984,175,75
2026-05-07 18:24:26.320,5,-0.19,0.0,1.13,-36.9102,71.2788,206.42839999999998,175,75
2026-05-07 18:24:26.331,5,-0.34,-0.03,1.2,-36.7102,54.0588,232.0084,175,75
2026-05-07 18:24:26.334,5,-0.49,-0.06,1.32,-37.0402,20.7688,233.5384,175,75
2026-05-07 18:24:26.347,5,-0.55,-0.15,1.34,-36.8402,-13.251199999999999,208.8184,175,75
2026-05-07 18:24:26.362,5,-0.52,-0.27,1.26,-31.6702,-32.9612,169.9684,175,75
2026-05-07 18:24:26.374,5,-0.46,-0.34,1.14,-20.8302,-44.071200000000005,133.0684,175,75
2026-05-07 18:24:26.374,5,-0.32,-0.31,1.09,-9.2002,-51.7412,105.4084,175,75
2026-05-07 18:24:26.385,5,-0.15,-0.23,1.08,-2.8602,-54.111200000000004,87.9084,175,75
2026-05-07 18:24:26.398,5,-0.0,-0.14,1.07,-0.9101999999999999,-49.4512,76.2084,175,75
2026-05-07 18:24:26.425,5,0.15,-0.06,1.02,-0.2902,-22.2912,74.8684,175,75
2026-05-07 18:24:26.436,5,0.1,-0.01,1.04,-5.090199999999999,8.5588,96.4884,175,75
2026-05-07 18:24:26.453,5,0.05,-0.02,1.09,-9.9502,16.7788,109.19839999999999,175,75
2026-05-07 18:24:26.465,5,-0.02,-0.05,1.12,-15.0402,19.9788,121.02839999999999,175,75
2026-05-07 18:24:26.465,5,-0.1,-0.1,1.14,-18.540200000000002,21.848799999999997,127.1184,175,75
2026-05-07 18:24:26.476,5,-0.18,-0.14,1.14,-20.310200000000002,19.4788,127.6184,175,75
2026-05-07 18:24:26.488,5,-0.24,-0.18,1.15,-20.9202,13.278800000000002,124.1784,175,75
2026-05-07 18:24:26.534,5,-0.27,-0.22,1.12,-15.7602,-11.181199999999999,90.07839999999999,175,75
2026-05-07 18:24:26.544,5,-0.16,-0.16,1.09,-9.3802,-15.9412,72.0684,175,75
2026-05-07 18:24:26.555,5,-0.11,-0.13,1.07,-8.440199999999999,-14.6612,71.02839999999999,175,75
2026-05-07 18:24:26.567,5,-0.07,-0.12,1.05,-8.4902,-11.021199999999999,76.3184,175,75
2026-05-07 18:24:26.567,5,-0.05,-0.12,1.04,-9.6402,-6.6712,85.4384,175,75
2026-05-07 18:24:26.589,5,-0.09,-0.12,1.04,-13.8102,2.2388,98.1784,175,75
2026-05-07 18:24:26.605,5,-0.12,-0.15,1.02,-14.6002,7.6088000000000005,99.02839999999999,175,75
2026-05-07 18:24:26.613,5,-0.15,-0.18,1.03,-13.9902,11.148800000000001,98.8684,175,75
2026-05-07 18:24:26.625,5,-0.19,-0.23,1.07,-12.4802,11.238800000000001,93.9084,175,75
2026-05-07 18:24:26.645,5,-0.21,-0.24,1.08,-11.9902,10.2588,87.1484,175,75
2026-05-07 18:24:26.659,5,-0.24,-0.24,1.08,-10.530199999999999,9.478800000000001,75.2584,175,75
2026-05-07 18:24:26.670,5,-0.25,-0.22,1.08,-7.9702,8.6088,61.0184,175,75
2026-05-07 18:24:26.685,5,-0.25,-0.2,1.08,-5.9302,7.578800000000001,48.6984,175,75
2026-05-07 18:24:26.685,5,-0.23,-0.16,1.09,-4.6602,5.8688,39.4384,175,75
2026-05-07 18:24:26.723,5,-0.13,-0.08,1.07,-5.0602,-8.501199999999999,49.7384,175,75
2026-05-07 18:24:26.741,5,-0.1,-0.06,1.09,-4.760199999999999,-9.2112,64.0484,175,75
2026-05-07 18:24:26.754,5,-0.12,-0.05,1.1,-6.6802,-9.2212,65.7884,175,75
2026-05-07 18:24:26.765,5,-0.13,-0.05,1.07,-7.510199999999999,-8.9212,65.0084,175,75
2026-05-07 18:24:26.765,5,-0.13,-0.07,1.06,-7.510199999999999,-9.8012,64.77839999999999,175,75
2026-05-07 18:24:26.784,5,-0.12,-0.08,1.05,-6.510199999999999,-10.6112,66.4084,175,75
2026-05-07 18:24:26.787,5,-0.1,-0.09,1.05,-6.1102,-9.7112,69.24839999999999,175,75
2026-05-07 18:24:26.804,5,-0.09,-0.1,1.04,-5.340199999999999,-7.8712,72.21839999999999,175,75
2026-05-07 18:24:26.806,5,-0.1,-0.1,1.05,-4.630199999999999,-5.4712,73.1184,175,75
2026-05-07 18:24:26.834,5,-0.14,-0.1,1.05,-5.0602,-0.3712,65.6784,175,75
2026-05-07 18:24:26.844,5,-0.15,-0.09,1.06,-5.9402,1.0288,59.6284,175,75
2026-05-07 18:24:26.844,5,-0.15,-0.09,1.07,-7.510199999999999,0.8588,56.0884,175,75
2026-05-07 18:24:26.859,5,-0.15,-0.08,1.07,-8.4602,-0.26119999999999965,53.9384,175,75
2026-05-07 18:24:26.872,5,-0.15,-0.08,1.08,-8.9502,-2.2112,54.1984,175,75
2026-05-07 18:24:26.883,5,-0.14,-0.09,1.07,-8.5702,-5.0512,56.9084,175,75
2026-05-07 18:24:26.894,5,-0.15,-0.09,1.06,-6.8302,-6.901199999999999,58.9084,175,75
2026-05-07 18:24:26.894,5,-0.16,-0.08,1.07,-5.1802,-8.3212,58.5784,175,75
2026-05-07 18:24:26.913,5,-0.16,-0.06,1.07,-3.5602,-11.251199999999999,57.1184,175,75
2026-05-07 18:24:26.935,5,-0.16,-0.06,1.06,-2.2802,-12.7312,54.8384,175,75
2026-05-07 18:24:26.935,5,-0.14,-0.05,1.05,-2.3802000000000003,-14.421199999999999,54.7284,175,75
2026-05-07 18:24:26.945,5,-0.11,-0.07,1.03,-3.0702,-15.2012,59.458400000000005,175,75
2026-05-07 18:24:26.957,5,-0.08,-0.09,1.02,-4.3102,-15.8012,67.9084,175,75
2026-05-07 18:24:26.976,5,-0.1,-0.11,1.06,-11.8302,-11.5412,80.6184,175,75
2026-05-07 18:24:27.000,5,-0.15,-0.14,1.07,-14.8202,-10.5112,70.30839999999999,175,75
2026-05-07 18:24:27.014,5,-0.17,-0.15,1.05,-15.0502,-10.8812,63.7684,175,75
2026-05-07 18:24:27.018,5,-0.16,-0.15,1.05,-15.4202,-12.7412,60.5784,175,75
2026-05-07 18:24:27.033,5,-0.14,-0.15,1.06,-15.3002,-14.3212,62.3384,175,75
2026-05-07 18:24:27.064,5,-0.1,-0.21,1.08,-11.7602,-17.5812,63.1284,175,75
2026-05-07 18:24:27.087,5,-0.07,-0.25,1.09,-7.8202,-16.5212,62.318400000000004,175,75
2026-05-07 18:24:27.102,5,-0.06,-0.28,1.09,-3.8102,-13.5412,63.9484,175,75
2026-05-07 18:24:27.115,5,-0.16,-0.27,1.13,-0.36019999999999996,-12.1912,61.7384,175,75
2026-05-07 18:24:27.115,5,-0.22,-0.24,1.13,-2.3802000000000003,-16.781200000000002,48.9384,175,75
2026-05-07 18:24:27.135,5,-0.22,-0.22,1.13,-4.3602,-22.6612,30.7584,175,75
2026-05-07 18:24:27.135,5,-0.18,-0.19,1.11,-3.1502,-26.3812,11.5384,175,75
2026-05-07 18:24:27.155,5,-0.11,-0.15,1.12,-0.3802,-27.8712,-1.9716,175,75
2026-05-07 18:24:27.165,5,-0.05,-0.1,1.1,2.7298,-28.781200000000002,-8.8216,175,75
2026-05-07 18:24:27.165,5,-0.0,-0.06,1.1,4.0698,-27.401200000000003,-8.1516,175,75
2026-05-07 18:24:27.184,5,0.03,-0.05,1.1,3.2698,-26.151200000000003,1.5084,175,75
2026-05-07 18:24:27.184,5,0.05,-0.04,1.1,2.1298000000000004,-25.6212,16.8684,175,75
2026-05-07 18:24:27.199,5,0.05,-0.04,1.09,-0.3802,-24.6412,33.9684,175,75
2026-05-07 18:24:27.210,5,0.03,-0.06,1.08,-2.9302,-24.0712,46.2884,175,75
2026-05-07 18:24:27.223,5,-0.01,-0.08,1.05,-4.9302,-22.6612,53.3784,175,75
2026-05-07 18:24:27.237,5,-0.03,-0.12,1.04,-5.3702,-21.5712,56.7584,175,75
2026-05-07 18:24:27.237,5,-0.05,-0.15,1.03,-5.8502,-24.2212,59.6284,175,75
2026-05-07 18:24:27.274,5,-0.08,-0.17,0.99,-5.9002,-33.0712,36.708400000000005,175,75
2026-05-07 18:24:27.284,5,-0.04,-0.16,0.97,-3.6701999999999995,-30.2712,24.7484,175,75
2026-05-07 18:24:27.284,5,0.0,-0.16,0.97,-1.3402,-27.421200000000002,18.1584,175,75
2026-05-07 18:24:27.298,5,0.03,-0.13,0.97,-0.10019999999999996,-24.0412,15.2784,175,75
2026-05-07 18:24:27.310,5,0.05,-0.09,0.99,-1.2102,-20.4812,14.0584,175,75
2026-05-07 18:24:27.324,5,0.07,-0.07,1.0,-2.4202000000000004,-16.4612,14.8384,175,75
2026-05-07 18:24:27.326,5,0.08,-0.06,1.0,-1.8701999999999999,-11.5312,16.7084,175,75
2026-05-07 18:24:27.343,5,0.07,-0.05,1.0,-1.2802,-6.5412,20.6184,175,75
2026-05-07 18:24:27.354,5,0.06,-0.05,1.01,-1.2402,-3.8912,26.0984,175,75
2026-05-07 18:24:27.354,5,0.04,-0.05,1.02,-2.2202,-1.5912,32.4184,175,75
2026-05-07 18:24:27.371,5,0.02,-0.06,1.03,-3.9901999999999997,0.3288000000000002,39.0084,175,75
2026-05-07 18:24:27.385,5,0.0,-0.09,1.03,-6.2501999999999995,1.1587999999999998,45.1084,175,75
2026-05-07 18:24:27.385,5,-0.02,-0.12,1.03,-7.3602,0.8788,48.348400000000005,175,75
2026-05-07 18:24:27.402,5,-0.04,-0.14,1.05,-7.6402,-0.05119999999999969,47.138400000000004,175,75
2026-05-07 18:24:27.415,5,-0.05,-0.15,1.04,-7.850199999999999,-1.4411999999999998,42.5584,175,75
2026-05-07 18:24:27.428,5,-0.05,-0.17,1.04,-7.1602,-1.9011999999999998,37.1484,175,75
2026-05-07 18:24:27.428,5,-0.05,-0.18,1.03,-5.8902,-1.5712,31.8384,175,75
2026-05-07 18:24:27.439,5,-0.05,-0.18,1.04,-3.8902,-1.9011999999999998,25.2284,175,75
2026-05-07 18:24:27.452,5,-0.04,-0.15,1.04,-3.2302,-1.6111999999999997,18.488400000000002,175,75
2026-05-07 18:24:27.462,5,-0.02,-0.13,1.04,-3.3902,-0.8512,12.2384,175,75
2026-05-07 18:24:27.486,5,0.03,-0.11,1.02,-3.9802,3.1388000000000003,11.5084,175,75
2026-05-07 18:24:27.502,5,0.03,-0.1,1.01,-4.0302,6.2888,16.2884,175,75
2026-05-07 18:24:27.515,5,0.03,-0.09,1.07,-5.2402,13.0388,25.3684,175,75
2026-05-07 18:24:27.527,5,0.02,-0.11,1.07,-6.8502,12.4688,31.4984,175,75
2026-05-07 18:24:27.532,5,-0.03,-0.13,1.06,-6.4102,12.818800000000001,34.458400000000005,175,75
2026-05-07 18:24:27.554,5,-0.06,-0.19,1.06,-5.1902,4.998800000000001,36.6584,175,75
2026-05-07 18:24:27.554,5,-0.07,-0.2,1.08,-4.1802,1.4288000000000003,32.9784,175,75
2026-05-07 18:24:27.574,5,-0.09,-0.21,1.07,-2.9901999999999997,-0.9712000000000001,25.698400000000003,175,75
2026-05-07 18:24:27.578,5,-0.09,-0.22,1.06,-1.7901999999999998,-2.0911999999999997,16.1984,175,75
2026-05-07 18:24:27.594,5,-0.08,-0.2,1.05,-0.9401999999999999,-2.9012,7.0684,175,75
2026-05-07 18:24:27.597,5,-0.05,-0.19,1.05,-0.1402,-2.8712,-1.1715999999999998,175,75
2026-05-07 18:24:27.609,5,-0.03,-0.17,1.06,-0.040200000000000014,-0.8712,-7.961600000000001,175,75
2026-05-07 18:24:27.629,5,0.01,-0.14,1.06,-0.11019999999999996,4.6488,-10.6816,175,75
2026-05-07 18:24:27.651,5,0.01,-0.17,1.08,-2.4402,5.5488,4.2884,175,75
2026-05-07 18:24:27.668,5,-0.0,-0.2,1.09,-4.6602,12.2188,9.1584,175,75
2026-05-07 18:24:27.694,5,-0.08,-0.2,1.11,-0.7802,19.168799999999997,-4.9716000000000005,175,75
2026-05-07 18:24:27.709,5,-0.08,-0.18,1.14,3.8198,16.3688,-26.211599999999997,175,75
2026-05-07 18:24:27.724,5,-0.07,-0.16,1.14,4.7298,15.8088,-30.011599999999998,175,75
2026-05-07 18:24:27.735,5,-0.07,-0.14,1.15,4.8198,13.8288,-29.8116,175,75
2026-05-07 18:24:27.735,5,-0.03,-0.13,1.16,4.0098,11.1188,-26.191599999999998,175,75
2026-05-07 18:24:27.757,5,-0.01,-0.13,1.17,1.1198000000000001,11.8888,-12.6316,175,75
2026-05-07 18:24:27.804,5,-0.1,-0.12,1.18,2.3198,16.418799999999997,-18.511599999999998,175,75
2026-05-07 18:24:27.814,5,-0.09,-0.12,1.19,2.4898,17.2088,-23.691599999999998,175,75
2026-05-07 18:24:27.824,5,-0.08,-0.1,1.21,1.9798,17.5888,-24.551599999999997,175,75
2026-05-07 18:24:27.835,5,-0.06,-0.11,1.23,0.6598,17.738799999999998,-20.9716,175,75
2026-05-07 18:24:27.835,5,-0.08,-0.11,1.22,-0.12019999999999997,17.008799999999997,-15.701600000000001,175,75
2026-05-07 18:24:27.846,5,-0.09,-0.11,1.21,-0.3802,16.7488,-10.2616,175,75
2026-05-07 18:24:27.863,5,-0.11,-0.12,1.2,-0.7302,17.1288,-4.0016,175,75
2026-05-07 18:24:27.875,5,-0.12,-0.13,1.22,-1.0902,16.3388,1.4584000000000001,175,75
2026-05-07 18:24:27.887,5,-0.15,-0.14,1.23,-1.9102,15.778800000000002,3.5183999999999997,175,75
2026-05-07 18:24:27.887,5,-0.16,-0.15,1.24,-2.1702000000000004,15.5388,2.0684,175,75
2026-05-07 18:24:27.898,5,-0.19,-0.14,1.26,-2.0602,14.098799999999999,-2.7916,175,75
2026-05-07 18:24:27.911,5,-0.19,-0.14,1.26,-1.5401999999999998,10.908800000000001,-8.7416,175,75
2026-05-07 18:24:27.925,5,-0.18,-0.14,1.25,-1.0502,7.6988,-10.3016,175,75
2026-05-07 18:24:27.925,5,-0.17,-0.14,1.23,-1.1201999999999999,4.4887999999999995,-6.9716000000000005,175,75
2026-05-07 18:24:27.954,5,-0.18,-0.13,1.18,-3.8401999999999994,-2.1612,1.3384,175,75
2026-05-07 18:24:27.956,5,-0.15,-0.13,1.18,-4.1202,-4.4912,1.3884,175,75
2026-05-07 18:24:27.984,5,-0.11,-0.12,1.17,-4.2702,1.9688000000000003,-4.9916,175,75
2026-05-07 18:24:27.984,5,-0.1,-0.1,1.17,-4.800199999999999,5.768800000000001,-6.4416,175,75
2026-05-07 18:24:27.997,5,-0.08,-0.1,1.17,-7.1402,7.898800000000001,-3.0716,175,75
2026-05-07 18:24:28.007,5,-0.07,-0.11,1.18,-9.1302,8.908800000000001,2.6284,175,75
2026-05-07 18:24:28.019,5,-0.09,-0.13,1.15,-10.030199999999999,9.7088,8.6084,175,75
2026-05-07 18:24:28.031,5,-0.12,-0.15,1.13,-9.4702,9.328800000000001,12.2084,175,75
2026-05-07 18:24:28.044,5,-0.14,-0.17,1.12,-7.8702000000000005,8.6188,12.5984,175,75
2026-05-07 18:24:28.055,5,-0.16,-0.18,1.11,-4.9902,7.068800000000001,9.5084,175,75
2026-05-07 18:24:28.055,5,-0.17,-0.17,1.1,-2.1402,6.568800000000001,3.2683999999999997,175,75
2026-05-07 18:24:28.067,5,-0.18,-0.15,1.08,0.9798,7.818800000000001,-5.1316,175,75
2026-05-07 18:24:28.080,5,-0.18,-0.11,1.1,2.5598,7.1088000000000005,-12.1416,175,75
2026-05-07 18:24:28.098,5,-0.15,-0.06,1.12,2.0298,4.5488,-16.0616,175,75
2026-05-07 18:24:28.112,5,-0.1,-0.02,1.12,-1.7102000000000002,-1.0412,-12.3316,175,75
2026-05-07 18:24:28.125,5,-0.07,-0.02,1.11,-3.9702,-3.2211999999999996,-4.0916,175,75
2026-05-07 18:24:28.139,5,-0.05,-0.07,1.04,-8.5602,-5.0212,18.628400000000003,175,75
2026-05-07 18:24:28.148,5,-0.06,-0.1,1.03,-10.6702,-4.0012,26.9084,175,75
2026-05-07 18:24:28.161,5,-0.06,-0.13,1.01,-11.530199999999999,-2.2512,29.8484,175,75
2026-05-07 18:24:28.177,5,-0.07,-0.18,1.0,-9.4002,6.598800000000001,24.8484,175,75
2026-05-07 18:24:28.195,5,-0.1,-0.18,1.01,-6.7702,11.8388,17.3884,175,75
2026-05-07 18:24:28.195,5,-0.11,-0.17,1.04,-5.0602,16.0388,8.9684,175,75
2026-05-07 18:24:28.206,5,-0.11,-0.16,1.05,-4.0602,18.7788,3.9884,175,75
2026-05-07 18:24:28.219,5,-0.12,-0.15,1.07,-3.4402,19.9588,2.9684,175,75
2026-05-07 18:24:28.233,5,-0.15,-0.13,1.08,-3.3202,20.258799999999997,3.0183999999999997,175,75
2026-05-07 18:24:28.240,5,-0.18,-0.11,1.1,-4.5602,18.6788,2.1184000000000003,175,75
2026-05-07 18:24:28.252,5,-0.2,-0.11,1.11,-6.380199999999999,15.888800000000002,1.0084,175,75
2026-05-07 18:24:28.264,5,-0.19,-0.11,1.12,-8.6402,12.2588,1.2784,175,75
2026-05-07 18:24:28.285,5,-0.17,-0.13,1.12,-11.3102,8.5888,7.5784,175,75
2026-05-07 18:24:28.304,5,-0.19,-0.17,1.09,-10.8502,5.098800000000001,8.9984,175,75
2026-05-07 18:24:28.304,5,-0.18,-0.19,1.08,-9.3402,4.2288,8.2984,175,75
2026-05-07 18:24:28.327,5,-0.16,-0.21,1.06,-5.590199999999999,6.348800000000001,6.2284,175,75
2026-05-07 18:24:28.338,5,-0.16,-0.2,1.08,-3.5901999999999994,8.7888,2.9184,175,75
2026-05-07 18:24:28.353,5,-0.15,-0.18,1.1,-2.5001999999999995,11.9288,-2.2716,175,75
2026-05-07 18:24:28.376,5,-0.19,-0.13,1.1,-1.1002,16.1388,-13.701600000000001,175,75
2026-05-07 18:24:28.376,5,-0.2,-0.1,1.09,-1.2802,15.2688,-15.8316,175,75
2026-05-07 18:24:28.388,5,-0.2,-0.09,1.08,-1.4702,12.9388,-13.3416,175,75
2026-05-07 18:24:28.399,5,-0.18,-0.08,1.08,-1.6401999999999999,8.3388,-6.4616,175,75
2026-05-07 18:24:28.410,5,-0.14,-0.08,1.11,-2.6802,2.1288000000000005,4.1584,175,75
2026-05-07 18:24:28.418,5,-0.12,-0.09,1.1,-3.9302,-1.7011999999999998,13.4484,175,75
2026-05-07 18:24:28.429,5,-0.12,-0.12,1.08,-5.0202,-3.4612,18.8684,175,75
2026-05-07 18:24:28.442,5,-0.13,-0.13,1.05,-5.510199999999999,-4.8512,19.928400000000003,175,75
2026-05-07 18:24:28.454,5,-0.12,-0.15,1.04,-5.4702,-5.5212,17.608400000000003,175,75
2026-05-07 18:24:28.458,5,-0.08,-0.16,1.04,-5.7302,-3.8211999999999997,14.6484,175,75
2026-05-07 18:24:28.473,5,-0.05,-0.17,1.03,-5.8102,-0.08119999999999994,12.2884,175,75
2026-05-07 18:24:28.482,5,-0.03,-0.2,1.02,-6.2802,5.828800000000001,12.3984,175,75
2026-05-07 18:24:28.497,5,-0.04,-0.21,1.01,-6.6802,13.258799999999999,13.5684,175,75
2026-05-07 18:24:28.497,5,-0.1,-0.22,1.0,-6.9702,18.7088,13.3384,175,75
2026-05-07 18:24:28.510,5,-0.15,-0.23,1.01,-7.6602,20.6088,9.3584,175,75
2026-05-07 18:24:28.526,5,-0.18,-0.24,1.04,-7.8302,23.6588,-1.3216,175,75
2026-05-07 18:24:28.545,5,-0.2,-0.23,1.05,-6.130199999999999,25.6188,-8.0016,175,75
2026-05-07 18:24:28.556,5,-0.24,-0.16,1.08,-1.8802,26.418799999999997,-20.101599999999998,175,75
2026-05-07 18:24:28.570,5,-0.24,-0.13,1.1,-1.2202,25.0288,-22.6116,175,75
2026-05-07 18:24:28.581,5,-0.23,-0.12,1.11,-0.9601999999999999,23.3388,-21.011599999999998,175,75
2026-05-07 18:24:28.592,5,-0.23,-0.11,1.12,-1.3701999999999999,20.7888,-14.3816,175,75
2026-05-07 18:24:28.631,5,-0.31,-0.13,1.13,-3.6301999999999994,9.488800000000001,15.1384,175,75
2026-05-07 18:24:28.645,5,-0.31,-0.14,1.15,-3.5202,8.908800000000001,13.4284,175,75
2026-05-07 18:24:28.645,5,-0.32,-0.13,1.17,-3.6102,9.2088,9.3984,175,75
2026-05-07 18:24:28.665,5,-0.33,-0.13,1.17,-3.1902,8.3588,5.4484,175,75
2026-05-07 18:24:28.665,5,-0.35,-0.14,1.15,-0.9201999999999999,5.3788,1.8084000000000002,175,75
2026-05-07 18:24:28.677,5,-0.36,-0.12,1.17,2.3098,4.3988,-2.0616,175,75
2026-05-07 18:24:28.688,5,-0.35,-0.13,1.18,5.4998000000000005,3.5488000000000004,-3.2216,175,75
2026-05-07 18:24:28.704,5,-0.33,-0.15,1.18,8.5298,-1.5712,5.0484,175,75
2026-05-07 18:24:28.704,5,-0.38,-0.15,1.15,10.4598,-8.0312,14.4984,175,75
2026-05-07 18:24:28.720,5,-0.41,-0.15,1.13,11.2498,-17.0412,19.4784,175,75
2026-05-07 18:24:28.728,5,-0.4,-0.16,1.11,9.7498,-28.941200000000002,24.8384,175,75
2026-05-07 18:24:28.746,5,-0.37,-0.18,1.09,7.8598,-39.0112,31.1584,175,75
2026-05-07 18:24:28.747,5,-0.33,-0.18,1.06,5.5998,-46.5512,34.8684,175,75
2026-05-07 18:24:28.757,5,-0.28,-0.19,1.03,4.869800000000001,-49.001200000000004,35.348400000000005,175,75
2026-05-07 18:24:28.779,5,-0.19,-0.17,1.0,3.3498,-43.321200000000005,25.0684,175,75
2026-05-07 18:24:28.785,5,-0.16,-0.15,1.0,2.0898000000000003,-35.1212,15.4084,175,75
2026-05-07 18:24:28.796,5,-0.13,-0.15,1.0,0.4898,-23.5912,4.1484000000000005,175,75
2026-05-07 18:24:28.813,5,-0.1,-0.16,0.97,0.8598,-15.671199999999999,-0.11159999999999992,175,75
2026-05-07 18:24:28.823,5,-0.08,-0.16,0.99,2.6398,-10.0412,2.8484,175,75
2026-05-07 18:24:28.836,5,-0.1,-0.16,1.04,0.20980000000000004,-1.1511999999999998,16.2884,175,75
2026-05-07 18:24:28.849,5,-0.15,-0.17,1.05,-2.7901999999999996,1.4087999999999998,21.608400000000003,175,75
2026-05-07 18:24:28.859,5,-0.21,-0.2,1.05,-5.340199999999999,1.6888,21.538400000000003,175,75
2026-05-07 18:24:28.878,5,-0.26,-0.23,1.06,-2.4101999999999997,-5.4512,10.6084,175,75
2026-05-07 18:24:28.893,5,-0.27,-0.23,1.06,1.1998,-9.1212,-0.021599999999999953,175,75
2026-05-07 18:24:28.904,5,-0.26,-0.23,1.05,3.1398,-10.2912,-10.9116,175,75
2026-05-07 18:24:28.915,5,-0.25,-0.22,1.04,4.8998,-11.2212,-19.261599999999998,175,75
2026-05-07 18:24:28.926,5,-0.18,-0.17,1.05,8.4598,-15.251199999999999,-26.321599999999997,175,75
2026-05-07 18:24:28.938,5,-0.15,-0.14,1.05,8.2098,-13.5312,-27.4916,175,75
2026-05-07 18:24:28.950,5,-0.14,-0.13,1.04,6.9198,-9.5112,-27.2516,175,75
2026-05-07 18:24:28.961,5,-0.14,-0.11,1.02,4.7798,-6.151199999999999,-25.6516,175,75
2026-05-07 18:24:28.973,5,-0.13,-0.1,1.02,2.7198,-4.4212,-22.9316,175,75
2026-05-07 18:24:28.984,5,-0.11,-0.09,1.03,0.28980000000000006,-2.9612,-19.7716,175,75
2026-05-07 18:24:28.993,5,-0.08,-0.09,1.06,-1.8802,0.09880000000000022,-14.6116,175,75
2026-05-07 18:24:29.018,5,-0.12,-0.16,1.06,-3.3402000000000003,17.1988,2.0884,175,75
2026-05-07 18:24:29.027,5,-0.2,-0.16,1.04,-0.5202,15.8988,3.1984,175,75
2026-05-07 18:24:29.044,5,-0.23,-0.16,1.04,1.4198,12.068800000000001,-0.06159999999999988,175,75
2026-05-07 18:24:29.057,5,-0.24,-0.17,1.05,2.2598000000000003,8.168800000000001,-5.6716,175,75
2026-05-07 18:24:29.070,5,-0.2,-0.18,1.05,3.3297999999999996,3.5387999999999997,-7.951600000000001,175,75
2026-05-07 18:24:29.070,5,-0.17,-0.21,1.03,5.2098,1.8388000000000004,-6.8416,175,75
2026-05-07 18:24:29.078,5,-0.16,-0.23,1.02,8.4798,2.4788,-6.0016,175,75
2026-05-07 18:24:29.085,5,-0.17,-0.21,1.0,12.1898,3.6688000000000005,-7.621600000000001,175,75
2026-05-07 18:24:29.100,5,-0.18,-0.18,1.02,14.1698,2.9588000000000005,-12.2916,175,75
2026-05-07 18:24:29.108,5,-0.17,-0.15,1.02,13.389800000000001,-1.0712,-18.851599999999998,175,75
2026-05-07 18:24:29.123,5,-0.13,-0.12,1.01,11.3398,-6.4212,-23.8616,175,75
2026-05-07 18:24:29.138,5,-0.08,-0.11,0.98,9.479800000000001,-6.1212,-27.7416,175,75
2026-05-07 18:24:29.138,5,-0.03,-0.13,0.95,8.7098,1.2488000000000006,-27.691599999999998,175,75
2026-05-07 18:24:29.155,5,-0.03,-0.14,0.93,12.1798,22.3888,-15.1916,175,75
2026-05-07 18:24:29.174,5,-0.08,-0.12,0.96,13.4198,29.5188,-12.0016,175,75
2026-05-07 18:24:29.180,5,-0.14,-0.08,1.0,11.3698,33.6888,-13.8416,175,75
2026-05-07 18:24:29.192,5,-0.2,-0.04,1.03,7.4398,34.4088,-19.511599999999998,175,75
2026-05-07 18:24:29.204,5,-0.23,-0.03,1.06,3.1398,29.848799999999997,-24.6116,175,75
2026-05-07 18:24:29.210,5,-0.22,-0.06,1.05,0.6198,23.6388,-25.2916,175,75
2026-05-07 18:24:29.225,5,-0.2,-0.09,1.06,0.08980000000000005,20.078799999999998,-18.9316,175,75
2026-05-07 18:24:29.235,5,-0.19,-0.13,1.06,1.8298,17.8688,-6.5316,175,75
2026-05-07 18:24:29.235,5,-0.2,-0.15,1.08,3.6197999999999997,15.158800000000001,5.1784,175,75
2026-05-07 18:24:29.260,5,-0.31,-0.14,1.09,1.9598,11.238800000000001,1.9784000000000002,175,75
2026-05-07 18:24:29.274,5,-0.35,-0.13,1.06,1.3098,8.0888,-12.5516,175,75
2026-05-07 18:24:29.274,5,-0.33,-0.11,1.07,2.8198,3.5188,-27.0916,175,75
2026-05-07 18:24:29.286,5,-0.29,-0.06,1.06,3.1398,1.5288,-37.6016,175,75
2026-05-07 18:24:29.305,5,-0.26,-0.03,1.06,1.7998,3.1388000000000003,-41.9516,175,75
2026-05-07 18:24:29.315,5,-0.25,-0.0,1.06,-0.34019999999999995,4.848800000000001,-41.7716,175,75
2026-05-07 18:24:29.332,5,0.1,0.02,1.36,-8.9602,-17.2312,3.9284,175,75
2026-05-07 18:24:29.344,5,0.08,-0.11,1.2,-8.6602,2.0888000000000004,27.5484,175,75
2026-05-07 18:24:29.356,5,-0.15,-0.23,1.01,-3.7202,31.738799999999998,37.7984,175,75
2026-05-07 18:24:29.356,5,-0.39,-0.24,0.96,0.7098,32.3588,42.7284,175,75
2026-05-07 18:24:29.369,5,-0.37,-0.2,1.15,0.8498000000000001,8.5188,40.5484,175,75
2026-05-07 18:24:29.374,5,-0.22,-0.22,1.29,-1.6702000000000001,-7.831199999999999,29.3684,175,75
2026-05-07 18:24:29.385,5,-0.16,-0.3,1.27,-0.6701999999999999,-1.0912,14.2584,175,75
2026-05-07 18:24:29.404,5,-0.29,-0.31,1.23,0.9898,6.9688,-0.5916,175,75
2026-05-07 18:24:29.414,5,-0.43,-0.27,1.2,-0.9401999999999999,-2.3811999999999998,-22.3616,175,75
2026-05-07 18:24:29.414,5,-0.35,-0.24,1.15,-1.2202,-14.0612,-41.7316,175,75
2026-05-07 18:24:29.429,5,-0.27,-0.19,1.12,0.7498,-19.2512,-51.8716,175,75
2026-05-07 18:24:29.439,5,-0.22,-0.13,1.09,2.5898000000000003,-21.831200000000003,-54.7416,175,75
2026-05-07 18:24:29.456,5,-0.18,-0.02,1.04,0.6798000000000001,-24.6112,-51.0616,175,75
2026-05-07 18:24:29.466,5,-0.15,0.0,1.03,-1.6902000000000001,-22.5712,-46.611599999999996,175,75
2026-05-07 18:24:29.478,5,-0.12,-0.0,0.99,-4.760199999999999,-19.9312,-37.2716,175,75
2026-05-07 18:24:29.491,5,-0.1,-0.0,0.98,-5.9201999999999995,-14.9112,-24.421599999999998,175,75
2026-05-07 18:24:29.505,5,-0.07,-0.01,0.99,-5.7002,-10.1212,-10.9116,175,75
2026-05-07 18:24:29.505,5,-0.07,-0.01,1.0,-5.8602,-4.1912,4.1084000000000005,175,75
2026-05-07 18:24:29.555,5,-0.15,-0.1,1.03,-5.2202,5.508800000000001,28.418400000000002,175,75
2026-05-07 18:24:29.566,5,-0.16,-0.13,1.07,-5.8102,6.908800000000001,29.2584,175,75
2026-05-07 18:24:29.566,5,-0.18,-0.16,1.09,-6.260199999999999,6.748800000000001,28.3184,175,75
2026-05-07 18:24:29.583,5,-0.22,-0.2,1.07,-5.300199999999999,5.488800000000001,23.9584,175,75
2026-05-07 18:24:29.602,5,-0.25,-0.24,1.09,-2.3301999999999996,3.4888,9.4484,175,75
2026-05-07 18:24:29.631,5,-0.27,-0.2,1.09,2.9398,-6.3911999999999995,-14.5316,175,75
2026-05-07 18:24:29.645,5,-0.25,-0.15,1.09,3.0898000000000003,-9.4812,-19.031599999999997,175,75
2026-05-07 18:24:29.645,5,-0.22,-0.12,1.09,1.3698000000000001,-12.831199999999999,-20.4516,175,75
2026-05-07 18:24:29.669,5,-0.14,-0.09,1.07,-1.3102,-13.7312,-13.3316,175,75
2026-05-07 18:24:29.685,5,-0.13,-0.08,1.05,-3.2901999999999996,-12.011199999999999,-6.0916,175,75
2026-05-07 18:24:29.685,5,-0.11,-0.09,1.04,-5.0402,-7.991199999999999,1.1884000000000001,175,75
2026-05-07 18:24:29.695,5,-0.11,-0.1,1.03,-6.1002,-4.0412,7.9084,175,75
2026-05-07 18:24:29.706,5,-0.14,-0.14,1.02,-6.4102,-0.20120000000000005,14.0284,175,75
2026-05-07 18:24:29.718,5,-0.16,-0.16,1.01,-5.6902,1.5088000000000004,16.3884,175,75
2026-05-07 18:24:29.737,5,-0.19,-0.19,1.05,-4.6701999999999995,1.4487999999999999,13.2084,175,75
2026-05-07 18:24:29.752,5,-0.2,-0.21,1.04,-4.5202,0.9288000000000003,8.3584,175,75
2026-05-07 18:24:29.757,5,-0.21,-0.21,1.03,-3.0502000000000002,0.5188000000000001,2.3984,175,75
2026-05-07 18:24:29.768,5,-0.21,-0.21,1.03,-1.5902,-0.7811999999999997,-2.5716,175,75
2026-05-07 18:24:29.785,5,-0.19,-0.18,1.04,-0.45019999999999993,-1.8811999999999998,-5.4916,175,75
2026-05-07 18:24:29.790,5,-0.17,-0.15,1.05,0.04980000000000001,-1.3112,-6.6916,175,75
2026-05-07 18:24:29.804,5,-0.16,-0.14,1.06,-0.2802,0.22880000000000011,-5.5316,175,75
2026-05-07 18:24:29.804,5,-0.15,-0.13,1.06,-0.34019999999999995,1.0288,-1.9016000000000002,175,75
2026-05-07 18:24:29.832,5,-0.15,-0.11,1.08,-1.0202,0.26880000000000015,5.4484,175,75
2026-05-07 18:24:29.844,5,-0.17,-0.12,1.07,-1.7302000000000002,-0.49119999999999964,7.4484,175,75
2026-05-07 18:24:29.844,5,-0.19,-0.13,1.06,-2.8802000000000003,-1.0312,7.1284,175,75
2026-05-07 18:24:29.866,5,-0.15,-0.16,1.07,-2.6002,-3.2712,8.1484,175,75
2026-05-07 18:24:29.882,5,-0.13,-0.16,1.07,-2.8002000000000002,-1.2211999999999998,7.7484,175,75
2026-05-07 18:24:29.894,5,-0.13,-0.16,1.06,-3.0102,2.0288,6.6784,175,75
2026-05-07 18:24:29.894,5,-0.14,-0.16,1.06,-2.7401999999999997,4.018800000000001,4.7084,175,75
2026-05-07 18:24:29.908,5,-0.16,-0.16,1.05,-2.0502000000000002,6.3888,2.6684,175,75
2026-05-07 18:24:29.927,5,-0.17,-0.13,1.07,-1.1902,5.6888000000000005,1.1184,175,75
2026-05-07 18:24:29.937,5,-0.16,-0.13,1.08,-1.1002,6.078800000000001,0.9184000000000001,175,75
2026-05-07 18:24:29.947,5,-0.16,-0.13,1.08,-1.6102,7.3788,2.7284,175,75
2026-05-07 18:24:29.961,5,-0.16,-0.12,1.07,-2.3502,9.168800000000001,4.9984,175,75
2026-05-07 18:24:29.974,5,-0.18,-0.13,1.08,-3.5602,10.408800000000001,6.6884,175,75
2026-05-07 18:24:29.984,5,-0.18,-0.14,1.08,-4.5602,10.6888,10.4484,175,75
2026-05-07 18:24:29.985,5,-0.18,-0.16,1.08,-4.2802,10.6288,14.9384,175,75
2026-05-07 18:24:29.996,5,-0.21,-0.17,1.08,-3.8602,9.6288,16.668400000000002,175,75
2026-05-07 18:24:30.016,5,-0.27,-0.17,1.07,-4.2802,3.5288,9.8284,175,75
2026-05-07 18:24:30.026,5,-0.25,-0.18,1.06,-5.090199999999999,1.2887999999999997,6.2884,175,75
2026-05-07 18:24:30.038,5,-0.23,-0.19,1.06,-5.6102,-0.36119999999999974,5.5784,175,75
2026-05-07 18:24:30.056,5,-0.22,-0.2,1.07,-5.2501999999999995,0.41880000000000006,6.1984,175,75
2026-05-07 18:24:30.056,5,-0.23,-0.2,1.07,-4.2002,1.9988000000000006,6.7684,175,75
2026-05-07 18:24:30.067,5,-0.28,-0.2,1.07,-3.3802000000000003,3.9288000000000003,3.0284,175,75
2026-05-07 18:24:30.081,5,-0.31,-0.19,1.08,-3.9302,2.0787999999999998,-2.3516,175,75
2026-05-07 18:24:30.092,5,-0.32,-0.19,1.07,-5.7402,-0.6412,-8.7416,175,75
2026-05-07 18:24:30.104,5,-0.31,-0.18,1.07,-6.510199999999999,-3.5711999999999997,-14.5016,175,75
2026-05-07 18:24:30.114,5,-0.32,-0.18,1.05,-6.6402,-3.8712,-20.3116,175,75
2026-05-07 18:24:30.136,5,-0.31,-0.13,1.04,-0.9301999999999999,-5.1612,-33.5516,175,75
2026-05-07 18:24:30.136,5,-0.27,-0.09,1.06,0.5898,-6.0611999999999995,-34.6316,175,75
2026-05-07 18:24:30.157,5,-0.23,-0.05,1.05,-0.09019999999999995,-4.7912,-24.6616,175,75
2026-05-07 18:24:30.169,5,-0.21,-0.05,1.05,-0.9201999999999999,-3.9612,-13.5716,175,75
2026-05-07 18:24:30.181,5,-0.19,-0.06,1.06,-2.1201999999999996,-2.7211999999999996,1.7084000000000001,175,75
2026-05-07 18:24:30.194,5,-0.19,-0.08,1.07,-4.130199999999999,-0.7811999999999997,18.8184,175,75
2026-05-07 18:24:30.194,5,-0.22,-0.12,1.07,-5.9302,-0.9512,31.5884,175,75
2026-05-07 18:24:30.205,5,-0.23,-0.15,1.07,-7.1502,-2.9212,39.0384,175,75
2026-05-07 18:24:30.225,5,-0.25,-0.18,1.08,-7.6402,-6.2712,39.3584,175,75
2026-05-07 18:24:30.225,5,-0.28,-0.22,1.08,-7.340199999999999,-9.9812,32.6584,175,75
2026-05-07 18:24:30.240,5,-0.28,-0.25,1.06,-6.8302,-12.4612,20.468400000000003,175,75
2026-05-07 18:24:30.248,5,-0.26,-0.27,1.05,-4.9002,-13.271199999999999,6.0184,175,75
2026-05-07 18:24:30.262,5,-0.23,-0.26,1.04,-2.3402000000000003,-12.501199999999999,-6.4316,175,75
2026-05-07 18:24:30.275,5,-0.19,-0.23,1.04,0.3598,-10.0912,-17.331599999999998,175,75
2026-05-07 18:24:30.275,5,-0.18,-0.18,1.05,0.8598,-7.911199999999999,-23.6816,175,75
2026-05-07 18:24:30.287,5,-0.16,-0.14,1.06,-0.36019999999999996,-5.7712,-26.6116,175,75
2026-05-07 18:24:30.300,5,-0.15,-0.12,1.05,-2.1002,-3.5612,-25.0216,175,75
2026-05-07 18:24:30.311,5,-0.16,-0.1,1.05,-3.1002,-2.5412,-20.331599999999998,175,75
2026-05-07 18:24:30.324,5,-0.16,-0.09,1.06,-3.7802,-2.7712,-13.4816,175,75
2026-05-07 18:24:30.324,5,-0.16,-0.1,1.05,-4.8902,-3.1212,-4.2316,175,75
2026-05-07 18:24:30.339,5,-0.17,-0.11,1.06,-5.8202,-3.4612,4.4884,175,75
2026-05-07 18:24:30.354,5,-0.18,-0.14,1.06,-6.0001999999999995,-4.5812,9.0684,175,75
2026-05-07 18:24:30.354,5,-0.19,-0.15,1.05,-5.4802,-5.9312000000000005,9.9584,175,75
2026-05-07 18:24:30.366,5,-0.2,-0.17,1.06,-5.380199999999999,-6.6112,7.8684,175,75
2026-05-07 18:24:30.377,5,-0.19,-0.18,1.04,-4.7402,-6.3712,4.1984,175,75
2026-05-07 18:24:30.391,5,-0.17,-0.19,1.03,-3.3002000000000002,-4.8512,0.8384,175,75
2026-05-07 18:24:30.406,5,-0.15,-0.19,1.04,-2.2501999999999995,-2.8312,-0.8715999999999998,175,75
2026-05-07 18:24:30.417,5,-0.16,-0.17,1.05,-1.5302,-0.5811999999999999,-2.3416,175,75
2026-05-07 18:24:30.429,5,-0.17,-0.16,1.05,-1.7102000000000002,0.8088000000000002,-3.2916,175,75
2026-05-07 18:24:30.429,5,-0.18,-0.15,1.05,-2.0001999999999995,1.3488000000000002,-3.2416,175,75
2026-05-07 18:24:30.444,5,-0.17,-0.15,1.06,-2.3701999999999996,1.5888000000000004,-1.2715999999999998,175,75
2026-05-07 18:24:30.454,5,-0.18,-0.15,1.06,-2.5702,2.0387999999999997,1.0484,175,75
2026-05-07 18:24:30.465,5,-0.19,-0.16,1.06,-2.9302,1.0688,2.7584,175,75
2026-05-07 18:24:30.465,5,-0.21,-0.16,1.06,-3.2802,0.03880000000000017,2.6284,175,75
2026-05-07 18:24:30.491,5,-0.23,-0.15,1.06,-3.8001999999999994,-1.4611999999999998,1.3584,175,75
2026-05-07 18:24:30.491,5,-0.21,-0.15,1.06,-3.6002,-3.2211999999999996,-0.4515999999999999,175,75
2026-05-07 18:24:30.514,5,-0.16,-0.13,1.06,-3.3002000000000002,-4.1312,-0.3715999999999998,175,75
2026-05-07 18:24:30.514,5,-0.14,-0.13,1.06,-3.7802,-2.2812,3.2284,175,75
2026-05-07 18:24:30.531,5,-0.13,-0.13,1.05,-4.2302,-0.2711999999999999,8.6784,175,75
2026-05-07 18:24:30.548,5,-0.16,-0.16,1.04,-6.0302,2.0288,16.3484,175,75
2026-05-07 18:24:30.559,5,-0.16,-0.19,1.05,-6.6701999999999995,3.1988,16.9984,175,75
2026-05-07 18:24:30.566,5,-0.16,-0.2,1.05,-6.7202,5.2888,18.608400000000003,175,75
2026-05-07 18:24:30.592,5,-0.19,-0.24,1.05,-7.1402,7.648800000000001,19.918400000000002,175,75
2026-05-07 18:24:30.595,5,-0.23,-0.25,1.05,-6.6002,7.2188,16.5084,175,75
2026-05-07 18:24:30.606,5,-0.25,-0.25,1.06,-5.760199999999999,5.428800000000001,10.1984,175,75
2026-05-07 18:24:30.617,5,-0.25,-0.25,1.04,-3.1201999999999996,3.6588,2.3584,175,75
2026-05-07 18:24:30.638,5,-0.22,-0.18,1.06,-1.0202,-0.35119999999999996,-8.3016,175,75
2026-05-07 18:24:30.649,5,-0.2,-0.17,1.06,-1.9602000000000002,-1.0612,-9.0516,175,75
2026-05-07 18:24:30.660,5,-0.18,-0.15,1.05,-2.9602000000000004,-1.0812,-7.0916,175,75
2026-05-07 18:24:30.670,5,-0.16,-0.14,1.04,-3.5101999999999993,-0.5411999999999999,-2.3116,175,75
2026-05-07 18:24:30.677,5,-0.16,-0.14,1.05,-4.380199999999999,-0.09119999999999973,3.6484,175,75
2026-05-07 18:24:30.691,5,-0.16,-0.14,1.04,-5.380199999999999,0.7988,9.7784,175,75
2026-05-07 18:24:30.701,5,-0.16,-0.16,1.04,-6.8602,1.9988000000000006,14.798399999999999,175,75
2026-05-07 18:24:30.718,5,-0.18,-0.2,1.04,-7.8302,4.338800000000001,19.9084,175,75
2026-05-07 18:24:30.734,5,-0.19,-0.22,1.04,-6.7402,3.8287999999999998,20.2084,175,75
2026-05-07 18:24:30.745,5,-0.21,-0.24,1.03,-5.2501999999999995,2.8888000000000003,17.968400000000003,175,75
2026-05-07 18:24:30.745,5,-0.22,-0.24,1.04,-3.7001999999999997,2.2288,14.4284,175,75
2026-05-07 18:24:30.759,5,-0.23,-0.24,1.03,-2.4702,2.5488000000000004,8.6484,175,75
2026-05-07 18:24:30.776,5,-0.23,-0.22,1.04,-1.8602,4.9688,-0.9115999999999999,175,75
2026-05-07 18:24:30.788,5,-0.22,-0.21,1.04,-2.1601999999999997,6.168800000000001,-3.1316,175,75
2026-05-07 18:24:30.804,5,-0.21,-0.2,1.05,-2.8102,5.9488,-2.9916,175,75
2026-05-07 18:24:30.829,5,-0.22,-0.18,1.06,-2.4101999999999997,4.0588,2.9484,175,75
2026-05-07 18:24:30.844,5,-0.24,-0.17,1.06,-3.3002000000000002,3.3488,1.9784000000000002,175,75
2026-05-07 18:24:30.854,5,-0.23,-0.16,1.06,-4.090199999999999,2.7188000000000003,0.9384000000000001,175,75
2026-05-07 18:24:30.858,5,-0.22,-0.16,1.06,-4.380199999999999,2.2488000000000006,1.3184,175,75
2026-05-07 18:24:30.877,5,-0.21,-0.17,1.05,-5.5702,2.3888000000000003,7.0484,175,75
2026-05-07 18:24:30.895,5,-0.2,-0.18,1.05,-5.6701999999999995,3.2388,11.1684,175,75
2026-05-07 18:24:30.899,5,-0.22,-0.2,1.06,-5.4601999999999995,2.7088000000000005,14.1284,175,75
2026-05-07 18:24:30.923,5,-0.24,-0.22,1.06,-5.380199999999999,2.0688,11.7184,175,75
2026-05-07 18:24:30.934,5,-0.24,-0.23,1.05,-4.6602,1.5787999999999998,7.8684,175,75
2026-05-07 18:24:30.944,5,-0.24,-0.22,1.06,-3.5702,1.2388,3.9284,175,75
2026-05-07 18:24:30.944,5,-0.24,-0.21,1.04,-3.4202000000000004,1.9388,1.0284,175,75
2026-05-07 18:24:30.965,5,-0.24,-0.21,1.03,-3.3502,2.2588000000000004,-0.011599999999999944,175,75
2026-05-07 18:24:30.965,5,-0.23,-0.19,1.03,-3.4602000000000004,1.9087999999999998,1.3484,175,75
2026-05-07 18:24:30.989,5,-0.22,-0.19,1.03,-4.1102,0.3788,7.0384,175,75
2026-05-07 18:24:30.998,5,-0.21,-0.21,1.04,-3.7302,0.22880000000000011,9.1884,175,75
2026-05-07 18:24:31.014,5,-0.21,-0.22,1.04,-2.9302,0.9388000000000001,9.3484,175,75
2026-05-07 18:24:31.026,5,-0.23,-0.22,1.05,-1.8501999999999998,2.5387999999999997,4.8084,175,75
2026-05-07 18:24:31.038,5,-0.23,-0.22,1.04,-1.7602,3.7288,1.3484,175,75
2026-05-07 18:24:31.049,5,-0.24,-0.21,1.03,-2.0202,4.6488,-1.6816,175,75
2026-05-07 18:24:31.060,5,-0.24,-0.2,1.03,-2.4702,4.9887999999999995,-2.9316,175,75
2026-05-07 18:24:31.075,5,-0.23,-0.2,1.04,-3.2202,4.748800000000001,-1.7316000000000003,175,75
2026-05-07 18:24:31.075,5,-0.23,-0.2,1.03,-3.7202,4.6288,1.0884,175,75
2026-05-07 18:24:31.085,5,-0.24,-0.2,1.04,-3.5101999999999993,4.328799999999999,3.5884,175,75
2026-05-07 18:24:31.100,5,-0.26,-0.21,1.05,-3.3301999999999996,3.4788,3.8484,175,75
2026-05-07 18:24:31.120,5,-0.26,-0.2,1.04,-2.7202,1.2588000000000004,0.10840000000000005,175,75
2026-05-07 18:24:31.135,5,-0.25,-0.2,1.04,-2.4101999999999997,0.6588000000000003,-1.3416000000000001,175,75
2026-05-07 18:24:31.147,5,-0.24,-0.18,1.04,-2.8402000000000003,0.5788000000000002,-1.5516,175,75
2026-05-07 18:24:31.168,5,-0.23,-0.18,1.02,-3.9601999999999995,2.2488000000000006,2.1584,175,75
2026-05-07 18:24:31.179,5,-0.23,-0.19,1.02,-3.9601999999999995,3.2688,5.3284,175,75
2026-05-07 18:24:31.187,5,-0.22,-0.19,1.03,-4.4702,4.2988,7.3184,175,75
2026-05-07 18:24:31.206,5,-0.23,-0.22,1.03,-3.8602,6.268800000000001,8.9784,175,75
2026-05-07 18:24:31.218,5,-0.24,-0.23,1.03,-3.4302,6.6388,8.458400000000001,175,75
2026-05-07 18:24:31.244,5,-0.25,-0.23,1.04,-3.0902000000000003,6.0488,5.1284,175,75
2026-05-07 18:24:31.254,5,-0.26,-0.23,1.04,-2.6102,5.748800000000001,3.0984,175,75
2026-05-07 18:24:31.268,5,-0.25,-0.23,1.04,-2.0902000000000003,4.908799999999999,-0.0815999999999999,175,75
2026-05-07 18:24:31.285,5,-0.25,-0.22,1.04,-2.3602,5.008800000000001,-0.15159999999999996,175,75
2026-05-07 18:24:31.293,5,-0.25,-0.22,1.04,-2.1502,4.6888000000000005,0.018400000000000083,175,75
2026-05-07 18:24:31.300,5,-0.25,-0.22,1.04,-2.0902000000000003,4.2888,0.2884000000000001,175,75
2026-05-07 18:24:31.314,5,-0.25,-0.21,1.04,-1.9202000000000001,3.6788000000000003,0.2684000000000001,175,75
2026-05-07 18:24:31.314,5,-0.24,-0.21,1.04,-2.1802,3.7488000000000006,1.4184,175,75
2026-05-07 18:24:31.344,5,-0.25,-0.22,1.03,-1.7602,4.6488,3.2084,175,75
2026-05-07 18:24:31.355,5,-0.26,-0.22,1.03,-1.8202,5.0288,2.9884,175,75
2026-05-07 18:24:31.355,5,-0.27,-0.22,1.03,-1.4102,4.908799999999999,1.8384,175,75
2026-05-07 18:24:31.379,5,-0.28,-0.21,1.02,-0.4301999999999999,4.338800000000001,-1.0116,175,75
2026-05-07 18:24:31.394,5,-0.26,-0.21,1.02,-0.5602,4.0288,-1.0215999999999998,175,75
2026-05-07 18:24:31.406,5,-0.25,-0.2,1.03,-0.8002,4.1988,0.7084,175,75
2026-05-07 18:24:31.417,5,-0.27,-0.21,1.04,-0.8102,3.9088,2.7484,175,75
2026-05-07 18:24:31.444,5,-0.27,-0.21,1.02,-0.5902000000000001,3.6288000000000005,1.3884,175,75
2026-05-07 18:24:31.444,5,-0.27,-0.2,1.02,-0.5702,3.3588,1.5384000000000002,175,75
2026-05-07 18:24:31.456,5,-0.27,-0.2,1.03,-1.3102,3.2288,2.3184,175,75
2026-05-07 18:24:31.470,5,-0.27,-0.2,1.03,-2.1502,2.9088,3.1784,175,75
2026-05-07 18:24:31.484,5,-0.29,-0.2,1.03,-2.6702000000000004,2.1688000000000005,4.1384,175,75
2026-05-07 18:24:31.494,5,-0.3,-0.19,1.02,-3.2302,0.7088000000000001,4.2884,175,75
2026-05-07 18:24:31.500,5,-0.3,-0.19,1.03,-3.7601999999999993,-1.0011999999999999,4.1584,175,75
2026-05-07 18:24:31.514,5,-0.3,-0.19,1.02,-4.2202,-2.3811999999999998,3.7784,175,75
2026-05-07 18:24:31.514,5,-0.28,-0.19,1.05,-5.1502,-3.8011999999999997,3.6484,175,75
2026-05-07 18:24:31.545,5,-0.25,-0.2,1.06,-6.6102,-6.7812,7.8184,175,75
2026-05-07 18:24:31.545,5,-0.26,-0.22,1.05,-6.8102,-6.8512,10.4284,175,75
2026-05-07 18:24:31.556,5,-0.29,-0.23,1.03,-6.510199999999999,-6.7112,10.6184,175,75
2026-05-07 18:24:31.570,5,-0.31,-0.23,1.01,-6.1102,-7.5512,8.3084,175,75
2026-05-07 18:24:31.578,5,-0.31,-0.23,1.01,-6.1902,-9.3612,5.3984,175,75
2026-05-07 18:24:31.612,5,-0.26,-0.22,1.02,-5.550199999999999,-12.671199999999999,4.7184,175,75
2026-05-07 18:24:31.629,5,-0.24,-0.23,0.99,-5.8902,-11.421199999999999,9.0584,175,75
2026-05-07 18:24:31.645,5,-0.22,-0.24,0.99,-6.2202,-10.4212,11.8484,175,75
2026-05-07 18:24:31.645,5,-0.2,-0.26,0.99,-5.6701999999999995,-8.6412,14.5084,175,75
2026-05-07 18:24:31.658,5,-0.21,-0.28,0.98,-4.2501999999999995,-6.1312,16.3584,175,75
2026-05-07 18:24:31.669,5,-0.22,-0.29,0.98,-2.5302,-2.9812,14.6984,175,75
2026-05-07 18:24:31.684,5,-0.25,-0.29,0.99,-1.6502000000000001,-1.0612,10.0284,175,75
2026-05-07 18:24:31.684,5,-0.25,-0.29,0.99,-1.3801999999999999,0.06879999999999997,3.4584,175,75
2026-05-07 18:24:31.697,5,-0.23,-0.28,1.0,-0.6601999999999999,1.8088000000000002,-1.9716,175,75
2026-05-07 18:24:31.717,5,-0.23,-0.26,1.03,-0.47019999999999995,3.4188000000000005,-6.2016,175,75
2026-05-07 18:24:31.745,5,-0.26,-0.26,1.07,0.7498,-1.8811999999999998,-4.4516,175,75
2026-05-07 18:24:31.764,5,-0.27,-0.27,1.07,1.4298000000000002,-3.1311999999999998,-5.4416,175,75
2026-05-07 18:24:31.778,5,-0.32,-0.26,1.07,4.2298,-6.6112,-11.6316,175,75
2026-05-07 18:24:31.789,5,-0.31,-0.24,1.08,4.5198,-10.3412,-15.5116,175,75
2026-05-07 18:24:31.804,5,-0.29,-0.23,1.08,3.8198,-9.5512,-18.9016,175,75
2026-05-07 18:24:31.829,5,-0.37,-0.21,1.05,8.5298,-10.0412,-23.421599999999998,175,75
2026-05-07 18:24:31.842,5,-0.32,-0.19,1.09,7.9398,-16.8712,-20.531599999999997,175,75
2026-05-07 18:24:31.854,5,-0.28,-0.2,1.1,7.1098,-18.9312,-15.2416,175,75
2026-05-07 18:24:31.854,5,-0.26,-0.21,1.1,7.0198,-17.5212,-9.3216,175,75
2026-05-07 18:24:31.866,5,-0.29,-0.21,1.11,6.9798,-17.3812,-4.6816,175,75
2026-05-07 18:24:31.896,5,-0.39,-0.22,1.08,8.2698,-14.5612,-14.2216,175,75
2026-05-07 18:24:31.910,5,-0.42,-0.2,1.09,8.979800000000001,-17.1312,-21.0016,175,75
2026-05-07 18:24:31.922,5,-0.4,-0.2,1.1,9.5298,-21.491200000000003,-25.441599999999998,175,75
2026-05-07 18:24:31.944,5,-0.31,-0.17,1.18,9.9498,-24.441200000000002,-22.551599999999997,175,75
2026-05-07 18:24:31.945,5,-0.31,-0.15,1.21,8.9498,-26.5212,-18.2916,175,75
2026-05-07 18:24:31.965,5,-0.35,-0.14,1.21,6.3598,-29.171200000000002,-14.8116,175,75
2026-05-07 18:24:31.965,5,-0.38,-0.14,1.18,4.3198,-32.0812,-12.4016,175,75
2026-05-07 18:24:31.979,5,-0.39,-0.14,1.17,3.0298,-35.9512,-8.951600000000001,175,75
2026-05-07 18:24:31.995,5,-0.36,-0.14,1.19,2.3298,-41.1412,-3.8216,175,75
2026-05-07 18:24:32.006,5,-0.31,-0.14,1.23,1.6998,-43.8712,2.5584000000000002,175,75
2026-05-07 18:24:32.006,5,-0.27,-0.15,1.26,0.46980000000000005,-43.7212,9.1684,175,75
2026-05-07 18:24:32.016,5,-0.25,-0.16,1.28,-0.7902,-45.3112,15.6484,175,75
2026-05-07 18:24:32.048,5,-0.31,-0.19,1.26,-4.6102,-44.5112,15.3884,175,75
2026-05-07 18:24:32.061,5,-0.29,-0.19,1.27,-4.9902,-46.1312,12.8884,175,75
2026-05-07 18:24:32.078,5,-0.3,-0.16,1.24,-3.4802,-49.431200000000004,7.7084,175,75
2026-05-07 18:24:32.089,5,-0.3,-0.13,1.21,-2.9302,-53.3112,7.3284,175,75
2026-05-07 18:24:32.104,5,-0.28,-0.11,1.2,-2.8402000000000003,-57.071200000000005,7.9984,175,75
2026-05-07 18:24:32.121,5,-0.24,-0.1,1.2,-3.0302,-61.3912,11.5384,175,75
2026-05-07 18:24:32.121,5,-0.16,-0.09,1.21,-3.8602,-63.0312,20.1884,175,75
2026-05-07 18:24:32.136,5,-0.12,-0.13,1.21,-5.1102,-62.2212,32.0484,175,75
2026-05-07 18:24:32.159,5,-0.21,-0.2,1.13,-9.9302,-73.4212,57.1584,175,75
2026-05-07 18:24:32.190,5,-0.17,-0.23,1.04,-6.2802,-87.7112,34.248400000000004,175,75
2026-05-07 18:24:32.201,5,-0.15,-0.2,1.01,-4.3602,-90.77120000000001,25.488400000000002,175,75
2026-05-07 18:24:32.208,5,-0.12,-0.18,0.98,-1.7802,-96.41120000000001,16.4484,175,75
2026-05-07 18:24:32.223,5,-0.05,-0.15,0.97,-0.020199999999999996,-102.7812,9.5584,175,75
2026-05-07 18:24:32.241,5,0.02,-0.14,0.95,-0.3002,-106.5112,7.7783999999999995,175,75
2026-05-07 18:24:32.251,5,0.15,-0.16,0.89,-3.2001999999999997,-110.8012,23.3384,175,75
2026-05-07 18:24:32.266,5,0.16,-0.19,0.84,-3.9501999999999997,-109.5812,35.8384,175,75
2026-05-07 18:24:32.266,5,0.14,-0.2,0.79,-3.5901999999999994,-105.4312,45.4484,175,75
2026-05-07 18:24:32.277,5,0.11,-0.2,0.77,-3.1402,-103.0112,48.568400000000004,175,75
2026-05-07 18:24:32.295,5,0.12,-0.19,0.77,-3.8902,-103.9612,46.028400000000005,175,75
2026-05-07 18:24:32.295,5,0.19,-0.2,0.8,-5.5802,-104.9512,40.8384,175,75
2026-05-07 18:24:32.305,5,0.27,-0.21,0.83,-7.950200000000001,-102.0312,35.138400000000004,175,75
2026-05-07 18:24:32.317,5,0.36,-0.23,0.85,-9.1802,-94.7012,31.7984,175,75
2026-05-07 18:24:32.339,5,0.41,-0.26,0.88,-9.5502,-71.77120000000001,29.8684,175,75
2026-05-07 18:24:32.354,5,0.36,-0.26,0.88,-9.8002,-59.2212,25.7484,175,75
2026-05-07 18:24:32.369,5,0.3,-0.25,0.88,-11.1602,-50.4512,15.7384,175,75
2026-05-07 18:24:32.390,5,0.26,-0.26,0.93,-14.9602,-46.7112,-12.0916,175,75
2026-05-07 18:24:32.416,5,0.32,-0.3,0.94,-16.1202,-50.7412,-20.4016,175,75
2026-05-07 18:24:32.416,5,0.33,-0.3,0.94,-15.190199999999999,-56.1912,-12.3516,175,75
2026-05-07 18:24:32.436,5,0.31,-0.29,0.93,-14.6502,-61.0912,-4.5116,175,75
2026-05-07 18:24:32.436,5,0.3,-0.28,0.92,-14.5402,-65.0712,-0.9215999999999999,175,75
2026-05-07 18:24:32.450,5,0.29,-0.26,0.93,-15.530199999999999,-68.8712,-2.2116000000000002,175,75
2026-05-07 18:24:32.460,5,0.3,-0.25,0.93,-17.8202,-71.2512,-7.2516,175,75
2026-05-07 18:24:32.476,5,0.39,-0.26,0.9,-17.630200000000002,-77.9312,-15.711599999999999,175,75
2026-05-07 18:24:32.487,5,0.44,-0.26,0.89,-16.4602,-77.9512,-13.5516,175,75
2026-05-07 18:24:32.501,5,0.48,-0.25,0.89,-15.640199999999998,-77.1712,-8.7416,175,75
2026-05-07 18:24:32.514,5,0.49,-0.26,0.87,-15.1502,-77.0412,-0.5115999999999999,175,75
2026-05-07 18:24:32.514,5,0.49,-0.26,0.85,-15.0002,-76.3812,8.288400000000001,175,75
2026-05-07 18:24:32.526,5,0.47,-0.27,0.83,-14.4002,-77.7412,16.7984,175,75
2026-05-07 18:24:32.551,5,0.5,-0.27,0.81,-13.9702,-82.3812,30.648400000000002,175,75
2026-05-07 18:24:32.566,5,0.53,-0.28,0.82,-14.1202,-81.6712,36.6784,175,75
2026-05-07 18:24:32.576,5,0.54,-0.3,0.82,-14.280199999999999,-79.2212,41.6484,175,75
2026-05-07 18:24:32.576,5,0.56,-0.31,0.82,-14.5102,-77.3512,44.8384,175,75
2026-05-07 18:24:32.596,5,0.58,-0.32,0.81,-13.9702,-75.6112,47.3284,175,75
2026-05-07 18:24:32.596,5,0.59,-0.34,0.81,-13.3902,-71.6412,48.9084,175,75
2026-05-07 18:24:32.618,5,0.58,-0.36,0.8,-12.7602,-66.8712,50.748400000000004,175,75
2026-05-07 18:24:32.641,5,0.59,-0.38,0.8,-13.0502,-63.4812,52.0784,175,75
2026-05-07 18:24:32.650,5,0.57,-0.39,0.78,-13.3202,-59.5412,46.5384,175,75
2026-05-07 18:24:32.650,5,0.54,-0.39,0.76,-13.0102,-53.2712,35.5484,175,75
2026-05-07 18:24:32.661,5,0.53,-0.4,0.74,-11.8102,-48.001200000000004,22.9084,175,75
2026-05-07 18:24:32.678,5,0.59,-0.4,0.74,-9.6302,-38.2212,2.2984,175,75
2026-05-07 18:24:32.690,5,0.62,-0.41,0.73,-8.6502,-33.8312,-1.7216,175,75
2026-05-07 18:24:32.706,5,0.65,-0.41,0.73,-7.860199999999999,-30.7912,-2.5516,175,75
2026-05-07 18:24:32.717,5,0.66,-0.41,0.72,-6.510199999999999,-26.171200000000002,-2.2716,175,75
2026-05-07 18:24:32.717,5,0.66,-0.41,0.72,-4.5702,-20.651200000000003,-1.6316000000000002,175,75
2026-05-07 18:24:32.727,5,0.66,-0.4,0.72,-3.0502000000000002,-15.1912,-1.6416,175,75
2026-05-07 18:24:32.742,5,0.65,-0.38,0.72,-1.8101999999999998,-9.0712,-3.7016,175,75
2026-05-07 18:24:32.756,5,0.65,-0.37,0.73,-1.3402,-1.9011999999999998,-7.531599999999999,175,75
2026-05-07 18:24:32.770,5,0.66,-0.37,0.73,-0.8801999999999999,5.2188,-11.0816,175,75
2026-05-07 18:24:32.770,5,0.67,-0.37,0.74,-0.24019999999999997,11.6188,-13.1916,175,75
2026-05-07 18:24:32.793,5,0.65,-0.35,0.76,2.9497999999999998,22.5288,-14.1716,175,75
2026-05-07 18:24:32.805,5,0.63,-0.34,0.78,3.6798,25.308799999999998,-15.2116,175,75
2026-05-07 18:24:32.815,5,0.62,-0.32,0.81,3.8697999999999997,27.468799999999998,-18.7516,175,75
2026-05-07 18:24:32.826,5,0.62,-0.3,0.82,3.1698000000000004,29.738799999999998,-23.141599999999997,175,75
2026-05-07 18:24:32.826,5,0.62,-0.28,0.82,2.2398,31.8688,-25.821599999999997,175,75
2026-05-07 18:24:32.849,5,0.65,-0.3,0.81,2.8898,38.4388,-19.531599999999997,175,75
2026-05-07 18:24:32.864,5,0.65,-0.3,0.82,4.4198,40.6688,-9.8516,175,75
2026-05-07 18:24:32.875,5,0.63,-0.3,0.84,5.8798,42.1688,-0.7215999999999999,175,75
2026-05-07 18:24:32.885,5,0.6,-0.3,0.85,6.7298,43.2988,6.7384,175,75
2026-05-07 18:24:32.896,5,0.56,-0.29,0.86,7.4298,44.1288,11.5084,175,75
2026-05-07 18:24:32.896,5,0.53,-0.31,0.86,8.5298,42.8088,13.3884,175,75
2026-05-07 18:24:32.908,5,0.51,-0.31,0.88,9.2398,40.4888,13.9984,175,75
2026-05-07 18:24:32.925,5,0.51,-0.32,0.88,9.9198,38.6088,12.5584,175,75
2026-05-07 18:24:32.925,5,0.51,-0.32,0.88,10.729800000000001,37.7788,10.6284,175,75
2026-05-07 18:24:32.949,5,0.52,-0.32,0.88,12.3598,42.1288,7.0984,175,75
2026-05-07 18:24:32.962,5,0.53,-0.32,0.88,13.4298,47.0888,5.9484,175,75
2026-05-07 18:24:32.988,5,0.48,-0.3,0.91,15.4298,63.928799999999995,0.24840000000000007,175,75
2026-05-07 18:24:33.001,5,0.47,-0.31,0.92,15.8698,69.1788,-2.1516,175,75
2026-05-07 18:24:33.032,5,0.4,-0.3,0.94,17.7198,79.0488,-10.2616,175,75
2026-05-07 18:24:33.046,5,0.38,-0.29,0.95,18.069799999999997,81.6588,-13.3716,175,75
2026-05-07 18:24:33.060,5,0.35,-0.29,0.97,17.589799999999997,86.5488,-17.191599999999998,175,75
2026-05-07 18:24:33.069,5,0.32,-0.28,0.98,17.089799999999997,87.4188,-17.3116,175,75
2026-05-07 18:24:33.090,5,0.29,-0.27,1.02,15.7598,86.2688,-18.481599999999997,175,75
2026-05-07 18:24:33.106,5,0.26,-0.25,1.02,15.5898,85.9588,-20.261599999999998,175,75
2026-05-07 18:24:33.117,5,0.25,-0.25,1.02,14.5298,85.3888,-22.7416,175,75
2026-05-07 18:24:33.117,5,0.24,-0.25,1.03,13.5498,84.0488,-23.801599999999997,175,75
2026-05-07 18:24:33.137,5,0.22,-0.24,1.04,12.8198,83.0488,-19.7516,175,75
2026-05-07 18:24:33.164,5,0.19,-0.24,1.06,12.2598,80.7088,-10.0216,175,75
2026-05-07 18:24:33.176,5,0.17,-0.23,1.07,11.9398,80.6288,-6.6416,175,75
2026-05-07 18:24:33.180,5,0.14,-0.23,1.08,11.4598,79.9988,-5.4016,175,75
2026-05-07 18:24:33.196,5,0.11,-0.22,1.07,11.3298,77.7788,-5.0616,175,75
2026-05-07 18:24:33.196,5,0.09,-0.22,1.09,10.8798,74.9188,-5.2216000000000005,175,75
2026-05-07 18:24:33.215,5,0.09,-0.23,1.08,9.5198,72.3588,-4.4216,175,75
2026-05-07 18:24:33.228,5,0.07,-0.23,1.08,8.979800000000001,69.83879999999999,-2.4216,175,75
2026-05-07 18:24:33.228,5,0.07,-0.23,1.08,8.0398,67.5988,0.1584000000000001,175,75
2026-05-07 18:24:33.255,5,0.04,-0.22,1.09,7.0698,66.5488,0.29840000000000005,175,75
2026-05-07 18:24:33.255,5,0.03,-0.21,1.09,6.659800000000001,66.22879999999999,-2.1616,175,75
2026-05-07 18:24:33.268,5,0.02,-0.21,1.1,5.989800000000001,65.1588,-5.7716,175,75
2026-05-07 18:24:33.290,5,0.02,-0.21,1.11,4.4298,64.4388,-9.2616,175,75
2026-05-07 18:24:33.315,5,0.0,-0.22,1.12,4.1698,63.778800000000004,-7.3416,175,75
2026-05-07 18:24:33.315,5,-0.01,-0.21,1.11,4.7498000000000005,64.83879999999999,-5.2016,175,75
2026-05-07 18:24:33.330,5,-0.04,-0.22,1.12,5.239800000000001,65.7088,-2.8716,175,75
2026-05-07 18:24:33.338,5,-0.07,-0.21,1.13,5.449800000000001,64.9988,-2.9016,175,75
2026-05-07 18:24:33.354,5,-0.1,-0.2,1.15,4.7298,62.678799999999995,-4.4516,175,75
2026-05-07 18:24:33.369,5,-0.16,-0.19,1.16,3.4298,55.5388,-14.4116,175,75
2026-05-07 18:24:33.383,5,-0.17,-0.2,1.16,3.8198,51.0388,-18.4016,175,75
2026-05-07 18:24:33.388,5,-0.16,-0.19,1.16,4.2698,45.2588,-19.511599999999998,175,75
2026-05-07 18:24:33.408,5,-0.14,-0.17,1.17,4.8098,36.0388,-15.1616,175,75
2026-05-07 18:24:33.422,5,-0.14,-0.15,1.17,3.5397999999999996,32.1488,-10.8316,175,75
2026-05-07 18:24:33.433,5,-0.14,-0.15,1.16,2.0098000000000003,28.258799999999997,-6.0016,175,75
2026-05-07 18:24:33.446,5,-0.15,-0.14,1.16,0.18980000000000002,23.4788,-0.5316,175,75
2026-05-07 18:24:33.458,5,-0.14,-0.15,1.15,-2.5401999999999996,13.2888,8.1584,175,75
2026-05-07 18:24:33.468,5,-0.13,-0.16,1.15,-2.4501999999999997,9.228800000000001,11.9784,175,75
2026-05-07 18:24:33.526,5,-0.13,-0.19,1.13,-4.1602,-0.0011999999999998678,16.418400000000002,175,75
2026-05-07 18:24:33.537,5,-0.1,-0.2,1.13,-4.4702,-1.2011999999999998,16.988400000000002,175,75
2026-05-07 18:24:33.537,5,-0.09,-0.21,1.12,-4.5001999999999995,-1.1311999999999998,18.0684,175,75
2026-05-07 18:24:33.547,5,-0.1,-0.23,1.11,-3.8202,-0.25119999999999987,18.8384,175,75
2026-05-07 18:24:33.565,5,-0.14,-0.24,1.1,-2.8402000000000003,-0.8712,16.7484,175,75
2026-05-07 18:24:33.581,5,-0.14,-0.24,1.11,-2.2401999999999997,-2.0412,12.9384,175,75
2026-05-07 18:24:33.581,5,-0.14,-0.24,1.09,-1.2102,-2.7912,7.6884,175,75
2026-05-07 18:24:33.599,5,-0.13,-0.21,1.09,-0.4002,-3.9112,-1.5916000000000001,175,75
2026-05-07 18:24:33.610,5,-0.11,-0.21,1.1,-1.2902,-4.4112,-2.7716,175,75
2026-05-07 18:24:33.640,5,-0.07,-0.2,1.1,-3.1002,-4.2412,6.3284,175,75
2026-05-07 18:24:33.653,5,-0.08,-0.21,1.09,-3.8401999999999994,-3.7812,8.4084,175,75
2026-05-07 18:24:33.668,5,-0.09,-0.23,1.09,-3.3802000000000003,-3.6212,6.9684,175,75
2026-05-07 18:24:33.686,5,-0.09,-0.23,1.09,-2.6002,-4.4612,4.1684,175,75
2026-05-07 18:24:33.698,5,-0.09,-0.22,1.07,-1.6001999999999998,-8.3712,-0.8116,175,75
2026-05-07 18:24:33.723,5,-0.05,-0.22,1.05,-0.4102,-10.9512,-1.2115999999999998,175,75
2026-05-07 18:24:33.727,5,-0.02,-0.22,1.05,0.09980000000000006,-10.3212,0.8484,175,75
2026-05-07 18:24:33.738,5,-0.01,-0.22,1.04,0.3798,-8.6212,3.4184,175,75
2026-05-07 18:24:33.759,5,-0.04,-0.21,1.04,0.01980000000000004,-3.3611999999999997,2.7384,175,75
2026-05-07 18:24:33.772,5,-0.03,-0.21,1.05,-0.06019999999999992,-2.1912,-1.4416000000000002,175,75
2026-05-07 18:24:33.798,5,-0.01,-0.19,1.06,1.0198,-0.3011999999999997,-6.1116,175,75
2026-05-07 18:24:33.807,5,-0.02,-0.19,1.06,0.7198,-0.46119999999999983,-3.0316,175,75
2026-05-07 18:24:33.842,5,-0.02,-0.19,1.07,-2.0001999999999995,-1.6411999999999998,5.4284,175,75
2026-05-07 18:24:33.856,5,-0.02,-0.19,1.08,-2.4901999999999997,-0.9312,5.6584,175,75
2026-05-07 18:24:33.868,5,-0.03,-0.2,1.07,-2.2401999999999997,2.0787999999999998,3.7084,175,75
2026-05-07 18:24:33.880,5,-0.01,-0.21,1.07,-1.3901999999999999,2.3388000000000004,4.7384,175,75
2026-05-07 18:24:33.897,5,-0.02,-0.21,1.07,0.009800000000000031,2.7488000000000006,7.0184,175,75
2026-05-07 18:24:33.902,5,-0.05,-0.21,1.06,0.6598,3.5988,8.1584,175,75
2026-05-07 18:24:33.914,5,-0.06,-0.21,1.07,0.2398,3.9788,6.1984,175,75
2026-05-07 18:24:33.929,5,-0.06,-0.21,1.07,-1.9102,7.088800000000001,1.0784,175,75
2026-05-07 18:24:33.940,5,-0.05,-0.21,1.08,-2.3502,9.068800000000001,-0.021599999999999953,175,75
2026-05-07 18:24:33.951,5,-0.06,-0.2,1.08,-2.7901999999999996,11.488800000000001,0.4084000000000001,175,75
2026-05-07 18:24:33.968,5,-0.07,-0.2,1.09,-3.1102,14.3388,0.5484000000000001,175,75
2026-05-07 18:24:33.968,5,-0.08,-0.2,1.11,-3.5801999999999996,16.3388,0.7884000000000001,175,75
2026-05-07 18:24:33.979,5,-0.1,-0.2,1.13,-4.050199999999999,16.9788,0.4084000000000001,175,75
2026-05-07 18:24:33.989,5,-0.13,-0.19,1.14,-4.6402,16.488799999999998,-1.1315999999999997,175,75
2026-05-07 18:24:34.000,5,-0.15,-0.19,1.16,-5.8202,14.248800000000001,-4.1316,175,75
2026-05-07 18:24:34.027,5,-0.14,-0.17,1.2,-12.8502,6.078800000000001,-11.5016,175,75
2026-05-07 18:24:34.048,5,-0.14,-0.18,1.19,-15.1302,4.5388,-9.3116,175,75
2026-05-07 18:24:34.070,5,-0.25,-0.26,1.08,-10.8702,-16.7312,7.4184,175,75
2026-05-07 18:24:34.088,5,-0.26,-0.22,0.97,1.1898,-47.681200000000004,2.5184,175,75
2026-05-07 18:24:34.105,5,-0.11,-0.2,0.96,3.5198,-55.1712,1.4484,175,75
2026-05-07 18:24:34.117,5,0.04,-0.19,0.96,3.2298,-53.3412,8.2584,175,75
2026-05-07 18:24:34.117,5,0.1,-0.2,0.95,2.0298,-44.8012,16.2784,175,75
2026-05-07 18:24:34.128,5,0.12,-0.2,0.94,0.3598,-31.421200000000002,22.2284,175,75
2026-05-07 18:24:34.156,5,0.06,-0.23,0.93,-4.010199999999999,-2.4812,23.8884,175,75
2026-05-07 18:24:34.156,5,0.02,-0.25,0.95,-4.6902,8.0988,20.128400000000003,175,75
2026-05-07 18:24:34.170,5,-0.02,-0.28,0.99,-4.2702,14.8588,14.0684,175,75
2026-05-07 18:24:34.186,5,-0.05,-0.28,1.04,-3.0702,19.4588,7.0584,175,75
2026-05-07 18:24:34.186,5,-0.07,-0.3,1.08,-1.8501999999999998,21.9988,-0.5115999999999999,175,75
2026-05-07 18:24:34.219,5,-0.16,-0.28,1.13,3.3998,16.9788,-15.681600000000001,175,75
2026-05-07 18:24:34.235,5,-0.18,-0.26,1.14,3.6298000000000004,9.4688,-19.581599999999998,175,75
2026-05-07 18:24:34.235,5,-0.18,-0.24,1.15,2.8798000000000004,0.4788000000000001,-21.4516,175,75
2026-05-07 18:24:34.246,5,-0.15,-0.21,1.14,1.5598,-8.4712,-20.281599999999997,175,75
2026-05-07 18:24:34.260,5,-0.11,-0.2,1.12,-0.12019999999999997,-15.771199999999999,-16.2016,175,75
2026-05-07 18:24:34.270,5,-0.05,-0.2,1.1,-1.7802,-22.0012,-7.9016,175,75
2026-05-07 18:24:34.278,5,-0.0,-0.2,1.06,-2.8802000000000003,-25.671200000000002,2.6784,175,75
2026-05-07 18:24:34.303,5,0.03,-0.23,0.99,-3.9901999999999997,-26.921200000000002,21.608400000000003,175,75
2026-05-07 18:24:34.315,5,0.05,-0.25,0.98,-4.6002,-25.6812,26.6884,175,75
2026-05-07 18:24:34.325,5,0.07,-0.27,0.97,-4.7402,-20.8012,27.948400000000003,175,75
2026-05-07 18:24:34.336,5,0.08,-0.27,0.97,-4.840199999999999,-13.7112,24.628400000000003,175,75
2026-05-07 18:24:34.336,5,0.07,-0.26,0.97,-5.3302,-6.8911999999999995,17.2584,175,75
2026-05-07 18:24:34.349,5,0.07,-0.27,0.96,-5.7302,2.1688000000000005,7.6084,175,75
2026-05-07 18:24:34.361,5,0.08,-0.29,0.96,-4.9601999999999995,11.728800000000001,-0.0915999999999999,175,75
2026-05-07 18:24:34.382,5,0.05,-0.31,0.98,0.4398,25.8788,-4.9416,175,75
2026-05-07 18:24:34.393,5,0.02,-0.3,1.0,2.4298,29.3388,-4.4116,175,75
2026-05-07 18:24:34.405,5,-0.02,-0.3,1.02,3.6498,31.388799999999996,-4.6816,175,75
2026-05-07 18:24:34.427,5,-0.07,-0.3,1.07,4.2298,31.7188,-10.5816,175,75
2026-05-07 18:24:34.427,5,-0.09,-0.29,1.08,5.1298,31.388799999999996,-18.421599999999998,175,75
2026-05-07 18:24:34.440,5,-0.12,-0.27,1.07,7.0398000000000005,30.3688,-26.6816,175,75
2026-05-07 18:24:34.448,5,-0.13,-0.24,1.06,7.909800000000001,27.988799999999998,-35.221599999999995,175,75
2026-05-07 18:24:34.465,5,-0.13,-0.2,1.07,7.489800000000001,25.3588,-41.5216,175,75
2026-05-07 18:24:34.476,5,-0.08,-0.17,1.09,5.659800000000001,21.9588,-42.8916,175,75
2026-05-07 18:24:34.484,5,-0.03,-0.16,1.08,4.6298,18.9388,-38.4216,175,75
2026-05-07 18:24:34.493,5,-0.01,-0.15,1.07,4.2498000000000005,17.168799999999997,-27.7916,175,75
2026-05-07 18:24:34.509,5,-0.03,-0.13,1.04,3.6698000000000004,15.1788,-1.8416000000000001,175,75
2026-05-07 18:24:34.540,5,0.01,-0.18,1.03,2.0698,13.618800000000002,19.2584,175,75
2026-05-07 18:24:34.558,5,0.01,-0.19,1.03,2.2698,18.328799999999998,18.7784,175,75
2026-05-07 18:24:34.583,5,-0.05,-0.23,1.01,2.8898,34.6488,13.6584,175,75
2026-05-07 18:24:34.600,5,-0.12,-0.25,1.01,4.3998,38.7788,11.5784,175,75
2026-05-07 18:24:34.608,5,-0.13,-0.24,1.02,5.619800000000001,38.4388,10.0784,175,75
2026-05-07 18:24:34.623,5,-0.15,-0.24,1.02,6.619800000000001,37.4588,8.5784,175,75
2026-05-07 18:24:34.636,5,-0.14,-0.23,1.04,7.699800000000001,37.748799999999996,7.0784,175,75
2026-05-07 18:24:34.636,5,-0.14,-0.23,1.04,9.3198,38.7788,6.7084,175,75
2026-05-07 18:24:34.696,5,-0.17,-0.21,1.08,7.0898,36.1488,13.3684,175,75
2026-05-07 18:24:34.706,5,-0.2,-0.2,1.07,6.8398,33.8388,16.468400000000003,175,75
2026-05-07 18:24:34.707,5,-0.21,-0.2,1.06,5.4298,31.2988,17.3184,175,75
2026-05-07 18:24:34.718,5,-0.21,-0.21,1.06,4.1998,29.308799999999998,19.0284,175,75
2026-05-07 18:24:34.728,5,-0.2,-0.22,1.04,4.3198,26.828799999999998,22.2784,175,75
2026-05-07 18:24:34.740,5,-0.19,-0.25,1.03,5.0798000000000005,25.7488,26.168400000000002,175,75
2026-05-07 18:24:34.758,5,-0.22,-0.28,0.99,7.8498,27.258799999999997,28.8684,175,75
2026-05-07 18:24:34.775,5,-0.25,-0.29,0.97,8.4998,30.3288,27.218400000000003,175,75
2026-05-07 18:24:34.788,5,-0.29,-0.3,0.97,8.5098,33.8288,22.968400000000003,175,75
2026-05-07 18:24:34.788,5,-0.29,-0.31,0.97,9.4598,36.748799999999996,17.488400000000002,175,75
2026-05-07 18:24:34.799,5,-0.3,-0.32,0.98,11.6898,40.0888,11.2184,175,75
2026-05-07 18:24:34.809,5,-0.32,-0.31,1.0,14.2498,44.7688,3.4184,175,75
2026-05-07 18:24:34.822,5,-0.37,-0.29,1.01,15.9498,47.4388,-4.1916,175,75
2026-05-07 18:24:34.833,5,-0.4,-0.27,1.03,16.659799999999997,45.8388,-10.3016,175,75
2026-05-07 18:24:34.839,5,-0.42,-0.26,1.04,16.909799999999997,40.388799999999996,-13.2416,175,75
2026-05-07 18:24:34.847,5,-0.45,-0.23,1.05,17.689799999999998,34.0288,-16.5016,175,75
2026-05-07 18:24:34.875,5,-0.48,-0.17,1.04,18.779799999999998,21.7488,-25.101599999999998,175,75
2026-05-07 18:24:34.900,5,-0.4,-0.06,1.1,13.7498,5.2888,-29.421599999999998,175,75
2026-05-07 18:24:34.951,5,-0.4,-0.29,1.13,5.8198,-18.941200000000002,64.4284,175,75
2026-05-07 18:24:34.972,5,-0.45,-0.42,1.17,13.2098,-32.5212,69.1484,175,75
2026-05-07 18:24:34.985,5,-0.44,-0.5,1.18,16.4998,-38.3512,65.6784,175,75
2026-05-07 18:24:34.991,5,-0.48,-0.56,1.16,20.389799999999997,-40.0612,57.2284,175,75
2026-05-07 18:24:35.005,5,-0.58,-0.58,1.13,24.119799999999998,-41.8012,39.1084,175,75
2026-05-07 18:24:35.016,5,-0.66,-0.57,1.11,24.9698,-46.431200000000004,10.5784,175,75
2026-05-07 18:24:35.016,5,-0.68,-0.57,1.13,23.2898,-51.6312,-24.5916,175,75
2026-05-07 18:24:35.035,5,-0.59,-0.58,1.16,22.1998,-53.001200000000004,-60.1316,175,75
2026-05-07 18:24:35.035,5,-0.47,-0.61,1.16,26.189799999999998,-48.931200000000004,-86.7116,175,75
2026-05-07 18:24:35.046,5,-0.39,-0.6,1.16,35.5098,-40.0612,-101.8716,175,75
2026-05-07 18:24:35.065,5,-0.41,-0.55,1.2,42.4298,-33.5712,-110.69160000000001,175,75
2026-05-07 18:24:35.077,5,-0.46,-0.41,1.31,43.4298,-27.4612,-126.3416,175,75
2026-05-07 18:24:35.100,5,-0.47,-0.32,1.44,34.6398,-30.0412,-146.3116,175,75
2026-05-07 18:24:35.113,5,-0.45,-0.29,1.51,30.549799999999998,-33.3512,-154.9016,175,75
2026-05-07 18:24:35.126,5,-0.44,-0.27,1.56,27.6798,-39.3912,-160.48160000000001,175,75
2026-05-07 18:24:35.126,5,-0.44,-0.25,1.58,25.3098,-43.931200000000004,-162.76160000000002,175,75
2026-05-07 18:24:35.145,5,-0.46,-0.23,1.57,21.659799999999997,-53.361200000000004,-158.10160000000002,175,75
2026-05-07 18:24:35.145,5,-0.46,-0.22,1.53,15.3298,-64.1912,-149.1916,175,75
2026-05-07 18:24:35.172,5,-0.4,-0.29,1.44,-3.1702000000000004,-77.5112,-119.9316,175,75
2026-05-07 18:24:35.178,5,-0.4,-0.35,1.4,-8.9902,-80.5112,-106.1316,175,75
2026-05-07 18:24:35.200,5,-0.4,-0.39,1.39,-11.4102,-78.91120000000001,-102.6016,175,75
2026-05-07 18:24:35.200,5,-0.44,-0.42,1.35,-8.8102,-71.91120000000001,-115.7916,175,75
2026-05-07 18:24:35.210,5,-0.52,-0.4,1.32,0.03980000000000006,-66.1612,-148.0016,175,75
2026-05-07 18:24:35.222,5,-0.43,-0.38,1.29,10.0398,-61.4612,-180.4016,175,75
2026-05-07 18:24:35.237,5,-0.28,-0.39,1.28,16.8098,-55.0912,-191.3016,175,75
2026-05-07 18:24:35.237,5,-0.17,-0.4,1.3,21.7598,-47.4212,-181.9616,175,75
2026-05-07 18:24:35.269,5,-0.41,-0.3,1.18,30.5098,-31.3112,-182.0216,175,75
2026-05-07 18:24:35.295,5,-0.41,-0.22,1.11,32.269800000000004,-26.831200000000003,-224.35160000000002,175,75
2026-05-07 18:24:35.303,5,-0.34,-0.17,1.11,33.699799999999996,-19.3412,-244.6116,175,75
2026-05-07 18:24:35.309,5,-0.3,-0.12,1.14,33.3198,-10.1912,-249.3816,175,75
2026-05-07 18:24:35.320,5,-0.29,-0.08,1.15,31.549799999999998,-3.8512,-249.3816,175,75
2026-05-07 18:24:35.331,5,-0.3,-0.04,1.14,28.3998,-0.9312,-249.3816,175,75
2026-05-07 18:24:35.343,5,-0.32,-0.01,1.13,25.069799999999997,0.7688000000000001,-249.3816,175,75
2026-05-07 18:24:35.355,5,-0.35,0.02,1.12,21.4898,1.3588,-249.3816,175,75
2026-05-07 18:24:35.355,5,-0.37,0.04,1.12,17.1998,-0.8712,-249.3816,175,75
2026-05-07 18:24:35.375,5,-0.36,0.04,1.11,12.6198,-6.1012,-249.3816,175,75
2026-05-07 18:24:35.398,5,-0.46,-0.07,0.93,8.979800000000001,-16.0912,-213.1116,175,75
2026-05-07 18:24:35.409,5,-0.52,-0.05,0.9,10.469800000000001,-23.3012,-212.2216,175,75
2026-05-07 18:24:35.417,5,-0.5,-0.03,0.9,11.8798,-30.1112,-221.7716,175,75
2026-05-07 18:24:35.436,5,-0.44,-0.01,0.91,11.729800000000001,-35.431200000000004,-233.5316,175,75
2026-05-07 18:24:35.455,5,-0.36,-0.02,0.84,10.0898,-33.7812,-248.9316,175,75
2026-05-07 18:24:35.457,5,-0.41,-0.02,0.79,10.0998,-31.401200000000003,-249.3816,175,75
2026-05-07 18:24:35.471,5,-0.45,-0.01,0.74,10.0698,-31.6812,-249.3816,175,75
2026-05-07 18:24:35.482,5,-0.46,0.0,0.71,9.1698,-31.8712,-249.3816,175,75
2026-05-07 18:24:35.493,5,-0.44,-0.0,0.69,9.1998,-31.3412,-249.3816,175,75
2026-05-07 18:24:35.520,5,-0.44,0.06,0.68,12.7698,-25.651200000000003,-249.3816,175,75
2026-05-07 18:24:35.536,5,-0.49,0.1,0.66,14.8498,-28.921200000000002,-249.3816,175,75
2026-05-07 18:24:35.546,5,-0.51,0.14,0.64,17.299799999999998,-36.6712,-249.3816,175,75
2026-05-07 18:24:35.557,5,-0.47,0.17,0.62,16.589799999999997,-56.4812,-249.3816,175,75
2026-05-07 18:24:35.575,5,-0.44,0.16,0.58,14.1298,-66.3312,-249.3816,175,75
2026-05-07 18:24:35.591,5,-0.42,0.15,0.56,12.6498,-71.9312,-249.3816,175,75
2026-05-07 18:24:35.591,5,-0.41,0.14,0.54,11.9098,-71.4412,-249.3816,175,75
2026-05-07 18:24:35.604,5,-0.39,0.14,0.54,11.5298,-64.6712,-249.3816,175,75
2026-05-07 18:24:35.616,5,-0.38,0.14,0.55,10.469800000000001,-51.4012,-249.3816,175,75
2026-05-07 18:24:35.616,5,-0.37,0.16,0.57,8.719800000000001,-32.5912,-249.3816,175,75
2026-05-07 18:24:35.626,5,-0.38,0.19,0.61,4.0598,-13.251199999999999,-249.3816,175,75
2026-05-07 18:24:35.645,5,-0.41,0.23,0.63,-4.2202,4.7788,-249.3816,175,75
2026-05-07 18:24:35.656,5,-0.42,0.25,0.65,-10.9602,12.9588,-249.3816,175,75
2026-05-07 18:24:35.657,5,-0.35,0.24,0.66,-15.020199999999999,16.4388,-249.3816,175,75
2026-05-07 18:24:35.677,5,-0.31,0.24,0.66,-13.280199999999999,15.4888,-249.3816,175,75
2026-05-07 18:24:35.677,5,-0.33,0.26,0.65,-6.9902,7.6388,-249.3816,175,75
2026-05-07 18:24:35.687,5,-0.39,0.32,0.66,1.8398,-6.5312,-246.0216,175,75
2026-05-07 18:24:35.726,5,-0.42,0.29,0.68,2.8798000000000004,-20.691200000000002,-235.8316,175,75
2026-05-07 18:24:35.736,5,-0.41,0.3,0.67,6.0098,-19.8612,-228.85160000000002,175,75
2026-05-07 18:24:35.747,5,-0.39,0.37,0.7,10.3398,-18.6512,-224.4416,175,75
2026-05-07 18:24:35.757,5,-0.33,0.42,0.74,14.4598,-19.2112,-221.7016,175,75
2026-05-07 18:24:35.757,5,-0.26,0.49,0.82,16.839799999999997,-20.941200000000002,-214.98160000000001,175,75
2026-05-07 18:24:35.771,5,-0.2,0.56,0.9,15.1698,-23.9512,-202.98160000000001,175,75
2026-05-07 18:24:35.784,5,-0.16,0.61,0.95,9.6298,-24.581200000000003,-191.57160000000002,175,75
2026-05-07 18:24:35.797,5,-0.11,0.63,0.97,5.0098,-23.9512,-175.4416,175,75
2026-05-07 18:24:35.797,5,-0.09,0.58,0.97,1.6498,-20.761200000000002,-156.2816,175,75
2026-05-07 18:24:35.808,5,-0.11,0.56,0.96,2.3998,-16.8312,-135.8016,175,75
2026-05-07 18:24:35.819,5,-0.11,0.55,0.95,4.2198,-16.1212,-117.47160000000001,175,75
2026-05-07 18:24:35.829,5,-0.12,0.57,0.96,7.2798,-15.2412,-104.1616,175,75
2026-05-07 18:24:35.838,5,-0.11,0.6,0.98,10.1498,-13.351199999999999,-97.6816,175,75
2026-05-07 18:24:35.854,5,-0.06,0.64,1.03,10.7498,-10.1612,-92.3716,175,75
2026-05-07 18:24:35.868,5,-0.0,0.63,1.08,6.3998,0.7088000000000001,-76.17160000000001,175,75
2026-05-07 18:24:35.879,5,0.04,0.63,1.11,4.5298,3.8188,-58.1316,175,75
2026-05-07 18:24:35.890,5,0.06,0.62,1.14,2.5898000000000003,7.9688,-37.2816,175,75
2026-05-07 18:24:35.906,5,0.07,0.6,1.17,2.2598000000000003,12.6288,-17.5016,175,75
2026-05-07 18:24:35.917,5,0.06,0.6,1.19,2.5598,15.658800000000001,1.1884000000000001,175,75
2026-05-07 18:24:35.917,5,0.04,0.6,1.21,2.1498,17.6788,12.4184,175,75
2026-05-07 18:24:35.928,5,0.03,0.58,1.22,0.29980000000000007,19.0888,18.2784,175,75
2026-05-07 18:24:35.945,5,0.04,0.56,1.25,-1.3402,18.328799999999998,22.2084,175,75
2026-05-07 18:24:35.956,5,0.06,0.56,1.31,-2.9802,14.9488,28.808400000000002,175,75
2026-05-07 18:24:35.983,5,0.08,0.47,1.39,-0.1502,-3.1311999999999998,35.388400000000004,175,75
2026-05-07 18:24:35.999,5,0.02,0.39,1.31,4.2398,-6.741199999999999,27.988400000000002,175,75
2026-05-07 18:24:35.999,5,-0.04,0.32,1.23,10.5298,-8.2112,16.1584,175,75
2026-05-07 18:24:36.021,5,0.06,0.36,1.33,9.729800000000001,-5.6212,3.6284,175,75
2026-05-07 18:24:36.036,5,0.14,0.35,1.37,2.1198,-2.6712,12.5684,175,75
2026-05-07 18:24:36.048,5,0.2,0.29,1.38,-2.3701999999999996,5.6288,25.0284,175,75
2026-05-07 18:24:36.048,5,0.25,0.27,1.45,-5.800199999999999,11.9288,43.068400000000004,175,75
2026-05-07 18:24:36.061,5,0.31,0.44,1.72,-9.6302,5.6188,59.9684,175,75
2026-05-07 18:24:36.083,5,-0.03,0.44,1.68,-18.9602,29.598799999999997,-21.261599999999998,175,75
2026-05-07 18:24:36.096,5,-0.08,0.34,1.58,-22.8002,19.308799999999998,-24.6816,175,75
2026-05-07 18:24:36.110,5,-0.11,0.22,1.47,-30.6002,9.8788,6.7684,175,75
2026-05-07 18:24:36.121,5,-0.1,0.23,1.53,-30.6502,1.8687999999999998,18.648400000000002,175,75
2026-05-07 18:24:36.134,5,-0.07,0.27,1.61,-29.7102,-7.911199999999999,18.7084,175,75
2026-05-07 18:24:36.145,5,-0.02,0.25,1.63,-28.340200000000003,-14.011199999999999,11.6684,175,75
2026-05-07 18:24:36.156,5,-0.03,0.22,1.57,-25.1202,-15.261199999999999,4.0684000000000005,175,75
2026-05-07 18:24:36.167,5,-0.08,0.23,1.5,-22.6502,-18.531200000000002,-2.8016,175,75
2026-05-07 18:24:36.167,5,-0.07,0.27,1.51,-23.1702,-24.7912,-10.0016,175,75
2026-05-07 18:24:36.180,5,-0.0,0.32,1.52,-25.500200000000003,-29.401200000000003,-14.0616,175,75
2026-05-07 18:24:36.191,5,0.04,0.35,1.51,-27.970200000000002,-30.5512,-16.121599999999997,175,75
2026-05-07 18:24:36.203,5,0.05,0.38,1.48,-28.8302,-29.351200000000002,-18.1516,175,75
2026-05-07 18:24:36.217,5,0.05,0.42,1.46,-29.840200000000003,-28.2312,-18.7016,175,75
2026-05-07 18:24:36.217,5,0.06,0.45,1.45,-30.7402,-28.1112,-16.511599999999998,175,75
2026-05-07 18:24:36.231,5,0.09,0.48,1.44,-32.2202,-28.5712,-11.701600000000001,175,75
2026-05-07 18:24:36.242,5,0.12,0.5,1.43,-34.6002,-26.831200000000003,-2.8516,175,75
2026-05-07 18:24:36.252,5,0.16,0.46,1.38,-36.5402,-21.031200000000002,11.548399999999999,175,75
2026-05-07 18:24:36.263,5,0.21,0.42,1.36,-38.6102,-12.4812,33.7884,175,75
2026-05-07 18:24:36.276,5,0.22,0.38,1.35,-41.6502,-2.3211999999999997,63.2884,175,75
2026-05-07 18:24:36.287,5,0.21,0.33,1.34,-45.440200000000004,7.268800000000001,93.66839999999999,175,75
2026-05-07 18:24:36.287,5,0.17,0.27,1.31,-47.3902,14.048800000000002,118.0484,175,75
2026-05-07 18:24:36.297,5,0.09,0.19,1.29,-46.0702,18.2888,133.01839999999999,175,75
2026-05-07 18:24:36.309,5,0.02,0.13,1.29,-42.7902,16.7488,136.2884,175,75
2026-05-07 18:24:36.320,5,-0.05,0.08,1.29,-38.5202,12.0388,127.8984,175,75
2026-05-07 18:24:36.330,5,-0.08,0.04,1.27,-34.9002,9.418800000000001,110.1284,175,75
2026-05-07 18:24:36.343,5,-0.1,-0.0,1.26,-31.840200000000003,9.8388,88.0684,175,75
2026-05-07 18:24:36.354,5,-0.08,-0.03,1.25,-28.0802,8.2788,67.44839999999999,175,75
2026-05-07 18:24:36.363,5,-0.05,-0.03,1.24,-23.8002,6.9688,51.3284,175,75
2026-05-07 18:24:36.376,5,-0.01,-0.01,1.24,-19.8002,8.0188,39.9384,175,75
2026-05-07 18:24:36.386,5,-0.0,0.03,1.22,-17.720200000000002,9.728800000000001,34.2284,175,75
2026-05-07 18:24:36.398,5,-0.01,0.07,1.17,-19.5502,15.6788,31.9084,175,75
2026-05-07 18:24:36.408,5,-0.01,0.07,1.15,-21.5102,20.468799999999998,33.1284,175,75
2026-05-07 18:24:36.418,5,0.01,0.08,1.16,-24.020200000000003,24.3888,39.388400000000004,175,75
2026-05-07 18:24:36.446,5,-0.03,0.07,1.14,-28.5102,30.998799999999996,48.4884,175,75
2026-05-07 18:24:36.446,5,-0.07,0.06,1.11,-29.410200000000003,33.7988,47.5384,175,75
2026-05-07 18:24:36.465,5,-0.06,0.04,1.11,-29.250200000000003,34.1288,48.7384,175,75
2026-05-07 18:24:36.486,5,-0.04,0.02,1.14,-32.8602,32.068799999999996,57.028400000000005,175,75
2026-05-07 18:24:36.486,5,-0.07,0.0,1.11,-33.3802,33.068799999999996,57.1884,175,75
2026-05-07 18:24:36.498,5,-0.1,-0.01,1.07,-31.980200000000004,33.3488,53.958400000000005,175,75
2026-05-07 18:24:36.508,5,-0.12,0.01,1.06,-32.580200000000005,33.1988,48.3984,175,75
2026-05-07 18:24:36.519,5,-0.12,0.0,1.04,-33.1802,31.9788,43.388400000000004,175,75
2026-05-07 18:24:36.533,5,-0.11,-0.01,1.01,-32.1502,31.678799999999995,39.318400000000004,175,75
2026-05-07 18:24:36.543,5,-0.1,-0.01,0.99,-28.8502,32.0088,37.778400000000005,175,75
2026-05-07 18:24:36.556,5,-0.09,0.01,0.98,-25.630200000000002,31.8288,38.208400000000005,175,75
2026-05-07 18:24:36.568,5,-0.06,-0.01,0.97,-22.9902,33.2688,40.138400000000004,175,75
2026-05-07 18:24:36.568,5,-0.05,-0.01,0.96,-19.7802,33.8988,44.3584,175,75
2026-05-07 18:24:36.578,5,-0.05,0.01,0.99,-18.1002,30.8388,50.598400000000005,175,75
2026-05-07 18:24:36.589,5,-0.05,-0.0,0.98,-19.1002,25.238799999999998,58.2184,175,75
2026-05-07 18:24:36.599,5,-0.07,-0.03,0.93,-19.560200000000002,21.0388,64.4984,175,75
2026-05-07 18:24:36.611,5,-0.08,-0.05,0.92,-20.9602,19.098799999999997,66.10839999999999,175,75
2026-05-07 18:24:36.625,5,-0.09,-0.1,0.88,-21.4402,17.1588,64.3284,175,75
2026-05-07 18:24:36.638,5,-0.09,-0.1,0.87,-20.6702,13.1088,60.4684,175,75
2026-05-07 18:24:36.647,5,-0.07,-0.07,0.85,-20.410200000000003,8.3588,56.138400000000004,175,75
2026-05-07 18:24:36.647,5,-0.05,-0.1,0.82,-20.0302,5.348800000000001,51.2184,175,75
2026-05-07 18:24:36.656,5,-0.04,-0.11,0.76,-18.7602,5.4588,44.6184,175,75
2026-05-07 18:24:36.668,5,-0.04,-0.11,0.72,-17.0302,8.168800000000001,39.5784,175,75
2026-05-07 18:24:36.683,5,-0.01,-0.09,0.7,-17.1002,8.8388,38.318400000000004,175,75
2026-05-07 18:24:36.693,5,0.02,-0.09,0.7,-18.5802,7.2788,42.6684,175,75
2026-05-07 18:24:36.706,5,0.05,-0.11,0.66,-18.2302,2.4388,51.1784,175,75
2026-05-07 18:24:36.716,5,0.04,-0.15,0.61,-16.0802,-0.7111999999999998,59.4684,175,75
2026-05-07 18:24:36.723,5,0.02,-0.19,0.57,-11.8002,-3.1412,63.6084,175,75
2026-05-07 18:24:36.736,5,-0.01,-0.19,0.53,-8.1202,-4.0611999999999995,61.3084,175,75
2026-05-07 18:24:36.753,5,0.0,-0.11,0.53,-6.9302,-4.3212,44.1284,175,75
2026-05-07 18:24:36.766,5,0.01,-0.09,0.53,-9.860199999999999,-1.6211999999999998,34.4484,175,75
2026-05-07 18:24:36.771,5,0.04,-0.09,0.52,-11.3402,0.8288000000000002,25.8684,175,75
2026-05-07 18:24:36.791,5,0.1,-0.07,0.55,-10.6302,0.7787999999999999,24.308400000000002,175,75
2026-05-07 18:24:36.791,5,0.14,-0.05,0.58,-9.5902,-1.3512,30.7984,175,75
2026-05-07 18:24:36.802,5,0.16,-0.05,0.58,-8.1702,-4.2612,41.4284,175,75
2026-05-07 18:24:36.820,5,0.12,-0.11,0.54,0.5298,-9.5912,57.958400000000005,175,75
2026-05-07 18:24:36.830,5,0.07,-0.14,0.52,8.5698,-9.3612,56.3584,175,75
2026-05-07 18:24:36.843,5,0.07,-0.13,0.54,15.1798,-6.6312,48.8084,175,75
2026-05-07 18:24:36.853,5,0.12,-0.13,0.62,18.749799999999997,-3.3411999999999997,44.708400000000005,175,75
2026-05-07 18:24:36.863,5,0.17,-0.12,0.68,19.8798,-1.8512,43.6784,175,75
2026-05-07 18:24:36.874,5,0.18,-0.13,0.74,21.159799999999997,-1.0912,42.9084,175,75
2026-05-07 18:24:36.888,5,0.17,-0.16,0.76,31.1998,7.7788,26.3484,175,75
2026-05-07 18:24:36.899,5,0.17,-0.15,0.77,33.4598,17.4988,17.1884,175,75
2026-05-07 18:24:36.909,5,0.16,-0.13,0.78,31.8098,30.2988,9.7584,175,75
2026-05-07 18:24:36.921,5,0.14,-0.12,0.77,28.8598,44.4388,6.4584,175,75
2026-05-07 18:24:36.932,5,0.09,-0.11,0.79,26.729799999999997,57.7688,3.2484,175,75
2026-05-07 18:24:36.966,5,0.03,-0.07,1.04,30.1798,84.8988,-5.9716000000000005,175,75
2026-05-07 18:24:36.980,5,0.02,-0.03,1.14,32.919799999999995,90.2588,-6.2416,175,75
2026-05-07 18:24:36.990,5,-0.01,0.03,1.26,36.0098,93.9088,-6.6116,175,75
2026-05-07 18:24:37.002,5,-0.01,0.14,1.38,35.699799999999996,96.7488,-8.4116,175,75
2026-05-07 18:24:37.002,5,-0.01,0.28,1.51,30.299799999999998,97.2088,-7.881600000000001,175,75
2026-05-07 18:24:37.013,5,-0.0,0.39,1.59,19.9298,96.0288,-2.7516,175,75
2026-05-07 18:24:37.037,5,-0.09,0.39,1.62,-3.5401999999999996,103.2488,14.298399999999999,175,75
2026-05-07 18:24:37.037,5,-0.22,0.29,1.53,-16.7602,104.3188,23.448400000000003,175,75
2026-05-07 18:24:37.048,5,-0.38,0.15,1.43,-25.630200000000002,99.6188,22.3884,175,75
2026-05-07 18:24:37.062,5,-0.46,0.07,1.33,-32.0902,95.1288,15.6884,175,75
2026-05-07 18:24:37.073,5,-0.5,-0.01,1.23,-34.7102,92.9888,9.6184,175,75
2026-05-07 18:24:37.086,5,-0.56,-0.03,1.21,-33.5602,88.8288,3.3184,175,75
2026-05-07 18:24:37.097,5,-0.57,0.0,1.27,-33.1802,81.4388,0.008400000000000074,175,75
2026-05-07 18:24:37.097,5,-0.55,0.05,1.37,-35.5202,74.1388,2.2684,175,75
2026-05-07 18:24:37.108,5,-0.57,0.07,1.44,-39.1002,67.7088,7.5584,175,75
2026-05-07 18:24:37.118,5,-0.66,0.1,1.45,-43.5402,59.7888,8.8484,175,75
2026-05-07 18:24:37.128,5,-0.72,0.13,1.41,-50.9002,45.9688,6.9084,175,75
2026-05-07 18:24:37.153,5,-0.67,0.16,1.29,-71.5602,15.4488,4.9184,175,75
2026-05-07 18:24:37.171,5,-0.53,0.09,1.12,-83.9402,-7.6012,25.128400000000003,175,75
2026-05-07 18:24:37.182,5,-0.47,0.07,1.04,-84.0202,-14.8712,36.8084,175,75
2026-05-07 18:24:37.193,5,-0.42,0.06,0.96,-82.9602,-20.101200000000002,47.5484,175,75
2026-05-07 18:24:37.205,5,-0.37,0.08,0.9,-80.8102,-22.1812,57.4484,175,75
2026-05-07 18:24:37.216,5,-0.32,0.09,0.86,-79.7302,-23.3012,66.0684,175,75
2026-05-07 18:24:37.216,5,-0.28,0.12,0.84,-81.0602,-24.691200000000002,75.80839999999999,175,75
2026-05-07 18:24:37.228,5,-0.26,0.14,0.81,-83.4702,-24.7712,85.3984,175,75
2026-05-07 18:24:37.247,5,-0.27,0.13,0.77,-85.2202,-24.5212,93.2584,175,75
2026-05-07 18:24:37.257,5,-0.28,0.11,0.72,-85.67020000000001,-23.7912,100.02839999999999,175,75
2026-05-07 18:24:37.268,5,-0.3,0.07,0.67,-83.8202,-21.991200000000003,104.85839999999999,175,75
2026-05-07 18:24:37.279,5,-0.33,-0.02,0.62,-72.6002,-12.8212,105.69839999999999,175,75
2026-05-07 18:24:37.290,5,-0.36,-0.12,0.6,-61.0902,-3.8611999999999997,105.96839999999999,175,75
2026-05-07 18:24:37.300,5,-0.4,-0.18,0.62,-51.5202,2.3488,106.38839999999999,175,75
2026-05-07 18:24:37.310,5,-0.37,-0.13,0.66,-46.7302,6.4688,108.8684,175,75
2026-05-07 18:24:37.321,5,-0.32,-0.18,0.72,-53.4102,12.5488,131.6084,175,75
2026-05-07 18:24:37.333,5,-0.39,-0.2,0.78,-68.6602,20.8688,154.8184,175,75
2026-05-07 18:24:37.346,5,-0.47,-0.26,0.83,-85.5102,26.4488,171.9784,175,75
2026-05-07 18:24:37.357,5,-0.56,-0.35,0.87,-97.67020000000001,28.808799999999998,179.0984,175,75
2026-05-07 18:24:37.357,5,-0.66,-0.41,0.93,-103.4602,29.458799999999997,173.01839999999999,175,75
2026-05-07 18:24:37.376,5,-0.81,-0.42,1.01,-107.6602,30.888799999999996,147.7484,175,75
2026-05-07 18:24:37.385,5,-0.96,-0.45,1.05,-108.1602,26.3788,103.7384,175,75
2026-05-07 18:24:37.390,5,-0.99,-0.47,1.08,-100.8102,16.578799999999998,50.9484,175,75
2026-05-07 18:24:37.406,5,-0.96,-0.45,1.06,-91.4402,5.508800000000001,14.1684,175,75
2026-05-07 18:24:37.409,5,-0.89,-0.42,1.01,-77.3302,-9.3012,-5.1316,175,75
2026-05-07 18:24:37.427,5,-0.82,-0.39,0.94,-63.50020000000001,-30.2212,-0.7315999999999999,175,75
2026-05-07 18:24:37.427,5,-0.72,-0.31,0.93,-52.4102,-53.6712,14.4284,175,75
2026-05-07 18:24:37.447,5,-0.6,-0.28,0.92,-43.6602,-71.9812,34.4884,175,75
2026-05-07 18:24:37.447,5,-0.46,-0.25,0.88,-30.2302,-85.6312,61.4884,175,75
2026-05-07 18:24:37.476,5,-0.33,-0.09,0.9,-9.0002,-88.4812,89.8684,175,75
2026-05-07 18:24:37.476,5,-0.26,-0.03,0.91,-3.9402,-80.6212,88.60839999999999,175,75
2026-05-07 18:24:37.495,5,-0.19,-0.03,0.91,-4.2002,-65.5612,87.9784,175,75
2026-05-07 18:24:37.510,5,-0.19,-0.1,0.86,-2.5001999999999995,-45.9112,92.1784,175,75
2026-05-07 18:24:37.516,5,-0.2,-0.1,0.89,-2.3202,-23.2212,101.77839999999999,175,75
2026-05-07 18:24:37.516,5,-0.3,-0.14,0.92,-8.6802,-5.9312000000000005,116.2984,175,75
2026-05-07 18:24:37.543,5,-0.4,-0.2,0.91,-15.780199999999999,3.3688,129.6684,175,75
2026-05-07 18:24:37.543,5,-0.5,-0.27,0.89,-19.6402,6.758800000000001,136.8584,175,75
2026-05-07 18:24:37.554,5,-0.59,-0.33,0.9,-19.1902,3.4488,136.9184,175,75
2026-05-07 18:24:37.564,5,-0.66,-0.38,0.91,-17.0702,-3.5312,130.3884,175,75
2026-05-07 18:24:37.579,5,-0.7,-0.42,0.91,-12.780199999999999,-13.6912,120.5184,175,75
2026-05-07 18:24:37.592,5,-0.72,-0.47,0.92,-2.5401999999999996,-37.3812,95.1584,175,75
2026-05-07 18:24:37.610,5,-0.64,-0.52,0.91,10.979800000000001,-58.9712,67.4784,175,75
2026-05-07 18:24:37.628,5,-0.57,-0.53,0.9,20.1098,-69.1312,55.8684,175,75
2026-05-07 18:24:37.628,5,-0.49,-0.52,0.88,28.5798,-76.4512,45.9284,175,75
2026-05-07 18:24:37.655,5,-0.4,-0.5,0.86,37.5098,-77.2312,35.5084,175,75
2026-05-07 18:24:37.679,5,-0.28,-0.36,0.79,51.6198,-48.6012,-4.8416,175,75
2026-05-07 18:24:37.679,5,-0.27,-0.31,0.77,51.0898,-30.0712,-27.851599999999998,175,75
2026-05-07 18:24:37.699,5,-0.28,-0.25,0.75,44.5398,8.6388,-71.33160000000001,175,75
2026-05-07 18:24:37.715,5,-0.27,-0.23,0.77,43.5898,29.2188,-86.0616,175,75
2026-05-07 18:24:37.715,5,-0.29,-0.21,0.83,44.2798,48.7888,-97.7716,175,75
2026-05-07 18:24:37.739,5,-0.35,-0.16,0.97,53.7998,72.2888,-113.8816,175,75
2026-05-07 18:24:37.752,5,-0.37,-0.12,1.02,57.3398,72.0588,-107.47160000000001,175,75
2026-05-07 18:24:37.762,5,-0.42,-0.09,1.05,57.3998,67.08879999999999,-92.0916,175,75
2026-05-07 18:24:37.772,5,-0.49,-0.1,1.03,54.6098,58.2188,-71.64160000000001,175,75
2026-05-07 18:24:37.776,5,-0.58,-0.11,0.97,52.059799999999996,46.7088,-52.0316,175,75
2026-05-07 18:24:37.787,5,-0.65,-0.16,0.92,50.7898,35.1288,-39.0216,175,75
2026-05-07 18:24:37.799,5,-0.68,-0.23,0.85,54.1098,21.398799999999998,-27.101599999999998,175,75
2026-05-07 18:24:37.809,5,-0.68,-0.27,0.84,58.3698,8.318800000000001,-21.0616,175,75
2026-05-07 18:24:37.819,5,-0.68,-0.29,0.84,64.1498,-2.1912,-26.821599999999997,175,75
2026-05-07 18:24:37.836,5,-0.64,-0.28,0.89,69.8098,-7.8712,-47.3916,175,75
2026-05-07 18:24:37.847,5,-0.55,-0.28,1.0,75.4298,-14.9612,-73.4016,175,75
2026-05-07 18:24:37.847,5,-0.46,-0.26,1.12,83.0098,-22.9312,-101.30160000000001,175,75
2026-05-07 18:24:37.861,5,-0.35,-0.18,1.33,90.5498,-38.2012,-126.08160000000001,175,75
2026-05-07 18:24:37.871,5,-0.17,-0.05,1.59,89.1798,-54.8012,-151.5316,175,75
2026-05-07 18:24:37.886,5,0.05,0.04,1.68,90.21979999999999,-62.3512,-167.1716,175,75
2026-05-07 18:24:37.886,5,0.27,0.22,1.72,95.5098,-54.8912,-165.3116,175,75
2026-05-07 18:24:37.898,5,0.33,0.46,1.68,89.71979999999999,-22.3112,-162.9716,175,75
2026-05-07 18:24:37.913,5,0.29,0.46,1.53,70.2798,22.578799999999998,-156.3816,175,75
2026-05-07 18:24:37.926,5,0.17,0.3,1.27,53.559799999999996,58.0888,-129.2816,175,75
2026-05-07 18:24:37.926,5,-0.07,0.11,1.02,49.1398,75.3488,-86.4816,175,75
2026-05-07 18:24:37.937,5,-0.27,-0.07,0.85,47.3598,84.0088,-48.001599999999996,175,75
2026-05-07 18:24:37.948,5,-0.42,-0.22,0.77,45.1498,80.5588,-13.1316,175,75
2026-05-07 18:24:37.973,5,-0.75,-0.36,0.84,27.959799999999998,49.5488,37.2684,175,75
2026-05-07 18:24:37.983,5,-0.98,-0.4,0.91,23.909799999999997,25.418799999999997,10.6784,175,75
2026-05-07 18:24:37.994,5,-1.07,-0.46,0.99,29.549799999999998,-2.5612,-60.4116,175,75
2026-05-07 18:24:38.006,5,-0.98,-0.48,0.98,47.739799999999995,-29.1312,-142.8816,175,75
2026-05-07 18:24:38.006,5,-0.76,-0.33,0.92,73.2398,-42.1312,-209.1816,175,75
2026-05-07 18:24:38.019,5,-0.63,-0.07,0.89,89.9298,-42.2112,-249.3816,175,75
2026-05-07 18:24:38.031,5,-0.49,0.15,0.91,91.5298,-35.4912,-249.3816,175,75
2026-05-07 18:24:38.047,5,-0.22,0.36,0.97,74.35979999999999,-13.771199999999999,-249.3816,175,75
2026-05-07 18:24:38.058,5,-0.15,0.41,1.03,64.2098,-3.1612,-237.2516,175,75
2026-05-07 18:24:38.068,5,-0.17,0.38,1.05,53.3698,8.7888,-189.4616,175,75
2026-05-07 18:24:38.086,5,-0.29,0.33,1.02,44.5998,20.5688,-146.8716,175,75
2026-05-07 18:24:38.092,5,-0.42,0.29,0.96,41.6198,28.5188,-113.47160000000001,175,75
2026-05-07 18:24:38.102,5,-0.55,0.24,0.94,41.4598,29.748799999999996,-92.3516,175,75
2026-05-07 18:24:38.110,5,-0.61,0.19,0.95,41.559799999999996,24.578799999999998,-81.94160000000001,175,75
2026-05-07 18:24:38.123,5,-0.59,0.13,0.94,44.7498,13.3988,-74.2916,175,75
2026-05-07 18:24:38.136,5,-0.6,0.11,0.97,48.6098,3.0988,-73.22160000000001,175,75
2026-05-07 18:24:38.147,5,-0.59,0.09,0.97,51.7798,-8.4812,-78.03160000000001,175,75
2026-05-07 18:24:38.156,5,-0.55,0.08,0.96,55.449799999999996,-18.6112,-83.44160000000001,175,75
2026-05-07 18:24:38.156,5,-0.54,0.08,0.92,56.8198,-25.5412,-90.8416,175,75
2026-05-07 18:24:38.176,5,-0.53,0.11,0.88,55.7998,-29.5612,-99.6816,175,75
2026-05-07 18:24:38.186,5,-0.49,0.13,0.86,53.2198,-32.8312,-105.22160000000001,175,75
2026-05-07 18:24:38.196,5,-0.45,0.14,0.85,50.5498,-35.5512,-102.8416,175,75
2026-05-07 18:24:38.196,5,-0.43,0.18,0.86,47.3298,-33.7112,-104.1216,175,75
2026-05-07 18:24:38.211,5,-0.42,0.22,0.87,44.199799999999996,-28.691200000000002,-107.19160000000001,175,75
2026-05-07 18:24:38.222,5,-0.39,0.26,0.9,41.989799999999995,-20.9612,-110.1216,175,75
2026-05-07 18:24:38.233,5,-0.37,0.27,0.91,42.4298,-11.5612,-111.17160000000001,175,75
2026-05-07 18:24:38.241,5,-0.37,0.32,0.96,45.6398,-4.7812,-107.61160000000001,175,75
2026-05-07 18:24:38.257,5,-0.36,0.39,1.02,47.879799999999996,-2.8211999999999997,-100.25160000000001,175,75
2026-05-07 18:24:38.269,5,-0.36,0.41,1.08,45.3598,-5.2012,-86.25160000000001,175,75
2026-05-07 18:24:38.269,5,-0.36,0.39,1.12,38.489799999999995,-9.1912,-70.80160000000001,175,75
2026-05-07 18:24:38.279,5,-0.35,0.34,1.11,27.8798,-13.4612,-53.0916,175,75
2026-05-07 18:24:38.300,5,-0.34,0.18,1.05,22.049799999999998,-14.9412,-34.651599999999995,175,75
2026-05-07 18:24:38.312,5,-0.38,-0.02,1.01,29.6098,-13.1612,-13.6416,175,75
2026-05-07 18:24:38.324,5,-0.43,-0.07,1.03,35.7998,-17.691200000000002,-18.481599999999997,175,75
2026-05-07 18:24:38.327,5,-0.45,-0.09,1.06,40.4298,-25.901200000000003,-32.4516,175,75
2026-05-07 18:24:38.343,5,-0.43,-0.1,1.06,43.7198,-32.4412,-50.0316,175,75
2026-05-07 18:24:38.357,5,-0.37,-0.07,1.01,43.989799999999995,-28.6612,-67.00160000000001,175,75
2026-05-07 18:24:38.357,5,-0.35,-0.02,0.97,41.3898,-16.2612,-80.1316,175,75
2026-05-07 18:24:38.370,5,-0.36,0.04,0.94,37.3298,-4.7812,-86.7416,175,75
2026-05-07 18:24:38.382,5,-0.38,0.09,0.91,34.239799999999995,2.2988000000000004,-88.1216,175,75
2026-05-07 18:24:38.392,5,-0.41,0.16,0.9,32.1198,5.0288,-85.5416,175,75
2026-05-07 18:24:38.406,5,-0.46,0.21,0.89,29.9898,4.3088,-83.61160000000001,175,75
2026-05-07 18:24:38.410,5,-0.5,0.27,0.9,27.8598,1.4588000000000005,-84.55160000000001,175,75
2026-05-07 18:24:38.422,5,-0.52,0.31,0.91,24.389799999999997,-3.3211999999999997,-86.4316,175,75
2026-05-07 18:24:38.436,5,-0.51,0.35,0.92,19.779799999999998,-7.9512,-86.4816,175,75
2026-05-07 18:24:38.447,5,-0.47,0.38,0.95,15.469800000000001,-11.0712,-81.9116,175,75
2026-05-07 18:24:38.447,5,-0.42,0.37,0.95,12.9498,-12.841199999999999,-71.7416,175,75
2026-05-07 18:24:38.458,5,-0.39,0.4,0.97,9.639800000000001,-12.4412,-55.971599999999995,175,75
2026-05-07 18:24:38.481,5,-0.33,0.39,0.97,3.1997999999999998,-5.7712,-15.6916,175,75
2026-05-07 18:24:38.496,5,-0.34,0.37,0.95,2.1098,-1.9811999999999999,4.728400000000001,175,75
2026-05-07 18:24:38.506,5,-0.33,0.34,0.96,0.38980000000000004,-0.1612,25.7484,175,75
2026-05-07 18:24:38.506,5,-0.34,0.3,0.97,-3.1802,0.01880000000000015,41.8384,175,75
2026-05-07 18:24:38.520,5,-0.35,0.26,0.97,-8.610199999999999,1.0488000000000004,50.598400000000005,175,75
2026-05-07 18:24:38.532,5,-0.35,0.21,0.95,-13.7102,3.5688,50.708400000000005,175,75
2026-05-07 18:24:38.541,5,-0.35,0.18,0.94,-16.5702,6.758800000000001,46.2884,175,75
2026-05-07 18:24:38.555,5,-0.36,0.16,0.96,-17.5702,8.8688,38.3984,175,75
2026-05-07 18:24:38.563,5,-0.35,0.15,0.97,-16.6702,8.0988,30.558400000000002,175,75
2026-05-07 18:24:38.589,5,-0.35,0.14,0.97,-14.4702,5.738800000000001,17.0984,175,75
2026-05-07 18:24:38.589,5,-0.37,0.17,0.98,-15.3202,4.9788,12.7084,175,75
2026-05-07 18:24:38.603,5,-0.38,0.22,0.98,-18.410200000000003,3.0387999999999997,8.7684,175,75
2026-05-07 18:24:38.616,5,-0.38,0.25,0.97,-22.560200000000002,0.4088000000000003,7.5384,175,75
2026-05-07 18:24:38.628,5,-0.35,0.26,0.95,-26.1202,-2.4812,9.6884,175,75
2026-05-07 18:24:38.628,5,-0.33,0.27,0.94,-27.8502,-5.5611999999999995,16.5684,175,75
2026-05-07 18:24:38.639,5,-0.3,0.28,0.93,-28.5102,-9.3112,26.7784,175,75
2026-05-07 18:24:38.650,5,-0.29,0.31,0.95,-30.0302,-14.341199999999999,35.5384,175,75
2026-05-07 18:24:38.661,5,-0.24,0.35,0.96,-32.870200000000004,-19.4812,44.3384,175,75
2026-05-07 18:24:38.671,5,-0.17,0.35,0.96,-36.8102,-22.0612,53.1684,175,75
2026-05-07 18:24:38.679,5,-0.08,0.31,0.94,-41.9702,-17.2912,67.5084,175,75
2026-05-07 18:24:38.695,5,-0.01,0.19,0.92,-44.5702,-7.2612000000000005,89.2684,175,75
2026-05-07 18:24:38.703,5,0.01,0.07,0.95,-43.7502,5.758800000000001,118.1584,175,75
2026-05-07 18:24:38.719,5,-0.05,-0.06,1.11,-43.120200000000004,27.7888,174.4984,175,75
2026-05-07 18:24:38.731,5,-0.13,-0.12,1.21,-43.760200000000005,32.6088,186.2284,175,75
2026-05-07 18:24:38.738,5,-0.27,-0.21,1.34,-43.7402,32.2188,175.0684,175,75
2026-05-07 18:24:38.756,5,-0.37,-0.35,1.46,-42.1302,26.0188,140.5084,175,75
2026-05-07 18:24:38.766,5,-0.46,-0.49,1.46,-35.7002,24.0388,91.77839999999999,175,75
2026-05-07 18:24:38.766,5,-0.52,-0.53,1.32,-22.470200000000002,29.2288,44.3784,175,75
2026-05-07 18:24:38.782,5,-0.6,-0.42,1.14,-4.6402,33.0788,9.1684,175,75
2026-05-07 18:24:38.787,5,-0.61,-0.2,1.1,5.1698,29.1588,-15.6916,175,75
2026-05-07 18:24:38.807,5,-0.6,-0.01,1.06,6.6498,17.7488,-27.191599999999998,175,75
2026-05-07 18:24:38.822,5,-0.62,0.11,1.02,4.0698,4.1188,-35.971599999999995,175,75
2026-05-07 18:24:38.836,5,-0.51,0.2,0.92,-3.7802,-11.4512,-34.4216,175,75
2026-05-07 18:24:38.858,5,-0.41,0.23,0.9,-19.6002,-14.4812,0.5484000000000001,175,75
2026-05-07 18:24:38.868,5,-0.34,0.2,0.88,-27.180200000000003,-7.1812000000000005,22.418400000000002,175,75
2026-05-07 18:24:38.868,5,-0.3,0.17,0.87,-34.3202,5.588800000000001,45.8284,175,75
2026-05-07 18:24:38.883,5,-0.33,0.13,0.89,-43.2502,19.2488,67.30839999999999,175,75
2026-05-07 18:24:38.901,5,-0.4,-0.02,0.91,-56.0002,41.4588,97.1284,175,75
2026-05-07 18:24:38.912,5,-0.48,-0.06,0.95,-58.4702,47.8688,104.3184,175,75
2026-05-07 18:24:38.923,5,-0.57,-0.1,1.0,-60.2302,49.4888,102.7084,175,75
2026-05-07 18:24:38.936,5,-0.65,-0.15,1.04,-60.5002,45.6188,92.2084,175,75
2026-05-07 18:24:38.936,5,-0.74,-0.2,1.07,-59.6402,39.248799999999996,74.74839999999999,175,75
2026-05-07 18:24:38.951,5,-0.79,-0.25,1.06,-55.3102,28.5688,53.708400000000005,175,75
2026-05-07 18:24:38.962,5,-0.8,-0.27,1.04,-46.4502,15.008799999999999,36.208400000000005,175,75
2026-05-07 18:24:38.972,5,-0.78,-0.23,1.0,-34.7202,2.5088000000000004,26.448400000000003,175,75
2026-05-07 18:24:38.983,5,-0.77,-0.13,0.99,-26.7102,-11.1912,22.038400000000003,175,75
2026-05-07 18:24:38.996,5,-0.72,-0.05,0.99,-26.8002,-24.831200000000003,22.168400000000002,175,75
2026-05-07 18:24:38.996,5,-0.63,-0.02,0.96,-29.6002,-34.3312,27.6584,175,75
2026-05-07 18:24:39.007,5,-0.54,-0.03,0.93,-32.510200000000005,-38.251200000000004,38.2984,175,75
2026-05-07 18:24:39.019,5,-0.48,-0.04,0.92,-35.260200000000005,-36.5812,49.998400000000004,175,75
2026-05-07 18:24:39.030,5,-0.44,-0.07,0.89,-36.9202,-31.8812,59.1984,175,75
2026-05-07 18:24:39.040,5,-0.42,-0.11,0.88,-37.2002,-26.581200000000003,67.21839999999999,175,75
2026-05-07 18:24:39.052,5,-0.38,-0.13,0.89,-37.7002,-18.691200000000002,73.0884,175,75
2026-05-07 18:24:39.062,5,-0.38,-0.13,0.91,-39.620200000000004,-9.0712,75.3184,175,75
2026-05-07 18:24:39.073,5,-0.43,-0.14,0.92,-41.830200000000005,0.8688000000000002,71.13839999999999,175,75
2026-05-07 18:24:39.084,5,-0.47,-0.15,0.94,-43.3502,7.168800000000001,61.6484,175,75
2026-05-07 18:24:39.097,5,-0.52,-0.15,0.95,-43.4302,8.5388,48.6984,175,75
2026-05-07 18:24:39.097,5,-0.55,-0.15,0.96,-41.8802,6.668800000000001,36.5884,175,75
2026-05-07 18:24:39.107,5,-0.55,-0.13,0.96,-38.2202,3.8388000000000004,28.538400000000003,175,75
2026-05-07 18:24:39.118,5,-0.55,-0.11,0.97,-35.6502,1.7488000000000006,24.928400000000003,175,75
2026-05-07 18:24:39.129,5,-0.56,-0.09,0.97,-34.7002,-0.8712,25.608400000000003,175,75
2026-05-07 18:24:39.139,5,-0.56,-0.08,0.97,-34.7802,-4.8712,29.718400000000003,175,75
2026-05-07 18:24:39.152,5,-0.56,-0.09,0.97,-34.7402,-9.3512,35.4884,175,75
2026-05-07 18:24:39.166,5,-0.55,-0.1,0.95,-34.8102,-14.3612,43.028400000000005,175,75
2026-05-07 18:24:39.166,5,-0.53,-0.13,0.93,-33.5402,-19.6112,51.5184,175,75
2026-05-07 18:24:39.184,5,-0.49,-0.16,0.92,-31.180200000000003,-23.7212,61.5084,175,75
2026-05-07 18:24:39.192,5,-0.47,-0.18,0.92,-28.9802,-25.691200000000002,69.1884,175,75
2026-05-07 18:24:39.222,5,-0.46,-0.25,0.89,-22.090200000000003,-18.8512,72.3784,175,75
2026-05-07 18:24:39.236,5,-0.46,-0.25,0.88,-20.6702,-17.0612,63.2284,175,75
2026-05-07 18:24:39.260,5,-0.45,-0.29,0.87,-17.590200000000003,-13.251199999999999,32.818400000000004,175,75
2026-05-07 18:24:39.260,5,-0.43,-0.28,0.86,-14.3302,-9.1312,16.058400000000002,175,75
2026-05-07 18:24:39.277,5,-0.42,-0.27,0.84,-9.2902,-3.0311999999999997,0.8184,175,75
2026-05-07 18:24:39.277,5,-0.43,-0.21,0.82,-4.5302,2.5787999999999998,-12.1416,175,75
2026-05-07 18:24:39.287,5,-0.44,-0.15,0.83,-1.4802,4.9388000000000005,-21.121599999999997,175,75
2026-05-07 18:24:39.297,5,-0.44,-0.11,0.84,-0.2502,6.068800000000001,-24.211599999999997,175,75
2026-05-07 18:24:39.320,5,-0.47,-0.07,0.83,-2.0801999999999996,7.7288000000000014,-19.421599999999998,175,75
2026-05-07 18:24:39.336,5,-0.49,-0.06,0.83,-4.2402,8.918800000000001,-11.6216,175,75
2026-05-07 18:24:39.346,5,-0.51,-0.05,0.84,-6.880199999999999,9.8688,-2.0716,175,75
2026-05-07 18:24:39.347,5,-0.51,-0.03,0.87,-10.0502,9.9288,8.6484,175,75
2026-05-07 18:24:39.365,5,-0.51,-0.01,0.88,-13.7402,10.0588,19.738400000000002,175,75
2026-05-07 18:24:39.376,5,-0.52,-0.02,0.89,-16.130200000000002,10.8588,29.3184,175,75
2026-05-07 18:24:39.386,5,-0.53,-0.03,0.9,-17.790200000000002,12.7788,37.1284,175,75
2026-05-07 18:24:39.386,5,-0.55,-0.06,0.91,-19.0502,15.0588,42.8584,175,75
2026-05-07 18:24:39.406,5,-0.58,-0.09,0.93,-20.020200000000003,16.8688,47.348400000000005,175,75
2026-05-07 18:24:39.406,5,-0.63,-0.12,0.93,-20.6702,16.5688,48.818400000000004,175,75
2026-05-07 18:24:39.426,5,-0.67,-0.15,0.93,-20.250200000000003,14.998800000000001,45.9384,175,75
2026-05-07 18:24:39.436,5,-0.7,-0.18,0.93,-18.930200000000003,11.228800000000001,41.0584,175,75
2026-05-07 18:24:39.436,5,-0.71,-0.2,0.93,-16.4802,5.348800000000001,37.028400000000005,175,75
2026-05-07 18:24:39.456,5,-0.71,-0.19,0.94,-14.1802,-1.1911999999999998,34.3084,175,75
2026-05-07 18:24:39.456,5,-0.71,-0.18,0.96,-12.0902,-7.4512,31.2284,175,75
2026-05-07 18:24:39.486,5,-0.7,-0.17,0.93,-9.9602,-15.9812,23.488400000000002,175,75
2026-05-07 18:24:39.491,5,-0.68,-0.19,0.91,-8.3002,-17.9212,18.768400000000003,175,75
2026-05-07 18:24:39.505,5,-0.63,-0.2,0.9,-8.1802,-20.0512,18.7084,175,75
2026-05-07 18:24:39.518,5,-0.6,-0.21,0.87,-8.4702,-22.2912,21.1584,175,75
2026-05-07 18:24:39.518,5,-0.57,-0.22,0.85,-8.3902,-25.2112,22.9984,175,75
2026-05-07 18:24:39.536,5,-0.53,-0.24,0.81,-6.630199999999999,-25.921200000000002,22.648400000000002,175,75
2026-05-07 18:24:39.536,5,-0.47,-0.23,0.91,-7.3302,-25.9312,23.9384,175,75
2026-05-07 18:24:39.556,5,-0.34,-0.17,1.16,-17.0302,-33.8412,30.3184,175,75
2026-05-07 18:24:39.566,5,-0.18,-0.06,1.53,-32.2502,-47.501200000000004,50.4884,175,75
2026-05-07 18:24:39.566,5,-0.23,-0.09,1.74,-34.7302,-58.9412,65.2884,175,75
2026-05-07 18:24:39.583,5,-0.17,-0.07,1.62,-3.0902000000000003,-41.181200000000004,39.318400000000004,175,75
2026-05-07 18:24:39.596,5,-0.27,0.05,1.36,11.889800000000001,-12.4012,7.1984,175,75
2026-05-07 18:24:39.607,5,-0.34,-0.06,1.01,12.5398,12.418800000000001,-4.7616,175,75
2026-05-07 18:24:39.607,5,-0.3,-0.1,0.81,16.779799999999998,30.638799999999996,2.3384,175,75
2026-05-07 18:24:39.627,5,-0.41,-0.35,0.73,25.5098,32.5188,25.9984,175,75
2026-05-07 18:24:39.639,5,-0.53,-0.36,0.82,27.4698,23.2688,37.5784,175,75
2026-05-07 18:24:39.639,5,-0.62,-0.34,0.92,20.1998,12.0988,26.9584,175,75
2026-05-07 18:24:39.648,5,-0.59,-0.35,1.03,10.9598,0.9588000000000001,3.7384,175,75
2026-05-07 18:24:39.675,5,-0.44,-0.41,1.15,5.1498,-11.021199999999999,-14.1616,175,75
2026-05-07 18:24:39.675,5,-0.34,-0.47,1.13,15.1098,-27.6112,-20.321599999999997,175,75
2026-05-07 18:24:39.687,5,-0.27,-0.41,1.07,36.3198,-40.0312,-29.261599999999998,175,75
2026-05-07 18:24:39.697,5,-0.26,-0.21,1.08,46.8198,-45.9012,-43.501599999999996,175,75
2026-05-07 18:24:39.697,5,-0.19,-0.05,1.09,46.2998,-48.9112,-64.0416,175,75
2026-05-07 18:24:39.716,5,-0.05,0.08,1.08,41.7498,-45.7112,-78.1816,175,75
2026-05-07 18:24:39.725,5,0.11,0.17,1.06,35.2098,-33.291199999999996,-76.2316,175,75
2026-05-07 18:24:39.738,5,0.22,0.23,1.04,27.409799999999997,-13.0712,-61.6416,175,75
2026-05-07 18:24:39.738,5,0.2,0.24,1.01,18.229799999999997,13.618800000000002,-41.5116,175,75
2026-05-07 18:24:39.756,5,0.1,0.21,0.97,11.2998,38.3288,-25.6516,175,75
2026-05-07 18:24:39.766,5,-0.05,0.15,0.96,7.489800000000001,59.9088,-15.5416,175,75
2026-05-07 18:24:39.777,5,-0.19,0.1,1.02,5.8198,73.9088,-8.6216,175,75
2026-05-07 18:24:39.791,5,-0.43,-0.04,1.17,3.1197999999999997,76.3788,6.0484,175,75
2026-05-07 18:24:39.803,5,-0.57,-0.13,1.23,6.2198,66.4388,10.3184,175,75
2026-05-07 18:24:39.813,5,-0.7,-0.21,1.27,13.2798,48.498799999999996,8.0584,175,75
2026-05-07 18:24:39.830,5,-0.89,-0.17,1.16,25.6698,-9.2012,-17.081599999999998,175,75
2026-05-07 18:24:39.848,5,-0.73,-0.12,1.05,27.2898,-36.4812,-29.621599999999997,175,75
2026-05-07 18:24:39.858,5,-0.39,-0.06,0.9,34.5298,-63.6512,-31.4916,175,75
2026-05-07 18:24:39.870,5,-0.29,-0.01,0.87,39.6098,-60.9212,-35.041599999999995,175,75
2026-05-07 18:24:39.884,5,-0.23,0.06,0.84,42.699799999999996,-49.2212,-44.611599999999996,175,75
2026-05-07 18:24:39.888,5,-0.17,0.16,0.87,41.0698,-33.2712,-54.2316,175,75
2026-05-07 18:24:39.908,5,-0.04,0.3,0.95,22.4898,-2.0012,-50.151599999999995,175,75
2026-05-07 18:24:39.929,5,-0.14,0.23,0.95,10.0398,18.9088,-7.371600000000001,175,75
2026-05-07 18:24:39.938,5,-0.28,0.19,0.95,7.2298,24.308799999999998,8.9684,175,75
2026-05-07 18:24:39.948,5,-0.39,0.12,0.95,5.949800000000001,23.488799999999998,18.3184,175,75
2026-05-07 18:24:39.966,5,-0.47,0.05,0.96,7.1098,17.3888,21.3884,175,75
2026-05-07 18:24:39.966,5,-0.52,0.02,0.98,9.979800000000001,6.578800000000001,18.648400000000002,175,75
2026-05-07 18:24:39.986,5,-0.53,0.01,0.99,13.219800000000001,-5.6812000000000005,12.2784,175,75
2026-05-07 18:24:39.996,5,-0.47,0.03,0.99,14.9998,-14.931199999999999,6.2284,175,75
2026-05-07 18:24:40.008,5,-0.39,0.05,0.99,14.9498,-19.1212,3.5784,175,75
2026-05-07 18:24:40.009,5,-0.33,0.06,0.98,13.8598,-19.2212,5.2084,175,75
2026-05-07 18:24:40.020,5,-0.28,0.06,0.97,13.559800000000001,-15.681199999999999,8.0784,175,75
2026-05-07 18:24:40.032,5,-0.26,0.07,0.97,13.3598,-9.1812,10.5184,175,75
2026-05-07 18:24:40.042,5,-0.27,0.08,0.97,12.979800000000001,-2.5812,10.2484,175,75
2026-05-07 18:24:40.052,5,-0.29,0.1,0.99,11.7598,3.4888,8.2284,175,75
2026-05-07 18:24:40.063,5,-0.31,0.1,1.0,10.1198,8.488800000000001,5.1284,175,75
2026-05-07 18:24:40.076,5,-0.34,0.1,1.0,8.969800000000001,10.9388,2.8884,175,75
2026-05-07 18:24:40.086,5,-0.36,0.1,1.01,9.6898,11.2888,3.0383999999999998,175,75
2026-05-07 18:24:40.086,5,-0.39,0.11,1.02,10.8798,9.8088,3.4284,175,75
2026-05-07 18:24:40.108,5,-0.4,0.14,1.02,11.0298,3.3388000000000004,4.8684,175,75
2026-05-07 18:24:40.126,5,-0.38,0.17,1.03,7.8498,0.06879999999999997,7.0283999999999995,175,75
2026-05-07 18:24:40.126,5,-0.37,0.17,1.03,3.1898,-2.6412,10.2284,175,75
2026-05-07 18:24:40.143,5,-0.34,0.17,1.01,-0.9902,-3.3312,13.2084,175,75
2026-05-07 18:24:40.153,5,-0.31,0.16,0.99,-3.8902,-3.0012,17.738400000000002,175,75
2026-05-07 18:24:40.165,5,-0.28,0.15,0.99,-6.5402,-2.3512,24.6184,175,75
2026-05-07 18:24:40.170,5,-0.26,0.13,0.97,-9.7902,0.1788000000000003,31.0684,175,75
2026-05-07 18:24:40.184,5,-0.26,0.08,0.94,-12.2602,5.168800000000001,36.3684,175,75
2026-05-07 18:24:40.196,5,-0.29,0.03,0.91,-12.0102,10.3588,38.7684,175,75
2026-05-07 18:24:40.221,5,-0.36,-0.03,0.92,-6.4402,12.0988,20.7784,175,75
2026-05-07 18:24:40.231,5,-0.35,-0.01,0.92,-5.8102,14.958800000000002,8.3484,175,75
2026-05-07 18:24:40.242,5,-0.33,0.02,0.92,-5.7002,20.9088,-1.6716000000000002,175,75
2026-05-07 18:24:40.252,5,-0.34,0.06,0.93,-7.0202,26.0288,-6.5016,175,75
2026-05-07 18:24:40.267,5,-0.36,0.11,0.92,-9.6402,29.498799999999996,-8.8716,175,75
2026-05-07 18:24:40.277,5,-0.39,0.15,0.92,-12.3402,29.9088,-10.4016,175,75
2026-05-07 18:24:40.291,5,-0.42,0.23,0.94,-18.8302,22.6088,-7.871600000000001,175,75
2026-05-07 18:24:40.304,5,-0.42,0.25,0.95,-23.360200000000003,17.058799999999998,-1.3416000000000001,175,75
2026-05-07 18:24:40.319,5,-0.38,0.18,0.93,-28.380200000000002,15.3788,19.808400000000002,175,75
2026-05-07 18:24:40.330,5,-0.36,0.12,0.88,-28.090200000000003,22.9388,31.9784,175,75
2026-05-07 18:24:40.336,5,-0.39,0.09,0.86,-27.0702,33.1088,39.8584,175,75
2026-05-07 18:24:40.350,5,-0.43,0.09,0.86,-27.680200000000003,40.7688,41.9684,175,75
2026-05-07 18:24:40.373,5,-0.44,0.09,0.85,-36.7402,46.928799999999995,36.5184,175,75
2026-05-07 18:24:40.386,5,-0.42,0.05,0.84,-39.830200000000005,52.888799999999996,33.4184,175,75
2026-05-07 18:24:40.398,5,-0.36,-0.09,0.78,-36.8902,74.83879999999999,42.0884,175,75
2026-05-07 18:24:40.409,5,-0.43,-0.15,0.78,-31.9302,89.5488,47.4084,175,75
2026-05-07 18:24:40.420,5,-0.54,-0.11,0.83,-28.1502,102.1688,44.5184,175,75
2026-05-07 18:24:40.433,5,-0.65,-0.11,0.9,-29.2802,107.6088,35.1284,175,75
2026-05-07 18:24:40.444,5,-0.72,-0.07,1.01,-32.9302,104.1388,23.518400000000003,175,75
2026-05-07 18:24:40.456,5,-0.76,-0.06,1.11,-37.0902,94.1588,14.0184,175,75
2026-05-07 18:24:40.456,5,-0.79,-0.08,1.19,-38.510200000000005,82.5288,7.9084,175,75
2026-05-07 18:24:40.476,5,-0.85,-0.09,1.26,-36.1702,68.5388,5.7384,175,75
2026-05-07 18:24:40.476,5,-0.92,-0.1,1.31,-32.050200000000004,52.1888,5.1084,175,75
2026-05-07 18:24:40.505,5,-1.07,-0.1,1.25,-25.4802,4.6988,12.3584,175,75
2026-05-07 18:24:40.516,5,-1.08,-0.08,1.14,-25.1202,-24.901200000000003,16.2584,175,75
2026-05-07 18:24:40.527,5,-1.0,-0.05,1.06,-25.590200000000003,-52.501200000000004,18.9984,175,75
2026-05-07 18:24:40.538,5,-0.87,-0.04,1.02,-27.110200000000003,-74.1312,21.9084,175,75
2026-05-07 18:24:40.538,5,-0.72,-0.04,0.98,-27.380200000000002,-89.4012,24.948400000000003,175,75
2026-05-07 18:24:40.549,5,-0.59,-0.05,0.94,-26.5302,-97.3512,26.7484,175,75
2026-05-07 18:24:40.560,5,-0.48,-0.09,0.91,-24.930200000000003,-98.9812,26.078400000000002,175,75
2026-05-07 18:24:40.574,5,-0.38,-0.11,0.87,-22.180200000000003,-92.8912,24.3184,175,75
2026-05-07 18:24:40.586,5,-0.29,-0.14,0.86,-19.1502,-81.2212,22.3684,175,75
2026-05-07 18:24:40.597,5,-0.25,-0.15,0.83,-14.270199999999999,-63.3512,18.2584,175,75
2026-05-07 18:24:40.597,5,-0.25,-0.14,0.82,-10.020199999999999,-42.861200000000004,11.1684,175,75
2026-05-07 18:24:40.610,5,-0.27,-0.12,0.86,-7.4601999999999995,-24.2912,4.2684,175,75
2026-05-07 18:24:40.626,5,-0.34,-0.08,0.93,-6.4902,-12.1912,-0.4415999999999999,175,75
2026-05-07 18:24:40.626,5,-0.42,-0.07,0.99,-5.630199999999999,-7.5412,-3.4416,175,75
2026-05-07 18:24:40.643,5,-0.51,-0.07,1.03,-5.2501999999999995,-9.2212,-5.9716000000000005,175,75
2026-05-07 18:24:40.655,5,-0.59,-0.09,1.06,-5.1502,-15.2212,-8.8316,175,75
2026-05-07 18:24:40.666,5,-0.65,-0.11,1.06,-4.4302,-24.9612,-11.6316,175,75
2026-05-07 18:24:40.666,5,-0.67,-0.11,1.07,-2.0202,-37.9012,-11.2616,175,75
2026-05-07 18:24:40.678,5,-0.66,-0.1,1.09,1.1098,-53.3112,-9.6316,175,75
2026-05-07 18:24:40.690,5,-0.61,-0.08,1.09,4.5798000000000005,-68.8012,-6.3616,175,75
2026-05-07 18:24:40.698,5,-0.53,-0.03,1.08,8.2498,-81.6712,-3.1916,175,75
2026-05-07 18:24:40.712,5,-0.48,0.03,1.07,9.6298,-88.9312,-1.3916,175,75
2026-05-07 18:24:40.722,5,-0.41,0.09,1.03,8.4898,-90.5812,0.008400000000000074,175,75
2026-05-07 18:24:40.736,5,-0.33,0.12,0.98,5.6698,-86.6912,2.1584,175,75
2026-05-07 18:24:40.736,5,-0.28,0.13,0.92,3.6597999999999997,-79.3412,6.9384,175,75
2026-05-07 18:24:40.749,5,-0.22,0.13,0.87,3.1398,-70.7912,14.3284,175,75
2026-05-07 18:24:40.767,5,-0.2,0.12,0.8,4.3098,-57.5412,19.5084,175,75
2026-05-07 18:24:40.772,5,-0.19,0.12,0.76,4.8298000000000005,-40.2912,22.968400000000003,175,75
2026-05-07 18:24:40.788,5,-0.17,0.13,0.75,3.5898000000000003,-22.3012,26.8184,175,75
2026-05-07 18:24:40.788,5,-0.17,0.13,0.75,-2.4302,-0.1612,31.768400000000003,175,75
2026-05-07 18:24:40.800,5,-0.22,0.11,0.74,-9.9002,20.6188,38.5784,175,75
2026-05-07 18:24:40.816,5,-0.29,0.1,0.73,-15.9902,36.9188,45.0084,175,75
2026-05-07 18:24:40.830,5,-0.37,0.09,0.73,-19.7402,46.8788,50.748400000000004,175,75
2026-05-07 18:24:40.830,5,-0.45,0.07,0.75,-21.5302,51.748799999999996,54.5184,175,75
2026-05-07 18:24:40.840,5,-0.51,0.05,0.78,-23.2102,53.3588,56.8084,175,75
2026-05-07 18:24:40.852,5,-0.55,0.02,0.81,-23.310200000000002,51.3388,61.4684,175,75
2026-05-07 18:24:40.862,5,-0.59,-0.01,0.86,-22.410200000000003,47.068799999999996,67.5684,175,75
2026-05-07 18:24:40.876,5,-0.64,-0.02,0.89,-21.4402,41.9688,70.99839999999999,175,75
2026-05-07 18:24:40.885,5,-0.69,-0.04,0.91,-21.950200000000002,34.9888,69.2884,175,75
2026-05-07 18:24:40.896,5,-0.73,-0.05,0.92,-22.4902,28.9288,61.9384,175,75
2026-05-07 18:24:40.906,5,-0.76,-0.07,0.91,-22.380200000000002,23.418799999999997,51.278400000000005,175,75
2026-05-07 18:24:40.916,5,-0.76,-0.08,0.91,-19.9602,17.7888,40.4484,175,75
2026-05-07 18:24:40.916,5,-0.76,-0.06,0.91,-17.7402,11.8888,30.738400000000002,175,75
2026-05-07 18:24:40.928,5,-0.74,-0.04,0.92,-16.4002,5.068800000000001,24.148400000000002,175,75
2026-05-07 18:24:40.941,5,-0.71,-0.01,0.92,-16.5302,-0.9112,21.738400000000002,175,75
2026-05-07 18:24:40.952,5,-0.67,-0.01,0.91,-17.5302,-5.2212,22.7584,175,75
2026-05-07 18:24:40.964,5,-0.63,-0.01,0.89,-18.880200000000002,-7.6912,26.5284,175,75
2026-05-07 18:24:40.976,5,-0.6,-0.01,0.87,-20.090200000000003,-7.831199999999999,31.488400000000002,175,75
2026-05-07 18:24:40.986,5,-0.59,-0.01,0.84,-21.310200000000002,-5.6212,35.7384,175,75
2026-05-07 18:24:40.986,5,-0.57,-0.02,0.81,-20.880200000000002,-2.5412,37.6084,175,75
2026-05-07 18:24:40.999,5,-0.56,-0.03,0.8,-20.4402,1.1288000000000005,37.348400000000005,175,75
2026-05-07 18:24:41.009,5,-0.55,-0.04,0.81,-19.9602,4.6088000000000005,35.4284,175,75
2026-05-07 18:24:41.031,5,-0.55,-0.04,0.83,-21.4402,8.978800000000001,31.968400000000003,175,75
2026-05-07 18:24:41.042,5,-0.58,-0.05,0.83,-22.2802,10.7088,28.808400000000002,175,75
2026-05-07 18:24:41.056,5,-0.61,-0.06,0.82,-22.950200000000002,12.828800000000001,24.2284,175,75
2026-05-07 18:24:41.056,5,-0.64,-0.06,0.81,-22.500200000000003,13.818800000000001,18.8484,175,75
2026-05-07 18:24:41.089,5,-0.7,-0.04,0.82,-21.2302,4.1188,10.3884,175,75
2026-05-07 18:24:41.101,5,-0.69,-0.04,0.84,-21.950200000000002,-2.1212,14.7184,175,75
2026-05-07 18:24:41.117,5,-0.67,-0.06,0.84,-23.310200000000002,-7.8512,21.9084,175,75
2026-05-07 18:24:41.117,5,-0.66,-0.07,0.84,-24.5102,-12.2312,29.5684,175,75
2026-05-07 18:24:41.131,5,-0.65,-0.09,0.84,-25.880200000000002,-14.1412,35.8384,175,75
2026-05-07 18:24:41.143,5,-0.67,-0.09,0.84,-27.8002,-15.2112,38.1984,175,75
2026-05-07 18:24:41.156,5,-0.68,-0.09,0.82,-29.1902,-15.9012,36.3084,175,75
2026-05-07 18:24:41.166,5,-0.69,-0.09,0.81,-29.410200000000003,-14.7312,29.738400000000002,175,75
2026-05-07 18:24:41.166,5,-0.68,-0.06,0.82,-29.410200000000003,-11.9412,19.1384,175,75
2026-05-07 18:24:41.178,5,-0.65,-0.0,0.91,-31.730200000000004,-11.831199999999999,10.8584,175,75
2026-05-07 18:24:41.190,5,-0.58,0.01,1.0,-35.6302,-20.4112,12.6084,175,75
2026-05-07 18:24:41.206,5,-0.52,-0.06,1.11,-32.6702,-33.6412,18.948400000000003,175,75
2026-05-07 18:24:41.219,5,-0.41,-0.54,1.74,3.1698000000000004,-63.4512,10.8284,175,75
2026-05-07 18:24:41.242,5,-0.37,-0.58,1.71,-16.200200000000002,-42.7012,-4.5516,175,75
2026-05-07 18:24:41.254,5,-0.65,-0.44,1.05,-20.450200000000002,-34.9312,-20.711599999999997,175,75
2026-05-07 18:24:41.264,5,-0.75,-0.34,0.73,-15.3702,-37.6712,-50.4816,175,75
2026-05-07 18:24:41.276,5,-0.59,-0.11,0.71,-10.6702,-32.0112,-77.6616,175,75
2026-05-07 18:24:41.287,5,-0.37,0.19,0.82,-13.9702,-25.7012,-87.7716,175,75
2026-05-07 18:24:41.296,5,-0.14,0.49,0.98,-20.560200000000002,-29.6812,-71.86160000000001,175,75
2026-05-07 18:24:41.296,5,-0.09,0.5,1.05,-21.540200000000002,-34.0712,-46.3716,175,75
2026-05-07 18:24:41.309,5,-0.08,0.52,1.1,-17.7602,-30.6112,-26.281599999999997,175,75
2026-05-07 18:24:41.329,5,-0.03,0.55,1.12,-19.770200000000003,-19.2112,-0.6515999999999998,175,75
2026-05-07 18:24:41.372,5,-0.29,0.41,1.23,-36.2502,7.918800000000001,119.1784,175,75
2026-05-07 18:24:41.392,5,-0.07,0.29,1.11,-61.7802,-16.0712,171.2284,175,75
2026-05-07 18:24:41.404,5,-0.13,-0.42,0.94,-64.2102,-14.251199999999999,191.1884,175,75
2026-05-07 18:24:41.427,5,-0.21,-0.83,1.18,-54.7802,-26.5912,110.1884,175,75
2026-05-07 18:24:41.452,5,-0.57,-0.49,0.88,17.889799999999997,71.4988,-80.0216,175,75
2026-05-07 18:24:41.464,5,-0.5,-0.28,0.97,22.1098,88.9488,-144.4516,175,75
2026-05-07 18:24:41.475,5,-0.22,-0.04,1.16,21.6798,70.0788,-146.1916,175,75
2026-05-07 18:24:41.486,5,-0.01,0.3,1.39,13.3398,29.458799999999997,-87.5216,175,75
2026-05-07 18:24:41.486,5,-0.2,0.4,1.32,-7.780199999999999,6.3688,-37.9216,175,75
2026-05-07 18:24:41.499,5,-0.45,0.19,1.06,-22.6702,6.2988,-27.3616,175,75
2026-05-07 18:24:41.511,5,-0.45,0.16,0.98,-34.120200000000004,3.0787999999999998,-12.6516,175,75
2026-05-07 18:24:41.526,5,-0.35,0.05,0.98,-40.3402,-6.1612,20.9784,175,75
2026-05-07 18:24:41.536,5,-0.31,-0.01,1.01,-40.050200000000004,-13.091199999999999,55.9084,175,75
2026-05-07 18:24:41.563,5,-0.32,-0.12,1.02,-35.830200000000005,-21.1112,85.80839999999999,175,75
2026-05-07 18:24:41.575,5,-0.3,-0.24,0.98,-37.9602,-20.2512,78.3984,175,75
2026-05-07 18:24:41.586,5,-0.31,-0.33,0.92,-36.5702,-16.5412,65.71839999999999,175,75
2026-05-07 18:24:41.596,5,-0.34,-0.4,0.86,-31.520200000000003,-10.4212,47.4184,175,75
2026-05-07 18:24:41.596,5,-0.36,-0.45,0.8,-22.560200000000002,-3.2211999999999996,23.808400000000002,175,75
2026-05-07 18:24:41.609,5,-0.37,-0.45,0.78,-12.5102,5.8088,1.6284,175,75
2026-05-07 18:24:41.621,5,-0.37,-0.4,0.79,-5.9402,14.1988,-18.211599999999997,175,75
2026-05-07 18:24:41.631,5,-0.35,-0.32,0.83,-3.4802,22.398799999999998,-35.0316,175,75
2026-05-07 18:24:41.642,5,-0.32,-0.23,0.89,-4.8702,26.7888,-44.0816,175,75
2026-05-07 18:24:41.672,5,-0.35,-0.1,0.97,-11.6002,23.9788,-34.8016,175,75
2026-05-07 18:24:41.687,5,-0.39,-0.11,0.97,-11.1502,24.4288,-27.481599999999997,175,75
2026-05-07 18:24:41.687,5,-0.44,-0.12,0.99,-11.0502,23.328799999999998,-18.7716,175,75
2026-05-07 18:24:41.699,5,-0.47,-0.12,1.0,-12.5402,18.1088,-8.7516,175,75
2026-05-07 18:24:41.709,5,-0.49,-0.14,1.02,-14.3102,10.408800000000001,0.5784,175,75
2026-05-07 18:24:41.725,5,-0.5,-0.17,1.01,-15.6302,2.8588,7.8384,175,75
2026-05-07 18:24:41.736,5,-0.48,-0.2,0.98,-15.5602,-3.8011999999999997,12.6484,175,75
2026-05-07 18:24:41.736,5,-0.46,-0.22,0.97,-14.5402,-8.5412,15.3884,175,75
2026-05-07 18:24:41.764,5,-0.42,-0.24,0.93,-12.030199999999999,-12.7212,13.5084,175,75
2026-05-07 18:24:41.772,5,-0.4,-0.23,0.91,-10.9902,-13.5412,9.5584,175,75
2026-05-07 18:24:41.779,5,-0.38,-0.22,0.89,-10.3102,-14.501199999999999,6.8084,175,75
2026-05-07 18:24:41.790,5,-0.34,-0.23,0.87,-9.440199999999999,-14.931199999999999,6.5984,175,75
2026-05-07 18:24:41.812,5,-0.3,-0.24,0.84,-4.6802,-8.3112,4.1084000000000005,175,75
2026-05-07 18:24:41.826,5,-0.29,-0.22,0.85,-1.8602,-1.0011999999999999,0.5784,175,75
2026-05-07 18:24:41.836,5,-0.29,-0.2,0.86,0.38980000000000004,6.488800000000001,-3.6816000000000004,175,75
2026-05-07 18:24:41.836,5,-0.3,-0.19,0.86,3.0397999999999996,13.138800000000002,-7.611599999999999,175,75
