Time,ID,Ax,Ay,Az,Gx,Gy,Gz,Height,Weight
2026-05-09 16:00:00.828,5,1.02,-0.09,1.04,-32.4402,65.589,-51.983,175,75
2026-05-09 16:00:00.856,5,0.85,-0.19,1.26,-9.3902,246.399,-35.823,175,75
2026-05-09 16:00:00.866,5,0.45,0.06,1.57,7.399800000000001,161.259,47.157000000000004,175,75
2026-05-09 16:00:00.872,5,-0.29,0.09,1.36,16.1898,96.479,40.037,175,75
2026-05-09 16:00:00.878,5,-0.39,0.06,1.38,2.4998,55.139,7.997,175,75
2026-05-09 16:00:00.907,5,-0.29,-0.2,1.19,-2.2702,4.999,-10.023,175,75
2026-05-09 16:00:00.957,5,0.31,-0.04,1.06,-3.9202,-99.271,-6.4830000000000005,175,75
2026-05-09 16:00:00.978,5,0.53,-0.03,0.97,-0.7502,-80.741,-4.993,175,75
2026-05-09 16:00:00.978,5,0.55,-0.01,0.94,-0.7502,-59.771,-7.4030000000000005,175,75
2026-05-09 16:00:00.988,5,0.51,0.01,0.92,-1.6902,-36.940999999999995,-12.253,175,75
2026-05-09 16:00:01.009,5,0.49,0.0,0.93,-0.9201999999999999,-15.491,-17.973,175,75
2026-05-09 16:00:01.009,5,0.5,-0.01,0.98,1.3698000000000001,4.069,-20.583,175,75
2026-05-09 16:00:01.018,5,0.44,-0.0,1.01,4.9398,17.128999999999998,-19.183,175,75
2026-05-09 16:00:01.063,5,0.32,0.02,1.16,-1.8401999999999998,18.159,0.8369999999999997,175,75
2026-05-09 16:00:01.078,5,0.25,0.07,1.27,-12.0002,14.599,17.897,175,75
2026-05-09 16:00:01.078,5,0.02,-0.04,1.07,-16.7302,-10.071,15.347,175,75
2026-05-09 16:00:01.092,5,0.08,-0.13,0.96,3.5898,-38.580999999999996,-4.823,175,75
2026-05-09 16:00:01.102,5,0.25,-0.02,1.05,6.5198,-56.730999999999995,-0.23300000000000054,175,75
2026-05-09 16:00:01.102,5,0.29,-0.0,0.98,-0.49019999999999997,-62.561,-6.593,175,75
2026-05-09 16:00:01.112,5,0.42,-0.05,0.9,-2.4502,-53.471,-7.223000000000001,175,75
2026-05-09 16:00:01.123,5,0.5,-0.06,0.86,-0.1701999999999999,-38.741,-6.7330000000000005,175,75
2026-05-09 16:00:01.136,5,0.58,-0.05,0.88,2.2898,-20.651,-5.183000000000001,175,75
2026-05-09 16:00:01.168,5,0.37,-0.05,1.05,0.059800000000000075,35.029,-4.833,175,75
2026-05-09 16:00:01.178,5,0.29,-0.03,1.09,-0.19019999999999992,31.858999999999998,-4.463,175,75
2026-05-09 16:00:01.222,5,0.21,-0.04,1.1,-1.2601999999999998,-14.421,-6.6530000000000005,175,75
2026-05-09 16:00:01.273,5,0.38,-0.03,0.99,-0.9001999999999999,-3.351,-3.5830000000000006,175,75
2026-05-09 16:00:01.289,5,0.32,-0.05,1.03,0.12980000000000003,6.299,-6.9030000000000005,175,75
2026-05-09 16:00:01.298,5,0.3,-0.04,1.05,0.28980000000000006,6.518999999999999,-9.913,175,75
2026-05-09 16:00:01.308,5,0.29,-0.03,1.08,0.2198000000000001,4.729,-11.753,175,75
2026-05-09 16:00:01.352,5,0.27,-0.03,1.07,-1.2702,-4.971,-7.933,175,75
2026-05-09 16:00:01.352,5,0.27,-0.04,1.05,-1.9002,-6.421,-7.833,175,75
2026-05-09 16:00:01.368,5,0.3,-0.05,1.01,-2.0402,-4.631,-10.923,175,75
2026-05-09 16:00:01.398,5,0.33,-0.04,1.05,-2.4402,3.359,-13.393,175,75
2026-05-09 16:00:01.408,5,0.32,-0.04,1.07,-3.0002,4.609,-12.523,175,75
2026-05-09 16:00:01.433,5,0.28,-0.06,1.08,-3.4202,3.689,-12.823,175,75
2026-05-09 16:00:01.477,5,0.27,-0.04,1.08,-3.8202000000000003,-3.941,-20.232999999999997,175,75
2026-05-09 16:00:01.477,5,0.28,-0.02,1.07,-4.6502,-5.611000000000001,-19.683,175,75
2026-05-09 16:00:01.503,5,0.32,-0.01,1.06,-4.5402000000000005,-5.491,-14.693,175,75
2026-05-09 16:00:01.524,5,0.31,-0.02,1.04,-5.0001999999999995,-4.541,-13.393,175,75
2026-05-09 16:00:01.524,5,0.32,-0.02,1.03,-4.610200000000001,-3.021,-13.633000000000001,175,75
2026-05-09 16:00:01.543,5,0.32,0.0,1.04,-3.0101999999999998,-2.081,-15.043000000000001,175,75
2026-05-09 16:00:01.553,5,0.32,0.02,1.03,-2.1602,-3.191,-15.073,175,75
2026-05-09 16:00:01.565,5,0.33,0.04,1.02,-1.3502,-4.131,-14.243,175,75
2026-05-09 16:00:01.577,5,0.31,0.06,1.02,-0.9401999999999999,-4.5809999999999995,-12.323,175,75
2026-05-09 16:00:01.577,5,0.34,0.06,1.01,-0.5502,-4.141,-9.723,175,75
2026-05-09 16:00:01.587,5,0.37,0.06,1.01,-0.1601999999999999,-2.481,-6.043,175,75
2026-05-09 16:00:01.599,5,0.37,0.06,1.03,-0.2902,-0.8610000000000002,-3.3430000000000004,175,75
2026-05-09 16:00:01.611,5,0.37,0.04,1.04,-0.1501999999999999,0.5390000000000001,-1.6530000000000005,175,75
2026-05-09 16:00:01.627,5,0.36,0.03,1.05,0.4998000000000001,1.2190000000000003,-1.4730000000000003,175,75
2026-05-09 16:00:01.639,5,0.35,0.02,1.08,0.5698000000000001,0.7389999999999999,-1.2530000000000006,175,75
2026-05-09 16:00:01.649,5,0.34,0.01,1.07,0.39980000000000004,-0.5209999999999999,-0.41300000000000026,175,75
2026-05-09 16:00:01.659,5,0.33,-0.02,1.07,-0.32020000000000004,-3.911,2.037,175,75
2026-05-09 16:00:01.670,5,0.33,-0.03,1.05,-0.18019999999999992,-5.621,1.6969999999999992,175,75
2026-05-09 16:00:01.688,5,0.33,-0.04,1.05,-0.2902,-6.5809999999999995,1.5069999999999997,175,75
2026-05-09 16:00:01.688,5,0.33,-0.04,1.02,-0.1601999999999999,-6.631,0.577,175,75
2026-05-09 16:00:01.701,5,0.33,-0.05,1.01,-0.1701999999999999,-6.471,-0.15300000000000047,175,75
2026-05-09 16:00:01.714,5,0.34,-0.04,1.01,0.28980000000000006,-5.601,0.10699999999999932,175,75
2026-05-09 16:00:01.725,5,0.34,-0.04,1.02,0.4398000000000001,-4.711,0.2869999999999999,175,75
2026-05-09 16:00:01.736,5,0.34,-0.04,1.02,0.9398000000000001,-4.231,0.006999999999999673,175,75
2026-05-09 16:00:01.746,5,0.34,-0.03,1.03,0.8398000000000001,-3.871,-0.6430000000000007,175,75
2026-05-09 16:00:01.746,5,0.35,-0.02,1.04,0.8898,-3.491,-0.33300000000000063,175,75
2026-05-09 16:00:01.778,5,0.35,-0.02,1.06,0.9698,-2.511,0.27699999999999925,175,75
2026-05-09 16:00:01.778,5,0.34,-0.02,1.06,1.3798,-3.101,-0.4430000000000005,175,75
2026-05-09 16:00:01.799,5,0.34,-0.01,1.04,0.8998,-5.811,-2.3030000000000004,175,75
2026-05-09 16:00:01.812,5,0.35,-0.01,1.04,0.41980000000000006,-6.621,-2.3030000000000004,175,75
2026-05-09 16:00:01.826,5,0.36,-0.01,1.02,-0.09019999999999995,-6.571,-1.3930000000000007,175,75
2026-05-09 16:00:01.838,5,0.37,-0.02,1.02,-0.32020000000000004,-5.821,-0.7130000000000005,175,75
2026-05-09 16:00:01.844,5,0.37,-0.03,1.01,-0.4401999999999999,-4.341,-1.1630000000000003,175,75
2026-05-09 16:00:01.848,5,0.36,-0.03,1.01,-0.31020000000000003,-3.361,-0.7130000000000005,175,75
2026-05-09 16:00:01.872,5,0.37,-0.04,1.01,-0.23019999999999996,-2.361,-1.3130000000000006,175,75
2026-05-09 16:00:01.884,5,0.37,-0.04,1.02,-0.06019999999999992,-1.8010000000000002,-1.8230000000000004,175,75
2026-05-09 16:00:01.896,5,0.37,-0.04,1.03,-0.1402,-1.7910000000000001,-1.9430000000000005,175,75
2026-05-09 16:00:01.906,5,0.36,-0.04,1.04,-0.10019999999999996,-1.621,-2.2330000000000005,175,75
2026-05-09 16:00:01.906,5,0.36,-0.04,1.04,-0.13019999999999998,-1.861,-3.1930000000000005,175,75
2026-05-09 16:00:01.918,5,0.36,-0.03,1.04,0.15980000000000005,-1.911,-4.503,175,75
2026-05-09 16:00:01.918,5,0.36,-0.02,1.04,0.009800000000000031,-1.841,-5.513000000000001,175,75
2026-05-09 16:00:01.929,5,0.37,-0.01,1.04,-0.2902,-1.921,-6.143000000000001,175,75
2026-05-09 16:00:01.957,5,0.36,-0.01,1.03,-0.5602,-2.551,-7.013,175,75
2026-05-09 16:00:01.959,5,0.36,-0.01,1.03,-1.0202,-2.281,-7.4830000000000005,175,75
2026-05-09 16:00:01.974,5,0.36,-0.01,1.03,-1.2801999999999998,-2.161,-7.753,175,75
2026-05-09 16:00:01.988,5,0.35,-0.0,1.02,-1.7801999999999998,-2.051,-6.7330000000000005,175,75
2026-05-09 16:00:01.988,5,0.36,-0.01,1.02,-1.7401999999999997,-2.521,-6.003,175,75
2026-05-09 16:00:02.003,5,0.36,-0.03,1.02,-1.7102,-2.161,-5.893000000000001,175,75
2026-05-09 16:00:02.017,5,0.36,-0.02,1.02,-1.3601999999999999,-2.101,-6.013000000000001,175,75
2026-05-09 16:00:02.028,5,0.38,-0.01,1.01,-0.2902,0.05900000000000016,-4.553000000000001,175,75
2026-05-09 16:00:02.063,5,0.36,-0.0,1.05,1.0498,1.779,-1.8030000000000004,175,75
2026-05-09 16:00:02.079,5,0.35,0.01,1.06,1.0498,1.0190000000000001,-1.4130000000000003,175,75
2026-05-09 16:00:02.092,5,0.33,0.01,1.06,1.0998,-1.961,-0.2730000000000006,175,75
2026-05-09 16:00:02.107,5,0.34,0.01,1.05,0.41980000000000006,-3.391,0.20699999999999985,175,75
2026-05-09 16:00:02.119,5,0.35,0.01,1.04,0.27980000000000005,-3.761,0.40699999999999914,175,75
2026-05-09 16:00:02.126,5,0.36,0.0,1.04,-0.2902,-3.441,1.537,175,75
2026-05-09 16:00:02.127,5,0.35,-0.01,1.03,-0.6101999999999999,-2.721,1.8969999999999994,175,75
2026-05-09 16:00:02.138,5,0.34,-0.03,1.03,-0.7101999999999999,-2.231,1.6369999999999996,175,75
2026-05-09 16:00:02.149,5,0.34,-0.04,1.03,-0.4001999999999999,-2.091,1.0569999999999995,175,75
2026-05-09 16:00:02.159,5,0.33,-0.05,1.04,-0.24019999999999997,-2.521,0.2469999999999999,175,75
2026-05-09 16:00:02.171,5,0.33,-0.06,1.04,0.01980000000000004,-2.981,-0.2030000000000003,175,75
2026-05-09 16:00:02.206,5,0.34,-0.05,1.03,0.45980000000000004,-2.8810000000000002,-2.543,175,75
2026-05-09 16:00:02.219,5,0.34,-0.04,1.03,0.4398000000000001,-2.2110000000000003,-2.8930000000000007,175,75
2026-05-09 16:00:02.219,5,0.34,-0.03,1.04,0.6398,-1.621,-3.3330000000000006,175,75
2026-05-09 16:00:02.231,5,0.34,-0.03,1.04,0.44980000000000003,-1.5010000000000001,-3.9530000000000003,175,75
2026-05-09 16:00:02.241,5,0.33,-0.02,1.05,0.25980000000000003,-1.2910000000000001,-4.043,175,75
2026-05-09 16:00:02.252,5,0.34,-0.01,1.05,0.1998000000000001,-1.5210000000000001,-4.103000000000001,175,75
2026-05-09 16:00:02.266,5,0.33,-0.01,1.06,0.049800000000000066,-1.601,-3.6930000000000005,175,75
2026-05-09 16:00:02.266,5,0.33,-0.02,1.06,-0.020199999999999996,-1.971,-4.533,175,75
2026-05-09 16:00:02.278,5,0.33,-0.01,1.07,-0.19019999999999992,-2.6710000000000003,-4.363,175,75
2026-05-09 16:00:02.297,5,0.33,-0.02,1.07,-0.5502,-3.751,-4.533,175,75
2026-05-09 16:00:02.309,5,0.33,-0.02,1.06,-0.5602,-4.261,-4.753,175,75
2026-05-09 16:00:02.309,5,0.34,-0.03,1.05,-0.9201999999999999,-4.841,-5.133000000000001,175,75
2026-05-09 16:00:02.327,5,0.34,-0.03,1.03,-1.2302,-4.611,-5.953,175,75
2026-05-09 16:00:02.327,5,0.35,-0.03,1.03,-1.0002,-4.4510000000000005,-6.1930000000000005,175,75
2026-05-09 16:00:02.338,5,0.34,-0.02,1.03,-0.9802,-4.161,-6.383000000000001,175,75
2026-05-09 16:00:02.351,5,0.34,-0.02,1.03,-1.1502,-4.121,-6.753,175,75
2026-05-09 16:00:02.361,5,0.34,-0.02,1.02,-1.0302,-3.701,-6.473000000000001,175,75
2026-05-09 16:00:02.400,5,0.35,-0.02,1.03,-0.8202,-1.671,-6.333,175,75
2026-05-09 16:00:02.400,5,0.34,-0.01,1.04,-0.8501999999999998,-1.1710000000000003,-6.713000000000001,175,75
2026-05-09 16:00:02.418,5,0.34,-0.01,1.05,-0.6601999999999999,-1.741,-6.843,175,75
2026-05-09 16:00:02.428,5,0.33,-0.02,1.05,-0.8701999999999999,-2.541,-7.033,175,75
2026-05-09 16:00:02.454,5,0.34,-0.01,1.04,-1.0702,-3.121,-7.6530000000000005,175,75
2026-05-09 16:00:02.457,5,0.35,-0.01,1.04,-0.8801999999999999,-3.551,-7.783,175,75
2026-05-09 16:00:02.500,5,0.35,-0.01,1.03,-1.4202,-2.0709999999999997,-7.803000000000001,175,75
2026-05-09 16:00:02.535,5,0.36,-0.01,1.04,-1.4302000000000001,-1.881,-8.553,175,75
2026-05-09 16:00:02.548,5,0.35,-0.01,1.03,-1.3801999999999999,-2.231,-8.023,175,75
2026-05-09 16:00:02.577,5,0.37,-0.01,1.02,-1.2601999999999998,-2.151,-7.863,175,75
2026-05-09 16:00:02.577,5,0.37,-0.01,1.03,-1.2502,-1.621,-7.333,175,75
2026-05-09 16:00:02.589,5,0.36,-0.0,1.03,-1.1502,-1.2910000000000001,-7.453,175,75
2026-05-09 16:00:02.600,5,0.36,0.0,1.03,-1.1802,-1.231,-7.283,175,75
2026-05-09 16:00:02.600,5,0.36,0.01,1.03,-1.1401999999999999,-1.401,-6.713000000000001,175,75
2026-05-09 16:00:02.610,5,0.37,0.0,1.04,-1.6802000000000001,-1.591,-6.333,175,75
2026-05-09 16:00:02.622,5,0.36,0.0,1.04,-1.2902,-1.5210000000000001,-5.9030000000000005,175,75
2026-05-09 16:00:02.633,5,0.35,-0.01,1.04,-1.5002,-1.931,-5.9030000000000005,175,75
2026-05-09 16:00:02.633,5,0.35,-0.0,1.04,-1.4901999999999997,-2.1310000000000002,-5.623,175,75
2026-05-09 16:00:02.644,5,0.35,-0.0,1.03,-1.3801999999999999,-1.991,-5.133000000000001,175,75
2026-05-09 16:00:02.660,5,0.36,-0.01,1.03,-0.9601999999999999,-1.461,-4.673,175,75
2026-05-09 16:00:02.671,5,0.36,-0.01,1.03,-0.7202,-1.5410000000000001,-4.683000000000001,175,75
2026-05-09 16:00:02.696,5,0.35,-0.01,1.04,-0.32020000000000004,-1.5410000000000001,-4.473000000000001,175,75
2026-05-09 16:00:02.707,5,0.35,-0.01,1.04,-0.020199999999999996,-1.421,-4.513000000000001,175,75
2026-05-09 16:00:02.707,5,0.35,-0.0,1.05,-0.0401999999999999,-2.0410000000000004,-4.473000000000001,175,75
2026-05-09 16:00:02.729,5,0.35,0.0,1.05,0.049800000000000066,-2.4610000000000003,-3.9630000000000005,175,75
2026-05-09 16:00:02.739,5,0.35,-0.0,1.04,0.11980000000000002,-3.221,-4.4030000000000005,175,75
2026-05-09 16:00:02.749,5,0.36,-0.0,1.04,-0.5202,-3.511,-3.9230000000000005,175,75
2026-05-09 16:00:02.761,5,0.36,-0.01,1.03,-0.32020000000000004,-3.551,-3.7730000000000006,175,75
2026-05-09 16:00:02.771,5,0.36,-0.01,1.02,-0.4301999999999999,-3.321,-3.6530000000000005,175,75
2026-05-09 16:00:02.783,5,0.35,-0.01,1.02,-0.1601999999999999,-2.941,-3.7630000000000003,175,75
2026-05-09 16:00:02.794,5,0.35,-0.01,1.03,-0.18019999999999992,-2.761,-4.073,175,75
2026-05-09 16:00:02.806,5,0.36,-0.01,1.03,-0.1701999999999999,-2.331,-3.7630000000000003,175,75
2026-05-09 16:00:02.806,5,0.37,-0.01,1.03,0.01980000000000004,-1.681,-3.5830000000000006,175,75
2026-05-09 16:00:02.818,5,0.37,-0.01,1.03,0.0898000000000001,-0.7509999999999999,-3.9130000000000003,175,75
2026-05-09 16:00:02.843,5,0.36,-0.0,1.05,-0.5702,-0.19099999999999984,-4.363,175,75
2026-05-09 16:00:02.856,5,0.35,-0.01,1.05,-0.8202,-0.911,-3.043,175,75
2026-05-09 16:00:02.870,5,0.34,-0.01,1.05,-0.8102,-2.101,-2.7030000000000003,175,75
2026-05-09 16:00:02.881,5,0.34,-0.02,1.04,-0.9902,-3.161,-2.8930000000000007,175,75
2026-05-09 16:00:02.896,5,0.36,-0.01,1.03,-0.37019999999999986,-3.451,-4.053000000000001,175,75
2026-05-09 16:00:02.913,5,0.37,-0.01,1.03,-0.23019999999999996,-1.671,-4.563000000000001,175,75
2026-05-09 16:00:02.924,5,0.36,-0.0,1.03,-0.19019999999999992,-0.6510000000000002,-4.293,175,75
2026-05-09 16:00:02.937,5,0.36,-0.0,1.04,-0.5602,-0.46099999999999985,-3.9430000000000005,175,75
2026-05-09 16:00:02.947,5,0.35,-0.0,1.04,-0.5901999999999998,-0.3610000000000002,-3.4230000000000005,175,75
2026-05-09 16:00:02.958,5,0.34,-0.01,1.03,-0.8401999999999998,-1.441,-3.0630000000000006,175,75
2026-05-09 16:00:02.969,5,0.35,-0.01,1.03,-0.6201999999999999,-1.891,-3.1730000000000005,175,75
2026-05-09 16:00:02.980,5,0.36,-0.01,1.03,-0.6501999999999999,-1.421,-3.1630000000000003,175,75
2026-05-09 16:00:02.991,5,0.36,-0.01,1.03,-0.20019999999999993,-1.311,-3.3030000000000004,175,75
2026-05-09 16:00:03.000,5,0.36,-0.0,1.03,-0.19019999999999992,-0.8109999999999999,-3.4130000000000003,175,75
2026-05-09 16:00:03.023,5,0.36,-0.01,1.04,-0.0401999999999999,-0.5609999999999999,-3.7130000000000005,175,75
2026-05-09 16:00:03.038,5,0.36,-0.01,1.04,-0.13019999999999998,-1.0110000000000001,-3.6430000000000007,175,75
2026-05-09 16:00:03.076,5,0.36,-0.01,1.04,-0.7202,-1.461,-2.4530000000000003,175,75
2026-05-09 16:00:03.105,5,0.35,-0.01,1.03,-0.45019999999999993,-1.7510000000000001,-3.1030000000000006,175,75
2026-05-09 16:00:03.116,5,0.35,-0.01,1.03,-0.6101999999999999,-1.341,-3.4930000000000003,175,75
2026-05-09 16:00:03.126,5,0.35,-0.01,1.03,-0.6301999999999999,-1.721,-3.7130000000000005,175,75
2026-05-09 16:00:03.126,5,0.36,-0.01,1.04,-0.8002,-0.931,-3.5430000000000006,175,75
2026-05-09 16:00:03.157,5,0.35,-0.01,1.04,-0.9301999999999999,-1.001,-3.7330000000000005,175,75
2026-05-09 16:00:03.169,5,0.35,-0.01,1.04,-0.8701999999999999,-1.2910000000000001,-3.3030000000000004,175,75
2026-05-09 16:00:03.169,5,0.35,-0.01,1.03,-0.8501999999999998,-1.7510000000000001,-3.5630000000000006,175,75
2026-05-09 16:00:03.180,5,0.35,-0.01,1.03,-0.5402,-2.351,-3.4630000000000005,175,75
2026-05-09 16:00:03.207,5,0.35,-0.01,1.03,-0.5002,-1.931,-4.293,175,75
2026-05-09 16:00:03.207,5,0.36,-0.0,1.03,-0.5402,-1.581,-4.303000000000001,175,75
2026-05-09 16:00:03.219,5,0.35,0.01,1.04,-0.6101999999999999,-1.371,-3.9730000000000003,175,75
2026-05-09 16:00:03.230,5,0.35,0.0,1.04,-0.9201999999999999,-1.651,-3.5530000000000004,175,75
2026-05-09 16:00:03.240,5,0.36,-0.0,1.03,-0.9001999999999999,-1.881,-3.2830000000000004,175,75
2026-05-09 16:00:03.252,5,0.36,-0.0,1.03,-0.8202,-1.5410000000000001,-3.4230000000000005,175,75
2026-05-09 16:00:03.263,5,0.37,-0.0,1.04,-0.5802,-1.101,-3.3130000000000006,175,75
2026-05-09 16:00:03.274,5,0.36,-0.0,1.03,-0.9001999999999999,-0.371,-2.8830000000000005,175,75
2026-05-09 16:00:03.299,5,0.34,-0.02,1.05,-0.6701999999999999,-1.431,-2.4230000000000005,175,75
2026-05-09 16:00:03.309,5,0.34,-0.01,1.05,-0.46019999999999994,-2.061,-3.3330000000000006,175,75
2026-05-09 16:00:03.320,5,0.35,-0.01,1.04,-0.2902,-2.7110000000000003,-4.013000000000001,175,75
2026-05-09 16:00:03.331,5,0.36,-0.01,1.04,-0.3002,-2.871,-3.7230000000000003,175,75
2026-05-09 16:00:03.390,5,0.35,-0.0,1.03,-0.45019999999999993,-1.5310000000000001,-2.9930000000000003,175,75
2026-05-09 16:00:03.390,5,0.35,-0.0,1.04,-0.37019999999999986,-1.651,-2.793,175,75
2026-05-09 16:00:03.435,5,0.35,-0.0,1.04,-0.5002,-2.181,-2.7830000000000004,175,75
2026-05-09 16:00:03.479,5,0.36,-0.0,1.04,-0.7702,-2.341,-2.793,175,75
2026-05-09 16:00:03.511,5,0.35,-0.01,1.05,-0.33020000000000005,-2.251,-2.5730000000000004,175,75
2026-05-09 16:00:03.523,5,0.36,-0.02,1.04,-0.07019999999999993,-2.371,-2.763000000000001,175,75
2026-05-09 16:00:03.533,5,0.35,-0.02,1.05,0.009800000000000031,-2.731,-2.9230000000000005,175,75
2026-05-09 16:00:03.544,5,0.35,-0.01,1.04,-0.2902,-3.751,-3.8830000000000005,175,75
2026-05-09 16:00:03.547,5,0.35,-0.01,1.03,-0.07019999999999993,-3.931,-3.623,175,75
2026-05-09 16:00:03.567,5,0.36,-0.0,1.03,-0.36019999999999985,-3.611,-3.5530000000000004,175,75
2026-05-09 16:00:03.571,5,0.36,0.0,1.02,-0.6001999999999998,-3.161,-3.5630000000000006,175,75
2026-05-09 16:00:03.590,5,0.36,-0.0,1.02,-0.9301999999999999,-2.241,-2.9430000000000005,175,75
2026-05-09 16:00:03.623,5,0.36,-0.01,1.03,-0.7802,-2.141,-2.8830000000000005,175,75
2026-05-09 16:00:03.663,5,0.36,-0.01,1.03,-0.7502,-1.871,-2.5630000000000006,175,75
2026-05-09 16:00:03.663,5,0.36,-0.02,1.03,-0.6101999999999999,-1.7710000000000001,-2.9030000000000005,175,75
2026-05-09 16:00:03.683,5,0.36,-0.02,1.04,-0.5102,-1.2910000000000001,-3.623,175,75
2026-05-09 16:00:03.694,5,0.36,-0.01,1.04,-0.6301999999999999,-1.591,-3.083,175,75
2026-05-09 16:00:03.694,5,0.35,-0.01,1.05,-0.8302,-1.811,-3.0230000000000006,175,75
2026-05-09 16:00:03.705,5,0.35,-0.01,1.04,-0.6801999999999999,-2.0410000000000004,-3.083,175,75
2026-05-09 16:00:03.718,5,0.35,-0.0,1.05,-1.1702,-2.491,-2.8530000000000006,175,75
2026-05-09 16:00:03.733,5,0.36,-0.01,1.04,-1.1602,-2.651,-2.9530000000000003,175,75
2026-05-09 16:00:03.743,5,0.36,-0.01,1.04,-1.2302,-2.491,-3.5830000000000006,175,75
2026-05-09 16:00:03.743,5,0.36,-0.01,1.03,-1.4502000000000002,-2.241,-3.9130000000000003,175,75
2026-05-09 16:00:03.755,5,0.35,-0.01,1.05,-1.4202,-2.401,-3.2830000000000004,175,75
2026-05-09 16:00:03.755,5,0.35,-0.01,1.05,-1.5202,-3.031,-2.4930000000000003,175,75
2026-05-09 16:00:03.767,5,0.34,-0.02,1.04,-1.5002,-3.691,-2.763000000000001,175,75
2026-05-09 16:00:03.809,5,0.37,-0.01,1.02,-1.8502,-4.4510000000000005,-2.9730000000000008,175,75
2026-05-09 16:00:03.896,5,0.37,-0.01,1.02,-0.020199999999999996,-2.361,-1.8430000000000004,175,75
2026-05-09 16:00:03.908,5,0.36,-0.0,1.03,-0.3901999999999999,-1.741,-1.3330000000000006,175,75
2026-05-09 16:00:03.908,5,0.36,-0.01,1.04,-0.1701999999999999,-2.241,-1.1730000000000005,175,75
2026-05-09 16:00:03.956,5,0.35,-0.0,1.05,-0.7101999999999999,-5.911,-1.3130000000000006,175,75
2026-05-09 16:00:03.956,5,0.36,-0.0,1.05,-0.6801999999999999,-5.961,-1.7330000000000005,175,75
2026-05-09 16:00:04.014,5,0.36,-0.02,1.03,-0.9201999999999999,-6.161,-0.8730000000000007,175,75
2026-05-09 16:00:04.054,5,0.37,-0.02,1.03,-1.2302,-7.261,0.3669999999999991,175,75
2026-05-09 16:00:04.068,5,0.37,-0.02,1.03,-1.1001999999999998,-7.131,-0.7930000000000006,175,75
2026-05-09 16:00:04.068,5,0.37,-0.01,1.03,-1.1001999999999998,-7.321,-1.2830000000000004,175,75
2026-05-09 16:00:04.123,5,0.37,-0.02,1.04,-2.7401999999999997,-8.501000000000001,0.7369999999999992,175,75
2026-05-09 16:00:04.159,5,0.37,-0.0,1.04,-4.3702000000000005,-9.741,0.8869999999999996,175,75
2026-05-09 16:00:04.171,5,0.38,-0.01,1.04,-4.770199999999999,-10.001000000000001,1.7969999999999997,175,75
2026-05-09 16:00:04.197,5,0.37,-0.03,1.03,-4.840199999999999,-10.811,0.9669999999999996,175,75
2026-05-09 16:00:04.258,5,0.39,-0.03,1.04,-5.5001999999999995,-6.521,1.5269999999999992,175,75
2026-05-09 16:00:04.258,5,0.38,-0.04,1.03,-4.840199999999999,-5.871,1.9469999999999992,175,75
2026-05-09 16:00:04.270,5,0.37,-0.04,1.03,-4.7501999999999995,-6.191,1.7969999999999997,175,75
2026-05-09 16:00:04.347,5,0.39,-0.06,1.06,-8.3202,-1.231,0.026999999999999247,175,75
2026-05-09 16:00:04.357,5,0.39,-0.07,1.06,-9.1902,-1.421,0.38699999999999957,175,75
2026-05-09 16:00:04.373,5,0.4,-0.08,1.07,-9.7102,-1.741,0.40699999999999914,175,75
2026-05-09 16:00:04.385,5,0.4,-0.09,1.08,-10.4602,-2.031,0.7669999999999995,175,75
2026-05-09 16:00:04.407,5,0.39,-0.09,1.07,-10.010200000000001,-4.751,-2.0830000000000006,175,75
2026-05-09 16:00:04.407,5,0.39,-0.08,1.07,-10.3602,-6.391,-3.7230000000000003,175,75
2026-05-09 16:00:04.418,5,0.41,-0.07,1.07,-11.260200000000001,-7.881,-4.313000000000001,175,75
2026-05-09 16:00:04.447,5,0.42,-0.06,1.08,-13.7802,-9.391,0.32699999999999996,175,75
2026-05-09 16:00:04.447,5,0.41,-0.07,1.1,-15.4602,-10.981,2.287,175,75
2026-05-09 16:00:04.504,5,0.44,-0.05,1.12,-19.7402,-19.001,6.587,175,75
2026-05-09 16:00:04.547,5,0.25,-0.21,1.03,-9.6902,-42.881,21.476999999999997,175,75
2026-05-09 16:00:04.560,5,0.22,-0.22,1.0,-4.840199999999999,-50.840999999999994,17.156999999999996,175,75
2026-05-09 16:00:04.560,5,0.23,-0.23,0.96,-0.4301999999999999,-57.980999999999995,12.996999999999998,175,75
2026-05-09 16:00:04.578,5,0.22,-0.23,0.83,9.9998,-71.521,9.296999999999999,175,75
2026-05-09 16:00:04.587,5,0.22,-0.21,0.78,14.9298,-74.441,5.776999999999999,175,75
2026-05-09 16:00:04.610,5,0.25,-0.17,0.69,20.869799999999998,-72.201,-11.413,175,75
2026-05-09 16:00:04.659,5,0.41,-0.15,0.54,5.6098,-55.160999999999994,-54.493,175,75
2026-05-09 16:00:04.671,5,0.46,-0.17,0.46,4.2298,-48.291,-56.522999999999996,175,75
2026-05-09 16:00:04.671,5,0.45,-0.15,0.4,0.9298000000000001,-36.391,-49.323,175,75
2026-05-09 16:00:04.684,5,0.37,-0.11,0.36,-6.2902000000000005,-24.621000000000002,-41.623,175,75
2026-05-09 16:00:04.687,5,0.23,-0.03,0.36,-18.3902,-14.710999999999999,-40.913,175,75
2026-05-09 16:00:04.706,5,0.15,0.11,0.35,-52.2802,-8.911000000000001,-58.763,175,75
2026-05-09 16:00:04.746,5,0.83,0.17,0.46,-58.9002,40.009,-83.91300000000001,175,75
2026-05-09 16:00:04.746,5,1.17,0.31,0.7,-45.4802,72.779,-60.592999999999996,175,75
2026-05-09 16:00:04.761,5,1.54,0.53,1.2,-38.2602,115.82900000000001,-17.863,175,75
2026-05-09 16:00:04.777,5,1.94,0.77,1.85,-37.2302,103.74900000000001,128.567,175,75
2026-05-09 16:00:04.780,5,1.4,0.75,2.0,-47.2302,164.26899999999998,201.947,175,75
2026-05-09 16:00:04.809,5,0.93,0.57,2.0,-53.8302,246.94899999999998,227.05700000000002,175,75
2026-05-09 16:00:04.809,5,-0.44,-0.05,2.0,-14.4502,246.94899999999998,184.197,175,75
2026-05-09 16:00:04.822,5,-0.86,-0.79,2.0,4.049799999999999,246.94899999999998,47.927,175,75
2026-05-09 16:00:04.833,5,-1.01,-1.43,2.0,10.7698,189.76899999999998,16.517000000000003,175,75
2026-05-09 16:00:04.854,5,-1.99,-1.51,1.85,92.9598,-29.891000000000002,27.256999999999998,175,75
2026-05-09 16:00:04.869,5,-1.11,-0.72,1.94,116.5198,-209.251,-104.543,175,75
2026-05-09 16:00:04.886,5,-0.23,-0.34,1.78,119.85979999999999,-253.321,-111.10300000000001,175,75
2026-05-09 16:00:04.897,5,0.35,0.09,1.72,121.8298,-253.321,-87.203,175,75
2026-05-09 16:00:04.897,5,0.58,0.35,1.6,103.6198,-253.321,-91.49300000000001,175,75
2026-05-09 16:00:04.926,5,0.95,0.56,1.17,43.5198,-196.651,-136.173,175,75
2026-05-09 16:00:04.940,5,0.8,0.5,0.72,-4.940200000000001,-150.92100000000002,-120.403,175,75
2026-05-09 16:00:04.950,5,0.68,0.42,0.48,-9.4502,-133.01100000000002,-106.07300000000001,175,75
2026-05-09 16:00:04.967,5,0.55,0.34,0.32,-1.4901999999999997,-117.331,-90.733,175,75
2026-05-09 16:00:04.967,5,0.38,0.31,0.23,9.3798,-101.521,-80.74300000000001,175,75
2026-05-09 16:00:04.978,5,0.21,0.28,0.23,18.0798,-88.451,-76.433,175,75
2026-05-09 16:00:04.996,5,0.08,0.18,0.17,23.9798,-81.67099999999999,-71.973,175,75
2026-05-09 16:00:05.007,5,0.01,0.06,0.09,33.3898,-82.81099999999999,-61.772999999999996,175,75
2026-05-09 16:00:05.007,5,-0.07,-0.06,-0.02,47.8498,-90.03099999999999,-39.653,175,75
2026-05-09 16:00:05.016,5,-0.15,-0.14,-0.16,67.0398,-107.161,-10.153,175,75
2026-05-09 16:00:05.032,5,-0.28,-0.15,-0.36,89.5798,-138.58100000000002,22.347,175,75
2026-05-09 16:00:05.055,5,-0.22,-0.37,-0.48,147.6098,-209.131,80.86699999999999,175,75
2026-05-09 16:00:05.058,5,0.0,0.12,-0.85,151.80980000000002,-223.591,108.387,175,75
2026-05-09 16:00:05.090,5,0.05,0.1,-0.43,59.7498,-146.281,119.857,175,75
2026-05-09 16:00:05.102,5,0.0,-0.12,-0.35,36.949799999999996,-88.951,118.957,175,75
2026-05-09 16:00:05.114,5,-0.03,-0.25,-0.27,26.4198,-21.141000000000002,101.687,175,75
2026-05-09 16:00:05.160,5,2.0,-0.67,0.05,14.6798,246.94899999999998,24.796999999999997,175,75
2026-05-09 16:00:05.173,5,2.0,-0.52,1.59,17.4798,246.94899999999998,75.97699999999999,175,75
2026-05-09 16:00:05.186,5,0.86,0.46,2.0,26.2498,246.94899999999998,146.827,175,75
2026-05-09 16:00:05.197,5,1.11,0.28,2.0,38.4298,246.94899999999998,-37.083,175,75
2026-05-09 16:00:05.207,5,-0.88,-0.39,1.96,43.949799999999996,246.94899999999998,-180.313,175,75
2026-05-09 16:00:05.222,5,-2.0,-0.42,0.8,79.8398,246.94899999999998,-254.29299999999998,175,75
2026-05-09 16:00:05.242,5,-2.0,1.41,2.0,-108.64020000000001,-249.941,-158.493,175,75
2026-05-09 16:00:05.256,5,-1.42,1.2,2.0,-192.09019999999998,-253.321,-102.723,175,75
2026-05-09 16:00:05.256,5,0.16,0.7,2.0,-225.16019999999997,-253.321,11.116999999999999,175,75
2026-05-09 16:00:05.271,5,1.33,0.07,2.0,-195.35019999999997,-222.031,197.287,175,75
2026-05-09 16:00:05.281,5,1.46,-0.4,2.0,-102.3702,-102.341,245.977,175,75
2026-05-09 16:00:05.300,5,-0.57,-0.61,2.0,-46.7902,-253.321,245.977,175,75
2026-05-09 16:00:05.310,5,0.89,-1.12,1.67,-93.3602,-253.321,245.977,175,75
2026-05-09 16:00:05.321,5,0.57,-1.38,0.98,-85.6302,-253.321,245.977,175,75
2026-05-09 16:00:05.349,5,-0.39,-1.65,-0.17,-10.1102,-88.961,-119.013,175,75
2026-05-09 16:00:05.360,5,-0.79,-1.06,0.04,14.8498,-34.911,-254.29299999999998,175,75
2026-05-09 16:00:05.377,5,-0.51,0.04,0.14,31.3898,8.349,-254.29299999999998,175,75
2026-05-09 16:00:05.390,5,-0.31,0.61,0.18,8.8498,15.869,-254.29299999999998,175,75
2026-05-09 16:00:05.399,5,-0.09,1.09,0.07,-39.8902,28.839000000000002,-254.29299999999998,175,75
2026-05-09 16:00:05.586,5,1.28,-0.84,2.0,2.4497999999999998,246.94899999999998,-152.993,175,75
2026-05-09 16:00:05.586,5,1.75,-0.67,2.0,-23.3202,246.94899999999998,-254.29299999999998,175,75
2026-05-09 16:00:05.601,5,-0.04,-0.8,2.0,-73.8102,246.94899999999998,-254.29299999999998,175,75
2026-05-09 16:00:05.615,5,-0.96,-0.96,2.0,-63.8802,246.94899999999998,-254.29299999999998,175,75
2026-05-09 16:00:05.622,5,-1.3,-0.79,1.74,-29.6502,246.94899999999998,-254.29299999999998,175,75
2026-05-09 16:00:05.640,5,-1.31,0.34,2.0,-37.7402,-58.400999999999996,-154.29299999999998,175,75
2026-05-09 16:00:05.659,5,-0.79,0.73,2.0,-132.2602,-218.05100000000002,-33.773,175,75
2026-05-09 16:00:05.670,5,-0.24,0.43,2.0,-149.9802,-240.02100000000002,39.907000000000004,175,75
2026-05-09 16:00:05.682,5,0.22,-0.03,2.0,-111.7802,-229.64100000000002,124.877,175,75
2026-05-09 16:00:05.697,5,-0.07,-0.41,1.61,-31.1102,-251.781,172.92700000000002,175,75
2026-05-09 16:00:05.697,5,-0.13,-0.44,1.34,8.3898,-253.321,181.537,175,75
2026-05-09 16:00:05.727,5,0.3,-0.54,0.38,35.4098,-253.321,200.507,175,75
2026-05-09 16:00:05.769,5,0.7,-0.25,-1.29,154.15980000000002,-130.001,75.267,175,75
2026-05-09 16:00:05.854,5,0.97,0.39,-0.92,-83.5302,9.568999999999999,-93.623,175,75
2026-05-09 16:00:05.866,5,0.76,0.43,-0.77,-61.8502,130.909,-41.493,175,75
2026-05-09 16:00:05.877,5,1.07,0.4,-0.69,-43.3602,246.94899999999998,4.026999999999999,175,75
2026-05-09 16:00:05.888,5,1.74,0.29,-0.62,-20.4202,246.94899999999998,85.44699999999999,175,75
2026-05-09 16:00:05.888,5,2.0,0.28,-0.42,-0.6801999999999999,246.94899999999998,197.737,175,75
2026-05-09 16:00:05.899,5,2.0,0.48,0.28,-2.2201999999999997,246.94899999999998,245.977,175,75
2026-05-09 16:00:05.911,5,0.14,0.49,2.0,-109.0802,246.94899999999998,245.977,175,75
2026-05-09 16:00:05.928,5,0.39,-1.23,2.0,-90.3602,246.94899999999998,153.717,175,75
2026-05-09 16:00:05.948,5,-1.58,-0.99,1.45,-67.39020000000001,246.94899999999998,55.517,175,75
2026-05-09 16:00:05.984,5,-2.0,-1.34,2.0,51.0998,-30.951,-254.29299999999998,175,75
2026-05-09 16:00:05.995,5,-1.51,-0.84,2.0,92.1298,-237.45100000000002,-254.29299999999998,175,75
2026-05-09 16:00:06.006,5,0.62,0.47,2.0,107.1298,-253.321,-241.593,175,75
2026-05-09 16:00:06.006,5,0.73,0.58,2.0,108.3198,-253.321,-132.72299999999998,175,75
2026-05-09 16:00:06.012,5,0.86,0.9,1.75,99.6598,-253.321,-154.10299999999998,175,75
2026-05-09 16:00:06.023,5,1.45,0.9,1.42,80.4798,-253.321,-159.333,175,75
2026-05-09 16:00:06.032,5,1.94,0.75,1.18,44.8998,-205.571,-106.653,175,75
2026-05-09 16:00:06.046,5,2.0,0.54,0.86,14.1098,-112.721,-37.393,175,75
2026-05-09 16:00:06.054,5,1.42,0.44,0.65,2.7198,-28.941000000000003,-1.4430000000000005,175,75
2026-05-09 16:00:06.076,5,0.58,0.14,0.61,3.5698,54.509,-58.043,175,75
2026-05-09 16:00:06.091,5,0.53,0.24,0.82,30.5098,44.409000000000006,-75.88300000000001,175,75
2026-05-09 16:00:06.102,5,0.43,0.36,0.85,33.5798,8.459,-58.643,175,75
2026-05-09 16:00:06.116,5,0.23,0.39,0.78,28.5998,-20.241,-46.803,175,75
2026-05-09 16:00:06.126,5,0.09,0.37,0.68,22.9698,-42.921,-43.772999999999996,175,75
2026-05-09 16:00:06.137,5,-0.12,0.29,0.42,17.4798,-98.071,-41.173,175,75
2026-05-09 16:00:06.179,5,-0.03,0.22,0.06,8.909799999999999,-143.571,-9.303,175,75
2026-05-09 16:00:06.215,5,-0.03,0.21,-0.14,8.2898,-151.031,8.036999999999999,175,75
2026-05-09 16:00:06.215,5,-0.07,0.16,-0.34,11.4798,-160.36100000000002,26.197000000000003,175,75
2026-05-09 16:00:06.215,5,0.03,0.03,-0.63,25.9798,-166.51100000000002,47.577,175,75
2026-05-09 16:00:06.235,5,-0.08,-0.07,-1.08,75.6198,-170.131,80.777,175,75
2026-05-09 16:00:06.263,5,0.07,0.19,-0.88,144.7398,-196.08100000000002,145.20700000000002,175,75
2026-05-09 16:00:06.280,5,0.21,-0.06,-0.46,114.0998,-95.661,195.507,175,75
2026-05-09 16:00:06.288,5,0.41,-0.45,-0.44,81.7998,96.869,150.487,175,75
2026-05-09 16:00:06.288,5,0.6,-0.48,-0.34,81.6698,216.619,113.707,175,75
2026-05-09 16:00:06.297,5,0.9,-0.34,-0.17,75.2498,246.94899999999998,85.347,175,75
2026-05-09 16:00:06.316,5,2.0,-0.42,0.08,66.4898,246.94899999999998,66.237,175,75
2026-05-09 16:00:06.319,5,2.0,1.62,-1.58,71.5498,246.94899999999998,43.187000000000005,175,75
2026-05-09 16:00:06.335,5,1.45,0.21,2.0,102.4998,246.94899999999998,-196.373,175,75
2026-05-09 16:00:06.346,5,2.0,0.76,2.0,31.2498,246.94899999999998,-254.29299999999998,175,75
2026-05-09 16:00:06.361,5,-0.19,-0.14,2.0,22.8998,246.94899999999998,-254.29299999999998,175,75
2026-05-09 16:00:06.368,5,-2.0,-0.09,1.71,14.8098,246.94899999999998,-254.29299999999998,175,75
2026-05-09 16:00:06.382,5,-2.0,0.17,1.84,11.4298,246.94899999999998,-254.29299999999998,175,75
2026-05-09 16:00:06.440,5,-0.08,-0.34,1.99,-73.1602,-253.321,245.977,175,75
2026-05-09 16:00:06.448,5,1.13,-0.81,1.05,-121.0002,-253.321,245.977,175,75
2026-05-09 16:00:06.460,5,1.84,-1.24,0.24,-126.6502,-253.321,245.977,175,75
2026-05-09 16:00:06.473,5,2.0,-1.52,-0.48,-92.8402,-253.321,245.977,175,75
2026-05-09 16:00:06.500,5,-1.03,-0.78,0.27,23.5798,14.898999999999997,-202.54299999999998,175,75
2026-05-09 16:00:06.537,5,-0.61,0.32,0.19,62.4398,53.299,-254.29299999999998,175,75
2026-05-09 16:00:06.550,5,-0.27,0.76,0.07,30.7598,62.339,-254.29299999999998,175,75
2026-05-09 16:00:06.550,5,0.95,0.99,-0.23,-21.9002,92.649,-254.29299999999998,175,75
2026-05-09 16:00:06.559,5,2.0,1.41,-0.81,-49.6402,162.939,-254.29299999999998,175,75
2026-05-09 16:00:06.576,5,1.47,1.46,-0.62,-65.9402,147.44899999999998,-119.183,175,75
2026-05-09 16:00:06.598,5,0.05,0.44,0.19,-76.6202,51.589000000000006,-21.333,175,75
2026-05-09 16:00:06.611,5,0.25,0.07,0.34,-34.6502,74.659,3.8869999999999987,175,75
2026-05-09 16:00:06.611,5,0.21,-0.14,0.69,-3.8002,75.10900000000001,68.83699999999999,175,75
2026-05-09 16:00:06.621,5,-0.12,-0.01,0.4,20.4198,62.769000000000005,125.94699999999999,175,75
2026-05-09 16:00:06.636,5,-0.31,-0.02,0.31,43.8198,29.179,153.377,175,75
2026-05-09 16:00:06.646,5,-0.13,0.01,0.28,58.4798,-11.991,172.157,175,75
2026-05-09 16:00:06.646,5,0.25,0.03,0.25,66.6398,-40.471,205.577,175,75
2026-05-09 16:00:06.661,5,0.82,0.02,0.17,71.8298,-48.741,245.977,175,75
2026-05-09 16:00:06.702,5,1.04,-0.59,0.61,9.819799999999999,98.349,178.567,175,75
2026-05-09 16:00:06.717,5,0.82,-0.59,1.13,4.549799999999999,177.82899999999998,80.69699999999999,175,75
2026-05-09 16:00:06.758,5,-0.01,-0.94,2.0,-91.1902,246.94899999999998,-225.523,175,75
2026-05-09 16:00:06.786,5,-1.62,0.15,2.0,-20.0702,69.349,-228.233,175,75
2026-05-09 16:00:06.812,5,-0.95,0.22,2.0,-109.8402,-253.321,8.827,175,75
2026-05-09 16:00:06.823,5,-0.49,-0.1,2.0,-74.1202,-253.321,79.297,175,75
2026-05-09 16:00:06.836,5,-0.43,-0.39,1.56,4.1297999999999995,-253.321,120.83699999999999,175,75
2026-05-09 16:00:06.848,5,0.24,-0.22,0.7,50.8798,-253.321,111.42699999999999,175,75
2026-05-09 16:00:06.867,5,0.36,-0.19,0.09,51.9298,-253.321,103.08699999999999,175,75
2026-05-09 16:00:06.877,5,2.0,-0.17,-0.58,60.4598,-253.321,117.797,175,75
2026-05-09 16:00:06.877,5,2.0,0.07,-2.0,111.8098,-253.321,216.347,175,75
2026-05-09 16:00:06.888,5,0.89,0.47,-2.0,165.89980000000003,-126.101,173.757,175,75
2026-05-09 16:00:06.898,5,-0.79,0.15,-1.04,150.64980000000003,-84.041,56.407000000000004,175,75
2026-05-09 16:00:06.927,5,-1.58,0.24,-0.41,84.9298,-160.911,-179.833,175,75
2026-05-09 16:00:06.931,5,-1.18,0.2,-0.59,40.7698,-205.911,-226.183,175,75
2026-05-09 16:00:06.966,5,0.02,0.53,-0.87,-54.8102,-192.98100000000002,-135.29299999999998,175,75
2026-05-09 16:00:06.983,5,0.22,0.5,-0.7,-84.6002,11.669,-74.63300000000001,175,75
2026-05-09 16:00:07.001,5,0.44,0.42,-0.55,-77.4702,228.13899999999998,-78.33300000000001,175,75
2026-05-09 16:00:07.016,5,1.16,0.35,-0.59,-60.4102,246.94899999999998,-36.393,175,75
2026-05-09 16:00:07.029,5,2.0,0.49,-0.34,-55.1302,246.94899999999998,178.30700000000002,175,75
2026-05-09 16:00:07.066,5,2.0,-1.54,2.0,-39.8502,189.059,199.137,175,75
2026-05-09 16:00:07.075,5,-0.48,-0.62,2.0,-35.550200000000004,246.94899999999998,84.69699999999999,175,75
2026-05-09 16:00:07.083,5,-2.0,-0.7,1.6,-42.9202,246.94899999999998,-64.593,175,75
2026-05-09 16:00:07.106,5,-2.0,-1.28,1.56,7.2698,246.94899999999998,-254.29299999999998,175,75
2026-05-09 16:00:07.134,5,0.16,0.5,2.0,60.8098,-253.321,-83.113,175,75
2026-05-09 16:00:07.138,5,0.45,0.86,2.0,54.5098,-253.321,-99.263,175,75
2026-05-09 16:00:07.149,5,0.81,0.78,1.77,68.9698,-253.321,-101.91300000000001,175,75
2026-05-09 16:00:07.208,5,1.22,0.11,0.41,7.139799999999999,-41.701,-15.453000000000001,175,75
2026-05-09 16:00:07.219,5,0.88,0.16,0.47,24.2198,15.998999999999999,-39.202999999999996,175,75
2026-05-09 16:00:07.219,5,0.68,0.19,0.52,36.3898,47.459,-60.723,175,75
2026-05-09 16:00:07.229,5,0.63,0.28,0.68,39.3198,55.509,-61.903,175,75
2026-05-09 16:00:07.239,5,0.53,0.32,0.74,37.5298,49.479,-48.123,175,75
2026-05-09 16:00:07.250,5,0.36,0.3,0.73,37.1598,33.189,-23.773000000000003,175,75
2026-05-09 16:00:07.266,5,0.13,0.28,0.72,36.0298,17.198999999999998,-5.973000000000001,175,75
2026-05-09 16:00:07.277,5,-0.14,0.23,0.66,32.9698,2.979,-4.553000000000001,175,75
2026-05-09 16:00:07.277,5,-0.34,0.2,0.61,29.2998,-15.901,-13.683,175,75
2026-05-09 16:00:07.289,5,-0.52,0.2,0.52,23.6098,-43.821,-24.643,175,75
2026-05-09 16:00:07.301,5,-0.61,0.22,0.43,12.989799999999999,-83.64099999999999,-34.913000000000004,175,75
2026-05-09 16:00:07.313,5,-0.7,0.14,0.19,6.969799999999999,-136.621,-44.943,175,75
2026-05-09 16:00:07.326,5,-0.66,0.04,-0.11,17.2098,-198.27100000000002,-51.073,175,75
2026-05-09 16:00:07.343,5,0.87,-0.43,-1.37,127.6798,-243.721,67.027,175,75
2026-05-09 16:00:07.364,5,0.51,0.1,-1.65,224.93980000000002,-232.64100000000002,158.137,175,75
2026-05-09 16:00:07.364,5,0.05,0.41,-1.25,248.09980000000002,-232.54100000000003,202.607,175,75
2026-05-09 16:00:07.388,5,0.08,-0.13,0.01,200.62980000000002,-213.191,245.977,175,75
2026-05-09 16:00:07.402,5,0.34,-0.26,-0.07,156.05980000000002,-112.971,245.977,175,75
2026-05-09 16:00:07.425,5,0.37,-0.6,-0.29,98.85979999999999,182.29899999999998,131.507,175,75
2026-05-09 16:00:07.466,5,-0.1,-0.89,1.47,78.1298,246.94899999999998,-168.433,175,75
2026-05-09 16:00:07.476,5,2.0,0.89,2.0,15.7998,246.94899999999998,-254.29299999999998,175,75
2026-05-09 16:00:07.487,5,1.58,0.6,2.0,-73.4702,246.94899999999998,-254.29299999999998,175,75
2026-05-09 16:00:07.487,5,-0.57,-0.01,2.0,-92.0702,246.94899999999998,-254.29299999999998,175,75
2026-05-09 16:00:07.513,5,-2.0,0.19,2.0,-111.6302,233.869,-254.29299999999998,175,75
2026-05-09 16:00:07.532,5,-2.0,0.33,2.0,-125.6302,-115.271,41.537,175,75
2026-05-09 16:00:07.545,5,-1.57,0.19,2.0,-115.8402,-179.001,173.447,175,75
2026-05-09 16:00:07.569,5,-0.9,-0.03,2.0,-44.6802,-253.321,245.977,175,75
2026-05-09 16:00:07.583,5,0.25,-0.58,1.85,-123.8702,-253.321,245.977,175,75
2026-05-09 16:00:07.594,5,0.97,-1.03,0.93,-122.1502,-253.321,245.977,175,75
2026-05-09 16:00:07.598,5,0.93,-1.22,0.22,-87.6802,-253.321,245.977,175,75
2026-05-09 16:00:07.610,5,2.0,-1.18,-0.38,-50.9102,-253.321,245.977,175,75
2026-05-09 16:00:07.633,5,0.13,-1.1,-0.42,-9.8102,-94.941,-95.503,175,75
2026-05-09 16:00:07.646,5,-0.42,-0.7,-0.04,21.2098,-34.291,-213.41299999999998,175,75
2026-05-09 16:00:07.658,5,-0.52,-0.35,0.18,42.2098,3.599,-254.29299999999998,175,75
2026-05-09 16:00:07.686,5,-0.37,0.63,0.08,17.8798,37.739000000000004,-254.29299999999998,175,75
2026-05-09 16:00:07.698,5,1.84,0.3,-0.02,-11.9002,79.119,-254.29299999999998,175,75
2026-05-09 16:00:07.709,5,1.08,1.12,-0.57,-32.5802,82.099,-188.763,175,75
2026-05-09 16:00:07.721,5,0.05,1.03,-0.43,-51.8502,38.189,-92.33300000000001,175,75
2026-05-09 16:00:07.746,5,0.07,0.26,-0.05,-18.7402,-5.8309999999999995,8.786999999999999,175,75
2026-05-09 16:00:07.746,5,0.11,0.16,0.12,7.969799999999999,8.049,63.086999999999996,175,75
2026-05-09 16:00:07.758,5,0.04,0.18,0.03,26.5898,8.099,118.94699999999999,175,75
2026-05-09 16:00:07.806,5,0.55,0.07,0.01,73.60979999999999,40.899,245.977,175,75
2026-05-09 16:00:07.817,5,0.78,-0.08,0.1,76.1798,74.929,245.977,175,75
2026-05-09 16:00:07.828,5,0.96,-0.2,0.27,69.9698,102.49900000000001,245.977,175,75
2026-05-09 16:00:07.828,5,1.02,-0.3,0.94,29.5698,81.379,245.977,175,75
2026-05-09 16:00:07.860,5,1.01,-1.18,2.0,-21.8602,128.129,-59.823,175,75
2026-05-09 16:00:07.860,5,2.0,-0.64,2.0,-27.9602,246.94899999999998,-233.303,175,75
2026-05-09 16:00:07.871,5,1.74,-0.47,2.0,-63.0602,246.94899999999998,-254.29299999999998,175,75
2026-05-09 16:00:07.888,5,-1.29,-0.69,2.0,-79.1002,246.94899999999998,-254.29299999999998,175,75
2026-05-09 16:00:07.937,5,-1.25,0.7,2.0,-105.2802,-215.371,-71.623,175,75
2026-05-09 16:00:07.949,5,-0.05,0.4,2.0,-144.2102,-253.321,72.39699999999999,175,75
2026-05-09 16:00:07.968,5,0.1,-0.06,2.0,-93.4502,-253.321,138.92700000000002,175,75
2026-05-09 16:00:07.968,5,-0.09,-0.4,1.64,-16.5802,-253.321,167.497,175,75
2026-05-09 16:00:07.988,5,0.01,-0.45,1.27,12.7098,-253.321,157.89700000000002,175,75
2026-05-09 16:00:07.988,5,0.44,-0.58,0.68,30.5898,-253.321,165.467,175,75
2026-05-09 16:00:07.998,5,0.5,-0.51,0.27,47.9598,-253.321,163.05700000000002,175,75
2026-05-09 16:00:08.009,5,0.7,-0.49,-0.02,60.5598,-253.321,145.917,175,75
2026-05-09 16:00:08.019,5,1.04,-0.39,-0.42,74.8098,-253.321,115.247,175,75
2026-05-09 16:00:08.032,5,1.48,-0.47,-1.2,83.2698,-235.071,61.267,175,75
2026-05-09 16:00:08.056,5,-0.26,-0.16,-1.46,117.7098,-95.53099999999999,-64.49300000000001,175,75
2026-05-09 16:00:08.056,5,-0.75,0.09,-1.18,90.5498,-119.89099999999999,-112.003,175,75
2026-05-09 16:00:08.076,5,-0.61,0.24,-0.72,32.6898,-147.661,-115.043,175,75
2026-05-09 16:00:08.082,5,-0.56,0.3,-0.47,-34.0102,-156.651,-88.49300000000001,175,75
2026-05-09 16:00:08.099,5,-0.63,0.4,-0.53,-128.93019999999999,-147.39100000000002,-99.703,175,75
2026-05-09 16:00:08.117,5,-0.16,0.41,-0.68,-141.16019999999997,-101.101,-131.303,175,75
2026-05-09 16:00:08.127,5,0.27,0.39,-0.79,-127.95020000000001,-17.871,-154.503,175,75
2026-05-09 16:00:08.127,5,0.47,0.5,-0.87,-107.8702,88.369,-175.16299999999998,175,75
2026-05-09 16:00:08.139,5,0.45,0.47,-0.73,-82.0802,191.79899999999998,-195.173,175,75
2026-05-09 16:00:08.166,5,1.56,0.54,-0.65,-37.9902,246.94899999999998,-137.933,175,75
2026-05-09 16:00:08.177,5,1.75,0.8,-0.32,-47.6102,246.94899999999998,-58.323,175,75
2026-05-09 16:00:08.192,5,2.0,2.0,2.0,-227.50019999999998,246.94899999999998,245.977,175,75
2026-05-09 16:00:08.224,5,-0.93,-0.52,1.3,-79.1302,246.94899999999998,110.187,175,75
2026-05-09 16:00:08.255,5,-2.0,-1.9,2.0,10.9298,-34.441,-215.233,175,75
2026-05-09 16:00:08.267,5,-2.0,-1.46,2.0,66.8398,-248.26100000000002,-254.29299999999998,175,75
2026-05-09 16:00:08.281,5,1.08,0.71,2.0,136.7998,-253.321,-254.29299999999998,175,75
2026-05-09 16:00:08.291,5,1.36,0.69,1.73,145.84980000000002,-253.321,-252.423,175,75
2026-05-09 16:00:08.303,5,1.72,1.34,1.49,108.60979999999999,-253.321,-228.173,175,75
2026-05-09 16:00:08.315,5,2.0,1.22,1.08,44.9398,-253.321,-157.263,175,75
2026-05-09 16:00:08.323,5,2.0,0.89,0.35,18.3098,-122.89099999999999,16.847,175,75
2026-05-09 16:00:08.337,5,1.58,0.73,0.29,6.409800000000001,-21.721,110.44699999999999,175,75
2026-05-09 16:00:08.337,5,0.76,0.48,0.3,-12.760200000000001,28.479,115.297,175,75
2026-05-09 16:00:08.360,5,0.45,-0.06,0.38,4.6798,45.899,28.607,175,75
2026-05-09 16:00:08.382,5,0.48,0.15,0.82,36.2798,48.649,-69.82300000000001,175,75
2026-05-09 16:00:08.393,5,0.29,0.23,0.72,35.5698,29.978999999999996,-85.24300000000001,175,75
2026-05-09 16:00:08.404,5,0.17,0.23,0.63,36.449799999999996,3.9989999999999997,-77.783,175,75
2026-05-09 16:00:08.417,5,0.06,0.21,0.62,38.5798,-18.441,-59.903,175,75
2026-05-09 16:00:08.427,5,-0.09,0.19,0.55,41.2298,-37.781,-42.713,175,75
2026-05-09 16:00:08.427,5,-0.19,0.15,0.5,41.8198,-54.870999999999995,-29.783,175,75
2026-05-09 16:00:08.438,5,-0.22,0.13,0.42,40.1198,-73.451,-12.903,175,75
2026-05-09 16:00:08.450,5,-0.25,0.13,0.3,37.9098,-95.831,9.017,175,75
2026-05-09 16:00:08.459,5,-0.33,0.14,0.1,37.4298,-126.071,30.417,175,75
2026-05-09 16:00:08.470,5,-0.28,0.02,-0.19,48.7198,-164.161,55.097,175,75
2026-05-09 16:00:08.480,5,-0.17,0.05,-0.47,71.7998,-202.061,84.53699999999999,175,75
2026-05-09 16:00:08.492,5,-0.1,-0.06,-0.62,93.2098,-228.14100000000002,112.797,175,75
2026-05-09 16:00:08.521,5,0.1,-0.1,-1.03,163.12980000000002,-242.70100000000002,168.42700000000002,175,75
2026-05-09 16:00:08.534,5,0.42,-0.06,-0.87,183.3598,-175.80100000000002,204.157,175,75
2026-05-09 16:00:08.543,5,0.46,-0.12,-0.75,157.34980000000002,-86.451,177.39700000000002,175,75
2026-05-09 16:00:08.585,5,0.52,-0.53,-0.14,78.4498,205.219,129.287,175,75
2026-05-09 16:00:08.596,5,1.26,-0.56,-0.01,64.2198,246.94899999999998,132.30700000000002,175,75
2026-05-09 16:00:08.608,5,2.0,-0.81,0.45,126.5398,246.94899999999998,31.076999999999998,175,75
2026-05-09 16:00:08.608,5,-1.02,-1.15,2.0,116.8898,246.94899999999998,-254.29299999999998,175,75
2026-05-09 16:00:08.619,5,0.85,0.52,2.0,16.8098,246.94899999999998,-254.29299999999998,175,75
2026-05-09 16:00:08.631,5,-0.65,-0.07,2.0,-11.090200000000001,246.94899999999998,-254.29299999999998,175,75
2026-05-09 16:00:08.644,5,-1.8,0.14,2.0,-17.1602,246.94899999999998,-254.29299999999998,175,75
2026-05-09 16:00:08.656,5,-2.0,0.41,2.0,-12.9702,103.059,-254.29299999999998,175,75
2026-05-09 16:00:08.667,5,-2.0,0.88,2.0,-32.1102,-101.551,-189.683,175,75
2026-05-09 16:00:08.689,5,-0.81,1.08,2.0,-91.9802,-253.321,77.817,175,75
2026-05-09 16:00:08.700,5,0.44,0.9,2.0,-82.5702,-253.321,243.477,175,75
2026-05-09 16:00:08.700,5,1.02,0.24,2.0,-10.3202,-253.321,245.977,175,75
2026-05-09 16:00:08.713,5,1.5,0.33,1.95,9.3898,-253.321,245.977,175,75
2026-05-09 16:00:08.724,5,0.96,0.02,1.61,-19.1602,-253.321,245.977,175,75
2026-05-09 16:00:08.735,5,0.55,-0.57,0.77,-64.6202,-253.321,245.977,175,75
2026-05-09 16:00:08.747,5,1.78,-1.6,0.01,-67.2902,-253.321,245.977,175,75
2026-05-09 16:00:08.747,5,1.36,-1.5,-0.33,-26.1502,-253.321,245.977,175,75
2026-05-09 16:00:08.759,5,0.09,-1.26,-0.14,2.8598,-128.321,192.327,175,75
2026-05-09 16:00:08.769,5,-0.86,-0.92,0.21,16.8998,-51.690999999999995,0.27699999999999925,175,75
2026-05-09 16:00:08.796,5,-1.35,-0.48,0.3,45.1598,-27.031000000000002,-254.29299999999998,175,75
2026-05-09 16:00:08.806,5,-1.11,-0.12,0.23,44.4898,-39.870999999999995,-254.29299999999998,175,75
2026-05-09 16:00:08.817,5,-0.69,0.23,0.1,31.5098,-47.590999999999994,-254.29299999999998,175,75
2026-05-09 16:00:08.817,5,-0.25,0.61,-0.18,-3.4202,-46.230999999999995,-254.29299999999998,175,75
2026-05-09 16:00:08.830,5,0.48,0.61,-0.34,-46.050200000000004,-22.911,-254.29299999999998,175,75
2026-05-09 16:00:08.851,5,1.26,1.01,-0.97,-98.8802,112.299,-239.053,175,75
2026-05-09 16:00:08.861,5,0.27,0.87,-0.64,-122.4402,118.089,-165.453,175,75
2026-05-09 16:00:08.874,5,0.11,0.49,-0.35,-119.9102,117.679,-127.80300000000001,175,75
2026-05-09 16:00:08.887,5,0.1,0.21,-0.1,-97.6502,140.41899999999998,-92.063,175,75
2026-05-09 16:00:08.896,5,0.18,0.12,0.09,-69.2702,169.969,-51.243,175,75
2026-05-09 16:00:08.897,5,0.45,0.19,0.15,-40.1002,192.039,16.057000000000002,175,75
2026-05-09 16:00:08.908,5,0.44,0.21,0.31,-19.2502,149.089,174.967,175,75
2026-05-09 16:00:08.936,5,0.47,0.38,0.51,11.159799999999999,85.159,245.977,175,75
2026-05-09 16:00:08.936,5,0.65,0.21,0.59,13.8598,62.449,245.977,175,75
2026-05-09 16:00:08.955,5,0.59,0.07,1.0,0.9398000000000001,-38.561,245.977,175,75
2026-05-09 16:00:08.957,5,1.65,-0.32,1.29,-6.2501999999999995,-84.201,245.977,175,75
2026-05-09 16:00:08.975,5,1.75,-0.9,1.59,10.739799999999999,28.938999999999997,245.977,175,75
2026-05-09 16:00:08.986,5,1.4,-1.14,2.0,32.9398,174.119,37.117000000000004,175,75
2026-05-09 16:00:09.012,5,-0.5,-0.94,2.0,-75.7302,246.94899999999998,-193.963,175,75
2026-05-09 16:00:09.023,5,-1.28,-1.04,1.84,-34.9902,246.94899999999998,-201.47299999999998,175,75
2026-05-09 16:00:09.033,5,-1.72,-0.83,1.91,2.0698,221.23899999999998,-223.233,175,75
2026-05-09 16:00:09.038,5,-1.92,-0.43,2.0,12.8098,102.419,-254.29299999999998,175,75
2026-05-09 16:00:09.054,5,-1.41,0.24,2.0,-9.1102,-64.311,-254.29299999999998,175,75
2026-05-09 16:00:09.067,5,-0.62,0.41,2.0,-59.6502,-253.321,-122.71300000000001,175,75
2026-05-09 16:00:09.080,5,-0.19,0.3,1.93,-66.7802,-253.321,-82.44300000000001,175,75
2026-05-09 16:00:09.090,5,0.22,0.07,1.64,-40.800200000000004,-253.321,-36.103,175,75
2026-05-09 16:00:09.109,5,0.35,-0.09,1.19,19.4098,-253.321,14.627,175,75
2026-05-09 16:00:09.109,5,0.42,-0.03,0.86,61.3798,-253.321,48.767,175,75
2026-05-09 16:00:09.121,5,0.27,0.08,0.49,76.0398,-253.321,68.08699999999999,175,75
2026-05-09 16:00:09.131,5,0.26,0.15,0.14,76.9798,-253.321,62.957,175,75
2026-05-09 16:00:09.158,5,2.0,0.18,-1.68,115.5998,-233.401,168.607,175,75
2026-05-09 16:00:09.172,5,-0.47,0.19,-1.44,175.4198,-59.541,109.887,175,75
2026-05-09 16:00:09.188,5,-1.42,-0.04,-0.64,116.7698,-164.711,-95.973,175,75
2026-05-09 16:00:09.203,5,-1.0,-0.04,-0.29,60.5198,-196.42100000000002,-142.203,175,75
2026-05-09 16:00:09.238,5,0.46,0.14,-0.77,-124.6502,-111.771,-110.27300000000001,175,75
2026-05-09 16:00:09.251,5,0.62,0.3,-0.84,-133.7402,-0.7509999999999999,-90.07300000000001,175,75
2026-05-09 16:00:09.263,5,0.52,0.3,-0.76,-134.38019999999997,109.909,-92.49300000000001,175,75
2026-05-09 16:00:09.269,5,0.89,0.29,-0.73,-121.0202,227.35899999999998,-93.10300000000001,175,75
2026-05-09 16:00:09.284,5,1.81,0.34,-0.61,-101.5502,246.94899999999998,-53.103,175,75
2026-05-09 16:00:09.297,5,2.0,0.74,-0.16,-111.9202,246.94899999999998,35.407000000000004,175,75
2026-05-09 16:00:09.309,5,2.0,0.86,0.6,-168.35019999999997,246.94899999999998,48.987,175,75
2026-05-09 16:00:09.314,5,2.0,2.0,2.0,-249.35019999999997,246.94899999999998,245.977,175,75
2026-05-09 16:00:09.321,5,2.0,-1.07,2.0,-153.87019999999998,246.94899999999998,240.657,175,75
2026-05-09 16:00:09.350,5,-1.3,0.33,2.0,-112.5202,246.94899999999998,-86.46300000000001,175,75
2026-05-09 16:00:09.355,5,-2.0,-1.23,1.56,-70.5302,246.94899999999998,-198.63299999999998,175,75
2026-05-09 16:00:09.389,5,-2.0,-1.6,1.76,16.6298,246.94899999999998,-254.29299999999998,175,75
2026-05-09 16:00:09.396,5,-1.54,-0.04,2.0,98.9198,-253.321,-36.653,175,75
2026-05-09 16:00:09.413,5,0.29,0.52,2.0,81.85979999999999,-253.321,-52.863,175,75
2026-05-09 16:00:09.429,5,1.27,0.24,1.61,30.8198,-253.321,-14.393,175,75
2026-05-09 16:00:09.448,5,2.0,0.04,0.35,-20.0002,-183.131,1.2069999999999999,175,75
2026-05-09 16:00:09.473,5,0.83,0.24,0.23,-10.260200000000001,35.859,-70.783,175,75
2026-05-09 16:00:09.492,5,0.36,0.33,0.33,6.5198,94.929,-153.123,175,75
2026-05-09 16:00:09.531,5,-0.03,0.33,0.6,31.0898,-29.881,-45.973,175,75
2026-05-09 16:00:09.544,5,-0.17,0.22,0.52,36.0598,-52.631,-31.703000000000003,175,75
2026-05-09 16:00:09.556,5,-0.23,0.1,0.42,42.4298,-73.841,-15.023,175,75
2026-05-09 16:00:09.567,5,-0.33,0.06,0.35,50.0898,-98.67099999999999,5.327,175,75
2026-05-09 16:00:09.567,5,-0.37,-0.03,0.19,60.1498,-128.821,27.537,175,75
2026-05-09 16:00:09.596,5,-0.41,-0.15,-0.11,100.9398,-202.14100000000002,71.357,175,75
2026-05-09 16:00:09.606,5,-0.24,-0.13,-0.47,124.9098,-227.501,96.357,175,75
2026-05-09 16:00:09.606,5,0.03,-0.07,-1.08,148.2698,-238.131,132.797,175,75
2026-05-09 16:00:09.617,5,0.46,-0.09,-1.35,203.27980000000002,-222.83100000000002,173.007,175,75
2026-05-09 16:00:09.638,5,0.36,0.22,-1.35,229.77980000000002,-187.691,207.357,175,75
2026-05-09 16:00:09.639,5,-0.38,0.13,-0.85,222.61980000000003,-181.161,214.717,175,75
2026-05-09 16:00:09.649,5,-0.37,-0.01,-0.44,196.52980000000002,-177.54100000000003,197.83700000000002,175,75
2026-05-09 16:00:09.719,5,2.0,-1.06,0.15,78.1698,246.94899999999998,19.377000000000002,175,75
2026-05-09 16:00:09.719,5,2.0,-1.32,0.48,88.1698,246.94899999999998,12.046999999999999,175,75
2026-05-09 16:00:09.730,5,-1.65,-0.42,2.0,63.1098,246.94899999999998,-254.29299999999998,175,75
2026-05-09 16:00:09.743,5,2.0,1.01,2.0,-38.8502,246.94899999999998,-254.29299999999998,175,75
2026-05-09 16:00:09.750,5,-0.29,0.37,2.0,-102.0702,246.94899999999998,-254.29299999999998,175,75
2026-05-09 16:00:09.762,5,-1.52,0.42,2.0,-146.2602,246.94899999999998,-254.29299999999998,175,75
2026-05-09 16:00:09.771,5,-2.0,0.18,2.0,-118.8202,246.94899999999998,-254.29299999999998,175,75
2026-05-09 16:00:09.787,5,-2.0,0.54,2.0,-100.3702,50.269000000000005,-254.29299999999998,175,75
2026-05-09 16:00:09.799,5,-2.0,0.88,2.0,-101.5202,-108.481,-146.003,175,75
2026-05-09 16:00:09.808,5,-0.58,0.87,2.0,-45.8902,-252.221,196.11700000000002,175,75
2026-05-09 16:00:09.818,5,-0.0,0.58,2.0,28.0398,-253.321,245.977,175,75
2026-05-09 16:00:09.834,5,-0.14,0.66,2.0,7.8398,-253.321,245.977,175,75
2026-05-09 16:00:09.844,5,0.61,0.11,1.76,-41.2402,-253.321,245.977,175,75
2026-05-09 16:00:09.853,5,0.51,-0.26,1.01,-76.3002,-253.321,245.977,175,75
2026-05-09 16:00:09.862,5,0.66,-0.87,0.25,-92.4202,-253.321,245.977,175,75
2026-05-09 16:00:09.877,5,2.0,-1.69,-0.5,-56.800200000000004,-253.321,245.977,175,75
2026-05-09 16:00:09.887,5,1.95,-1.58,-0.92,-13.930200000000001,-186.11100000000002,145.947,175,75
2026-05-09 16:00:09.887,5,0.24,-1.0,-0.24,13.9298,-33.141,-26.293,175,75
2026-05-09 16:00:09.901,5,-0.57,-0.61,0.17,30.0898,26.089,-152.423,175,75
2026-05-09 16:00:09.922,5,-0.83,-0.42,0.31,48.8398,45.359,-243.583,175,75
2026-05-09 16:00:09.928,5,-0.86,0.02,0.2,65.0498,26.979,-254.29299999999998,175,75
2026-05-09 16:00:09.938,5,-0.64,0.37,0.07,51.1898,8.969000000000001,-254.29299999999998,175,75
2026-05-09 16:00:09.964,5,0.51,0.18,-0.09,16.0798,2.019,-254.29299999999998,175,75
2026-05-09 16:00:09.981,5,0.52,0.91,-0.86,-14.840200000000001,46.379000000000005,-107.173,175,75
2026-05-09 16:00:09.991,5,0.01,0.8,-0.66,-33.4202,24.558999999999997,-34.983,175,75
2026-05-09 16:00:10.027,5,0.29,0.3,-0.25,-9.3602,100.339,107.827,175,75
2026-05-09 16:00:10.027,5,0.35,0.29,-0.18,8.3198,146.41899999999998,145.55700000000002,175,75
2026-05-09 16:00:10.046,5,0.59,0.25,-0.15,24.1998,194.089,190.267,175,75
2026-05-09 16:00:10.069,5,1.06,0.28,0.19,38.3298,246.94899999999998,245.977,175,75
2026-05-09 16:00:10.080,5,1.09,0.74,1.33,-3.6502000000000003,-46.921,245.977,175,75
2026-05-09 16:00:10.121,5,2.0,-0.89,2.0,-108.7602,246.94899999999998,-80.77300000000001,175,75
2026-05-09 16:00:10.121,5,0.06,-1.29,2.0,-120.2802,246.94899999999998,-70.21300000000001,175,75
2026-05-09 16:00:10.129,5,-1.18,-1.42,1.79,-87.3302,246.94899999999998,-57.853,175,75
2026-05-09 16:00:10.167,5,-2.0,-0.46,2.0,22.3898,-38.590999999999994,-203.94299999999998,175,75
2026-05-09 16:00:10.167,5,-2.0,-0.01,2.0,0.2298,-210.531,-254.29299999999998,175,75
2026-05-09 16:00:10.186,5,-1.3,0.15,2.0,-19.6102,-253.321,-254.29299999999998,175,75
2026-05-09 16:00:10.208,5,0.28,0.44,1.14,70.8698,-253.321,-176.173,175,75
2026-05-09 16:00:10.218,5,0.46,0.59,0.79,79.5198,-253.321,-154.41299999999998,175,75
2026-05-09 16:00:10.250,5,1.84,0.38,-1.06,61.0498,-253.321,137.727,175,75
2026-05-09 16:00:10.269,5,0.63,-0.05,-1.83,143.7698,-210.98100000000002,245.977,175,75
2026-05-09 16:00:10.286,5,-0.13,-0.19,-1.78,153.83980000000003,-175.031,202.497,175,75
2026-05-09 16:00:10.287,5,-1.31,-0.29,-1.32,124.6198,-186.67100000000002,58.827,175,75
2026-05-09 16:00:10.298,5,-1.89,-0.17,-0.62,75.9098,-253.321,-53.993,175,75
2026-05-09 16:00:10.336,5,-0.52,0.22,-0.2,-158.06019999999998,-253.321,-116.63300000000001,175,75
2026-05-09 16:00:10.349,5,0.15,0.27,-0.57,-193.41019999999997,-237.821,-125.153,175,75
2026-05-09 16:00:10.359,5,0.72,0.31,-1.16,-157.16019999999997,81.399,-148.903,175,75
2026-05-09 16:00:10.368,5,0.49,0.28,-1.05,-112.9502,234.60899999999998,-171.183,175,75
2026-05-09 16:00:10.386,5,0.61,0.34,-0.78,-73.9802,246.94899999999998,-180.923,175,75
2026-05-09 16:00:10.398,5,1.54,0.74,-0.44,-67.4502,246.94899999999998,-142.623,175,75
2026-05-09 16:00:10.409,5,2.0,1.64,0.23,-144.5702,246.94899999999998,-66.723,175,75
2026-05-09 16:00:10.420,5,2.0,1.71,0.55,-249.35019999999997,246.94899999999998,-51.073,175,75
2026-05-09 16:00:10.420,5,2.0,2.0,2.0,-249.35019999999997,246.94899999999998,245.977,175,75
2026-05-09 16:00:10.442,5,-1.89,-0.56,2.0,-249.35019999999997,246.94899999999998,245.977,175,75
2026-05-09 16:00:10.457,5,-1.64,0.41,2.0,-245.35019999999997,246.94899999999998,49.867000000000004,175,75
2026-05-09 16:00:10.457,5,-2.0,-2.0,2.0,-127.97019999999999,246.94899999999998,-108.673,175,75
2026-05-09 16:00:10.468,5,-2.0,-2.0,2.0,3.2898,181.839,-124.623,175,75
2026-05-09 16:00:10.498,5,-2.0,-1.0,2.0,175.5198,-253.321,-219.803,175,75
2026-05-09 16:00:10.509,5,-1.14,0.15,2.0,155.31980000000001,-253.321,-254.29299999999998,175,75
2026-05-09 16:00:10.518,5,0.64,0.44,2.0,147.12980000000002,-253.321,-254.29299999999998,175,75
2026-05-09 16:00:10.537,5,1.86,0.67,1.38,196.2898,-253.321,-152.79299999999998,175,75
2026-05-09 16:00:10.537,5,1.99,1.16,1.32,164.6398,-253.321,-120.63300000000001,175,75
2026-05-09 16:00:10.548,5,2.0,1.24,0.8,110.1898,-253.321,-6.083,175,75
2026-05-09 16:00:10.561,5,2.0,1.04,0.22,81.1598,-93.261,162.597,175,75
2026-05-09 16:00:10.571,5,1.28,0.67,0.17,55.7798,17.148999999999997,197.92700000000002,175,75
2026-05-09 16:00:10.582,5,0.48,0.35,0.15,32.8698,50.369,150.167,175,75
2026-05-09 16:00:10.603,5,0.2,0.12,0.21,12.6098,43.509,75.00699999999999,175,75
2026-05-09 16:00:10.603,5,0.23,0.03,0.53,5.4597999999999995,29.059,-10.513000000000002,175,75
2026-05-09 16:00:10.609,5,0.49,0.08,0.84,5.9998000000000005,45.109,-88.33300000000001,175,75
2026-05-09 16:00:10.641,5,0.25,0.26,0.67,37.6398,-11.181000000000001,-64.703,175,75
2026-05-09 16:00:10.664,5,-0.18,0.15,0.61,54.7098,-54.230999999999995,-36.592999999999996,175,75
2026-05-09 16:00:10.670,5,-0.24,0.0,0.5,65.1698,-71.021,-22.073,175,75
2026-05-09 16:00:10.682,5,-0.33,-0.04,0.37,77.4798,-92.681,0.3069999999999995,175,75
2026-05-09 16:00:10.689,5,-0.39,-0.15,0.18,95.6698,-126.841,28.447000000000003,175,75
2026-05-09 16:00:10.700,5,-0.38,-0.23,-0.02,121.6698,-178.23100000000002,65.297,175,75
2026-05-09 16:00:10.711,5,-0.39,-0.36,-0.2,157.4198,-242.411,107.997,175,75
2026-05-09 16:00:10.711,5,-0.37,-0.38,-0.28,189.9298,-253.321,138.187,175,75
2026-05-09 16:00:10.718,5,-0.48,-0.45,-0.57,212.62980000000002,-253.321,150.317,175,75
2026-05-09 16:00:10.730,5,-0.11,-0.3,-0.98,240.18980000000002,-253.321,162.537,175,75
2026-05-09 16:00:10.764,5,0.02,-0.16,-1.02,213.2398,-164.45100000000002,139.077,175,75
2026-05-09 16:00:10.779,5,-0.29,-0.25,-0.25,136.61980000000003,-103.551,97.457,175,75
2026-05-09 16:00:10.779,5,-0.39,-0.3,0.18,68.2898,-55.260999999999996,90.347,175,75
2026-05-09 16:00:10.793,5,-0.12,-0.45,0.25,8.1798,18.689,80.00699999999999,175,75
2026-05-09 16:00:10.806,5,0.42,-0.55,0.06,-35.9702,145.259,46.577,175,75
2026-05-09 16:00:10.808,5,1.1,-0.57,-0.15,-65.5202,246.94899999999998,-3.8430000000000004,175,75
2026-05-09 16:00:10.826,5,2.0,-0.81,-0.32,-67.7002,246.94899999999998,-66.553,175,75
2026-05-09 16:00:10.837,5,2.0,-1.2,0.25,-11.1502,246.94899999999998,-129.943,175,75
2026-05-09 16:00:10.850,5,2.0,0.35,1.7,-27.0902,246.94899999999998,-172.82299999999998,175,75
2026-05-09 16:00:10.850,5,2.0,0.46,2.0,-12.9802,246.94899999999998,-254.29299999999998,175,75
2026-05-09 16:00:10.861,5,-0.2,-0.24,2.0,-31.4302,246.94899999999998,-254.29299999999998,175,75
2026-05-09 16:00:10.884,5,-2.0,-0.27,2.0,-58.4202,246.94899999999998,-254.29299999999998,175,75
2026-05-09 16:00:10.894,5,-2.0,0.19,2.0,-54.3902,173.819,-254.29299999999998,175,75
2026-05-09 16:00:10.907,5,-2.0,0.53,2.0,-55.6702,-69.291,-171.273,175,75
2026-05-09 16:00:10.907,5,-2.0,1.13,2.0,-88.8402,-211.621,-39.522999999999996,175,75
2026-05-09 16:00:10.919,5,-0.73,1.03,2.0,-82.4002,-253.321,128.02700000000002,175,75
2026-05-09 16:00:10.929,5,0.23,0.54,2.0,-14.2002,-253.321,245.977,175,75
2026-05-09 16:00:10.943,5,-0.14,0.75,2.0,0.6798000000000001,-253.321,245.977,175,75
2026-05-09 16:00:10.953,5,0.71,0.19,2.0,-47.1902,-253.321,245.977,175,75
2026-05-09 16:00:10.967,5,0.75,-0.12,1.23,-101.8402,-253.321,245.977,175,75
2026-05-09 16:00:10.967,5,1.08,-0.7,0.38,-129.59019999999998,-253.321,245.977,175,75
2026-05-09 16:00:10.979,5,2.0,-1.13,-0.29,-100.3402,-253.321,245.977,175,75
2026-05-09 16:00:10.991,5,1.82,-1.04,-0.66,-55.9402,-237.711,164.187,175,75
2026-05-09 16:00:10.998,5,0.65,-0.79,-0.39,-28.220200000000002,-77.581,3.7769999999999992,175,75
2026-05-09 16:00:11.008,5,-0.03,-0.63,-0.09,-1.4102000000000001,6.098999999999999,-108.043,175,75
2026-05-09 16:00:11.018,5,-0.35,-0.44,0.1,28.9098,45.059000000000005,-182.373,175,75
2026-05-09 16:00:11.031,5,-0.52,-0.35,0.12,56.449799999999996,53.939,-225.953,175,75
2026-05-09 16:00:11.055,5,-0.7,0.08,-0.02,75.6698,12.189,-254.29299999999998,175,75
2026-05-09 16:00:11.067,5,-0.47,0.4,-0.15,56.4998,-22.621000000000002,-254.29299999999998,175,75
2026-05-09 16:00:11.089,5,0.35,0.64,-0.64,11.7098,-43.751,-64.643,175,75
2026-05-09 16:00:11.106,5,-0.05,0.62,-0.56,-12.5502,-62.451,1.8869999999999996,175,75
2026-05-09 16:00:11.106,5,0.02,0.42,-0.47,-25.0902,-65.331,44.907000000000004,175,75
2026-05-09 16:00:11.120,5,0.08,0.25,-0.32,-21.2902,-34.231,74.78699999999999,175,75
2026-05-09 16:00:11.129,5,0.15,0.18,-0.16,-9.850200000000001,16.218999999999998,89.86699999999999,175,75
2026-05-09 16:00:11.144,5,0.38,0.18,-0.08,-0.10019999999999996,87.619,101.47699999999999,175,75
2026-05-09 16:00:11.158,5,0.69,0.12,-0.1,11.9298,174.45899999999997,129.11700000000002,175,75
2026-05-09 16:00:11.158,5,0.98,0.03,-0.08,28.5498,246.94899999999998,178.287,175,75
2026-05-09 16:00:11.169,5,1.36,0.07,-0.04,43.2898,246.94899999999998,245.977,175,75
2026-05-09 16:00:11.180,5,1.81,0.07,-0.01,51.7798,246.94899999999998,245.977,175,75
2026-05-09 16:00:11.190,5,0.84,0.08,1.27,33.4398,246.94899999999998,245.977,175,75
2026-05-09 16:00:11.213,5,2.0,-0.72,2.0,-52.8702,179.45899999999997,15.296999999999999,175,75
2026-05-09 16:00:11.237,5,-0.3,-1.14,2.0,-71.7402,246.94899999999998,-84.003,175,75
2026-05-09 16:00:11.247,5,-1.57,-1.24,1.82,-49.5202,246.94899999999998,-113.543,175,75
2026-05-09 16:00:11.272,5,-2.0,-0.21,2.0,10.8598,-105.871,-254.29299999999998,175,75
2026-05-09 16:00:11.287,5,-1.85,0.11,2.0,-5.1302,-244.01100000000002,-254.29299999999998,175,75
2026-05-09 16:00:11.297,5,-0.35,0.45,2.0,-17.7002,-253.321,-254.29299999999998,175,75
2026-05-09 16:00:11.297,5,0.12,0.47,2.0,-3.2902,-253.321,-181.843,175,75
2026-05-09 16:00:11.307,5,0.22,0.53,1.53,21.4698,-253.321,-143.88299999999998,175,75
2026-05-09 16:00:11.326,5,0.32,0.52,0.99,51.5798,-253.321,-131.543,175,75
2026-05-09 16:00:11.348,5,1.04,0.32,0.18,80.3498,-253.321,-25.933,175,75
2026-05-09 16:00:11.348,5,1.72,0.3,-0.54,108.3898,-253.321,120.08699999999999,175,75
2026-05-09 16:00:11.369,5,0.86,0.21,-1.47,157.15980000000002,-213.411,245.977,175,75
2026-05-09 16:00:11.390,5,0.37,-0.38,-1.6,176.05980000000002,-93.451,161.317,175,75
2026-05-09 16:00:11.407,5,-0.42,-0.51,-1.26,147.74980000000002,-75.50099999999999,79.107,175,75
2026-05-09 16:00:11.416,5,-0.99,-0.52,-0.45,106.8098,-100.67099999999999,46.867000000000004,175,75
2026-05-09 16:00:11.428,5,-1.63,0.07,0.3,-27.0702,-167.661,-68.023,175,75
2026-05-09 16:00:11.446,5,-1.5,0.15,0.1,-101.6302,-197.661,-158.113,175,75
2026-05-09 16:00:11.467,5,-0.96,0.18,-0.19,-157.38019999999997,-209.211,-236.60299999999998,175,75
2026-05-09 16:00:11.481,5,0.76,0.29,-0.66,-188.3002,-143.05100000000002,-254.29299999999998,175,75
2026-05-09 16:00:11.481,5,2.0,0.51,-1.3,-189.18019999999999,66.159,-238.423,175,75
2026-05-09 16:00:11.501,5,1.1,0.53,-0.59,-185.5202,246.94899999999998,-161.57299999999998,175,75
2026-05-09 16:00:11.525,5,2.0,1.6,0.88,-249.35019999999997,246.94899999999998,-151.753,175,75
2026-05-09 16:00:11.537,5,2.0,2.0,2.0,-249.35019999999997,246.94899999999998,245.977,175,75
2026-05-09 16:00:11.548,5,-1.71,-0.77,2.0,-249.35019999999997,246.94899999999998,185.11700000000002,175,75
2026-05-09 16:00:11.548,5,-1.19,-1.09,2.0,-244.81019999999998,246.94899999999998,-22.003,175,75
2026-05-09 16:00:11.558,5,-1.59,-2.0,1.6,-152.2402,246.94899999999998,-80.293,175,75
2026-05-09 16:00:11.576,5,-1.96,-2.0,2.0,12.399799999999999,246.94899999999998,-31.203000000000003,175,75
2026-05-09 16:00:11.589,5,-2.0,-2.0,2.0,137.7598,-9.100999999999999,-35.603,175,75
2026-05-09 16:00:11.596,5,-2.0,-0.86,2.0,169.8298,-253.321,-125.83300000000001,175,75
2026-05-09 16:00:11.604,5,-0.95,0.19,2.0,147.81980000000001,-253.321,-180.713,175,75
2026-05-09 16:00:11.609,5,0.29,0.28,2.0,142.2998,-253.321,-166.29299999999998,175,75
2026-05-09 16:00:11.618,5,0.95,0.51,1.6,133.46980000000002,-253.321,-144.88299999999998,175,75
2026-05-09 16:00:11.655,5,2.0,0.64,0.13,60.2598,-198.39100000000002,100.907,175,75
2026-05-09 16:00:11.669,5,0.85,0.34,0.36,17.5198,41.189,113.19699999999999,175,75
2026-05-09 16:00:11.680,5,0.41,0.12,0.48,7.319800000000001,84.74900000000001,58.797000000000004,175,75
2026-05-09 16:00:11.692,5,0.16,0.05,0.61,8.7098,98.559,-12.823,175,75
2026-05-09 16:00:11.709,5,0.27,0.04,0.83,17.5498,92.159,-94.85300000000001,175,75
2026-05-09 16:00:11.709,5,0.6,0.13,0.94,26.6398,61.769000000000005,-122.66300000000001,175,75
2026-05-09 16:00:11.742,5,0.52,0.21,0.85,42.0798,14.229,-85.433,175,75
2026-05-09 16:00:11.762,5,-0.51,0.11,0.53,95.8798,-110.591,-8.683,175,75
2026-05-09 16:00:11.786,5,-0.52,-0.19,-0.02,140.61980000000003,-220.55100000000002,46.187000000000005,175,75
2026-05-09 16:00:11.786,5,-0.38,-0.2,-0.19,179.11980000000003,-253.321,89.987,175,75
2026-05-09 16:00:11.799,5,-0.25,-0.27,-0.37,211.0498,-253.321,134.827,175,75
2026-05-09 16:00:11.812,5,-0.38,-0.24,-0.72,237.84980000000002,-253.321,173.297,175,75
2026-05-09 16:00:11.824,5,-0.42,-1.02,-0.31,250.9198,-253.321,204.037,175,75
2026-05-09 16:00:11.832,5,-0.04,-0.12,-1.31,250.9198,-253.321,233.627,175,75
2026-05-09 16:00:11.838,5,0.44,-0.03,-1.51,250.9198,-253.321,232.327,175,75
2026-05-09 16:00:11.854,5,0.31,-0.34,-1.39,229.12980000000002,-240.211,149.067,175,75
2026-05-09 16:00:11.866,5,-0.15,-0.5,-0.7,152.7098,-116.03099999999999,60.63700000000001,175,75
2026-05-09 16:00:11.895,5,0.07,-0.55,0.17,-42.9002,162.23899999999998,18.057000000000002,175,75
2026-05-09 16:00:11.905,5,0.85,-0.65,-0.11,-78.6602,246.94899999999998,-40.853,175,75
2026-05-09 16:00:11.916,5,2.0,-1.12,-0.45,-69.7502,246.94899999999998,-113.003,175,75
2026-05-09 16:00:11.924,5,2.0,-1.4,-0.07,9.8698,246.94899999999998,-166.47299999999998,175,75
2026-05-09 16:00:11.934,5,2.0,-0.38,-0.69,12.8498,246.94899999999998,-188.10299999999998,175,75
2026-05-09 16:00:11.940,5,2.0,2.0,2.0,2.3098,246.94899999999998,-254.29299999999998,175,75
2026-05-09 16:00:11.963,5,0.41,0.31,2.0,-61.2702,246.94899999999998,-254.29299999999998,175,75
2026-05-09 16:00:11.963,5,-1.06,-0.05,2.0,-68.9002,246.94899999999998,-254.29299999999998,175,75
2026-05-09 16:00:11.975,5,-2.0,-0.05,2.0,-88.6702,246.94899999999998,-254.29299999999998,175,75
2026-05-09 16:00:11.980,5,-2.0,0.43,2.0,-86.4302,184.57899999999998,-254.29299999999998,175,75
2026-05-09 16:00:11.990,5,-2.0,0.66,2.0,-93.6502,-53.971,-148.313,175,75
2026-05-09 16:00:12.007,5,-2.0,0.75,2.0,-115.5802,-198.941,-47.233,175,75
2026-05-09 16:00:12.007,5,-1.08,0.55,2.0,-113.5502,-253.321,74.827,175,75
2026-05-09 16:00:12.036,5,0.47,0.14,2.0,-3.0302,-253.321,245.977,175,75
2026-05-09 16:00:12.046,5,0.53,0.18,2.0,-26.9402,-253.321,245.977,175,75
2026-05-09 16:00:12.057,5,0.74,-0.16,1.56,-95.7102,-253.321,245.977,175,75
2026-05-09 16:00:12.067,5,1.58,-0.61,0.61,-137.5102,-253.321,245.977,175,75
2026-05-09 16:00:12.081,5,1.56,-1.13,-0.22,-59.6502,-152.30100000000002,105.847,175,75
2026-05-09 16:00:12.096,5,0.36,-0.69,0.15,-30.6502,-15.981000000000002,-37.043,175,75
2026-05-09 16:00:12.128,5,-0.61,-0.4,0.2,25.4498,77.539,-223.303,175,75
2026-05-09 16:00:12.138,5,-0.76,-0.17,0.12,48.8998,58.519000000000005,-254.29299999999998,175,75
2026-05-09 16:00:12.173,5,-0.69,0.05,0.02,60.449799999999996,19.148999999999997,-254.29299999999998,175,75
2026-05-09 16:00:12.181,5,-0.41,0.32,-0.2,61.2898,-22.201,-254.29299999999998,175,75
2026-05-09 16:00:12.181,5,0.32,0.35,-0.59,52.3598,-41.480999999999995,-254.29299999999998,175,75
2026-05-09 16:00:12.181,5,0.75,0.97,-1.21,69.0698,-41.541,-214.493,175,75
2026-05-09 16:00:12.194,5,0.54,0.66,-1.0,70.3898,-46.951,-105.27300000000001,175,75
2026-05-09 16:00:12.209,5,-0.11,0.66,-0.89,57.0298,-78.521,-43.073,175,75
2026-05-09 16:00:12.235,5,0.21,0.03,-0.11,16.3998,-64.271,111.67699999999999,175,75
2026-05-09 16:00:12.253,5,0.67,0.12,-0.09,42.1498,123.009,145.477,175,75
2026-05-09 16:00:12.259,5,1.04,0.2,-0.03,45.5498,241.69899999999998,173.42700000000002,175,75
2026-05-09 16:00:12.270,5,1.56,0.21,0.06,44.0498,246.94899999999998,205.637,175,75
2026-05-09 16:00:12.296,5,2.0,-0.52,0.37,61.2398,246.94899999999998,214.377,175,75
2026-05-09 16:00:12.305,5,-0.5,-1.05,2.0,18.3898,242.969,44.397,175,75
2026-05-09 16:00:12.316,5,2.0,-0.28,2.0,-85.1202,139.589,53.877,175,75
2026-05-09 16:00:12.326,5,1.27,-0.7,2.0,-89.8202,246.94899999999998,98.00699999999999,175,75
2026-05-09 16:00:12.340,5,-2.0,-1.21,2.0,-0.32020000000000004,246.94899999999998,-92.003,175,75
2026-05-09 16:00:12.359,5,-2.0,-0.34,2.0,27.2398,31.349,-254.29299999999998,175,75
2026-05-09 16:00:12.376,5,-2.0,0.05,2.0,14.7198,-162.381,-254.29299999999998,175,75
2026-05-09 16:00:12.403,5,0.11,0.64,2.0,-1.4802,-253.321,-126.07300000000001,175,75
2026-05-09 16:00:12.408,5,0.31,0.57,1.63,24.2298,-253.321,-93.593,175,75
2026-05-09 16:00:12.447,5,1.04,0.23,0.61,66.3498,-253.321,112.797,175,75
2026-05-09 16:00:12.447,5,0.9,0.18,0.15,72.9798,-253.321,202.727,175,75
2026-05-09 16:00:12.479,5,1.38,-0.43,-1.17,78.7698,-211.411,216.797,175,75
2026-05-09 16:00:12.497,5,0.66,-0.64,-1.53,84.3098,-85.971,55.467,175,75
2026-05-09 16:00:12.507,5,-0.85,-0.8,-0.82,77.3998,-60.971,-74.753,175,75
2026-05-09 16:00:12.521,5,-1.21,-0.5,-0.18,62.199799999999996,-105.191,-77.653,175,75
2026-05-09 16:00:12.550,5,-1.46,0.25,0.03,-104.6502,-244.531,-179.423,175,75
2026-05-09 16:00:12.564,5,-0.8,0.39,-0.38,-168.2702,-253.321,-230.593,175,75
2026-05-09 16:00:12.577,5,1.61,0.59,-1.12,-204.53019999999998,-161.911,-223.933,175,75
2026-05-09 16:00:12.577,5,2.0,0.77,-1.75,-201.3902,89.229,-123.74300000000001,175,75
2026-05-09 16:00:12.589,5,0.47,0.72,-1.15,-199.87019999999998,246.94899999999998,-117.843,175,75
2026-05-09 16:00:12.600,5,0.28,0.6,-0.51,-192.8902,246.94899999999998,-174.753,175,75
2026-05-09 16:00:12.613,5,1.1,0.75,-0.02,-199.2602,246.94899999999998,-190.373,175,75
2026-05-09 16:00:12.628,5,2.0,1.19,1.25,-249.35019999999997,246.94899999999998,-93.783,175,75
2026-05-09 16:00:12.638,5,2.0,2.0,2.0,-249.35019999999997,246.94899999999998,245.977,175,75
2026-05-09 16:00:12.670,5,-0.87,-1.71,2.0,-219.5502,246.94899999999998,-4.093000000000001,175,75
2026-05-09 16:00:12.688,5,-2.0,-2.0,2.0,24.2298,196.48899999999998,32.887,175,75
2026-05-09 16:00:12.722,5,-2.0,-0.99,2.0,135.64980000000003,-253.321,-252.10299999999998,175,75
2026-05-09 16:00:12.722,5,-0.93,-0.26,2.0,121.4298,-253.321,-254.29299999999998,175,75
2026-05-09 16:00:12.731,5,0.6,-0.01,1.29,159.5498,-253.321,-254.29299999999998,175,75
2026-05-09 16:00:12.741,5,1.67,0.93,1.64,177.5798,-253.321,-179.753,175,75
2026-05-09 16:00:12.749,5,2.0,0.99,1.32,127.0998,-253.321,-147.833,175,75
2026-05-09 16:00:12.766,5,2.0,1.22,0.59,68.7098,-243.931,32.117000000000004,175,75
2026-05-09 16:00:12.777,5,2.0,0.92,0.26,32.8798,-57.620999999999995,126.377,175,75
2026-05-09 16:00:12.777,5,1.2,0.4,0.27,7.5298,52.309000000000005,108.89699999999999,175,75
2026-05-09 16:00:12.788,5,0.68,0.1,0.35,-1.8801999999999999,116.629,72.92699999999999,175,75
2026-05-09 16:00:12.812,5,0.26,0.01,0.42,-4.7302,132.66899999999998,32.467,175,75
2026-05-09 16:00:12.837,5,0.43,0.04,0.95,17.6798,54.299,-76.69300000000001,175,75
2026-05-09 16:00:12.846,5,0.47,0.17,1.01,24.4898,26.509,-82.58300000000001,175,75
2026-05-09 16:00:12.846,5,0.22,0.21,0.87,31.6398,-4.221,-74.253,175,75
2026-05-09 16:00:12.857,5,0.04,0.18,0.79,40.1798,-34.481,-61.503,175,75
2026-05-09 16:00:12.861,5,-0.11,0.12,0.73,50.449799999999996,-56.751,-51.653,175,75
2026-05-09 16:00:12.872,5,-0.23,0.06,0.62,62.2298,-77.941,-45.033,175,75
2026-05-09 16:00:12.883,5,-0.33,0.02,0.51,75.4598,-103.361,-34.843,175,75
2026-05-09 16:00:12.895,5,-0.41,0.0,0.35,88.2898,-137.461,-19.733,175,75
2026-05-09 16:00:12.904,5,-0.43,-0.11,0.08,107.8098,-181.971,0.056999999999999496,175,75
2026-05-09 16:00:12.917,5,-0.38,-0.16,-0.18,137.0398,-235.29100000000003,30.637,175,75
2026-05-09 16:00:12.927,5,-0.16,-0.22,-0.42,170.5098,-253.321,65.567,175,75
2026-05-09 16:00:12.927,5,0.1,-0.21,-0.75,197.74980000000002,-253.321,105.217,175,75
2026-05-09 16:00:12.940,5,0.16,-0.78,-0.54,245.4898,-253.321,148.567,175,75
2026-05-09 16:00:12.948,5,0.2,0.01,-0.85,250.9198,-253.321,204.717,175,75
2026-05-09 16:00:12.958,5,-0.03,0.08,-0.76,243.1398,-253.321,245.977,175,75
2026-05-09 16:00:12.976,5,-0.19,-0.03,-0.77,207.56980000000001,-253.321,245.537,175,75
2026-05-09 16:00:12.988,5,-0.03,-0.29,-0.83,159.80980000000002,-189.811,194.997,175,75
2026-05-09 16:00:12.995,5,-0.12,-0.51,-0.63,106.1298,-84.971,108.53699999999999,175,75
2026-05-09 16:00:13.007,5,-0.15,-0.58,-0.24,61.6298,10.479,41.577,175,75
2026-05-09 16:00:13.007,5,0.16,-0.61,-0.09,26.6998,118.669,-0.0030000000000001137,175,75
2026-05-09 16:00:13.031,5,2.0,-0.77,-0.08,-3.6401999999999997,246.94899999999998,-31.923000000000002,175,75
2026-05-09 16:00:13.040,5,2.0,-0.89,0.07,40.9698,246.94899999999998,-43.973,175,75
2026-05-09 16:00:13.051,5,2.0,-0.59,-0.21,49.1898,246.94899999999998,-111.363,175,75
2026-05-09 16:00:13.077,5,0.95,0.29,2.0,-54.9702,246.94899999999998,-254.29299999999998,175,75
2026-05-09 16:00:13.077,5,-0.74,-0.43,2.0,-51.2302,246.94899999999998,-254.29299999999998,175,75
2026-05-09 16:00:13.088,5,-2.0,-0.3,1.91,-53.0302,246.94899999999998,-254.29299999999998,175,75
2026-05-09 16:00:13.101,5,-2.0,0.06,2.0,-62.0102,213.369,-254.29299999999998,175,75
2026-05-09 16:00:13.112,5,-2.0,0.5,2.0,-82.7502,-3.9610000000000003,-139.04299999999998,175,75
2026-05-09 16:00:13.123,5,-2.0,0.54,2.0,-109.2002,-180.281,-5.493,175,75
2026-05-09 16:00:13.136,5,-1.23,0.67,2.0,-127.5802,-249.311,82.317,175,75
2026-05-09 16:00:13.146,5,0.36,0.55,2.0,-111.5802,-253.321,245.977,175,75
2026-05-09 16:00:13.157,5,-0.01,-0.01,2.0,-32.4602,-253.321,245.977,175,75
2026-05-09 16:00:13.157,5,0.78,-0.04,2.0,-42.7402,-253.321,245.977,175,75
2026-05-09 16:00:13.173,5,1.27,-0.17,1.67,-88.3002,-253.321,245.977,175,75
2026-05-09 16:00:13.187,5,1.05,-0.3,0.85,-103.5002,-253.321,207.157,175,75
2026-05-09 16:00:13.197,5,1.14,-0.35,0.62,-90.6302,-253.321,161.237,175,75
2026-05-09 16:00:13.202,5,1.11,-0.26,0.36,-74.8102,-253.321,88.737,175,75
2026-05-09 16:00:13.214,5,0.88,-0.22,0.05,-63.64020000000001,-190.121,-18.783,175,75
2026-05-09 16:00:13.228,5,0.52,-0.31,-0.15,-42.0802,-92.441,-108.363,175,75
2026-05-09 16:00:13.258,5,0.16,-0.28,-0.29,-5.2902000000000005,-38.821,-161.683,175,75
2026-05-09 16:00:13.270,5,-0.1,-0.14,-0.38,29.2598,-24.381,-189.233,175,75
2026-05-09 16:00:13.270,5,-0.2,0.1,-0.54,51.0998,-34.241,-195.66299999999998,175,75
2026-05-09 16:00:13.291,5,0.15,0.01,-0.54,95.4798,-62.870999999999995,-131.653,175,75
2026-05-09 16:00:13.305,5,-0.04,0.18,-0.84,107.2598,-78.591,-65.07300000000001,175,75
2026-05-09 16:00:13.318,5,-0.49,0.12,-0.67,118.0598,-149.721,46.237,175,75
2026-05-09 16:00:13.328,5,-0.68,0.28,-0.42,97.6998,-197.61100000000002,80.50699999999999,175,75
2026-05-09 16:00:13.328,5,-0.4,0.3,-0.28,63.1198,-210.52100000000002,96.44699999999999,175,75
2026-05-09 16:00:13.339,5,0.02,0.2,-0.22,30.4298,-167.711,100.687,175,75
2026-05-09 16:00:13.360,5,0.47,0.03,-0.31,23.029799999999998,40.149,84.53699999999999,175,75
2026-05-09 16:00:13.386,5,1.02,0.04,-0.15,30.1398,246.94899999999998,98.53699999999999,175,75
2026-05-09 16:00:13.386,5,1.49,-0.16,-0.08,36.9598,246.94899999999998,116.767,175,75
2026-05-09 16:00:13.401,5,2.0,-0.53,-0.07,59.9998,246.94899999999998,112.247,175,75
2026-05-09 16:00:13.412,5,-0.71,-1.05,2.0,48.2298,246.94899999999998,-32.453,175,75
2026-05-09 16:00:13.424,5,2.0,0.19,2.0,-107.39020000000001,153.339,-90.283,175,75
2026-05-09 16:00:13.436,5,2.0,-0.75,2.0,-131.9802,246.94899999999998,16.017000000000003,175,75
2026-05-09 16:00:13.455,5,-1.78,-1.03,1.23,-26.1902,246.94899999999998,20.807000000000002,175,75
2026-05-09 16:00:13.466,5,-2.0,-1.01,1.66,31.0598,246.94899999999998,-94.423,175,75
2026-05-09 16:00:13.466,5,-2.0,-0.56,2.0,38.4798,139.10899999999998,-234.72299999999998,175,75
2026-05-09 16:00:13.500,5,-0.35,0.36,2.0,-77.5202,-253.321,-254.29299999999998,175,75
2026-05-09 16:00:13.512,5,0.15,0.38,2.0,-68.9602,-253.321,-177.553,175,75
2026-05-09 16:00:13.529,5,0.46,0.2,1.49,44.2898,-253.321,-49.483,175,75
2026-05-09 16:00:13.536,5,0.64,0.25,1.26,70.5498,-253.321,17.576999999999998,175,75
2026-05-09 16:00:13.557,5,0.52,0.24,0.93,65.6998,-253.321,51.017,175,75
2026-05-09 16:00:13.569,5,0.75,-0.12,-0.48,72.8498,-253.321,77.297,175,75
2026-05-09 16:00:13.587,5,2.0,-0.02,-1.51,103.8898,-253.321,155.167,175,75
2026-05-09 16:00:13.587,5,1.38,-0.05,-1.75,157.96980000000002,-197.241,177.847,175,75
2026-05-09 16:00:13.597,5,0.25,-0.2,-1.94,145.7698,-125.25099999999999,95.86699999999999,175,75
2026-05-09 16:00:13.610,5,-1.02,-0.23,-1.53,110.4798,-142.071,-16.793,175,75
2026-05-09 16:00:13.620,5,-1.46,-0.11,-1.01,49.2298,-220.351,-93.783,175,75
2026-05-09 16:00:13.630,5,-1.28,0.11,-0.38,-27.4902,-253.321,-109.57300000000001,175,75
2026-05-09 16:00:13.640,5,-0.88,0.23,-0.03,-106.4802,-253.321,-92.233,175,75
2026-05-09 16:00:13.648,5,-0.67,0.16,-0.05,-164.5702,-253.321,-74.033,175,75
2026-05-09 16:00:13.668,5,-0.25,0.2,-0.34,-183.6702,-211.52100000000002,-90.183,175,75
2026-05-09 16:00:13.679,5,0.12,0.29,-0.51,-162.7002,-110.231,-107.203,175,75
2026-05-09 16:00:13.691,5,0.51,0.42,-0.7,-129.97019999999998,19.189,-113.683,175,75
2026-05-09 16:00:13.708,5,0.81,0.46,-0.92,-85.2602,166.349,-99.66300000000001,175,75
2026-05-09 16:00:13.722,5,1.08,0.53,-0.85,-48.4802,246.94899999999998,-60.753,175,75
2026-05-09 16:00:13.723,5,1.59,0.66,-0.68,-33.1302,246.94899999999998,2.616999999999999,175,75
2026-05-09 16:00:13.734,5,2.0,0.68,-0.34,-46.1202,246.94899999999998,74.737,175,75
2026-05-09 16:00:13.738,5,2.0,0.66,0.28,-71.5202,246.94899999999998,176.107,175,75
2026-05-09 16:00:13.757,5,2.0,0.81,2.0,-179.2302,246.94899999999998,245.977,175,75
2026-05-09 16:00:13.757,5,-0.11,-0.8,2.0,-143.69019999999998,209.789,245.977,175,75
2026-05-09 16:00:13.768,5,0.62,-0.84,2.0,-133.5402,235.41899999999998,205.827,175,75
2026-05-09 16:00:13.801,5,-2.0,-1.69,2.0,-44.1902,246.94899999999998,-109.35300000000001,175,75
2026-05-09 16:00:13.801,5,-2.0,-2.0,2.0,37.1398,237.97899999999998,-230.493,175,75
2026-05-09 16:00:13.812,5,-2.0,-1.9,2.0,105.85979999999999,-33.101,-254.29299999999998,175,75
2026-05-09 16:00:13.820,5,-2.0,-1.02,2.0,162.52980000000002,-172.151,-254.29299999999998,175,75
2026-05-09 16:00:13.828,5,-1.1,0.22,2.0,161.0198,-253.321,-254.29299999999998,175,75
2026-05-09 16:00:13.837,5,0.16,0.5,2.0,126.6998,-253.321,-254.29299999999998,175,75
2026-05-09 16:00:13.852,5,0.77,0.85,2.0,101.4298,-253.321,-209.07299999999998,175,75
2026-05-09 16:00:13.858,5,0.99,0.87,1.86,76.9498,-253.321,-145.983,175,75
2026-05-09 16:00:13.876,5,1.2,0.8,1.7,36.2298,-219.89100000000002,-100.233,175,75
2026-05-09 16:00:13.887,5,1.13,0.64,1.45,-7.3202,-155.20100000000002,-72.82300000000001,175,75
2026-05-09 16:00:13.887,5,0.97,0.44,1.09,-34.4202,-120.42099999999999,-52.253,175,75
2026-05-09 16:00:13.900,5,0.82,0.36,0.87,-47.7002,-108.911,-48.213,175,75
2026-05-09 16:00:13.929,5,0.77,0.36,0.62,-51.2702,-74.361,-93.33300000000001,175,75
2026-05-09 16:00:13.941,5,0.8,0.39,0.54,-42.4802,-50.041,-110.233,175,75
2026-05-09 16:00:13.950,5,0.67,0.41,0.5,-32.0302,-28.331,-116.653,175,75
2026-05-09 16:00:13.962,5,0.41,0.4,0.52,-26.7102,-10.301,-128.033,175,75
2026-05-09 16:00:13.972,5,0.22,0.36,0.56,-29.630200000000002,3.599,-136.10299999999998,175,75
2026-05-09 16:00:13.984,5,-0.05,0.27,0.53,-36.7002,8.199000000000002,-140.063,175,75
2026-05-09 16:00:13.995,5,-0.48,0.15,0.36,-46.2402,-34.671,-126.24300000000001,175,75
2026-05-09 16:00:14.010,5,-0.53,0.06,-0.01,-42.5802,-123.331,-87.21300000000001,175,75
2026-05-09 16:00:14.024,5,-0.33,0.02,-0.36,-26.1102,-169.45100000000002,-51.043,175,75
2026-05-09 16:00:14.037,5,-0.1,0.05,-0.72,-6.530200000000001,-199.681,-2.0930000000000004,175,75
2026-05-09 16:00:14.048,5,0.16,-0.05,-1.55,94.3298,-249.80100000000002,154.247,175,75
2026-05-09 16:00:14.064,5,-0.12,0.23,-1.56,130.46980000000002,-253.321,211.877,175,75
2026-05-09 16:00:14.075,5,-0.14,0.23,-1.17,118.7098,-253.321,215.237,175,75
2026-05-09 16:00:14.086,5,-0.12,-0.11,-0.67,85.7698,-229.161,187.05700000000002,175,75
2026-05-09 16:00:14.086,5,0.0,-0.37,-0.38,53.6598,-141.681,136.187,175,75
2026-05-09 16:00:14.099,5,0.01,-0.49,-0.32,13.8398,-28.351000000000003,63.877,175,75
2026-05-09 16:00:14.112,5,0.04,-0.53,-0.34,-19.880200000000002,88.739,-13.263,175,75
2026-05-09 16:00:14.123,5,0.23,-0.52,-0.28,-47.8802,195.469,-70.593,175,75
2026-05-09 16:00:14.134,5,0.78,-0.44,-0.18,-69.2802,246.94899999999998,-106.263,175,75
2026-05-09 16:00:14.145,5,2.0,-0.59,-0.08,-71.6902,246.94899999999998,-129.773,175,75
2026-05-09 16:00:14.156,5,2.0,-1.39,0.28,-20.6202,246.94899999999998,-145.16299999999998,175,75
2026-05-09 16:00:14.167,5,2.0,-0.71,1.64,8.7398,246.94899999999998,-136.173,175,75
2026-05-09 16:00:14.167,5,2.0,1.25,2.0,53.8998,246.94899999999998,-254.29299999999998,175,75
2026-05-09 16:00:14.187,5,-1.64,0.42,2.0,13.5498,246.94899999999998,-254.29299999999998,175,75
2026-05-09 16:00:14.220,5,-2.0,1.11,2.0,-65.9702,146.289,-254.29299999999998,175,75
2026-05-09 16:00:14.231,5,-2.0,1.4,2.0,-126.8502,-126.241,-254.29299999999998,175,75
2026-05-09 16:00:14.243,5,-2.0,1.18,2.0,-175.2902,-253.321,-254.29299999999998,175,75
2026-05-09 16:00:14.255,5,0.37,0.69,2.0,-174.66019999999997,-253.321,164.967,175,75
2026-05-09 16:00:14.262,5,0.82,0.73,2.0,-92.0802,-175.681,245.977,175,75
2026-05-09 16:00:14.273,5,0.79,0.77,2.0,-15.240200000000002,-145.631,245.977,175,75
2026-05-09 16:00:14.282,5,-1.1,0.74,2.0,-74.2602,-253.321,245.977,175,75
2026-05-09 16:00:14.292,5,-0.84,-0.54,2.0,-227.69019999999998,-253.321,245.977,175,75
2026-05-09 16:00:14.316,5,2.0,-2.0,-1.06,-249.35019999999997,-253.321,245.977,175,75
2026-05-09 16:00:14.326,5,1.42,-2.0,-1.45,-106.5702,-145.461,245.977,175,75
2026-05-09 16:00:14.326,5,-1.44,-1.7,-0.04,-16.7602,-4.901,45.817,175,75
2026-05-09 16:00:14.352,5,-2.0,-1.23,0.23,60.1098,-11.641000000000002,-238.79299999999998,175,75
2026-05-09 16:00:14.352,5,-2.0,-0.83,0.21,117.4798,-73.691,-254.29299999999998,175,75
2026-05-09 16:00:14.363,5,-2.0,-0.18,0.11,155.3598,-136.04100000000003,-254.29299999999998,175,75
2026-05-09 16:00:14.373,5,-1.14,0.37,0.02,166.34980000000002,-153.151,-254.29299999999998,175,75
2026-05-09 16:00:14.386,5,-0.38,1.04,0.01,131.64980000000003,-135.001,-254.29299999999998,175,75
2026-05-09 16:00:14.389,5,0.21,1.8,-0.14,33.449799999999996,-101.741,-254.29299999999998,175,75
2026-05-09 16:00:14.409,5,1.73,1.62,-1.43,-99.8602,38.349000000000004,-254.29299999999998,175,75
2026-05-09 16:00:14.426,5,0.35,1.45,-1.22,-141.37019999999998,38.709,-229.47299999999998,175,75
2026-05-09 16:00:14.446,5,0.05,0.57,-0.26,-188.7702,18.589,-121.283,175,75
2026-05-09 16:00:14.458,5,0.11,0.21,-0.04,-179.9502,68.929,-60.513,175,75
2026-05-09 16:00:14.458,5,0.07,0.06,-0.0,-156.78019999999998,124.92900000000002,-17.303,175,75
2026-05-09 16:00:14.469,5,-0.0,-0.06,-0.09,-121.1902,179.059,17.357,175,75
2026-05-09 16:00:14.492,5,0.17,-0.01,-0.18,-43.6402,244.819,90.747,175,75
2026-05-09 16:00:14.519,5,0.96,0.37,0.31,-19.2002,201.26899999999998,245.977,175,75
2026-05-09 16:00:14.521,5,0.17,0.58,0.76,-53.3702,64.529,245.977,175,75
2026-05-09 16:00:14.536,5,0.58,-0.16,1.26,-95.0302,-77.941,245.977,175,75
2026-05-09 16:00:14.547,5,1.22,-0.65,0.98,-102.6702,-66.061,245.977,175,75
2026-05-09 16:00:14.553,5,0.75,-1.53,0.86,-56.2702,17.669,245.977,175,75
2026-05-09 16:00:14.566,5,0.45,-1.47,1.12,-10.9402,104.259,40.037,175,75
2026-05-09 16:00:14.576,5,-0.02,-1.09,1.73,15.5498,174.35899999999998,-220.653,175,75
2026-05-09 16:00:14.587,5,2.0,-0.61,2.0,8.0298,246.94899999999998,-254.29299999999998,175,75
2026-05-09 16:00:14.587,5,0.32,-0.58,2.0,-25.130200000000002,246.94899999999998,-254.29299999999998,175,75
2026-05-09 16:00:14.597,5,-0.51,-0.3,2.0,-85.0002,246.94899999999998,-254.29299999999998,175,75
2026-05-09 16:00:14.608,5,-0.68,-0.12,2.0,-98.2202,246.94899999999998,-254.29299999999998,175,75
2026-05-09 16:00:14.619,5,-1.03,-0.07,2.0,-94.8702,152.899,-254.29299999999998,175,75
2026-05-09 16:00:14.664,5,-2.0,0.23,2.0,-71.1802,-51.001,-96.10300000000001,175,75
2026-05-09 16:00:14.664,5,-1.87,0.34,2.0,-57.7202,-166.601,-14.303,175,75
2026-05-09 16:00:14.675,5,-1.24,0.31,2.0,-33.9702,-253.321,55.037,175,75
2026-05-09 16:00:14.677,5,-0.78,0.16,2.0,-3.6702,-253.321,144.047,175,75
2026-05-09 16:00:14.718,5,0.05,-0.16,1.09,-35.800200000000004,-253.321,176.317,175,75
2026-05-09 16:00:14.729,5,1.25,-0.46,-0.29,-31.2502,-253.321,167.017,175,75
2026-05-09 16:00:14.742,5,2.0,-0.24,-0.84,0.7498,-253.321,157.687,175,75
2026-05-09 16:00:14.754,5,2.0,-0.03,-1.66,10.2598,-253.321,81.467,175,75
2026-05-09 16:00:14.765,5,0.15,-0.49,-0.83,53.3498,-140.971,-12.643,175,75
2026-05-09 16:00:14.765,5,-0.93,0.16,-1.43,42.7098,-147.23100000000002,-124.813,175,75
2026-05-09 16:00:14.776,5,-1.1,0.41,-1.39,30.7198,-185.401,-213.653,175,75
2026-05-09 16:00:14.776,5,-0.84,0.53,-1.08,2.2698,-213.071,-254.29299999999998,175,75
2026-05-09 16:00:14.794,5,-0.61,0.55,-0.67,-37.2902,-213.89100000000002,-254.29299999999998,175,75
2026-05-09 16:00:14.794,5,-0.54,0.52,-0.44,-77.14020000000001,-200.29100000000003,-239.213,175,75
2026-05-09 16:00:14.831,5,-0.4,0.55,-0.37,-111.3302,-171.911,-210.63299999999998,175,75
2026-05-09 16:00:14.840,5,-0.05,0.55,-0.46,-131.56019999999998,-115.901,-177.91299999999998,175,75
2026-05-09 16:00:14.852,5,0.71,0.47,-0.7,-121.0702,83.069,-78.533,175,75
2026-05-09 16:00:14.867,5,1.3,0.3,-0.93,-76.0502,229.29899999999998,-10.863,175,75
2026-05-09 16:00:14.867,5,2.0,0.34,-0.9,-25.9902,246.94899999999998,80.707,175,75
2026-05-09 16:00:14.879,5,2.0,0.69,-0.32,-15.1202,246.94899999999998,197.447,175,75
2026-05-09 16:00:14.879,5,2.0,1.49,-1.74,-34.0402,246.94899999999998,245.977,175,75
2026-05-09 16:00:14.897,5,2.0,-0.73,1.85,-32.1002,246.94899999999998,245.977,175,75
2026-05-09 16:00:14.924,5,0.94,-1.87,2.0,-44.7302,246.94899999999998,-105.07300000000001,175,75
2026-05-09 16:00:14.924,5,0.72,-0.95,2.0,-46.7102,246.94899999999998,-178.653,175,75
2026-05-09 16:00:14.935,5,-0.36,-0.72,2.0,-62.4502,246.94899999999998,-207.07299999999998,175,75
2026-05-09 16:00:14.947,5,-2.0,-1.29,2.0,-29.5902,246.94899999999998,-241.993,175,75
2026-05-09 16:00:14.991,5,-2.0,-0.19,2.0,99.7998,-25.871000000000002,-89.41300000000001,175,75
2026-05-09 16:00:14.991,5,-2.0,0.36,2.0,69.2498,-241.26100000000002,-92.373,175,75
2026-05-09 16:00:14.991,5,-1.49,0.26,2.0,41.3198,-253.321,-80.813,175,75
2026-05-09 16:00:14.991,5,-0.14,0.05,1.95,36.7398,-253.321,-18.713,175,75
2026-05-09 16:00:15.002,5,0.55,0.05,1.62,28.9598,-253.321,32.597,175,75
2026-05-09 16:00:15.012,5,0.57,0.28,0.96,-49.3502,-253.321,-3.3030000000000004,175,75
2026-05-09 16:00:15.012,5,1.11,0.15,0.25,-87.6502,-253.321,-54.022999999999996,175,75
2026-05-09 16:00:15.028,5,2.0,0.05,-0.49,-107.3602,-253.321,-170.13299999999998,175,75
2026-05-09 16:00:15.032,5,1.73,-0.07,-0.68,-103.1802,-89.461,-246.653,175,75
2026-05-09 16:00:15.041,5,1.04,-0.01,-0.21,-84.1302,1.479,-252.813,175,75
2026-05-09 16:00:15.053,5,0.55,0.15,0.21,-70.2702,70.099,-248.94299999999998,175,75
2026-05-09 16:00:15.061,5,0.1,0.27,0.38,-70.1002,121.93900000000001,-254.29299999999998,175,75
2026-05-09 16:00:15.076,5,-0.22,0.27,0.42,-74.5802,146.41899999999998,-254.29299999999998,175,75
2026-05-09 16:00:15.077,5,-0.42,0.26,0.34,-72.0502,140.319,-254.29299999999998,175,75
2026-05-09 16:00:15.104,5,-0.47,0.29,0.1,-20.3002,1.7990000000000004,-245.29299999999998,175,75
2026-05-09 16:00:15.121,5,-0.33,0.5,0.15,-1.0502,-78.271,-161.753,175,75
2026-05-09 16:00:15.121,5,-0.18,0.63,0.13,-0.6701999999999999,-131.501,-75.173,175,75
2026-05-09 16:00:15.144,5,-0.0,0.5,-0.09,3.6798,-156.001,4.376999999999999,175,75
2026-05-09 16:00:15.144,5,0.19,0.41,-0.36,25.7098,-162.161,93.64699999999999,175,75
2026-05-09 16:00:15.167,5,0.04,0.05,-0.26,90.5298,-150.101,203.797,175,75
2026-05-09 16:00:15.167,5,0.08,0.32,-0.92,116.4098,-139.411,225.357,175,75
2026-05-09 16:00:15.188,5,0.04,0.26,-1.04,147.05980000000002,-132.29100000000003,245.977,175,75
2026-05-09 16:00:15.194,5,-0.25,0.17,-0.81,159.0498,-132.531,245.977,175,75
2026-05-09 16:00:15.211,5,0.05,0.11,-0.68,148.6098,-117.951,235.217,175,75
2026-05-09 16:00:15.211,5,0.55,-0.1,-0.79,127.9998,-19.541,164.17700000000002,175,75
2026-05-09 16:00:15.222,5,0.75,-0.54,-0.84,115.7898,107.259,68.89699999999999,175,75
2026-05-09 16:00:15.236,5,0.75,-0.65,-0.66,106.2298,226.94899999999998,1.3969999999999994,175,75
2026-05-09 16:00:15.272,5,2.0,-0.99,0.02,96.3298,246.94899999999998,-10.883000000000001,175,75
2026-05-09 16:00:15.283,5,2.0,-0.72,0.38,153.7898,246.94899999999998,-26.273000000000003,175,75
2026-05-09 16:00:15.283,5,1.28,-0.45,2.0,118.5098,246.94899999999998,-254.29299999999998,175,75
2026-05-09 16:00:15.295,5,1.88,0.34,2.0,87.8998,246.94899999999998,-254.29299999999998,175,75
2026-05-09 16:00:15.295,5,-0.86,0.56,2.0,18.2898,246.94899999999998,-254.29299999999998,175,75
2026-05-09 16:00:15.305,5,-1.61,0.82,2.0,-72.3402,246.94899999999998,-254.29299999999998,175,75
2026-05-09 16:00:15.318,5,-2.0,0.85,2.0,-133.3302,246.94899999999998,-254.29299999999998,175,75
2026-05-09 16:00:15.328,5,-2.0,0.95,2.0,-183.97019999999998,103.029,-254.29299999999998,175,75
2026-05-09 16:00:15.333,5,-2.0,1.23,2.0,-195.5702,-67.931,-234.463,175,75
2026-05-09 16:00:15.346,5,-1.61,1.11,2.0,-190.38019999999997,-137.121,-10.413,175,75
2026-05-09 16:00:15.350,5,-1.09,0.83,2.0,-138.3202,-143.181,215.52700000000002,175,75
2026-05-09 16:00:15.371,5,-0.91,0.51,2.0,-52.4702,-166.191,245.977,175,75
2026-05-09 16:00:15.371,5,-1.24,0.64,2.0,-48.8502,-253.321,245.977,175,75
2026-05-09 16:00:15.378,5,-1.96,0.3,2.0,-147.03019999999998,-253.321,245.977,175,75
2026-05-09 16:00:15.425,5,-0.48,-0.84,1.63,-247.65019999999998,-253.321,245.977,175,75
2026-05-09 16:00:15.425,5,1.05,-1.64,0.71,-249.35019999999997,-253.321,245.977,175,75
2026-05-09 16:00:15.436,5,2.0,-2.0,-0.24,-183.5802,-253.321,245.977,175,75
2026-05-09 16:00:15.447,5,2.0,-2.0,-2.0,-122.0102,-253.321,245.977,175,75
2026-05-09 16:00:15.447,5,-0.21,-1.87,-1.25,-82.0802,-90.351,0.39699999999999935,175,75
2026-05-09 16:00:15.458,5,-1.95,-1.03,-0.21,-50.2602,-62.400999999999996,-254.29299999999998,175,75
2026-05-09 16:00:15.471,5,-2.0,-0.61,-0.06,-9.170200000000001,-124.651,-254.29299999999998,175,75
2026-05-09 16:00:15.472,5,-2.0,-0.13,-0.1,20.439799999999998,-201.881,-254.29299999999998,175,75
2026-05-09 16:00:15.472,5,-1.47,0.53,-0.21,24.0998,-253.321,-254.29299999999998,175,75
2026-05-09 16:00:15.487,5,-0.89,1.11,-0.49,-10.5402,-253.321,-254.29299999999998,175,75
2026-05-09 16:00:15.488,5,1.51,0.42,0.02,-50.5202,-253.321,-254.29299999999998,175,75
2026-05-09 16:00:15.519,5,0.97,1.43,-1.12,-174.2902,-70.601,-239.123,175,75
2026-05-09 16:00:15.531,5,-0.23,1.25,-0.56,-223.2302,-66.971,-157.97299999999998,175,75
2026-05-09 16:00:15.543,5,0.29,0.43,-0.06,-229.62019999999998,65.349,-63.683,175,75
2026-05-09 16:00:15.549,5,0.23,0.29,0.02,-200.0402,174.029,-41.493,175,75
2026-05-09 16:00:15.590,5,0.19,0.11,-0.11,-132.94019999999998,246.94899999999998,-15.173,175,75
2026-05-09 16:00:15.590,5,0.27,0.1,-0.25,-101.8702,246.94899999999998,17.586999999999996,175,75
2026-05-09 16:00:15.601,5,0.54,0.15,-0.38,-74.0102,246.94899999999998,72.987,175,75
2026-05-09 16:00:15.601,5,0.81,0.3,-0.3,-51.8702,246.94899999999998,152.977,175,75
2026-05-09 16:00:15.623,5,1.66,1.06,0.39,-46.6102,246.94899999999998,245.977,175,75
2026-05-09 16:00:15.623,5,-0.06,0.89,0.98,-51.3902,154.97899999999998,245.977,175,75
2026-05-09 16:00:15.645,5,0.02,-0.13,1.74,-91.3602,-63.021,245.977,175,75
2026-05-09 16:00:15.645,5,1.03,-0.67,1.23,-107.8002,-55.340999999999994,245.977,175,75
2026-05-09 16:00:15.687,5,0.59,-1.04,0.95,-84.8102,33.099000000000004,245.977,175,75
2026-05-09 16:00:15.698,5,0.15,-1.47,1.74,-33.2902,117.979,140.487,175,75
2026-05-09 16:00:15.709,5,0.94,-1.65,2.0,-19.4102,180.809,-99.363,175,75
2026-05-09 16:00:15.709,5,0.09,-1.06,2.0,-27.0002,215.439,-233.813,175,75
2026-05-09 16:00:15.735,5,-0.1,-1.04,2.0,-26.380200000000002,246.94899999999998,-254.29299999999998,175,75
2026-05-09 16:00:15.747,5,-0.61,-1.31,2.0,-6.8702000000000005,246.94899999999998,-254.29299999999998,175,75
2026-05-09 16:00:15.757,5,-0.92,-1.21,2.0,31.7598,246.94899999999998,-254.29299999999998,175,75
2026-05-09 16:00:15.757,5,-1.28,-0.83,2.0,90.0198,246.94899999999998,-254.29299999999998,175,75
2026-05-09 16:00:15.768,5,-0.84,0.33,2.0,141.56980000000001,97.179,-254.29299999999998,175,75
2026-05-09 16:00:15.781,5,-1.41,0.98,2.0,129.89980000000003,-106.771,-213.593,175,75
2026-05-09 16:00:15.824,5,-1.81,1.47,2.0,79.2598,-237.52100000000002,-195.683,175,75
2026-05-09 16:00:15.855,5,-1.28,1.04,1.94,59.4698,-253.321,-164.243,175,75
2026-05-09 16:00:15.867,5,-0.39,0.71,1.61,43.3598,-253.321,-84.703,175,75
2026-05-09 16:00:15.877,5,0.37,0.22,1.19,35.5498,-253.321,1.4069999999999991,175,75
2026-05-09 16:00:15.889,5,1.05,-0.03,0.84,43.9398,-253.321,77.767,175,75
2026-05-09 16:00:15.889,5,1.07,-0.2,0.34,60.7998,-253.321,178.89700000000002,175,75
2026-05-09 16:00:15.889,5,1.29,-0.32,-0.51,113.8398,-253.321,245.977,175,75
2026-05-09 16:00:15.889,5,1.42,0.15,-1.31,154.7998,-253.321,245.977,175,75
2026-05-09 16:00:15.912,5,1.14,0.46,-1.56,172.80980000000002,-237.20100000000002,245.977,175,75
2026-05-09 16:00:15.912,5,0.76,0.08,-1.79,135.9198,-152.571,245.977,175,75
2026-05-09 16:00:15.912,5,-0.29,-0.24,-1.3,106.7898,-104.301,123.137,175,75
2026-05-09 16:00:15.927,5,-1.35,-0.2,-0.26,44.6698,-102.17099999999999,-89.55300000000001,175,75
2026-05-09 16:00:15.938,5,-1.51,-0.16,-0.23,10.1398,-132.61100000000002,-181.263,175,75
2026-05-09 16:00:15.949,5,-1.36,-0.03,-0.45,-24.7402,-172.221,-248.653,175,75
2026-05-09 16:00:15.949,5,-0.54,0.28,-0.63,-68.0202,-181.77100000000002,-254.29299999999998,175,75
2026-05-09 16:00:15.960,5,0.54,0.53,-0.75,-113.0202,-114.881,-254.29299999999998,175,75
2026-05-09 16:00:15.967,5,1.03,0.63,-0.66,-147.85019999999997,3.4690000000000003,-211.083,175,75
2026-05-09 16:00:16.018,5,1.21,0.44,-0.55,-166.8602,126.96900000000001,-134.97299999999998,175,75
2026-05-09 16:00:16.025,5,1.83,0.1,-0.52,-157.4502,246.94899999999998,-59.143,175,75
2026-05-09 16:00:16.054,5,2.0,-0.2,-0.37,-126.39020000000001,246.94899999999998,7.376999999999999,175,75
2026-05-09 16:00:16.096,5,2.0,-0.13,0.18,-92.1702,246.94899999999998,14.937,175,75
2026-05-09 16:00:16.101,5,2.0,0.75,2.0,-163.8902,246.94899999999998,90.277,175,75
2026-05-09 16:00:16.116,5,0.47,-0.42,2.0,-75.6102,246.94899999999998,245.977,175,75
2026-05-09 16:00:16.116,5,-0.9,-0.21,2.0,-76.7702,246.94899999999998,84.66699999999999,175,75
2026-05-09 16:00:16.145,5,-2.0,-1.47,1.7,-69.3802,246.94899999999998,-254.29299999999998,175,75
2026-05-09 16:00:16.145,5,-1.2,-0.22,2.0,107.8698,-172.401,-117.653,175,75
2026-05-09 16:00:16.156,5,-0.8,0.38,2.0,104.4898,-253.321,-86.32300000000001,175,75
2026-05-09 16:00:16.167,5,0.3,0.22,1.79,52.2398,-253.321,-30.683,175,75
2026-05-09 16:00:16.167,5,0.52,0.16,0.77,-47.9602,-253.321,-42.663,175,75
2026-05-09 16:00:16.179,5,0.59,0.16,0.38,-80.5802,-253.321,-79.263,175,75
2026-05-09 16:00:16.179,5,1.25,0.15,-0.04,-94.6502,-253.321,-128.683,175,75
2026-05-09 16:00:16.179,5,1.59,0.18,-0.35,-95.9002,-169.04100000000003,-163.463,175,75
2026-05-09 16:00:16.188,5,1.25,0.19,-0.28,-80.6602,-70.081,-152.13299999999998,175,75
2026-05-09 16:00:16.202,5,0.62,0.28,-0.02,-66.0502,-3.201,-145.94299999999998,175,75
2026-05-09 16:00:16.212,5,0.14,0.38,0.17,-61.6802,43.949000000000005,-175.10299999999998,175,75
2026-05-09 16:00:16.212,5,-0.17,0.4,0.24,-65.0502,72.479,-227.563,175,75
2026-05-09 16:00:16.224,5,-0.26,0.31,0.15,-60.7302,81.129,-254.29299999999998,175,75
2026-05-09 16:00:16.235,5,-0.19,0.24,-0.01,-43.7302,69.209,-254.29299999999998,175,75
2026-05-09 16:00:16.246,5,-0.16,0.27,-0.12,-18.2402,42.949000000000005,-218.333,175,75
2026-05-09 16:00:16.257,5,-0.2,0.29,-0.13,6.469799999999999,4.289,-152.773,175,75
2026-05-09 16:00:16.257,5,-0.31,0.4,-0.2,25.5498,-39.870999999999995,-80.293,175,75
2026-05-09 16:00:16.269,5,-0.29,0.41,-0.23,37.7998,-79.721,-4.003,175,75
2026-05-09 16:00:16.269,5,-0.31,0.39,-0.48,44.7998,-116.56099999999999,64.347,175,75
2026-05-09 16:00:16.275,5,-0.22,-0.02,-0.34,78.0698,-157.20100000000002,130.857,175,75
2026-05-09 16:00:16.297,5,0.02,0.13,-0.91,131.77980000000002,-186.36100000000002,245.977,175,75
2026-05-09 16:00:16.309,5,0.22,0.21,-0.64,136.7898,-161.02100000000002,245.977,175,75
2026-05-09 16:00:16.319,5,0.59,0.13,-0.61,122.5098,-83.151,245.977,175,75
2026-05-09 16:00:16.319,5,0.82,-0.25,-0.76,117.3198,44.819,193.937,175,75
2026-05-09 16:00:16.331,5,0.78,-0.62,-0.78,127.7298,179.279,114.17699999999999,175,75
2026-05-09 16:00:16.349,5,0.82,-0.68,-0.57,144.12980000000002,246.94899999999998,80.607,175,75
2026-05-09 16:00:16.371,5,1.43,-0.46,-0.17,154.96980000000002,246.94899999999998,84.89699999999999,175,75
2026-05-09 16:00:16.410,5,2.0,-1.44,0.25,209.24980000000002,246.94899999999998,79.80699999999999,175,75
2026-05-09 16:00:16.410,5,-0.66,-1.63,2.0,201.3898,246.94899999999998,-170.923,175,75
2026-05-09 16:00:16.422,5,2.0,0.01,2.0,111.9698,246.94899999999998,-254.29299999999998,175,75
2026-05-09 16:00:16.433,5,0.39,0.39,2.0,49.6698,246.94899999999998,-254.29299999999998,175,75
2026-05-09 16:00:16.454,5,-0.95,0.46,2.0,-37.9402,246.94899999999998,-254.29299999999998,175,75
2026-05-09 16:00:16.469,5,-1.83,0.19,2.0,-95.1002,246.94899999999998,-254.29299999999998,175,75
2026-05-09 16:00:16.477,5,-2.0,0.54,2.0,-120.9202,246.94899999999998,-254.29299999999998,175,75
2026-05-09 16:00:16.507,5,-2.0,1.32,2.0,-120.4202,-73.681,-139.733,175,75
2026-05-09 16:00:16.519,5,-2.0,1.29,2.0,-110.5102,-185.411,-22.273000000000003,175,75
2026-05-09 16:00:16.524,5,-0.99,0.47,2.0,-11.7102,-253.321,245.977,175,75
2026-05-09 16:00:16.531,5,-1.21,0.39,2.0,-34.9302,-253.321,245.977,175,75
2026-05-09 16:00:16.568,5,-0.47,0.19,2.0,-88.9702,-253.321,245.977,175,75
2026-05-09 16:00:16.579,5,0.46,-0.35,1.44,-114.6602,-253.321,245.977,175,75
2026-05-09 16:00:16.579,5,-0.0,-0.98,0.67,-113.7902,-253.321,245.977,175,75
2026-05-09 16:00:16.579,5,0.95,-1.33,-0.37,-117.4702,-253.321,245.977,175,75
2026-05-09 16:00:16.589,5,2.0,-2.0,-1.97,-61.8702,-253.321,245.977,175,75
2026-05-09 16:00:16.600,5,1.24,-1.78,-1.5,-30.3702,-205.971,135.537,175,75
2026-05-09 16:00:16.611,5,-0.59,-0.98,-0.22,-11.670200000000001,-118.491,-22.313000000000002,175,75
2026-05-09 16:00:16.621,5,-1.45,-0.43,0.38,-9.5202,-102.491,-163.88299999999998,175,75
2026-05-09 16:00:16.621,5,-1.24,0.43,0.06,-77.0502,-198.871,-254.29299999999998,175,75
2026-05-09 16:00:16.633,5,-0.49,0.64,-0.27,-114.9502,-216.181,-254.29299999999998,175,75
2026-05-09 16:00:16.654,5,1.26,1.01,-0.94,-151.75019999999998,-118.81099999999999,-254.29299999999998,175,75
2026-05-09 16:00:16.654,5,0.93,1.1,-1.15,-170.31019999999998,-28.411,-241.07299999999998,175,75
2026-05-09 16:00:16.665,5,0.21,1.16,-0.91,-187.7002,37.789,-207.013,175,75
2026-05-09 16:00:16.678,5,0.15,0.81,-0.59,-189.13019999999997,102.649,-208.583,175,75
2026-05-09 16:00:16.678,5,0.21,0.45,-0.39,-169.1702,176.73899999999998,-191.953,175,75
2026-05-09 16:00:16.688,5,0.08,0.25,-0.25,-138.34019999999998,244.069,-159.97299999999998,175,75
2026-05-09 16:00:16.700,5,-0.04,0.14,-0.21,-106.5302,246.94899999999998,-114.71300000000001,175,75
2026-05-09 16:00:16.700,5,-0.02,0.13,-0.23,-79.1902,246.94899999999998,-52.753,175,75
2026-05-09 16:00:16.723,5,-0.03,0.18,-0.16,-63.450199999999995,246.94899999999998,12.537,175,75
2026-05-09 16:00:16.756,5,0.12,0.22,-0.12,-56.3702,246.94899999999998,62.147,175,75
2026-05-09 16:00:16.780,5,1.22,0.8,0.52,-39.2802,191.85899999999998,245.977,175,75
2026-05-09 16:00:16.793,5,-0.05,0.57,1.25,-35.4502,19.919,245.977,175,75
2026-05-09 16:00:16.804,5,1.46,-0.4,1.96,-38.8702,-99.551,245.977,175,75
2026-05-09 16:00:16.804,5,2.0,-0.99,2.0,-25.2102,2.769,245.977,175,75
2026-05-09 16:00:16.814,5,2.0,-1.01,2.0,-7.4802,246.94899999999998,-70.653,175,75
2026-05-09 16:00:16.827,5,-1.44,-0.98,2.0,-60.2902,246.94899999999998,-254.29299999999998,175,75
2026-05-09 16:00:16.842,5,-2.0,-1.06,2.0,-63.5202,246.94899999999998,-254.29299999999998,175,75
2026-05-09 16:00:16.852,5,-2.0,-1.1,2.0,-39.4902,184.309,-254.29299999999998,175,75
2026-05-09 16:00:16.865,5,-1.12,-0.19,2.0,19.2598,-169.561,-208.393,175,75
2026-05-09 16:00:16.865,5,-1.0,0.24,2.0,36.3498,-203.76100000000002,-178.583,175,75
2026-05-09 16:00:16.876,5,-0.33,0.78,2.0,67.60979999999999,-253.321,-76.043,175,75
2026-05-09 16:00:16.951,5,0.63,0.49,1.12,54.8398,-253.321,117.157,175,75
2026-05-09 16:00:16.961,5,1.12,0.0,0.46,36.9098,-253.321,128.83700000000002,175,75
2026-05-09 16:00:16.972,5,1.39,-0.31,-0.14,51.1598,-253.321,157.067,175,75
2026-05-09 16:00:16.972,5,2.0,-0.42,-1.09,96.2198,-253.321,220.89700000000002,175,75
2026-05-09 16:00:16.982,5,1.43,-0.23,-1.66,132.11980000000003,-253.321,245.977,175,75
2026-05-09 16:00:16.982,5,0.4,-0.17,-1.04,171.58980000000003,-235.091,233.27700000000002,175,75
2026-05-09 16:00:16.993,5,-0.61,-0.05,-1.09,155.89980000000003,-238.311,142.33700000000002,175,75
2026-05-09 16:00:16.993,5,-1.42,-0.03,-0.89,116.0298,-253.321,38.457,175,75
2026-05-09 16:00:17.003,5,-1.72,0.05,-0.68,53.3498,-253.321,-63.043,175,75
2026-05-09 16:00:17.015,5,-1.28,0.11,-0.53,-17.7502,-253.321,-123.07300000000001,175,75
2026-05-09 16:00:17.057,5,-0.93,0.2,-0.36,-136.03019999999998,-253.321,-141.113,175,75
2026-05-09 16:00:17.092,5,-0.69,0.1,-0.53,-153.5102,-253.321,-140.803,175,75
2026-05-09 16:00:17.104,5,-0.16,0.14,-0.82,-138.75019999999998,-248.67100000000002,-132.843,175,75
2026-05-09 16:00:17.115,5,0.45,0.3,-1.18,-100.1302,-110.451,-113.27300000000001,175,75
2026-05-09 16:00:17.122,5,0.35,0.54,-0.88,-53.9702,77.929,-111.16300000000001,175,75
2026-05-09 16:00:17.122,5,0.3,0.57,-0.6,-30.5202,239.759,-135.113,175,75
2026-05-09 16:00:17.126,5,1.03,0.47,-0.78,2.7398,246.94899999999998,-115.393,175,75
2026-05-09 16:00:17.142,5,2.0,0.95,-0.67,36.3798,246.94899999999998,120.25699999999999,175,75
2026-05-09 16:00:17.154,5,2.0,1.22,-0.4,-27.470200000000002,246.94899999999998,245.977,175,75
2026-05-09 16:00:17.154,5,1.65,-0.67,2.0,-139.50019999999998,246.94899999999998,219.02700000000002,175,75
2026-05-09 16:00:17.154,5,-0.27,-0.98,2.0,-144.69019999999998,246.94899999999998,-4.003,175,75
2026-05-09 16:00:17.165,5,-0.95,0.73,2.0,-170.7602,246.94899999999998,-113.723,175,75
2026-05-09 16:00:17.166,5,-2.0,-1.59,1.91,-127.8602,246.94899999999998,-187.813,175,75
2026-05-09 16:00:17.180,5,-2.0,-2.0,1.55,-15.0002,246.94899999999998,-203.313,175,75
2026-05-09 16:00:17.180,5,-2.0,-1.61,2.0,101.5298,-71.331,-169.893,175,75
2026-05-09 16:00:17.191,5,-1.87,-0.43,2.0,157.0498,-253.321,-145.753,175,75
2026-05-09 16:00:17.191,5,-0.52,0.31,2.0,151.09980000000002,-253.321,-157.35299999999998,175,75
2026-05-09 16:00:17.202,5,0.95,0.79,2.0,138.71980000000002,-253.321,-122.893,175,75
2026-05-09 16:00:17.213,5,1.23,0.83,1.8,109.7398,-253.321,-113.69300000000001,175,75
2026-05-09 16:00:17.213,5,1.51,0.81,1.5,50.3798,-253.321,-130.833,175,75
2026-05-09 16:00:17.236,5,2.0,0.44,0.44,-47.6302,-185.52100000000002,-66.863,175,75
2026-05-09 16:00:17.246,5,1.78,0.38,0.05,-46.3202,-80.971,-1.7830000000000004,175,75
2026-05-09 16:00:17.257,5,1.12,0.44,0.12,-47.9502,1.7990000000000004,10.286999999999999,175,75
2026-05-09 16:00:17.257,5,0.57,0.45,0.23,-60.5102,60.519000000000005,-19.093,175,75
2026-05-09 16:00:17.268,5,0.3,0.4,0.3,-69.1102,91.549,-64.10300000000001,175,75
2026-05-09 16:00:17.268,5,0.13,0.36,0.26,-65.7102,91.709,-105.69300000000001,175,75
2026-05-09 16:00:17.280,5,0.06,0.31,0.2,-44.300200000000004,61.989000000000004,-129.793,175,75
2026-05-09 16:00:17.280,5,0.07,0.3,0.23,-15.010200000000001,22.519,-126.843,175,75
2026-05-09 16:00:17.291,5,0.0,0.32,0.33,7.159800000000001,-16.621,-111.143,175,75
2026-05-09 16:00:17.331,5,-0.06,0.31,0.43,12.3498,-46.811,-91.983,175,75
2026-05-09 16:00:17.349,5,-0.19,0.17,0.36,7.739800000000001,-92.901,-47.643,175,75
2026-05-09 16:00:17.349,5,-0.19,0.08,0.25,8.4198,-112.81099999999999,-14.683,175,75
2026-05-09 16:00:17.400,5,-0.24,0.05,0.08,16.3298,-132.531,18.537,175,75
2026-05-09 16:00:17.411,5,-0.21,0.04,-0.13,28.1698,-150.931,53.977000000000004,175,75
2026-05-09 16:00:17.425,5,-0.19,0.08,-0.55,40.0998,-165.961,86.66699999999999,175,75
2026-05-09 16:00:17.446,5,0.19,-0.6,-0.15,84.1298,-167.121,131.407,175,75
2026-05-09 16:00:17.459,5,0.45,0.2,-1.66,133.2098,-151.501,193.627,175,75
2026-05-09 16:00:17.542,5,-0.78,0.23,-0.33,144.5398,-156.431,195.08700000000002,175,75
2026-05-09 16:00:17.542,5,0.08,-0.14,-0.35,117.6998,-110.331,157.847,175,75
2026-05-09 16:00:17.561,5,0.55,-0.42,-0.52,99.2498,17.819,107.277,175,75
2026-05-09 16:00:17.571,5,0.79,-0.58,-0.62,86.4098,169.22899999999998,45.687000000000005,175,75
2026-05-09 16:00:17.581,5,2.0,-1.98,-0.11,125.5498,246.94899999999998,-16.423000000000002,175,75
2026-05-09 16:00:17.591,5,0.37,0.74,2.0,58.2898,246.94899999999998,-254.29299999999998,175,75
2026-05-09 16:00:17.602,5,-2.0,0.96,2.0,-154.56019999999998,42.669000000000004,-254.29299999999998,175,75
2026-05-09 16:00:17.602,5,-1.92,1.26,2.0,-151.2902,-92.211,-46.653,175,75
2026-05-09 16:00:17.615,5,-1.41,1.21,2.0,-128.16019999999997,-165.26100000000002,137.387,175,75
2026-05-09 16:00:17.615,5,-0.96,0.68,2.0,-61.4202,-192.711,245.977,175,75
2026-05-09 16:00:17.626,5,-1.22,0.44,2.0,-12.930200000000001,-253.321,245.977,175,75
2026-05-09 16:00:17.636,5,-1.56,0.41,2.0,-58.0302,-253.321,245.977,175,75
2026-05-09 16:00:17.653,5,0.76,-0.64,1.5,-147.4502,-253.321,245.977,175,75
2026-05-09 16:00:17.665,5,0.7,-1.09,0.8,-125.3702,-253.321,245.977,175,75
2026-05-09 16:00:17.675,5,0.49,-0.98,0.21,-87.7902,-253.321,245.977,175,75
2026-05-09 16:00:17.686,5,1.75,-1.69,-1.28,-62.0302,-253.321,245.977,175,75
2026-05-09 16:00:17.686,5,0.84,-1.84,-1.42,-42.5402,-215.841,66.92699999999999,175,75
2026-05-09 16:00:17.686,5,-0.47,-1.26,-0.64,-18.4802,-116.521,-146.953,175,75
2026-05-09 16:00:17.698,5,-1.18,-0.76,-0.15,7.149800000000001,-100.361,-254.29299999999998,175,75
2026-05-09 16:00:17.715,5,-1.32,-0.29,0.04,25.3498,-126.761,-254.29299999999998,175,75
2026-05-09 16:00:17.726,5,-1.1,0.26,0.07,16.0598,-165.48100000000002,-254.29299999999998,175,75
2026-05-09 16:00:17.727,5,-0.59,0.63,-0.19,-19.8302,-195.811,-254.29299999999998,175,75
2026-05-09 16:00:17.740,5,0.11,0.38,-0.31,-58.1902,-196.98100000000002,-254.29299999999998,175,75
2026-05-09 16:00:17.751,5,1.01,0.86,-0.57,-82.4602,-153.491,-254.29299999999998,175,75
2026-05-09 16:00:17.751,5,1.28,1.1,-0.98,-117.1902,-71.491,-248.91299999999998,175,75
2026-05-09 16:00:17.762,5,0.03,0.76,-0.46,-163.3902,17.468999999999998,-155.063,175,75
2026-05-09 16:00:17.774,5,0.19,0.42,-0.21,-155.84019999999998,71.419,-135.013,175,75
2026-05-09 16:00:17.774,5,0.21,0.22,-0.08,-134.69019999999998,143.589,-112.203,175,75
2026-05-09 16:00:17.785,5,0.2,0.18,-0.03,-110.3602,211.129,-87.30300000000001,175,75
2026-05-09 16:00:17.798,5,0.24,0.21,-0.07,-89.9402,246.94899999999998,-57.783,175,75
2026-05-09 16:00:17.816,5,0.28,0.29,-0.11,-77.0102,246.94899999999998,-23.012999999999998,175,75
2026-05-09 16:00:17.816,5,0.38,0.31,-0.17,-69.4202,246.94899999999998,13.386999999999999,175,75
2026-05-09 16:00:17.866,5,0.88,0.3,-0.17,-57.1302,246.94899999999998,73.16699999999999,175,75
2026-05-09 16:00:17.889,5,0.34,0.5,0.52,-49.5402,138.509,245.977,175,75
2026-05-09 16:00:17.941,5,0.77,-0.48,1.23,-15.2802,-4.861,245.977,175,75
2026-05-09 16:00:17.951,5,1.24,-0.63,1.66,7.3598,97.479,178.64700000000002,175,75
2026-05-09 16:00:17.963,5,1.08,-0.9,2.0,10.6998,241.88899999999998,11.027,175,75
2026-05-09 16:00:17.963,5,0.59,-0.99,2.0,-43.0202,246.94899999999998,-157.493,175,75
2026-05-09 16:00:17.977,5,-0.14,-0.77,2.0,-67.6902,246.94899999999998,-251.423,175,75
2026-05-09 16:00:17.977,5,-0.75,-1.18,2.0,-55.1002,246.94899999999998,-254.29299999999998,175,75
2026-05-09 16:00:18.021,5,-1.36,-1.03,2.0,-11.760200000000001,101.07900000000001,-254.29299999999998,175,75
2026-05-09 16:00:18.046,5,-1.33,-0.58,2.0,9.6098,-1.5110000000000001,-254.29299999999998,175,75
2026-05-09 16:00:18.046,5,-0.89,-0.01,2.0,13.8498,-75.101,-254.29299999999998,175,75
2026-05-09 16:00:18.052,5,-0.42,0.22,2.0,16.4898,-131.491,-254.29299999999998,175,75
2026-05-09 16:00:18.079,5,-0.26,0.62,2.0,43.3798,-189.151,-215.183,175,75
2026-05-09 16:00:18.137,5,0.46,0.31,0.47,25.6498,-253.321,-40.333,175,75
2026-05-09 16:00:18.137,5,1.26,0.07,-0.41,48.2698,-253.321,47.767,175,75
2026-05-09 16:00:18.151,5,2.0,0.33,-2.0,162.56980000000001,-187.52100000000002,245.977,175,75
2026-05-09 16:00:18.151,5,0.08,0.26,-1.72,196.12980000000002,-122.78099999999999,245.977,175,75
2026-05-09 16:00:18.159,5,-1.09,-0.01,-1.02,161.7098,-142.42100000000002,180.77700000000002,175,75
2026-05-09 16:00:18.171,5,-1.53,-0.37,-1.06,106.1898,-177.491,33.697,175,75
2026-05-09 16:00:18.171,5,-1.64,-0.52,-0.75,57.699799999999996,-217.411,-94.893,175,75
2026-05-09 16:00:18.171,5,-1.41,0.04,-0.01,-98.1302,-253.321,-189.503,175,75
2026-05-09 16:00:18.185,5,-0.76,0.19,-0.03,-176.94019999999998,-253.321,-203.04299999999998,175,75
2026-05-09 16:00:18.210,5,0.26,0.19,-0.32,-234.2602,-199.811,-197.653,175,75
2026-05-09 16:00:18.304,5,1.26,0.8,-0.78,-192.2902,246.94899999999998,-87.093,175,75
2026-05-09 16:00:18.317,5,2.0,0.67,-0.59,-202.4202,246.94899999999998,-61.873,175,75
2026-05-09 16:00:18.317,5,2.0,0.9,-0.08,-246.09019999999998,246.94899999999998,-26.603,175,75
2026-05-09 16:00:18.328,5,2.0,2.0,2.0,-249.35019999999997,246.94899999999998,245.977,175,75
2026-05-09 16:00:18.328,5,1.09,-1.52,2.0,-203.03019999999998,136.63899999999998,245.977,175,75
2026-05-09 16:00:18.337,5,0.07,-0.91,2.0,-165.84019999999998,145.149,140.097,175,75
2026-05-09 16:00:18.337,5,-1.06,-0.5,1.55,-168.9202,246.94899999999998,13.976999999999999,175,75
2026-05-09 16:00:18.371,5,-0.24,0.75,2.0,224.2998,-253.321,-254.29299999999998,175,75
2026-05-09 16:00:18.448,5,0.69,1.32,1.79,195.8298,-253.321,-198.07299999999998,175,75
2026-05-09 16:00:18.448,5,1.04,1.39,1.51,129.27980000000002,-253.321,-203.143,175,75
2026-05-09 16:00:18.459,5,1.4,1.19,1.22,55.9698,-253.321,-185.523,175,75
2026-05-09 16:00:18.470,5,2.0,0.67,0.54,13.0098,-159.991,-87.683,175,75
2026-05-09 16:00:18.470,5,1.83,0.51,0.17,11.319799999999999,-72.081,40.327,175,75
2026-05-09 16:00:18.486,5,1.13,0.46,0.16,10.0298,-19.961000000000002,129.167,175,75
2026-05-09 16:00:18.498,5,0.17,0.19,0.22,-19.1402,-11.620999999999999,120.64699999999999,175,75
2026-05-09 16:00:18.498,5,0.1,-0.04,0.39,-15.5002,-11.911000000000001,-14.513,175,75
2026-05-09 16:00:18.513,5,0.02,-0.01,0.43,-15.270199999999999,1.8689999999999998,-48.263,175,75
2026-05-09 16:00:18.513,5,-0.12,-0.03,0.36,-16.7502,7.2589999999999995,-86.203,175,75
2026-05-09 16:00:18.531,5,-0.23,0.0,0.28,-17.1602,-5.781000000000001,-89.893,175,75
2026-05-09 16:00:18.635,5,0.5,0.18,-0.87,46.5098,-150.01100000000002,16.616999999999997,175,75
2026-05-09 16:00:18.635,5,0.31,0.16,-1.15,72.9898,-128.871,58.577,175,75
2026-05-09 16:00:18.646,5,-0.21,0.09,-0.91,97.0098,-124.951,79.92699999999999,175,75
2026-05-09 16:00:18.646,5,-0.51,0.13,-0.5,96.3898,-141.52100000000002,84.44699999999999,175,75
2026-05-09 16:00:18.657,5,-0.17,0.13,-0.33,75.9098,-139.14100000000002,83.317,175,75
2026-05-09 16:00:18.657,5,0.53,-0.09,-0.41,58.0898,-73.491,96.857,175,75
2026-05-09 16:00:18.669,5,0.7,-0.33,-0.48,56.2498,19.829,112.637,175,75
2026-05-09 16:00:18.679,5,0.85,-0.49,-0.36,60.1898,127.609,122.03699999999999,175,75
2026-05-09 16:00:18.679,5,2.0,-0.9,0.08,81.8798,246.94899999999998,128.107,175,75
2026-05-09 16:00:18.679,5,2.0,-0.49,-0.55,112.9398,246.94899999999998,106.91699999999999,175,75
2026-05-09 16:00:18.679,5,1.46,-0.13,2.0,102.1298,246.94899999999998,-254.29299999999998,175,75
2026-05-09 16:00:18.690,5,-0.81,-0.02,2.0,27.7498,246.94899999999998,-254.29299999999998,175,75
2026-05-09 16:00:18.734,5,-2.0,0.4,2.0,-83.5402,14.788999999999998,-254.29299999999998,175,75
2026-05-09 16:00:18.753,5,-2.0,0.77,2.0,-121.9102,-133.26100000000002,-227.483,175,75
2026-05-09 16:00:18.763,5,-1.31,1.32,2.0,-139.2002,-253.26100000000002,-20.203000000000003,175,75
2026-05-09 16:00:18.763,5,-0.26,1.18,2.0,-130.5202,-253.321,208.95700000000002,175,75
2026-05-09 16:00:18.776,5,0.29,0.83,2.0,-71.7102,-232.461,245.977,175,75
2026-05-09 16:00:18.776,5,-0.52,0.65,2.0,-32.8302,-253.321,245.977,175,75
2026-05-09 16:00:18.776,5,-0.55,0.09,2.0,-92.2302,-253.321,245.977,175,75
2026-05-09 16:00:18.801,5,0.61,-1.21,0.3,-104.1602,-253.321,245.977,175,75
2026-05-09 16:00:18.801,5,1.4,-1.6,-0.6,-62.0102,-253.321,245.977,175,75
2026-05-09 16:00:18.801,5,1.17,-1.61,-1.09,-32.8402,-253.321,193.08700000000002,175,75
2026-05-09 16:00:18.822,5,-0.95,-0.87,-0.17,7.649800000000001,-88.041,-219.453,175,75
2026-05-09 16:00:18.847,5,-1.33,-0.54,-0.04,38.6298,-99.871,-254.29299999999998,175,75
2026-05-09 16:00:18.859,5,-1.2,-0.15,-0.02,58.4698,-135.58100000000002,-254.29299999999998,175,75
2026-05-09 16:00:18.871,5,-0.77,0.39,-0.23,52.0198,-167.26100000000002,-254.29299999999998,175,75
2026-05-09 16:00:18.882,5,-0.17,0.72,-0.43,17.0498,-172.841,-254.29299999999998,175,75
2026-05-09 16:00:18.912,5,1.23,1.13,-1.02,-27.1402,-38.271,-252.093,175,75
2026-05-09 16:00:18.923,5,-0.07,0.95,-0.7,-91.5202,29.819,-157.263,175,75
2026-05-09 16:00:18.972,5,0.13,0.54,-0.43,-97.0602,55.289,-118.113,175,75
2026-05-09 16:00:19.009,5,0.15,0.32,-0.18,-89.5702,103.379,-69.69300000000001,175,75
2026-05-09 16:00:19.009,5,0.15,0.17,-0.12,-73.4602,159.099,-27.333,175,75
2026-05-09 16:00:19.016,5,0.23,0.1,-0.17,-48.4002,213.559,18.607,175,75
2026-05-09 16:00:19.024,5,0.24,0.16,-0.22,-23.8502,246.94899999999998,64.75699999999999,175,75
2026-05-09 16:00:19.042,5,0.64,0.14,-0.18,6.7097999999999995,246.94899999999998,147.467,175,75
2026-05-09 16:00:19.053,5,1.28,0.05,-0.18,23.2698,246.94899999999998,234.997,175,75
2026-05-09 16:00:19.053,5,1.27,0.18,0.42,22.4698,246.94899999999998,245.977,175,75
2026-05-09 16:00:19.053,5,1.03,-0.55,2.0,4.8398,-17.271,245.977,175,75
2026-05-09 16:00:19.065,5,0.07,-0.75,2.0,0.8398000000000001,246.94899999999998,-210.233,175,75
2026-05-09 16:00:19.078,5,-1.2,-0.45,2.0,-28.9502,246.94899999999998,-254.29299999999998,175,75
2026-05-09 16:00:19.078,5,-1.75,-0.89,2.0,-52.0602,246.94899999999998,-254.29299999999998,175,75
2026-05-09 16:00:19.089,5,-2.0,-0.93,2.0,-51.5602,184.009,-254.29299999999998,175,75
2026-05-09 16:00:19.089,5,-2.0,-0.78,2.0,-24.9402,25.669,-254.29299999999998,175,75
2026-05-09 16:00:19.121,5,-0.84,0.11,2.0,24.8998,-238.681,-185.16299999999998,175,75
2026-05-09 16:00:19.133,5,-0.4,0.35,2.0,72.4898,-253.321,-108.07300000000001,175,75
2026-05-09 16:00:19.155,5,-0.45,0.55,1.88,89.5798,-253.321,-47.522999999999996,175,75
2026-05-09 16:00:19.183,5,0.42,0.31,0.03,-43.8802,-253.321,-78.52300000000001,175,75
2026-05-09 16:00:19.183,5,1.47,0.2,-1.06,-26.4802,-253.321,4.466999999999999,175,75
2026-05-09 16:00:19.213,5,-1.63,0.36,-0.67,120.2598,-191.36100000000002,113.28699999999999,175,75
2026-05-09 16:00:19.213,5,-1.76,-0.04,-0.62,78.4498,-253.321,-3.4930000000000003,175,75
2026-05-09 16:00:19.230,5,-1.54,-0.08,-0.71,44.2998,-253.321,-92.753,175,75
2026-05-09 16:00:19.241,5,-0.85,-0.05,-0.76,-5.260199999999999,-253.321,-134.303,175,75
2026-05-09 16:00:19.260,5,0.19,0.37,-0.57,-162.5702,49.379000000000005,-123.183,175,75
2026-05-09 16:00:19.278,5,0.73,0.4,-0.77,-146.65019999999998,194.939,-132.963,175,75
2026-05-09 16:00:19.282,5,1.07,0.43,-0.89,-120.3502,246.94899999999998,-115.433,175,75
2026-05-09 16:00:19.288,5,1.26,0.51,-0.78,-104.6302,246.94899999999998,-83.533,175,75
2026-05-09 16:00:19.307,5,2.0,0.51,-0.54,-113.6102,246.94899999999998,-39.173,175,75
2026-05-09 16:00:19.316,5,2.0,0.46,-0.25,-135.34019999999998,246.94899999999998,10.327,175,75
2026-05-09 16:00:19.330,5,2.0,1.43,2.0,-242.19019999999998,246.94899999999998,221.697,175,75
2026-05-09 16:00:19.373,5,-1.59,-0.28,2.0,-54.2502,246.94899999999998,60.327000000000005,175,75
2026-05-09 16:00:19.373,5,-2.0,-0.91,1.78,-63.450199999999995,246.94899999999998,-136.97299999999998,175,75
2026-05-09 16:00:19.385,5,-2.0,-1.46,1.56,-26.560200000000002,246.94899999999998,-254.29299999999998,175,75
2026-05-09 16:00:19.385,5,-2.0,-1.78,2.0,25.0698,126.33900000000001,-254.29299999999998,175,75
2026-05-09 16:00:19.388,5,-2.0,-1.3,2.0,88.9598,-187.281,-254.29299999999998,175,75
2026-05-09 16:00:19.411,5,0.6,0.68,2.0,127.8098,-253.321,-174.29299999999998,175,75
2026-05-09 16:00:19.426,5,0.76,1.05,2.0,108.8398,-253.321,-185.97299999999998,175,75
2026-05-09 16:00:19.438,5,1.16,1.09,1.6,47.3898,-253.321,-198.783,175,75
2026-05-09 16:00:19.438,5,1.64,0.92,1.29,-20.7702,-253.321,-186.203,175,75
2026-05-09 16:00:19.453,5,2.0,0.5,0.72,-62.7302,-173.591,-95.403,175,75
2026-05-09 16:00:19.461,5,1.93,0.39,0.31,-57.5602,-79.871,0.3569999999999993,175,75
2026-05-09 16:00:19.469,5,1.04,0.45,0.32,-51.7902,-7.161,38.887,175,75
2026-05-09 16:00:19.484,5,0.57,0.4,0.34,-53.300200000000004,35.509,17.226999999999997,175,75
2026-05-09 16:00:19.506,5,0.29,0.15,0.35,-25.9902,42.189,-79.13300000000001,175,75
2026-05-09 16:00:19.515,5,0.52,0.21,0.58,-2.5101999999999998,36.549,-96.27300000000001,175,75
2026-05-09 16:00:19.530,5,0.45,0.28,0.68,5.159800000000001,34.129000000000005,-81.253,175,75
2026-05-09 16:00:19.530,5,0.17,0.28,0.62,10.739799999999999,23.959,-69.403,175,75
2026-05-09 16:00:19.552,5,-0.16,0.26,0.55,12.4698,-21.891000000000002,-51.833,175,75
2026-05-09 16:00:19.566,5,-0.24,0.25,0.48,8.7098,-51.730999999999995,-48.573,175,75
2026-05-09 16:00:19.577,5,-0.24,0.22,0.35,2.3798000000000004,-84.191,-39.783,175,75
2026-05-09 16:00:19.593,5,-0.09,0.12,-0.06,3.1898,-143.071,-1.8330000000000006,175,75
2026-05-09 16:00:19.607,5,0.13,0.13,-0.37,12.5198,-164.721,36.637,175,75
2026-05-09 16:00:19.607,5,0.42,0.09,-0.91,29.0698,-168.651,89.327,175,75
2026-05-09 16:00:19.619,5,0.61,0.07,-1.34,83.2298,-153.061,142.95700000000002,175,75
2026-05-09 16:00:19.632,5,0.15,0.15,-1.21,126.7498,-126.581,165.347,175,75
2026-05-09 16:00:19.651,5,-0.72,0.01,-0.55,150.5198,-164.33100000000002,127.317,175,75
2026-05-09 16:00:19.681,5,0.29,-0.25,-0.36,104.9298,-122.81099999999999,91.737,175,75
2026-05-09 16:00:19.706,5,0.68,-0.57,-0.2,70.6598,208.689,55.407000000000004,175,75
2026-05-09 16:00:19.706,5,1.5,-0.76,0.04,69.2898,246.94899999999998,52.117000000000004,175,75
2026-05-09 16:00:19.718,5,2.0,-1.48,0.23,111.4798,246.94899999999998,47.157000000000004,175,75
2026-05-09 16:00:19.732,5,2.0,-0.83,0.22,136.5398,246.94899999999998,43.427,175,75
2026-05-09 16:00:19.742,5,-2.0,-1.73,2.0,156.83980000000003,246.94899999999998,-254.29299999999998,175,75
2026-05-09 16:00:19.763,5,0.18,0.67,2.0,59.7898,246.94899999999998,-254.29299999999998,175,75
2026-05-09 16:00:19.776,5,-0.61,0.67,2.0,-23.2002,246.94899999999998,-254.29299999999998,175,75
2026-05-09 16:00:19.776,5,-1.97,0.36,2.0,-75.1302,246.94899999999998,-254.29299999999998,175,75
2026-05-09 16:00:19.790,5,-2.0,0.38,2.0,-100.9502,154.29899999999998,-254.29299999999998,175,75
2026-05-09 16:00:19.790,5,-2.0,0.7,2.0,-119.9302,-11.321000000000002,-254.29299999999998,175,75
2026-05-09 16:00:19.800,5,-2.0,1.36,2.0,-120.8402,-169.971,-102.55300000000001,175,75
2026-05-09 16:00:19.811,5,-1.49,1.41,2.0,-108.1902,-253.321,90.14699999999999,175,75
2026-05-09 16:00:19.829,5,0.21,0.62,2.0,-16.9002,-253.321,245.977,175,75
2026-05-09 16:00:19.862,5,0.17,-0.54,1.22,-104.8402,-253.321,245.977,175,75
2026-05-09 16:00:19.876,5,0.09,-0.64,0.66,-166.19019999999998,-253.321,245.977,175,75
2026-05-09 16:00:19.887,5,1.29,-1.53,-0.15,-157.09019999999998,-253.321,245.977,175,75
2026-05-09 16:00:19.887,5,2.0,-1.86,-0.97,-116.1002,-253.321,245.977,175,75
2026-05-09 16:00:19.898,5,0.42,-1.67,-0.65,-84.1602,-153.971,33.417,175,75
2026-05-09 16:00:19.916,5,-0.73,-1.02,0.07,-53.4502,-50.330999999999996,-184.433,175,75
2026-05-09 16:00:19.926,5,-1.11,-0.64,0.32,-25.5202,-12.780999999999999,-254.29299999999998,175,75
2026-05-09 16:00:19.936,5,-1.07,-0.32,0.28,2.9098,-10.751000000000001,-254.29299999999998,175,75
2026-05-09 16:00:19.936,5,-0.81,0.0,0.13,17.6698,-16.621,-254.29299999999998,175,75
2026-05-09 16:00:19.948,5,-0.53,0.43,-0.09,12.409799999999999,-20.591,-254.29299999999998,175,75
2026-05-09 16:00:19.979,5,0.98,1.2,-1.04,-51.9502,139.899,-254.29299999999998,175,75
2026-05-09 16:00:20.007,5,-0.45,0.77,-0.66,-85.14020000000001,80.049,-201.003,175,75
2026-05-09 16:00:20.007,5,-0.09,0.49,-0.38,-82.4602,37.109,-112.35300000000001,175,75
2026-05-09 16:00:20.017,5,0.02,0.34,-0.13,-75.4802,28.479,-9.233,175,75
2026-05-09 16:00:20.030,5,0.17,0.2,-0.1,-57.2502,45.549,81.217,175,75
2026-05-09 16:00:20.038,5,0.27,0.15,-0.1,-31.7402,73.18900000000001,154.67700000000002,175,75
2026-05-09 16:00:20.047,5,0.29,0.17,-0.01,-6.5802,97.839,214.447,175,75
2026-05-09 16:00:20.062,5,0.52,0.21,0.07,11.1298,110.46900000000001,245.977,175,75
2026-05-09 16:00:20.071,5,0.79,0.18,0.15,19.279799999999998,119.07900000000001,245.977,175,75
2026-05-09 16:00:20.079,5,1.05,0.19,0.22,24.2898,124.779,245.977,175,75
