Time,ID,Ax,Ay,Az,Gx,Gy,Gz,Height,Weight
2026-05-09 15:53:47.031,5,-0.21,-0.33,0.02,106.651,-252.0282,140.8664,175,75
2026-05-09 15:53:47.031,5,0.44,-0.24,-0.4,109.361,-252.0282,124.7064,175,75
2026-05-09 15:53:47.042,5,2.0,-0.21,-1.64,137.071,-252.0282,156.32639999999998,175,75
2026-05-09 15:53:47.054,5,2.0,-1.91,-2.0,230.071,-31.9082,217.16639999999998,175,75
2026-05-09 15:53:47.062,5,-2.0,0.24,-0.65,169.43099999999998,129.1918,-140.5136,175,75
2026-05-09 15:53:47.074,5,-1.97,0.23,-0.51,115.48100000000001,38.3418,-225.9136,175,75
2026-05-09 15:53:47.085,5,-1.57,0.28,-0.82,75.511,-74.5582,-230.80360000000002,175,75
2026-05-09 15:53:47.102,5,0.13,0.68,-1.15,25.551,-119.5582,-179.86360000000002,175,75
2026-05-09 15:53:47.112,5,0.98,0.93,-0.98,-28.869000000000003,-44.9182,-81.9336,175,75
2026-05-09 15:53:47.125,5,0.2,0.59,-0.31,-112.179,66.8018,-27.3536,175,75
2026-05-09 15:53:47.152,5,0.91,0.33,-0.12,-108.039,216.96179999999998,2.5363999999999995,175,75
2026-05-09 15:53:47.251,5,-2.0,-0.96,1.7,57.131,40.351800000000004,-35.113600000000005,175,75
2026-05-09 15:53:47.267,5,-0.89,-0.73,2.0,81.991,-108.2882,-251.7336,175,75
2026-05-09 15:53:47.285,5,-0.01,0.59,1.37,92.241,-241.0482,-81.0736,175,75
2026-05-09 15:53:47.297,5,0.38,0.55,1.31,70.23100000000001,-230.3582,-47.5536,175,75
2026-05-09 15:53:47.309,5,0.71,0.42,1.27,47.111000000000004,-206.7782,-1.9036000000000002,175,75
2026-05-09 15:53:47.321,5,0.91,0.25,1.28,31.500999999999998,-188.7382,28.686400000000003,175,75
2026-05-09 15:53:47.346,5,1.03,-0.07,0.92,20.761,-159.3382,9.5864,175,75
2026-05-09 15:53:47.363,5,0.9,-0.07,0.72,29.061,-119.6182,-10.6136,175,75
2026-05-09 15:53:47.367,5,0.67,-0.01,0.6,34.811,-70.8982,-34.2436,175,75
2026-05-09 15:53:47.404,5,0.25,0.26,0.4,21.110999999999997,12.4018,-84.9236,175,75
2026-05-09 15:53:47.404,5,0.17,0.31,0.29,15.111,8.8718,-85.86359999999999,175,75
2026-05-09 15:53:47.426,5,0.03,0.26,0.06,15.651,-24.6382,-49.7136,175,75
2026-05-09 15:53:47.439,5,-0.18,0.23,-0.22,28.031,-78.0882,-12.5136,175,75
2026-05-09 15:53:47.459,5,-0.19,0.19,-0.31,30.660999999999998,-112.2182,7.776399999999999,175,75
2026-05-09 15:53:47.472,5,0.04,0.08,-0.48,35.381,-151.15820000000002,65.5464,175,75
2026-05-09 15:53:47.492,5,0.22,-0.03,-0.71,34.661,-156.90820000000002,109.33640000000001,175,75
2026-05-09 15:53:47.516,5,0.64,-0.37,-1.1,27.700999999999997,-58.9282,125.3464,175,75
2026-05-09 15:53:47.548,5,0.43,-0.46,-0.88,18.621,13.331800000000001,95.4064,175,75
2026-05-09 15:53:47.548,5,0.19,-0.36,-0.57,6.941,63.7718,75.46640000000001,175,75
2026-05-09 15:53:47.548,5,0.1,-0.27,-0.23,-12.679,99.7818,62.6064,175,75
2026-05-09 15:53:47.559,5,0.39,-0.31,-0.04,-26.109,146.8018,64.0964,175,75
2026-05-09 15:53:47.565,5,1.17,-0.61,0.15,-15.839,238.6018,85.77640000000001,175,75
2026-05-09 15:53:47.577,5,1.96,-0.53,2.0,52.781,248.24179999999998,54.5164,175,75
2026-05-09 15:53:47.577,5,2.0,-0.8,2.0,100.781,248.24179999999998,-200.77360000000002,175,75
2026-05-09 15:53:47.601,5,0.24,-0.39,1.74,40.541000000000004,248.24179999999998,-251.7336,175,75
2026-05-09 15:53:47.623,5,-2.0,-0.15,0.92,83.281,248.24179999999998,-196.52360000000002,175,75
2026-05-09 15:53:47.637,5,-2.0,1.26,2.0,-20.999000000000002,35.561800000000005,-139.4836,175,75
2026-05-09 15:53:47.647,5,-2.0,1.52,2.0,-135.15900000000002,-165.1082,-75.72359999999999,175,75
2026-05-09 15:53:47.671,5,-0.13,0.33,2.0,-226.639,-252.0282,164.0164,175,75
2026-05-09 15:53:47.682,5,-0.27,-0.83,1.95,-68.329,-212.9482,248.5364,175,75
2026-05-09 15:53:47.693,5,-1.37,-0.71,2.0,-56.939,-252.0282,248.5364,175,75
2026-05-09 15:53:47.716,5,0.42,-1.14,0.93,-83.679,-252.0282,248.5364,175,75
2026-05-09 15:53:47.716,5,0.2,-1.15,0.36,-73.259,-252.0282,248.5364,175,75
2026-05-09 15:53:47.741,5,1.4,-1.41,-0.71,-79.129,-252.0282,-122.2436,175,75
2026-05-09 15:53:47.754,5,0.43,-1.11,-0.6,-49.229,-109.2882,-251.7336,175,75
2026-05-09 15:53:47.755,5,-0.08,-0.56,-0.26,-21.229000000000003,-37.1382,-251.7336,175,75
2026-05-09 15:53:47.778,5,-0.23,0.15,-0.01,11.721,59.351800000000004,-251.7336,175,75
2026-05-09 15:53:47.792,5,-0.16,0.55,-0.05,3.2009999999999996,94.3518,-251.7336,175,75
2026-05-09 15:53:47.792,5,0.43,0.69,-0.34,-25.049000000000003,122.3318,-251.7336,175,75
2026-05-09 15:53:47.805,5,0.92,0.78,-0.62,-29.729000000000003,155.5118,-251.7336,175,75
2026-05-09 15:53:47.832,5,0.23,0.92,-0.39,-48.079,139.3218,-133.0636,175,75
2026-05-09 15:53:47.843,5,0.14,0.85,0.03,-54.939,64.29180000000001,-22.1236,175,75
2026-05-09 15:53:47.854,5,0.11,-0.12,0.14,-7.808999999999999,30.651799999999998,91.44640000000001,175,75
2026-05-09 15:53:47.881,5,0.05,-0.15,0.04,56.551,19.601799999999997,192.0964,175,75
2026-05-09 15:53:47.888,5,0.18,0.01,-0.0,76.611,6.0518,240.3764,175,75
2026-05-09 15:53:47.901,5,0.5,0.1,0.0,77.381,2.9617999999999998,248.5364,175,75
2026-05-09 15:53:47.949,5,1.4,-0.8,0.81,-9.889,103.90180000000001,179.3364,175,75
2026-05-09 15:53:47.949,5,1.39,-0.97,1.38,19.290999999999997,227.49179999999998,71.8164,175,75
2026-05-09 15:53:47.959,5,2.0,-0.91,2.0,27.241,248.24179999999998,-38.7336,175,75
2026-05-09 15:53:47.970,5,1.72,-0.99,2.0,-17.209000000000003,248.24179999999998,-140.99360000000001,175,75
2026-05-09 15:53:47.983,5,-0.08,-0.92,2.0,-43.009,248.24179999999998,-204.4136,175,75
2026-05-09 15:53:47.983,5,-0.97,-1.06,1.37,-10.609,248.24179999999998,-247.05360000000002,175,75
2026-05-09 15:53:48.007,5,-2.0,-0.72,1.55,69.261,248.24179999999998,-251.7336,175,75
2026-05-09 15:53:48.036,5,-1.49,0.87,2.0,-31.209,-142.6182,-80.47359999999999,175,75
2026-05-09 15:53:48.052,5,-1.02,0.55,2.0,-62.349,-214.93820000000002,-62.6636,175,75
2026-05-09 15:53:48.075,5,-0.15,-0.34,1.06,46.341,-249.43820000000002,129.8964,175,75
2026-05-09 15:53:48.085,5,-0.17,-0.24,0.91,67.221,-252.0282,156.8964,175,75
2026-05-09 15:53:48.095,5,-0.22,-0.12,0.78,70.59100000000001,-252.0282,156.5964,175,75
2026-05-09 15:53:48.112,5,0.11,-0.12,0.51,62.711,-252.0282,138.35639999999998,175,75
2026-05-09 15:53:48.122,5,0.25,-0.18,0.15,57.521,-252.0282,120.6464,175,75
2026-05-09 15:53:48.143,5,1.29,-0.26,-0.96,50.101,-252.0282,39.9364,175,75
2026-05-09 15:53:48.194,5,-0.97,0.05,-0.68,-13.509,-9.4682,-218.99360000000001,175,75
2026-05-09 15:53:48.194,5,-0.88,0.35,-0.51,-37.028999999999996,-86.8982,-218.49360000000001,175,75
2026-05-09 15:53:48.205,5,-0.17,0.49,-0.46,-69.479,-127.2282,-203.4436,175,75
2026-05-09 15:53:48.213,5,0.98,0.58,-0.42,-94.529,-87.2182,-127.94359999999999,175,75
2026-05-09 15:53:48.226,5,0.93,0.51,-0.27,-136.28900000000002,71.4118,23.076400000000003,175,75
2026-05-09 15:53:48.246,5,1.21,0.28,-0.22,-124.259,149.1618,80.2264,175,75
2026-05-09 15:53:48.246,5,1.91,0.12,0.14,-95.15899999999999,248.24179999999998,152.00639999999999,175,75
2026-05-09 15:53:48.270,5,2.0,0.04,2.0,-104.959,98.6118,145.6564,175,75
2026-05-09 15:53:48.280,5,2.0,-0.95,2.0,-115.109,248.24179999999998,14.606399999999999,175,75
2026-05-09 15:53:48.299,5,-0.52,-1.01,1.77,-14.519,248.24179999999998,-94.1336,175,75
2026-05-09 15:53:48.299,5,-1.35,-0.7,0.7,34.821000000000005,248.24179999999998,-178.14360000000002,175,75
2026-05-09 15:53:48.308,5,-2.0,-0.4,0.6,68.501,248.24179999999998,-202.61360000000002,175,75
2026-05-09 15:53:48.318,5,-1.64,0.37,1.62,63.231,136.0118,-83.78359999999999,175,75
2026-05-09 15:53:48.332,5,-1.29,0.79,2.0,9.031,-7.5282,18.1064,175,75
2026-05-09 15:53:48.342,5,-1.34,0.86,2.0,-52.928999999999995,-129.31820000000002,71.94640000000001,175,75
2026-05-09 15:53:48.353,5,-1.02,0.44,2.0,-85.26899999999999,-220.1482,72.71640000000001,175,75
2026-05-09 15:53:48.360,5,-0.45,-0.19,2.0,-71.459,-252.0282,47.916399999999996,175,75
2026-05-09 15:53:48.371,5,0.13,-0.73,2.0,-25.349,-252.0282,20.366400000000002,175,75
2026-05-09 15:53:48.383,5,0.24,-0.77,1.72,18.520999999999997,-252.0282,19.9064,175,75
2026-05-09 15:53:48.383,5,0.69,-0.72,1.23,47.151,-252.0282,27.4864,175,75
2026-05-09 15:53:48.393,5,1.09,-0.51,0.97,71.34100000000001,-252.0282,47.096399999999996,175,75
2026-05-09 15:53:48.405,5,1.01,-0.19,0.78,81.001,-252.0282,50.7564,175,75
2026-05-09 15:53:48.432,5,1.09,0.13,0.66,40.041000000000004,-194.74820000000003,-18.8536,175,75
2026-05-09 15:53:48.436,5,1.03,0.03,0.51,19.051,-113.1382,-57.013600000000004,175,75
2026-05-09 15:53:48.447,5,0.71,-0.04,0.34,12.061,-47.0682,-83.5236,175,75
2026-05-09 15:53:48.459,5,0.44,-0.02,0.27,15.911,-18.8382,-99.4036,175,75
2026-05-09 15:53:48.471,5,0.23,0.09,0.27,22.680999999999997,-15.4682,-114.3736,175,75
2026-05-09 15:53:48.484,5,0.17,0.28,0.27,26.741,-39.6682,-107.6536,175,75
2026-05-09 15:53:48.496,5,0.06,0.27,0.2,24.750999999999998,-52.2082,-93.2936,175,75
2026-05-09 15:53:48.512,5,-0.04,0.2,0.06,28.840999999999998,-62.718199999999996,-84.6236,175,75
2026-05-09 15:53:48.512,5,0.01,0.12,-0.14,41.321000000000005,-77.4082,-63.6336,175,75
2026-05-09 15:53:48.523,5,0.06,0.15,-0.36,57.551,-92.5182,-27.7836,175,75
2026-05-09 15:53:48.536,5,0.14,0.13,-0.52,73.781,-99.5382,19.776400000000002,175,75
2026-05-09 15:53:48.544,5,0.07,0.22,-0.54,97.691,-95.2582,63.53639999999999,175,75
2026-05-09 15:53:48.559,5,-0.08,0.26,-0.65,101.101,-93.70819999999999,95.3664,175,75
2026-05-09 15:53:48.582,5,-0.15,0.0,-0.6,91.301,-96.4082,152.72639999999998,175,75
2026-05-09 15:53:48.615,5,0.6,-0.3,-0.39,21.371,175.18179999999998,67.7964,175,75
2026-05-09 15:53:48.631,5,0.82,-0.35,-0.33,10.821,248.24179999999998,53.8064,175,75
2026-05-09 15:53:48.642,5,1.58,-0.64,-0.12,22.991,248.24179999999998,73.60640000000001,175,75
2026-05-09 15:53:48.653,5,2.0,-0.92,0.73,70.671,248.24179999999998,135.7764,175,75
2026-05-09 15:53:48.666,5,2.0,-0.21,2.0,58.401,248.24179999999998,191.6464,175,75
2026-05-09 15:53:48.666,5,2.0,-0.26,2.0,109.741,248.24179999999998,0.9063999999999999,175,75
2026-05-09 15:53:48.678,5,0.11,0.1,2.0,99.821,248.24179999999998,-229.7536,175,75
2026-05-09 15:53:48.704,5,-1.98,-0.12,1.2,90.771,248.24179999999998,-248.6036,175,75
2026-05-09 15:53:48.727,5,-2.0,1.15,2.0,-28.359,29.0318,-101.44359999999999,175,75
2026-05-09 15:53:48.733,5,-2.0,1.41,2.0,-126.90899999999999,-157.34820000000002,-60.1236,175,75
2026-05-09 15:53:48.759,5,0.54,-0.48,2.0,-142.209,-197.74820000000003,248.5364,175,75
2026-05-09 15:53:48.769,5,-0.55,-0.79,2.0,-60.409,-241.15820000000002,248.5364,175,75
2026-05-09 15:53:48.783,5,0.15,-0.96,1.49,-62.998999999999995,-252.0282,248.5364,175,75
2026-05-09 15:53:48.806,5,0.46,-1.03,1.02,-51.458999999999996,-252.0282,248.5364,175,75
2026-05-09 15:53:48.813,5,0.8,-0.8,0.21,-47.099,-252.0282,168.2764,175,75
2026-05-09 15:53:48.831,5,1.36,-0.83,-0.23,-74.449,-252.0282,-75.4236,175,75
2026-05-09 15:53:48.853,5,0.12,-0.51,-0.17,-53.689,-49.9782,-245.30360000000002,175,75
2026-05-09 15:53:48.865,5,-0.22,-0.23,-0.09,-39.708999999999996,-0.7182,-251.7336,175,75
2026-05-09 15:53:48.865,5,-0.37,0.06,-0.12,-30.709000000000003,27.5718,-251.7336,175,75
2026-05-09 15:53:48.876,5,-0.38,0.29,-0.21,-33.049,37.3218,-251.7336,175,75
2026-05-09 15:53:48.892,5,0.05,0.33,-0.47,-37.019,36.5518,-251.7336,175,75
2026-05-09 15:53:48.938,5,0.19,0.29,0.01,-56.608999999999995,144.90179999999998,-43.8036,175,75
2026-05-09 15:53:48.978,5,0.05,0.21,0.22,30.180999999999997,61.351800000000004,199.8064,175,75
2026-05-09 15:53:48.989,5,0.18,0.13,0.25,58.571000000000005,-6.8682,248.5364,175,75
2026-05-09 15:53:49.002,5,0.31,0.12,0.33,50.611000000000004,-65.2482,248.5364,175,75
2026-05-09 15:53:49.012,5,0.72,-0.08,0.45,12.621,-154.24820000000003,248.5364,175,75
2026-05-09 15:53:49.024,5,1.79,-0.56,0.52,-10.799,-123.6482,248.5364,175,75
2026-05-09 15:53:49.024,5,1.98,-0.87,0.62,1.361,21.8018,236.72639999999998,175,75
2026-05-09 15:53:49.035,5,1.95,-0.99,1.31,34.831,197.74179999999998,121.5064,175,75
2026-05-09 15:53:49.062,5,1.68,-0.77,2.0,10.421,248.24179999999998,-42.903600000000004,175,75
2026-05-09 15:53:49.072,5,0.27,-0.76,2.0,-53.739,248.24179999999998,-102.86359999999999,175,75
2026-05-09 15:53:49.084,5,-1.45,-1.13,1.48,-22.439,248.24179999999998,-220.67360000000002,175,75
2026-05-09 15:53:49.095,5,-2.0,-1.06,1.65,14.211,248.24179999999998,-251.7336,175,75
2026-05-09 15:53:49.106,5,-2.0,-0.83,2.0,47.831,229.9818,-251.7336,175,75
2026-05-09 15:53:49.117,5,-1.52,0.46,2.0,15.251,-10.7782,-251.7336,175,75
2026-05-09 15:53:49.129,5,-1.8,0.33,2.0,-30.579,-188.12820000000002,-157.9636,175,75
2026-05-09 15:53:49.140,5,-1.41,0.52,2.0,-68.499,-252.0282,-118.64359999999999,175,75
2026-05-09 15:53:49.154,5,-0.45,-0.14,1.81,-27.979000000000003,-252.0282,25.366400000000002,175,75
2026-05-09 15:53:49.165,5,-0.56,-0.34,1.26,54.281,-252.0282,105.91640000000001,175,75
2026-05-09 15:53:49.176,5,-0.62,-0.29,0.94,102.261,-252.0282,131.94639999999998,175,75
2026-05-09 15:53:49.186,5,-0.36,-0.23,0.59,124.681,-252.0282,132.5164,175,75
2026-05-09 15:53:49.205,5,-0.16,-0.06,0.13,129.511,-252.0282,143.1864,175,75
2026-05-09 15:53:49.217,5,0.75,-0.14,-0.63,130.22099999999998,-252.0282,146.6564,175,75
2026-05-09 15:53:49.217,5,2.0,0.38,-2.0,162.96099999999998,-252.0282,248.5364,175,75
2026-05-09 15:53:49.224,5,1.69,0.52,-2.0,198.69099999999997,21.1818,172.22639999999998,175,75
2026-05-09 15:53:49.237,5,-1.44,0.0,-1.55,131.261,61.7918,-42.223600000000005,175,75
2026-05-09 15:53:49.243,5,-2.0,-0.1,-0.5,92.381,-14.008199999999999,-141.5936,175,75
2026-05-09 15:53:49.272,5,-1.47,-0.1,-0.33,32.371,-202.68820000000002,-145.2836,175,75
2026-05-09 15:53:49.284,5,0.63,0.2,-1.0,-60.799,-212.50820000000002,-31.5736,175,75
2026-05-09 15:53:49.295,5,1.08,0.27,-1.13,-90.249,-57.3882,18.5864,175,75
2026-05-09 15:53:49.309,5,0.33,0.37,-0.86,-97.579,86.1818,10.6664,175,75
2026-05-09 15:53:49.315,5,0.08,0.29,-0.45,-110.15899999999999,185.03179999999998,-41.5536,175,75
2026-05-09 15:53:49.335,5,0.7,0.41,-0.33,-116.509,248.24179999999998,-72.8536,175,75
2026-05-09 15:53:49.357,5,2.0,0.4,0.19,-130.479,248.24179999999998,13.4264,175,75
2026-05-09 15:53:49.388,5,-0.44,-1.27,1.78,-43.839,248.24179999999998,7.5364,175,75
2026-05-09 15:53:49.429,5,-2.0,-0.69,1.29,57.321000000000005,210.68179999999998,-163.5436,175,75
2026-05-09 15:53:49.429,5,-1.35,0.08,2.0,39.641000000000005,10.0418,-142.1536,175,75
2026-05-09 15:53:49.466,5,-1.16,0.2,2.0,17.680999999999997,-166.18820000000002,-64.7636,175,75
2026-05-09 15:53:49.466,5,-0.86,0.23,2.0,10.561,-252.0282,-48.3236,175,75
2026-05-09 15:53:49.477,5,-0.17,0.01,2.0,8.110999999999999,-252.0282,-34.3236,175,75
2026-05-09 15:53:49.477,5,0.16,-0.16,2.0,27.711,-252.0282,-1.3736000000000002,175,75
2026-05-09 15:53:49.490,5,0.34,-0.15,1.79,43.661,-252.0282,23.0364,175,75
2026-05-09 15:53:49.500,5,0.66,-0.14,1.58,48.601,-252.0282,8.4264,175,75
2026-05-09 15:53:49.512,5,1.25,0.01,1.01,54.291000000000004,-252.0282,-31.8436,175,75
2026-05-09 15:53:49.523,5,1.29,0.15,0.84,53.181000000000004,-213.8282,-55.903600000000004,175,75
2026-05-09 15:53:49.533,5,1.33,0.23,0.8,42.241,-131.8882,-72.19359999999999,175,75
2026-05-09 15:53:49.543,5,1.1,0.22,0.67,29.680999999999997,-49.4882,-81.1236,175,75
2026-05-09 15:53:49.547,5,0.91,0.2,0.59,24.281,2.0318,-81.55359999999999,175,75
2026-05-09 15:53:49.572,5,0.58,0.31,0.55,25.871,27.6118,-62.933600000000006,175,75
2026-05-09 15:53:49.582,5,0.46,0.32,0.53,29.211,13.9618,-45.7736,175,75
2026-05-09 15:53:49.582,5,0.31,0.3,0.49,32.391,-5.3182,-23.043599999999998,175,75
2026-05-09 15:53:49.596,5,0.14,0.24,0.4,36.931000000000004,-24.0382,-4.3936,175,75
2026-05-09 15:53:49.609,5,0.01,0.18,0.31,43.321000000000005,-39.868199999999995,7.606399999999999,175,75
2026-05-09 15:53:49.620,5,-0.09,0.12,0.2,49.761,-55.4882,14.646399999999998,175,75
2026-05-09 15:53:49.630,5,-0.14,0.06,0.09,54.751000000000005,-69.8282,19.006400000000003,175,75
2026-05-09 15:53:49.642,5,-0.11,-0.03,-0.04,62.581,-83.98819999999999,28.9964,175,75
2026-05-09 15:53:49.663,5,0.04,-0.02,-0.52,81.781,-115.7482,81.5364,175,75
2026-05-09 15:53:49.680,5,0.11,0.23,-0.88,103.84100000000001,-124.6382,111.2564,175,75
2026-05-09 15:53:49.692,5,-0.02,0.05,-1.02,92.471,-106.2982,118.7364,175,75
2026-05-09 15:53:49.703,5,-0.36,-0.07,-0.73,69.031,-110.09819999999999,101.55640000000001,175,75
2026-05-09 15:53:49.731,5,0.12,-0.36,-0.35,12.691,-50.5282,97.05640000000001,175,75
2026-05-09 15:53:49.742,5,0.27,-0.45,-0.38,1.4209999999999998,37.5418,61.846399999999996,175,75
2026-05-09 15:53:49.776,5,2.0,-0.78,0.53,9.551,248.24179999999998,39.2864,175,75
2026-05-09 15:53:49.787,5,2.0,0.25,2.0,11.431000000000001,248.24179999999998,57.4964,175,75
2026-05-09 15:53:49.799,5,2.0,0.09,2.0,5.141,248.24179999999998,-53.1036,175,75
2026-05-09 15:53:49.809,5,2.0,0.21,2.0,-51.289,248.24179999999998,-173.2236,175,75
2026-05-09 15:53:49.822,5,0.24,-0.86,2.0,-46.818999999999996,248.24179999999998,-199.4136,175,75
2026-05-09 15:53:49.845,5,-2.0,-0.67,0.73,63.431000000000004,248.24179999999998,-118.9036,175,75
2026-05-09 15:53:49.866,5,-2.0,1.13,2.0,-141.359,-252.0282,-7.6436,175,75
2026-05-09 15:53:49.877,5,-1.23,0.5,2.0,-194.00900000000001,-252.0282,10.5964,175,75
2026-05-09 15:53:49.902,5,0.04,-0.98,2.0,-88.51899999999999,-252.0282,139.3464,175,75
2026-05-09 15:53:49.902,5,-0.13,-0.95,1.65,-44.869,-252.0282,202.0264,175,75
2026-05-09 15:53:49.926,5,0.68,-0.73,0.61,4.811,-252.0282,248.5364,175,75
2026-05-09 15:53:49.934,5,0.93,-0.52,0.34,9.251,-252.0282,236.5164,175,75
2026-05-09 15:53:49.954,5,1.94,-0.22,0.11,-21.609,-252.0282,105.74640000000001,175,75
2026-05-09 15:53:49.954,5,1.85,-0.41,-0.3,-59.949,-238.1982,-64.6636,175,75
2026-05-09 15:53:49.967,5,0.83,-0.49,-0.3,-64.629,-88.5882,-136.92360000000002,175,75
2026-05-09 15:53:49.983,5,0.29,-0.34,-0.16,-53.899,-22.7882,-159.9036,175,75
2026-05-09 15:53:49.995,5,-0.08,-0.19,-0.12,-34.969,19.6318,-183.7636,175,75
2026-05-09 15:53:49.995,5,-0.27,0.07,-0.21,-20.209000000000003,43.741800000000005,-218.0336,175,75
2026-05-09 15:53:50.007,5,-0.21,0.26,-0.38,-13.949,58.171800000000005,-251.7336,175,75
2026-05-09 15:53:50.022,5,0.14,-0.03,0.1,17.090999999999998,77.8618,-251.7336,175,75
2026-05-09 15:53:50.032,5,0.3,0.59,-0.57,7.321,97.9518,-251.7336,175,75
2026-05-09 15:53:50.042,5,0.3,0.66,-0.56,1.141,108.5218,-211.6636,175,75
2026-05-09 15:53:50.042,5,0.01,0.71,-0.43,-11.889,98.6818,-166.3436,175,75
2026-05-09 15:53:50.059,5,-0.05,0.6,-0.22,-26.419,76.6318,-116.2436,175,75
2026-05-09 15:53:50.072,5,-0.01,0.39,-0.11,-28.929000000000002,66.5818,-55.5736,175,75
2026-05-09 15:53:50.082,5,-0.03,0.25,-0.08,-14.759,63.9718,-2.9036,175,75
2026-05-09 15:53:50.082,5,0.0,0.21,-0.09,9.071,58.1818,49.7464,175,75
2026-05-09 15:53:50.105,5,0.16,0.25,-0.05,51.461,33.2618,173.9664,175,75
2026-05-09 15:53:50.122,5,0.29,0.21,0.02,60.781,31.771799999999995,220.7164,175,75
2026-05-09 15:53:50.133,5,0.95,0.02,0.16,70.751,63.4118,248.5364,175,75
2026-05-09 15:53:50.145,5,1.11,-0.06,0.46,59.891000000000005,53.741800000000005,248.5364,175,75
2026-05-09 15:53:50.156,5,1.88,-0.77,1.23,35.781,37.0118,248.5364,175,75
2026-05-09 15:53:50.168,5,2.0,-1.52,1.77,42.481,134.4118,180.32639999999998,175,75
2026-05-09 15:53:50.177,5,2.0,-1.32,2.0,44.161,248.24179999999998,-3.8336000000000006,175,75
2026-05-09 15:53:50.195,5,0.22,-1.04,2.0,-47.769,248.24179999999998,-152.0636,175,75
2026-05-09 15:53:50.232,5,-2.0,-0.78,1.99,43.301,248.24179999999998,-251.7336,175,75
2026-05-09 15:53:50.232,5,-2.0,-0.42,2.0,43.141000000000005,146.0418,-251.7336,175,75
2026-05-09 15:53:50.245,5,-1.94,0.5,2.0,-2.569,-68.4982,-251.7336,175,75
2026-05-09 15:53:50.272,5,-1.2,0.39,2.0,-71.579,-252.0282,-80.7436,175,75
2026-05-09 15:53:50.272,5,-0.77,0.05,2.0,-37.979,-252.0282,-26.113599999999998,175,75
2026-05-09 15:53:50.284,5,-0.7,-0.26,1.71,41.231,-252.0282,50.6164,175,75
2026-05-09 15:53:50.299,5,-0.76,-0.28,1.35,86.471,-252.0282,106.7064,175,75
2026-05-09 15:53:50.310,5,-0.65,-0.27,1.0,107.331,-252.0282,120.5764,175,75
2026-05-09 15:53:50.322,5,-0.43,-0.15,0.68,109.931,-252.0282,119.2564,175,75
2026-05-09 15:53:50.335,5,-0.1,-0.08,0.09,103.741,-252.0282,113.8464,175,75
2026-05-09 15:53:50.346,5,2.0,-0.34,-2.0,85.791,-252.0282,78.1764,175,75
2026-05-09 15:53:50.370,5,-0.9,-0.33,-1.42,48.461,60.1618,-199.6036,175,75
2026-05-09 15:53:50.380,5,-1.86,-0.38,-0.75,32.841,-75.1782,-157.0636,175,75
2026-05-09 15:53:50.391,5,-1.73,-0.19,-0.31,14.041,-206.9282,-114.6236,175,75
2026-05-09 15:53:50.402,5,-1.56,0.03,-0.21,-28.609,-252.0282,-86.75359999999999,175,75
2026-05-09 15:53:50.402,5,-1.12,0.27,-0.47,-86.349,-252.0282,-88.78359999999999,175,75
2026-05-09 15:53:50.414,5,0.7,0.27,-1.08,-112.719,-252.0282,-72.0636,175,75
2026-05-09 15:53:50.428,5,1.37,0.62,-1.31,-108.649,-63.118199999999995,-22.293599999999998,175,75
2026-05-09 15:53:50.439,5,0.23,0.85,-0.7,-128.139,95.7418,-32.2236,175,75
2026-05-09 15:53:50.452,5,0.27,0.79,-0.62,-145.949,218.8218,-99.7136,175,75
2026-05-09 15:53:50.452,5,0.77,0.64,-0.49,-148.62900000000002,248.24179999999998,-126.8136,175,75
2026-05-09 15:53:50.479,5,1.69,1.18,0.19,-214.28900000000002,248.24179999999998,-70.78359999999999,175,75
2026-05-09 15:53:50.491,5,2.0,2.0,2.0,-249.089,248.24179999999998,248.5364,175,75
2026-05-09 15:53:50.494,5,-0.12,1.0,2.0,-222.989,-12.158199999999999,248.5364,175,75
2026-05-09 15:53:50.505,5,2.0,-1.54,2.0,-110.939,168.2318,248.5364,175,75
2026-05-09 15:53:50.522,5,0.51,-0.98,2.0,-76.859,248.24179999999998,116.1564,175,75
2026-05-09 15:53:50.532,5,-0.19,-0.52,2.0,-63.51899999999999,248.24179999999998,54.386399999999995,175,75
2026-05-09 15:53:50.532,5,-1.42,-1.49,1.42,-17.429000000000002,248.24179999999998,37.486399999999996,175,75
2026-05-09 15:53:50.555,5,-2.0,-1.62,1.91,43.751000000000005,59.961800000000004,-82.28359999999999,175,75
2026-05-09 15:53:50.566,5,-2.0,-1.28,2.0,88.191,-103.7782,-195.0136,175,75
2026-05-09 15:53:50.576,5,-1.53,-0.71,2.0,106.011,-212.9582,-251.7336,175,75
2026-05-09 15:53:50.587,5,-0.0,0.19,2.0,102.101,-252.0282,-251.7336,175,75
2026-05-09 15:53:50.598,5,1.08,0.64,2.0,106.48100000000001,-252.0282,-142.67360000000002,175,75
2026-05-09 15:53:50.611,5,1.03,0.78,1.68,103.911,-252.0282,-84.28359999999999,175,75
2026-05-09 15:53:50.612,5,1.36,0.72,1.32,85.001,-252.0282,-93.1336,175,75
2026-05-09 15:53:50.626,5,1.79,0.55,0.97,49.261,-252.0282,-62.6636,175,75
2026-05-09 15:53:50.641,5,2.0,0.39,0.56,33.941,-212.1182,26.076400000000003,175,75
2026-05-09 15:53:50.641,5,1.88,0.46,0.51,27.871,-105.9182,67.8964,175,75
2026-05-09 15:53:50.655,5,1.18,0.32,0.59,12.781,-4.8382000000000005,43.3964,175,75
2026-05-09 15:53:50.667,5,0.71,0.14,0.65,-0.5090000000000001,66.7718,12.3164,175,75
2026-05-09 15:53:50.675,5,0.41,0.04,0.66,-6.129,102.4518,-20.313599999999997,175,75
2026-05-09 15:53:50.691,5,0.3,0.03,0.73,-1.4589999999999999,109.51180000000001,-60.7736,175,75
2026-05-09 15:53:50.693,5,0.32,0.09,0.81,6.881,95.5518,-87.8136,175,75
2026-05-09 15:53:50.703,5,0.33,0.14,0.79,16.521,62.5818,-79.1236,175,75
2026-05-09 15:53:50.714,5,0.2,0.19,0.74,30.340999999999998,21.3918,-46.793600000000005,175,75
2026-05-09 15:53:50.726,5,0.02,0.26,0.71,42.101,-20.6182,-15.9936,175,75
2026-05-09 15:53:50.737,5,-0.13,0.28,0.65,45.131,-56.1982,1.0763999999999998,175,75
2026-05-09 15:53:50.752,5,-0.21,0.22,0.5,47.941,-89.0382,12.1564,175,75
2026-05-09 15:53:50.765,5,-0.23,0.17,0.33,53.761,-121.4182,22.2264,175,75
2026-05-09 15:53:50.794,5,0.33,0.04,-0.84,109.881,-155.3882,121.6764,175,75
2026-05-09 15:53:50.805,5,0.27,0.42,-1.32,153.62099999999998,-152.6182,175.7764,175,75
2026-05-09 15:53:50.830,5,0.05,0.21,-1.05,156.301,-131.12820000000002,210.9364,175,75
2026-05-09 15:53:50.842,5,-0.21,-0.04,-0.88,128.131,-116.5482,186.1864,175,75
2026-05-09 15:53:50.845,5,-0.21,-0.31,-0.69,101.361,-93.4982,159.35639999999998,175,75
2026-05-09 15:53:50.872,5,0.08,-0.49,-0.41,60.481,29.741799999999998,100.13640000000001,175,75
2026-05-09 15:53:50.883,5,0.03,-0.47,-0.28,32.471000000000004,105.6418,61.456399999999995,175,75
2026-05-09 15:53:50.894,5,0.68,-0.71,-0.15,21.000999999999998,248.24179999999998,6.1364,175,75
2026-05-09 15:53:50.909,5,1.72,-1.31,0.08,74.251,248.24179999999998,-16.7136,175,75
2026-05-09 15:53:50.922,5,2.0,-0.05,-0.17,100.791,248.24179999999998,-13.7836,175,75
2026-05-09 15:53:50.922,5,0.15,-0.41,2.0,88.511,248.24179999999998,-159.2536,175,75
2026-05-09 15:53:50.943,5,0.04,-0.13,2.0,-119.369,248.24179999999998,-251.7336,175,75
2026-05-09 15:53:50.954,5,-1.41,-0.54,1.79,-90.469,248.24179999999998,-251.7336,175,75
2026-05-09 15:53:50.976,5,-2.0,-0.07,1.99,-7.699,198.34179999999998,-151.33360000000002,175,75
2026-05-09 15:53:50.995,5,-2.0,0.54,2.0,-25.159000000000002,-58.968199999999996,-50.9136,175,75
2026-05-09 15:53:50.995,5,-2.0,0.93,2.0,-79.389,-244.18820000000002,2.9163999999999994,175,75
2026-05-09 15:53:51.019,5,-0.12,0.14,2.0,-102.339,-252.0282,212.3764,175,75
2026-05-09 15:53:51.032,5,-0.35,-0.19,2.0,-53.519,-252.0282,248.5364,175,75
2026-05-09 15:53:51.032,5,-0.29,-0.39,1.91,-66.04899999999999,-252.0282,248.5364,175,75
2026-05-09 15:53:51.044,5,0.7,-0.64,1.18,-75.599,-252.0282,248.5364,175,75
2026-05-09 15:53:51.069,5,2.0,-1.03,-0.12,-36.239,-252.0282,248.5364,175,75
2026-05-09 15:53:51.080,5,2.0,-1.05,-0.56,-34.638999999999996,-252.0282,51.3564,175,75
2026-05-09 15:53:51.092,5,0.82,-0.99,-0.35,-21.599,-103.70819999999999,-104.6736,175,75
2026-05-09 15:53:51.092,5,0.21,-0.84,0.03,13.181000000000001,-10.1282,-179.6836,175,75
2026-05-09 15:53:51.106,5,-0.2,-0.59,0.18,56.001000000000005,50.601800000000004,-225.9436,175,75
2026-05-09 15:53:51.131,5,-0.67,-0.12,0.12,112.031,87.7718,-251.7336,175,75
2026-05-09 15:53:51.131,5,-0.68,0.09,0.01,117.901,75.9218,-251.7336,175,75
2026-05-09 15:53:51.154,5,0.2,-0.07,0.19,109.491,9.331800000000001,-251.7336,175,75
2026-05-09 15:53:51.164,5,0.9,0.75,-0.94,75.381,1.1518000000000002,-139.2536,175,75
2026-05-09 15:53:51.185,5,0.0,0.81,-0.72,16.991,-55.298199999999994,96.9064,175,75
2026-05-09 15:53:51.196,5,-0.1,0.45,-0.47,-9.649,-71.0382,135.4564,175,75
2026-05-09 15:53:51.208,5,-0.13,0.18,-0.32,-18.639000000000003,-59.0982,143.8464,175,75
2026-05-09 15:53:51.222,5,0.01,0.04,-0.24,-10.949,-21.328200000000002,140.04639999999998,175,75
2026-05-09 15:53:51.222,5,0.33,0.02,-0.16,3.341,39.281800000000004,137.7864,175,75
2026-05-09 15:53:51.254,5,0.71,0.09,-0.04,21.581,184.21179999999998,169.5164,175,75
2026-05-09 15:53:51.254,5,0.79,0.07,0.07,24.721,248.24179999999998,188.6464,175,75
2026-05-09 15:53:51.264,5,0.72,0.14,0.3,21.610999999999997,248.24179999999998,200.1164,175,75
2026-05-09 15:53:51.274,5,0.25,-0.14,1.62,25.461,103.8418,176.4664,175,75
2026-05-09 15:53:51.286,5,1.58,-0.77,2.0,-4.229,17.761799999999997,2.8663999999999996,175,75
2026-05-09 15:53:51.303,5,1.99,-0.47,2.0,-25.349,109.7418,-101.2936,175,75
2026-05-09 15:53:51.323,5,2.0,-1.02,2.0,-147.699,248.24179999999998,59.3764,175,75
2026-05-09 15:53:51.349,5,-0.17,-1.53,2.0,-85.399,248.24179999999998,33.0164,175,75
2026-05-09 15:53:51.350,5,-1.31,-1.51,1.15,-9.568999999999999,248.24179999999998,30.0364,175,75
2026-05-09 15:53:51.359,5,-2.0,-1.08,1.2,47.581,248.24179999999998,-35.583600000000004,175,75
2026-05-09 15:53:51.383,5,-2.0,-0.1,2.0,37.271,14.2018,-195.3836,175,75
2026-05-09 15:53:51.413,5,-0.7,0.11,2.0,-24.149,-252.0282,-251.7336,175,75
2026-05-09 15:53:51.423,5,0.21,0.12,0.98,80.151,-252.0282,-54.153600000000004,175,75
2026-05-09 15:53:51.434,5,0.11,0.19,0.72,79.971,-252.0282,-10.7936,175,75
2026-05-09 15:53:51.459,5,0.65,0.18,-0.04,71.421,-252.0282,107.6864,175,75
2026-05-09 15:53:51.472,5,2.0,0.13,-1.0,73.051,-252.0282,192.00639999999999,175,75
2026-05-09 15:53:51.472,5,2.0,-0.99,-0.68,143.65099999999998,-192.22820000000002,248.5364,175,75
2026-05-09 15:53:51.483,5,1.46,0.51,-2.0,161.09099999999998,-25.0882,248.5364,175,75
2026-05-09 15:53:51.495,5,-0.25,-0.16,-1.84,113.131,59.5218,125.7864,175,75
2026-05-09 15:53:51.510,5,-1.16,-0.61,-1.12,67.121,41.6518,-4.4136,175,75
2026-05-09 15:53:51.520,5,-1.4,-0.52,-0.67,47.081,-17.778200000000002,-71.1236,175,75
2026-05-09 15:53:51.527,5,-1.49,-0.18,-0.3,10.801,-78.1682,-121.16359999999999,175,75
2026-05-09 15:53:51.540,5,-1.27,0.23,-0.13,-53.839,-119.95819999999999,-188.5736,175,75
2026-05-09 15:53:51.552,5,-0.08,0.35,-0.26,-118.29899999999999,-103.3982,-251.7336,175,75
2026-05-09 15:53:51.552,5,1.32,0.45,-0.52,-155.709,10.761800000000001,-251.7336,175,75
2026-05-09 15:53:51.582,5,1.06,0.41,-0.59,-174.769,248.24179999999998,-149.14360000000002,175,75
2026-05-09 15:53:51.582,5,0.82,0.48,-0.36,-164.49900000000002,248.24179999999998,-127.00359999999999,175,75
2026-05-09 15:53:51.599,5,0.93,0.66,0.19,-143.15900000000002,248.24179999999998,-94.6036,175,75
2026-05-09 15:53:51.609,5,1.53,1.46,1.72,-103.149,138.77179999999998,99.38640000000001,175,75
2026-05-09 15:53:51.620,5,2.0,1.98,2.0,-164.30900000000003,69.3918,230.9664,175,75
2026-05-09 15:53:51.624,5,2.0,0.84,2.0,-204.139,248.24179999999998,188.32639999999998,175,75
2026-05-09 15:53:51.635,5,2.0,-0.46,2.0,-173.639,248.24179999999998,166.9264,175,75
2026-05-09 15:53:51.648,5,0.18,-1.17,2.0,-116.919,248.24179999999998,167.8464,175,75
2026-05-09 15:53:51.661,5,-1.25,-1.19,1.09,-36.009,248.24179999999998,138.2464,175,75
2026-05-09 15:53:51.668,5,-2.0,-1.47,1.58,35.481,248.24179999999998,93.66640000000001,175,75
2026-05-09 15:53:51.682,5,-2.0,-1.12,1.9,61.671,96.37180000000001,7.7264,175,75
2026-05-09 15:53:51.696,5,-2.0,-0.41,2.0,82.801,-252.0282,-244.8836,175,75
2026-05-09 15:53:51.709,5,-1.07,-0.04,2.0,91.241,-252.0282,-251.7336,175,75
2026-05-09 15:53:51.733,5,1.21,0.9,1.25,117.711,-252.0282,-164.9336,175,75
2026-05-09 15:53:51.746,5,2.0,0.81,0.79,91.151,-252.0282,-111.00359999999999,175,75
2026-05-09 15:53:51.778,5,1.93,1.08,0.27,80.031,-149.25820000000002,206.5664,175,75
2026-05-09 15:53:51.791,5,1.11,0.71,0.34,44.231,-54.4982,198.5964,175,75
2026-05-09 15:53:51.791,5,0.75,0.25,0.33,25.070999999999998,20.1818,163.5364,175,75
2026-05-09 15:53:51.804,5,0.52,0.01,0.36,25.200999999999997,67.2218,126.6264,175,75
2026-05-09 15:53:51.814,5,0.26,-0.12,0.67,46.031,77.8918,38.8764,175,75
2026-05-09 15:53:51.841,5,-0.03,-0.03,0.67,45.251000000000005,41.5518,-41.3236,175,75
2026-05-09 15:53:51.851,5,-0.1,-0.0,0.64,41.511,25.6318,-69.7436,175,75
2026-05-09 15:53:51.862,5,-0.14,-0.0,0.57,38.411,17.0218,-85.4036,175,75
2026-05-09 15:53:51.882,5,-0.25,-0.03,0.29,48.921,-16.5082,-69.14359999999999,175,75
2026-05-09 15:53:51.910,5,-0.46,-0.07,-0.17,70.061,-87.48819999999999,-32.3836,175,75
2026-05-09 15:53:51.910,5,-0.35,-0.08,-0.4,82.601,-140.75820000000002,6.5364,175,75
2026-05-09 15:53:51.920,5,-0.09,-0.57,0.14,114.281,-190.4482,62.276399999999995,175,75
2026-05-09 15:53:51.933,5,0.23,-0.23,-0.74,125.991,-227.1782,131.3164,175,75
2026-05-09 15:53:51.933,5,0.57,-0.12,-1.08,149.22099999999998,-236.87820000000002,230.22639999999998,175,75
2026-05-09 15:53:51.953,5,0.91,0.02,-1.05,143.581,-182.90820000000002,248.5364,175,75
2026-05-09 15:53:51.963,5,0.12,-0.3,-0.51,67.991,20.511799999999997,142.50639999999999,175,75
2026-05-09 15:53:51.975,5,-0.07,-0.4,-0.15,41.171,66.5918,123.77640000000001,175,75
2026-05-09 15:53:51.988,5,0.03,-0.46,0.08,24.551,119.3018,116.58640000000001,175,75
2026-05-09 15:53:52.002,5,0.4,-0.46,0.25,12.291,202.40179999999998,103.2864,175,75
2026-05-09 15:53:52.013,5,1.95,-0.68,0.76,51.101,248.24179999999998,28.4864,175,75
2026-05-09 15:53:52.030,5,-0.3,-0.96,2.0,38.781,248.24179999999998,-251.7336,175,75
2026-05-09 15:53:52.042,5,2.0,0.62,2.0,-17.719,248.24179999999998,-251.7336,175,75
2026-05-09 15:53:52.042,5,2.0,0.84,2.0,-197.609,248.24179999999998,-251.7336,175,75
2026-05-09 15:53:52.055,5,0.35,-0.32,2.0,-167.889,248.24179999999998,-251.7336,175,75
2026-05-09 15:53:52.082,5,-2.0,-0.52,1.47,-21.739,248.24179999999998,-182.0136,175,75
2026-05-09 15:53:52.095,5,-2.0,0.68,2.0,-11.209,-38.3582,26.346400000000003,175,75
2026-05-09 15:53:52.112,5,-2.0,0.92,2.0,-70.709,-189.6382,98.8664,175,75
2026-05-09 15:53:52.118,5,-1.07,0.55,2.0,-112.129,-252.0282,181.22639999999998,175,75
2026-05-09 15:53:52.132,5,-0.74,-0.2,2.0,-94.689,-252.0282,248.5364,175,75
2026-05-09 15:53:52.146,5,-0.31,-0.51,2.0,-82.439,-252.0282,248.5364,175,75
2026-05-09 15:53:52.146,5,0.45,-0.68,1.6,-64.419,-252.0282,248.5364,175,75
2026-05-09 15:53:52.159,5,0.93,-0.73,0.94,-38.388999999999996,-252.0282,248.5364,175,75
2026-05-09 15:53:52.209,5,0.11,-0.52,0.35,-31.319,31.3218,-219.0136,175,75
2026-05-09 15:53:52.222,5,-0.37,-0.25,0.33,-4.079,71.62180000000001,-244.7136,175,75
2026-05-09 15:53:52.222,5,-0.65,-0.05,0.25,8.281,84.1618,-251.7336,175,75
2026-05-09 15:53:52.233,5,-0.81,0.16,0.1,12.181000000000001,77.2118,-251.7336,175,75
2026-05-09 15:53:52.282,5,1.04,0.86,-0.91,27.511,-44.4882,-81.83359999999999,175,75
2026-05-09 15:53:52.312,5,0.12,0.26,-0.32,-4.239,-40.4482,105.8264,175,75
2026-05-09 15:53:52.338,5,0.27,0.06,-0.11,49.741,83.5818,182.3364,175,75
2026-05-09 15:53:52.371,5,1.04,0.11,0.12,64.711,214.06179999999998,248.5364,175,75
2026-05-09 15:53:52.383,5,1.0,0.12,0.9,36.981,121.3318,248.5364,175,75
2026-05-09 15:53:52.395,5,1.33,-1.34,1.96,36.071000000000005,27.1118,232.0964,175,75
2026-05-09 15:53:52.395,5,1.59,-1.31,1.85,29.741,115.0618,15.846400000000001,175,75
2026-05-09 15:53:52.421,5,2.0,-0.25,2.0,-6.689,248.24179999999998,-97.44359999999999,175,75
2026-05-09 15:53:52.445,5,-0.11,-0.84,2.0,-62.278999999999996,248.24179999999998,-76.05359999999999,175,75
2026-05-09 15:53:52.458,5,-1.15,-0.87,1.79,-13.809,248.24179999999998,-48.0936,175,75
2026-05-09 15:53:52.471,5,-2.0,-0.71,1.86,23.151,248.24179999999998,-59.3536,175,75
2026-05-09 15:53:52.488,5,-2.0,-0.17,2.0,-8.479,-31.778200000000002,-113.0936,175,75
2026-05-09 15:53:52.499,5,-1.83,-0.1,2.0,-32.219,-192.81820000000002,-134.17360000000002,175,75
2026-05-09 15:53:52.511,5,-1.12,-0.13,2.0,-34.678999999999995,-252.0282,-150.7936,175,75
2026-05-09 15:53:52.511,5,-0.56,-0.3,2.0,-8.459,-252.0282,-157.0936,175,75
2026-05-09 15:53:52.522,5,-0.37,-0.21,1.55,41.031,-252.0282,-149.08360000000002,175,75
2026-05-09 15:53:52.533,5,-0.17,0.12,0.83,69.721,-252.0282,-106.2936,175,75
2026-05-09 15:53:52.551,5,-0.15,0.29,0.57,60.131,-252.0282,-105.8436,175,75
2026-05-09 15:53:52.564,5,0.18,0.36,0.05,21.180999999999997,-252.0282,-72.3436,175,75
2026-05-09 15:53:52.597,5,0.21,0.59,-1.78,71.581,21.941799999999997,165.6864,175,75
2026-05-09 15:53:52.620,5,-1.54,-0.26,-0.62,-10.379,-48.438199999999995,-58.7136,175,75
2026-05-09 15:53:52.632,5,-1.73,-0.28,-0.52,-13.129,-129.1182,-118.25359999999999,175,75
2026-05-09 15:53:52.648,5,-1.55,-0.13,-0.51,-25.019000000000002,-207.4182,-163.7636,175,75
2026-05-09 15:53:52.648,5,-0.48,0.36,-0.43,-68.15899999999999,-220.5782,-205.1536,175,75
2026-05-09 15:53:52.671,5,1.72,0.83,-0.66,-153.869,78.1618,-140.5636,175,75
2026-05-09 15:53:52.683,5,0.91,0.69,-0.42,-189.209,224.2218,-115.80359999999999,175,75
2026-05-09 15:53:52.696,5,0.74,0.62,-0.34,-206.15900000000002,248.24179999999998,-131.39360000000002,175,75
2026-05-09 15:53:52.696,5,1.36,0.53,-0.17,-206.919,248.24179999999998,-116.25359999999999,175,75
2026-05-09 15:53:52.710,5,2.0,1.15,0.81,-152.53900000000002,248.24179999999998,100.10640000000001,175,75
2026-05-09 15:53:52.736,5,0.98,0.8,2.0,-108.789,7.8718,248.5364,175,75
2026-05-09 15:53:52.736,5,2.0,-0.14,2.0,-107.059,248.24179999999998,61.7264,175,75
2026-05-09 15:53:52.746,5,1.85,-1.09,2.0,-80.039,248.24179999999998,-39.9636,175,75
2026-05-09 15:53:52.770,5,-1.68,-1.03,0.52,-20.369000000000003,248.24179999999998,-120.2936,175,75
2026-05-09 15:53:52.780,5,-2.0,-1.03,0.64,23.711,186.3918,-105.86359999999999,175,75
2026-05-09 15:53:52.784,5,-1.76,-0.67,1.47,53.421,-10.9382,-55.4136,175,75
2026-05-09 15:53:52.799,5,-0.99,-0.06,2.0,65.311,-167.6182,12.9264,175,75
2026-05-09 15:53:52.812,5,-0.79,0.01,2.0,70.421,-252.0282,13.446399999999999,175,75
2026-05-09 15:53:52.825,5,-0.22,0.43,2.0,55.221000000000004,-252.0282,-22.1636,175,75
2026-05-09 15:53:52.826,5,0.25,0.35,1.83,31.301,-252.0282,-37.7136,175,75
2026-05-09 15:53:52.836,5,0.96,0.19,1.48,24.801,-252.0282,-57.403600000000004,175,75
2026-05-09 15:53:52.847,5,1.45,0.11,1.12,22.660999999999998,-252.0282,-63.6236,175,75
2026-05-09 15:53:52.862,5,1.82,0.13,0.7,30.011,-252.0282,-43.583600000000004,175,75
2026-05-09 15:53:52.873,5,2.0,0.26,0.3,49.511,-194.3582,10.9064,175,75
2026-05-09 15:53:52.884,5,1.95,0.56,0.25,54.251000000000005,-55.1982,35.9664,175,75
2026-05-09 15:53:52.895,5,0.99,0.45,0.42,35.431000000000004,36.0218,5.5363999999999995,175,75
2026-05-09 15:53:52.895,5,0.74,0.28,0.64,10.401,89.7418,-11.7036,175,75
2026-05-09 15:53:52.929,5,0.44,0.06,0.7,18.000999999999998,85.40180000000001,-16.6236,175,75
2026-05-09 15:53:52.937,5,0.16,0.13,0.66,38.191,38.3918,15.446399999999999,175,75
2026-05-09 15:53:52.952,5,-0.09,0.21,0.65,43.531,6.7118,23.046400000000002,175,75
2026-05-09 15:53:52.963,5,-0.24,0.18,0.56,41.291000000000004,-18.5182,19.1564,175,75
2026-05-09 15:53:52.963,5,-0.34,0.12,0.41,40.961,-50.1682,15.346400000000001,175,75
2026-05-09 15:53:52.987,5,-0.31,0.0,0.07,59.801,-120.2882,22.5864,175,75
2026-05-09 15:53:53.001,5,-0.23,0.01,-0.04,73.671,-157.6082,35.6464,175,75
2026-05-09 15:53:53.013,5,-0.08,0.0,-0.19,83.641,-182.90820000000002,54.2564,175,75
2026-05-09 15:53:53.013,5,0.19,0.01,-0.38,90.531,-188.40820000000002,84.19640000000001,175,75
2026-05-09 15:53:53.024,5,0.3,-0.26,-0.02,107.631,-169.6182,113.08640000000001,175,75
2026-05-09 15:53:53.046,5,0.16,0.04,-0.62,113.321,-131.2682,154.5964,175,75
2026-05-09 15:53:53.069,5,0.2,-0.29,-0.61,68.23100000000001,-52.4482,137.8064,175,75
2026-05-09 15:53:53.079,5,0.1,-0.36,-0.41,47.501000000000005,3.1218,121.9764,175,75
2026-05-09 15:53:53.120,5,-0.02,-0.35,-0.2,21.590999999999998,56.8918,104.52640000000001,175,75
2026-05-09 15:53:53.120,5,0.05,-0.4,-0.13,2.4210000000000003,108.7018,81.74640000000001,175,75
2026-05-09 15:53:53.132,5,0.5,-0.49,-0.11,-5.079,188.1018,55.0564,175,75
2026-05-09 15:53:53.132,5,1.15,-0.59,-0.01,2.651,248.24179999999998,39.5764,175,75
2026-05-09 15:53:53.143,5,2.0,-0.97,0.23,43.611000000000004,248.24179999999998,20.166400000000003,175,75
2026-05-09 15:53:53.155,5,1.9,-0.82,2.0,73.851,248.24179999999998,-61.183600000000006,175,75
2026-05-09 15:53:53.155,5,0.69,-0.1,2.0,51.761,244.27179999999998,-231.5436,175,75
2026-05-09 15:53:53.166,5,0.53,-0.06,2.0,-119.029,248.24179999999998,-251.7336,175,75
2026-05-09 15:53:53.199,5,-1.65,-0.13,1.87,35.081,248.24179999999998,-118.44359999999999,175,75
2026-05-09 15:53:53.211,5,-2.0,0.48,2.0,14.971,9.7718,-17.2736,175,75
2026-05-09 15:53:53.216,5,-2.0,0.82,2.0,-42.849,-177.2082,25.9864,175,75
2026-05-09 15:53:53.236,5,-1.38,0.72,2.0,-99.879,-252.0282,68.60640000000001,175,75
2026-05-09 15:53:53.248,5,-0.31,0.26,2.0,-113.029,-252.0282,112.5064,175,75
2026-05-09 15:53:53.278,5,0.19,-0.31,2.0,-71.609,-252.0282,152.04639999999998,175,75
2026-05-09 15:53:53.290,5,0.76,-0.49,1.91,-44.149,-252.0282,200.5164,175,75
2026-05-09 15:53:53.303,5,1.04,-0.59,1.36,-19.369000000000003,-252.0282,247.8464,175,75
2026-05-09 15:53:53.334,5,1.72,-0.27,0.33,-3.2889999999999997,-252.0282,119.8764,175,75
2026-05-09 15:53:53.358,5,1.16,-0.59,0.01,-13.039,-14.008199999999999,-76.1036,175,75
2026-05-09 15:53:53.358,5,0.7,-0.42,0.24,0.6709999999999999,78.9618,-101.11359999999999,175,75
2026-05-09 15:53:53.369,5,0.34,-0.34,0.29,21.070999999999998,148.1318,-113.7436,175,75
2026-05-09 15:53:53.369,5,0.02,-0.17,0.3,36.551,186.6318,-126.4536,175,75
2026-05-09 15:53:53.429,5,0.02,0.44,-0.12,36.421,-190.6982,-67.7736,175,75
2026-05-09 15:53:53.439,5,0.49,0.56,-0.19,6.7410000000000005,-194.93820000000002,-24.673599999999997,175,75
2026-05-09 15:53:53.460,5,0.58,0.42,-0.28,-3.9290000000000003,-153.8382,20.7464,175,75
2026-05-09 15:53:53.460,5,0.31,0.27,-0.28,0.23099999999999998,-104.6582,43.1464,175,75
2026-05-09 15:53:53.486,5,0.12,0.2,-0.25,13.481,-55.5882,40.8964,175,75
2026-05-09 15:53:53.486,5,0.13,0.15,-0.26,29.610999999999997,-9.4282,36.1464,175,75
2026-05-09 15:53:53.502,5,0.24,0.12,-0.26,48.941,39.3918,45.526399999999995,175,75
2026-05-09 15:53:53.513,5,0.36,0.22,-0.24,63.201,86.6118,67.1564,175,75
2026-05-09 15:53:53.513,5,0.58,0.34,-0.18,61.151,130.90179999999998,99.2364,175,75
2026-05-09 15:53:53.556,5,0.86,0.29,-0.14,51.311,178.9218,152.0664,175,75
2026-05-09 15:53:53.556,5,1.22,0.2,-0.0,44.101,215.8818,234.9264,175,75
2026-05-09 15:53:53.581,5,1.43,-0.42,1.64,23.540999999999997,-5.638199999999999,248.5364,175,75
2026-05-09 15:53:53.581,5,1.81,-0.87,1.48,23.070999999999998,94.3818,124.13640000000001,175,75
2026-05-09 15:53:53.592,5,1.36,-0.82,2.0,34.191,213.25179999999997,-80.3236,175,75
2026-05-09 15:53:53.592,5,2.0,-0.05,2.0,-44.189,248.24179999999998,-129.5136,175,75
2026-05-09 15:53:53.617,5,2.0,-0.66,2.0,-124.709,248.24179999999998,-65.3836,175,75
2026-05-09 15:53:53.617,5,-0.03,-1.12,2.0,-74.929,248.24179999999998,-53.0536,175,75
2026-05-09 15:53:53.666,5,-2.0,-0.77,1.8,28.500999999999998,240.75179999999997,-26.0536,175,75
2026-05-09 15:53:53.689,5,-1.63,0.01,2.0,-52.059,-203.09820000000002,-195.77360000000002,175,75
2026-05-09 15:53:53.700,5,-1.02,-0.13,2.0,-48.549,-252.0282,-215.4436,175,75
2026-05-09 15:53:53.700,5,-0.52,-0.22,1.73,-17.219,-252.0282,-210.2836,175,75
2026-05-09 15:53:53.734,5,-0.05,0.15,0.97,55.571000000000005,-252.0282,-110.9836,175,75
2026-05-09 15:53:53.761,5,0.15,0.5,0.53,38.131,-252.0282,-70.7036,175,75
2026-05-09 15:53:53.787,5,2.0,0.01,-1.09,26.880999999999997,-252.0282,82.7064,175,75
2026-05-09 15:53:53.809,5,1.17,0.46,-1.95,157.40099999999998,-106.4482,248.5364,175,75
2026-05-09 15:53:53.809,5,-0.23,-0.0,-1.4,124.601,-33.8882,232.8664,175,75
2026-05-09 15:53:53.821,5,-1.06,-0.47,-0.84,78.271,-14.6982,88.3464,175,75
2026-05-09 15:53:53.833,5,-1.25,-0.54,-0.49,60.781,-37.8082,-0.3136000000000001,175,75
2026-05-09 15:53:53.833,5,-1.24,-0.06,0.06,-11.238999999999999,-81.0382,-122.6736,175,75
2026-05-09 15:53:53.845,5,-0.88,0.29,0.07,-74.929,-69.0382,-198.4336,175,75
2026-05-09 15:53:53.881,5,0.4,0.44,-0.19,-138.579,15.2718,-251.7336,175,75
2026-05-09 15:53:53.881,5,1.92,0.56,-0.6,-166.649,171.9218,-251.7336,175,75
2026-05-09 15:53:53.891,5,1.11,0.78,-0.57,-182.30900000000003,248.24179999999998,-196.74360000000001,175,75
2026-05-09 15:53:53.903,5,1.84,1.35,0.33,-132.93900000000002,248.24179999999998,32.316399999999994,175,75
2026-05-09 15:53:53.918,5,0.64,2.0,1.53,-86.609,40.381800000000005,222.5164,175,75
2026-05-09 15:53:53.930,5,1.57,1.26,2.0,-125.339,97.65180000000001,175.38639999999998,175,75
2026-05-09 15:53:53.930,5,2.0,0.95,2.0,-166.12900000000002,200.2918,116.4264,175,75
2026-05-09 15:53:53.941,5,2.0,0.08,2.0,-199.02900000000002,248.24179999999998,106.8264,175,75
2026-05-09 15:53:53.951,5,1.2,-1.26,2.0,-139.389,248.24179999999998,131.0564,175,75
2026-05-09 15:53:53.951,5,-0.35,-1.25,1.46,-57.678999999999995,248.24179999999998,168.2164,175,75
2026-05-09 15:53:53.979,5,-2.0,-1.03,0.93,75.551,92.5218,152.75639999999999,175,75
2026-05-09 15:53:53.992,5,-2.0,-0.68,1.8,74.581,-55.0682,76.1864,175,75
2026-05-09 15:53:54.003,5,-0.96,-0.33,2.0,12.191,-252.0282,-197.11360000000002,175,75
2026-05-09 15:53:54.014,5,-0.13,-0.17,1.86,17.921,-252.0282,-251.7336,175,75
2026-05-09 15:53:54.028,5,1.83,0.51,1.28,38.411,-252.0282,-251.7336,175,75
2026-05-09 15:53:54.043,5,2.0,1.13,0.44,52.961,-123.3082,-20.1036,175,75
2026-05-09 15:53:54.076,5,0.9,0.51,0.5,21.520999999999997,57.951800000000006,12.9264,175,75
2026-05-09 15:53:54.086,5,0.91,0.35,0.81,7.571,103.0318,28.8064,175,75
2026-05-09 15:53:54.097,5,0.54,0.23,1.04,40.771,62.921800000000005,53.7564,175,75
2026-05-09 15:53:54.110,5,0.29,0.25,1.04,43.941,32.0018,50.3964,175,75
2026-05-09 15:53:54.143,5,-0.11,0.07,0.62,39.391000000000005,-46.538199999999996,19.2664,175,75
2026-05-09 15:53:54.156,5,-0.16,0.03,0.47,44.931000000000004,-64.1782,14.2564,175,75
2026-05-09 15:53:54.168,5,-0.2,0.02,0.34,50.921,-81.1182,10.1664,175,75
2026-05-09 15:53:54.180,5,-0.2,0.0,0.21,57.011,-98.4182,9.1664,175,75
2026-05-09 15:53:54.180,5,-0.18,-0.03,0.03,67.261,-121.23819999999999,14.6864,175,75
2026-05-09 15:53:54.190,5,-0.14,-0.03,-0.15,81.311,-149.5282,30.8364,175,75
2026-05-09 15:53:54.200,5,-0.1,-0.0,-0.3,91.20100000000001,-171.46820000000002,46.666399999999996,175,75
2026-05-09 15:53:54.200,5,0.03,0.05,-0.43,94.45100000000001,-180.5782,64.35640000000001,175,75
2026-05-09 15:53:54.227,5,0.2,-0.04,-0.46,101.781,-168.9482,89.08640000000001,175,75
2026-05-09 15:53:54.239,5,0.22,-0.06,-0.62,109.511,-153.28820000000002,120.0364,175,75
2026-05-09 15:53:54.267,5,0.33,-0.16,-0.51,95.23100000000001,-75.8982,152.16639999999998,175,75
2026-05-09 15:53:54.278,5,0.18,-0.21,-0.35,69.711,-18.488200000000003,135.85639999999998,175,75
2026-05-09 15:53:54.278,5,0.1,-0.33,-0.17,46.641000000000005,36.9418,117.13640000000001,175,75
2026-05-09 15:53:54.291,5,0.23,-0.42,-0.06,32.051,102.4518,98.0364,175,75
2026-05-09 15:53:54.306,5,0.57,-0.44,0.04,25.110999999999997,187.93179999999998,82.60640000000001,175,75
2026-05-09 15:53:54.306,5,1.17,-0.52,0.22,27.221,248.24179999999998,74.2564,175,75
2026-05-09 15:53:54.338,5,1.96,-0.67,0.6,51.111000000000004,248.24179999999998,53.2264,175,75
2026-05-09 15:53:54.341,5,1.17,-0.01,2.0,29.221,227.93179999999998,-251.7336,175,75
2026-05-09 15:53:54.398,5,0.26,0.3,2.0,-143.15900000000002,248.24179999999998,-251.7336,175,75
2026-05-09 15:53:54.410,5,-0.56,-0.63,1.93,-44.009,248.24179999999998,-192.4836,175,75
2026-05-09 15:53:54.420,5,-1.36,-0.59,1.53,0.1409999999999999,248.24179999999998,-77.97359999999999,175,75
2026-05-09 15:53:54.458,5,-2.0,-0.23,1.67,17.160999999999998,224.00179999999997,-20.8036,175,75
2026-05-09 15:53:54.481,5,-1.45,0.4,2.0,-111.059,-245.47820000000002,45.8064,175,75
2026-05-09 15:53:54.481,5,-0.03,-0.48,2.0,-78.949,-252.0282,103.9064,175,75
2026-05-09 15:53:54.492,5,0.93,-0.22,1.03,19.811,-252.0282,173.66639999999998,175,75
2026-05-09 15:53:54.492,5,1.02,-0.07,0.87,11.581,-252.0282,150.2464,175,75
2026-05-09 15:53:54.503,5,1.32,-0.1,0.3,-51.329,-205.0782,-19.3236,175,75
2026-05-09 15:53:54.531,5,-0.11,0.05,-0.0,-11.229,48.961800000000004,-179.5436,175,75
2026-05-09 15:53:54.545,5,0.18,0.27,-0.52,10.861,57.9718,-219.77360000000002,175,75
2026-05-09 15:53:54.555,5,0.4,0.31,-0.75,26.380999999999997,62.7418,-176.6836,175,75
2026-05-09 15:53:54.582,5,-0.16,0.41,-0.61,56.791000000000004,17.8218,-67.7736,175,75
2026-05-09 15:53:54.612,5,-0.04,0.27,-0.29,18.781,-92.8382,77.7564,175,75
2026-05-09 15:53:54.626,5,0.49,0.11,-0.23,25.680999999999997,-17.8382,176.25639999999999,175,75
2026-05-09 15:53:54.636,5,0.61,0.11,-0.12,36.201,52.6918,205.7764,175,75
2026-05-09 15:53:54.636,5,0.68,0.13,0.01,42.211,126.2018,225.3164,175,75
2026-05-09 15:53:54.658,5,1.33,-0.04,0.41,44.931000000000004,248.24179999999998,243.5964,175,75
2026-05-09 15:53:54.672,5,1.53,-0.88,2.0,42.521,143.9218,236.3464,175,75
2026-05-09 15:53:54.672,5,1.22,-1.17,2.0,23.980999999999998,71.9518,38.0364,175,75
2026-05-09 15:53:54.682,5,2.0,-0.39,2.0,2.541,154.2618,-44.083600000000004,175,75
2026-05-09 15:53:54.692,5,2.0,-0.58,2.0,-51.519,248.24179999999998,28.886400000000002,175,75
2026-05-09 15:53:54.704,5,-0.6,-0.95,2.0,-59.608999999999995,248.24179999999998,-79.80359999999999,175,75
2026-05-09 15:53:54.704,5,-1.57,-1.1,1.53,-39.969,248.24179999999998,-120.97359999999999,175,75
2026-05-09 15:53:54.704,5,-2.0,-0.92,1.35,-2.1290000000000004,248.24179999999998,-146.64360000000002,175,75
2026-05-09 15:53:54.714,5,-2.0,-0.56,1.92,17.250999999999998,198.9218,-190.74360000000001,175,75
2026-05-09 15:53:54.726,5,-2.0,-0.06,2.0,-5.999,8.7718,-227.2536,175,75
2026-05-09 15:53:54.726,5,-2.0,0.2,2.0,-43.068999999999996,-179.0182,-251.7336,175,75
2026-05-09 15:53:54.739,5,-1.36,0.27,2.0,-69.679,-252.0282,-251.7336,175,75
2026-05-09 15:53:54.739,5,-0.44,0.29,2.0,-72.469,-252.0282,-248.39360000000002,175,75
2026-05-09 15:53:54.756,5,0.23,0.23,2.0,-49.379,-252.0282,-155.5136,175,75
2026-05-09 15:53:54.768,5,0.48,0.16,1.69,-7.0489999999999995,-252.0282,-85.19359999999999,175,75
2026-05-09 15:53:54.779,5,0.65,0.3,1.42,29.941,-252.0282,-25.0336,175,75
2026-05-09 15:53:54.793,5,0.44,0.23,0.94,25.520999999999997,-198.5182,75.55640000000001,175,75
2026-05-09 15:53:54.804,5,0.09,0.13,0.27,18.741,-233.9482,111.30640000000001,175,75
2026-05-09 15:53:54.814,5,0.32,0.08,-0.0,21.950999999999997,-251.1782,100.9564,175,75
2026-05-09 15:53:54.814,5,0.8,0.04,-0.32,29.110999999999997,-232.50820000000002,111.9264,175,75
2026-05-09 15:53:54.831,5,1.89,0.02,-1.38,62.081,-146.9182,190.63639999999998,175,75
2026-05-09 15:53:54.841,5,1.45,0.32,-2.0,99.871,5.0718,179.35639999999998,175,75
2026-05-09 15:53:54.861,5,-1.06,-0.5,-1.32,39.751000000000005,15.2618,-91.9636,175,75
2026-05-09 15:53:54.875,5,-1.18,0.0,-0.38,-28.219,-130.90820000000002,-142.8436,175,75
2026-05-09 15:53:54.983,5,2.0,2.0,2.0,-126.709,248.24179999999998,248.5364,175,75
2026-05-09 15:53:54.993,5,2.0,-1.1,2.0,7.541,248.24179999999998,179.63639999999998,175,75
2026-05-09 15:53:55.004,5,-0.21,-0.65,1.84,20.621,248.24179999999998,70.8664,175,75
2026-05-09 15:53:55.030,5,-2.0,-0.71,1.08,39.401,248.24179999999998,-227.1936,175,75
2026-05-09 15:53:55.040,5,-2.0,-0.84,2.0,36.431000000000004,130.5118,-251.7336,175,75
2026-05-09 15:53:55.053,5,-1.38,0.31,2.0,43.481,-117.48819999999999,-251.7336,175,75
2026-05-09 15:53:55.053,5,-0.5,0.59,2.0,11.161,-252.0282,-176.8236,175,75
2026-05-09 15:53:55.066,5,-0.15,0.66,2.0,-13.609,-252.0282,-103.3236,175,75
2026-05-09 15:53:55.087,5,0.78,0.08,1.86,45.241,-223.4882,17.866400000000002,175,75
2026-05-09 15:53:55.111,5,0.58,-0.23,1.59,33.491,-226.5782,69.8464,175,75
2026-05-09 15:53:55.122,5,0.92,-0.29,1.28,6.501,-237.47820000000002,38.386399999999995,175,75
2026-05-09 15:53:55.132,5,0.88,-0.24,1.03,-5.099,-215.6782,-9.6536,175,75
2026-05-09 15:53:55.176,5,0.71,0.07,1.01,-17.649,-50.0282,-147.6936,175,75
2026-05-09 15:53:55.190,5,0.11,0.12,0.65,-50.129,48.4818,-251.7336,175,75
2026-05-09 15:53:55.202,5,0.16,0.11,0.5,-30.949,11.4318,-251.7336,175,75
2026-05-09 15:53:55.214,5,0.12,0.2,0.43,-4.519,-39.868199999999995,-251.7336,175,75
2026-05-09 15:53:55.225,5,-0.21,0.38,0.39,17.840999999999998,-125.6582,-199.3836,175,75
2026-05-09 15:53:55.238,5,-0.01,0.05,-0.04,3.9109999999999996,-143.93820000000002,-114.91359999999999,175,75
2026-05-09 15:53:55.250,5,0.07,0.0,-0.49,20.660999999999998,-154.4882,-30.863599999999998,175,75
2026-05-09 15:53:55.261,5,0.14,-0.02,-0.91,42.081,-166.6682,63.9364,175,75
2026-05-09 15:53:55.272,5,0.26,0.15,-1.09,80.931,-179.1182,142.9664,175,75
2026-05-09 15:53:55.272,5,0.26,0.46,-1.32,81.321,-171.5782,187.6864,175,75
2026-05-09 15:53:55.283,5,-0.09,0.31,-1.1,52.521,-146.96820000000002,175.19639999999998,175,75
2026-05-09 15:53:55.305,5,-0.53,-0.23,-0.32,-7.009,-95.1482,95.6864,175,75
2026-05-09 15:53:55.316,5,-0.44,-0.33,-0.11,-27.869000000000003,-54.3182,61.3064,175,75
2026-05-09 15:53:55.326,5,-0.29,-0.33,-0.04,-49.479,6.491800000000001,24.0364,175,75
2026-05-09 15:53:55.333,5,0.01,-0.36,-0.14,-69.739,80.76180000000001,-8.9936,175,75
2026-05-09 15:53:55.346,5,0.38,-0.38,-0.24,-78.509,163.1618,-22.673599999999997,175,75
2026-05-09 15:53:55.366,5,1.33,-0.33,-0.07,-84.439,248.24179999999998,0.6464000000000001,175,75
2026-05-09 15:53:55.377,5,2.0,-0.74,0.28,-56.919,248.24179999999998,33.0164,175,75
2026-05-09 15:53:55.410,5,2.0,0.9,2.0,-33.539,248.24179999999998,-161.3136,175,75
2026-05-09 15:53:55.431,5,-1.43,-0.87,1.78,-20.559,248.24179999999998,-251.7336,175,75
2026-05-09 15:53:55.446,5,-2.0,-0.64,1.6,37.031,248.24179999999998,-186.89360000000002,175,75
2026-05-09 15:53:55.464,5,-2.0,0.77,2.0,-13.769,-40.6382,-95.2336,175,75
2026-05-09 15:53:55.464,5,-2.0,1.18,2.0,-99.739,-240.9482,-88.9036,175,75
2026-05-09 15:53:55.482,5,-1.66,1.09,2.0,-171.419,-252.0282,-68.7336,175,75
2026-05-09 15:53:55.493,5,-0.07,0.61,2.0,-191.739,-252.0282,9.8164,175,75
2026-05-09 15:53:55.504,5,0.81,-0.09,2.0,-133.09900000000002,-252.0282,133.6264,175,75
2026-05-09 15:53:55.515,5,0.63,-0.3,2.0,-57.439,-252.0282,248.5364,175,75
2026-05-09 15:53:55.526,5,0.14,-0.51,1.8,-56.349,-252.0282,248.5364,175,75
2026-05-09 15:53:55.526,5,1.04,-0.94,1.1,-69.349,-252.0282,248.5364,175,75
2026-05-09 15:53:55.542,5,1.18,-1.37,0.45,-54.769,-252.0282,248.5364,175,75
2026-05-09 15:53:55.552,5,1.65,-1.54,-0.12,-15.459000000000001,-252.0282,248.5364,175,75
2026-05-09 15:53:55.563,5,-0.15,-1.3,-0.38,0.2909999999999999,-91.73819999999999,15.356399999999999,175,75
2026-05-09 15:53:55.579,5,-1.14,-0.97,0.05,1.4009999999999998,-5.1682,-207.4136,175,75
2026-05-09 15:53:55.592,5,-1.59,-0.62,0.24,7.971,14.3118,-251.7336,175,75
2026-05-09 15:53:55.594,5,-1.58,-0.25,0.22,14.371,1.4218000000000002,-251.7336,175,75
2026-05-09 15:53:55.625,5,-1.05,0.77,-0.04,-9.719,-50.6982,-251.7336,175,75
2026-05-09 15:53:55.630,5,-0.12,1.37,-0.35,-71.569,-59.618199999999995,-251.7336,175,75
2026-05-09 15:53:55.667,5,0.16,1.6,-0.57,-236.699,136.6618,-251.7336,175,75
2026-05-09 15:53:55.667,5,-0.09,1.14,-0.34,-249.089,131.25179999999997,-251.7336,175,75
2026-05-09 15:53:55.681,5,0.17,0.6,-0.16,-249.089,151.00179999999997,-251.7336,175,75
2026-05-09 15:53:55.694,5,0.23,0.24,-0.04,-246.889,190.74179999999998,-171.80360000000002,175,75
2026-05-09 15:53:55.694,5,0.46,0.18,0.07,-180.27900000000002,189.65179999999998,-26.5736,175,75
2026-05-09 15:53:55.712,5,-0.03,0.35,0.1,-105.339,113.9318,154.4564,175,75
2026-05-09 15:53:55.732,5,-0.02,0.18,0.48,-39.769,68.9918,248.5364,175,75
2026-05-09 15:53:55.743,5,0.18,0.14,0.47,-16.859,42.2718,248.5364,175,75
2026-05-09 15:53:55.744,5,0.37,0.16,0.69,-12.209,-6.898199999999999,248.5364,175,75
2026-05-09 15:53:55.755,5,0.25,0.04,1.29,-55.928999999999995,-139.50820000000002,248.5364,175,75
2026-05-09 15:53:55.782,5,2.0,-1.98,1.36,-53.129,-78.09819999999999,248.5364,175,75
2026-05-09 15:53:55.782,5,1.54,-2.0,1.92,34.601,140.59179999999998,-77.2736,175,75
2026-05-09 15:53:55.826,5,1.48,-0.95,2.0,26.130999999999997,248.24179999999998,-251.7336,175,75
2026-05-09 15:53:55.826,5,-0.03,-0.91,2.0,-5.419,248.24179999999998,-251.7336,175,75
2026-05-09 15:53:55.844,5,-1.03,-0.8,2.0,-0.9589999999999999,248.24179999999998,-251.7336,175,75
2026-05-09 15:53:55.855,5,-2.0,-0.56,2.0,39.031,248.24179999999998,-251.7336,175,75
2026-05-09 15:53:55.855,5,-2.0,-0.19,2.0,68.781,184.6418,-251.7336,175,75
2026-05-09 15:53:55.866,5,-1.82,0.59,2.0,50.971000000000004,-29.828200000000002,-251.7336,175,75
2026-05-09 15:53:55.877,5,-1.93,0.79,2.0,12.311,-202.3282,-197.3136,175,75
2026-05-09 15:53:55.877,5,-1.62,0.79,2.0,-15.609,-252.0282,-147.5136,175,75
2026-05-09 15:53:55.888,5,-0.97,0.57,1.79,-5.968999999999999,-252.0282,-95.2436,175,75
2026-05-09 15:53:55.902,5,-0.39,0.23,1.35,42.261,-252.0282,-21.493599999999997,175,75
2026-05-09 15:53:55.912,5,0.26,0.06,1.02,76.59100000000001,-252.0282,64.13640000000001,175,75
2026-05-09 15:53:55.912,5,0.63,0.13,0.75,97.821,-252.0282,148.0364,175,75
2026-05-09 15:53:55.931,5,1.13,0.05,0.43,105.831,-252.0282,248.5364,175,75
2026-05-09 15:53:55.950,5,1.15,0.1,0.07,112.70100000000001,-252.0282,248.5364,175,75
2026-05-09 15:53:55.966,5,2.0,-0.05,-1.44,127.761,-252.0282,248.5364,175,75
2026-05-09 15:53:55.978,5,2.0,-1.15,-1.5,174.44099999999997,-9.3882,248.5364,175,75
2026-05-09 15:53:55.978,5,-0.02,-0.29,-1.84,130.31099999999998,159.5118,102.6264,175,75
2026-05-09 15:53:55.988,5,-1.19,-0.27,-0.74,95.241,131.18179999999998,-11.6536,175,75
2026-05-09 15:53:56.012,5,-1.5,-0.24,-0.33,78.931,67.29180000000001,-93.5436,175,75
2026-05-09 15:53:56.012,5,-1.6,-0.15,-0.26,63.501000000000005,-8.6482,-160.7636,175,75
2026-05-09 15:53:56.037,5,2.0,0.61,-0.87,-60.159,-54.2682,-214.5636,175,75
2026-05-09 15:53:56.050,5,1.68,0.86,-0.83,-105.949,92.1618,-84.9536,175,75
2026-05-09 15:53:56.050,5,0.75,0.83,-0.58,-140.18900000000002,155.8518,-45.2536,175,75
2026-05-09 15:53:56.070,5,1.65,0.17,-0.04,-126.709,248.24179999999998,-16.5136,175,75
2026-05-09 15:53:56.080,5,1.18,0.11,1.06,-91.579,248.24179999999998,-0.0036000000000000476,175,75
2026-05-09 15:53:56.104,5,2.0,-0.77,2.0,-85.059,248.24179999999998,8.2564,175,75
2026-05-09 15:53:56.114,5,0.26,-0.92,2.0,-65.139,248.24179999999998,-52.2736,175,75
2026-05-09 15:53:56.130,5,-1.68,-1.0,1.8,-39.318999999999996,248.24179999999998,-94.80359999999999,175,75
2026-05-09 15:53:56.141,5,-2.0,-1.16,1.49,-11.179,248.24179999999998,-126.8136,175,75
2026-05-09 15:53:56.153,5,-2.0,-1.35,1.76,28.000999999999998,127.9618,-127.6836,175,75
2026-05-09 15:53:56.164,5,-1.89,-0.23,2.0,103.321,-252.0282,-75.1536,175,75
2026-05-09 15:53:56.195,5,-0.53,0.28,1.96,97.511,-252.0282,-65.5936,175,75
2026-05-09 15:53:56.195,5,-0.22,0.4,1.65,67.651,-252.0282,-69.6236,175,75
2026-05-09 15:53:56.226,5,0.59,0.47,0.81,-0.629,-252.0282,-171.9336,175,75
2026-05-09 15:53:56.226,5,1.79,0.31,0.41,-29.609,-252.0282,-180.7136,175,75
2026-05-09 15:53:56.238,5,2.0,0.23,0.18,-27.109,-252.0282,-96.6836,175,75
2026-05-09 15:53:56.248,5,2.0,0.4,0.13,-21.419,-161.9282,-15.3836,175,75
2026-05-09 15:53:56.257,5,0.97,0.46,0.28,-34.089,-47.4482,7.0664,175,75
2026-05-09 15:53:56.272,5,0.36,0.33,0.3,-51.509,20.8018,-11.643600000000001,175,75
2026-05-09 15:53:56.282,5,0.12,0.12,0.27,-57.799,66.2218,-40.6236,175,75
2026-05-09 15:53:56.292,5,-0.07,-0.03,0.17,-49.039,87.90180000000001,-64.2136,175,75
2026-05-09 15:53:56.303,5,-0.22,-0.07,0.08,-30.459000000000003,86.12180000000001,-81.8836,175,75
2026-05-09 15:53:56.303,5,-0.3,-0.05,0.0,-9.409,62.7118,-93.1036,175,75
2026-05-09 15:53:56.314,5,-0.29,0.07,-0.09,9.161,23.4618,-96.2436,175,75
2026-05-09 15:53:56.325,5,-0.08,0.23,-0.18,21.831,-23.188200000000002,-82.7636,175,75
2026-05-09 15:53:56.337,5,0.14,0.28,-0.27,30.980999999999998,-64.9882,-45.723600000000005,175,75
2026-05-09 15:53:56.361,5,0.47,0.3,-0.52,41.761,-79.09819999999999,33.5364,175,75
2026-05-09 15:53:56.375,5,0.05,0.17,-0.65,58.821000000000005,-62.1782,89.2564,175,75
2026-05-09 15:53:56.388,5,-0.17,0.02,-0.52,60.921,-70.0782,107.33640000000001,175,75
2026-05-09 15:53:56.407,5,-0.34,-0.12,-0.4,57.391000000000005,-117.2882,146.19639999999998,175,75
2026-05-09 15:53:56.418,5,0.38,-0.13,-0.39,38.551,-93.09819999999999,143.3064,175,75
2026-05-09 15:53:56.457,5,1.24,-0.58,-0.48,23.250999999999998,176.1018,36.5864,175,75
2026-05-09 15:53:56.457,5,1.6,-0.59,-0.06,26.651,248.24179999999998,23.9064,175,75
2026-05-09 15:53:56.470,5,2.0,-0.75,0.84,46.261,248.24179999999998,20.3764,175,75
2026-05-09 15:53:56.481,5,0.52,-0.7,2.0,11.981,248.24179999999998,-103.1336,175,75
2026-05-09 15:53:56.492,5,2.0,0.29,2.0,-60.899,248.24179999999998,-229.3736,175,75
2026-05-09 15:53:56.492,5,2.0,0.19,2.0,-163.02900000000002,248.24179999999998,-165.67360000000002,175,75
2026-05-09 15:53:56.492,5,-0.53,-0.35,2.0,-157.679,248.24179999999998,-203.74360000000001,175,75
2026-05-09 15:53:56.503,5,-2.0,-0.72,2.0,-109.349,248.24179999999998,-251.7336,175,75
2026-05-09 15:53:56.531,5,-2.0,-0.82,2.0,-41.939,248.24179999999998,-251.7336,175,75
2026-05-09 15:53:56.531,5,-2.0,-0.0,2.0,-11.939,80.0618,-150.3536,175,75
2026-05-09 15:53:56.560,5,-2.0,0.42,2.0,-17.609,-132.3982,-26.3536,175,75
2026-05-09 15:53:56.560,5,-2.0,0.79,2.0,-46.858999999999995,-252.0282,17.1064,175,75
2026-05-09 15:53:56.571,5,-1.05,0.63,2.0,-61.739,-252.0282,72.0464,175,75
2026-05-09 15:53:56.585,5,-0.43,0.21,2.0,-41.129,-252.0282,148.2764,175,75
2026-05-09 15:53:56.585,5,-0.15,-0.08,1.93,-43.248999999999995,-252.0282,193.2764,175,75
2026-05-09 15:53:56.595,5,0.16,-0.32,1.42,-48.439,-252.0282,206.6764,175,75
2026-05-09 15:53:56.595,5,0.93,-0.56,0.7,-39.669,-252.0282,236.35639999999998,175,75
2026-05-09 15:53:56.612,5,1.57,-0.82,0.1,-21.289,-252.0282,248.5364,175,75
2026-05-09 15:53:56.612,5,2.0,-1.4,-0.98,-9.129,-252.0282,145.7064,175,75
2026-05-09 15:53:56.626,5,1.92,-1.32,-0.79,-3.899,-143.4182,21.826400000000003,175,75
2026-05-09 15:53:56.637,5,0.55,-0.65,0.0,5.611,-35.578199999999995,-15.3536,175,75
2026-05-09 15:53:56.647,5,-0.34,-0.79,0.3,35.761,29.351799999999997,-34.653600000000004,175,75
2026-05-09 15:53:56.662,5,-1.05,-0.54,0.38,58.401,46.7318,-79.86359999999999,175,75
2026-05-09 15:53:56.673,5,-1.81,0.01,0.13,60.191,-22.8682,-251.7336,175,75
2026-05-09 15:53:56.690,5,-1.64,0.25,-0.23,39.451,-84.87819999999999,-251.7336,175,75
2026-05-09 15:53:56.702,5,-1.04,0.28,-0.68,16.281,-145.8982,-251.7336,175,75
2026-05-09 15:53:56.706,5,1.88,0.59,-1.53,-1.119,-118.6082,-251.7336,175,75
2026-05-09 15:53:56.720,5,2.0,0.93,-1.72,-35.289,60.351800000000004,-213.6836,175,75
2026-05-09 15:53:56.730,5,0.04,1.16,-0.69,-83.959,109.9718,-150.1936,175,75
2026-05-09 15:53:56.743,5,-0.13,0.82,-0.12,-133.28900000000002,125.87180000000001,-171.74360000000001,175,75
2026-05-09 15:53:56.752,5,0.18,0.4,0.03,-154.52900000000002,176.4518,-180.9036,175,75
2026-05-09 15:53:56.770,5,0.3,0.11,0.03,-133.919,248.24179999999998,-167.0136,175,75
2026-05-09 15:53:56.781,5,0.29,0.12,-0.03,-110.349,248.24179999999998,-152.0336,175,75
2026-05-09 15:53:56.800,5,-0.09,0.66,0.88,-6.988999999999999,-10.908199999999999,230.8164,175,75
2026-05-09 15:53:56.812,5,0.3,0.56,1.09,-36.568999999999996,-11.258199999999999,193.85639999999998,175,75
2026-05-09 15:53:56.812,5,0.56,0.22,1.18,-69.689,-33.6582,211.9364,175,75
2026-05-09 15:53:56.828,5,0.85,-0.18,1.15,-84.969,-65.7982,248.5364,175,75
2026-05-09 15:53:56.838,5,1.2,-0.47,1.17,-57.899,-43.1282,248.5364,175,75
2026-05-09 15:53:56.859,5,0.91,-1.03,2.0,9.581,77.8318,68.2664,175,75
2026-05-09 15:53:56.871,5,2.0,-0.88,2.0,-11.549,248.24179999999998,-84.55359999999999,175,75
2026-05-09 15:53:56.883,5,1.32,-0.98,2.0,-61.949,248.24179999999998,-131.36360000000002,175,75
2026-05-09 15:53:56.883,5,-0.32,-1.03,2.0,-56.958999999999996,248.24179999999998,-180.0036,175,75
2026-05-09 15:53:56.895,5,-0.95,-0.85,1.56,-15.778999999999998,248.24179999999998,-171.9336,175,75
2026-05-09 15:53:56.906,5,-1.45,-0.59,1.99,20.811,248.24179999999998,-192.5136,175,75
2026-05-09 15:53:56.918,5,-1.7,-0.34,2.0,22.491,146.02179999999998,-234.8136,175,75
2026-05-09 15:53:56.929,5,-1.7,0.06,2.0,0.11099999999999999,18.8918,-251.7336,175,75
2026-05-09 15:53:56.944,5,-1.2,0.31,2.0,-24.169,-100.45819999999999,-251.7336,175,75
2026-05-09 15:53:56.944,5,-0.81,0.27,2.0,-31.339000000000002,-210.46820000000002,-191.02360000000002,175,75
2026-05-09 15:53:56.955,5,-0.66,0.18,1.77,-8.389,-252.0282,-124.11359999999999,175,75
2026-05-09 15:53:56.970,5,-0.53,0.04,1.37,42.551,-252.0282,-67.83359999999999,175,75
2026-05-09 15:53:56.982,5,-0.45,0.08,1.11,78.131,-252.0282,-11.393600000000001,175,75
2026-05-09 15:53:56.995,5,-0.14,0.13,0.86,91.041,-252.0282,22.3764,175,75
2026-05-09 15:53:56.995,5,0.42,0.23,0.65,91.661,-252.0282,66.80640000000001,175,75
2026-05-09 15:53:57.006,5,0.69,0.29,0.3,76.581,-252.0282,108.5464,175,75
2026-05-09 15:53:57.029,5,2.0,0.02,-2.0,67.181,-137.18820000000002,240.32639999999998,175,75
2026-05-09 15:53:57.045,5,1.75,-0.21,-2.0,81.831,90.7818,114.80640000000001,175,75
2026-05-09 15:53:57.058,5,-0.94,-0.22,-1.35,44.481,109.4818,-60.723600000000005,175,75
2026-05-09 15:53:57.070,5,-1.53,-0.05,-0.65,19.520999999999997,24.221799999999998,-151.7636,175,75
2026-05-09 15:53:57.070,5,-1.54,0.07,-0.32,-7.5489999999999995,-67.3982,-218.45360000000002,175,75
2026-05-09 15:53:57.086,5,-1.29,0.01,-0.29,-36.909,-153.0182,-240.80360000000002,175,75
2026-05-09 15:53:57.098,5,-1.11,-0.08,-0.47,-55.289,-231.93820000000002,-225.3536,175,75
2026-05-09 15:53:57.098,5,-0.16,-0.05,-0.8,-63.369,-252.0282,-167.6336,175,75
2026-05-09 15:53:57.105,5,1.37,0.43,-0.89,-84.389,-194.9582,-66.1236,175,75
2026-05-09 15:53:57.122,5,1.09,0.56,-0.92,-102.899,-51.0982,14.1564,175,75
2026-05-09 15:53:57.133,5,0.25,0.49,-0.69,-102.939,55.0818,9.5464,175,75
2026-05-09 15:53:57.143,5,0.5,0.55,-0.41,-102.529,148.0118,-27.3236,175,75
2026-05-09 15:53:57.157,5,1.22,0.44,-0.25,-102.619,248.24179999999998,-26.2136,175,75
2026-05-09 15:53:57.169,5,2.0,0.17,0.64,-84.419,248.24179999999998,66.0964,175,75
2026-05-09 15:53:57.182,5,1.5,0.78,2.0,-109.059,136.87179999999998,248.5364,175,75
2026-05-09 15:53:57.195,5,2.0,-0.14,2.0,-94.559,16.8018,221.82639999999998,175,75
2026-05-09 15:53:57.195,5,2.0,-1.04,2.0,-4.449,248.24179999999998,59.5164,175,75
2026-05-09 15:53:57.209,5,-0.53,-0.49,2.0,9.751,248.24179999999998,-72.25359999999999,175,75
2026-05-09 15:53:57.214,5,-2.0,-0.59,1.45,-10.639,248.24179999999998,-181.8436,175,75
2026-05-09 15:53:57.237,5,-2.0,-1.04,1.6,2.891,174.8318,-239.2236,175,75
2026-05-09 15:53:57.248,5,-1.61,-0.41,2.0,34.371,-54.9982,-84.94359999999999,175,75
2026-05-09 15:53:57.262,5,-1.33,-0.18,2.0,49.181000000000004,-201.87820000000002,-6.8936,175,75
2026-05-09 15:53:57.262,5,-0.79,0.13,2.0,53.431000000000004,-252.0282,-9.0036,175,75
2026-05-09 15:53:57.275,5,-0.49,0.04,2.0,65.601,-252.0282,-34.153600000000004,175,75
2026-05-09 15:53:57.293,5,0.04,0.12,2.0,68.84100000000001,-252.0282,-38.513600000000004,175,75
2026-05-09 15:53:57.304,5,0.35,0.07,1.69,57.471000000000004,-252.0282,-53.7036,175,75
2026-05-09 15:53:57.304,5,0.63,0.06,1.3,48.461,-252.0282,-92.72359999999999,175,75
2026-05-09 15:53:57.344,5,0.83,0.18,0.73,16.491,-252.0282,-163.0436,175,75
2026-05-09 15:53:57.344,5,1.15,0.26,0.65,4.221,-251.50820000000002,-173.4136,175,75
2026-05-09 15:53:57.356,5,1.3,0.3,0.49,-3.019,-170.28820000000002,-164.4436,175,75
2026-05-09 15:53:57.394,5,1.09,0.34,0.34,-6.599,-91.7182,-130.4336,175,75
2026-05-09 15:53:57.400,5,0.71,0.34,0.25,-9.579,-35.6782,-98.41359999999999,175,75
2026-05-09 15:53:57.402,5,0.36,0.32,0.2,-14.389,2.8518000000000003,-85.4336,175,75
2026-05-09 15:53:57.414,5,0.12,0.24,0.13,-16.639000000000003,24.6118,-84.6736,175,75
2026-05-09 15:53:57.427,5,-0.01,0.2,0.05,-13.869,28.8618,-82.1536,175,75
2026-05-09 15:53:57.449,5,-0.12,0.16,-0.03,-8.309,18.7118,-72.44359999999999,175,75
2026-05-09 15:53:57.468,5,-0.14,0.19,-0.11,-2.569,0.16179999999999994,-53.7436,175,75
2026-05-09 15:53:57.477,5,-0.06,0.23,-0.2,3.9509999999999996,-19.2882,-27.5036,175,75
2026-05-09 15:53:57.510,5,0.13,0.27,-0.36,11.521,-30.2482,9.2964,175,75
2026-05-09 15:53:57.523,5,0.21,0.24,-0.43,23.860999999999997,-28.6782,54.026399999999995,175,75
2026-05-09 15:53:57.523,5,0.12,0.34,-0.52,35.841,-22.2482,86.8164,175,75
2026-05-09 15:53:57.559,5,-0.07,0.29,-0.54,38.941,-24.0482,109.0964,175,75
2026-05-09 15:53:57.559,5,-0.22,0.2,-0.57,41.681000000000004,-39.8382,126.8464,175,75
2026-05-09 15:53:57.559,5,-0.32,0.07,-0.55,45.111000000000004,-59.1382,149.2164,175,75
2026-05-09 15:53:57.575,5,-0.36,-0.05,-0.48,48.831,-84.3282,171.3664,175,75
2026-05-09 15:53:57.575,5,-0.14,-0.1,-0.36,50.001000000000005,-95.84819999999999,190.5664,175,75
2026-05-09 15:53:57.593,5,0.34,-0.1,-0.34,42.551,-55.4482,187.00639999999999,175,75
2026-05-09 15:53:57.604,5,0.79,-0.21,-0.56,31.250999999999998,50.031800000000004,127.67640000000002,175,75
2026-05-09 15:53:57.604,5,0.98,-0.51,-0.71,35.221000000000004,174.6118,52.0764,175,75
2026-05-09 15:53:57.604,5,1.03,-0.54,-0.58,48.681000000000004,248.24179999999998,19.8364,175,75
2026-05-09 15:53:57.635,5,1.75,-0.99,2.0,44.931000000000004,248.24179999999998,50.9264,175,75
2026-05-09 15:53:57.635,5,1.27,-0.96,2.0,10.841,159.5718,9.8764,175,75
2026-05-09 15:53:57.651,5,1.92,-0.51,2.0,14.671,145.75179999999997,1.5563999999999998,175,75
2026-05-09 15:53:57.651,5,2.0,0.36,2.0,-26.989,248.24179999999998,-33.1936,175,75
2026-05-09 15:53:57.683,5,-0.96,-0.46,2.0,8.520999999999999,248.24179999999998,-213.3736,175,75
2026-05-09 15:53:57.683,5,-1.9,-0.33,2.0,34.001000000000005,248.24179999999998,-251.7336,175,75
2026-05-09 15:53:57.706,5,-2.0,-0.3,2.0,32.631,248.24179999999998,-251.7336,175,75
2026-05-09 15:53:57.716,5,-2.0,0.35,2.0,11.641,133.09179999999998,-251.7336,175,75
2026-05-09 15:53:57.716,5,-2.0,0.73,2.0,-30.269000000000002,-108.70819999999999,-142.7336,175,75
2026-05-09 15:53:57.726,5,-2.0,1.0,2.0,-88.179,-252.0282,-57.9236,175,75
2026-05-09 15:53:57.746,5,-1.03,0.95,2.0,-130.77900000000002,-252.0282,34.1864,175,75
2026-05-09 15:53:57.746,5,0.07,0.4,2.0,-120.719,-252.0282,150.16639999999998,175,75
2026-05-09 15:53:57.760,5,0.35,-0.19,2.0,-64.979,-252.0282,248.5364,175,75
2026-05-09 15:53:57.760,5,-0.34,-0.21,2.0,-60.919,-252.0282,248.5364,175,75
2026-05-09 15:53:57.760,5,0.19,-0.51,1.69,-74.979,-252.0282,248.5364,175,75
2026-05-09 15:53:57.769,5,0.87,-0.8,1.08,-70.319,-252.0282,248.5364,175,75
2026-05-09 15:53:57.807,5,1.06,-0.96,0.57,-49.349,-252.0282,248.5364,175,75
2026-05-09 15:53:57.807,5,1.67,-1.24,-0.11,-33.769,-252.0282,248.5364,175,75
2026-05-09 15:53:57.817,5,1.1,-1.34,-0.44,-34.129,-187.0882,60.2164,175,75
2026-05-09 15:53:57.817,5,0.19,-1.23,-0.17,-21.099,-70.3682,-76.2736,175,75
2026-05-09 15:53:57.828,5,-0.48,-0.93,0.08,8.190999999999999,-5.4182,-176.6636,175,75
2026-05-09 15:53:57.828,5,-0.91,-0.58,0.19,30.601,15.161800000000001,-251.7336,175,75
2026-05-09 15:53:57.839,5,-0.99,-0.22,0.19,45.401,14.571800000000001,-251.7336,175,75
2026-05-09 15:53:57.839,5,-1.0,0.11,0.08,45.421,1.4918,-251.7336,175,75
2026-05-09 15:53:57.859,5,-0.82,0.56,-0.08,26.520999999999997,-20.6582,-251.7336,175,75
2026-05-09 15:53:57.859,5,0.14,1.03,-0.4,-12.779,-28.418200000000002,-251.7336,175,75
2026-05-09 15:53:57.859,5,2.0,1.54,-1.36,-30.749000000000002,56.8018,-251.7336,175,75
2026-05-09 15:53:57.876,5,1.45,1.39,-1.16,-60.439,130.7018,-220.0636,175,75
2026-05-09 15:53:57.876,5,-0.0,1.3,-0.65,-97.759,125.3918,-181.67360000000002,175,75
2026-05-09 15:53:57.886,5,0.07,0.9,-0.3,-120.759,110.9618,-180.70360000000002,175,75
2026-05-09 15:53:57.898,5,0.4,0.56,-0.08,-118.629,122.8018,-142.2836,175,75
2026-05-09 15:53:57.898,5,0.47,0.42,0.13,-77.609,79.0618,-6.2636,175,75
2026-05-09 15:53:57.909,5,0.01,0.29,0.12,-34.269,40.6518,65.4264,175,75
2026-05-09 15:53:57.909,5,0.07,0.13,0.26,-6.919,29.9318,109.5364,175,75
2026-05-09 15:53:57.923,5,0.1,0.07,0.21,10.921,10.7918,158.4264,175,75
2026-05-09 15:53:57.923,5,0.21,0.01,0.3,20.480999999999998,-10.5582,208.7464,175,75
2026-05-09 15:53:57.933,5,0.34,-0.09,0.37,21.391,-28.418200000000002,248.5364,175,75
2026-05-09 15:53:57.933,5,0.61,-0.12,0.63,5.7010000000000005,-62.7782,248.5364,175,75
2026-05-09 15:53:57.943,5,1.04,-0.21,0.92,-13.509,-69.5482,248.5364,175,75
2026-05-09 15:53:57.960,5,1.55,-0.79,1.22,2.4909999999999997,2.0018000000000002,248.5364,175,75
2026-05-09 15:53:57.972,5,1.26,-1.57,1.83,47.881,101.1818,64.5664,175,75
2026-05-09 15:53:57.972,5,1.05,-1.02,2.0,60.791000000000004,157.62179999999998,-156.5036,175,75
2026-05-09 15:53:57.993,5,2.0,-0.57,2.0,10.041,248.24179999999998,-160.9336,175,75
2026-05-09 15:53:58.004,5,0.38,-0.77,2.0,-56.809,248.24179999999998,-181.1336,175,75
2026-05-09 15:53:58.014,5,-1.39,-0.75,1.72,-12.139,248.24179999999998,-220.5336,175,75
2026-05-09 15:53:58.025,5,-2.0,-0.61,1.86,30.941,248.24179999999998,-251.7336,175,75
2026-05-09 15:53:58.042,5,-2.0,-0.14,2.0,30.500999999999998,122.4818,-251.7336,175,75
2026-05-09 15:53:58.053,5,-1.86,0.38,2.0,-1.6090000000000002,-29.1782,-251.7336,175,75
2026-05-09 15:53:58.053,5,-1.3,0.55,2.0,-43.269,-195.2382,-214.9136,175,75
2026-05-09 15:53:58.101,5,-0.06,0.07,1.15,40.551,-252.0282,-9.983600000000001,175,75
2026-05-09 15:53:58.102,5,0.12,0.14,0.91,65.001,-252.0282,25.936400000000003,175,75
2026-05-09 15:53:58.122,5,0.35,0.22,0.66,66.391,-252.0282,58.4264,175,75
2026-05-09 15:53:58.122,5,0.51,0.23,0.29,59.911,-252.0282,98.49640000000001,175,75
2026-05-09 15:53:58.151,5,2.0,0.19,-2.0,85.781,-214.22820000000002,248.5364,175,75
2026-05-09 15:53:58.162,5,2.0,0.69,-2.0,112.761,75.2218,248.5364,175,75
2026-05-09 15:53:58.183,5,-1.29,-0.18,-0.92,22.901,112.4118,-13.4436,175,75
2026-05-09 15:53:58.183,5,-1.59,-0.15,-0.39,1.531,40.5818,-108.25359999999999,175,75
2026-05-09 15:53:58.196,5,-1.62,0.0,-0.2,-23.179000000000002,-32.0982,-196.1936,175,75
2026-05-09 15:53:58.207,5,-1.44,0.16,-0.29,-51.099,-102.5082,-251.7336,175,75
2026-05-09 15:53:58.220,5,-0.46,0.27,-0.55,-75.459,-145.6182,-251.7336,175,75
2026-05-09 15:53:58.231,5,1.64,0.48,-0.85,-93.739,-60.328199999999995,-251.7336,175,75
2026-05-09 15:53:58.242,5,1.34,0.79,-0.76,-121.719,70.5818,-139.36360000000002,175,75
2026-05-09 15:53:58.242,5,0.25,0.63,-0.49,-144.639,118.1618,-103.3136,175,75
2026-05-09 15:53:58.257,5,0.27,0.54,-0.27,-153.449,144.6718,-105.50359999999999,175,75
2026-05-09 15:53:58.268,5,0.92,0.41,-0.12,-146.49900000000002,198.1318,-95.0236,175,75
2026-05-09 15:53:58.278,5,2.0,0.45,0.39,-120.929,248.24179999999998,19.6564,175,75
2026-05-09 15:53:58.290,5,1.87,1.8,0.18,-91.119,70.0218,248.5364,175,75
2026-05-09 15:53:58.312,5,2.0,-1.22,2.0,-52.388999999999996,248.24179999999998,248.5364,175,75
2026-05-09 15:53:58.322,5,1.65,-0.99,2.0,20.040999999999997,248.24179999999998,161.4264,175,75
2026-05-09 15:53:58.333,5,-1.2,-0.57,1.69,28.691,248.24179999999998,19.096400000000003,175,75
2026-05-09 15:53:58.333,5,-2.0,-0.49,1.07,24.880999999999997,248.24179999999998,-150.4836,175,75
2026-05-09 15:53:58.349,5,-2.0,-0.78,1.08,17.290999999999997,248.24179999999998,-251.7336,175,75
2026-05-09 15:53:58.360,5,-2.0,-0.96,1.83,17.711,106.6718,-251.7336,175,75
2026-05-09 15:53:58.371,5,-2.0,-0.68,2.0,55.211,-113.9782,-251.7336,175,75
2026-05-09 15:53:58.371,5,-0.64,0.09,2.0,56.291000000000004,-252.0282,-174.9336,175,75
2026-05-09 15:53:58.383,5,-0.41,0.49,2.0,53.181000000000004,-252.0282,-83.7736,175,75
2026-05-09 15:53:58.393,5,0.1,0.62,2.0,42.261,-252.0282,-81.4836,175,75
2026-05-09 15:53:58.407,5,0.4,0.55,1.79,54.421,-252.0282,-67.64359999999999,175,75
2026-05-09 15:53:58.423,5,0.73,0.46,1.52,49.741,-252.0282,-50.6936,175,75
2026-05-09 15:53:58.423,5,0.88,0.33,1.18,26.991,-252.0282,-81.4836,175,75
2026-05-09 15:53:58.433,5,1.08,0.31,0.8,-6.929,-252.0282,-101.9936,175,75
2026-05-09 15:53:58.445,5,1.57,0.12,0.49,-20.149,-252.0282,-110.3436,175,75
2026-05-09 15:53:58.458,5,1.72,0.17,0.31,-13.809,-173.6782,-105.97359999999999,175,75
2026-05-09 15:53:58.468,5,1.22,0.31,0.21,-10.979,-58.2382,-106.2036,175,75
2026-05-09 15:53:58.481,5,0.74,0.32,0.21,-13.839,16.1618,-113.91359999999999,175,75
2026-05-09 15:53:58.493,5,0.41,0.28,0.22,-18.149,61.811800000000005,-120.61359999999999,175,75
2026-05-09 15:53:58.503,5,0.1,0.17,0.22,-13.869,78.87180000000001,-109.3236,175,75
2026-05-09 15:53:58.517,5,-0.03,0.16,0.22,-9.549,62.061800000000005,-93.22359999999999,175,75
2026-05-09 15:53:58.530,5,-0.12,0.16,0.22,-6.769,36.3018,-78.80359999999999,175,75
2026-05-09 15:53:58.540,5,-0.22,0.15,0.15,-4.819,7.081800000000001,-68.28359999999999,175,75
2026-05-09 15:53:58.557,5,-0.24,0.13,0.06,-1.9589999999999999,-23.188200000000002,-57.8836,175,75
2026-05-09 15:53:58.557,5,-0.19,0.11,-0.07,3.151,-53.4482,-42.903600000000004,175,75
2026-05-09 15:53:58.568,5,0.01,0.13,-0.26,13.581,-73.9082,-17.993599999999997,175,75
2026-05-09 15:53:58.578,5,0.28,0.16,-0.48,26.811,-78.12819999999999,23.5164,175,75
2026-05-09 15:53:58.589,5,0.37,0.16,-0.54,49.481,-69.87819999999999,71.35640000000001,175,75
2026-05-09 15:53:58.602,5,0.45,0.31,-0.68,64.291,-53.8582,118.99640000000001,175,75
2026-05-09 15:53:58.612,5,0.23,0.35,-0.63,61.041000000000004,-35.9082,152.7064,175,75
2026-05-09 15:53:58.622,5,0.06,0.31,-0.53,43.621,-25.688200000000002,169.16639999999998,175,75
2026-05-09 15:53:58.633,5,-0.2,-0.13,-0.3,19.301,-5.2682,160.50639999999999,175,75
2026-05-09 15:53:58.646,5,0.05,-0.2,-0.26,12.871,32.7718,111.6464,175,75
2026-05-09 15:53:58.659,5,0.32,-0.22,-0.31,5.291,106.29180000000001,29.886400000000002,175,75
2026-05-09 15:53:58.672,5,0.61,-0.25,-0.3,-0.5490000000000002,183.96179999999998,-38.5636,175,75
2026-05-09 15:53:58.672,5,1.11,-0.31,-0.15,-2.9689999999999994,248.24179999999998,-74.5736,175,75
2026-05-09 15:53:58.687,5,1.69,-0.53,0.69,-0.5090000000000001,248.24179999999998,-64.8536,175,75
2026-05-09 15:53:58.698,5,2.0,0.61,1.73,-12.689,211.1318,14.786399999999999,175,75
2026-05-09 15:53:58.725,5,2.0,0.51,2.0,-28.999000000000002,248.24179999999998,-16.2236,175,75
2026-05-09 15:53:58.738,5,-0.2,-0.29,2.0,5.011,248.24179999999998,-170.89360000000002,175,75
2026-05-09 15:53:58.738,5,-1.17,-0.49,2.0,8.571,248.24179999999998,-213.6636,175,75
2026-05-09 15:53:58.748,5,-2.0,-0.56,1.65,20.851,248.24179999999998,-251.7336,175,75
2026-05-09 15:53:58.759,5,-2.0,-0.15,2.0,32.451,239.50179999999997,-251.7336,175,75
2026-05-09 15:53:58.780,5,-2.0,1.06,2.0,-60.509,-252.0282,-64.1536,175,75
2026-05-09 15:53:58.784,5,-1.39,1.11,2.0,-119.259,-252.0282,-34.1936,175,75
2026-05-09 15:53:58.799,5,-0.04,0.74,2.0,-141.34900000000002,-252.0282,28.456400000000002,175,75
2026-05-09 15:53:58.833,5,0.39,-0.2,2.0,-60.879,-252.0282,175.8764,175,75
2026-05-09 15:53:58.863,5,0.65,-0.37,1.59,-60.549,-252.0282,205.60639999999998,175,75
2026-05-09 15:53:58.874,5,0.87,-0.54,0.95,-57.259,-252.0282,241.0264,175,75
2026-05-09 15:53:58.884,5,0.77,-0.69,0.42,-47.019,-252.0282,248.5364,175,75
2026-05-09 15:53:58.884,5,1.49,-0.8,0.04,-31.949,-252.0282,248.5364,175,75
2026-05-09 15:53:58.960,5,0.9,-0.94,-0.39,-16.159000000000002,-140.12820000000002,66.6464,175,75
2026-05-09 15:53:58.973,5,0.16,-0.88,-0.15,4.641,-41.9082,-1.1436000000000002,175,75
2026-05-09 15:53:59.034,5,-1.22,-0.17,0.11,46.771,32.5118,-221.0936,175,75
2026-05-09 15:53:59.047,5,-1.28,0.16,-0.04,35.431000000000004,5.0418,-251.7336,175,75
2026-05-09 15:53:59.056,5,-0.32,0.67,-0.28,-3.949,-53.3582,-251.7336,175,75
2026-05-09 15:53:59.097,5,0.36,0.65,-0.18,-192.25900000000001,248.24179999999998,-198.7636,175,75
2026-05-09 15:53:59.097,5,0.38,0.32,-0.06,-182.989,248.24179999999998,-211.1236,175,75
2026-05-09 15:53:59.107,5,0.33,0.83,0.31,-66.509,134.24179999999998,61.5364,175,75
2026-05-09 15:53:59.107,5,-0.06,0.34,0.71,-40.849,36.8318,52.666399999999996,175,75
2026-05-09 15:53:59.114,5,0.36,-0.08,0.6,-10.419,-41.508199999999995,182.32639999999998,175,75
2026-05-09 15:53:59.117,5,0.6,-0.17,0.73,-6.968999999999999,-63.3582,248.5364,175,75
2026-05-09 15:53:59.128,5,0.93,-0.26,1.09,-22.549000000000003,-111.7482,248.5364,175,75
2026-05-09 15:53:59.128,5,1.6,-0.53,1.33,-19.819000000000003,-91.0782,248.5364,175,75
2026-05-09 15:53:59.142,5,1.98,-1.07,1.8,21.630999999999997,29.471799999999998,248.5364,175,75
2026-05-09 15:53:59.147,5,1.44,-1.48,2.0,47.041000000000004,103.6418,74.2964,175,75
2026-05-09 15:53:59.158,5,1.99,-1.07,2.0,16.741,248.24179999999998,-55.8136,175,75
2026-05-09 15:53:59.158,5,0.48,-0.97,2.0,-25.479000000000003,248.24179999999998,-116.5236,175,75
2026-05-09 15:53:59.171,5,-0.9,-1.08,1.59,-33.708999999999996,248.24179999999998,-200.3736,175,75
2026-05-09 15:53:59.182,5,-1.56,-0.75,1.79,50.431000000000004,248.24179999999998,-251.7336,175,75
2026-05-09 15:53:59.194,5,-1.47,-0.07,2.0,51.491,162.4818,-251.7336,175,75
2026-05-09 15:53:59.204,5,-1.04,0.13,2.0,20.880999999999997,55.381800000000005,-251.7336,175,75
2026-05-09 15:53:59.216,5,-0.9,0.81,2.0,-53.028999999999996,-157.5482,-247.1236,175,75
2026-05-09 15:53:59.226,5,-0.76,0.65,1.9,-64.249,-189.06820000000002,-209.7136,175,75
2026-05-09 15:53:59.226,5,-0.39,0.31,1.57,-34.019,-216.2682,-137.2236,175,75
2026-05-09 15:53:59.255,5,-0.14,0.07,1.11,52.121,-252.0282,47.7864,175,75
2026-05-09 15:53:59.255,5,-0.03,0.12,0.92,70.151,-252.0282,99.8664,175,75
2026-05-09 15:53:59.266,5,0.48,0.16,0.73,76.541,-252.0282,158.41639999999998,175,75
2026-05-09 15:53:59.266,5,0.86,0.29,0.43,69.681,-252.0282,215.41639999999998,175,75
2026-05-09 15:53:59.280,5,1.27,0.04,-0.21,71.611,-249.8582,248.3464,175,75
2026-05-09 15:53:59.291,5,2.0,0.03,-1.71,110.741,-109.4382,248.5364,175,75
2026-05-09 15:53:59.302,5,1.84,-0.52,-1.29,144.65099999999998,100.3818,225.0564,175,75
2026-05-09 15:53:59.302,5,-0.49,-0.17,-1.48,104.20100000000001,133.6318,46.386399999999995,175,75
2026-05-09 15:53:59.314,5,-1.1,-0.21,-0.78,63.921,77.9118,-78.7336,175,75
2026-05-09 15:53:59.324,5,-1.29,-0.11,-0.36,31.610999999999997,12.8618,-146.24360000000001,175,75
2026-05-09 15:53:59.336,5,-1.33,0.07,-0.14,-6.679,-55.3182,-203.77360000000002,175,75
2026-05-09 15:53:59.348,5,-1.1,0.14,-0.2,-47.199,-119.3282,-241.4636,175,75
2026-05-09 15:53:59.362,5,-0.66,0.18,-0.35,-79.729,-165.5882,-251.7336,175,75
2026-05-09 15:53:59.374,5,1.66,0.64,-0.53,-126.079,0.35180000000000033,-203.8836,175,75
2026-05-09 15:53:59.386,5,1.11,0.79,-0.44,-147.299,92.5718,-157.5336,175,75
2026-05-09 15:53:59.403,5,1.17,0.65,-0.31,-158.709,170.3618,-121.7436,175,75
2026-05-09 15:53:59.403,5,1.73,0.34,-0.03,-145.43900000000002,248.24179999999998,-56.4836,175,75
2026-05-09 15:53:59.413,5,2.0,0.26,1.18,-92.479,248.24179999999998,129.07639999999998,175,75
2026-05-09 15:53:59.424,5,1.79,0.79,2.0,-92.789,151.75179999999997,248.5364,175,75
2026-05-09 15:53:59.436,5,2.0,0.15,2.0,-101.059,136.6918,248.5364,175,75
2026-05-09 15:53:59.450,5,2.0,-1.06,2.0,-58.579,248.24179999999998,177.2764,175,75
2026-05-09 15:53:59.462,5,-0.17,-0.83,2.0,-15.188999999999998,248.24179999999998,40.6464,175,75
2026-05-09 15:53:59.484,5,-2.0,-0.88,1.45,35.681000000000004,248.24179999999998,-251.7336,175,75
2026-05-09 15:53:59.495,5,-2.0,-0.86,1.56,47.511,248.24179999999998,-251.7336,175,75
2026-05-09 15:53:59.495,5,-2.0,-0.27,2.0,75.071,-44.1282,-251.7336,175,75
2026-05-09 15:53:59.506,5,-1.74,0.34,2.0,70.761,-252.0282,-91.9936,175,75
2026-05-09 15:53:59.516,5,-1.15,0.67,2.0,47.301,-252.0282,-32.4536,175,75
2026-05-09 15:53:59.527,5,-0.29,0.66,2.0,34.501000000000005,-252.0282,-20.8236,175,75
2026-05-09 15:53:59.538,5,0.08,0.4,2.0,59.421,-252.0282,10.6164,175,75
2026-05-09 15:53:59.552,5,0.42,0.27,1.75,51.831,-252.0282,36.346399999999996,175,75
2026-05-09 15:53:59.558,5,0.74,0.02,1.39,26.980999999999998,-252.0282,9.0864,175,75
2026-05-09 15:53:59.568,5,0.85,-0.11,0.87,-5.709,-252.0282,-7.3636,175,75
2026-05-09 15:53:59.582,5,1.31,-0.25,0.52,-24.399,-252.0282,-20.063599999999997,175,75
2026-05-09 15:53:59.582,5,1.93,-0.27,0.35,-15.979000000000001,-252.0282,-34.9636,175,75
2026-05-09 15:53:59.595,5,1.5,-0.14,0.2,-6.599,-131.0182,-63.5736,175,75
2026-05-09 15:53:59.619,5,0.87,-0.07,0.2,-4.669,-21.528200000000002,-90.6536,175,75
2026-05-09 15:53:59.629,5,0.55,-0.08,0.27,-2.199,58.2618,-108.3136,175,75
2026-05-09 15:53:59.629,5,0.28,-0.05,0.28,3.851,109.9418,-119.0636,175,75
2026-05-09 15:53:59.640,5,0.04,0.02,0.26,8.850999999999999,143.5818,-137.2536,175,75
2026-05-09 15:53:59.645,5,-0.15,0.13,0.25,10.161,149.4218,-164.36360000000002,175,75
2026-05-09 15:53:59.674,5,-0.11,0.32,0.24,0.6509999999999999,87.8618,-172.9336,175,75
2026-05-09 15:53:59.674,5,-0.05,0.38,0.17,-7.4990000000000006,39.1818,-143.3836,175,75
2026-05-09 15:53:59.692,5,-0.06,0.43,0.07,-11.869,-14.1982,-103.64359999999999,175,75
2026-05-09 15:53:59.692,5,-0.02,0.39,-0.04,-12.289,-51.538199999999996,-74.78359999999999,175,75
2026-05-09 15:53:59.712,5,0.16,0.31,-0.2,-4.929,-66.1382,-45.4836,175,75
2026-05-09 15:53:59.712,5,0.27,0.22,-0.36,11.261000000000001,-66.9082,-3.1236,175,75
2026-05-09 15:53:59.726,5,0.27,0.16,-0.53,28.200999999999997,-61.1982,48.1564,175,75
2026-05-09 15:53:59.737,5,0.26,0.08,-0.47,57.431000000000004,-52.1082,102.55640000000001,175,75
2026-05-09 15:53:59.768,5,0.07,0.06,-0.28,62.391000000000005,-66.6582,195.0964,175,75
2026-05-09 15:53:59.778,5,0.83,-0.11,-0.39,47.251000000000005,-0.1681999999999999,176.3464,175,75
2026-05-09 15:53:59.791,5,1.16,-0.39,-0.5,46.431000000000004,124.6818,122.1264,175,75
2026-05-09 15:53:59.792,5,1.15,-0.48,-0.37,55.311,243.31179999999998,83.38640000000001,175,75
2026-05-09 15:53:59.806,5,1.17,-0.37,0.11,51.231,248.24179999999998,69.16640000000001,175,75
2026-05-09 15:53:59.832,5,0.87,-0.82,2.0,19.680999999999997,161.4818,-91.2936,175,75
2026-05-09 15:53:59.842,5,2.0,0.17,2.0,-16.249000000000002,248.24179999999998,-146.9636,175,75
2026-05-09 15:53:59.854,5,-0.69,-0.34,2.0,-55.028999999999996,248.24179999999998,-251.7336,175,75
2026-05-09 15:53:59.865,5,-2.0,-0.53,2.0,-41.979,248.24179999999998,-251.7336,175,75
2026-05-09 15:53:59.887,5,-2.0,-0.13,2.0,-29.329,248.24179999999998,-251.7336,175,75
2026-05-09 15:53:59.929,5,-2.0,0.21,2.0,-33.769,90.7218,-125.2636,175,75
2026-05-09 15:53:59.929,5,-2.0,0.6,2.0,-55.869,-105.3582,-51.9636,175,75
2026-05-09 15:53:59.979,5,-0.51,0.17,2.0,-51.388999999999996,-252.0282,153.7364,175,75
2026-05-09 15:53:59.997,5,-0.32,-0.14,1.7,-48.568999999999996,-252.0282,225.3064,175,75
2026-05-09 15:54:00.028,5,1.66,-0.93,-0.19,-27.809,-252.0282,248.5364,175,75
2026-05-09 15:54:00.076,5,1.52,-1.14,-0.88,-9.499,-155.1982,-20.383599999999998,175,75
2026-05-09 15:54:00.098,5,-0.12,-0.7,0.21,56.211,33.5418,-83.0236,175,75
2026-05-09 15:54:00.112,5,-0.98,-0.25,0.3,91.311,78.2718,-158.92360000000002,175,75
2026-05-09 15:54:00.112,5,-1.23,-0.06,0.22,88.73100000000001,62.29180000000001,-226.6536,175,75
2026-05-09 15:54:00.138,5,-1.25,0.12,0.06,75.09100000000001,25.2718,-251.7336,175,75
2026-05-09 15:54:00.138,5,-1.14,0.2,-0.22,55.291000000000004,-25.7982,-251.7336,175,75
2026-05-09 15:54:00.169,5,1.32,0.81,-0.6,14.871,-55.258199999999995,-251.7336,175,75
2026-05-09 15:54:00.193,5,0.29,0.89,-0.62,-95.54899999999999,174.4818,-80.7336,175,75
2026-05-09 15:54:00.196,5,0.32,0.46,-0.41,-96.969,217.93179999999998,-92.58359999999999,175,75
2026-05-09 15:54:00.203,5,0.35,0.2,-0.24,-84.219,248.24179999999998,-77.94359999999999,175,75
2026-05-09 15:54:00.256,5,0.26,0.05,-0.11,-66.839,248.24179999999998,-44.6736,175,75
2026-05-09 15:54:00.256,5,0.57,0.15,0.24,-43.888999999999996,156.28179999999998,94.5464,175,75
2026-05-09 15:54:00.295,5,0.13,0.23,0.86,-22.399,-5.5782,228.3964,175,75
2026-05-09 15:54:00.308,5,0.45,-0.26,1.26,-34.339,-43.538199999999996,230.35639999999998,175,75
2026-05-09 15:54:00.344,5,1.08,-0.6,2.0,-28.269000000000002,-8.2582,220.6164,175,75
2026-05-09 15:54:00.344,5,2.0,-0.81,2.0,-22.379,72.1918,-18.063599999999997,175,75
2026-05-09 15:54:00.356,5,-1.96,-0.43,1.9,39.611000000000004,217.00179999999997,-210.36360000000002,175,75
2026-05-09 15:54:00.366,5,-2.0,-0.04,2.0,20.450999999999997,75.15180000000001,-251.7336,175,75
2026-05-09 15:54:00.367,5,-0.34,0.45,2.0,-65.559,-247.81820000000002,-244.0336,175,75
2026-05-09 15:54:00.378,5,-0.18,0.33,1.97,-48.469,-252.0282,-152.02360000000002,175,75
2026-05-09 15:54:00.378,5,-0.27,0.15,1.29,52.951,-240.49820000000003,-47.1036,175,75
2026-05-09 15:54:00.389,5,-0.3,0.2,1.06,78.70100000000001,-252.0282,-9.733600000000001,175,75
2026-05-09 15:54:00.415,5,0.06,0.24,0.59,74.061,-252.0282,42.7464,175,75
2026-05-09 15:54:00.415,5,0.36,0.18,0.19,68.321,-252.0282,104.52640000000001,175,75
2026-05-09 15:54:00.429,5,2.0,0.08,-1.68,99.011,-247.21820000000002,248.5364,175,75
2026-05-09 15:54:00.447,5,0.27,0.34,-1.71,83.471,91.9318,212.8964,175,75
2026-05-09 15:54:00.447,5,-0.83,-0.27,-1.16,32.071,108.04180000000001,52.1464,175,75
2026-05-09 15:54:00.463,5,-1.26,-0.4,-0.6,8.841,54.9118,-33.0836,175,75
2026-05-09 15:54:00.477,5,-1.48,-0.31,-0.3,-6.069,-13.2982,-98.86359999999999,175,75
2026-05-09 15:54:00.477,5,-1.41,-0.18,-0.25,-24.629,-80.12819999999999,-162.4136,175,75
2026-05-09 15:54:00.509,5,-0.88,-0.01,-0.32,-50.219,-121.5682,-216.64360000000002,175,75
2026-05-09 15:54:00.519,5,-0.12,0.07,-0.4,-78.709,-105.5582,-251.7336,175,75
2026-05-09 15:54:00.554,5,1.39,0.5,-0.3,-122.219,69.7118,-251.7336,175,75
2026-05-09 15:54:00.565,5,1.62,0.74,-0.16,-155.03900000000002,175.56179999999998,-250.67360000000002,175,75
2026-05-09 15:54:00.565,5,1.82,0.55,-0.13,-172.93900000000002,248.24179999999998,-146.1536,175,75
2026-05-09 15:54:00.577,5,2.0,0.6,0.53,-144.139,248.24179999999998,46.2864,175,75
2026-05-09 15:54:00.577,5,1.39,0.36,1.7,-118.29899999999999,68.9618,245.0864,175,75
2026-05-09 15:54:00.577,5,2.0,0.6,2.0,-126.429,0.7518000000000002,248.5364,175,75
2026-05-09 15:54:00.588,5,2.0,-0.78,2.0,-109.749,248.24179999999998,156.5864,175,75
2026-05-09 15:54:00.606,5,-1.04,-0.81,1.51,-1.5090000000000001,248.24179999999998,-25.7336,175,75
2026-05-09 15:54:00.622,5,-2.0,-0.69,1.08,24.901,248.24179999999998,-131.1636,175,75
2026-05-09 15:54:00.622,5,-2.0,-0.89,1.16,33.051,248.24179999999998,-223.74360000000001,175,75
2026-05-09 15:54:00.649,5,-1.03,-0.01,2.0,46.451,-252.0282,-92.5636,175,75
2026-05-09 15:54:00.656,5,-0.41,0.43,2.0,35.061,-252.0282,-65.7336,175,75
2026-05-09 15:54:00.679,5,0.22,0.33,1.8,45.721000000000004,-252.0282,-29.1236,175,75
2026-05-09 15:54:00.679,5,0.28,0.25,1.46,33.931000000000004,-252.0282,-19.1236,175,75
2026-05-09 15:54:00.690,5,0.33,0.16,1.14,15.071,-252.0282,-45.793600000000005,175,75
2026-05-09 15:54:00.690,5,0.45,0.23,0.81,-10.029,-252.0282,-84.7036,175,75
2026-05-09 15:54:00.712,5,0.81,0.2,0.49,-37.269,-252.0282,-143.4636,175,75
2026-05-09 15:54:00.721,5,0.97,0.24,0.35,-38.818999999999996,-209.7782,-176.77360000000002,175,75
2026-05-09 15:54:00.742,5,1.17,0.42,-0.09,-18.479000000000003,-34.548199999999994,-117.9536,175,75
2026-05-09 15:54:00.754,5,0.28,0.49,-0.01,-11.919,74.29180000000001,-95.44359999999999,175,75
2026-05-09 15:54:00.785,5,-0.21,0.45,-0.26,-23.169,99.6318,-117.22359999999999,175,75
2026-05-09 15:54:00.820,5,-0.14,0.29,-0.58,16.741,9.1918,80.13640000000001,175,75
2026-05-09 15:54:00.832,5,-0.22,0.18,-0.58,28.491,-30.3682,148.4064,175,75
2026-05-09 15:54:00.843,5,-0.15,0.04,-0.63,42.981,-71.4782,220.4264,175,75
2026-05-09 15:54:00.843,5,-0.05,-0.07,-0.61,59.191,-102.73819999999999,248.5364,175,75
2026-05-09 15:54:00.881,5,1.13,-0.41,-0.73,73.521,119.2118,215.4264,175,75
2026-05-09 15:54:00.891,5,0.93,-0.5,-0.75,82.321,248.24179999999998,112.8764,175,75
2026-05-09 15:54:00.938,5,2.0,0.32,2.0,-38.729,248.24179999999998,-155.5036,175,75
2026-05-09 15:54:00.951,5,0.85,0.07,2.0,-56.419,248.24179999999998,-219.9736,175,75
2026-05-09 15:54:00.965,5,-2.0,-0.28,2.0,-13.399,248.24179999999998,-251.7336,175,75
2026-05-09 15:54:00.976,5,-2.0,0.28,2.0,-2.6290000000000004,201.4218,-251.7336,175,75
2026-05-09 15:54:01.000,5,-2.0,1.03,2.0,-45.549,-188.5882,-112.2936,175,75
2026-05-09 15:54:01.012,5,-2.0,1.16,2.0,-74.639,-252.0282,-75.8136,175,75
2026-05-09 15:54:01.054,5,0.72,0.07,1.65,-10.329,-252.0282,248.5364,175,75
2026-05-09 15:54:01.057,5,0.49,-0.01,1.32,-28.469,-252.0282,248.5364,175,75
2026-05-09 15:54:01.105,5,2.0,-1.29,-0.33,-44.219,-252.0282,248.5364,175,75
2026-05-09 15:54:01.116,5,1.48,-1.22,-0.38,-21.899,-92.2582,112.71640000000001,175,75
2026-05-09 15:54:01.146,5,0.4,-1.15,-0.05,-2.109,24.1818,19.9864,175,75
2026-05-09 15:54:01.146,5,-0.27,-0.9,0.23,28.101,89.5818,-47.4436,175,75
2026-05-09 15:54:01.176,5,-1.05,-0.44,0.29,71.601,108.6618,-186.0036,175,75
2026-05-09 15:54:01.223,5,-0.94,0.14,0.15,55.291000000000004,53.961800000000004,-251.7336,175,75
2026-05-09 15:54:01.223,5,-0.79,0.42,-0.03,24.721,4.6617999999999995,-251.7336,175,75
2026-05-09 15:54:01.259,5,1.43,0.56,-0.1,-40.028999999999996,-47.548199999999994,-251.7336,175,75
2026-05-09 15:54:01.259,5,1.97,1.24,-0.82,-76.54899999999999,9.6318,-197.5736,175,75
2026-05-09 15:54:01.270,5,0.68,0.98,-0.38,-88.579,21.8918,-111.9936,175,75
2026-05-09 15:54:01.281,5,0.12,0.15,0.06,-83.869,74.8018,-134.08360000000002,175,75
2026-05-09 15:54:01.293,5,0.05,0.06,0.12,-53.979,90.6318,-125.2736,175,75
2026-05-09 15:54:01.293,5,0.05,0.16,0.15,-25.439,65.9118,-67.1536,175,75
2026-05-09 15:54:01.300,5,0.06,0.22,0.35,-14.159,33.8418,-6.2236,175,75
2026-05-09 15:54:01.301,5,0.23,0.16,0.39,-8.929,15.1118,43.456399999999995,175,75
2026-05-09 15:54:01.312,5,0.48,0.08,0.44,-3.8389999999999995,7.341800000000001,104.55640000000001,175,75
2026-05-09 15:54:01.350,5,0.94,-0.95,2.0,11.311,93.90180000000001,48.5764,175,75
2026-05-09 15:54:01.350,5,2.0,-0.62,2.0,-35.379,248.24179999999998,-76.5236,175,75
2026-05-09 15:54:01.360,5,0.72,-0.87,2.0,-75.469,248.24179999999998,-123.86359999999999,175,75
2026-05-09 15:54:01.366,5,-0.56,-0.95,1.46,-55.989,248.24179999999998,-170.77360000000002,175,75
2026-05-09 15:54:01.379,5,-1.34,-0.74,1.19,-11.359,248.24179999999998,-173.83360000000002,175,75
2026-05-09 15:54:01.402,5,-1.7,-0.03,2.0,-39.009,13.1818,-251.7336,175,75
2026-05-09 15:54:01.413,5,-1.43,0.02,2.0,-61.169,-106.2282,-251.7336,175,75
2026-05-09 15:54:01.413,5,-0.82,0.04,2.0,-67.669,-194.99820000000003,-228.99360000000001,175,75
2026-05-09 15:54:01.425,5,-0.51,-0.08,2.0,-45.208999999999996,-230.8582,-156.4836,175,75
2026-05-09 15:54:01.441,5,-0.46,-0.15,1.64,4.991,-235.6782,-103.9636,175,75
2026-05-09 15:54:01.443,5,-0.54,-0.05,1.3,63.901,-252.0282,-60.5636,175,75
2026-05-09 15:54:01.462,5,-0.31,0.18,1.0,81.011,-252.0282,-40.0936,175,75
2026-05-09 15:54:01.473,5,-0.42,0.33,0.78,74.351,-252.0282,-44.5936,175,75
2026-05-09 15:54:01.473,5,-0.19,0.36,0.52,56.241,-252.0282,-52.4236,175,75
2026-05-09 15:54:01.495,5,0.2,0.38,0.2,36.751000000000005,-252.0282,-42.8436,175,75
2026-05-09 15:54:01.506,5,2.0,0.17,-1.99,23.811,-247.49820000000003,83.74640000000001,175,75
2026-05-09 15:54:01.519,5,2.0,0.61,-2.0,66.561,29.9518,138.16639999999998,175,75
2026-05-09 15:54:01.534,5,-1.17,0.04,-0.85,-10.949,46.3918,-67.0436,175,75
2026-05-09 15:54:01.547,5,-1.39,0.01,-0.52,-32.678999999999995,-41.6782,-126.7436,175,75
2026-05-09 15:54:01.566,5,-0.27,0.38,-0.34,-85.01899999999999,-123.9682,-231.2936,175,75
2026-05-09 15:54:01.581,5,0.94,0.55,-0.41,-105.529,-50.828199999999995,-220.7336,175,75
2026-05-09 15:54:01.606,5,0.91,0.44,-0.31,-124.809,194.2918,-9.0636,175,75
2026-05-09 15:54:01.621,5,1.06,0.43,0.0,-108.839,240.74179999999998,49.8764,175,75
2026-05-09 15:54:01.632,5,1.04,0.5,1.03,-62.479,141.8818,167.79639999999998,175,75
2026-05-09 15:54:01.643,5,1.49,0.6,2.0,-58.839,26.471799999999998,200.8764,175,75
2026-05-09 15:54:01.655,5,2.0,0.3,2.0,-71.629,23.1618,167.3764,175,75
2026-05-09 15:54:01.662,5,2.0,-0.32,2.0,-94.129,248.24179999999998,102.3664,175,75
2026-05-09 15:54:01.679,5,0.88,-1.07,2.0,-15.909,248.24179999999998,66.5164,175,75
2026-05-09 15:54:01.679,5,-0.84,-0.89,1.15,47.491,248.24179999999998,32.136399999999995,175,75
2026-05-09 15:54:01.704,5,-2.0,-0.82,0.74,82.781,248.24179999999998,-16.7836,175,75
2026-05-09 15:54:01.729,5,-2.0,-0.55,1.58,69.761,42.9018,-91.03359999999999,175,75
2026-05-09 15:54:01.729,5,-1.89,-0.48,2.0,39.001000000000005,-109.2282,-127.8136,175,75
2026-05-09 15:54:01.750,5,-1.07,-0.38,2.0,45.241,-229.4882,-193.3136,175,75
2026-05-09 15:54:01.750,5,-0.32,-0.29,2.0,63.571000000000005,-252.0282,-189.99360000000001,175,75
2026-05-09 15:54:01.764,5,0.09,0.09,1.53,79.98100000000001,-252.0282,-135.80360000000002,175,75
2026-05-09 15:54:01.764,5,0.29,0.38,1.34,73.001,-252.0282,-114.5936,175,75
2026-05-09 15:54:01.774,5,0.57,0.53,1.21,43.271,-252.0282,-109.0636,175,75
2026-05-09 15:54:01.785,5,0.89,0.62,1.09,4.441,-252.0282,-101.69359999999999,175,75
2026-05-09 15:54:01.785,5,1.12,0.54,0.84,-32.579,-239.5182,-83.5136,175,75
2026-05-09 15:54:01.808,5,1.35,0.17,0.21,-47.858999999999995,-109.2282,-80.1336,175,75
2026-05-09 15:54:01.820,5,1.34,0.08,0.03,-30.299000000000003,-30.6582,-83.9936,175,75
2026-05-09 15:54:01.833,5,0.65,0.19,0.58,-25.549000000000003,77.2518,-96.2736,175,75
2026-05-09 15:54:01.860,5,0.14,0.14,0.56,-16.189,80.7318,-71.36359999999999,175,75
2026-05-09 15:54:01.895,5,-0.4,0.32,0.57,-20.019000000000002,-15.7682,-88.4036,175,75
2026-05-09 15:54:01.925,5,-0.24,0.24,0.12,-26.199,-125.1982,-132.2336,175,75
2026-05-09 15:54:01.925,5,0.16,0.24,-0.08,-15.089,-133.21820000000002,-118.6036,175,75
2026-05-09 15:54:01.939,5,0.78,0.33,-0.34,-2.739,-108.6882,-62.7736,175,75
2026-05-09 15:54:01.967,5,0.01,0.21,-0.66,36.291000000000004,-45.538199999999996,112.21640000000001,175,75
2026-05-09 15:54:01.981,5,0.01,0.1,-0.54,40.441,-59.4982,134.8964,175,75
2026-05-09 15:54:01.991,5,0.47,-0.0,-0.4,37.741,-43.578199999999995,151.2064,175,75
2026-05-09 15:54:02.005,5,1.33,-0.21,-0.46,32.731,55.711800000000004,136.6464,175,75
2026-05-09 15:54:02.015,5,1.61,-0.38,-0.5,32.681,201.2918,104.5164,175,75
2026-05-09 15:54:02.015,5,1.39,-0.4,-0.13,29.171,248.24179999999998,104.5664,175,75
2026-05-09 15:54:02.028,5,2.0,-0.74,1.48,17.261,248.24179999999998,160.2664,175,75
2026-05-09 15:54:02.039,5,0.56,-1.1,2.0,-4.979,148.2018,109.16640000000001,175,75
2026-05-09 15:54:02.051,5,1.18,-0.89,2.0,-3.5489999999999995,73.8618,-29.8936,175,75
2026-05-09 15:54:02.078,5,-0.66,-0.68,2.0,-9.738999999999999,248.24179999999998,-251.7336,175,75
2026-05-09 15:54:02.089,5,-1.31,-0.43,2.0,22.601,248.24179999999998,-251.7336,175,75
2026-05-09 15:54:02.089,5,-2.0,-0.45,2.0,52.471000000000004,248.24179999999998,-251.7336,175,75
2026-05-09 15:54:02.100,5,-2.0,0.32,2.0,73.291,170.8818,-251.7336,175,75
2026-05-09 15:54:02.110,5,-2.0,0.99,2.0,48.031,-119.5182,-251.7336,175,75
2026-05-09 15:54:02.141,5,-1.55,1.45,2.0,-38.059,-252.0282,-184.9136,175,75
2026-05-09 15:54:02.150,5,-0.54,1.14,2.0,-26.059,-252.0282,-133.0336,175,75
2026-05-09 15:54:02.170,5,1.96,0.42,1.08,14.111,-252.0282,245.38639999999998,175,75
2026-05-09 15:54:02.181,5,2.0,0.21,0.46,26.380999999999997,-252.0282,248.5364,175,75
2026-05-09 15:54:02.195,5,1.77,0.15,0.0,49.431000000000004,-252.0282,248.5364,175,75
2026-05-09 15:54:02.196,5,2.0,-0.16,-0.65,44.681000000000004,-236.3582,248.5364,175,75
2026-05-09 15:54:02.207,5,1.78,-0.84,-0.85,35.011,-23.8882,248.5364,175,75
2026-05-09 15:54:02.219,5,0.4,-0.57,-0.16,42.801,80.6318,243.94639999999998,175,75
2026-05-09 15:54:02.231,5,-0.34,-0.46,0.25,42.651,140.28179999999998,171.5864,175,75
2026-05-09 15:54:02.254,5,-1.35,-0.49,0.35,59.891000000000005,153.03179999999998,21.5864,175,75
2026-05-09 15:54:02.258,5,-1.58,-0.41,0.3,58.411,111.0818,-65.3036,175,75
2026-05-09 15:54:02.273,5,-1.51,-0.26,0.2,47.001000000000005,46.7618,-154.8536,175,75
2026-05-09 15:54:02.284,5,-1.24,-0.03,0.12,23.871,-23.8682,-226.2536,175,75
2026-05-09 15:54:02.317,5,1.72,0.65,-0.34,-93.839,-59.008199999999995,-251.7336,175,75
2026-05-09 15:54:02.348,5,0.17,0.43,0.12,-36.849,106.8018,-156.8736,175,75
2026-05-09 15:54:02.360,5,0.19,0.28,0.28,-25.649,68.6118,-90.6236,175,75
2026-05-09 15:54:02.370,5,0.2,0.25,0.36,-14.389,31.131800000000002,-16.7336,175,75
2026-05-09 15:54:02.382,5,0.47,0.24,0.36,-12.509,11.421800000000001,59.6064,175,75
2026-05-09 15:54:02.392,5,0.75,0.2,0.61,-10.809,10.2918,141.7464,175,75
2026-05-09 15:54:02.402,5,1.04,0.27,0.92,-14.419,6.581800000000001,229.6264,175,75
2026-05-09 15:54:02.420,5,1.55,0.16,1.49,-21.509,1.2718000000000003,248.5364,175,75
2026-05-09 15:54:02.445,5,1.28,-0.77,2.0,-8.279,106.6718,248.5364,175,75
2026-05-09 15:54:02.459,5,2.0,-0.79,2.0,-21.419,152.40179999999998,69.74640000000001,175,75
2026-05-09 15:54:02.482,5,-0.63,-1.02,1.78,-48.299,248.24179999999998,-122.9236,175,75
2026-05-09 15:54:02.482,5,-0.93,-0.96,1.21,-14.909,248.24179999999998,-165.77360000000002,175,75
2026-05-09 15:54:02.493,5,-0.96,-0.72,1.63,26.441,200.4718,-170.1836,175,75
2026-05-09 15:54:02.504,5,-0.84,0.03,2.0,26.110999999999997,105.0318,-172.3736,175,75
2026-05-09 15:54:02.515,5,-0.72,0.39,2.0,-28.899,-62.188199999999995,-237.5736,175,75
2026-05-09 15:54:02.525,5,-0.56,0.13,2.0,-35.739,-115.2282,-250.4736,175,75
2026-05-09 15:54:02.525,5,-0.22,0.05,1.63,-15.459000000000001,-180.8882,-185.7936,175,75
2026-05-09 15:54:02.537,5,-0.13,0.05,1.32,15.511000000000001,-211.6482,-110.97359999999999,175,75
2026-05-09 15:54:02.548,5,-0.08,0.16,1.14,33.921,-220.99820000000003,-60.933600000000006,175,75
2026-05-09 15:54:02.561,5,-0.04,0.24,1.0,34.671,-227.8082,-24.5136,175,75
2026-05-09 15:54:02.572,5,0.07,0.24,0.79,25.840999999999998,-232.9882,5.586399999999999,175,75
2026-05-09 15:54:02.598,5,0.41,0.13,-0.02,24.340999999999998,-235.1682,77.41640000000001,175,75
2026-05-09 15:54:02.609,5,1.52,0.19,-0.63,29.921,-191.3882,127.58640000000001,175,75
2026-05-09 15:54:02.619,5,2.0,0.2,-1.47,31.641,-39.6982,129.32639999999998,175,75
2026-05-09 15:54:02.637,5,0.6,0.14,-1.43,21.950999999999997,77.0218,13.8164,175,75
2026-05-09 15:54:02.637,5,-0.31,-0.24,-0.99,-1.199,88.0018,-71.33359999999999,175,75
2026-05-09 15:54:02.677,5,-1.03,-0.32,-0.48,-4.468999999999999,-28.738200000000003,-122.3436,175,75
2026-05-09 15:54:02.743,5,1.37,0.45,-0.23,-134.50900000000001,248.24179999999998,19.846400000000003,175,75
2026-05-09 15:54:02.752,5,1.75,0.38,0.39,-100.959,248.24179999999998,79.8464,175,75
2026-05-09 15:54:02.769,5,1.6,0.73,1.24,-68.289,173.09179999999998,206.4664,175,75
2026-05-09 15:54:02.769,5,1.58,0.69,2.0,-75.51899999999999,73.4818,190.19639999999998,175,75
2026-05-09 15:54:02.792,5,1.95,-0.61,2.0,-111.479,248.24179999999998,-7.123600000000001,175,75
2026-05-09 15:54:02.810,5,-2.0,0.1,1.48,-25.099,248.24179999999998,-97.9036,175,75
2026-05-09 15:54:02.810,5,-2.0,-0.89,0.98,9.981,248.24179999999998,-111.6536,175,75
2026-05-09 15:54:02.819,5,-2.0,-0.68,1.74,40.651,66.7318,-91.66359999999999,175,75
2026-05-09 15:54:02.827,5,-1.91,0.08,2.0,54.091,-148.6782,-27.6936,175,75
2026-05-09 15:54:02.839,5,-1.3,-0.02,2.0,57.271,-252.0282,-2.5436,175,75
2026-05-09 15:54:02.850,5,-0.52,0.31,2.0,48.221000000000004,-252.0282,-13.9636,175,75
2026-05-09 15:54:02.859,5,0.19,0.23,2.0,45.891000000000005,-252.0282,-17.5336,175,75
2026-05-09 15:54:02.868,5,0.71,0.07,1.68,44.631,-252.0282,-7.413600000000001,175,75
2026-05-09 15:54:02.920,5,1.66,0.22,0.16,48.281,-76.2882,2.4863999999999997,175,75
2026-05-09 15:54:02.934,5,0.8,0.13,0.33,37.441,31.841799999999996,-30.923599999999997,175,75
2026-05-09 15:54:02.946,5,0.45,0.1,0.46,27.421,102.5518,-57.7736,175,75
2026-05-09 15:54:02.956,5,0.24,0.13,0.58,19.860999999999997,139.5418,-93.1236,175,75
2026-05-09 15:54:03.001,5,-0.03,0.29,0.57,39.191,-29.8582,-39.3236,175,75
2026-05-09 15:54:03.008,5,-0.18,0.25,0.45,42.711,-50.2282,-29.9436,175,75
2026-05-09 15:54:03.025,5,-0.21,0.17,0.27,48.171,-65.6182,-23.1636,175,75
2026-05-09 15:54:03.036,5,-0.11,0.09,-0.03,63.801,-85.1882,-1.7636,175,75
2026-05-09 15:54:03.053,5,0.12,0.21,-0.49,105.781,-111.7682,96.3264,175,75
2026-05-09 15:54:03.065,5,0.17,0.19,-0.25,128.301,-111.8682,137.5864,175,75
2026-05-09 15:54:03.075,5,0.17,0.23,-0.56,135.661,-110.20819999999999,182.7664,175,75
2026-05-09 15:54:03.087,5,0.08,-0.03,-0.45,150.40099999999998,-120.23819999999999,248.5364,175,75
2026-05-09 15:54:03.103,5,0.47,-0.11,-0.38,143.331,-94.2282,248.5364,175,75
2026-05-09 15:54:03.117,5,0.64,-0.49,-0.46,118.681,102.5518,230.35639999999998,175,75
2026-05-09 15:54:03.127,5,0.34,-0.45,-0.24,110.23100000000001,175.65179999999998,204.22639999999998,175,75
2026-05-09 15:54:03.155,5,0.71,-0.48,0.46,77.311,248.24179999999998,152.6164,175,75
2026-05-09 15:54:03.178,5,2.0,1.16,2.0,-84.559,248.24179999999998,-251.7336,175,75
2026-05-09 15:54:03.208,5,-0.1,-0.19,2.0,-176.839,248.24179999999998,-220.4836,175,75
2026-05-09 15:54:03.219,5,-1.43,-0.3,1.91,-125.01899999999999,248.24179999999998,-229.5936,175,75
2026-05-09 15:54:03.230,5,-2.0,-0.24,2.0,-66.249,248.24179999999998,-208.2636,175,75
2026-05-09 15:54:03.246,5,-2.0,0.15,2.0,-35.289,120.8118,-82.3736,175,75
2026-05-09 15:54:03.246,5,-2.0,0.46,2.0,-47.748999999999995,-51.078199999999995,9.8064,175,75
2026-05-09 15:54:03.259,5,-2.0,0.49,2.0,-73.059,-178.9482,79.3264,175,75
2026-05-09 15:54:03.259,5,-1.28,0.15,2.0,-69.609,-252.0282,133.16639999999998,175,75
2026-05-09 15:54:03.268,5,-0.91,-0.26,2.0,-41.949,-252.0282,187.5164,175,75
2026-05-09 15:54:03.284,5,-0.2,-0.49,1.85,-33.379,-252.0282,248.5364,175,75
2026-05-09 15:54:03.296,5,0.54,-0.54,1.32,-17.479000000000003,-252.0282,248.5364,175,75
2026-05-09 15:54:03.306,5,1.31,-0.62,0.21,24.471,-252.0282,248.5364,175,75
2026-05-09 15:54:03.364,5,-0.17,-0.18,0.27,-3.029,38.8018,-234.2836,175,75
2026-05-09 15:54:03.388,5,-0.45,0.03,0.18,-0.18900000000000006,60.961800000000004,-251.7336,175,75
2026-05-09 15:54:03.420,5,0.36,0.71,-0.9,-15.649,49.701800000000006,-78.0936,175,75
2026-05-09 15:54:03.447,5,0.12,0.31,-0.14,-20.839000000000002,31.941799999999997,32.3364,175,75
2026-05-09 15:54:03.462,5,0.23,0.23,-0.0,-12.488999999999999,71.6618,71.77640000000001,175,75
2026-05-09 15:54:03.476,5,0.56,0.2,0.16,8.610999999999999,171.6918,138.8464,175,75
2026-05-09 15:54:03.527,5,1.29,0.1,1.62,17.101,-24.028200000000002,248.5364,175,75
2026-05-09 15:54:03.537,5,1.23,-0.56,2.0,16.611,37.4118,248.5364,175,75
2026-05-09 15:54:03.549,5,1.65,-0.9,2.0,14.841,113.29180000000001,41.7264,175,75
2026-05-09 15:54:03.560,5,2.0,-0.79,2.0,-25.329,248.24179999999998,-1.7436,175,75
2026-05-09 15:54:03.560,5,0.24,-1.11,2.0,-45.479,248.24179999999998,-49.403600000000004,175,75
2026-05-09 15:54:03.568,5,-0.64,-1.0,1.28,-14.719,248.24179999999998,-68.7436,175,75
2026-05-09 15:54:03.583,5,-1.2,-0.75,1.1,34.291000000000004,236.09179999999998,-49.9636,175,75
2026-05-09 15:54:03.605,5,-1.14,0.11,2.0,17.160999999999998,48.9418,-90.8136,175,75
2026-05-09 15:54:03.605,5,-0.78,0.17,2.0,-19.399,-60.3882,-112.9836,175,75
2026-05-09 15:54:03.625,5,-0.25,-0.05,2.0,-37.388999999999996,-138.78820000000002,-111.5436,175,75
2026-05-09 15:54:03.636,5,0.12,-0.29,1.83,-29.449,-194.3682,-61.263600000000004,175,75
2026-05-09 15:54:03.657,5,0.89,-0.23,1.25,11.781,-230.4182,114.49640000000001,175,75
2026-05-09 15:54:03.676,5,0.85,-0.28,1.12,7.541,-220.1782,135.94639999999998,175,75
2026-05-09 15:54:03.689,5,1.2,-0.85,0.83,-52.498999999999995,-199.4482,24.7264,175,75
2026-05-09 15:54:03.702,5,0.98,-0.98,0.59,-44.469,-112.8282,-14.8836,175,75
2026-05-09 15:54:03.714,5,0.48,-0.81,0.56,-31.929,-49.4082,-46.1236,175,75
2026-05-09 15:54:03.781,5,-0.86,-0.1,0.3,-9.029,-2.5782,-251.7336,175,75
2026-05-09 15:54:03.792,5,-0.93,0.09,0.22,-7.058999999999999,-50.7782,-251.7336,175,75
2026-05-09 15:54:03.806,5,-0.97,0.25,0.1,-13.369,-114.4982,-251.7336,175,75
2026-05-09 15:54:03.806,5,-0.95,0.4,-0.09,-23.429000000000002,-186.2982,-251.7336,175,75
2026-05-09 15:54:03.816,5,-0.46,0.5,-0.29,-32.509,-242.7382,-251.7336,175,75
2026-05-09 15:54:03.827,5,1.99,0.93,-0.71,-48.349,-213.8082,-251.7336,175,75
2026-05-09 15:54:03.838,5,2.0,1.22,-1.48,-29.759,-54.1382,-152.74360000000001,175,75
2026-05-09 15:54:03.865,5,-0.15,1.12,-0.35,-112.839,55.701800000000006,-136.2836,175,75
2026-05-09 15:54:03.877,5,0.29,0.54,-0.24,-123.839,82.7018,-131.52360000000002,175,75
2026-05-09 15:54:03.877,5,0.79,0.49,0.06,-111.929,138.6418,-87.47359999999999,175,75
2026-05-09 15:54:03.946,5,1.57,-1.15,2.0,-164.81900000000002,248.24179999999998,157.60639999999998,175,75
2026-05-09 15:54:04.008,5,-1.39,-1.8,0.9,-30.879,248.24179999999998,23.0664,175,75
2026-05-09 15:54:04.019,5,-2.0,-1.55,0.9,65.101,248.24179999999998,-48.4436,175,75
2026-05-09 15:54:04.035,5,-2.0,-1.21,1.28,131.051,148.0718,-177.6036,175,75
2026-05-09 15:54:04.046,5,-0.29,0.84,2.0,116.271,-252.0282,-251.7336,175,75
2026-05-09 15:54:04.062,5,0.03,1.34,2.0,104.751,-252.0282,-251.7336,175,75
2026-05-09 15:54:04.075,5,0.72,1.3,1.2,106.391,-252.0282,-251.7336,175,75
2026-05-09 15:54:04.080,5,2.0,1.36,0.95,97.221,-252.0282,-218.58360000000002,175,75
2026-05-09 15:54:04.101,5,1.73,1.45,0.51,66.751,-50.0682,113.6164,175,75
2026-05-09 15:54:04.101,5,0.88,1.04,0.41,30.840999999999998,56.8418,136.8764,175,75
2026-05-09 15:54:04.112,5,0.49,0.67,0.34,3.8709999999999996,123.7818,149.07639999999998,175,75
2026-05-09 15:54:04.112,5,0.3,0.37,0.21,-8.969,152.59179999999998,172.13639999999998,175,75
2026-05-09 15:54:04.124,5,0.23,0.2,0.21,8.091,120.5818,248.5364,175,75
2026-05-09 15:54:04.135,5,0.13,0.21,0.27,17.070999999999998,104.3218,248.5364,175,75
2026-05-09 15:54:04.157,5,-0.36,0.07,0.31,15.421,14.891800000000002,228.0364,175,75
2026-05-09 15:54:04.170,5,-0.43,-0.08,0.19,9.981,-53.5882,128.54639999999998,175,75
2026-05-09 15:54:04.181,5,-0.49,-0.08,0.16,13.581,-66.4482,78.2364,175,75
2026-05-09 15:54:04.220,5,-0.56,-0.11,-0.09,20.750999999999998,-90.4482,-52.2836,175,75
2026-05-09 15:54:04.273,5,0.48,-0.07,-0.39,71.391,16.0918,216.0664,175,75
2026-05-09 15:54:04.299,5,1.18,-0.5,-0.04,141.421,248.24179999999998,198.6864,175,75
2026-05-09 15:54:04.310,5,1.77,-0.73,0.6,164.97099999999998,248.24179999999998,179.5164,175,75
2026-05-09 15:54:04.339,5,2.0,-0.45,2.0,103.941,248.24179999999998,248.5364,175,75
2026-05-09 15:54:04.339,5,0.61,-0.48,2.0,88.101,248.24179999999998,248.5364,175,75
2026-05-09 15:54:04.381,5,-2.0,-0.56,1.45,118.601,231.3318,-172.5936,175,75
2026-05-09 15:54:04.392,5,-2.0,0.69,2.0,44.221000000000004,87.15180000000001,-251.7336,175,75
2026-05-09 15:54:04.402,5,-1.51,1.03,2.0,-40.858999999999995,-134.87820000000002,-251.7336,175,75
2026-05-09 15:54:04.408,5,-0.58,0.5,2.0,-145.949,-252.0282,-206.4436,175,75
2026-05-09 15:54:04.421,5,0.36,0.27,2.0,-174.609,-252.0282,-166.3836,175,75
2026-05-09 15:54:04.435,5,1.07,-0.0,2.0,-168.59900000000002,-207.6482,-85.66359999999999,175,75
2026-05-09 15:54:04.435,5,1.29,-0.22,1.97,-116.139,-135.34820000000002,61.2464,175,75
2026-05-09 15:54:04.447,5,0.9,-0.17,2.0,-56.278999999999996,-149.4582,191.6564,175,75
2026-05-09 15:54:04.458,5,0.7,-0.08,1.89,-49.799,-203.3082,248.5364,175,75
2026-05-09 15:54:04.471,5,0.13,-0.11,1.63,-69.059,-247.9282,248.5364,175,75
2026-05-09 15:54:04.481,5,0.22,-0.28,1.36,-113.359,-252.0282,155.13639999999998,175,75
2026-05-09 15:54:04.493,5,1.29,-0.71,0.63,-137.27900000000002,-195.5182,12.0864,175,75
2026-05-09 15:54:04.505,5,1.18,-0.73,0.06,-137.089,-41.5182,-145.86360000000002,175,75
2026-05-09 15:54:04.505,5,0.43,-0.45,-0.05,-126.809,51.4118,-251.7336,175,75
2026-05-09 15:54:04.526,5,-0.54,0.17,0.1,-88.099,47.461800000000004,-251.7336,175,75
2026-05-09 15:54:04.540,5,-0.71,0.52,0.03,-77.789,6.4718,-251.7336,175,75
2026-05-09 15:54:04.555,5,-0.62,0.76,-0.1,-62.049,-66.8682,-251.7336,175,75
2026-05-09 15:54:04.561,5,1.01,1.18,-0.61,-48.619,-102.2882,-251.7336,175,75
2026-05-09 15:54:04.575,5,1.16,1.02,-0.78,-16.349,-90.23819999999999,-251.7336,175,75
2026-05-09 15:54:04.575,5,0.01,1.07,-0.39,-10.729,-90.9682,-206.5136,175,75
2026-05-09 15:54:04.601,5,-0.64,0.44,-0.07,-11.249,-128.7482,-126.5736,175,75
2026-05-09 15:54:04.615,5,-0.64,0.43,0.06,-9.318999999999999,-136.9182,-90.61359999999999,175,75
2026-05-09 15:54:04.615,5,-0.55,0.47,0.17,-11.189,-127.1382,-57.3536,175,75
2026-05-09 15:54:04.634,5,-0.41,0.49,0.18,-9.738999999999999,-96.8082,-26.8036,175,75
2026-05-09 15:54:04.645,5,-0.04,0.49,0.11,1.071,-42.5682,16.8964,175,75
2026-05-09 15:54:04.655,5,0.45,0.45,-0.0,21.700999999999997,32.6118,99.5164,175,75
2026-05-09 15:54:04.666,5,0.64,0.4,-0.06,45.951,112.87180000000001,222.82639999999998,175,75
2026-05-09 15:54:04.676,5,0.65,0.13,0.12,69.651,215.71179999999998,248.5364,175,75
2026-05-09 15:54:04.707,5,0.99,0.17,0.01,80.401,248.24179999999998,248.5364,175,75
2026-05-09 15:54:04.707,5,1.83,-0.34,0.14,103.271,248.24179999999998,248.5364,175,75
2026-05-09 15:54:04.718,5,2.0,-0.98,1.69,134.051,248.24179999999998,248.5364,175,75
2026-05-09 15:54:04.718,5,2.0,-2.0,2.0,-57.178999999999995,248.24179999999998,248.5364,175,75
2026-05-09 15:54:04.737,5,-2.0,-1.51,1.76,92.23100000000001,248.24179999999998,130.5864,175,75
2026-05-09 15:54:04.747,5,-2.0,-1.08,1.18,125.071,222.7018,-107.0936,175,75
2026-05-09 15:54:04.761,5,-2.0,-0.75,1.01,141.84099999999998,92.8218,-251.7336,175,75
2026-05-09 15:54:04.773,5,-2.0,-0.15,1.63,115.741,10.491800000000001,-251.7336,175,75
2026-05-09 15:54:04.785,5,-1.82,0.1,2.0,63.321000000000005,-18.758200000000002,-251.7336,175,75
2026-05-09 15:54:04.796,5,-0.89,0.15,2.0,47.171,-104.73819999999999,-251.7336,175,75
2026-05-09 15:54:04.806,5,0.06,0.41,1.91,8.181,-252.0282,-136.0636,175,75
2026-05-09 15:54:04.827,5,0.17,0.34,1.53,-63.40899999999999,-252.0282,-59.863600000000005,175,75
2026-05-09 15:54:04.839,5,0.4,0.12,1.32,-83.569,-189.87820000000002,-71.41359999999999,175,75
2026-05-09 15:54:04.850,5,0.43,-0.19,1.01,-67.309,-120.6782,-64.2136,175,75
2026-05-09 15:54:04.862,5,0.24,-0.33,0.76,-29.189,-85.4682,-49.2336,175,75
2026-05-09 15:54:04.875,5,0.0,-0.23,0.66,-0.129,-77.4782,-44.7036,175,75
2026-05-09 15:54:04.887,5,-0.18,-0.06,0.64,-0.009000000000000119,-84.1682,-53.3836,175,75
2026-05-09 15:54:04.898,5,-0.33,0.03,0.54,-15.738999999999999,-96.5582,-81.1536,175,75
2026-05-09 15:54:04.919,5,-0.05,0.1,-0.33,-55.799,-125.4782,-216.4736,175,75
2026-05-09 15:54:04.932,5,0.53,0.18,-0.9,-66.119,-97.8682,-251.7336,175,75
2026-05-09 15:54:04.945,5,0.93,-0.44,-0.34,-54.358999999999995,-37.4482,-251.7336,175,75
2026-05-09 15:54:04.955,5,0.5,0.23,-1.23,-55.649,-17.3882,-251.7336,175,75
2026-05-09 15:54:04.965,5,-0.02,0.45,-0.59,-50.928999999999995,-32.4182,-251.7336,175,75
2026-05-09 15:54:04.975,5,0.07,0.58,-0.12,-64.999,-39.9282,-251.7336,175,75
2026-05-09 15:54:04.975,5,0.43,0.54,0.22,-79.90899999999999,-33.288199999999996,-232.1836,175,75
2026-05-09 15:54:05.006,5,0.86,0.69,0.9,-47.239,-60.5282,30.9464,175,75
2026-05-09 15:54:05.022,5,1.07,0.98,1.3,-49.199,-52.9282,93.71640000000001,175,75
2026-05-09 15:54:05.035,5,1.29,1.24,1.77,-72.749,-37.1382,143.9364,175,75
2026-05-09 15:54:05.035,5,0.89,1.19,2.0,-105.65899999999999,-46.0182,109.0964,175,75
2026-05-09 15:54:05.048,5,1.35,0.98,2.0,-158.139,-8.0982,-65.5136,175,75
2026-05-09 15:54:05.056,5,1.87,0.53,2.0,-207.929,89.0718,-191.67360000000002,175,75
2026-05-09 15:54:05.069,5,2.0,-0.26,2.0,-193.02900000000002,248.24179999999998,-212.3236,175,75
2026-05-09 15:54:05.081,5,1.63,-1.19,2.0,-58.998999999999995,248.24179999999998,-118.7336,175,75
2026-05-09 15:54:05.104,5,-1.35,-0.29,1.42,25.180999999999997,225.7018,-96.5936,175,75
2026-05-09 15:54:05.104,5,-1.64,-0.2,1.39,16.301,134.8818,-140.9136,175,75
2026-05-09 15:54:05.129,5,-1.61,-0.02,1.51,-2.8289999999999997,19.7718,-163.8236,175,75
2026-05-09 15:54:05.129,5,-1.11,0.14,1.64,-23.549000000000003,-117.8682,-122.5136,175,75
2026-05-09 15:54:05.137,5,-0.56,0.22,1.71,-21.549000000000003,-205.0182,-95.0736,175,75
2026-05-09 15:54:05.157,5,-0.05,0.36,1.6,-19.889000000000003,-252.0282,-74.5436,175,75
2026-05-09 15:54:05.180,5,1.32,0.57,1.13,-39.669,-252.0282,-47.8536,175,75
2026-05-09 15:54:05.191,5,2.0,0.77,0.62,-39.928999999999995,-179.5482,17.456400000000002,175,75
2026-05-09 15:54:05.207,5,0.24,0.44,0.09,-27.579,47.031800000000004,-7.7136000000000005,175,75
2026-05-09 15:54:05.216,5,-0.09,0.24,0.21,-22.109,75.4518,-60.9536,175,75
2026-05-09 15:54:05.238,5,-0.26,0.07,0.31,-13.639,96.7218,-107.3236,175,75
2026-05-09 15:54:05.252,5,-0.39,-0.08,0.25,-0.40900000000000003,106.7218,-135.74360000000001,175,75
2026-05-09 15:54:05.263,5,-0.38,-0.1,0.17,18.730999999999998,99.9218,-138.70360000000002,175,75
2026-05-09 15:54:05.273,5,-0.45,-0.17,0.03,42.161,72.8518,-117.30359999999999,175,75
2026-05-09 15:54:05.273,5,-0.52,-0.12,-0.12,64.611,29.311799999999998,-86.1836,175,75
2026-05-09 15:54:05.285,5,-0.58,-0.05,-0.36,80.711,-36.938199999999995,-45.1236,175,75
2026-05-09 15:54:05.296,5,-0.37,-0.07,-0.56,90.48100000000001,-107.4182,7.8164,175,75
2026-05-09 15:54:05.307,5,-0.11,-0.09,-0.74,111.161,-171.00820000000002,76.2664,175,75
2026-05-09 15:54:05.327,5,0.21,0.1,-0.63,71.821,-150.09820000000002,193.7464,175,75
2026-05-09 15:54:05.343,5,-0.02,-0.1,-0.38,38.141000000000005,-94.7282,151.1564,175,75
2026-05-09 15:54:05.356,5,-0.15,-0.21,-0.09,13.341,-45.4982,115.52640000000001,175,75
2026-05-09 15:54:05.356,5,-0.09,-0.3,0.06,-1.639,4.8918,94.7864,175,75
2026-05-09 15:54:05.375,5,0.23,-0.48,0.07,-4.239,69.6118,87.88640000000001,175,75
2026-05-09 15:54:05.386,5,0.68,-0.5,-0.03,2.251,164.6118,81.6464,175,75
2026-05-09 15:54:05.386,5,0.97,-0.53,-0.02,16.081,248.24179999999998,52.706399999999995,175,75
2026-05-09 15:54:05.408,5,2.0,0.84,-0.08,34.011,248.24179999999998,4.9364,175,75
2026-05-09 15:54:05.441,5,2.0,1.43,2.0,-50.219,248.24179999999998,53.6064,175,75
2026-05-09 15:54:05.441,5,1.41,-2.0,2.0,10.591,248.24179999999998,-92.41359999999999,175,75
2026-05-09 15:54:05.466,5,-1.86,-1.68,1.29,156.84099999999998,248.24179999999998,107.1164,175,75
2026-05-09 15:54:05.479,5,-2.0,-0.64,0.57,229.22099999999998,248.24179999999998,6.6564,175,75
2026-05-09 15:54:05.479,5,-2.0,-0.07,0.9,217.831,248.24179999999998,-231.1336,175,75
2026-05-09 15:54:05.513,5,-2.0,1.07,1.89,155.291,171.1418,-251.7336,175,75
2026-05-09 15:54:05.523,5,-2.0,1.53,2.0,64.231,15.711800000000002,-251.7336,175,75
2026-05-09 15:54:05.526,5,-2.0,1.57,2.0,-3.9189999999999996,-152.93820000000002,-251.7336,175,75
2026-05-09 15:54:05.553,5,-0.38,0.57,2.0,-15.188999999999998,-252.0282,-250.9336,175,75
2026-05-09 15:54:05.553,5,0.06,0.13,1.81,14.231,-251.0482,-44.403600000000004,175,75
2026-05-09 15:54:05.586,5,-0.23,0.16,1.16,-56.278999999999996,-252.0282,248.5364,175,75
2026-05-09 15:54:05.586,5,-0.22,-0.0,0.95,-71.749,-252.0282,248.5364,175,75
2026-05-09 15:54:05.599,5,-0.81,-0.3,0.97,-92.149,-252.0282,248.5364,175,75
2026-05-09 15:54:05.612,5,2.0,-0.84,-0.44,-136.679,-209.62820000000002,-251.7336,175,75
2026-05-09 15:54:05.626,5,0.93,-0.2,-0.26,-119.439,-66.45819999999999,-251.7336,175,75
2026-05-09 15:54:05.626,5,0.26,0.27,-0.15,-92.349,-21.058200000000003,-251.7336,175,75
2026-05-09 15:54:05.639,5,0.13,1.05,0.02,-99.789,4.8718,-251.7336,175,75
2026-05-09 15:54:05.639,5,0.07,1.17,0.17,-132.919,28.4818,-251.7336,175,75
2026-05-09 15:54:05.651,5,0.35,1.17,0.05,-157.56900000000002,42.811800000000005,-251.7336,175,75
2026-05-09 15:54:05.666,5,0.6,0.94,-0.2,-131.02900000000002,29.941799999999997,-251.7336,175,75
2026-05-09 15:54:05.699,5,-0.38,0.36,0.39,-14.499,0.9018000000000002,-13.7036,175,75
2026-05-09 15:54:05.710,5,-0.57,0.3,0.4,-1.9789999999999999,-3.3381999999999996,81.4364,175,75
2026-05-09 15:54:05.720,5,-0.81,0.3,0.39,8.661,-16.8182,157.4964,175,75
2026-05-09 15:54:05.731,5,-1.01,0.34,0.35,16.000999999999998,-39.3582,202.9064,175,75
2026-05-09 15:54:05.744,5,-0.96,0.33,0.22,24.551,-65.2182,226.3064,175,75
2026-05-09 15:54:05.755,5,-0.35,0.18,-0.07,51.101,-88.5182,248.5364,175,75
2026-05-09 15:54:05.755,5,0.65,0.04,-0.21,95.001,-72.7982,248.5364,175,75
2026-05-09 15:54:05.773,5,0.77,0.14,0.0,128.831,-26.528200000000002,248.5364,175,75
2026-05-09 15:54:05.786,5,0.78,0.21,0.02,146.581,15.8818,248.5364,175,75
2026-05-09 15:54:05.811,5,2.0,-2.0,2.0,137.731,-4.2882,248.5364,175,75
2026-05-09 15:54:05.822,5,1.03,-2.0,2.0,136.94099999999997,19.6418,248.5364,175,75
2026-05-09 15:54:05.825,5,-1.23,-0.83,1.55,158.19099999999997,103.9218,248.5364,175,75
2026-05-09 15:54:05.846,5,-2.0,-0.8,1.94,154.18099999999998,228.4518,86.49640000000001,175,75
2026-05-09 15:54:05.846,5,-1.11,-2.0,2.0,200.12099999999998,248.24179999999998,-191.7836,175,75
2026-05-09 15:54:05.856,5,-2.0,-0.75,2.0,150.74099999999999,248.24179999999998,-251.7336,175,75
2026-05-09 15:54:05.875,5,-2.0,-0.13,2.0,100.541,130.0818,-251.7336,175,75
2026-05-09 15:54:05.885,5,-1.66,0.45,2.0,74.331,-66.1982,-251.7336,175,75
2026-05-09 15:54:05.885,5,-0.82,0.81,1.92,47.101,-227.5182,-251.7336,175,75
2026-05-09 15:54:05.899,5,-0.06,1.0,1.73,35.941,-252.0282,-251.7336,175,75
2026-05-09 15:54:05.910,5,0.13,0.99,1.57,4.471,-252.0282,-251.7336,175,75
2026-05-09 15:54:05.928,5,0.37,0.81,1.32,-79.589,-252.0282,-243.64360000000002,175,75
2026-05-09 15:54:05.939,5,0.5,0.62,1.15,-107.259,-226.21820000000002,-192.6636,175,75
2026-05-09 15:54:05.951,5,0.63,0.33,0.89,-111.729,-157.25820000000002,-127.7336,175,75
2026-05-09 15:54:05.965,5,0.53,0.16,0.76,-100.289,-93.5182,-62.183600000000006,175,75
2026-05-09 15:54:05.965,5,0.36,0.09,0.63,-86.969,-33.8382,-13.8736,175,75
2026-05-09 15:54:05.980,5,0.16,0.0,0.42,-71.059,12.3818,15.556399999999998,175,75
2026-05-09 15:54:05.991,5,-0.07,-0.06,0.15,-49.839,39.491800000000005,28.386400000000002,175,75
2026-05-09 15:54:06.010,5,-0.13,0.05,-0.29,2.721,12.1918,48.4064,175,75
2026-05-09 15:54:06.035,5,0.75,0.16,-0.62,48.891000000000005,13.591800000000001,97.8464,175,75
2026-05-09 15:54:06.055,5,0.02,0.24,-0.12,-18.779,108.6618,-151.5136,175,75
2026-05-09 15:54:06.066,5,0.14,0.32,0.42,-51.469,42.961800000000004,-164.4136,175,75
2026-05-09 15:54:06.078,5,0.26,0.31,0.74,-78.029,-20.1182,-138.9836,175,75
2026-05-09 15:54:06.088,5,0.31,0.15,0.81,-69.279,-66.34819999999999,-116.8436,175,75
2026-05-09 15:54:06.101,5,0.44,0.36,0.62,-74.099,-75.0382,-106.1336,175,75
2026-05-09 15:54:06.116,5,1.14,1.03,2.0,-62.879,-12.498199999999999,-115.1536,175,75
2026-05-09 15:54:06.137,5,2.0,1.92,2.0,-131.30900000000003,108.8418,-178.58360000000002,175,75
2026-05-09 15:54:06.145,5,2.0,-0.25,2.0,-136.609,248.24179999999998,-111.0436,175,75
2026-05-09 15:54:06.159,5,-0.06,-0.8,1.71,4.001,248.24179999999998,64.0764,175,75
2026-05-09 15:54:06.172,5,-1.53,-0.17,1.47,60.901,248.24179999999998,67.49640000000001,175,75
2026-05-09 15:54:06.185,5,-2.0,-0.2,1.33,71.081,137.40179999999998,-34.613600000000005,175,75
2026-05-09 15:54:06.196,5,-2.0,0.1,1.44,66.45100000000001,20.0018,-150.52360000000002,175,75
2026-05-09 15:54:06.196,5,-1.65,0.29,1.72,56.011,-82.48819999999999,-205.8436,175,75
2026-05-09 15:54:06.210,5,-0.97,0.53,1.94,49.511,-186.4882,-190.5036,175,75
2026-05-09 15:54:06.227,5,0.06,0.75,1.73,27.641,-252.0282,-85.0936,175,75
