Time,ID,Ax,Ay,Az,Gx,Gy,Gz,Height,Weight
2026-05-09 16:16:25.566,5,-0.02,0.3,-0.13,47.6884,10.5028,178.388,175,75
2026-05-09 16:16:25.578,5,0.14,0.38,-0.13,53.9884,-11.6472,205.968,175,75
2026-05-09 16:16:25.587,5,0.18,0.4,-0.23,51.868399999999994,-25.617199999999997,217.728,175,75
2026-05-09 16:16:25.597,5,0.01,0.21,-0.4,58.4684,-61.9972,221.53799999999998,175,75
2026-05-09 16:16:25.633,5,0.02,-0.4,-0.51,92.58840000000001,-122.2772,201.268,175,75
2026-05-09 16:16:25.646,5,0.2,-0.59,-0.57,114.1884,-136.1972,214.238,175,75
2026-05-09 16:16:25.658,5,0.64,-0.75,-0.63,143.39839999999998,-120.25720000000001,233.648,175,75
2026-05-09 16:16:25.669,5,0.74,-0.68,0.05,192.05839999999998,22.0128,252.178,175,75
2026-05-09 16:16:25.684,5,0.99,-0.57,0.59,216.0684,155.0428,218.558,175,75
2026-05-09 16:16:25.709,5,0.32,0.33,1.55,156.5084,233.6328,-94.33200000000001,175,75
2026-05-09 16:16:25.753,5,-0.48,1.66,2.0,-159.6516,233.6328,-246.022,175,75
2026-05-09 16:16:25.767,5,-1.15,0.78,2.0,-240.0016,233.6328,-246.022,175,75
2026-05-09 16:16:25.767,5,-2.0,-0.16,2.0,-201.73160000000001,232.02280000000002,-246.022,175,75
2026-05-09 16:16:25.778,5,-2.0,-0.78,1.95,-110.8416,-20.9972,-246.022,175,75
2026-05-09 16:16:25.793,5,-2.0,-0.12,2.0,-10.441599999999998,-266.6372,154.34799999999998,175,75
2026-05-09 16:16:25.804,5,-0.47,0.52,2.0,57.118399999999994,-266.6372,254.248,175,75
2026-05-09 16:16:25.835,5,0.41,0.7,1.83,-45.2016,-266.6372,254.248,175,75
2026-05-09 16:16:25.848,5,0.73,-0.36,0.57,-170.63160000000002,-266.6372,254.248,175,75
2026-05-09 16:16:25.874,5,0.84,-0.82,-0.25,-148.47160000000002,-266.6372,254.248,175,75
2026-05-09 16:16:25.886,5,-0.16,-0.52,-0.07,-131.22160000000002,-145.1572,233.918,175,75
2026-05-09 16:16:25.897,5,-0.85,-0.5,-0.06,-111.57159999999999,-99.3572,66.158,175,75
2026-05-09 16:16:25.897,5,-1.32,-0.53,-0.18,-72.8416,-121.31719999999999,-74.542,175,75
2026-05-09 16:16:25.906,5,-1.16,-0.41,-0.21,-35.5316,-166.78719999999998,-186.96200000000002,175,75
2026-05-09 16:16:25.930,5,-0.6,0.12,-0.26,0.9684000000000008,-227.1872,-246.022,175,75
2026-05-09 16:16:25.958,5,-0.1,0.67,-0.39,-57.0416,-242.0572,-246.022,175,75
2026-05-09 16:16:25.970,5,0.09,0.63,-0.46,-87.2016,-235.1572,-246.022,175,75
2026-05-09 16:16:25.994,5,0.52,0.21,-0.46,-89.9416,-176.28719999999998,-161.40200000000002,175,75
2026-05-09 16:16:26.020,5,0.84,-0.06,-0.54,-3.6515999999999984,6.422800000000002,75.93799999999999,175,75
2026-05-09 16:16:26.031,5,1.03,-0.12,-0.67,28.7984,107.4828,121.568,175,75
2026-05-09 16:16:26.056,5,0.68,-0.06,-0.36,65.3484,233.6328,151.748,175,75
2026-05-09 16:16:26.056,5,0.63,-0.19,-0.07,82.3584,233.6328,155.058,175,75
2026-05-09 16:16:26.093,5,0.88,0.2,0.13,79.7084,233.6328,182.698,175,75
2026-05-09 16:16:26.109,5,1.74,-1.24,2.0,43.69840000000001,233.6328,-246.022,175,75
2026-05-09 16:16:26.124,5,-0.01,-0.61,2.0,-16.4616,233.6328,-246.022,175,75
2026-05-09 16:16:26.137,5,-0.68,-0.22,2.0,-57.3116,233.6328,-246.022,175,75
2026-05-09 16:16:26.137,5,-1.73,-0.52,2.0,-88.63159999999999,233.6328,-246.022,175,75
2026-05-09 16:16:26.180,5,-2.0,-0.56,2.0,85.56840000000001,-102.0472,90.458,175,75
2026-05-09 16:16:26.199,5,-1.83,0.51,2.0,75.7484,-266.6372,138.56799999999998,175,75
2026-05-09 16:16:26.214,5,-0.83,0.27,1.96,60.58840000000001,-266.6372,193.09799999999998,175,75
2026-05-09 16:16:26.245,5,0.88,-0.18,0.29,20.6784,-266.6372,208.678,175,75
2026-05-09 16:16:26.258,5,1.53,-0.24,-0.15,35.2084,-266.6372,237.748,175,75
2026-05-09 16:16:26.258,5,1.67,-0.21,-0.6,67.8884,-266.6372,254.248,175,75
2026-05-09 16:16:26.277,5,0.94,-0.22,-1.12,98.28840000000001,-266.6372,254.248,175,75
2026-05-09 16:16:26.280,5,0.77,0.26,-2.0,121.9484,-266.6372,238.588,175,75
2026-05-09 16:16:26.296,5,0.46,0.11,-1.86,103.22840000000001,-223.6172,130.418,175,75
2026-05-09 16:16:26.310,5,-0.28,-0.06,-1.28,77.1284,-205.6872,53.16799999999999,175,75
2026-05-09 16:16:26.318,5,-1.1,-0.28,-0.67,51.508399999999995,-266.6372,-21.902,175,75
2026-05-09 16:16:26.331,5,-1.18,-0.21,-0.58,37.388400000000004,-266.6372,-47.702,175,75
2026-05-09 16:16:26.348,5,-1.2,-0.02,-0.43,8.7684,-266.6372,-68.952,175,75
2026-05-09 16:16:26.348,5,-1.03,0.14,-0.38,-33.971599999999995,-266.6372,-97.19200000000001,175,75
2026-05-09 16:16:26.377,5,-0.04,0.26,-0.3,-122.7316,-266.6372,-174.832,175,75
2026-05-09 16:16:26.377,5,0.31,0.29,-0.16,-147.60160000000002,-266.6372,-220.852,175,75
2026-05-09 16:16:26.389,5,0.73,0.3,0.13,-160.6716,-124.71719999999999,-246.022,175,75
2026-05-09 16:16:26.399,5,1.86,0.21,0.25,-160.6116,100.53280000000001,-246.022,175,75
2026-05-09 16:16:26.409,5,2.0,0.32,0.05,-156.5616,233.6328,-246.022,175,75
2026-05-09 16:16:26.422,5,2.0,0.58,0.1,-180.85160000000002,233.6328,-145.792,175,75
2026-05-09 16:16:26.436,5,2.0,0.79,-0.16,-239.3916,233.6328,-69.122,175,75
2026-05-09 16:16:26.446,5,1.38,0.76,-0.65,-240.0016,233.6328,-77.232,175,75
2026-05-09 16:16:26.446,5,1.07,0.59,-0.96,-240.0016,233.6328,-114.962,175,75
2026-05-09 16:16:26.458,5,1.09,0.4,-0.56,-240.0016,233.6328,-49.352000000000004,175,75
2026-05-09 16:16:26.480,5,-2.0,0.46,2.0,-173.5916,233.6328,254.248,175,75
2026-05-09 16:16:26.499,5,-2.0,-0.8,2.0,-80.1516,188.6328,82.52799999999999,175,75
2026-05-09 16:16:26.512,5,-2.0,-1.11,1.8,-66.3316,-143.8072,-219.562,175,75
2026-05-09 16:16:26.531,5,-2.0,-1.47,1.18,21.0584,-266.6372,-246.022,175,75
2026-05-09 16:16:26.542,5,-0.48,-1.1,1.74,194.64839999999998,-266.6372,-246.022,175,75
2026-05-09 16:16:26.562,5,-0.47,0.48,1.16,260.2684,-266.6372,-160.542,175,75
2026-05-09 16:16:26.575,5,-0.04,1.22,1.05,260.2684,-266.6372,-147.43200000000002,175,75
2026-05-09 16:16:26.582,5,0.44,1.38,0.94,215.11839999999998,-266.6372,-216.582,175,75
2026-05-09 16:16:26.597,5,0.88,1.15,0.69,134.8684,-266.6372,-246.022,175,75
2026-05-09 16:16:26.597,5,2.0,0.6,0.26,97.4484,-266.6372,-194.332,175,75
2026-05-09 16:16:26.626,5,1.1,0.37,0.33,87.6584,-130.3872,7.467999999999998,175,75
2026-05-09 16:16:26.635,5,0.39,0.35,0.43,72.1484,-58.3772,36.608000000000004,175,75
2026-05-09 16:16:26.657,5,-0.16,0.21,0.34,34.4884,4.732800000000001,26.157999999999998,175,75
2026-05-09 16:16:26.668,5,-0.2,-0.01,-0.05,36.388400000000004,-3.6671999999999993,44.367999999999995,175,75
2026-05-09 16:16:26.687,5,0.03,0.01,-0.37,54.44840000000001,-28.4172,75.85799999999999,175,75
2026-05-09 16:16:26.687,5,0.35,0.13,-0.71,80.7784,-44.4572,129.798,175,75
2026-05-09 16:16:26.711,5,1.06,0.52,-1.07,123.33840000000001,-55.7172,254.248,175,75
2026-05-09 16:16:26.723,5,0.73,0.3,-1.18,110.72840000000001,-15.517199999999999,252.75799999999998,175,75
2026-05-09 16:16:26.757,5,-0.21,-0.3,-0.19,98.9484,-58.6472,213.31799999999998,175,75
2026-05-09 16:16:26.774,5,-0.14,-0.26,0.02,94.3584,-68.0872,212.458,175,75
2026-05-09 16:16:26.802,5,0.84,0.71,0.1,31.3784,169.18280000000001,72.348,175,75
2026-05-09 16:16:26.828,5,1.91,-0.07,2.0,-47.361599999999996,233.6328,-246.022,175,75
2026-05-09 16:16:26.840,5,2.0,0.84,2.0,-165.4616,233.6328,-246.022,175,75
2026-05-09 16:16:26.850,5,0.03,0.07,2.0,-240.0016,233.6328,-246.022,175,75
2026-05-09 16:16:26.875,5,-1.74,-0.43,2.0,-236.23160000000001,233.6328,-246.022,175,75
2026-05-09 16:16:26.884,5,-2.0,-1.01,1.73,-141.3016,233.6328,-232.572,175,75
2026-05-09 16:16:26.906,5,-2.0,-1.04,1.82,-43.861599999999996,118.21280000000002,-48.122,175,75
2026-05-09 16:16:26.934,5,-1.85,0.18,2.0,11.358400000000001,-266.6372,124.928,175,75
2026-05-09 16:16:26.934,5,-0.45,0.09,2.0,30.7984,-266.6372,254.248,175,75
2026-05-09 16:16:26.943,5,0.26,0.11,2.0,39.0684,-266.6372,254.248,175,75
2026-05-09 16:16:26.950,5,0.42,-0.02,1.45,2.1584000000000003,-266.6372,254.248,175,75
2026-05-09 16:16:26.964,5,1.05,-0.44,0.66,-38.6816,-266.6372,254.248,175,75
2026-05-09 16:16:26.964,5,1.32,-0.41,0.38,-48.4216,-266.6372,254.248,175,75
2026-05-09 16:16:26.974,5,1.94,-0.68,-0.06,-39.741600000000005,-266.6372,254.248,175,75
2026-05-09 16:16:27.007,5,-0.33,-0.27,-0.19,3.928400000000001,-88.2072,18.907999999999998,175,75
2026-05-09 16:16:27.009,5,-1.06,-0.27,-0.19,19.3684,-94.47720000000001,-109.64200000000001,175,75
2026-05-09 16:16:27.029,5,-0.91,-0.21,-0.39,43.4384,-185.8672,-246.022,175,75
2026-05-09 16:16:27.036,5,-0.7,-0.09,-0.46,48.028400000000005,-233.22719999999998,-246.022,175,75
2026-05-09 16:16:27.066,5,-0.48,0.39,-0.66,-2.6515999999999984,-266.6372,-246.022,175,75
2026-05-09 16:16:27.077,5,-0.21,0.51,-0.7,-60.7316,-266.6372,-246.022,175,75
2026-05-09 16:16:27.098,5,0.37,0.2,-0.13,-156.5516,-167.9072,-141.732,175,75
2026-05-09 16:16:27.117,5,0.35,0.12,-0.04,-155.3316,-92.3372,-107.92200000000001,175,75
2026-05-09 16:16:27.138,5,0.44,-0.01,-0.23,-80.52159999999999,136.24280000000002,-21.862000000000002,175,75
2026-05-09 16:16:27.158,5,1.06,0.09,-0.64,-23.911599999999996,233.6328,58.688,175,75
2026-05-09 16:16:27.172,5,1.01,0.06,-0.46,-1.7416,233.6328,92.538,175,75
2026-05-09 16:16:27.187,5,0.97,-0.13,-0.24,27.7684,233.6328,131.358,175,75
2026-05-09 16:16:27.205,5,1.14,1.12,-1.09,16.3784,233.6328,163.618,175,75
2026-05-09 16:16:27.216,5,1.13,-0.01,0.19,32.6884,233.6328,160.278,175,75
2026-05-09 16:16:27.216,5,-0.41,0.2,1.42,21.898400000000002,233.6328,117.24799999999999,175,75
2026-05-09 16:16:27.228,5,1.56,-0.34,2.0,15.578400000000002,-50.6972,-246.022,175,75
2026-05-09 16:16:27.238,5,1.07,0.42,2.0,-19.171599999999998,36.4828,-246.022,175,75
2026-05-09 16:16:27.300,5,-2.0,-0.63,2.0,-124.81159999999998,233.6328,-5.9620000000000015,175,75
2026-05-09 16:16:27.300,5,-2.0,-0.18,2.0,-53.461600000000004,233.6328,230.588,175,75
2026-05-09 16:16:27.312,5,-2.0,0.32,2.0,-3.5615999999999985,6.582799999999999,254.248,175,75
2026-05-09 16:16:27.317,5,-2.0,0.67,2.0,-17.6516,-259.9472,229.278,175,75
2026-05-09 16:16:27.330,5,-2.0,0.07,2.0,-64.4216,-266.6372,250.118,175,75
2026-05-09 16:16:27.378,5,0.64,-0.69,0.18,-8.811599999999999,-266.6372,254.248,175,75
2026-05-09 16:16:27.378,5,0.69,-0.74,-0.25,31.0184,-266.6372,254.248,175,75
2026-05-09 16:16:27.400,5,2.0,-0.76,-2.0,132.5584,-266.6372,214.308,175,75
2026-05-09 16:16:27.417,5,0.88,-0.21,-2.0,138.5484,-130.6972,23.477999999999998,175,75
2026-05-09 16:16:27.417,5,-0.59,-0.41,-1.61,119.3584,-126.8372,-82.322,175,75
2026-05-09 16:16:27.428,5,-0.93,-0.64,-0.97,135.3184,-181.63719999999998,-115.39200000000001,175,75
2026-05-09 16:16:27.439,5,-1.21,-0.45,-0.66,143.92839999999998,-255.6872,-129.342,175,75
2026-05-09 16:16:27.453,5,-1.21,-0.18,-0.44,124.1084,-266.6372,-134.392,175,75
2026-05-09 16:16:27.465,5,-1.09,0.15,-0.35,69.7484,-266.6372,-146.622,175,75
2026-05-09 16:16:27.518,5,1.16,0.36,0.12,-209.2016,14.232800000000001,-246.022,175,75
2026-05-09 16:16:27.532,5,2.0,0.24,0.28,-201.3916,233.6328,-246.022,175,75
2026-05-09 16:16:27.546,5,2.0,0.78,0.3,-211.44160000000002,233.6328,-86.762,175,75
2026-05-09 16:16:27.554,5,2.0,0.96,-0.03,-240.0016,233.6328,58.298,175,75
2026-05-09 16:16:27.557,5,1.6,0.79,-0.41,-240.0016,233.6328,102.38799999999999,175,75
2026-05-09 16:16:27.570,5,1.21,0.6,-0.79,-240.0016,233.6328,102.988,175,75
2026-05-09 16:16:27.592,5,0.03,2.0,2.0,-240.0016,233.6328,254.248,175,75
2026-05-09 16:16:27.609,5,-2.0,-0.49,2.0,-87.1416,233.6328,254.248,175,75
2026-05-09 16:16:27.627,5,-2.0,-1.15,2.0,-69.2616,233.6328,151.048,175,75
2026-05-09 16:16:27.627,5,-2.0,-1.22,2.0,-60.07159999999999,10.332799999999999,-102.19200000000001,175,75
2026-05-09 16:16:27.639,5,-2.0,-1.54,1.58,1.0784000000000002,-224.31719999999999,-246.022,175,75
2026-05-09 16:16:27.653,5,-2.0,-1.71,1.48,98.6984,-266.6372,-246.022,175,75
2026-05-09 16:16:27.676,5,-0.98,-1.34,1.85,166.5084,-266.6372,-246.022,175,75
2026-05-09 16:16:27.676,5,-1.03,-0.6,1.79,193.7284,-266.6372,-235.562,175,75
2026-05-09 16:16:27.688,5,0.33,0.83,1.19,210.0384,-266.6372,-246.022,175,75
2026-05-09 16:16:27.706,5,0.64,1.05,0.9,173.8484,-266.6372,-246.022,175,75
2026-05-09 16:16:27.732,5,1.53,0.72,0.24,122.53840000000001,-266.6372,-246.022,175,75
2026-05-09 16:16:27.746,5,1.84,0.62,0.01,135.8584,-256.60720000000003,-203.832,175,75
2026-05-09 16:16:27.776,5,0.06,0.48,0.19,115.5484,-7.9672,18.008,175,75
2026-05-09 16:16:27.787,5,-0.04,0.31,0.12,103.9884,-2.3072,38.19799999999999,175,75
2026-05-09 16:16:27.787,5,-0.15,0.15,-0.01,101.8084,-12.6772,67.728,175,75
2026-05-09 16:16:27.827,5,-0.1,0.06,-0.21,131.5684,-81.59719999999999,170.938,175,75
2026-05-09 16:16:27.827,5,-0.17,0.03,-0.27,146.0984,-112.34719999999999,197.78799999999998,175,75
2026-05-09 16:16:27.838,5,-0.07,-0.0,-0.46,170.76839999999999,-149.72719999999998,228.668,175,75
2026-05-09 16:16:27.852,5,0.08,0.0,-0.67,189.8584,-176.9672,253.498,175,75
2026-05-09 16:16:27.863,5,0.34,-0.12,-0.92,209.89839999999998,-189.2972,254.248,175,75
2026-05-09 16:16:27.874,5,0.79,-0.28,-1.08,226.0684,-158.22719999999998,254.248,175,75
2026-05-09 16:16:27.894,5,1.09,-0.54,-0.84,246.2884,-6.747199999999999,254.248,175,75
2026-05-09 16:16:27.908,5,0.48,-0.45,-0.31,258.3284,79.2328,254.248,175,75
2026-05-09 16:16:27.911,5,-0.03,-0.26,0.34,260.2684,142.0328,254.248,175,75
2026-05-09 16:16:27.932,5,-0.35,0.57,1.07,171.64839999999998,233.6328,106.598,175,75
2026-05-09 16:16:27.945,5,-0.24,0.63,1.66,87.2784,233.6328,-175.322,175,75
2026-05-09 16:16:27.957,5,-0.72,0.49,2.0,-20.0416,233.6328,-246.022,175,75
2026-05-09 16:16:27.964,5,1.79,0.41,2.0,-65.0116,233.6328,-246.022,175,75
2026-05-09 16:16:27.980,5,-0.7,0.2,2.0,-185.7716,233.6328,-246.022,175,75
2026-05-09 16:16:27.992,5,-2.0,-0.78,2.0,-58.0616,233.6328,-246.022,175,75
2026-05-09 16:16:28.007,5,-2.0,-0.97,1.86,60.69840000000001,126.71280000000002,-246.022,175,75
2026-05-09 16:16:28.017,5,-2.0,-0.64,1.95,123.11840000000001,-203.00719999999998,-138.512,175,75
2026-05-09 16:16:28.017,5,-2.0,-0.09,2.0,119.28840000000001,-266.6372,68.13799999999999,175,75
2026-05-09 16:16:28.030,5,-2.0,0.5,2.0,62.2184,-266.6372,180.778,175,75
2026-05-09 16:16:28.038,5,-1.09,0.75,2.0,0.6084000000000014,-266.6372,228.198,175,75
2026-05-09 16:16:28.049,5,0.16,0.53,1.31,5.3184000000000005,-266.6372,254.248,175,75
2026-05-09 16:16:28.063,5,1.7,0.58,0.42,91.1984,-266.6372,254.248,175,75
2026-05-09 16:16:28.074,5,2.0,0.59,0.43,178.5084,-266.6372,254.248,175,75
2026-05-09 16:16:28.085,5,1.9,1.2,0.67,141.4384,-266.6372,254.248,175,75
2026-05-09 16:16:28.096,5,1.39,0.59,0.54,69.3584,-266.6372,254.248,175,75
2026-05-09 16:16:28.106,5,1.35,0.01,0.34,4.808400000000001,-266.6372,254.248,175,75
2026-05-09 16:16:28.120,5,-0.02,-0.12,0.23,-54.581599999999995,-144.4672,254.248,175,75
2026-05-09 16:16:28.133,5,-0.86,-0.34,0.19,-66.3616,-107.16720000000001,254.248,175,75
2026-05-09 16:16:28.150,5,-1.56,-0.49,0.07,-58.361599999999996,-140.3772,234.238,175,75
2026-05-09 16:16:28.150,5,-1.64,-0.5,-0.01,-43.491600000000005,-213.25719999999998,97.878,175,75
2026-05-09 16:16:28.160,5,-1.47,-0.24,-0.17,-44.8416,-266.6372,-32.572,175,75
2026-05-09 16:16:28.172,5,-1.16,0.14,-0.51,-84.8616,-266.6372,-155.772,175,75
2026-05-09 16:16:28.183,5,-0.59,0.36,-0.53,-117.9216,-266.6372,-246.022,175,75
2026-05-09 16:16:28.198,5,-0.07,0.52,-0.77,-172.4016,-266.6372,-246.022,175,75
2026-05-09 16:16:28.205,5,0.22,0.45,-0.74,-204.2416,-266.6372,-246.022,175,75
2026-05-09 16:16:28.217,5,0.34,0.35,-0.6,-210.1516,-225.1072,-246.022,175,75
2026-05-09 16:16:28.217,5,0.64,0.29,-0.43,-197.3416,-164.3572,-246.022,175,75
2026-05-09 16:16:28.230,5,0.77,0.32,-0.19,-175.23160000000001,-87.21719999999999,-246.022,175,75
2026-05-09 16:16:28.245,5,0.82,0.21,-0.01,-161.54160000000002,-13.3672,-246.022,175,75
2026-05-09 16:16:28.256,5,0.66,0.16,0.01,-140.6416,55.852799999999995,-207.542,175,75
2026-05-09 16:16:28.267,5,0.44,-0.02,-0.09,-107.91159999999999,99.55279999999999,-115.622,175,75
2026-05-09 16:16:28.267,5,0.28,-0.13,-0.18,-63.21159999999999,123.18280000000001,-20.842000000000002,175,75
2026-05-09 16:16:28.279,5,0.35,-0.13,-0.24,-14.101599999999998,142.8528,73.648,175,75
2026-05-09 16:16:28.292,5,0.63,-0.0,-0.08,29.1284,193.7028,152.878,175,75
2026-05-09 16:16:28.321,5,1.96,0.55,0.33,24.608400000000003,233.6328,254.248,175,75
2026-05-09 16:16:28.331,5,1.98,0.49,0.21,-0.1515999999999984,233.6328,254.248,175,75
2026-05-09 16:16:28.337,5,2.0,0.32,2.0,-33.971599999999995,233.6328,254.248,175,75
2026-05-09 16:16:28.348,5,2.0,-1.35,2.0,-68.6216,233.6328,180.748,175,75
2026-05-09 16:16:28.364,5,-0.2,-1.28,2.0,-55.001599999999996,233.6328,51.098,175,75
2026-05-09 16:16:28.386,5,-2.0,-1.1,2.0,0.9283999999999999,233.6328,-224.862,175,75
2026-05-09 16:16:28.398,5,-2.0,-1.05,2.0,53.6284,233.6328,-246.022,175,75
2026-05-09 16:16:28.398,5,-2.0,-0.94,2.0,114.1584,169.18280000000001,-246.022,175,75
2026-05-09 16:16:28.411,5,-2.0,-0.43,2.0,154.8284,-38.937200000000004,-246.022,175,75
2026-05-09 16:16:28.424,5,-2.0,0.12,2.0,169.20839999999998,-212.5872,-246.022,175,75
2026-05-09 16:16:28.435,5,-1.5,0.66,2.0,180.33839999999998,-266.6372,-145.342,175,75
2026-05-09 16:16:28.447,5,-0.33,1.27,2.0,181.11839999999998,-266.6372,82.678,175,75
2026-05-09 16:16:28.454,5,-0.03,0.94,1.48,163.6684,-266.6372,191.518,175,75
2026-05-09 16:16:28.467,5,0.65,1.02,1.08,118.4084,-266.6372,201.708,175,75
2026-05-09 16:16:28.467,5,1.32,0.54,0.5,70.1484,-266.6372,234.478,175,75
2026-05-09 16:16:28.480,5,2.0,0.29,-0.02,64.9684,-266.6372,254.248,175,75
2026-05-09 16:16:28.493,5,2.0,0.12,-0.3,85.7784,-266.6372,254.248,175,75
2026-05-09 16:16:28.503,5,0.73,0.04,-0.53,97.2384,-266.6372,254.248,175,75
2026-05-09 16:16:28.530,5,0.01,-0.7,-1.92,161.1684,-253.2472,231.628,175,75
2026-05-09 16:16:28.541,5,-0.83,-0.66,-1.37,154.6584,-256.6372,129.678,175,75
2026-05-09 16:16:28.551,5,-1.17,-0.59,-1.1,134.4284,-266.6372,57.968,175,75
2026-05-09 16:16:28.562,5,-1.38,-0.29,-0.51,93.3084,-266.6372,3.4779999999999984,175,75
2026-05-09 16:16:28.576,5,-1.48,0.07,-0.05,20.648400000000002,-266.6372,-23.692,175,75
2026-05-09 16:16:28.587,5,-1.15,0.34,0.26,-63.2016,-266.6372,-60.39200000000001,175,75
2026-05-09 16:16:28.598,5,-0.88,0.42,0.28,-146.3416,-266.6372,-110.28200000000001,175,75
2026-05-09 16:16:28.598,5,-0.23,0.39,0.0,-216.5216,-266.6372,-170.90200000000002,175,75
2026-05-09 16:16:28.610,5,0.41,0.35,-0.21,-240.0016,-221.4072,-237.312,175,75
2026-05-09 16:16:28.624,5,1.09,0.31,-0.28,-240.0016,-26.4472,-246.022,175,75
2026-05-09 16:16:28.637,5,2.0,0.21,-0.21,-240.0016,216.8128,-246.022,175,75
2026-05-09 16:16:28.637,5,2.0,0.26,-0.11,-240.0016,233.6328,-246.022,175,75
2026-05-09 16:16:28.658,5,2.0,0.72,0.12,-240.0016,233.6328,-246.022,175,75
2026-05-09 16:16:28.658,5,2.0,0.41,-0.23,-240.0016,233.6328,-204.542,175,75
2026-05-09 16:16:28.674,5,1.47,0.71,-0.71,-240.0016,233.6328,-176.862,175,75
2026-05-09 16:16:28.685,5,1.19,0.76,-0.57,-240.0016,233.6328,-75.19200000000001,175,75
2026-05-09 16:16:28.697,5,1.94,2.0,1.93,-240.0016,233.6328,254.248,175,75
2026-05-09 16:16:28.709,5,-2.0,2.0,1.72,-238.2116,233.6328,254.248,175,75
2026-05-09 16:16:28.709,5,-2.0,-0.28,2.0,-171.4516,233.6328,254.248,175,75
2026-05-09 16:16:28.727,5,-2.0,-1.52,2.0,-145.04160000000002,229.0928,200.428,175,75
2026-05-09 16:16:28.727,5,-2.0,-1.46,2.0,-127.97160000000001,-51.0972,-80.25200000000001,175,75
2026-05-09 16:16:28.747,5,-2.0,-1.93,1.72,-52.52159999999999,-266.6372,-246.022,175,75
2026-05-09 16:16:28.757,5,-2.0,-2.0,1.62,61.1884,-266.6372,-246.022,175,75
2026-05-09 16:16:28.757,5,-0.92,-1.6,1.85,151.0484,-266.6372,-237.982,175,75
2026-05-09 16:16:28.772,5,-0.89,-0.73,1.69,202.08839999999998,-266.6372,-219.832,175,75
2026-05-09 16:16:28.783,5,-1.26,0.24,1.32,223.6084,-266.6372,-246.022,175,75
2026-05-09 16:16:28.798,5,0.15,0.69,1.06,221.8284,-266.6372,-246.022,175,75
2026-05-09 16:16:28.798,5,0.69,0.76,0.75,204.0084,-266.6372,-246.022,175,75
2026-05-09 16:16:28.827,5,1.74,0.68,0.24,175.83839999999998,-266.6372,-242.972,175,75
2026-05-09 16:16:28.834,5,2.0,0.88,0.23,165.1084,-265.5772,-116.522,175,75
2026-05-09 16:16:28.844,5,1.44,0.8,0.35,136.8284,-136.7172,-17.902,175,75
2026-05-09 16:16:28.859,5,0.25,0.51,0.47,64.3484,10.9028,26.398,175,75
2026-05-09 16:16:28.871,5,-0.01,0.3,0.34,43.368399999999994,37.3928,31.718,175,75
2026-05-09 16:16:28.884,5,-0.12,0.1,0.16,39.778400000000005,43.0628,46.768,175,75
2026-05-09 16:16:28.895,5,-0.14,0.03,-0.01,49.7384,27.9028,77.298,175,75
2026-05-09 16:16:28.905,5,-0.1,0.02,-0.16,68.3484,1.9027999999999992,117.068,175,75
2026-05-09 16:16:28.915,5,0.02,0.17,-0.28,83.2184,-24.2772,149.59799999999998,175,75
2026-05-09 16:16:28.920,5,0.12,0.1,-0.23,94.53840000000001,-46.837199999999996,187.938,175,75
2026-05-09 16:16:28.967,5,0.04,-0.07,-0.54,122.6384,-98.22720000000001,170.06799999999998,175,75
2026-05-09 16:16:28.981,5,-0.08,-0.38,-0.49,137.3584,-117.2672,155.148,175,75
2026-05-09 16:16:28.994,5,0.34,-0.1,-0.33,150.11839999999998,-111.4872,180.09799999999998,175,75
2026-05-09 16:16:29.003,5,0.87,-0.69,-0.55,169.0384,-58.8172,225.108,175,75
2026-05-09 16:16:29.017,5,0.73,-0.66,-0.32,189.8284,25.882800000000003,254.248,175,75
2026-05-09 16:16:29.029,5,0.09,-0.28,0.62,201.95839999999998,170.2928,237.998,175,75
2026-05-09 16:16:29.038,5,0.44,0.01,0.65,153.55839999999998,233.6328,117.978,175,75
2026-05-09 16:16:29.057,5,0.5,0.13,1.22,123.36840000000001,233.6328,-79.882,175,75
2026-05-09 16:16:29.068,5,-1.64,-0.35,2.0,80.47840000000001,233.6328,-246.022,175,75
2026-05-09 16:16:29.087,5,0.87,1.82,2.0,-109.71159999999999,233.6328,-246.022,175,75
2026-05-09 16:16:29.115,5,-1.59,0.2,2.0,-240.0016,233.6328,-246.022,175,75
2026-05-09 16:16:29.134,5,-2.0,-0.76,1.83,-174.0616,165.99280000000002,-246.022,175,75
2026-05-09 16:16:29.146,5,-2.0,-0.67,2.0,21.2784,-230.2372,91.848,175,75
2026-05-09 16:16:29.152,5,-2.0,0.07,2.0,50.33840000000001,-266.6372,183.778,175,75
2026-05-09 16:16:29.186,5,-0.9,1.07,1.96,125.6884,-266.6372,195.678,175,75
2026-05-09 16:16:29.197,5,1.18,1.38,2.0,149.3584,-266.6372,254.248,175,75
2026-05-09 16:16:29.218,5,1.3,0.15,0.74,-47.7016,-266.6372,254.248,175,75
2026-05-09 16:16:29.229,5,1.31,-0.16,0.43,-72.21159999999999,-266.6372,254.248,175,75
2026-05-09 16:16:29.238,5,1.17,-0.74,-0.26,-70.0116,-266.6372,254.248,175,75
2026-05-09 16:16:29.238,5,0.4,-0.73,-0.41,-60.2816,-164.3372,254.248,175,75
2026-05-09 16:16:29.238,5,-0.35,-0.41,-0.09,-69.6216,-95.8572,254.248,175,75
2026-05-09 16:16:29.249,5,-1.03,-0.41,-0.01,-72.2316,-80.4272,122.678,175,75
2026-05-09 16:16:29.262,5,-1.3,-0.35,-0.1,-64.49159999999999,-115.6072,-11.732000000000001,175,75
2026-05-09 16:16:29.273,5,-1.3,-0.19,-0.23,-60.6516,-169.5872,-131.442,175,75
2026-05-09 16:16:29.285,5,-1.0,0.07,-0.39,-70.0116,-216.6472,-242.732,175,75
2026-05-09 16:16:29.297,5,-0.66,0.46,-0.61,-78.1716,-246.8272,-246.022,175,75
2026-05-09 16:16:29.308,5,0.16,0.55,-0.72,-105.6916,-236.56719999999999,-246.022,175,75
2026-05-09 16:16:29.308,5,0.59,0.49,-0.75,-131.47160000000002,-189.5172,-246.022,175,75
2026-05-09 16:16:29.332,5,0.53,0.42,-0.49,-141.23160000000001,-141.6772,-246.022,175,75
2026-05-09 16:16:29.332,5,0.42,0.36,-0.18,-137.7016,-103.18719999999999,-232.882,175,75
2026-05-09 16:16:29.342,5,0.31,0.2,-0.05,-130.79160000000002,-81.50720000000001,-160.71200000000002,175,75
2026-05-09 16:16:29.370,5,0.29,0.0,-0.15,-45.7816,11.802800000000001,31.637999999999998,175,75
2026-05-09 16:16:29.381,5,0.37,-0.11,-0.29,4.008400000000001,51.3928,86.068,175,75
2026-05-09 16:16:29.391,5,0.56,-0.14,-0.34,56.498400000000004,104.81280000000001,132.988,175,75
2026-05-09 16:16:29.402,5,0.67,-0.1,-0.23,96.6084,171.0928,174.438,175,75
2026-05-09 16:16:29.412,5,0.79,-0.12,-0.04,124.81840000000001,233.6328,210.238,175,75
2026-05-09 16:16:29.423,5,1.07,0.36,-0.16,135.1884,233.6328,250.31799999999998,175,75
2026-05-09 16:16:29.433,5,1.6,-0.03,0.1,147.39839999999998,233.6328,254.248,175,75
2026-05-09 16:16:29.447,5,1.78,0.11,0.14,157.0984,233.6328,254.248,175,75
2026-05-09 16:16:29.459,5,1.61,0.09,0.59,161.7884,233.6328,254.248,175,75
2026-05-09 16:16:29.472,5,1.27,-0.99,2.0,-17.011599999999998,233.6328,-115.83200000000001,175,75
2026-05-09 16:16:29.482,5,-1.51,-0.66,1.79,-30.371599999999997,233.6328,-240.74200000000002,175,75
2026-05-09 16:16:29.494,5,-2.0,-0.69,1.79,-28.0716,233.6328,-246.022,175,75
2026-05-09 16:16:29.516,5,-2.0,-1.07,2.0,23.7784,233.6328,-246.022,175,75
2026-05-09 16:16:29.523,5,-2.0,-1.0,2.0,63.4084,233.6328,-246.022,175,75
2026-05-09 16:16:29.537,5,-2.0,-0.61,2.0,93.2184,180.4828,-233.90200000000002,175,75
2026-05-09 16:16:29.547,5,-2.0,0.05,2.0,143.61839999999998,1.3228000000000009,-134.952,175,75
2026-05-09 16:16:29.547,5,-2.0,1.14,2.0,157.9084,-266.6372,58.337999999999994,175,75
2026-05-09 16:16:29.559,5,-1.91,1.23,2.0,110.53840000000001,-266.6372,163.168,175,75
2026-05-09 16:16:29.570,5,-1.1,0.7,2.0,61.7684,-266.6372,194.938,175,75
2026-05-09 16:16:29.593,5,0.46,0.02,0.8,24.648400000000002,-266.6372,254.248,175,75
2026-05-09 16:16:29.618,5,1.71,-0.45,-0.16,19.5184,-266.6372,254.248,175,75
2026-05-09 16:16:29.618,5,1.62,-0.58,-0.48,35.2184,-266.6372,254.248,175,75
2026-05-09 16:16:29.628,5,1.15,-0.65,-0.76,55.4584,-266.6372,254.248,175,75
2026-05-09 16:16:29.641,5,0.07,-0.25,-1.84,44.928399999999996,-266.6372,234.938,175,75
2026-05-09 16:16:29.651,5,-0.37,-0.42,-1.48,64.7684,-266.6372,91.588,175,75
2026-05-09 16:16:29.667,5,-0.76,-0.16,-1.79,20.9084,-266.6372,-45.092,175,75
2026-05-09 16:16:29.667,5,-1.22,-0.09,-1.42,-31.131600000000002,-266.6372,-111.872,175,75
2026-05-09 16:16:29.680,5,-1.52,-0.04,-0.96,-82.57159999999999,-266.6372,-118.802,175,75
2026-05-09 16:16:29.724,5,-0.72,0.36,0.0,-196.98160000000001,-266.6372,-141.232,175,75
2026-05-09 16:16:29.724,5,-0.27,0.59,0.14,-238.22160000000002,-266.6372,-186.232,175,75
2026-05-09 16:16:29.736,5,-0.3,0.61,0.3,-240.0016,-266.6372,-246.022,175,75
2026-05-09 16:16:29.748,5,-0.0,0.67,0.23,-240.0016,-266.6372,-246.022,175,75
2026-05-09 16:16:29.750,5,1.94,0.15,-0.5,-240.0016,-211.1772,-246.022,175,75
2026-05-09 16:16:29.767,5,2.0,-0.35,-2.0,-129.8916,233.6328,-76.00200000000001,175,75
2026-05-09 16:16:29.767,5,2.0,0.99,-0.77,-100.66159999999999,233.6328,105.848,175,75
2026-05-09 16:16:29.780,5,0.33,0.9,-0.73,-136.8416,233.6328,56.578,175,75
2026-05-09 16:16:29.795,5,0.37,0.82,-1.01,-181.6816,233.6328,11.937999999999999,175,75
2026-05-09 16:16:29.808,5,0.47,0.28,-1.22,-210.7016,233.6328,-8.322000000000001,175,75
2026-05-09 16:16:29.808,5,0.34,0.03,-1.54,-232.07160000000002,233.6328,-19.002000000000002,175,75
2026-05-09 16:16:29.840,5,-2.0,2.0,2.0,-211.69160000000002,233.6328,254.248,175,75
2026-05-09 16:16:29.857,5,-2.0,0.37,2.0,-170.5216,233.6328,254.248,175,75
2026-05-09 16:16:29.869,5,-2.0,-0.94,2.0,-133.4016,162.71280000000002,254.248,175,75
2026-05-09 16:16:29.883,5,-2.0,-1.12,2.0,-132.01160000000002,10.1328,-68.072,175,75
2026-05-09 16:16:29.901,5,-2.0,-2.0,2.0,12.7484,-164.41719999999998,-246.022,175,75
2026-05-09 16:16:29.901,5,-1.31,-1.97,1.97,106.86840000000001,-193.4272,-217.822,175,75
2026-05-09 16:16:29.914,5,-1.54,-1.1,1.66,185.1584,-266.6372,-179.562,175,75
2026-05-09 16:16:29.924,5,-1.92,-0.14,1.42,219.8884,-266.6372,-223.93200000000002,175,75
2026-05-09 16:16:29.937,5,-0.19,0.64,1.06,215.9184,-266.6372,-246.022,175,75
2026-05-09 16:16:29.949,5,0.48,0.79,0.89,185.89839999999998,-266.6372,-246.022,175,75
2026-05-09 16:16:29.970,5,0.91,0.85,0.52,109.3784,-266.6372,-246.022,175,75
2026-05-09 16:16:29.970,5,1.6,0.64,0.16,100.4084,-266.6372,-246.022,175,75
2026-05-09 16:16:29.983,5,1.95,0.67,-0.01,111.7484,-234.47719999999998,-156.642,175,75
2026-05-09 16:16:29.997,5,1.27,0.72,0.13,108.8784,-136.6472,-48.422,175,75
2026-05-09 16:16:30.009,5,0.6,0.73,0.26,86.7484,-64.2972,-17.602,175,75
2026-05-09 16:16:30.009,5,0.31,0.53,0.28,64.0784,-19.1172,-7.852000000000002,175,75
2026-05-09 16:16:30.019,5,0.24,0.31,0.25,50.9584,16.232799999999997,8.727999999999998,175,75
2026-05-09 16:16:30.036,5,0.19,0.16,0.19,51.7084,40.9028,38.388000000000005,175,75
2026-05-09 16:16:30.043,5,0.13,0.17,0.14,56.288399999999996,53.572799999999994,74.068,175,75
2026-05-09 16:16:30.057,5,-0.01,0.17,0.07,62.2384,53.68280000000001,106.588,175,75
2026-05-09 16:16:30.063,5,-0.16,0.22,-0.01,67.6884,38.6828,127.41799999999999,175,75
2026-05-09 16:16:30.077,5,-0.23,0.26,-0.1,70.9284,10.442800000000002,136.278,175,75
2026-05-09 16:16:30.077,5,-0.26,0.24,-0.13,77.42840000000001,-21.6072,150.718,175,75
2026-05-09 16:16:30.090,5,-0.21,0.11,-0.15,91.6384,-60.5072,160.648,175,75
2026-05-09 16:16:30.103,5,-0.25,0.02,-0.26,106.08840000000001,-97.09719999999999,171.53799999999998,175,75
2026-05-09 16:16:30.117,5,-0.21,-0.14,-0.37,126.8584,-139.7472,183.668,175,75
2026-05-09 16:16:30.117,5,-0.12,-0.27,-0.34,163.3284,-186.78719999999998,210.468,175,75
2026-05-09 16:16:30.130,5,0.1,-0.52,-0.71,199.83839999999998,-232.9072,251.428,175,75
2026-05-09 16:16:30.139,5,0.91,-0.55,-1.03,248.1284,-250.66719999999998,254.248,175,75
2026-05-09 16:16:30.152,5,1.5,-0.53,-0.91,260.2684,-165.3472,254.248,175,75
2026-05-09 16:16:30.162,5,1.03,-0.34,-0.29,260.2684,-60.2572,254.248,175,75
2026-05-09 16:16:30.169,5,0.82,-0.38,0.14,260.2684,44.0628,254.248,175,75
2026-05-09 16:16:30.183,5,0.65,-0.22,0.94,260.2684,198.55280000000002,254.248,175,75
2026-05-09 16:16:30.197,5,0.23,0.5,1.02,218.7584,233.6328,74.338,175,75
2026-05-09 16:16:30.197,5,0.01,0.2,2.0,146.95839999999998,233.6328,-209.022,175,75
2026-05-09 16:16:30.217,5,0.24,-0.27,2.0,81.4384,233.6328,-246.022,175,75
2026-05-09 16:16:30.217,5,1.08,1.06,2.0,-94.0416,233.6328,-246.022,175,75
2026-05-09 16:16:30.244,5,-0.8,-0.69,2.0,-240.0016,233.6328,-246.022,175,75
2026-05-09 16:16:30.257,5,-2.0,-1.18,1.98,-109.3316,233.6328,-246.022,175,75
2026-05-09 16:16:30.257,5,-2.0,-1.24,1.79,27.7484,69.30279999999999,-246.022,175,75
2026-05-09 16:16:30.271,5,-2.0,-0.64,2.0,107.0784,-238.13719999999998,-148.862,175,75
2026-05-09 16:16:30.281,5,-2.0,0.21,2.0,118.2084,-266.6372,-50.842,175,75
2026-05-09 16:16:30.292,5,-2.0,1.08,2.0,90.8784,-266.6372,-61.012,175,75
2026-05-09 16:16:30.302,5,-1.08,1.28,1.94,122.33840000000001,-266.6372,-59.402,175,75
2026-05-09 16:16:30.313,5,1.89,1.22,1.31,235.98839999999998,-266.6372,209.858,175,75
2026-05-09 16:16:30.328,5,2.0,1.96,1.52,260.2684,-266.6372,254.248,175,75
2026-05-09 16:16:30.328,5,1.53,1.96,1.7,172.2484,-266.6372,254.248,175,75
2026-05-09 16:16:30.341,5,1.36,1.23,1.26,57.2684,-266.6372,254.248,175,75
2026-05-09 16:16:30.352,5,0.91,0.66,0.89,-16.6816,-204.6772,254.248,175,75
2026-05-09 16:16:30.367,5,0.38,0.45,0.57,-54.6716,-127.28720000000001,254.248,175,75
2026-05-09 16:16:30.377,5,-0.07,-0.07,0.14,-63.1216,-105.0172,254.248,175,75
2026-05-09 16:16:30.385,5,-0.1,-0.52,-0.33,-51.4516,-123.12719999999999,254.248,175,75
2026-05-09 16:16:30.405,5,0.18,-0.53,-1.28,-4.7315999999999985,-151.8972,254.248,175,75
2026-05-09 16:16:30.449,5,0.3,-0.78,-1.55,15.618400000000001,-124.15719999999999,212.148,175,75
2026-05-09 16:16:30.449,5,-0.4,-0.62,-1.09,27.7984,-108.12719999999999,80.338,175,75
2026-05-09 16:16:30.460,5,-0.94,-0.33,-0.42,33.248400000000004,-127.71719999999999,-33.772000000000006,175,75
2026-05-09 16:16:30.460,5,-0.99,-0.11,-0.12,26.1984,-158.22719999999998,-123.90200000000002,175,75
2026-05-09 16:16:30.470,5,-0.8,0.14,0.04,6.448400000000001,-172.5472,-199.732,175,75
2026-05-09 16:16:30.481,5,-0.62,0.31,0.06,-25.8616,-173.66719999999998,-246.022,175,75
2026-05-09 16:16:30.493,5,-0.32,0.39,0.0,-58.96159999999999,-162.28719999999998,-246.022,175,75
2026-05-09 16:16:30.493,5,-0.02,0.37,-0.1,-84.3116,-139.5372,-246.022,175,75
2026-05-09 16:16:30.505,5,0.46,0.38,-0.16,-97.82159999999999,-96.50720000000001,-246.022,175,75
2026-05-09 16:16:30.505,5,0.63,0.39,-0.18,-103.32159999999999,-47.1272,-241.832,175,75
2026-05-09 16:16:30.518,5,0.67,0.28,-0.2,-104.3116,-5.517199999999999,-157.062,175,75
2026-05-09 16:16:30.528,5,0.64,0.32,-0.24,-90.2316,35.092800000000004,-54.282,175,75
2026-05-09 16:16:30.542,5,0.24,0.08,-0.24,-35.3416,97.5428,94.878,175,75
2026-05-09 16:16:30.553,5,0.26,-0.06,-0.19,2.6084000000000005,127.6628,141.78799999999998,175,75
2026-05-09 16:16:30.567,5,0.5,-0.21,-0.06,40.928399999999996,170.2328,188.988,175,75
2026-05-09 16:16:30.578,5,0.77,-0.25,0.12,78.7684,232.9728,237.198,175,75
2026-05-09 16:16:30.578,5,1.14,-0.08,0.22,85.0584,233.6328,254.248,175,75
2026-05-09 16:16:30.589,5,1.34,-0.05,0.42,89.1284,233.6328,254.248,175,75
2026-05-09 16:16:30.605,5,1.7,0.05,1.04,86.89840000000001,233.6328,254.248,175,75
2026-05-09 16:16:30.618,5,1.65,-0.54,2.0,32.3484,127.6628,-149.542,175,75
2026-05-09 16:16:30.639,5,-0.24,0.13,2.0,-18.8416,233.6328,-246.022,175,75
2026-05-09 16:16:30.655,5,-0.87,-0.08,2.0,-82.5916,233.6328,-246.022,175,75
2026-05-09 16:16:30.655,5,-1.58,-0.38,2.0,-130.7816,233.6328,-246.022,175,75
2026-05-09 16:16:30.668,5,-2.0,-0.9,2.0,-134.7516,233.6328,-246.022,175,75
2026-05-09 16:16:30.679,5,-2.0,-1.34,2.0,-64.13159999999999,233.6328,-246.022,175,75
2026-05-09 16:16:30.690,5,-2.0,-0.86,2.0,92.9884,210.74280000000002,-235.802,175,75
2026-05-09 16:16:30.690,5,-2.0,0.36,2.0,192.9484,-133.1572,-1.3820000000000014,175,75
2026-05-09 16:16:30.712,5,-2.0,1.12,2.0,144.86839999999998,-266.6372,93.598,175,75
2026-05-09 16:16:30.722,5,-0.66,0.66,1.52,132.7184,-266.6372,173.998,175,75
2026-05-09 16:16:30.745,5,0.61,0.3,0.79,132.1184,-266.6372,245.198,175,75
2026-05-09 16:16:30.755,5,2.0,-0.34,-0.21,122.2384,-266.6372,254.248,175,75
2026-05-09 16:16:30.767,5,2.0,-0.73,-1.07,181.6084,-266.6372,254.248,175,75
2026-05-09 16:16:30.778,5,2.0,-1.87,-1.55,254.7984,-266.6372,254.248,175,75
2026-05-09 16:16:30.778,5,1.77,-0.22,-2.0,260.2684,-117.25720000000001,254.248,175,75
2026-05-09 16:16:30.802,5,-1.01,-0.11,-1.07,222.7884,-42.7372,254.248,175,75
2026-05-09 16:16:30.803,5,-1.75,-0.08,-0.34,168.73839999999998,-115.6472,168.128,175,75
2026-05-09 16:16:30.824,5,-2.0,0.04,0.06,102.7684,-198.38719999999998,44.518,175,75
2026-05-09 16:16:30.835,5,-2.0,0.27,0.19,34.5684,-266.6372,-77.772,175,75
2026-05-09 16:16:30.835,5,-2.0,0.14,0.06,-33.331599999999995,-266.6372,-199.812,175,75
2026-05-09 16:16:30.860,5,-1.17,0.3,-0.35,-151.7516,-266.6372,-246.022,175,75
2026-05-09 16:16:30.860,5,-0.39,0.34,-0.53,-196.4216,-266.6372,-246.022,175,75
2026-05-09 16:16:30.870,5,0.77,0.37,-0.61,-226.3316,-266.6372,-246.022,175,75
2026-05-09 16:16:30.883,5,1.23,0.49,-0.41,-240.0016,-145.7372,-246.022,175,75
2026-05-09 16:16:30.924,5,2.0,1.1,0.1,-240.0016,233.6328,-246.022,175,75
2026-05-09 16:16:30.936,5,1.6,1.77,-0.17,-240.0016,233.6328,-36.962,175,75
2026-05-09 16:16:30.956,5,0.88,1.43,-0.44,-240.0016,233.6328,-86.662,175,75
2026-05-09 16:16:30.956,5,0.77,0.91,-0.94,-240.0016,233.6328,-121.962,175,75
2026-05-09 16:16:30.966,5,2.0,2.0,0.04,-240.0016,233.6328,254.248,175,75
2026-05-09 16:16:30.966,5,-0.35,2.0,1.91,-240.0016,233.6328,254.248,175,75
2026-05-09 16:16:30.971,5,-1.78,1.55,0.99,-240.0016,233.6328,254.248,175,75
2026-05-09 16:16:30.977,5,-2.0,-0.18,1.25,-229.13160000000002,233.6328,254.248,175,75
2026-05-09 16:16:30.993,5,-2.0,-0.73,2.0,-145.3016,233.6328,254.248,175,75
2026-05-09 16:16:31.007,5,-2.0,-2.0,2.0,-123.8816,168.6628,254.248,175,75
2026-05-09 16:16:31.019,5,-2.0,-2.0,2.0,-104.0816,-77.3772,99.348,175,75
2026-05-09 16:16:31.019,5,-2.0,-2.0,2.0,-42.991600000000005,-266.6372,-89.42200000000001,175,75
2026-05-09 16:16:31.037,5,-2.0,-1.55,1.55,27.3384,-266.6372,-245.192,175,75
2026-05-09 16:16:31.037,5,-1.76,-0.99,1.3,84.42840000000001,-266.6372,-246.022,175,75
2026-05-09 16:16:31.058,5,-1.04,-0.44,1.07,121.3584,-266.6372,-246.022,175,75
2026-05-09 16:16:31.058,5,-0.81,0.08,0.95,143.5084,-266.6372,-246.022,175,75
2026-05-09 16:16:31.084,5,-0.18,0.58,0.69,153.3484,-266.6372,-246.022,175,75
2026-05-09 16:16:31.097,5,1.58,1.22,0.29,174.7984,-266.6372,-246.022,175,75
2026-05-09 16:16:31.108,5,2.0,1.33,0.54,148.17839999999998,-266.6372,-246.022,175,75
2026-05-09 16:16:31.119,5,2.0,1.15,0.33,111.2184,-247.53719999999998,-189.592,175,75
2026-05-09 16:16:31.119,5,1.51,0.8,0.27,95.6384,-101.1172,-101.08200000000001,175,75
2026-05-09 16:16:31.129,5,0.95,0.53,0.37,84.47840000000001,9.7928,-43.682,175,75
2026-05-09 16:16:31.140,5,0.63,0.36,0.43,76.67840000000001,96.46279999999999,5.147999999999999,175,75
2026-05-09 16:16:31.151,5,0.3,0.22,0.37,69.5384,158.0328,48.018,175,75
2026-05-09 16:16:31.177,5,-0.13,0.06,0.11,73.4484,189.4728,130.968,175,75
2026-05-09 16:16:31.186,5,-0.28,0.09,0.0,86.9884,160.58280000000002,174.168,175,75
2026-05-09 16:16:31.198,5,-0.35,0.19,-0.06,99.9484,107.53280000000001,217.088,175,75
2026-05-09 16:16:31.198,5,-0.36,0.34,-0.05,103.5784,41.522800000000004,253.798,175,75
2026-05-09 16:16:31.211,5,-0.34,0.48,-0.1,94.7384,-22.507199999999997,254.248,175,75
2026-05-09 16:16:31.224,5,-0.51,0.43,-0.09,78.5784,-81.2072,254.248,175,75
2026-05-09 16:16:31.235,5,-0.24,0.36,-0.15,72.3684,-128.7272,254.248,175,75
2026-05-09 16:16:31.245,5,-0.09,0.16,-0.32,66.1284,-168.7372,254.248,175,75
2026-05-09 16:16:31.258,5,0.27,-0.2,-0.47,73.8484,-194.6772,254.248,175,75
2026-05-09 16:16:31.258,5,1.02,-0.61,-0.74,101.7384,-181.9672,254.248,175,75
2026-05-09 16:16:31.271,5,1.07,-0.9,-0.69,150.3484,-116.22720000000001,254.248,175,75
2026-05-09 16:16:31.282,5,0.53,-0.81,-0.41,195.4184,-76.3272,254.248,175,75
2026-05-09 16:16:31.294,5,0.14,-0.54,0.07,225.7984,-38.4972,254.248,175,75
2026-05-09 16:16:31.307,5,0.1,-0.42,0.63,234.70839999999998,40.0028,254.248,175,75
2026-05-09 16:16:31.307,5,0.39,-0.18,0.68,188.1584,176.9228,196.488,175,75
2026-05-09 16:16:31.318,5,-2.0,-1.77,2.0,154.05839999999998,167.1028,-203.372,175,75
2026-05-09 16:16:31.327,5,-0.22,-0.14,2.0,87.4184,108.4228,-246.022,175,75
2026-05-09 16:16:31.341,5,0.49,0.84,2.0,2.1884000000000006,233.6328,-246.022,175,75
2026-05-09 16:16:31.351,5,1.07,0.87,2.0,-119.2616,233.6328,-246.022,175,75
2026-05-09 16:16:31.380,5,-1.71,-0.77,2.0,-41.2916,233.6328,-246.022,175,75
2026-05-09 16:16:31.392,5,-2.0,-0.31,2.0,90.11840000000001,195.61280000000002,-240.272,175,75
2026-05-09 16:16:31.402,5,-2.0,0.23,2.0,125.97840000000001,-61.2572,-42.382000000000005,175,75
2026-05-09 16:16:31.413,5,-2.0,0.63,2.0,96.3584,-257.7472,52.428,175,75
2026-05-09 16:16:31.427,5,-2.0,0.73,2.0,59.08840000000001,-266.6372,103.88799999999999,175,75
2026-05-09 16:16:31.441,5,-1.42,0.53,1.69,67.8284,-266.6372,186.488,175,75
2026-05-09 16:16:31.452,5,0.07,0.36,1.25,111.61840000000001,-266.6372,254.248,175,75
2026-05-09 16:16:31.463,5,0.9,0.39,1.09,121.6384,-266.6372,254.248,175,75
2026-05-09 16:16:31.477,5,0.94,0.34,0.78,85.4984,-266.6372,254.248,175,75
2026-05-09 16:16:31.488,5,0.96,0.15,0.54,53.69840000000001,-266.6372,254.248,175,75
2026-05-09 16:16:31.488,5,1.24,-0.02,0.03,34.388400000000004,-266.6372,254.248,175,75
2026-05-09 16:16:31.513,5,1.34,-0.52,-1.19,4.548400000000001,-192.8672,254.248,175,75
2026-05-09 16:16:31.528,5,0.15,-0.31,-0.66,-0.6815999999999995,-95.21719999999999,254.248,175,75
2026-05-09 16:16:31.537,5,-0.48,-0.29,-0.16,-10.3416,-67.68719999999999,174.158,175,75
2026-05-09 16:16:31.543,5,-0.82,-0.32,0.03,-4.881599999999999,-67.7572,70.988,175,75
2026-05-09 16:16:31.557,5,-0.89,-0.31,0.08,7.878400000000001,-86.91720000000001,-11.802000000000001,175,75
2026-05-09 16:16:31.557,5,-0.84,-0.18,0.06,15.868400000000001,-111.8972,-91.912,175,75
2026-05-09 16:16:31.568,5,-0.68,-0.03,0.03,17.3484,-132.0172,-162.74200000000002,175,75
2026-05-09 16:16:31.584,5,-0.47,0.14,0.02,13.028400000000001,-141.6272,-218.362,175,75
2026-05-09 16:16:31.597,5,-0.28,0.27,0.03,1.3484000000000016,-136.7072,-246.022,175,75
2026-05-09 16:16:31.597,5,-0.01,0.38,0.03,-15.561599999999999,-116.81719999999999,-246.022,175,75
2026-05-09 16:16:31.609,5,0.22,0.38,0.01,-30.5416,-84.72720000000001,-246.022,175,75
2026-05-09 16:16:31.630,5,0.4,0.35,-0.05,-41.8116,-44.3772,-246.022,175,75
2026-05-09 16:16:31.630,5,0.51,0.35,-0.09,-49.4216,-0.40719999999999956,-246.022,175,75
2026-05-09 16:16:31.639,5,0.53,0.31,-0.13,-50.6516,44.0028,-202.862,175,75
2026-05-09 16:16:31.651,5,0.47,0.23,-0.13,-46.3916,77.4128,-153.622,175,75
2026-05-09 16:16:31.662,5,0.42,0.18,-0.09,-38.0316,107.3528,-95.31200000000001,175,75
2026-05-09 16:16:31.673,5,0.46,0.1,0.01,-28.1516,140.36280000000002,-30.132,175,75
2026-05-09 16:16:31.680,5,0.69,0.06,0.18,-20.7516,188.0428,35.397999999999996,175,75
2026-05-09 16:16:31.698,5,1.0,0.02,0.39,-11.291599999999999,233.6328,98.658,175,75
2026-05-09 16:16:31.708,5,1.3,-0.09,0.64,-25.2916,233.6328,154.218,175,75
2026-05-09 16:16:31.718,5,2.0,0.43,2.0,-69.88159999999999,233.6328,254.248,175,75
2026-05-09 16:16:31.738,5,2.0,-0.13,2.0,-59.16159999999999,233.6328,254.248,175,75
2026-05-09 16:16:31.738,5,-0.82,-0.5,2.0,-36.7016,233.6328,112.82799999999999,175,75
2026-05-09 16:16:31.756,5,-2.0,-0.26,2.0,-50.741600000000005,233.6328,-64.682,175,75
2026-05-09 16:16:31.768,5,-2.0,-0.59,2.0,-63.941599999999994,233.6328,-246.022,175,75
2026-05-09 16:16:31.786,5,-2.0,-0.64,2.0,-61.0416,233.6328,-246.022,175,75
2026-05-09 16:16:31.786,5,-2.0,-0.87,2.0,-35.491600000000005,233.6328,-246.022,175,75
2026-05-09 16:16:31.797,5,-2.0,-0.99,2.0,11.8084,200.1328,-246.022,175,75
2026-05-09 16:16:31.808,5,-2.0,-0.65,2.0,90.7484,55.0028,-246.022,175,75
2026-05-09 16:16:31.808,5,-1.9,0.17,2.0,168.1884,-163.6772,-77.702,175,75
2026-05-09 16:16:31.818,5,-1.62,0.96,2.0,182.89839999999998,-266.6372,67.368,175,75
2026-05-09 16:16:31.829,5,-1.31,0.97,2.0,148.4384,-266.6372,128.368,175,75
2026-05-09 16:16:31.841,5,-0.63,0.64,1.56,114.9384,-266.6372,165.948,175,75
2026-05-09 16:16:31.868,5,0.58,0.16,0.62,68.9084,-266.6372,236.658,175,75
2026-05-09 16:16:31.885,5,1.33,-0.2,0.16,54.4884,-266.6372,254.248,175,75
2026-05-09 16:16:31.896,5,1.58,-0.66,-0.28,78.2684,-266.6372,254.248,175,75
2026-05-09 16:16:31.896,5,1.19,-0.56,-0.5,123.8884,-266.6372,254.248,175,75
2026-05-09 16:16:31.903,5,1.06,-0.81,-1.58,178.3584,-266.6372,254.248,175,75
2026-05-09 16:16:31.914,5,1.14,-0.54,-2.0,219.42839999999998,-256.4472,254.248,175,75
2026-05-09 16:16:31.924,5,-0.15,-0.38,-1.84,187.26839999999999,-161.50719999999998,127.35799999999999,175,75
2026-05-09 16:16:31.935,5,-1.1,-0.43,-0.9,154.08839999999998,-178.9672,-6.092000000000002,175,75
2026-05-09 16:16:31.967,5,-1.07,0.54,0.05,-99.3616,-266.6372,-213.002,175,75
2026-05-09 16:16:31.986,5,-0.9,0.52,-0.1,-169.97160000000002,-266.6372,-246.022,175,75
2026-05-09 16:16:31.998,5,0.31,0.32,-0.08,-234.94160000000002,-266.6372,-246.022,175,75
2026-05-09 16:16:32.010,5,1.14,0.45,0.07,-240.0016,-145.4972,-246.022,175,75
2026-05-09 16:16:32.023,5,2.0,0.89,0.2,-240.0016,101.1728,-243.622,175,75
2026-05-09 16:16:32.034,5,2.0,1.27,0.18,-240.0016,233.6328,-153.032,175,75
2026-05-09 16:16:32.047,5,2.0,1.16,0.0,-240.0016,233.6328,-81.462,175,75
2026-05-09 16:16:32.059,5,1.3,1.5,-0.92,-240.0016,233.6328,-101.382,175,75
2026-05-09 16:16:32.059,5,1.02,0.6,-0.69,-240.0016,233.6328,-150.65200000000002,175,75
2026-05-09 16:16:32.070,5,1.17,0.51,-0.52,-240.0016,233.6328,-106.97200000000001,175,75
2026-05-09 16:16:32.081,5,1.72,-1.02,1.14,-240.0016,233.6328,254.248,175,75
2026-05-09 16:16:32.102,5,-2.0,-0.46,2.0,-184.3716,233.6328,254.248,175,75
2026-05-09 16:16:32.113,5,-2.0,-0.08,2.0,-126.1116,233.6328,254.248,175,75
2026-05-09 16:16:32.121,5,-2.0,-1.44,2.0,-97.8316,61.152800000000006,23.427999999999997,175,75
2026-05-09 16:16:32.134,5,-2.0,-1.79,1.98,-51.2016,-194.56719999999999,-165.542,175,75
2026-05-09 16:16:32.145,5,-2.0,-1.75,1.58,37.0184,-266.6372,-246.022,175,75
2026-05-09 16:16:32.153,5,-1.72,-1.46,1.61,116.50840000000001,-266.6372,-246.022,175,75
2026-05-09 16:16:32.171,5,-0.83,-0.85,1.64,167.5084,-266.6372,-246.022,175,75
2026-05-09 16:16:32.183,5,-1.14,0.1,1.62,188.1584,-266.6372,-246.022,175,75
2026-05-09 16:16:32.183,5,0.25,0.69,1.13,184.1584,-266.6372,-246.022,175,75
2026-05-09 16:16:32.194,5,0.93,0.75,0.69,171.8584,-266.6372,-246.022,175,75
2026-05-09 16:16:32.204,5,1.14,0.78,0.46,160.61839999999998,-266.6372,-246.022,175,75
2026-05-09 16:16:32.217,5,2.0,0.73,0.23,157.9684,-266.6372,-246.022,175,75
2026-05-09 16:16:32.217,5,2.0,0.75,0.18,161.76839999999999,-219.91719999999998,-119.81200000000001,175,75
2026-05-09 16:16:32.245,5,0.54,0.68,0.42,121.3284,-13.3872,-6.062000000000001,175,75
2026-05-09 16:16:32.255,5,0.26,0.5,0.4,99.6284,34.5528,5.0379999999999985,175,75
2026-05-09 16:16:32.266,5,0.06,0.32,0.25,87.2484,59.5528,23.328,175,75
2026-05-09 16:16:32.280,5,-0.06,0.17,-0.02,95.9684,46.0028,104.82799999999999,175,75
2026-05-09 16:16:32.296,5,-0.11,0.19,-0.11,105.11840000000001,11.302800000000001,158.028,175,75
2026-05-09 16:16:32.308,5,-0.07,0.19,-0.13,114.47840000000001,-20.3872,196.458,175,75
2026-05-09 16:16:32.308,5,-0.17,0.19,-0.18,122.1084,-53.8672,219.478,175,75
2026-05-09 16:16:32.321,5,-0.31,0.11,0.09,130.1184,-89.0172,231.138,175,75
2026-05-09 16:16:32.332,5,-0.16,0.07,-0.44,139.6384,-122.4872,231.808,175,75
2026-05-09 16:16:32.343,5,0.0,0.01,-0.59,147.67839999999998,-142.7372,233.148,175,75
2026-05-09 16:16:32.352,5,0.26,-0.18,-0.72,158.8284,-152.6072,244.228,175,75
2026-05-09 16:16:32.361,5,0.63,-0.46,-0.83,174.77839999999998,-134.3872,254.248,175,75
2026-05-09 16:16:32.368,5,0.99,-0.61,-0.99,210.3284,-76.6472,254.248,175,75
2026-05-09 16:16:32.379,5,0.47,-0.64,-0.53,240.7284,-19.0872,254.248,175,75
2026-05-09 16:16:32.390,5,-0.11,-0.44,0.03,255.0084,15.1628,254.248,175,75
2026-05-09 16:16:32.401,5,-0.38,-0.37,0.44,253.7984,47.5528,254.248,175,75
2026-05-09 16:16:32.408,5,-0.38,-0.35,0.88,244.3184,111.49279999999999,225.358,175,75
2026-05-09 16:16:32.424,5,-0.05,-0.02,1.14,185.0084,233.6328,49.647999999999996,175,75
2026-05-09 16:16:32.437,5,-1.34,-0.45,2.0,154.6284,233.6328,-246.022,175,75
2026-05-09 16:16:32.449,5,-1.26,-0.01,2.0,168.4084,188.77280000000002,-246.022,175,75
2026-05-09 16:16:32.449,5,2.0,2.0,2.0,37.0884,233.6328,-246.022,175,75
2026-05-09 16:16:32.461,5,1.25,2.0,2.0,-166.6816,233.6328,-246.022,175,75
2026-05-09 16:16:32.473,5,-0.11,1.57,2.0,-240.0016,233.6328,-246.022,175,75
2026-05-09 16:16:32.498,5,-2.0,-0.76,1.8,2.1384000000000007,-55.2872,-246.022,175,75
2026-05-09 16:16:32.524,5,-2.0,-0.39,2.0,67.2484,-158.1272,17.147999999999996,175,75
2026-05-09 16:16:32.539,5,-2.0,0.7,2.0,89.6384,-255.0772,254.248,175,75
2026-05-09 16:16:32.539,5,-1.06,0.86,1.67,119.78840000000001,-266.6372,254.248,175,75
2026-05-09 16:16:32.562,5,1.03,1.29,1.66,155.76839999999999,-266.6372,254.248,175,75
2026-05-09 16:16:32.574,5,1.21,1.23,1.37,67.1984,-266.6372,254.248,175,75
2026-05-09 16:16:32.596,5,0.92,0.29,0.34,-29.441599999999998,-266.6372,254.248,175,75
2026-05-09 16:16:32.613,5,1.43,-0.94,-0.95,-65.6216,-156.9372,254.248,175,75
2026-05-09 16:16:32.622,5,-0.08,-0.38,-0.19,-70.2316,-30.127200000000002,252.778,175,75
2026-05-09 16:16:32.638,5,-0.83,-0.18,0.35,-82.4016,20.232799999999997,76.068,175,75
2026-05-09 16:16:32.648,5,-1.14,-0.06,0.27,-82.2316,25.1928,-60.402,175,75
2026-05-09 16:16:32.658,5,-1.14,-0.34,0.25,-75.71159999999999,-0.05719999999999814,-175.612,175,75
2026-05-09 16:16:32.668,5,-1.03,-0.21,0.18,-62.68159999999999,-28.867199999999997,-246.022,175,75
2026-05-09 16:16:32.679,5,-0.69,-0.1,0.06,-48.101600000000005,-58.5972,-246.022,175,75
2026-05-09 16:16:32.679,5,-0.4,0.09,-0.02,-41.491600000000005,-75.0172,-246.022,175,75
2026-05-09 16:16:32.690,5,-0.09,0.5,-0.11,-55.7016,-77.1472,-246.022,175,75
2026-05-09 16:16:32.702,5,0.37,0.45,-0.17,-77.0616,-57.657199999999996,-246.022,175,75
2026-05-09 16:16:32.732,5,1.05,0.69,-0.4,-106.3716,148.5628,-128.582,175,75
2026-05-09 16:16:32.743,5,0.24,0.54,-0.12,-112.0116,184.83280000000002,-82.75200000000001,175,75
2026-05-09 16:16:32.758,5,-0.09,0.35,-0.02,-110.1116,200.4228,-77.962,175,75
2026-05-09 16:16:32.758,5,-0.1,0.14,-0.04,-96.02159999999999,207.6328,-58.412000000000006,175,75
2026-05-09 16:16:32.769,5,-0.07,-0.04,-0.08,-65.74159999999999,200.2328,-7.732000000000001,175,75
2026-05-09 16:16:32.780,5,0.02,-0.2,-0.14,-23.811600000000002,180.71280000000002,69.538,175,75
2026-05-09 16:16:32.797,5,0.09,-0.11,0.06,13.758400000000002,157.6628,157.118,175,75
2026-05-09 16:16:32.808,5,0.23,-0.01,0.34,36.0884,143.6928,236.678,175,75
2026-05-09 16:16:32.808,5,0.51,-0.06,0.72,31.1284,136.5128,254.248,175,75
2026-05-09 16:16:32.820,5,1.14,0.41,1.41,-3.4415999999999993,93.15280000000001,254.248,175,75
2026-05-09 16:16:32.840,5,1.08,-1.0,2.0,-51.7816,-259.4772,254.248,175,75
2026-05-09 16:16:32.852,5,1.27,-1.44,2.0,-21.581599999999998,-183.0272,254.248,175,75
2026-05-09 16:16:32.867,5,-0.02,-1.13,1.88,15.8084,-75.4272,254.248,175,75
2026-05-09 16:16:32.881,5,-0.64,-1.03,2.0,37.3484,42.8128,98.49799999999999,175,75
2026-05-09 16:16:32.881,5,-0.87,-0.91,2.0,48.3284,159.0328,-124.68200000000002,175,75
2026-05-09 16:16:32.896,5,-0.74,-0.84,2.0,47.22840000000001,233.6328,-246.022,175,75
2026-05-09 16:16:32.907,5,-0.64,-0.87,2.0,41.5784,233.6328,-246.022,175,75
2026-05-09 16:16:32.907,5,-0.79,-0.81,2.0,35.2384,233.6328,-246.022,175,75
2026-05-09 16:16:32.918,5,-1.31,-0.55,2.0,49.418400000000005,233.6328,-246.022,175,75
2026-05-09 16:16:32.929,5,-1.04,0.09,2.0,114.39840000000001,233.6328,-246.022,175,75
2026-05-09 16:16:32.949,5,-1.68,0.73,2.0,125.22840000000001,-7.5672,-246.022,175,75
2026-05-09 16:16:32.949,5,-2.0,1.01,2.0,87.3784,-152.1772,-246.022,175,75
2026-05-09 16:16:32.959,5,-2.0,0.69,2.0,44.1284,-266.6372,-246.022,175,75
2026-05-09 16:16:32.974,5,-2.0,0.34,1.57,35.248400000000004,-266.6372,-164.332,175,75
2026-05-09 16:16:32.984,5,-1.33,0.18,1.03,57.898399999999995,-266.6372,-74.372,175,75
2026-05-09 16:16:32.988,5,-0.61,0.31,0.66,91.7684,-266.6372,-17.632,175,75
2026-05-09 16:16:33.006,5,0.11,0.6,0.31,114.4684,-266.6372,15.317999999999998,175,75
2026-05-09 16:16:33.019,5,1.75,1.08,-0.4,138.5784,-266.6372,150.798,175,75
2026-05-09 16:16:33.030,5,2.0,0.73,-0.62,143.3184,-266.6372,254.248,175,75
2026-05-09 16:16:33.030,5,1.66,0.52,-0.86,146.6984,-266.6372,254.248,175,75
2026-05-09 16:16:33.050,5,0.26,-0.12,-1.29,183.9184,-255.8272,254.248,175,75
2026-05-09 16:16:33.065,5,-0.08,-0.31,-1.3,169.76839999999999,-204.2372,199.588,175,75
2026-05-09 16:16:33.077,5,-0.48,-0.35,-0.82,141.86839999999998,-188.8672,91.318,175,75
2026-05-09 16:16:33.089,5,-0.82,-0.26,-0.29,115.0784,-199.88719999999998,13.407999999999998,175,75
2026-05-09 16:16:33.089,5,-0.96,-0.17,0.03,84.5484,-218.81719999999999,-44.542,175,75
2026-05-09 16:16:33.099,5,-1.26,0.1,0.28,44.4584,-239.91719999999998,-108.632,175,75
2026-05-09 16:16:33.110,5,-1.3,0.11,0.25,-0.0815999999999999,-266.6372,-169.93200000000002,175,75
2026-05-09 16:16:33.121,5,-1.27,0.28,0.18,-48.4216,-266.6372,-217.072,175,75
2026-05-09 16:16:33.132,5,-1.07,0.47,0.06,-102.5516,-266.6372,-246.022,175,75
2026-05-09 16:16:33.141,5,-0.42,0.57,-0.11,-157.60160000000002,-266.6372,-246.022,175,75
2026-05-09 16:16:33.158,5,0.91,0.46,-0.26,-198.63160000000002,-208.25719999999998,-246.022,175,75
2026-05-09 16:16:33.169,5,2.0,0.54,-0.24,-219.8616,46.4528,-246.022,175,75
2026-05-09 16:16:33.179,5,1.62,1.01,0.37,-240.0016,233.6328,-246.022,175,75
2026-05-09 16:16:33.179,5,2.0,1.25,0.69,-240.0016,233.6328,-246.022,175,75
2026-05-09 16:16:33.191,5,2.0,1.29,0.52,-240.0016,233.6328,-246.022,175,75
2026-05-09 16:16:33.210,5,1.5,1.06,0.01,-240.0016,233.6328,-246.022,175,75
2026-05-09 16:16:33.222,5,2.0,2.0,0.73,-240.0016,233.6328,254.248,175,75
2026-05-09 16:16:33.264,5,-2.0,0.27,2.0,-240.0016,233.6328,254.248,175,75
2026-05-09 16:16:33.306,5,-2.0,-1.51,1.69,144.3784,-266.6372,-246.022,175,75
2026-05-09 16:16:33.306,5,-2.0,-0.8,1.6,213.0084,-266.6372,-246.022,175,75
2026-05-09 16:16:33.317,5,-1.71,0.14,1.37,246.4084,-266.6372,-246.022,175,75
2026-05-09 16:16:33.382,5,-0.22,1.58,0.44,260.2684,-266.6372,-246.022,175,75
2026-05-09 16:16:33.382,5,0.1,1.9,0.28,260.2684,-266.6372,-246.022,175,75
2026-05-09 16:16:33.393,5,1.13,1.93,0.08,229.6584,-266.6372,-246.022,175,75
2026-05-09 16:16:33.405,5,1.8,1.68,-0.04,195.6684,-266.6372,-246.022,175,75
2026-05-09 16:16:33.416,5,1.33,1.32,0.05,165.1684,-266.6372,-246.022,175,75
2026-05-09 16:16:33.416,5,0.58,1.15,0.27,123.1884,-198.6472,-170.272,175,75
2026-05-09 16:16:33.440,5,-0.11,0.64,0.23,42.2084,-156.7672,-66.19200000000001,175,75
2026-05-09 16:16:33.440,5,-0.13,0.41,0.11,23.6384,-165.47719999999998,-10.352000000000002,175,75
2026-05-09 16:16:33.452,5,-0.05,0.2,0.0,23.3884,-173.5272,44.397999999999996,175,75
2026-05-09 16:16:33.463,5,-0.02,0.07,-0.1,35.8184,-180.41719999999998,97.85799999999999,175,75
2026-05-09 16:16:33.463,5,-0.02,-0.05,-0.25,55.7984,-183.7072,143.588,175,75
2026-05-09 16:16:33.474,5,-0.08,-0.04,-0.33,75.81840000000001,-186.9072,172.358,175,75
2026-05-09 16:16:33.485,5,0.27,-0.05,-0.81,133.0784,-177.0972,199.268,175,75
2026-05-09 16:16:33.506,5,0.68,-0.12,-1.01,173.64839999999998,-88.8272,192.188,175,75
2026-05-09 16:16:33.517,5,0.87,-0.21,-0.99,168.1584,-11.3872,188.00799999999998,175,75
2026-05-09 16:16:33.517,5,0.64,-0.29,-0.78,160.4084,72.06280000000001,184.408,175,75
2026-05-09 16:16:33.531,5,0.38,-0.52,-0.25,156.92839999999998,133.1928,203.748,175,75
2026-05-09 16:16:33.553,5,0.08,-0.17,0.6,156.8484,233.6328,218.698,175,75
2026-05-09 16:16:33.560,5,-0.24,-0.39,1.09,121.2184,233.6328,155.588,175,75
2026-05-09 16:16:33.587,5,-0.27,0.59,1.55,-36.5316,233.6328,-246.022,175,75
2026-05-09 16:16:33.591,5,-0.91,0.79,2.0,-160.6116,233.6328,-246.022,175,75
2026-05-09 16:16:33.603,5,-1.03,-0.17,2.0,-158.69160000000002,233.6328,-246.022,175,75
2026-05-09 16:16:33.616,5,1.94,0.93,2.0,-132.6416,233.6328,-246.022,175,75
2026-05-09 16:16:33.629,5,-0.64,0.3,2.0,-59.77159999999999,233.6328,-246.022,175,75
2026-05-09 16:16:33.638,5,-2.0,-0.39,2.0,52.9084,233.6328,-246.022,175,75
2026-05-09 16:16:33.639,5,-2.0,-0.6,1.74,147.9684,74.8528,-246.022,175,75
2026-05-09 16:16:33.651,5,-2.0,-0.41,1.69,201.0084,-255.7172,-246.022,175,75
2026-05-09 16:16:33.678,5,-2.0,0.74,2.0,121.06840000000001,-266.6372,61.268,175,75
2026-05-09 16:16:33.678,5,-1.68,1.17,2.0,13.6384,-266.6372,101.71799999999999,175,75
2026-05-09 16:16:33.689,5,-0.66,1.11,1.72,-69.8616,-266.6372,89.068,175,75
2026-05-09 16:16:33.706,5,1.88,0.6,-0.83,29.6884,-266.6372,201.448,175,75
2026-05-09 16:16:33.717,5,2.0,0.88,-0.55,260.2684,-266.6372,254.248,175,75
2026-05-09 16:16:33.728,5,0.8,1.7,0.74,166.2984,-127.41720000000001,254.248,175,75
2026-05-09 16:16:33.744,5,0.5,0.82,0.5,102.61840000000001,-95.8372,254.248,175,75
2026-05-09 16:16:33.758,5,0.32,-0.26,0.22,-47.1816,-151.75719999999998,254.248,175,75
2026-05-09 16:16:33.776,5,0.06,-0.45,0.13,-133.8616,-168.38719999999998,254.248,175,75
2026-05-09 16:16:33.788,5,-0.56,-0.4,0.2,-192.26160000000002,-134.7672,254.248,175,75
2026-05-09 16:16:33.794,5,-1.21,-0.53,0.2,-207.5516,-119.47720000000001,228.448,175,75
2026-05-09 16:16:33.808,5,-1.63,-0.65,0.18,-194.8316,-146.1872,69.35799999999999,175,75
2026-05-09 16:16:33.808,5,-1.64,-0.57,0.04,-175.8616,-199.7672,-80.482,175,75
2026-05-09 16:16:33.821,5,-1.42,-0.31,-0.07,-164.13160000000002,-253.5472,-218.952,175,75
2026-05-09 16:16:33.833,5,-1.0,0.03,-0.17,-164.3316,-266.6372,-246.022,175,75
2026-05-09 16:16:33.852,5,-0.59,0.44,-0.24,-176.1116,-266.6372,-246.022,175,75
2026-05-09 16:16:33.853,5,-0.08,0.56,-0.3,-191.0916,-265.9272,-246.022,175,75
2026-05-09 16:16:33.861,5,0.33,0.68,-0.25,-203.5516,-217.7672,-246.022,175,75
2026-05-09 16:16:33.881,5,1.09,0.73,-0.34,-219.9216,-139.6472,-246.022,175,75
2026-05-09 16:16:33.881,5,1.47,0.51,-0.43,-215.7016,-35.6272,-246.022,175,75
2026-05-09 16:16:33.893,5,1.75,0.37,-0.57,-190.0016,75.3228,-246.022,175,75
2026-05-09 16:16:33.924,5,1.17,0.39,-0.46,-162.1416,164.8728,-235.772,175,75
2026-05-09 16:16:33.932,5,0.24,0.14,-0.14,-122.02159999999999,233.3228,-107.352,175,75
2026-05-09 16:16:33.944,5,0.54,-0.18,-0.01,-90.43159999999999,233.6328,-42.712,175,75
2026-05-09 16:16:33.955,5,0.81,-0.34,0.17,-44.501599999999996,233.6328,42.977999999999994,175,75
2026-05-09 16:16:33.955,5,0.9,-0.36,0.39,-28.8616,233.6328,120.628,175,75
2026-05-09 16:16:33.984,5,0.93,-0.04,0.3,-24.331599999999998,233.6328,177.518,175,75
2026-05-09 16:16:34.006,5,0.93,0.33,2.0,-40.5416,233.6328,232.198,175,75
2026-05-09 16:16:34.021,5,2.0,-0.24,2.0,-68.7316,233.6328,26.938,175,75
2026-05-09 16:16:34.037,5,-0.33,-0.38,2.0,-93.66159999999999,233.6328,-75.662,175,75
2026-05-09 16:16:34.118,5,-2.0,-1.04,2.0,-49.5616,233.6328,-246.022,175,75
2026-05-09 16:16:34.129,5,-2.0,-1.43,2.0,15.168400000000002,233.6328,-246.022,175,75
2026-05-09 16:16:34.139,5,-2.0,-1.22,2.0,113.56840000000001,97.71279999999999,-246.022,175,75
2026-05-09 16:16:34.139,5,-2.0,-0.34,2.0,201.2984,-136.8672,-218.092,175,75
2026-05-09 16:16:34.150,5,-2.0,0.81,2.0,219.48839999999998,-266.6372,-117.072,175,75
2026-05-09 16:16:34.150,5,-1.45,1.4,2.0,185.4984,-266.6372,-33.751999999999995,175,75
2026-05-09 16:16:34.150,5,-0.82,1.14,1.51,147.3484,-266.6372,-43.312,175,75
2026-05-09 16:16:34.164,5,0.08,1.16,1.02,102.5184,-266.6372,-93.61200000000001,175,75
2026-05-09 16:16:34.188,5,0.62,0.89,0.45,58.258399999999995,-266.6372,-129.612,175,75
2026-05-09 16:16:34.188,5,2.0,0.71,-0.42,72.9684,-266.6372,5.317999999999999,175,75
2026-05-09 16:16:34.216,5,2.0,0.5,-0.57,99.2484,-266.6372,169.03799999999998,175,75
2026-05-09 16:16:34.237,5,0.68,0.21,-0.73,109.3784,-266.6372,251.418,175,75
2026-05-09 16:16:34.263,5,-0.79,-0.39,-0.87,185.20839999999998,-266.6372,214.048,175,75
2026-05-09 16:16:34.277,5,-0.41,-0.7,-1.57,220.3884,-266.6372,162.088,175,75
2026-05-09 16:16:34.302,5,0.46,-0.92,-2.0,252.4984,-266.6372,88.488,175,75
2026-05-09 16:16:34.302,5,-0.66,-0.66,-2.0,245.1584,-266.6372,11.217999999999998,175,75
2026-05-09 16:16:34.313,5,-0.42,0.13,0.43,46.7684,-266.6372,153.938,175,75
2026-05-09 16:16:34.324,5,-0.69,0.65,0.65,-156.5516,-266.6372,94.77799999999999,175,75
2026-05-09 16:16:34.324,5,-0.35,0.59,0.32,-240.0016,-193.3972,-42.902,175,75
2026-05-09 16:16:34.335,5,0.49,0.25,-0.21,-240.0016,-5.7072,-194.582,175,75
2026-05-09 16:16:34.346,5,2.0,0.08,-0.55,-240.0016,233.6328,-246.022,175,75
2026-05-09 16:16:34.346,5,2.0,0.16,-0.44,-240.0016,233.6328,-246.022,175,75
2026-05-09 16:16:34.358,5,2.0,0.64,0.04,-240.0016,233.6328,-246.022,175,75
2026-05-09 16:16:34.393,5,1.33,0.43,-0.72,-240.0016,233.6328,-246.022,175,75
2026-05-09 16:16:34.404,5,0.92,0.58,-0.55,-240.0016,233.6328,-246.022,175,75
2026-05-09 16:16:34.404,5,2.0,1.98,2.0,-240.0016,233.6328,254.248,175,75
2026-05-09 16:16:34.415,5,-2.0,1.72,2.0,-240.0016,233.6328,254.248,175,75
2026-05-09 16:16:34.415,5,-2.0,-0.37,2.0,-240.0016,233.6328,254.248,175,75
2026-05-09 16:16:34.427,5,-2.0,-1.1,2.0,-163.8716,233.6328,227.808,175,75
2026-05-09 16:16:34.440,5,-2.0,-1.7,2.0,-138.3116,-19.057199999999998,-82.132,175,75
2026-05-09 16:16:34.440,5,-2.0,-2.0,2.0,-65.4816,-266.6372,-225.672,175,75
2026-05-09 16:16:34.451,5,-2.0,-2.0,1.83,57.69840000000001,-266.6372,-246.022,175,75
2026-05-09 16:16:34.456,5,-2.0,-1.56,1.36,196.3584,-266.6372,-246.022,175,75
2026-05-09 16:16:34.478,5,-1.48,-0.41,1.02,260.2684,-266.6372,-246.022,175,75
2026-05-09 16:16:34.482,5,0.13,1.08,0.56,260.2684,-266.6372,-246.022,175,75
2026-05-09 16:16:34.505,5,0.6,1.51,0.22,260.2684,-266.6372,-246.022,175,75
2026-05-09 16:16:34.505,5,2.0,1.79,-0.26,246.7584,-266.6372,-246.022,175,75
2026-05-09 16:16:34.518,5,2.0,1.93,-0.27,217.1284,-266.6372,-158.222,175,75
2026-05-09 16:16:34.531,5,1.6,1.58,0.02,158.1884,-204.7972,-58.382000000000005,175,75
2026-05-09 16:16:34.531,5,0.38,1.11,0.27,102.17840000000001,-123.4572,-32.402,175,75
2026-05-09 16:16:34.541,5,-0.01,0.76,0.28,57.22840000000001,-87.7672,-33.232,175,75
2026-05-09 16:16:34.541,5,-0.06,0.48,0.23,28.3784,-71.9572,-15.822000000000003,175,75
2026-05-09 16:16:34.553,5,0.03,0.35,0.16,13.378400000000001,-64.3172,26.218,175,75
2026-05-09 16:16:34.563,5,0.03,0.2,0.07,6.448400000000001,-60.8872,81.428,175,75
2026-05-09 16:16:34.566,5,-0.09,0.14,-0.02,3.1584000000000003,-61.1372,131.588,175,75
2026-05-09 16:16:34.590,5,-0.11,0.09,-0.16,7.9884,-66.43719999999999,165.09799999999998,175,75
2026-05-09 16:16:34.611,5,-0.0,-0.02,-0.42,24.3684,-68.3572,183.778,175,75
2026-05-09 16:16:34.611,5,0.35,-0.31,-0.49,64.2084,-61.9172,200.298,175,75
2026-05-09 16:16:34.621,5,0.69,-0.07,-1.16,98.7384,-14.3172,227.408,175,75
2026-05-09 16:16:34.634,5,0.55,0.09,-1.21,119.4084,46.4028,214.558,175,75
2026-05-09 16:16:34.634,5,-0.21,0.06,-0.73,115.6584,66.28280000000001,177.948,175,75
2026-05-09 16:16:34.645,5,-0.52,-0.1,-0.4,108.9084,42.6328,144.84799999999998,175,75
2026-05-09 16:16:34.645,5,-0.21,-0.23,-0.32,101.4484,21.092800000000004,145.528,175,75
2026-05-09 16:16:34.660,5,0.15,-0.39,-0.62,117.2184,22.1128,168.218,175,75
2026-05-09 16:16:34.660,5,0.19,-0.49,-0.27,127.5484,47.1428,196.078,175,75
2026-05-09 16:16:34.704,5,0.7,-0.56,0.51,157.9784,159.30280000000002,254.248,175,75
2026-05-09 16:16:34.715,5,1.32,-0.9,0.82,147.6984,233.6328,247.208,175,75
2026-05-09 16:16:34.738,5,2.0,1.77,2.0,72.7984,233.6328,-246.022,175,75
2026-05-09 16:16:34.738,5,0.21,2.0,2.0,-120.8216,233.6328,-246.022,175,75
2026-05-09 16:16:34.749,5,-0.89,1.41,2.0,-240.0016,233.6328,-246.022,175,75
2026-05-09 16:16:34.749,5,-1.78,0.39,2.0,-240.0016,233.6328,-246.022,175,75
2026-05-09 16:16:34.760,5,-2.0,-0.55,1.57,-138.6516,45.2128,-246.022,175,75
2026-05-09 16:16:34.770,5,-2.0,-0.92,1.59,-9.0216,-106.7372,-246.022,175,75
2026-05-09 16:16:34.785,5,-2.0,-0.51,1.98,79.4184,-207.3472,-8.352000000000002,175,75
2026-05-09 16:16:34.806,5,-2.0,0.22,2.0,105.4684,-252.0772,198.418,175,75
2026-05-09 16:16:34.806,5,-1.57,0.91,2.0,90.3784,-242.44719999999998,254.248,175,75
2026-05-09 16:16:34.817,5,-0.44,1.19,1.88,90.81840000000001,-244.7072,254.248,175,75
2026-05-09 16:16:34.828,5,1.57,1.35,1.54,140.08839999999998,-266.6372,254.248,175,75
2026-05-09 16:16:34.841,5,1.55,1.3,1.62,26.4784,-266.6372,254.248,175,75
2026-05-09 16:16:34.854,5,1.18,0.65,1.08,-49.91159999999999,-266.6372,254.248,175,75
2026-05-09 16:16:34.864,5,0.95,-0.16,0.33,-124.3816,-266.6372,254.248,175,75
2026-05-09 16:16:34.864,5,1.18,-1.02,-0.2,-148.5216,-245.5172,254.248,175,75
2026-05-09 16:16:34.875,5,-0.11,-0.81,-0.1,-140.41160000000002,-94.6072,254.248,175,75
2026-05-09 16:16:34.897,5,-1.0,-0.58,0.2,-128.2516,-27.5172,212.778,175,75
2026-05-09 16:16:34.909,5,-1.64,-0.52,0.22,-115.35159999999999,-45.8272,42.318,175,75
2026-05-09 16:16:34.922,5,-1.82,-0.79,-0.08,-88.3916,-118.3972,-88.94200000000001,175,75
2026-05-09 16:16:34.922,5,-1.76,-0.66,-0.21,-51.4316,-216.7172,-204.542,175,75
2026-05-09 16:16:34.936,5,-1.33,-0.41,-0.33,-29.4616,-266.6372,-246.022,175,75
2026-05-09 16:16:34.936,5,-0.92,0.09,-0.49,-44.8716,-266.6372,-246.022,175,75
2026-05-09 16:16:34.947,5,-0.48,-0.47,0.4,-59.1516,-266.6372,-246.022,175,75
2026-05-09 16:16:34.958,5,0.09,0.71,-0.51,-128.6816,-266.6372,-246.022,175,75
2026-05-09 16:16:34.958,5,0.44,0.73,-0.44,-183.97160000000002,-266.6372,-246.022,175,75
2026-05-09 16:16:34.969,5,0.59,0.68,-0.31,-223.23160000000001,-205.9872,-246.022,175,75
2026-05-09 16:16:34.969,5,0.59,0.55,-0.17,-239.54160000000002,-138.3872,-246.022,175,75
2026-05-09 16:16:34.969,5,0.6,0.41,-0.04,-240.0016,-76.0272,-246.022,175,75
2026-05-09 16:16:34.997,5,0.64,0.33,-0.04,-240.0016,-9.607199999999999,-195.49200000000002,175,75
2026-05-09 16:16:35.008,5,0.68,0.18,-0.2,-222.72160000000002,55.512800000000006,-120.72200000000001,175,75
2026-05-09 16:16:35.019,5,1.09,0.08,-0.58,-152.1416,228.6628,15.918,175,75
2026-05-09 16:16:35.027,5,0.95,0.04,-0.43,-109.91159999999999,233.6328,49.488,175,75
2026-05-09 16:16:35.035,5,1.0,-0.08,-0.13,-67.5916,233.6328,73.46799999999999,175,75
2026-05-09 16:16:35.046,5,1.2,0.96,-1.04,-56.9816,233.6328,110.398,175,75
2026-05-09 16:16:35.057,5,1.44,0.15,-0.0,-35.55159999999999,233.6328,140.00799999999998,175,75
2026-05-09 16:16:35.057,5,1.19,0.11,0.18,-38.461600000000004,233.6328,167.908,175,75
2026-05-09 16:16:35.068,5,-0.66,-0.82,2.0,-33.611599999999996,233.6328,59.048,175,75
2026-05-09 16:16:35.104,5,2.0,-0.87,2.0,-81.2316,178.8128,-135.332,175,75
2026-05-09 16:16:35.115,5,-1.12,-0.81,1.86,-48.0116,233.6328,-193.672,175,75
2026-05-09 16:16:35.129,5,-2.0,-0.9,1.78,-1.8415999999999997,233.6328,-201.96200000000002,175,75
2026-05-09 16:16:35.129,5,-2.0,-1.0,1.94,48.508399999999995,233.6328,-190.252,175,75
2026-05-09 16:16:35.151,5,-2.0,-0.53,2.0,100.6284,169.9728,-134.93200000000002,175,75
2026-05-09 16:16:35.156,5,-2.0,-0.18,2.0,120.81840000000001,-45.937200000000004,-167.062,175,75
2026-05-09 16:16:35.168,5,-1.15,0.66,2.0,132.0884,-266.6372,22.387999999999998,175,75
2026-05-09 16:16:35.205,5,-0.56,0.59,1.48,118.2184,-266.6372,46.568,175,75
2026-05-09 16:16:35.205,5,0.23,0.61,0.94,95.7084,-266.6372,46.647999999999996,175,75
2026-05-09 16:16:35.228,5,1.94,0.27,-0.08,63.148399999999995,-266.6372,43.05799999999999,175,75
2026-05-09 16:16:35.228,5,2.0,0.1,-0.62,91.7384,-266.6372,162.888,175,75
2026-05-09 16:16:35.240,5,0.67,-0.49,-1.1,216.89839999999998,-266.6372,254.248,175,75
2026-05-09 16:16:35.259,5,0.95,-0.17,-2.0,248.2184,-215.72719999999998,224.428,175,75
2026-05-09 16:16:35.270,5,0.19,-0.36,-1.68,221.6084,-154.9072,131.978,175,75
2026-05-09 16:16:35.281,5,-0.12,-0.19,-1.13,195.6084,-145.4372,85.628,175,75
2026-05-09 16:16:35.315,5,-0.75,0.03,-0.0,140.30839999999998,-175.6872,47.80799999999999,175,75
2026-05-09 16:16:35.330,5,-1.03,-0.38,0.12,116.9584,-201.69719999999998,26.328,175,75
2026-05-09 16:16:35.341,5,-1.13,-0.13,0.28,81.7484,-225.47719999999998,-13.182000000000002,175,75
2026-05-09 16:16:35.341,5,-1.21,0.23,0.35,28.4484,-240.16719999999998,-83.852,175,75
2026-05-09 16:16:35.352,5,-1.14,0.35,0.34,-28.011599999999998,-240.0572,-180.772,175,75
2026-05-09 16:16:35.352,5,-0.74,0.46,0.43,-89.71159999999999,-213.1872,-246.022,175,75
2026-05-09 16:16:35.358,5,0.02,0.6,0.51,-133.2116,-121.2072,-246.022,175,75
2026-05-09 16:16:35.371,5,1.06,0.71,0.91,-187.04160000000002,53.8628,-246.022,175,75
2026-05-09 16:16:35.387,5,1.7,0.68,1.19,-240.0016,233.6328,-246.022,175,75
2026-05-09 16:16:35.387,5,2.0,1.03,1.27,-240.0016,233.6328,-246.022,175,75
2026-05-09 16:16:35.503,5,1.76,2.0,2.0,-240.0016,233.6328,254.248,175,75
2026-05-09 16:16:35.510,5,-1.91,0.59,2.0,-240.0016,233.6328,254.248,175,75
2026-05-09 16:16:35.510,5,-2.0,-0.26,2.0,-169.4316,233.6328,254.248,175,75
2026-05-09 16:16:35.528,5,-2.0,-0.92,1.83,-123.8916,233.6328,86.908,175,75
2026-05-09 16:16:35.562,5,-2.0,-1.28,1.64,-64.7816,97.1728,-69.662,175,75
2026-05-09 16:16:35.584,5,-2.0,-1.66,1.46,22.2084,-179.75719999999998,-119.19200000000001,175,75
2026-05-09 16:16:35.608,5,-2.0,-1.52,1.6,117.31840000000001,-266.6372,-101.902,175,75
2026-05-09 16:16:35.618,5,-1.82,-0.97,1.72,190.67839999999998,-266.6372,-72.372,175,75
2026-05-09 16:16:35.627,5,-1.18,-0.35,1.52,238.5384,-266.6372,-62.512,175,75
2026-05-09 16:16:35.671,5,-0.48,0.34,1.09,249.58839999999998,-266.6372,-54.361999999999995,175,75
2026-05-09 16:16:35.681,5,0.42,0.81,0.6,202.92839999999998,-266.6372,-134.862,175,75
2026-05-09 16:16:35.682,5,0.53,0.73,0.3,167.2584,-266.6372,-175.552,175,75
2026-05-09 16:16:35.692,5,2.0,0.52,-0.43,155.36839999999998,-266.6372,10.767999999999999,175,75
2026-05-09 16:16:35.692,5,1.8,0.64,-0.38,153.92839999999998,-227.4072,136.738,175,75
2026-05-09 16:16:35.692,5,0.81,0.52,-0.07,143.6284,-153.7172,188.998,175,75
2026-05-09 16:16:35.713,5,-0.09,0.39,-0.03,98.1684,-103.5172,141.458,175,75
2026-05-09 16:16:35.746,5,-0.15,0.02,-0.3,92.47840000000001,-108.09719999999999,89.16799999999999,175,75
2026-05-09 16:16:35.746,5,-0.04,0.01,-0.44,109.03840000000001,-117.0872,86.148,175,75
2026-05-09 16:16:35.758,5,0.2,0.06,-0.9,129.73839999999998,-123.5772,110.66799999999999,175,75
2026-05-09 16:16:35.780,5,-0.04,0.01,-0.74,118.89840000000001,-124.46719999999999,108.318,175,75
2026-05-09 16:16:35.823,5,0.36,-0.38,-1.07,108.97840000000001,-112.7772,109.568,175,75
2026-05-09 16:16:35.823,5,0.81,-0.65,-0.81,124.6584,-37.9672,121.588,175,75
2026-05-09 16:16:35.867,5,0.62,-0.57,-0.24,140.42839999999998,48.652800000000006,139.118,175,75
2026-05-09 16:16:35.896,5,0.5,0.19,0.92,87.39840000000001,233.6328,108.568,175,75
2026-05-09 16:16:35.906,5,0.82,0.6,1.14,24.6684,233.6328,3.7779999999999987,175,75
2026-05-09 16:16:35.918,5,0.74,0.86,1.47,-73.13159999999999,233.6328,-174.942,175,75
2026-05-09 16:16:35.948,5,0.94,0.83,2.0,-196.6716,233.6328,-246.022,175,75
2026-05-09 16:16:35.948,5,2.0,-0.3,2.0,-240.0016,233.6328,-246.022,175,75
2026-05-09 16:16:35.948,5,1.13,-0.9,2.0,-151.1716,233.6328,-246.022,175,75
2026-05-09 16:16:35.958,5,-2.0,-0.68,2.0,58.278400000000005,233.6328,-246.022,175,75
2026-05-09 16:16:35.981,5,-2.0,-0.15,1.92,123.8784,-266.6372,-117.67200000000001,175,75
2026-05-09 16:16:35.981,5,-1.67,0.3,1.98,46.008399999999995,-266.6372,62.628,175,75
2026-05-09 16:16:36.013,5,1.94,1.84,0.49,188.9484,-266.6372,254.248,175,75
2026-05-09 16:16:36.031,5,1.43,0.63,0.14,96.86840000000001,-266.6372,254.248,175,75
2026-05-09 16:16:36.046,5,-0.38,-0.35,-0.1,34.928399999999996,-84.5172,254.248,175,75
2026-05-09 16:16:36.046,5,-0.85,-0.48,0.04,41.5984,-73.1472,228.668,175,75
2026-05-09 16:16:36.086,5,-1.15,-0.58,0.11,56.08840000000001,-87.8372,122.658,175,75
2026-05-09 16:16:36.090,5,-1.33,-0.5,0.07,75.83840000000001,-171.7972,-64.382,175,75
2026-05-09 16:16:36.117,5,-1.23,-0.29,0.0,75.08840000000001,-221.00719999999998,-150.782,175,75
2026-05-09 16:16:36.117,5,-1.05,-0.05,-0.04,60.47840000000001,-258.1572,-226.262,175,75
2026-05-09 16:16:36.133,5,-0.89,0.25,-0.1,30.5884,-266.6372,-246.022,175,75
2026-05-09 16:16:36.133,5,-0.68,0.55,-0.13,-13.401599999999998,-266.6372,-246.022,175,75
2026-05-09 16:16:36.143,5,-0.33,0.76,-0.22,-68.82159999999999,-266.6372,-246.022,175,75
2026-05-09 16:16:36.184,5,0.93,0.57,-0.48,-159.8716,-197.1772,-246.022,175,75
2026-05-09 16:16:36.214,5,1.41,0.28,-0.69,-164.4616,-98.94720000000001,-236.062,175,75
2026-05-09 16:16:36.248,5,1.25,-0.06,-0.84,-97.13159999999999,109.6428,22.008,175,75
2026-05-09 16:16:36.254,5,0.73,-0.04,-0.56,-49.741600000000005,201.5128,86.398,175,75
2026-05-09 16:16:36.275,5,0.31,-0.08,-0.18,-11.651599999999998,233.6328,103.55799999999999,175,75
2026-05-09 16:16:36.275,5,0.44,-0.12,0.19,21.1584,233.6328,110.55799999999999,175,75
2026-05-09 16:16:36.281,5,0.7,-0.37,0.51,19.2084,233.6328,126.678,175,75
2026-05-09 16:16:36.302,5,0.91,0.2,0.29,12.848400000000002,233.6328,135.748,175,75
2026-05-09 16:16:36.312,5,0.92,0.22,0.35,-6.6915999999999976,233.6328,132.748,175,75
2026-05-09 16:16:36.312,5,0.84,0.33,0.7,-36.131600000000006,233.6328,102.798,175,75
2026-05-09 16:16:36.312,5,1.49,-0.26,2.0,-8.691599999999998,233.6328,-102.742,175,75
2026-05-09 16:16:36.323,5,0.55,-0.2,2.0,-40.2316,233.6328,-240.93200000000002,175,75
2026-05-09 16:16:36.323,5,-2.0,-0.9,2.0,-136.3616,233.6328,-246.022,175,75
2026-05-09 16:16:36.334,5,-2.0,-0.71,2.0,25.6684,-11.877199999999998,-141.092,175,75
2026-05-09 16:16:36.334,5,-2.0,-0.03,2.0,110.61840000000001,-152.1272,-71.152,175,75
2026-05-09 16:16:36.350,5,-2.0,0.59,2.0,155.4784,-266.6372,-32.94200000000001,175,75
2026-05-09 16:16:36.371,5,-1.78,0.79,2.0,159.3284,-266.6372,74.728,175,75
2026-05-09 16:16:36.375,5,-1.13,0.61,1.61,157.55839999999998,-266.6372,178.558,175,75
2026-05-09 16:16:36.395,5,-0.46,0.52,1.14,149.8584,-266.6372,231.388,175,75
2026-05-09 16:16:36.395,5,0.22,0.43,0.85,133.2784,-266.6372,253.238,175,75
2026-05-09 16:16:36.405,5,1.21,0.27,0.45,116.89840000000001,-266.6372,254.248,175,75
2026-05-09 16:16:36.405,5,2.0,0.01,-0.31,138.95839999999998,-266.6372,254.248,175,75
2026-05-09 16:16:36.417,5,2.0,-0.21,-0.71,190.1284,-266.6372,254.248,175,75
2026-05-09 16:16:36.428,5,0.96,-0.24,-1.33,242.4784,-233.38719999999998,254.248,175,75
2026-05-09 16:16:36.453,5,1.03,-0.32,-2.0,260.2684,0.8028000000000013,254.248,175,75
2026-05-09 16:16:36.465,5,-1.11,-0.41,-1.57,260.2684,23.9728,200.388,175,75
2026-05-09 16:16:36.475,5,-1.98,-0.4,-0.77,238.98839999999998,-94.2972,80.508,175,75
2026-05-09 16:16:36.475,5,-1.7,-0.39,-0.48,193.2884,-215.7772,31.648,175,75
2026-05-09 16:16:36.490,5,-1.09,-0.24,-0.11,77.9584,-266.6372,-15.862000000000002,175,75
2026-05-09 16:16:36.497,5,-0.7,-0.11,-0.08,-0.8415999999999997,-266.6372,-52.611999999999995,175,75
2026-05-09 16:16:36.517,5,-0.29,-0.03,-0.15,-70.52159999999999,-266.6372,-105.08200000000001,175,75
2026-05-09 16:16:36.546,5,0.17,0.14,-0.22,-157.3916,-32.5072,-246.022,175,75
2026-05-09 16:16:36.556,5,0.51,0.3,0.02,-179.88160000000002,93.40280000000001,-246.022,175,75
2026-05-09 16:16:36.568,5,1.5,0.36,0.31,-200.7716,233.6328,-246.022,175,75
2026-05-09 16:16:36.568,5,2.0,0.66,0.72,-235.72160000000002,233.6328,-246.022,175,75
2026-05-09 16:16:36.597,5,2.0,0.65,1.19,-240.0016,233.6328,-246.022,175,75
2026-05-09 16:16:36.597,5,2.0,1.46,0.72,-240.0016,233.6328,-246.022,175,75
2026-05-09 16:16:36.602,5,2.0,0.85,2.0,-240.0016,233.6328,254.248,175,75
2026-05-09 16:16:36.623,5,-2.0,-0.14,1.67,-240.0016,233.6328,244.268,175,75
2026-05-09 16:16:36.648,5,-2.0,-1.76,1.81,-68.6916,126.36280000000002,-193.952,175,75
2026-05-09 16:16:36.648,5,-2.0,-1.92,2.0,27.5384,-73.0472,-171.512,175,75
2026-05-09 16:16:36.678,5,-1.57,0.29,2.0,233.2984,-266.6372,-159.362,175,75
2026-05-09 16:16:36.678,5,-0.79,0.65,1.94,223.45839999999998,-266.6372,-183.122,175,75
2026-05-09 16:16:36.688,5,-0.14,0.68,1.28,212.76839999999999,-266.6372,-194.542,175,75
2026-05-09 16:16:36.699,5,0.21,0.67,0.99,197.6984,-266.6372,-199.722,175,75
2026-05-09 16:16:36.715,5,0.55,0.6,0.74,175.2484,-266.6372,-199.752,175,75
2026-05-09 16:16:36.715,5,0.66,0.52,0.61,154.1084,-266.6372,-190.272,175,75
2026-05-09 16:16:36.729,5,0.96,0.46,0.41,135.73839999999998,-260.1472,-154.372,175,75
2026-05-09 16:16:36.746,5,0.92,0.64,0.09,110.6684,-131.9772,1.9679999999999986,175,75
2026-05-09 16:16:36.760,5,0.61,0.67,0.0,90.1384,-92.3272,63.718,175,75
2026-05-09 16:16:36.771,5,0.14,0.45,-0.07,58.508399999999995,-60.4172,124.238,175,75
2026-05-09 16:16:36.807,5,0.07,0.36,-0.23,53.028400000000005,-59.7872,138.118,175,75
2026-05-09 16:16:36.807,5,0.09,0.24,-0.3,57.5184,-63.5172,153.498,175,75
2026-05-09 16:16:36.821,5,0.04,0.18,-0.38,64.5484,-74.5372,170.018,175,75
2026-05-09 16:16:36.842,5,-0.01,0.08,-0.49,78.7484,-87.8672,180.158,175,75
2026-05-09 16:16:36.864,5,0.06,0.05,-0.63,96.0184,-102.7972,185.238,175,75
2026-05-09 16:16:36.864,5,0.31,0.13,-0.85,108.5484,-103.8072,182.498,175,75
2026-05-09 16:16:36.876,5,0.35,0.2,-1.04,106.89840000000001,-81.03720000000001,161.668,175,75
2026-05-09 16:16:36.876,5,-0.33,0.06,-0.45,71.0184,-82.22720000000001,88.32799999999999,175,75
2026-05-09 16:16:36.903,5,-0.29,-0.11,-0.35,55.7984,-99.6372,67.238,175,75
2026-05-09 16:16:36.916,5,0.13,-0.29,-0.44,62.3484,-96.41720000000001,65.828,175,75
2026-05-09 16:16:36.919,5,0.92,-0.62,-0.67,83.3784,-27.117199999999997,78.508,175,75
2026-05-09 16:16:36.928,5,0.67,-0.51,-0.28,111.50840000000001,65.37280000000001,108.52799999999999,175,75
2026-05-09 16:16:36.939,5,0.4,-0.51,0.42,136.3484,136.9828,138.188,175,75
2026-05-09 16:16:36.939,5,0.77,0.31,0.17,108.6284,233.6328,152.638,175,75
2026-05-09 16:16:36.950,5,0.85,0.16,0.92,105.6284,233.6328,123.758,175,75
2026-05-09 16:16:36.961,5,1.18,0.61,1.64,50.9084,233.6328,-6.802000000000001,175,75
2026-05-09 16:16:36.961,5,0.88,1.0,2.0,-36.611599999999996,233.6328,-246.022,175,75
2026-05-09 16:16:36.972,5,2.0,1.19,2.0,-121.7616,233.6328,-246.022,175,75
2026-05-09 16:16:36.984,5,0.49,0.66,2.0,-240.0016,233.6328,-246.022,175,75
2026-05-09 16:16:37.002,5,-2.0,-0.87,1.71,-157.9316,233.6328,-246.022,175,75
2026-05-09 16:16:37.002,5,-2.0,-1.21,1.42,-36.80159999999999,40.8628,-246.022,175,75
2026-05-09 16:16:37.017,5,-2.0,-0.91,1.64,47.8284,-262.4372,-145.93200000000002,175,75
2026-05-09 16:16:37.017,5,-2.0,-0.45,2.0,76.8284,-266.6372,33.408,175,75
2026-05-09 16:16:37.042,5,-1.77,0.21,2.0,57.9384,-266.6372,119.238,175,75
2026-05-09 16:16:37.053,5,-0.79,0.6,2.0,28.1784,-266.6372,117.30799999999999,175,75
2026-05-09 16:16:37.065,5,0.21,0.72,1.83,34.7984,-266.6372,130.028,175,75
2026-05-09 16:16:37.074,5,1.62,0.84,1.12,104.7684,-266.6372,254.248,175,75
2026-05-09 16:16:37.083,5,1.54,0.99,1.18,149.5384,-266.6372,254.248,175,75
2026-05-09 16:16:37.105,5,2.0,1.06,1.08,84.3084,-266.6372,254.248,175,75
2026-05-09 16:16:37.123,5,1.53,0.55,0.74,12.1684,-266.6372,254.248,175,75
2026-05-09 16:16:37.123,5,1.06,0.12,0.51,-34.2316,-266.6372,254.248,175,75
2026-05-09 16:16:37.132,5,0.53,-0.08,0.32,-55.4016,-233.7072,254.248,175,75
2026-05-09 16:16:37.136,5,-0.07,-0.19,0.05,-63.751599999999996,-163.5172,254.248,175,75
2026-05-09 16:16:37.141,5,-0.56,-0.32,0.06,-60.441599999999994,-143.9172,254.248,175,75
2026-05-09 16:16:37.162,5,-1.12,-0.62,-0.51,-8.011599999999998,-211.2372,83.198,175,75
2026-05-09 16:16:37.186,5,-0.74,-0.08,-0.62,-17.6516,-266.6372,-104.28200000000001,175,75
2026-05-09 16:16:37.201,5,-0.52,0.17,-0.62,-62.63159999999999,-266.6372,-184.802,175,75
2026-05-09 16:16:37.223,5,-0.33,0.32,-0.58,-112.9716,-266.6372,-246.022,175,75
2026-05-09 16:16:37.236,5,-0.1,0.42,-0.51,-155.6116,-266.6372,-246.022,175,75
2026-05-09 16:16:37.240,5,0.23,0.38,-0.45,-180.3016,-226.88719999999998,-246.022,175,75
2026-05-09 16:16:37.257,5,0.61,0.25,-0.38,-184.3916,-159.22719999999998,-246.022,175,75
2026-05-09 16:16:37.257,5,0.81,0.17,-0.34,-170.8416,-73.15719999999999,-246.022,175,75
2026-05-09 16:16:37.269,5,0.83,0.01,-0.33,-149.2416,6.532800000000002,-230.702,175,75
2026-05-09 16:16:37.269,5,0.85,0.01,-0.46,-120.5716,85.9728,-173.352,175,75
2026-05-09 16:16:37.279,5,0.77,-0.0,-0.53,-89.24159999999999,161.4228,-119.122,175,75
2026-05-09 16:16:37.291,5,0.51,0.01,-0.4,-60.85159999999999,222.9028,-79.772,175,75
2026-05-09 16:16:37.291,5,0.63,-0.31,0.12,-8.5216,233.6328,-19.682000000000002,175,75
2026-05-09 16:16:37.302,5,1.03,-0.06,0.09,-13.811599999999999,233.6328,39.518,175,75
2026-05-09 16:16:37.313,5,1.09,-0.28,0.55,2.4484000000000004,233.6328,85.378,175,75
2026-05-09 16:16:37.313,5,1.0,0.13,0.47,-11.281600000000001,233.6328,107.148,175,75
2026-05-09 16:16:37.325,5,0.5,0.05,1.4,-24.3216,233.6328,59.388000000000005,175,75
2026-05-09 16:16:37.336,5,0.35,-0.67,2.0,-18.7816,233.6328,-246.022,175,75
2026-05-09 16:16:37.336,5,1.25,-0.62,2.0,-35.711600000000004,233.6328,-246.022,175,75
2026-05-09 16:16:37.347,5,-1.38,-0.32,2.0,-68.0416,233.6328,-246.022,175,75
2026-05-09 16:16:37.357,5,-2.0,-0.72,2.0,-87.3616,233.6328,-246.022,175,75
2026-05-09 16:16:37.368,5,-2.0,-1.03,2.0,-64.49159999999999,233.6328,-246.022,175,75
2026-05-09 16:16:37.368,5,-2.0,-1.38,2.0,-0.8115999999999985,233.6328,-246.022,175,75
2026-05-09 16:16:37.408,5,-2.0,-0.03,2.0,165.58839999999998,-266.6372,-159.142,175,75
2026-05-09 16:16:37.408,5,-2.0,0.45,2.0,163.2284,-266.6372,-193.752,175,75
2026-05-09 16:16:37.420,5,-1.39,0.53,1.57,161.3584,-266.6372,-155.172,175,75
2026-05-09 16:16:37.420,5,-0.43,0.66,0.85,188.2584,-266.6372,-60.962,175,75
2026-05-09 16:16:37.430,5,0.12,0.86,0.42,221.92839999999998,-266.6372,6.267999999999999,175,75
2026-05-09 16:16:37.441,5,1.35,1.1,0.14,225.6984,-266.6372,48.108000000000004,175,75
2026-05-09 16:16:37.452,5,2.0,1.24,-0.31,216.2184,-266.6372,200.658,175,75
2026-05-09 16:16:37.482,5,0.96,0.94,-0.2,157.2584,-266.6372,254.248,175,75
2026-05-09 16:16:37.492,5,0.26,0.49,-0.53,139.92839999999998,-266.6372,254.248,175,75
2026-05-09 16:16:37.524,5,0.1,-0.01,-0.79,160.1584,-266.6372,254.248,175,75
2026-05-09 16:16:37.524,5,0.22,-0.4,-1.21,187.11839999999998,-266.6372,254.248,175,75
2026-05-09 16:16:37.536,5,0.17,-0.45,-1.39,203.1884,-266.6372,254.248,175,75
2026-05-09 16:16:37.549,5,-0.3,-0.81,-1.44,172.95839999999998,-253.56719999999999,158.228,175,75
2026-05-09 16:16:37.549,5,-0.7,-0.74,-0.94,152.7484,-266.6372,150.50799999999998,175,75
2026-05-09 16:16:37.571,5,-0.68,-0.32,-0.19,109.9584,-266.6372,141.50799999999998,175,75
2026-05-09 16:16:37.597,5,-0.82,-0.19,0.27,58.0684,-266.6372,115.848,175,75
2026-05-09 16:16:37.608,5,-0.9,0.04,0.61,-7.521599999999999,-266.6372,61.378,175,75
2026-05-09 16:16:37.615,5,-0.99,0.28,0.71,-75.8416,-243.8972,-9.992,175,75
2026-05-09 16:16:37.645,5,-0.99,0.42,0.54,-150.8416,-209.75719999999998,-100.50200000000001,175,75
2026-05-09 16:16:37.645,5,-0.79,0.42,0.37,-201.66160000000002,-161.6872,-211.142,175,75
2026-05-09 16:16:37.655,5,-0.24,0.54,0.29,-238.9016,-71.7872,-246.022,175,75
2026-05-09 16:16:37.667,5,2.0,0.68,0.58,-240.0016,233.6328,-246.022,175,75
2026-05-09 16:16:37.667,5,2.0,1.26,0.48,-240.0016,233.6328,-246.022,175,75
2026-05-09 16:16:37.678,5,2.0,1.88,-0.52,-240.0016,233.6328,-246.022,175,75
2026-05-09 16:16:37.689,5,2.0,2.0,-0.29,-240.0016,233.6328,254.248,175,75
2026-05-09 16:16:37.724,5,-0.39,1.61,2.0,-240.0016,233.6328,254.248,175,75
2026-05-09 16:16:37.752,5,-2.0,-0.48,1.78,-240.0016,233.6328,254.248,175,75
2026-05-09 16:16:37.797,5,-2.0,-2.0,1.98,108.42840000000001,-262.4272,-150.71200000000002,175,75
2026-05-09 16:16:37.817,5,-2.0,-1.42,2.0,211.2484,-266.6372,-188.872,175,75
2026-05-09 16:16:37.817,5,-2.0,-0.73,2.0,260.2684,-266.6372,-246.022,175,75
2026-05-09 16:16:37.827,5,-1.74,0.14,1.69,260.2684,-266.6372,-246.022,175,75
2026-05-09 16:16:37.837,5,-0.42,0.74,0.92,260.2684,-266.6372,-246.022,175,75
2026-05-09 16:16:37.837,5,0.69,1.46,0.2,260.2684,-266.6372,-246.022,175,75
2026-05-09 16:16:37.842,5,1.94,1.38,0.05,244.92839999999998,-266.6372,-246.022,175,75
2026-05-09 16:16:37.854,5,2.0,1.03,-0.16,211.6984,-266.6372,-116.072,175,75
2026-05-09 16:16:37.864,5,2.0,0.9,-0.1,192.95839999999998,-266.6372,33.558,175,75
2026-05-09 16:16:37.864,5,0.84,0.71,0.08,164.2484,-201.7072,102.52799999999999,175,75
2026-05-09 16:16:37.876,5,0.09,0.53,0.19,133.3784,-161.00719999999998,116.758,175,75
2026-05-09 16:16:37.876,5,-0.21,0.4,0.14,106.1884,-151.03719999999998,106.71799999999999,175,75
2026-05-09 16:16:37.887,5,-0.3,0.26,0.05,87.25840000000001,-154.03719999999998,92.208,175,75
2026-05-09 16:16:37.900,5,-0.23,0.08,-0.13,76.3084,-172.41719999999998,95.93799999999999,175,75
2026-05-09 16:16:37.915,5,-0.2,-0.11,-0.21,86.9184,-190.8772,106.008,175,75
2026-05-09 16:16:37.926,5,-0.13,-0.03,-0.6,98.2184,-202.6772,124.978,175,75
2026-05-09 16:16:37.937,5,0.11,-0.24,-1.0,117.61840000000001,-212.6872,129.218,175,75
2026-05-09 16:16:37.960,5,0.05,-0.15,-1.18,130.3484,-138.9972,97.288,175,75
2026-05-09 16:16:37.960,5,-0.27,0.04,-0.86,110.7784,-143.7972,93.91799999999999,175,75
2026-05-09 16:16:37.974,5,-0.3,-0.24,-0.21,82.1384,-161.00719999999998,108.908,175,75
2026-05-09 16:16:37.988,5,-0.15,-0.35,-0.01,64.8884,-158.0472,143.588,175,75
2026-05-09 16:16:37.999,5,0.2,-0.67,-0.22,45.58840000000001,-73.2272,192.528,175,75
2026-05-09 16:16:37.999,5,0.28,-0.66,-0.02,54.9584,21.132800000000003,173.678,175,75
2026-05-09 16:16:38.020,5,0.51,-0.13,0.5,79.36840000000001,233.6328,97.93799999999999,175,75
2026-05-09 16:16:38.031,5,0.8,-0.33,1.1,39.7584,233.6328,-4.992000000000001,175,75
2026-05-09 16:16:38.041,5,0.66,0.31,1.0,-14.6816,233.6328,-185.792,175,75
2026-05-09 16:16:38.041,5,0.61,0.64,1.22,-113.6216,233.6328,-246.022,175,75
2026-05-09 16:16:38.047,5,0.51,0.69,1.66,-240.0016,233.6328,-246.022,175,75
2026-05-09 16:16:38.057,5,2.0,-0.11,2.0,-168.2816,233.6328,-246.022,175,75
2026-05-09 16:16:38.065,5,-0.44,-0.63,2.0,-48.9016,233.6328,-246.022,175,75
2026-05-09 16:16:38.084,5,-2.0,-0.83,2.0,47.9884,233.6328,-246.022,175,75
2026-05-09 16:16:38.094,5,-2.0,-0.97,1.71,121.6084,86.03280000000001,-246.022,175,75
2026-05-09 16:16:38.105,5,-2.0,-0.52,1.83,158.5084,-266.6372,-100.53200000000001,175,75
2026-05-09 16:16:38.105,5,-2.0,0.06,2.0,136.3384,-266.6372,-5.862000000000002,175,75
2026-05-09 16:16:38.140,5,-0.78,0.39,2.0,28.328400000000002,-266.6372,34.438,175,75
2026-05-09 16:16:38.140,5,0.59,0.09,1.37,41.248400000000004,-266.6372,103.46799999999999,175,75
2026-05-09 16:16:38.150,5,2.0,-0.01,0.27,135.6084,-266.6372,254.248,175,75
2026-05-09 16:16:38.150,5,2.0,0.48,0.1,221.0684,-266.6372,254.248,175,75
2026-05-09 16:16:38.173,5,1.63,0.66,0.2,95.2184,-266.6372,254.248,175,75
2026-05-09 16:16:38.184,5,1.16,0.13,-0.06,26.8684,-266.6372,254.248,175,75
2026-05-09 16:16:38.184,5,0.3,-0.08,-0.08,-18.0416,-248.6772,254.248,175,75
2026-05-09 16:16:38.195,5,-0.31,-0.28,-0.01,-32.6216,-192.5872,159.148,175,75
2026-05-09 16:16:38.210,5,-1.12,-0.62,-0.17,-18.0216,-233.25719999999998,-4.992000000000001,175,75
2026-05-09 16:16:38.221,5,-1.18,-0.47,-0.28,-11.281600000000001,-266.6372,-67.89200000000001,175,75
2026-05-09 16:16:38.231,5,-1.11,-0.13,-0.36,-36.27159999999999,-266.6372,-131.822,175,75
2026-05-09 16:16:38.248,5,-0.87,0.17,-0.38,-72.0416,-266.6372,-188.762,175,75
2026-05-09 16:16:38.248,5,-0.45,0.36,-0.51,-134.0516,-266.6372,-230.93200000000002,175,75
2026-05-09 16:16:38.260,5,0.05,0.35,-0.54,-188.91160000000002,-266.6372,-245.642,175,75
2026-05-09 16:16:38.278,5,0.37,0.32,-0.44,-226.0216,-266.6372,-235.892,175,75
2026-05-09 16:16:38.278,5,0.49,0.3,-0.29,-240.0016,-233.1872,-218.65200000000002,175,75
2026-05-09 16:16:38.289,5,0.41,0.28,-0.12,-240.0016,-148.25719999999998,-200.122,175,75
2026-05-09 16:16:38.303,5,0.44,0.28,-0.04,-240.0016,-62.8272,-196.802,175,75
2026-05-09 16:16:38.308,5,0.58,0.27,-0.08,-230.6816,32.3128,-195.93200000000002,175,75
2026-05-09 16:16:38.329,5,0.6,0.2,-0.21,-208.91160000000002,132.4228,-197.002,175,75
2026-05-09 16:16:38.350,5,0.89,0.03,-0.23,-138.3416,233.6328,-151.96200000000002,175,75
2026-05-09 16:16:38.352,5,1.08,-0.1,-0.02,-92.6216,233.6328,-98.912,175,75
2026-05-09 16:16:38.376,5,1.34,0.11,0.22,-78.8116,233.6328,8.877999999999998,175,75
2026-05-09 16:16:38.394,5,1.29,-0.05,-0.04,-94.1916,233.6328,59.428,175,75
2026-05-09 16:16:38.406,5,2.0,0.89,2.0,-133.5916,233.6328,219.738,175,75
2026-05-09 16:16:38.416,5,-0.61,-0.64,2.0,-141.48160000000001,233.6328,254.248,175,75
2026-05-09 16:16:38.427,5,-2.0,-0.9,2.0,-100.2616,233.6328,143.328,175,75
2026-05-09 16:16:38.446,5,-2.0,-1.21,2.0,-40.691599999999994,196.4728,-246.022,175,75
2026-05-09 16:16:38.463,5,-2.0,-1.59,2.0,29.3184,72.4428,-246.022,175,75
2026-05-09 16:16:38.478,5,-2.0,-1.57,2.0,107.7084,9.1528,-246.022,175,75
2026-05-09 16:16:38.503,5,-2.0,-0.14,2.0,226.05839999999998,-172.00719999999998,-246.022,175,75
2026-05-09 16:16:38.519,5,-1.94,0.8,2.0,234.6584,-266.6372,-246.022,175,75
2026-05-09 16:16:38.530,5,-0.83,1.2,1.91,225.86839999999998,-266.6372,-221.942,175,75
2026-05-09 16:16:38.542,5,-0.48,1.13,1.32,203.1884,-266.6372,-197.362,175,75
2026-05-09 16:16:38.544,5,-0.04,1.11,1.08,149.05839999999998,-266.6372,-224.232,175,75
2026-05-09 16:16:38.569,5,0.29,0.9,0.71,102.3484,-266.6372,-241.522,175,75
2026-05-09 16:16:38.569,5,1.73,0.64,0.16,92.61840000000001,-266.6372,-160.542,175,75
2026-05-09 16:16:38.583,5,2.0,0.77,-0.13,104.42840000000001,-266.6372,24.218,175,75
2026-05-09 16:16:38.583,5,1.25,0.65,-0.29,107.1984,-222.6272,153.558,175,75
2026-05-09 16:16:38.594,5,0.34,0.47,-0.46,112.86840000000001,-203.56719999999999,228.108,175,75
2026-05-09 16:16:38.604,5,-0.49,0.22,-0.78,142.42839999999998,-238.5472,237.808,175,75
2026-05-09 16:16:38.604,5,-0.38,-0.28,-1.2,187.3784,-266.6372,232.09799999999998,175,75
2026-05-09 16:16:38.614,5,-0.22,-0.57,-1.69,245.9784,-266.6372,205.238,175,75
2026-05-09 16:16:38.625,5,0.96,-0.56,-2.0,260.2684,-266.6372,120.908,175,75
2026-05-09 16:16:38.636,5,0.04,-0.32,-1.81,260.2684,-203.69719999999998,1.4279999999999986,175,75
2026-05-09 16:16:38.665,5,-0.54,-0.06,0.36,110.3884,-266.6372,86.18799999999999,175,75
2026-05-09 16:16:38.670,5,-0.67,0.26,0.7,12.5784,-250.38719999999998,95.838,175,75
2026-05-09 16:16:38.684,5,-0.73,0.39,0.72,-96.07159999999999,-195.6172,45.30799999999999,175,75
2026-05-09 16:16:38.721,5,0.8,0.13,0.14,-240.0016,203.33280000000002,-246.022,175,75
2026-05-09 16:16:38.747,5,1.79,0.36,0.24,-240.0016,233.6328,-246.022,175,75
2026-05-09 16:16:38.758,5,2.0,1.36,0.32,-240.0016,233.6328,-246.022,175,75
2026-05-09 16:16:38.769,5,2.0,2.0,2.0,-240.0016,233.6328,254.248,175,75
2026-05-09 16:16:38.796,5,0.46,0.89,2.0,-240.0016,233.6328,254.248,175,75
2026-05-09 16:16:38.823,5,-2.0,-1.72,1.25,-131.0216,233.6328,-131.162,175,75
2026-05-09 16:16:38.835,5,-2.0,-1.94,1.43,-5.9315999999999995,155.7628,-166.862,175,75
2026-05-09 16:16:38.835,5,-2.0,-1.9,1.86,111.7084,-15.1772,-143.792,175,75
2026-05-09 16:16:38.847,5,-2.0,-1.38,2.0,191.8284,-95.5872,-122.42200000000001,175,75
2026-05-09 16:16:38.859,5,-2.0,-0.5,2.0,238.1884,-190.7672,-182.052,175,75
2026-05-09 16:16:38.864,5,-1.65,0.57,2.0,236.33839999999998,-266.6372,-242.502,175,75
2026-05-09 16:16:38.876,5,-0.13,0.95,1.29,209.2484,-266.6372,-239.832,175,75
2026-05-09 16:16:38.888,5,0.18,0.87,0.96,183.0984,-266.6372,-246.022,175,75
2026-05-09 16:16:38.921,5,1.65,0.76,-0.25,134.8484,-227.7072,-162.502,175,75
2026-05-09 16:16:38.941,5,0.66,0.77,-0.16,122.42840000000001,-126.69720000000001,65.008,175,75
2026-05-09 16:16:38.957,5,-0.06,0.89,-0.23,99.6284,-125.7672,100.93799999999999,175,75
2026-05-09 16:16:38.967,5,-0.3,0.68,-0.27,79.1584,-152.28719999999998,104.13799999999999,175,75
2026-05-09 16:16:38.989,5,0.05,0.16,-0.69,100.7684,-202.9672,138.358,175,75
2026-05-09 16:16:39.048,5,-0.14,-0.21,-0.45,157.0084,-185.8072,114.708,175,75
2026-05-09 16:16:39.109,5,0.5,-0.5,1.04,111.00840000000001,233.6328,171.518,175,75
2026-05-09 16:16:39.133,5,0.32,0.75,1.74,-134.4316,233.6328,-246.022,175,75
2026-05-09 16:16:39.160,5,-0.25,-0.75,2.0,-167.4916,233.6328,-246.022,175,75
2026-05-09 16:16:39.178,5,-2.0,-1.25,1.74,50.9084,217.3528,-246.022,175,75
2026-05-09 16:16:39.231,5,-1.32,0.56,2.0,56.0784,-266.6372,-23.692,175,75
2026-05-09 16:16:39.243,5,-0.08,0.46,1.54,35.2284,-266.6372,-10.992,175,75
2026-05-09 16:16:39.253,5,0.85,0.49,0.55,86.56840000000001,-266.6372,84.458,175,75
2026-05-09 16:16:39.261,5,2.0,0.98,-0.65,237.7984,-266.6372,254.248,175,75
2026-05-09 16:16:39.315,5,0.96,0.26,0.33,18.4484,-225.97719999999998,254.248,175,75
2026-05-09 16:16:39.315,5,0.46,0.03,0.27,-8.191599999999998,-134.6872,254.248,175,75
2026-05-09 16:16:39.371,5,-1.11,-0.22,-0.33,11.118400000000001,-187.5472,13.527999999999999,175,75
2026-05-09 16:16:39.387,5,-0.11,0.25,-0.84,-80.4716,-214.7372,-246.022,175,75
2026-05-09 16:16:39.427,5,0.17,0.32,-0.14,-125.2016,-137.0072,-246.022,175,75
2026-05-09 16:16:39.429,5,0.29,0.27,-0.07,-122.8216,-106.8672,-246.022,175,75
2026-05-09 16:16:39.449,5,0.82,0.01,-0.26,-79.6216,-2.9971999999999994,-135.092,175,75
2026-05-09 16:16:39.503,5,1.53,-0.2,0.2,39.8684,233.6328,154.438,175,75
2026-05-09 16:16:39.514,5,1.48,0.4,0.2,18.7684,233.6328,250.548,175,75
2026-05-09 16:16:39.528,5,1.5,0.17,0.35,10.848400000000002,233.6328,217.298,175,75
2026-05-09 16:16:39.531,5,1.19,-1.29,2.0,14.508400000000002,233.6328,-17.182000000000002,175,75
2026-05-09 16:16:39.542,5,1.72,-0.5,2.0,-44.9216,233.6328,-246.022,175,75
2026-05-09 16:16:39.560,5,-2.0,-0.92,2.0,-96.1916,233.6328,-246.022,175,75
2026-05-09 16:16:39.570,5,-2.0,-1.24,2.0,-48.1216,233.6328,-246.022,175,75
2026-05-09 16:16:39.594,5,-2.0,-0.65,2.0,141.73839999999998,-12.4772,-218.762,175,75
2026-05-09 16:16:39.608,5,-2.0,0.36,2.0,207.0984,-236.94719999999998,-116.702,175,75
2026-05-09 16:16:39.619,5,-1.48,0.86,1.99,206.17839999999998,-266.6372,79.588,175,75
2026-05-09 16:16:39.632,5,-0.74,0.61,1.17,199.02839999999998,-266.6372,154.838,175,75
2026-05-09 16:16:39.646,5,-0.11,0.52,0.66,192.52839999999998,-266.6372,183.188,175,75
2026-05-09 16:16:39.657,5,0.3,0.57,0.34,175.17839999999998,-266.6372,183.25799999999998,175,75
2026-05-09 16:16:39.657,5,2.0,0.5,-0.26,168.11839999999998,-266.6372,254.248,175,75
2026-05-09 16:16:39.668,5,2.0,0.29,-0.77,175.3584,-266.6372,254.248,175,75
2026-05-09 16:16:39.700,5,1.17,-0.55,-2.0,251.55839999999998,-171.0272,254.248,175,75
2026-05-09 16:16:39.711,5,-1.29,-0.69,-1.71,236.6584,-134.3472,199.388,175,75
2026-05-09 16:16:39.723,5,-0.97,-0.21,-0.18,205.8884,-200.0872,123.198,175,75
2026-05-09 16:16:39.733,5,-1.47,-0.31,0.29,174.58839999999998,-239.8672,85.198,175,75
2026-05-09 16:16:39.744,5,-1.66,-0.29,0.45,141.1984,-266.6372,41.337999999999994,175,75
2026-05-09 16:16:39.755,5,-1.53,0.01,0.45,75.6684,-266.6372,-6.222000000000001,175,75
2026-05-09 16:16:39.765,5,-1.29,0.2,-0.09,-35.9516,-266.6372,-80.25200000000001,175,75
2026-05-09 16:16:39.784,5,-0.67,0.11,-0.85,-153.7516,-266.6372,-181.40200000000002,175,75
2026-05-09 16:16:39.791,5,-0.4,0.09,-0.72,-240.0016,-255.0472,-246.022,175,75
2026-05-09 16:16:39.804,5,-0.37,0.26,-0.22,-240.0016,-184.8072,-246.022,175,75
2026-05-09 16:16:39.804,5,-0.01,0.42,0.16,-240.0016,-90.2972,-246.022,175,75
2026-05-09 16:16:39.813,5,0.6,0.65,0.45,-240.0016,32.3528,-246.022,175,75
2026-05-09 16:16:39.824,5,1.71,1.02,0.53,-240.0016,229.0328,-246.022,175,75
2026-05-09 16:16:39.837,5,2.0,1.4,0.62,-240.0016,233.6328,-246.022,175,75
2026-05-09 16:16:39.855,5,2.0,1.85,0.29,-240.0016,233.6328,-246.022,175,75
2026-05-09 16:16:39.877,5,1.09,1.11,-0.7,-240.0016,233.6328,-246.022,175,75
2026-05-09 16:16:39.888,5,2.0,1.27,-1.05,-240.0016,233.6328,30.528,175,75
2026-05-09 16:16:39.901,5,0.51,2.0,1.85,-240.0016,233.6328,254.248,175,75
2026-05-09 16:16:39.968,5,-2.0,-1.04,2.0,-118.6016,233.6328,254.248,175,75
2026-05-09 16:16:39.968,5,-2.0,-1.55,2.0,-93.8316,-75.6372,-12.302000000000003,175,75
2026-05-09 16:16:40.015,5,-0.01,0.82,1.07,240.05839999999998,-266.6372,-246.022,175,75
2026-05-09 16:16:40.040,5,0.37,0.93,0.77,243.3484,-266.6372,-246.022,175,75
2026-05-09 16:16:40.040,5,0.52,1.29,0.58,214.3484,-266.6372,-246.022,175,75
2026-05-09 16:16:40.051,5,2.0,1.24,0.07,193.27839999999998,-266.6372,-246.022,175,75
2026-05-09 16:16:40.061,5,2.0,1.14,-0.14,212.20839999999998,-266.6372,-179.162,175,75
2026-05-09 16:16:40.073,5,2.0,1.14,0.2,198.5784,-165.3072,-4.032000000000002,175,75
2026-05-09 16:16:40.083,5,0.06,0.76,0.44,125.7684,3.492799999999999,80.55799999999999,175,75
2026-05-09 16:16:40.083,5,-0.37,0.54,0.33,95.5484,18.412799999999997,72.618,175,75
2026-05-09 16:16:40.096,5,-0.42,0.28,0.14,83.3484,7.0928,72.85799999999999,175,75
2026-05-09 16:16:40.096,5,-0.31,0.08,-0.09,92.0784,-17.9772,98.648,175,75
2026-05-09 16:16:40.107,5,-0.19,-0.03,-0.3,120.36840000000001,-48.1272,146.388,175,75
2026-05-09 16:16:40.118,5,-0.11,-0.07,-0.54,157.9384,-83.3072,197.188,175,75
2026-05-09 16:16:40.134,5,-0.15,-0.07,-0.37,223.2484,-154.4372,254.248,175,75
2026-05-09 16:16:40.149,5,-0.17,0.06,-0.69,235.6084,-184.69719999999998,254.248,175,75
2026-05-09 16:16:40.158,5,0.12,0.02,-0.78,240.4484,-190.0172,248.338,175,75
2026-05-09 16:16:40.180,5,0.33,-0.5,-0.46,247.1084,-95.0572,229.09799999999998,175,75
2026-05-09 16:16:40.180,5,0.17,-0.52,-0.05,245.7284,-47.5372,254.248,175,75
2026-05-09 16:16:40.187,5,0.06,-0.41,0.29,243.7584,-5.2372,254.248,175,75
2026-05-09 16:16:40.202,5,-0.05,-0.31,0.69,232.6684,131.05280000000002,254.248,175,75
2026-05-09 16:16:40.213,5,0.11,0.28,0.62,185.2484,233.6328,175.888,175,75
2026-05-09 16:16:40.224,5,0.18,0.18,1.06,140.0984,233.6328,10.828,175,75
2026-05-09 16:16:40.235,5,0.1,0.14,1.25,90.4684,233.6328,-246.022,175,75
2026-05-09 16:16:40.246,5,-2.0,-0.63,2.0,62.19840000000001,233.6328,-246.022,175,75
2026-05-09 16:16:40.257,5,2.0,1.87,2.0,38.1184,233.6328,-246.022,175,75
2026-05-09 16:16:40.267,5,1.05,2.0,2.0,-96.10159999999999,233.6328,-246.022,175,75
2026-05-09 16:16:40.279,5,-0.36,1.53,2.0,-198.0016,233.6328,-246.022,175,75
2026-05-09 16:16:40.290,5,-1.7,0.55,2.0,-196.5516,184.3928,-246.022,175,75
2026-05-09 16:16:40.290,5,-2.0,-0.38,1.84,-135.7116,19.6928,-246.022,175,75
2026-05-09 16:16:40.333,5,-2.0,0.92,2.0,78.0584,-266.6372,123.068,175,75
2026-05-09 16:16:40.344,5,-1.51,1.43,1.8,106.6684,-266.6372,152.738,175,75
2026-05-09 16:16:40.359,5,2.0,1.8,0.78,213.17839999999998,-266.6372,254.248,175,75
2026-05-09 16:16:40.371,5,1.53,1.74,1.33,108.5984,-266.6372,254.248,175,75
2026-05-09 16:16:40.380,5,1.03,0.97,1.07,13.4984,-266.6372,254.248,175,75
2026-05-09 16:16:40.399,5,0.86,0.56,0.51,-20.5616,-185.22719999999998,254.248,175,75
2026-05-09 16:16:40.399,5,0.53,-0.14,0.06,-14.901599999999998,-128.0472,254.248,175,75
2026-05-09 16:16:40.421,5,0.68,-0.83,-1.24,35.498400000000004,-44.2872,254.248,175,75
2026-05-09 16:16:40.441,5,-1.13,-0.65,-0.39,77.7984,-38.5772,150.448,175,75
2026-05-09 16:16:40.453,5,-1.38,-0.46,-0.1,86.47840000000001,-87.0172,5.067999999999999,175,75
2026-05-09 16:16:40.464,5,-1.25,-0.26,0.01,85.7084,-129.4772,-128.352,175,75
2026-05-09 16:16:40.476,5,-0.9,-0.01,0.05,71.8584,-148.28719999999998,-241.092,175,75
2026-05-09 16:16:40.481,5,-0.55,0.19,0.05,46.888400000000004,-141.2272,-246.022,175,75
2026-05-09 16:16:40.500,5,-0.14,0.42,0.03,17.6284,-117.5172,-246.022,175,75
2026-05-09 16:16:40.500,5,0.09,0.5,0.0,-18.2316,-82.46719999999999,-246.022,175,75
2026-05-09 16:16:40.510,5,0.33,0.63,-0.0,-57.4516,-41.7672,-246.022,175,75
2026-05-09 16:16:40.529,5,0.54,0.65,-0.07,-95.8616,1.742799999999999,-246.022,175,75
2026-05-09 16:16:40.540,5,0.75,0.58,-0.14,-121.78159999999998,43.0828,-246.022,175,75
2026-05-09 16:16:40.540,5,0.88,0.56,-0.16,-134.1816,85.30279999999999,-224.49200000000002,175,75
2026-05-09 16:16:40.561,5,0.59,0.49,-0.19,-136.7516,118.36280000000002,-129.43200000000002,175,75
2026-05-09 16:16:40.561,5,0.1,0.42,-0.1,-135.85160000000002,130.7928,-64.052,175,75
2026-05-09 16:16:40.573,5,-0.07,0.24,-0.09,-123.28159999999998,128.27280000000002,-20.172,175,75
2026-05-09 16:16:40.583,5,0.03,0.02,0.03,-97.71159999999999,129.6528,27.708,175,75
2026-05-09 16:16:40.593,5,0.35,-0.12,0.33,-63.93159999999999,149.7228,90.07799999999999,175,75
2026-05-09 16:16:40.616,5,1.17,-0.05,1.41,-53.8416,233.6328,254.248,175,75
2026-05-09 16:16:40.624,5,2.0,1.03,2.0,-98.3116,229.1328,254.248,175,75
2026-05-09 16:16:40.640,5,1.0,0.43,2.0,-116.8116,58.992799999999995,254.248,175,75
2026-05-09 16:16:40.653,5,-1.05,-0.18,2.0,-69.63159999999999,169.7328,105.32799999999999,175,75
2026-05-09 16:16:40.665,5,-1.5,-0.36,2.0,-93.7816,233.6328,-103.272,175,75
2026-05-09 16:16:40.676,5,-1.84,-0.7,2.0,-99.3916,233.6328,-246.022,175,75
2026-05-09 16:16:40.691,5,-1.96,-1.14,2.0,-9.331599999999998,233.6328,-246.022,175,75
2026-05-09 16:16:40.705,5,-2.0,-0.98,2.0,94.4384,233.6328,-246.022,175,75
2026-05-09 16:16:40.710,5,-1.79,-0.1,2.0,201.11839999999998,-22.2272,-246.022,175,75
2026-05-09 16:16:40.724,5,-1.99,1.02,2.0,214.4684,-264.1972,-160.162,175,75
2026-05-09 16:16:40.746,5,-1.25,0.81,1.78,120.9484,-266.6372,-68.982,175,75
2026-05-09 16:16:40.757,5,-0.34,0.43,1.12,112.2984,-266.6372,-11.432000000000002,175,75
2026-05-09 16:16:40.771,5,0.96,0.32,0.3,112.8484,-266.6372,115.878,175,75
2026-05-09 16:16:40.783,5,2.0,0.01,-0.1,134.1984,-266.6372,252.648,175,75
2026-05-09 16:16:40.795,5,2.0,-0.16,-0.63,175.4384,-266.6372,254.248,175,75
2026-05-09 16:16:40.809,5,1.47,-0.12,-1.02,205.0984,-251.6472,254.248,175,75
2026-05-09 16:16:40.819,5,1.33,-0.22,-1.27,244.9484,-196.63719999999998,254.248,175,75
2026-05-09 16:16:40.819,5,1.05,-0.19,-2.0,214.76839999999999,-80.0572,254.248,175,75
2026-05-09 16:16:40.840,5,-0.32,-0.53,-1.21,177.89839999999998,-17.1372,216.188,175,75
2026-05-09 16:16:40.853,5,-1.36,-0.21,0.06,155.3784,-74.19720000000001,58.80799999999999,175,75
2026-05-09 16:16:40.875,5,-2.0,0.2,0.16,66.7884,-224.22719999999998,-150.922,175,75
2026-05-09 16:16:40.901,5,-1.36,0.48,-0.54,-59.2816,-266.6372,-246.022,175,75
2026-05-09 16:16:40.901,5,-0.43,0.49,-0.9,-123.3316,-266.6372,-246.022,175,75
2026-05-09 16:16:40.952,5,2.0,1.77,0.61,-240.0016,233.6328,-246.022,175,75
2026-05-09 16:16:40.979,5,1.41,1.65,0.03,-240.0016,233.6328,-163.732,175,75
2026-05-09 16:16:40.985,5,0.88,1.04,-0.38,-240.0016,233.6328,-199.622,175,75
2026-05-09 16:16:40.992,5,2.0,2.0,0.01,-240.0016,233.6328,254.248,175,75
2026-05-09 16:16:41.013,5,-1.7,1.12,0.99,-240.0016,233.6328,254.248,175,75
2026-05-09 16:16:41.023,5,-2.0,0.21,1.01,-240.0016,233.6328,254.248,175,75
2026-05-09 16:16:41.031,5,-2.0,-0.95,1.9,-211.3716,233.6328,254.248,175,75
2026-05-09 16:16:41.058,5,-2.0,-1.98,2.0,-88.4416,12.392800000000001,87.008,175,75
2026-05-09 16:16:41.069,5,-2.0,-2.0,2.0,-8.511599999999998,-162.1572,27.938,175,75
2026-05-09 16:16:41.082,5,-2.0,-1.12,2.0,100.3584,-266.6372,-190.202,175,75
2026-05-09 16:16:41.109,5,-0.8,0.0,0.97,158.45839999999998,-266.6372,-246.022,175,75
2026-05-09 16:16:41.109,5,-0.08,0.37,0.69,190.0984,-266.6372,-246.022,175,75
2026-05-09 16:16:41.122,5,0.29,0.66,0.6,198.6884,-266.6372,-246.022,175,75
2026-05-09 16:16:41.146,5,1.18,0.85,0.18,179.58839999999998,-266.6372,-246.022,175,75
2026-05-09 16:16:41.157,5,2.0,1.08,-0.27,205.08839999999998,-266.6372,-168.612,175,75
2026-05-09 16:16:41.160,5,2.0,1.16,-0.05,207.3184,-224.4572,13.527999999999999,175,75
2026-05-09 16:16:41.177,5,0.88,1.25,0.21,167.2884,-133.9872,79.908,175,75
2026-05-09 16:16:41.196,5,-0.01,0.5,0.02,112.9984,-77.8672,100.82799999999999,175,75
2026-05-09 16:16:41.200,5,-0.03,0.25,-0.13,118.7784,-78.6472,122.13799999999999,175,75
2026-05-09 16:16:41.224,5,-0.06,0.09,-0.32,166.4084,-107.43719999999999,191.678,175,75
2026-05-09 16:16:41.240,5,-0.22,0.09,-0.39,188.7884,-134.5472,219.978,175,75
2026-05-09 16:16:41.241,5,-0.38,0.06,-0.4,211.42839999999998,-174.1172,225.248,175,75
2026-05-09 16:16:41.254,5,-0.42,0.04,-0.37,228.9084,-211.38719999999998,217.608,175,75
2026-05-09 16:16:41.269,5,-0.4,-0.1,-0.5,242.95839999999998,-243.91719999999998,203.138,175,75
2026-05-09 16:16:41.269,5,-0.36,-0.28,-0.61,260.2684,-266.6372,203.418,175,75
2026-05-09 16:16:41.280,5,0.12,-0.44,-0.82,260.2684,-266.6372,207.488,175,75
2026-05-09 16:16:41.300,5,1.39,-0.46,-1.39,260.2684,-225.1772,209.09799999999998,175,75
2026-05-09 16:16:41.300,5,1.2,-0.71,-1.05,260.2684,-102.8272,230.808,175,75
2026-05-09 16:16:41.319,5,0.9,-0.14,-0.38,260.2684,0.8327999999999989,254.248,175,75
2026-05-09 16:16:41.329,5,0.73,-0.5,0.06,260.2684,103.8628,254.248,175,75
2026-05-09 16:16:41.341,5,0.39,0.06,0.77,260.2684,232.49280000000002,254.248,175,75
2026-05-09 16:16:41.341,5,0.05,0.31,1.32,260.2684,233.6328,196.588,175,75
2026-05-09 16:16:41.373,5,-0.33,1.02,1.98,-120.3916,233.6328,-246.022,175,75
2026-05-09 16:16:41.386,5,-1.4,0.59,2.0,-240.0016,233.6328,-246.022,175,75
2026-05-09 16:16:41.403,5,-0.68,-0.44,2.0,-153.4916,233.6328,-246.022,175,75
2026-05-09 16:16:41.415,5,-2.0,-0.7,2.0,-62.21159999999999,233.6328,-246.022,175,75
2026-05-09 16:16:41.429,5,-2.0,-0.98,1.97,28.0284,128.58280000000002,-246.022,175,75
2026-05-09 16:16:41.439,5,-2.0,-0.89,1.8,98.7484,-204.2772,-246.022,175,75
2026-05-09 16:16:41.453,5,-2.0,0.25,1.99,105.83840000000001,-266.6372,-36.772000000000006,175,75
2026-05-09 16:16:41.510,5,2.0,2.0,0.31,260.2684,-266.6372,254.248,175,75
2026-05-09 16:16:41.510,5,1.6,1.55,0.5,174.2884,-266.6372,254.248,175,75
2026-05-09 16:16:41.529,5,0.3,0.54,0.33,49.118399999999994,-197.0872,254.248,175,75
2026-05-09 16:16:41.539,5,0.09,0.16,0.0,37.138400000000004,-169.6072,254.248,175,75
2026-05-09 16:16:41.558,5,0.1,-0.19,-0.34,41.418400000000005,-150.8472,254.248,175,75
2026-05-09 16:16:41.562,5,-0.04,0.07,-0.4,68.0084,-143.5472,254.248,175,75
2026-05-09 16:16:41.576,5,-0.08,-0.38,-0.79,83.4684,-133.0872,254.248,175,75
2026-05-09 16:16:41.588,5,-0.36,-0.3,-0.74,79.97840000000001,-120.40719999999999,254.248,175,75
2026-05-09 16:16:41.599,5,-0.59,-0.19,-0.48,60.928399999999996,-118.1372,140.718,175,75
2026-05-09 16:16:41.611,5,-0.77,-0.08,-0.21,33.9584,-130.8972,33.668,175,75
2026-05-09 16:16:41.622,5,-0.77,0.05,-0.05,5.178400000000001,-144.2472,-54.482,175,75
2026-05-09 16:16:41.622,5,-0.64,0.22,0.05,-28.0316,-150.0872,-137.332,175,75
2026-05-09 16:16:41.649,5,-0.29,0.43,0.15,-83.2016,-123.72720000000001,-246.022,175,75
2026-05-09 16:16:41.649,5,-0.14,0.47,0.19,-98.66159999999999,-94.09719999999999,-246.022,175,75
2026-05-09 16:16:41.663,5,0.01,0.44,0.17,-116.46159999999999,-57.8372,-246.022,175,75
2026-05-09 16:16:41.693,5,0.78,0.09,-0.04,-103.7316,81.30279999999999,-246.022,175,75
2026-05-09 16:16:41.722,5,1.0,-0.26,-0.14,-24.4016,201.36280000000002,-42.412000000000006,175,75
2026-05-09 16:16:41.728,5,1.08,-0.1,0.14,9.118400000000001,233.6328,84.128,175,75
2026-05-09 16:16:41.743,5,1.16,0.4,0.44,-13.2016,233.6328,251.378,175,75
2026-05-09 16:16:41.754,5,1.03,0.5,0.51,-41.991600000000005,233.6328,254.248,175,75
2026-05-09 16:16:41.769,5,2.0,1.0,1.72,-93.88159999999999,233.6328,254.248,175,75
2026-05-09 16:16:41.769,5,1.59,0.37,2.0,-86.2616,233.6328,254.248,175,75
2026-05-09 16:16:41.798,5,-1.7,-0.8,2.0,-116.07159999999999,233.6328,-58.992000000000004,175,75
2026-05-09 16:16:41.801,5,-2.0,-0.91,2.0,-100.68159999999999,233.6328,-221.102,175,75
2026-05-09 16:16:41.819,5,-2.0,-1.4,2.0,-38.27159999999999,233.6328,-246.022,175,75
2026-05-09 16:16:41.829,5,-2.0,-1.44,2.0,63.5684,233.6328,-246.022,175,75
2026-05-09 16:16:41.829,5,-2.0,-0.88,2.0,149.6384,8.7728,-246.022,175,75
2026-05-09 16:16:41.847,5,-2.0,-0.01,2.0,199.3184,-249.94719999999998,-206.072,175,75
2026-05-09 16:16:41.859,5,-1.9,0.61,2.0,197.2884,-266.6372,-89.28200000000001,175,75
2026-05-09 16:16:41.871,5,-0.99,0.83,2.0,159.4784,-266.6372,-6.512000000000002,175,75
2026-05-09 16:16:41.885,5,0.4,0.46,0.88,70.9084,-266.6372,54.52799999999999,175,75
2026-05-09 16:16:41.899,5,0.75,0.2,0.49,31.8784,-266.6372,85.798,175,75
2026-05-09 16:16:41.909,5,1.46,-0.06,0.23,6.758400000000001,-266.6372,124.398,175,75
2026-05-09 16:16:41.921,5,1.22,-0.54,-0.43,40.7384,-266.6372,254.248,175,75
2026-05-09 16:16:41.945,5,0.89,-1.27,-0.36,122.4584,-262.7472,254.248,175,75
2026-05-09 16:16:41.955,5,0.47,-0.3,-1.38,99.9584,-190.3372,181.648,175,75
2026-05-09 16:16:41.967,5,-0.17,-0.49,-0.88,78.0584,-135.1672,63.548,175,75
2026-05-09 16:16:41.992,5,-0.93,-0.21,0.2,4.1484000000000005,-149.4072,-96.86200000000001,175,75
2026-05-09 16:16:42.031,5,-0.68,0.78,0.39,-179.63160000000002,-163.7972,-246.022,175,75
2026-05-09 16:16:42.044,5,-0.16,1.04,0.41,-237.10160000000002,-122.7972,-246.022,175,75
2026-05-09 16:16:42.057,5,0.88,1.51,0.56,-240.0016,-17.9572,-246.022,175,75
2026-05-09 16:16:42.069,5,1.93,1.74,0.72,-240.0016,155.0928,-246.022,175,75
2026-05-09 16:16:42.082,5,2.0,2.0,0.8,-240.0016,233.6328,-246.022,175,75
2026-05-09 16:16:42.092,5,2.0,1.22,0.17,-240.0016,233.6328,-246.022,175,75
2026-05-09 16:16:42.117,5,2.0,0.51,0.73,-240.0016,233.6328,254.248,175,75
2026-05-09 16:16:42.117,5,0.18,1.25,1.81,-240.0016,233.6328,254.248,175,75
2026-05-09 16:16:42.129,5,-2.0,-0.47,2.0,-194.10160000000002,233.6328,254.248,175,75
2026-05-09 16:16:42.139,5,-2.0,-1.01,2.0,-133.7116,233.6328,254.248,175,75
2026-05-09 16:16:42.150,5,-2.0,-1.65,2.0,-56.55159999999999,-94.3272,157.708,175,75
2026-05-09 16:16:42.162,5,-2.0,-1.64,2.0,-5.991599999999998,-266.6372,38.087999999999994,175,75
2026-05-09 16:16:42.182,5,-1.8,-0.68,1.65,34.8284,-266.6372,-227.192,175,75
2026-05-09 16:16:42.193,5,-0.83,-0.13,1.11,46.998400000000004,-266.6372,-246.022,175,75
2026-05-09 16:16:42.212,5,0.01,0.31,0.49,70.5584,-266.6372,-246.022,175,75
2026-05-09 16:16:42.212,5,0.59,0.76,-0.22,121.1284,-266.6372,-246.022,175,75
2026-05-09 16:16:42.225,5,2.0,1.01,-0.8,200.3784,-266.6372,-246.022,175,75
2026-05-09 16:16:42.242,5,2.0,1.74,-0.55,189.89839999999998,-266.6372,-9.482000000000001,175,75
2026-05-09 16:16:42.255,5,0.62,0.97,-0.32,166.2884,-218.9072,19.477999999999998,175,75
2026-05-09 16:16:42.266,5,-0.22,0.58,-0.07,150.26839999999999,-198.0572,5.677999999999999,175,75
2026-05-09 16:16:42.280,5,-0.49,0.29,0.01,144.45839999999998,-205.8472,-10.472000000000001,175,75
2026-05-09 16:16:42.308,5,-0.83,-0.24,-0.42,186.83839999999998,-266.6372,64.148,175,75
2026-05-09 16:16:42.319,5,-0.47,-0.34,-1.25,221.6384,-266.6372,109.96799999999999,175,75
2026-05-09 16:16:42.349,5,-0.54,0.07,-0.68,203.6884,-266.6372,138.228,175,75
2026-05-09 16:16:42.349,5,-0.3,-0.25,-0.27,178.5484,-266.6372,133.388,175,75
2026-05-09 16:16:42.362,5,-0.05,-0.4,0.09,156.83839999999998,-266.6372,129.138,175,75
2026-05-09 16:16:42.389,5,0.11,-0.49,0.54,107.2484,-62.0572,130.338,175,75
2026-05-09 16:16:42.393,5,0.26,-0.32,0.63,65.7584,83.3928,128.268,175,75
2026-05-09 16:16:42.400,5,0.35,-0.45,0.48,41.7684,217.6528,127.258,175,75
2026-05-09 16:16:42.417,5,0.49,-0.65,0.19,33.668400000000005,233.6328,121.008,175,75
2026-05-09 16:16:42.442,5,0.53,-0.24,0.05,83.3584,233.6328,20.688,175,75
2026-05-09 16:16:42.460,5,0.66,-0.31,-0.13,68.3784,233.6328,-72.592,175,75
2026-05-09 16:16:42.460,5,0.21,-0.36,-0.02,48.1584,233.6328,-223.15200000000002,175,75
2026-05-09 16:16:42.481,5,2.0,-0.08,2.0,22.828400000000002,233.6328,-246.022,175,75
2026-05-09 16:16:42.490,5,0.01,-0.05,2.0,-79.0116,233.6328,-246.022,175,75
2026-05-09 16:16:42.516,5,-2.0,-1.35,2.0,-70.71159999999999,233.6328,-246.022,175,75
2026-05-09 16:16:42.541,5,-2.0,-0.54,2.0,72.0984,-266.6372,254.248,175,75
2026-05-09 16:16:42.556,5,-2.0,0.17,2.0,17.668400000000002,-266.6372,233.658,175,75
2026-05-09 16:16:42.569,5,-2.0,0.34,2.0,-34.111599999999996,-266.6372,121.268,175,75
2026-05-09 16:16:42.569,5,0.31,-0.08,2.0,-26.8216,-266.6372,121.068,175,75
2026-05-09 16:16:42.581,5,1.57,0.24,0.87,-19.8116,-266.6372,143.698,175,75
2026-05-09 16:16:42.605,5,2.0,0.45,0.24,-63.35159999999999,-266.6372,128.698,175,75
2026-05-09 16:16:42.632,5,0.2,0.5,-0.06,-157.5616,-177.0472,-36.94200000000001,175,75
2026-05-09 16:16:42.644,5,-0.4,0.35,-0.15,-170.91160000000002,-139.3072,-126.042,175,75
2026-05-09 16:16:42.664,5,-0.81,0.07,-0.38,-158.57160000000002,-196.8272,-246.022,175,75
2026-05-09 16:16:42.679,5,-0.88,0.32,-0.6,-132.04160000000002,-244.5172,-246.022,175,75
2026-05-09 16:16:42.683,5,-0.55,0.36,-0.65,-104.6716,-266.6372,-246.022,175,75
2026-05-09 16:16:42.723,5,-0.15,0.76,-0.07,-36.91159999999999,-153.3572,-244.322,175,75
2026-05-09 16:16:42.742,5,-0.12,0.31,-0.03,-4.7516,-83.8672,-137.772,175,75
2026-05-09 16:16:42.792,5,-0.07,0.05,0.03,104.75840000000001,-37.1772,211.078,175,75
2026-05-09 16:16:42.792,5,0.27,-0.03,-0.16,117.4884,1.4628000000000014,254.248,175,75
2026-05-09 16:16:42.820,5,0.33,-0.36,-0.62,142.30839999999998,233.6328,254.248,175,75
2026-05-09 16:16:42.831,5,0.18,-0.31,-0.34,152.0084,233.6328,254.248,175,75
2026-05-09 16:16:42.841,5,0.1,-0.39,-0.35,168.2184,233.6328,254.248,175,75
2026-05-09 16:16:42.868,5,0.07,-0.73,-0.29,239.0384,233.6328,254.248,175,75
2026-05-09 16:16:42.868,5,-0.07,-0.66,-0.32,260.2684,233.6328,254.248,175,75
2026-05-09 16:16:42.884,5,-0.21,-0.77,0.12,260.2684,233.6328,225.298,175,75
2026-05-09 16:16:42.897,5,-2.0,-0.95,2.0,260.2684,233.6328,-66.06200000000001,175,75
2026-05-09 16:16:42.901,5,0.47,-1.28,2.0,-12.0716,-266.6372,-246.022,175,75
2026-05-09 16:16:42.920,5,0.74,-0.2,2.0,99.5984,-103.5772,-246.022,175,75
2026-05-09 16:16:42.933,5,0.69,1.57,2.0,-36.0616,233.6328,-246.022,175,75
2026-05-09 16:16:42.949,5,0.35,1.35,2.0,-166.3016,233.6328,-246.022,175,75
2026-05-09 16:16:42.968,5,-1.23,0.19,2.0,-194.6716,147.1928,-246.022,175,75
2026-05-09 16:16:42.980,5,-1.84,-0.14,2.0,-136.01160000000002,21.632800000000003,-125.81200000000001,175,75
2026-05-09 16:16:42.991,5,-2.0,0.2,2.0,-84.6516,-152.44719999999998,224.808,175,75
2026-05-09 16:16:43.011,5,-2.0,0.27,2.0,-51.4216,-184.2472,235.358,175,75
2026-05-09 16:16:43.011,5,-1.5,0.35,2.0,15.9884,-266.6372,254.248,175,75
2026-05-09 16:16:43.027,5,-0.68,0.56,2.0,18.4384,-266.6372,254.248,175,75
2026-05-09 16:16:43.044,5,-0.57,0.65,1.88,-37.2816,-266.6372,254.248,175,75
2026-05-09 16:16:43.056,5,0.2,0.22,1.22,-100.21159999999999,-266.6372,254.248,175,75
2026-05-09 16:16:43.066,5,0.89,-0.58,-0.09,-128.7116,-266.6372,254.248,175,75
2026-05-09 16:16:43.080,5,2.0,-2.0,-1.97,-93.3316,-13.767199999999999,210.498,175,75
2026-05-09 16:16:43.097,5,-0.08,-0.65,-1.57,-89.9716,105.4828,39.158,175,75
2026-05-09 16:16:43.110,5,-1.2,-0.51,-0.37,-68.3116,44.1528,-26.512,175,75
2026-05-09 16:16:43.120,5,-1.27,-0.29,-0.06,-37.2316,-36.6172,-89.322,175,75
2026-05-09 16:16:43.120,5,-1.44,-0.0,0.08,-17.5216,-94.84719999999999,-191.892,175,75
2026-05-09 16:16:43.149,5,-0.79,1.06,0.59,-65.1716,-125.16720000000001,-246.022,175,75
2026-05-09 16:16:43.174,5,1.48,1.62,1.95,-240.0016,233.6328,-246.022,175,75
2026-05-09 16:16:43.185,5,2.0,1.44,2.0,-240.0016,233.6328,-246.022,175,75
2026-05-09 16:16:43.196,5,2.0,0.1,2.0,-240.0016,233.6328,221.698,175,75
2026-05-09 16:16:43.212,5,-0.81,1.06,1.52,-213.5516,233.6328,254.248,175,75
2026-05-09 16:16:43.223,5,-2.0,0.15,1.9,-140.7516,233.6328,254.248,175,75
2026-05-09 16:16:43.235,5,-2.0,-0.61,2.0,-111.7216,233.6328,254.248,175,75
2026-05-09 16:16:43.249,5,-2.0,-1.57,2.0,-128.0016,-65.8672,191.768,175,75
2026-05-09 16:16:43.260,5,-2.0,-1.76,2.0,-87.7216,-266.6372,82.128,175,75
2026-05-09 16:16:43.260,5,-2.0,-1.39,1.67,-30.1016,-266.6372,-27.672,175,75
2026-05-09 16:16:43.270,5,-1.3,-0.85,1.12,12.848400000000002,-266.6372,-140.342,175,75
2026-05-09 16:16:43.286,5,-0.32,-0.36,0.75,46.1584,-266.6372,-243.442,175,75
2026-05-09 16:16:43.299,5,0.23,-0.03,0.46,78.86840000000001,-266.6372,-246.022,175,75
2026-05-09 16:16:43.314,5,0.33,0.31,0.25,102.86840000000001,-266.6372,-246.022,175,75
2026-05-09 16:16:43.315,5,1.13,0.64,-0.09,116.72840000000001,-266.6372,-246.022,175,75
2026-05-09 16:16:43.325,5,2.0,0.85,-0.78,133.1584,-266.6372,-246.022,175,75
2026-05-09 16:16:43.336,5,2.0,1.17,-1.25,163.17839999999998,-213.63719999999998,-99.342,175,75
2026-05-09 16:16:43.347,5,1.17,1.27,-0.94,161.8584,-170.7672,-4.582000000000001,175,75
2026-05-09 16:16:43.359,5,0.03,1.03,-0.48,131.8784,-179.22719999999998,-7.282000000000002,175,75
2026-05-09 16:16:43.371,5,-0.64,0.68,-0.28,97.7984,-222.9672,-49.69200000000001,175,75
2026-05-09 16:16:43.381,5,-0.56,-0.07,-0.47,103.4084,-266.6372,-92.662,175,75
2026-05-09 16:16:43.393,5,-0.43,-0.23,-0.46,129.6084,-266.6372,-64.432,175,75
2026-05-09 16:16:43.407,5,-0.35,-0.36,-0.52,159.01839999999999,-266.6372,-18.252000000000002,175,75
2026-05-09 16:16:43.417,5,-0.26,-0.31,-0.71,183.8584,-266.6372,29.038,175,75
2026-05-09 16:16:43.424,5,-0.15,-0.17,-0.78,186.9384,-266.6372,71.02799999999999,175,75
2026-05-09 16:16:43.433,5,-0.01,-0.02,-0.68,159.5084,-266.6372,111.588,175,75
2026-05-09 16:16:43.457,5,0.09,-0.13,-0.16,61.0684,-266.6372,171.84799999999998,175,75
2026-05-09 16:16:43.471,5,0.16,-0.14,-0.12,30.1084,-244.8772,174.748,175,75
2026-05-09 16:16:43.471,5,0.08,-0.18,0.21,-9.0716,-148.41719999999998,172.808,175,75
2026-05-09 16:16:43.492,5,-0.18,-0.13,0.6,-62.32159999999999,28.6128,142.03799999999998,175,75
2026-05-09 16:16:43.503,5,-0.24,-0.08,0.5,-93.6216,106.90280000000001,108.588,175,75
2026-05-09 16:16:43.519,5,-0.23,-0.31,0.32,-97.74159999999999,172.36280000000002,80.518,175,75
2026-05-09 16:16:43.531,5,0.49,-0.57,0.17,-59.611599999999996,233.6328,37.05799999999999,175,75
2026-05-09 16:16:43.542,5,0.81,-0.51,0.17,-38.7316,233.6328,15.737999999999998,175,75
2026-05-09 16:16:43.555,5,1.14,-0.53,0.17,-17.2016,233.6328,-31.322,175,75
2026-05-09 16:16:43.579,5,1.24,-0.17,0.22,-14.3616,233.6328,-161.852,175,75
2026-05-09 16:16:43.579,5,1.47,-0.06,1.08,-60.361599999999996,233.6328,-235.412,175,75
2026-05-09 16:16:43.589,5,2.0,-2.0,2.0,-6.201599999999999,233.6328,-246.022,175,75
2026-05-09 16:16:43.604,5,0.02,-0.27,2.0,-56.52159999999999,233.6328,-246.022,175,75
2026-05-09 16:16:43.630,5,-2.0,-1.1,2.0,-61.99159999999999,233.6328,-227.442,175,75
2026-05-09 16:16:43.630,5,-2.0,-1.35,2.0,-32.9316,190.6228,-157.172,175,75
2026-05-09 16:16:43.646,5,-2.0,-1.42,2.0,3.4484000000000004,-266.6372,-47.382000000000005,175,75
2026-05-09 16:16:43.660,5,-2.0,-1.28,2.0,24.858400000000003,-266.6372,49.257999999999996,175,75
2026-05-09 16:16:43.698,5,-1.31,-0.57,1.63,-30.051599999999997,-266.6372,-21.862000000000002,175,75
2026-05-09 16:16:43.723,5,2.0,0.21,-0.18,-28.581599999999998,-266.6372,-197.93200000000002,175,75
2026-05-09 16:16:43.723,5,2.0,0.72,-0.41,-34.1716,-266.6372,-239.452,175,75
2026-05-09 16:16:43.734,5,2.0,1.15,-0.46,-62.77159999999999,-266.6372,-234.852,175,75
2026-05-09 16:16:43.745,5,1.47,1.05,-0.09,-106.10159999999999,-211.5272,-230.332,175,75
2026-05-09 16:16:43.760,5,0.24,0.86,0.24,-137.41160000000002,-129.2872,-246.022,175,75
2026-05-09 16:16:43.771,5,-0.1,0.97,0.19,-171.5916,-84.7372,-246.022,175,75
2026-05-09 16:16:43.771,5,-0.3,0.79,0.06,-191.4016,-67.7672,-246.022,175,75
2026-05-09 16:16:43.792,5,-0.09,0.28,-0.28,-166.7116,-80.16720000000001,-246.022,175,75
2026-05-09 16:16:43.825,5,0.04,0.23,-0.26,-83.1416,-103.3872,-246.022,175,75
2026-05-09 16:16:43.838,5,-0.01,0.38,-0.07,-60.32159999999999,-106.5472,-246.022,175,75
2026-05-09 16:16:43.838,5,-0.09,0.53,0.11,-52.131600000000006,-101.71719999999999,-210.71200000000002,175,75
2026-05-09 16:16:43.851,5,-0.14,0.55,0.18,-52.2016,-90.4872,-169.802,175,75
2026-05-09 16:16:43.871,5,-0.22,0.57,0.2,-50.8116,-74.0272,-135.99200000000002,175,75
2026-05-09 16:16:43.871,5,-0.28,0.52,0.15,-43.2916,-59.6472,-103.132,175,75
2026-05-09 16:16:43.882,5,-0.36,0.42,0.04,-26.9716,-53.2872,-70.482,175,75
2026-05-09 16:16:43.892,5,-0.38,0.33,-0.01,-3.531599999999999,-58.2572,-37.292,175,75
2026-05-09 16:16:43.892,5,-0.3,0.19,-0.1,25.9584,-70.0672,6.767999999999999,175,75
2026-05-09 16:16:43.903,5,-0.21,0.11,-0.06,56.9084,-86.16720000000001,61.288,175,75
2026-05-09 16:16:43.921,5,-0.12,0.1,0.02,77.4384,-99.25720000000001,116.99799999999999,175,75
2026-05-09 16:16:43.938,5,-0.04,0.05,0.05,89.9184,-107.0172,172.778,175,75
2026-05-09 16:16:43.948,5,-0.08,0.01,0.05,98.1884,-111.62719999999999,216.09799999999998,175,75
2026-05-09 16:16:43.959,5,-0.13,-0.04,-0.02,108.1084,-114.53720000000001,240.958,175,75
2026-05-09 16:16:43.959,5,-0.13,0.0,-0.07,110.2184,-113.71719999999999,243.808,175,75
2026-05-09 16:16:43.986,5,0.53,0.11,-0.24,105.7784,-54.2172,228.478,175,75
2026-05-09 16:16:43.986,5,0.86,-0.1,-0.43,97.50840000000001,48.7728,202.888,175,75
2026-05-09 16:16:43.997,5,1.03,-0.27,-0.51,88.4084,175.61280000000002,166.518,175,75
2026-05-09 16:16:44.014,5,1.18,-0.66,-0.51,91.8584,233.6328,146.53799999999998,175,75
2026-05-09 16:16:44.014,5,1.09,-1.07,-0.33,138.5984,233.6328,177.888,175,75
2026-05-09 16:16:44.036,5,0.71,-0.71,0.05,238.5784,233.6328,231.618,175,75
2026-05-09 16:16:44.047,5,-0.87,-0.66,0.87,255.9184,233.6328,127.818,175,75
2026-05-09 16:16:44.056,5,-2.0,-2.0,2.0,117.92840000000001,-53.7572,-246.022,175,75
2026-05-09 16:16:44.075,5,1.04,1.3,2.0,-41.55159999999999,143.4028,-246.022,175,75
2026-05-09 16:16:44.090,5,1.22,0.89,2.0,-170.7816,233.6328,-246.022,175,75
2026-05-09 16:16:44.090,5,0.07,-0.16,2.0,-240.0016,233.6328,-246.022,175,75
2026-05-09 16:16:44.102,5,-1.17,-0.91,2.0,-220.7116,233.6328,-246.022,175,75
2026-05-09 16:16:44.129,5,-2.0,-1.18,2.0,-125.65159999999999,233.6328,-246.022,175,75
2026-05-09 16:16:44.129,5,-2.0,-0.74,2.0,-42.2916,67.81280000000001,-33.962,175,75
2026-05-09 16:16:44.141,5,-2.0,-0.06,2.0,-17.511599999999998,-159.7772,86.16799999999999,175,75
2026-05-09 16:16:44.152,5,-2.0,0.45,2.0,-22.881600000000002,-266.6372,47.768,175,75
2026-05-09 16:16:44.185,5,0.58,0.58,1.56,83.6384,-266.6372,102.848,175,75
2026-05-09 16:16:44.196,5,0.84,0.43,1.11,49.678399999999996,-266.6372,202.648,175,75
2026-05-09 16:16:44.206,5,1.16,0.19,0.74,14.288400000000001,-266.6372,253.628,175,75
2026-05-09 16:16:44.206,5,1.3,0.05,0.43,1.2484000000000002,-266.6372,254.248,175,75
2026-05-09 16:16:44.217,5,0.95,-0.11,-0.04,17.038400000000003,-266.6372,254.248,175,75
2026-05-09 16:16:44.224,5,0.67,-0.07,-0.56,21.288400000000003,-266.6372,254.248,175,75
2026-05-09 16:16:44.232,5,1.64,-0.2,-2.0,26.4684,-229.6172,254.248,175,75
2026-05-09 16:16:44.247,5,0.78,-0.61,-2.0,-3.371599999999999,-43.6772,77.428,175,75
2026-05-09 16:16:44.260,5,-1.42,0.14,-0.72,-34.5916,-115.0272,-25.822000000000003,175,75
2026-05-09 16:16:44.271,5,-1.63,0.38,-0.16,-63.831599999999995,-225.9972,-115.67200000000001,175,75
2026-05-09 16:16:44.274,5,-1.12,0.9,0.06,-101.6416,-266.6372,-217.222,175,75
2026-05-09 16:16:44.289,5,-0.62,1.28,0.44,-166.0616,-266.6372,-246.022,175,75
2026-05-09 16:16:44.302,5,0.1,1.54,0.72,-237.2816,-196.44719999999998,-246.022,175,75
2026-05-09 16:16:44.302,5,1.19,1.76,1.39,-240.0016,-21.9172,-246.022,175,75
2026-05-09 16:16:44.328,5,2.0,1.9,1.82,-240.0016,233.6328,-246.022,175,75
2026-05-09 16:16:44.331,5,2.0,1.31,1.22,-240.0016,233.6328,-246.022,175,75
2026-05-09 16:16:44.346,5,2.0,0.41,-1.24,-240.0016,233.6328,254.248,175,75
2026-05-09 16:16:44.359,5,0.63,2.0,1.77,-240.0016,233.6328,254.248,175,75
2026-05-09 16:16:44.370,5,-2.0,0.81,2.0,-176.5616,233.6328,254.248,175,75
2026-05-09 16:16:44.370,5,-2.0,-0.21,2.0,-177.0316,233.6328,254.248,175,75
2026-05-09 16:16:44.395,5,-2.0,-1.8,2.0,-189.4216,-266.6372,150.148,175,75
2026-05-09 16:16:44.402,5,-2.0,-1.94,1.61,-133.51160000000002,-266.6372,17.938,175,75
2026-05-09 16:16:44.422,5,-2.0,-1.47,0.93,-63.1716,-266.6372,-129.692,175,75
2026-05-09 16:16:44.422,5,-1.25,-0.82,0.6,-0.2115999999999989,-266.6372,-246.022,175,75
2026-05-09 16:16:44.434,5,-0.01,-0.14,0.47,51.928399999999996,-266.6372,-246.022,175,75
