Time,ID,Ax,Ay,Az,Gx,Gy,Gz,Height,Weight
2026-05-07 18:34:13.325,5,0.04,-0.08,0.91,10.236799999999999,-47.6754,15.874199999999998,175,75
2026-05-07 18:34:13.344,5,0.09,0.06,0.96,15.906799999999999,-42.995400000000004,15.6542,175,75
2026-05-07 18:34:13.357,5,0.11,0.1,0.99,15.4968,-39.1054,22.0642,175,75
2026-05-07 18:34:13.376,5,0.09,0.04,1.0,-0.36319999999999997,-18.2954,45.7642,175,75
2026-05-07 18:34:13.389,5,-0.1,-0.34,0.98,-0.5331999999999999,-0.5654000000000001,39.1942,175,75
2026-05-07 18:34:13.405,5,-0.14,-0.39,1.09,2.5068,2.7845999999999997,23.714199999999998,175,75
2026-05-07 18:34:13.417,5,-0.19,-0.41,1.13,0.6168,4.6646,13.5842,175,75
2026-05-07 18:34:13.439,5,-0.32,-0.18,1.23,-3.3832,13.924599999999998,-40.3658,175,75
2026-05-07 18:34:13.447,5,-0.34,-0.4,1.14,-4.3832,12.054599999999999,-51.0458,175,75
2026-05-07 18:34:13.467,5,-0.33,-0.36,1.17,-2.6732,9.804599999999999,-63.2358,175,75
2026-05-07 18:34:13.467,5,-0.31,-0.26,1.24,-2.7832000000000003,7.9846,-70.9958,175,75
2026-05-07 18:34:13.478,5,-0.27,-0.18,1.31,-5.013199999999999,7.634599999999999,-73.5858,175,75
2026-05-07 18:34:13.488,5,-0.27,-0.09,1.35,-8.6132,9.9246,-72.0358,175,75
2026-05-07 18:34:13.506,5,-0.3,-0.03,1.39,-12.513200000000001,13.4446,-67.2858,175,75
2026-05-07 18:34:13.517,5,-0.39,0.0,1.42,-20.1432,11.2446,-42.4258,175,75
2026-05-07 18:34:13.534,5,-0.45,0.02,1.47,-26.4832,9.974599999999999,-27.8458,175,75
2026-05-07 18:34:13.556,5,-0.52,0.03,1.53,-33.733200000000004,6.614599999999999,-17.4358,175,75
2026-05-07 18:34:13.564,5,-0.59,-0.0,1.6,-41.153200000000005,-3.3254,-10.7058,175,75
2026-05-07 18:34:13.578,5,-0.67,-0.14,1.57,-44.3532,-33.5654,-0.16579999999999995,175,75
2026-05-07 18:34:13.597,5,-0.72,-0.21,1.48,-33.053200000000004,-72.44539999999999,-4.5158000000000005,175,75
2026-05-07 18:34:13.607,5,-0.6,-0.07,1.45,-30.153200000000002,-117.0654,-20.2158,175,75
2026-05-07 18:34:13.624,5,-0.52,-0.01,1.32,-31.7732,-144.9754,-22.3458,175,75
2026-05-07 18:34:13.628,5,-0.38,0.01,1.17,-34.013200000000005,-168.4754,-20.7758,175,75
2026-05-07 18:34:13.645,5,-0.18,0.0,1.01,-34.9332,-182.5154,-10.8558,175,75
2026-05-07 18:34:13.657,5,0.26,-0.01,0.74,-31.5632,-179.3154,29.364199999999997,175,75
2026-05-07 18:34:13.676,5,0.42,-0.05,0.64,-29.5632,-167.4554,59.3942,175,75
2026-05-07 18:34:13.687,5,0.51,-0.13,0.56,-27.623199999999997,-153.8854,94.2742,175,75
2026-05-07 18:34:13.687,5,0.61,-0.24,0.51,-26.463199999999997,-144.8454,130.2342,175,75
2026-05-07 18:34:13.698,5,0.64,-0.36,0.49,-25.993199999999998,-137.8954,168.4042,175,75
2026-05-07 18:34:13.717,5,0.47,-0.56,0.46,-21.193199999999997,-140.18540000000002,182.0842,175,75
2026-05-07 18:34:13.755,5,0.55,-0.77,0.15,22.0668,-58.1954,56.5942,175,75
2026-05-07 18:34:13.798,5,-0.27,-0.06,-0.14,41.5768,33.7246,-142.0558,175,75
2026-05-07 18:34:13.814,5,-0.01,0.01,-0.2,24.2668,10.5046,-142.5758,175,75
2026-05-07 18:34:13.832,5,0.55,0.35,0.16,-3.5332000000000003,-15.455400000000001,-222.7858,175,75
2026-05-07 18:34:13.845,5,0.77,0.5,0.42,-15.9932,38.5646,-252.8258,175,75
2026-05-07 18:34:13.855,5,0.94,0.43,0.95,-14.1132,138.53459999999998,-252.8258,175,75
2026-05-07 18:34:13.862,5,1.6,0.41,1.46,-46.7432,247.6546,-252.8258,175,75
2026-05-07 18:34:13.868,5,2.0,1.31,2.0,-155.0632,247.6546,-183.8458,175,75
2026-05-07 18:34:13.885,5,2.0,0.15,2.0,-247.2232,247.6546,106.3242,175,75
2026-05-07 18:34:13.905,5,-1.52,-1.63,0.07,-27.193199999999997,247.6546,247.4442,175,75
2026-05-07 18:34:13.918,5,-2.0,-1.47,-0.09,69.0068,247.6546,223.7542,175,75
2026-05-07 18:34:13.951,5,-2.0,-0.95,1.0,220.07680000000002,108.2346,-252.8258,175,75
2026-05-07 18:34:13.953,5,-2.0,-0.77,2.0,200.1168,102.22460000000001,-252.8258,175,75
2026-05-07 18:34:13.966,5,-1.02,0.28,2.0,155.69680000000002,53.7046,-252.8258,175,75
2026-05-07 18:34:13.978,5,-1.36,0.34,2.0,150.0368,-122.0154,-156.3558,175,75
2026-05-07 18:34:13.990,5,-2.0,0.4,1.49,175.98680000000002,-152.0354,-157.8858,175,75
2026-05-07 18:34:13.990,5,-2.0,0.29,1.03,207.44680000000002,-209.8154,-174.0858,175,75
2026-05-07 18:34:14.000,5,-1.8,0.55,0.99,233.2568,-252.6154,-134.3158,175,75
2026-05-07 18:34:14.008,5,-1.29,0.88,1.0,232.98680000000002,-252.6154,-105.5158,175,75
2026-05-07 18:34:14.021,5,-0.91,1.05,0.93,198.0668,-252.6154,-113.4258,175,75
2026-05-07 18:34:14.040,5,-0.16,1.1,0.58,97.0668,-252.6154,-157.2858,175,75
2026-05-07 18:34:14.070,5,0.81,0.78,0.03,-15.033199999999999,-252.6154,-168.8458,175,75
2026-05-07 18:34:14.070,5,1.67,0.47,-0.65,-26.283199999999997,-252.6154,-80.6058,175,75
2026-05-07 18:34:14.085,5,2.0,0.59,-1.42,-5.263199999999999,-242.7954,187.8742,175,75
2026-05-07 18:34:14.090,5,1.56,0.54,-1.2,43.4368,-179.68540000000002,247.4442,175,75
2026-05-07 18:34:14.106,5,0.1,0.49,-1.27,51.4268,-176.74540000000002,247.4442,175,75
2026-05-07 18:34:14.109,5,-0.58,0.26,-1.2,56.4068,-206.1054,247.4442,175,75
2026-05-07 18:34:14.118,5,-0.65,0.07,-1.08,49.0768,-240.3454,158.1842,175,75
2026-05-07 18:34:14.153,5,0.68,-0.01,-0.57,7.2867999999999995,58.6146,6.594199999999999,175,75
2026-05-07 18:34:14.165,5,0.25,0.02,-0.1,-28.5232,167.6346,-15.8358,175,75
2026-05-07 18:34:14.181,5,0.43,0.03,0.14,-70.14320000000001,247.6546,-40.0858,175,75
2026-05-07 18:34:14.181,5,0.86,0.05,0.4,-105.03320000000001,247.6546,-69.0858,175,75
2026-05-07 18:34:14.189,5,1.67,0.35,0.84,-139.4432,247.6546,-91.5558,175,75
2026-05-07 18:34:14.205,5,1.25,0.12,0.64,-213.3132,247.6546,-166.5358,175,75
2026-05-07 18:34:14.222,5,1.36,2.0,2.0,-248.02319999999997,247.6546,247.4442,175,75
2026-05-07 18:34:14.232,5,-0.08,-0.05,1.29,-222.70319999999998,247.6546,212.0942,175,75
2026-05-07 18:34:14.238,5,-2.0,-1.04,0.11,-91.4932,247.6546,-19.2758,175,75
2026-05-07 18:34:14.263,5,-2.0,-1.46,-0.12,-40.9532,247.6546,-147.0958,175,75
2026-05-07 18:34:14.304,5,-2.0,-0.6,0.3,-40.9332,247.6546,-2.7858,175,75
2026-05-07 18:34:14.304,5,-2.0,-0.38,0.72,-76.78320000000001,247.6546,65.2642,175,75
2026-05-07 18:34:14.314,5,-2.0,0.13,1.98,-144.3532,169.6546,48.5842,175,75
2026-05-07 18:34:14.314,5,-2.0,0.0,2.0,-230.3532,3.6645999999999996,34.0142,175,75
2026-05-07 18:34:14.326,5,-2.0,-1.44,0.95,-136.48319999999998,-252.6154,129.6742,175,75
2026-05-07 18:34:14.338,5,-2.0,-1.2,0.68,-28.9332,-252.6154,124.88419999999999,175,75
2026-05-07 18:34:14.348,5,-1.3,-1.05,0.53,9.4168,-252.6154,120.8742,175,75
2026-05-07 18:34:14.348,5,-0.69,-0.92,0.39,44.6468,-252.6154,129.8542,175,75
2026-05-07 18:34:14.360,5,-0.38,-0.79,0.17,82.9268,-252.6154,141.8042,175,75
2026-05-07 18:34:14.369,5,-0.31,-0.67,0.02,115.6568,-252.6154,133.0242,175,75
2026-05-07 18:34:14.382,5,0.02,-0.57,-0.18,144.42680000000001,-252.6154,135.9742,175,75
2026-05-07 18:34:14.401,5,0.33,-0.46,-0.68,183.13680000000002,-252.6154,173.3642,175,75
2026-05-07 18:34:14.407,5,0.51,-0.14,-1.07,176.0868,-252.6154,228.8142,175,75
2026-05-07 18:34:14.436,5,2.0,-0.84,-2.0,161.20680000000002,-208.6154,47.7842,175,75
2026-05-07 18:34:14.467,5,-0.31,-0.17,-1.22,66.9568,-34.7554,-37.4358,175,75
2026-05-07 18:34:14.467,5,-0.73,-0.02,-0.72,10.1668,-75.43539999999999,-48.3558,175,75
2026-05-07 18:34:14.474,5,-0.7,0.08,-0.38,-40.3832,-95.1754,-74.0958,175,75
2026-05-07 18:34:14.495,5,-0.04,-0.09,-0.17,-84.8632,-7.8454,-152.3458,175,75
2026-05-07 18:34:14.506,5,0.18,-0.2,-0.18,-75.4432,70.33460000000001,-192.9658,175,75
2026-05-07 18:34:14.517,5,0.29,-0.21,-0.13,-59.443200000000004,140.50459999999998,-208.7358,175,75
2026-05-07 18:34:14.530,5,1.21,-0.21,-0.1,-35.7032,247.6546,-155.7058,175,75
2026-05-07 18:34:14.556,5,2.0,0.37,0.32,-18.3832,247.6546,101.3642,175,75
2026-05-07 18:34:14.556,5,1.25,1.4,1.52,-6.6732,247.6546,166.7842,175,75
2026-05-07 18:34:14.569,5,1.38,-0.26,2.0,175.48680000000002,130.22459999999998,143.2742,175,75
2026-05-07 18:34:14.588,5,0.88,0.4,2.0,179.82680000000002,223.25459999999998,-8.1058,175,75
2026-05-07 18:34:14.591,5,0.68,0.47,2.0,91.9268,247.6546,-97.2258,175,75
2026-05-07 18:34:14.622,5,-0.67,-0.32,1.27,-55.473200000000006,247.6546,-117.9858,175,75
2026-05-07 18:34:14.632,5,-0.85,0.03,1.63,-93.78320000000001,247.6546,-77.3058,175,75
2026-05-07 18:34:14.643,5,-1.15,-0.17,1.93,-165.95319999999998,225.8746,51.9642,175,75
2026-05-07 18:34:14.676,5,-1.58,-1.22,2.0,-36.7932,64.7646,76.7542,175,75
2026-05-07 18:34:14.676,5,-1.9,-1.19,1.95,20.3168,-0.9254,60.5742,175,75
2026-05-07 18:34:14.687,5,-2.0,-0.94,1.86,55.556799999999996,-63.9754,31.3842,175,75
2026-05-07 18:34:14.697,5,-1.77,-0.52,2.0,66.7568,-133.74540000000002,-13.395800000000001,175,75
2026-05-07 18:34:14.714,5,-1.33,-0.21,2.0,62.2068,-196.80540000000002,-37.4558,175,75
2026-05-07 18:34:14.727,5,-0.33,-0.13,1.46,56.2268,-235.9754,1.1042,175,75
2026-05-07 18:34:14.740,5,-0.03,-0.18,1.34,58.3168,-213.7954,45.8842,175,75
2026-05-07 18:34:14.752,5,0.14,-0.2,1.34,56.9968,-184.0054,86.3642,175,75
2026-05-07 18:34:14.757,5,0.21,-0.27,1.38,47.4268,-147.8554,108.3042,175,75
2026-05-07 18:34:14.780,5,0.2,-0.25,1.47,33.4968,-115.9754,113.88419999999999,175,75
2026-05-07 18:34:14.791,5,0.32,-0.71,1.35,41.7868,-26.4254,63.6542,175,75
2026-05-07 18:34:14.801,5,0.21,-0.72,1.26,62.806799999999996,36.4946,18.8542,175,75
2026-05-07 18:34:14.814,5,-0.04,-0.53,1.23,77.2568,103.47460000000001,-44.8358,175,75
2026-05-07 18:34:14.826,5,-0.25,-0.32,1.25,76.5868,151.4546,-115.6058,175,75
2026-05-07 18:34:14.837,5,-0.35,-0.14,1.35,65.99680000000001,174.31459999999998,-180.8158,175,75
2026-05-07 18:34:14.847,5,-0.34,-0.02,1.47,51.9368,151.8246,-208.7558,175,75
2026-05-07 18:34:14.848,5,-0.12,0.18,1.56,47.7968,72.3846,-179.6558,175,75
2026-05-07 18:34:14.858,5,0.15,0.36,1.47,56.1468,-16.0454,-107.8258,175,75
2026-05-07 18:34:14.875,5,0.16,0.27,1.14,72.07679999999999,-73.8654,-56.6058,175,75
2026-05-07 18:34:14.886,5,0.23,0.38,0.93,77.3468,-116.7254,-29.5258,175,75
2026-05-07 18:34:14.886,5,0.29,0.45,0.73,68.9468,-161.8754,-17.1858,175,75
2026-05-07 18:34:14.905,5,0.4,0.56,0.56,54.0368,-206.8154,-15.6658,175,75
2026-05-07 18:34:14.916,5,0.59,0.52,0.39,35.7068,-233.0954,-20.7058,175,75
2026-05-07 18:34:14.932,5,0.82,0.52,0.01,8.3168,-195.58540000000002,-56.2358,175,75
2026-05-07 18:34:14.947,5,0.82,0.44,-0.35,-10.183200000000001,-94.6554,-55.2358,175,75
2026-05-07 18:34:14.961,5,0.43,0.37,-0.44,-23.1332,-70.2654,-44.7558,175,75
2026-05-07 18:34:14.969,5,0.11,-0.31,0.34,-7.763200000000001,-70.8154,-46.6758,175,75
2026-05-07 18:34:14.977,5,-0.09,0.1,-0.24,-14.0132,-80.4754,-50.6658,175,75
2026-05-07 18:34:14.987,5,0.06,0.05,-0.04,-16.493199999999998,-69.8454,-46.8658,175,75
2026-05-07 18:34:15.017,5,0.21,0.14,0.29,-32.0032,27.0846,-29.0658,175,75
2026-05-07 18:34:15.017,5,0.32,0.12,0.3,-48.0632,93.4646,-25.1458,175,75
2026-05-07 18:34:15.028,5,0.32,0.16,0.33,-61.7532,168.4646,-11.155800000000001,175,75
2026-05-07 18:34:15.040,5,0.21,0.22,0.28,-72.5432,236.6846,-13.9658,175,75
2026-05-07 18:34:15.054,5,0.12,0.28,0.12,-73.9032,247.6546,-14.7858,175,75
2026-05-07 18:34:15.066,5,0.05,0.26,0.2,-54.903200000000005,247.6546,-8.4658,175,75
2026-05-07 18:34:15.076,5,0.24,0.58,0.56,-32.513200000000005,226.2046,67.2542,175,75
2026-05-07 18:34:15.086,5,0.1,0.66,0.91,-17.0632,114.50460000000001,189.3642,175,75
2026-05-07 18:34:15.099,5,-0.32,0.56,0.73,-4.3232,60.5546,214.5442,175,75
2026-05-07 18:34:15.099,5,-0.53,0.17,0.36,7.9968,35.2846,206.8442,175,75
2026-05-07 18:34:15.110,5,-0.6,-0.02,0.17,23.4268,-0.5554000000000001,220.5142,175,75
2026-05-07 18:34:15.123,5,-0.7,-0.14,0.07,39.0368,-46.9354,235.7142,175,75
2026-05-07 18:34:15.128,5,-0.67,-0.18,-0.02,48.6768,-96.7054,247.4442,175,75
2026-05-07 18:34:15.159,5,-0.52,-0.1,0.1,62.0668,-170.21540000000002,247.4442,175,75
2026-05-07 18:34:15.159,5,-0.37,-0.09,0.07,63.9568,-193.6054,247.4442,175,75
2026-05-07 18:34:15.177,5,-0.06,-0.08,0.04,60.8668,-227.6154,240.2042,175,75
2026-05-07 18:34:15.195,5,0.18,0.01,0.03,50.7468,-235.93540000000002,223.2142,175,75
2026-05-07 18:34:15.206,5,0.96,-0.1,0.15,43.6568,-202.3954,247.4442,175,75
2026-05-07 18:34:15.206,5,1.85,-0.21,0.15,36.776799999999994,-114.8754,247.4442,175,75
2026-05-07 18:34:15.238,5,1.53,-1.03,2.0,60.266799999999996,189.3746,-66.5058,175,75
2026-05-07 18:34:15.245,5,0.86,0.04,2.0,8.1368,140.4646,-252.8258,175,75
2026-05-07 18:34:15.262,5,1.74,0.59,2.0,-87.8832,247.6546,-252.8258,175,75
2026-05-07 18:34:15.296,5,0.6,-0.58,1.21,-76.0832,247.6546,25.6742,175,75
2026-05-07 18:34:15.296,5,-0.88,-0.64,0.82,-23.6832,247.6546,78.1642,175,75
2026-05-07 18:34:15.310,5,-1.6,-0.46,0.98,-1.3432,247.6546,39.2942,175,75
2026-05-07 18:34:15.335,5,-2.0,-0.2,1.79,19.5168,247.6546,-59.8258,175,75
2026-05-07 18:34:15.337,5,-2.0,0.05,1.98,12.3868,241.3746,-89.6258,175,75
2026-05-07 18:34:15.357,5,-2.0,0.25,2.0,-2.8632000000000004,146.1846,-120.6758,175,75
2026-05-07 18:34:15.357,5,-2.0,0.26,2.0,-20.1332,70.9646,-128.92579999999998,175,75
2026-05-07 18:34:15.391,5,-2.0,-0.25,1.63,-3.7432000000000003,-50.6554,68.1842,175,75
2026-05-07 18:34:15.406,5,-2.0,-0.21,1.65,10.0568,-98.6554,141.9742,175,75
2026-05-07 18:34:15.418,5,-2.0,-0.33,1.46,3.7668,-249.46540000000002,146.6242,175,75
2026-05-07 18:34:15.435,5,-1.87,-0.42,1.37,8.0668,-252.6154,110.1642,175,75
2026-05-07 18:34:15.447,5,-1.37,-0.46,1.26,22.006800000000002,-252.6154,71.5642,175,75
2026-05-07 18:34:15.447,5,-0.85,-0.41,1.19,44.4568,-252.6154,51.3442,175,75
2026-05-07 18:34:15.459,5,-0.49,-0.29,1.14,68.2868,-252.6154,47.5042,175,75
2026-05-07 18:34:15.469,5,-0.27,-0.15,1.1,88.6768,-252.6154,51.6842,175,75
2026-05-07 18:34:15.496,5,0.01,0.09,0.93,93.1268,-252.6154,56.3742,175,75
2026-05-07 18:34:15.518,5,0.48,0.19,0.56,11.4268,-252.6154,-8.0558,175,75
2026-05-07 18:34:15.536,5,0.58,0.16,0.41,-6.7232,-188.77540000000002,-12.6958,175,75
2026-05-07 18:34:15.536,5,0.44,0.13,0.23,-17.1532,-133.7254,-21.4558,175,75
2026-05-07 18:34:15.555,5,0.33,0.09,0.01,-16.1332,-107.10539999999999,-20.5558,175,75
2026-05-07 18:34:15.565,5,0.29,0.04,-0.17,-9.853200000000001,-105.9254,-14.1158,175,75
2026-05-07 18:34:15.566,5,0.35,0.09,-0.33,2.8568,-101.77539999999999,40.9642,175,75
2026-05-07 18:34:15.584,5,0.07,-0.11,-0.34,0.4868000000000001,-119.27539999999999,61.554199999999994,175,75
2026-05-07 18:34:15.595,5,0.11,-0.15,-0.34,17.7468,-138.2054,88.0042,175,75
2026-05-07 18:34:15.598,5,0.01,-0.14,-0.28,22.3468,-156.2054,113.6642,175,75
2026-05-07 18:34:15.616,5,-0.05,-0.11,-0.23,19.5868,-167.6654,134.6842,175,75
2026-05-07 18:34:15.616,5,-0.04,-0.11,-0.06,9.9868,-156.6054,137.7742,175,75
2026-05-07 18:34:15.636,5,0.03,-0.09,0.09,-5.4632000000000005,-108.2054,120.6842,175,75
2026-05-07 18:34:15.669,5,-0.09,0.11,0.18,-62.25320000000001,209.7946,-133.0358,175,75
2026-05-07 18:34:15.681,5,-0.06,0.21,0.18,-70.3332,247.6546,-192.3158,175,75
2026-05-07 18:34:15.700,5,0.11,0.38,0.22,-86.67320000000001,247.6546,-252.8258,175,75
2026-05-07 18:34:15.709,5,0.23,0.37,0.08,-79.6032,247.6546,-252.8258,175,75
2026-05-07 18:34:15.723,5,1.11,0.77,0.08,-46.513200000000005,198.7046,-49.1258,175,75
2026-05-07 18:34:15.733,5,-0.21,0.69,0.32,-13.2432,75.67460000000001,83.4442,175,75
2026-05-07 18:34:15.748,5,-0.69,0.24,0.18,-5.0832,-45.7354,13.554199999999998,175,75
2026-05-07 18:34:15.763,5,-0.55,0.04,0.06,6.7568,-87.9054,38.8142,175,75
2026-05-07 18:34:15.777,5,0.01,-0.08,0.05,45.9068,-130.4554,142.2542,175,75
2026-05-07 18:34:15.817,5,0.26,0.08,0.6,27.256800000000002,65.9946,247.4442,175,75
2026-05-07 18:34:15.837,5,1.26,0.46,0.77,-30.8432,247.6546,247.4442,175,75
2026-05-07 18:34:15.848,5,1.66,0.45,1.21,-88.7332,247.6546,247.4442,175,75
2026-05-07 18:34:15.860,5,1.49,0.86,1.5,-202.2532,247.6546,247.4442,175,75
2026-05-07 18:34:15.877,5,-2.0,0.82,2.0,-248.02319999999997,247.6546,247.4442,175,75
2026-05-07 18:34:15.877,5,-2.0,-1.62,1.32,-238.9932,247.6546,3.4842,175,75
2026-05-07 18:34:15.900,5,-2.0,-1.85,-0.9,-186.58319999999998,247.6546,-201.7958,175,75
2026-05-07 18:34:15.905,5,-2.0,-2.0,-1.18,-91.5132,247.6546,-252.8258,175,75
2026-05-07 18:34:15.911,5,-2.0,-2.0,-0.52,27.036800000000003,-44.4554,-185.5558,175,75
2026-05-07 18:34:15.941,5,-2.0,-2.0,2.0,87.1768,-252.6154,108.1942,175,75
2026-05-07 18:34:15.953,5,-2.0,-1.84,0.13,134.66680000000002,-252.6154,128.6842,175,75
2026-05-07 18:34:15.953,5,-2.0,-1.44,0.05,185.1168,-252.6154,120.13419999999999,175,75
2026-05-07 18:34:15.967,5,-2.0,-0.88,0.37,198.4968,-252.6154,101.2342,175,75
2026-05-07 18:34:15.978,5,-1.51,-0.38,0.3,189.9668,-252.6154,80.9142,175,75
2026-05-07 18:34:15.978,5,-1.51,0.37,0.05,155.2868,-252.6154,-10.8558,175,75
2026-05-07 18:34:15.991,5,-1.14,0.64,-0.88,111.0468,-252.6154,-148.5758,175,75
2026-05-07 18:34:16.006,5,-0.35,1.3,-1.45,81.1368,-252.6154,-219.2858,175,75
2026-05-07 18:34:16.006,5,2.0,1.51,-2.0,39.7868,-252.6154,-237.4258,175,75
2026-05-07 18:34:16.017,5,2.0,2.0,-2.0,175.32680000000002,-38.815400000000004,247.4442,175,75
2026-05-07 18:34:16.028,5,-1.33,1.26,-2.0,155.0068,73.1546,247.4442,175,75
2026-05-07 18:34:16.053,5,-2.0,0.3,-1.01,110.8668,-201.27540000000002,54.2942,175,75
2026-05-07 18:34:16.085,5,1.62,0.15,0.54,-32.0432,-92.74539999999999,-152.1558,175,75
2026-05-07 18:34:16.085,5,2.0,0.4,1.13,-92.2332,181.56459999999998,-92.61580000000001,175,75
2026-05-07 18:34:16.100,5,2.0,0.34,0.92,-165.4732,247.6546,-23.3058,175,75
2026-05-07 18:34:16.111,5,1.55,0.34,0.43,-219.5632,247.6546,-33.7758,175,75
2026-05-07 18:34:16.135,5,2.0,2.0,2.0,-248.02319999999997,247.6546,45.724199999999996,175,75
2026-05-07 18:34:16.146,5,0.58,0.07,2.0,-248.02319999999997,247.6546,247.4442,175,75
2026-05-07 18:34:16.146,5,-2.0,-0.94,-0.08,-148.4132,247.6546,247.4442,175,75
2026-05-07 18:34:16.181,5,-2.0,-0.91,-0.44,71.4068,234.7446,-34.9758,175,75
2026-05-07 18:34:16.191,5,-2.0,-0.69,-0.05,102.2568,60.3946,-112.3958,175,75
2026-05-07 18:34:16.202,5,-2.0,-0.38,0.64,94.07679999999999,-23.4254,-106.0858,175,75
2026-05-07 18:34:16.214,5,-0.78,0.77,2.0,-2.1232,-12.4954,32.7442,175,75
2026-05-07 18:34:16.227,5,-2.0,-0.78,1.95,-248.02319999999997,-118.77539999999999,247.4442,175,75
2026-05-07 18:34:16.238,5,-2.0,-0.68,1.24,-220.2532,-186.6754,247.4442,175,75
2026-05-07 18:34:16.256,5,-2.0,-1.19,1.0,-197.6832,-252.6154,247.4442,175,75
2026-05-07 18:34:16.262,5,-1.88,-1.44,0.7,-146.14319999999998,-252.6154,247.4442,175,75
2026-05-07 18:34:16.269,5,-1.56,-1.4,0.57,-88.56320000000001,-252.6154,247.4442,175,75
2026-05-07 18:34:16.286,5,-1.06,-1.35,0.39,-33.6032,-252.6154,247.4442,175,75
2026-05-07 18:34:16.311,5,0.03,-0.81,-0.27,55.166799999999995,-252.6154,158.0542,175,75
2026-05-07 18:34:16.335,5,0.72,-0.84,-1.04,91.0868,-252.6154,239.5842,175,75
2026-05-07 18:34:16.346,5,2.0,-1.75,-2.0,121.1468,42.5546,-161.6658,175,75
2026-05-07 18:34:16.376,5,-0.99,-0.24,-1.06,147.13680000000002,-36.6554,-132.9258,175,75
2026-05-07 18:34:16.387,5,-1.1,0.53,-0.32,57.7168,-211.9154,-157.0258,175,75
2026-05-07 18:34:16.416,5,1.11,0.46,-0.54,-29.7532,-123.4754,-170.7258,175,75
2026-05-07 18:34:16.416,5,2.0,0.67,-0.43,-50.3932,65.0146,-83.7858,175,75
2026-05-07 18:34:16.441,5,0.83,0.35,0.08,-112.1232,247.6546,26.394199999999998,175,75
2026-05-07 18:34:16.476,5,1.19,2.0,2.0,-248.02319999999997,247.6546,247.4442,175,75
2026-05-07 18:34:16.486,5,1.38,-0.79,2.0,-248.02319999999997,-17.3054,247.4442,175,75
2026-05-07 18:34:16.499,5,0.98,-1.52,0.56,-172.1532,247.6546,247.4442,175,75
2026-05-07 18:34:16.509,5,-2.0,-1.86,-0.12,-33.693200000000004,247.6546,247.4442,175,75
2026-05-07 18:34:16.520,5,-2.0,-2.0,0.46,47.2268,247.6546,87.5842,175,75
2026-05-07 18:34:16.532,5,-2.0,-2.0,-0.42,162.66680000000002,247.6546,-41.2858,175,75
2026-05-07 18:34:16.547,5,-2.0,-1.26,0.44,252.2468,237.0746,-198.3358,175,75
2026-05-07 18:34:16.561,5,-2.0,-0.43,2.0,252.2468,88.22460000000001,-233.7758,175,75
2026-05-07 18:34:16.571,5,-2.0,1.36,2.0,189.1868,-114.88539999999999,-148.9958,175,75
2026-05-07 18:34:16.579,5,-2.0,0.61,1.88,127.2668,-252.6154,-92.4058,175,75
2026-05-07 18:34:16.599,5,-1.88,0.13,0.89,126.5968,-252.6154,-45.4558,175,75
2026-05-07 18:34:16.609,5,-1.11,0.12,0.81,152.0268,-252.6154,53.5442,175,75
2026-05-07 18:34:16.618,5,-0.68,0.15,0.73,168.94680000000002,-252.6154,124.0342,175,75
2026-05-07 18:34:16.627,5,-0.31,0.24,0.69,160.3068,-252.6154,155.6242,175,75
2026-05-07 18:34:16.640,5,-0.09,0.34,0.56,128.6168,-252.6154,172.7542,175,75
2026-05-07 18:34:16.651,5,0.21,0.31,0.23,92.7668,-252.6154,183.6642,175,75
2026-05-07 18:34:16.666,5,0.22,0.19,-0.21,60.5868,-252.6154,203.2142,175,75
2026-05-07 18:34:16.666,5,2.0,0.06,-0.53,49.196799999999996,-252.6154,247.4442,175,75
2026-05-07 18:34:16.682,5,2.0,0.17,-1.46,42.776799999999994,-252.6154,247.4442,175,75
2026-05-07 18:34:16.695,5,2.0,-0.19,-2.0,15.4568,123.0246,226.4542,175,75
2026-05-07 18:34:16.701,5,0.37,0.23,-1.98,-18.3132,223.2346,122.0442,175,75
2026-05-07 18:34:16.714,5,-0.79,0.06,-1.25,-61.2532,120.3446,74.9242,175,75
2026-05-07 18:34:16.738,5,-1.18,0.08,-0.5,-69.9532,-227.1754,-35.4958,175,75
2026-05-07 18:34:16.753,5,-0.82,0.15,-0.28,-65.3732,-235.1654,-113.3758,175,75
2026-05-07 18:34:16.758,5,-0.4,0.23,-0.22,-58.873200000000004,-186.08540000000002,-181.4558,175,75
2026-05-07 18:34:16.772,5,2.0,0.38,-0.95,-30.0532,5.444599999999999,-78.7058,175,75
2026-05-07 18:34:16.784,5,0.41,0.2,-0.33,-2.2532,171.31459999999998,41.1342,175,75
2026-05-07 18:34:16.795,5,0.65,0.14,-0.17,-2.6332,244.2746,72.0942,175,75
2026-05-07 18:34:16.806,5,0.89,-0.4,0.09,4.1168,247.6546,149.7942,175,75
2026-05-07 18:34:16.816,5,1.27,0.11,0.04,2.5768,247.6546,225.8342,175,75
2026-05-07 18:34:16.828,5,1.55,0.28,0.55,-20.7032,247.6546,247.4442,175,75
2026-05-07 18:34:16.828,5,1.65,2.0,1.66,-103.7632,247.6546,247.4442,175,75
2026-05-07 18:34:16.850,5,-1.22,0.46,2.0,-207.0332,247.6546,247.4442,175,75
2026-05-07 18:34:16.861,5,-1.76,-0.93,0.84,-107.7232,247.6546,71.8042,175,75
2026-05-07 18:34:16.883,5,-2.0,-1.22,-0.64,-62.973200000000006,247.6546,-68.9658,175,75
2026-05-07 18:34:16.908,5,-2.0,-0.71,2.0,-179.9632,-108.0054,247.4442,175,75
2026-05-07 18:34:16.933,5,-2.0,-1.6,1.23,-150.7132,-252.6154,29.1842,175,75
2026-05-07 18:34:16.956,5,-2.0,-1.24,0.6,-30.5832,-252.6154,-60.9558,175,75
2026-05-07 18:34:16.956,5,-1.72,-0.85,0.74,18.1968,-252.6154,-84.8958,175,75
2026-05-07 18:34:16.986,5,-0.67,-0.22,0.72,68.5268,-252.6154,-90.4458,175,75
2026-05-07 18:34:16.997,5,-0.23,0.03,0.62,81.7468,-252.6154,-44.5358,175,75
2026-05-07 18:34:17.011,5,-0.14,0.12,0.57,76.7768,-252.6154,-7.5558,175,75
2026-05-07 18:34:17.022,5,0.05,0.2,0.55,56.1468,-252.6154,29.714199999999998,175,75
2026-05-07 18:34:17.050,5,0.22,-0.0,0.3,29.646800000000002,-252.6154,135.5242,175,75
2026-05-07 18:34:17.050,5,0.24,-0.04,0.2,33.1268,-220.8954,182.4842,175,75
2026-05-07 18:34:17.068,5,0.21,-0.06,0.0,54.266799999999996,-155.8454,247.4442,175,75
2026-05-07 18:34:17.082,5,0.19,-0.21,-0.19,76.35679999999999,-152.0054,247.4442,175,75
2026-05-07 18:34:17.104,5,0.46,-0.36,-0.59,147.38680000000002,-180.5654,247.4442,175,75
2026-05-07 18:34:17.116,5,1.25,-0.59,-0.64,188.98680000000002,-188.1354,247.4442,175,75
2026-05-07 18:34:17.127,5,1.88,-0.0,-1.0,232.6468,-161.9254,247.4442,175,75
2026-05-07 18:34:17.160,5,-1.01,-0.03,-0.36,116.8968,80.6246,56.1642,175,75
2026-05-07 18:34:17.187,5,-0.29,0.13,0.06,16.4568,54.1246,-97.1558,175,75
2026-05-07 18:34:17.187,5,0.34,0.07,0.21,-27.2732,76.05460000000001,-89.8958,175,75
2026-05-07 18:34:17.197,5,0.75,0.17,0.41,-64.64320000000001,133.28459999999998,-70.2658,175,75
2026-05-07 18:34:17.221,5,1.61,0.48,2.0,-97.0532,247.6546,-158.0358,175,75
2026-05-07 18:34:17.235,5,2.0,1.04,2.0,-135.11319999999998,192.19459999999998,-2.0158,175,75
2026-05-07 18:34:17.246,5,2.0,0.61,2.0,-237.6332,247.6546,103.8642,175,75
2026-05-07 18:34:17.256,5,2.0,-0.28,2.0,-248.02319999999997,247.6546,214.2042,175,75
2026-05-07 18:34:17.256,5,0.9,-1.7,2.0,-248.02319999999997,247.6546,247.4442,175,75
2026-05-07 18:34:17.279,5,-2.0,-2.0,-0.46,-180.9032,247.6546,247.4442,175,75
2026-05-07 18:34:17.296,5,-2.0,-2.0,-0.69,-63.00320000000001,247.6546,191.1642,175,75
2026-05-07 18:34:17.296,5,-2.0,-2.0,0.46,47.556799999999996,173.5546,33.6742,175,75
2026-05-07 18:34:17.307,5,-2.0,-2.0,1.74,160.45680000000002,-70.91539999999999,-108.9258,175,75
2026-05-07 18:34:17.319,5,-2.0,-2.0,1.62,252.2468,-148.2254,-237.3158,175,75
2026-05-07 18:34:17.330,5,-2.0,-1.7,1.31,252.2468,-131.4854,-252.8258,175,75
2026-05-07 18:34:17.341,5,-2.0,-0.84,1.4,252.2468,-136.43540000000002,-252.8258,175,75
2026-05-07 18:34:17.366,5,-1.09,1.26,2.0,252.2468,-252.6154,-216.3758,175,75
2026-05-07 18:34:17.369,5,-1.31,1.0,1.17,252.2468,-252.6154,-252.8258,175,75
2026-05-07 18:34:17.382,5,-0.91,1.65,0.76,252.2468,-252.6154,-252.8258,175,75
2026-05-07 18:34:17.396,5,-0.43,1.84,0.35,252.2468,-252.6154,-252.8258,175,75
2026-05-07 18:34:17.396,5,-0.55,1.88,0.22,252.2468,-252.6154,-252.8258,175,75
2026-05-07 18:34:17.408,5,0.19,1.71,-0.23,252.2468,-252.6154,-252.8258,175,75
2026-05-07 18:34:17.422,5,1.24,2.0,-0.22,252.2468,-252.6154,-252.8258,175,75
2026-05-07 18:34:17.436,5,2.0,2.0,-0.9,252.2468,-252.6154,165.5242,175,75
2026-05-07 18:34:17.456,5,-0.5,1.76,-0.54,149.8068,6.3546,247.4442,175,75
2026-05-07 18:34:17.465,5,-1.04,0.66,-0.18,47.7468,-84.2354,247.4442,175,75
2026-05-07 18:34:17.488,5,-0.57,0.04,-0.12,-33.473200000000006,-137.7554,247.4442,175,75
2026-05-07 18:34:17.500,5,-0.25,-0.27,-0.07,-52.6032,-130.1154,247.4442,175,75
2026-05-07 18:34:17.518,5,-0.08,-0.96,-0.76,0.3568,2.9545999999999997,247.4442,175,75
2026-05-07 18:34:17.550,5,-1.0,-0.77,-0.55,109.2968,161.8346,247.4442,175,75
2026-05-07 18:34:17.577,5,-0.95,-0.25,0.06,101.60679999999999,247.6546,-12.9558,175,75
2026-05-07 18:34:17.619,5,-0.42,0.09,0.24,21.6168,247.6546,-219.7058,175,75
2026-05-07 18:34:17.642,5,-0.16,0.19,0.26,-25.5032,247.6546,-252.8258,175,75
2026-05-07 18:34:17.642,5,0.02,0.32,0.24,-70.5732,247.6546,-252.8258,175,75
2026-05-07 18:34:17.667,5,0.42,0.48,0.28,-138.95319999999998,247.6546,-252.8258,175,75
2026-05-07 18:34:17.667,5,1.66,1.34,0.96,-118.06320000000001,247.6546,-188.2658,175,75
2026-05-07 18:34:17.688,5,0.17,0.57,0.81,-13.763200000000001,5.9046,247.4442,175,75
2026-05-07 18:34:17.716,5,-0.34,0.12,0.18,11.0068,24.7246,207.1642,175,75
2026-05-07 18:34:17.726,5,-0.56,-0.01,0.06,27.966800000000003,12.4946,166.6742,175,75
2026-05-07 18:34:17.737,5,-0.61,-0.27,-0.11,37.0668,-54.5854,124.3142,175,75
2026-05-07 18:34:17.754,5,-0.48,-0.31,-0.13,41.7468,-96.58539999999999,136.4942,175,75
2026-05-07 18:34:17.754,5,-0.32,-0.2,-0.07,50.7568,-127.8654,132.8642,175,75
2026-05-07 18:34:17.772,5,-0.24,0.14,-0.06,49.0668,-139.0754,107.0042,175,75
2026-05-07 18:34:17.772,5,0.07,0.15,0.08,36.5468,-128.1754,64.0742,175,75
2026-05-07 18:34:17.795,5,0.51,0.09,0.16,23.5868,-102.1154,70.2142,175,75
2026-05-07 18:34:17.795,5,1.17,0.16,0.42,-0.2532000000000001,-24.0254,73.3642,175,75
2026-05-07 18:34:17.825,5,0.19,0.04,2.0,-78.4632,133.5446,65.3942,175,75
2026-05-07 18:34:17.839,5,1.41,0.37,2.0,-136.98319999999998,247.6546,-55.775800000000004,175,75
2026-05-07 18:34:17.839,5,1.33,-0.04,1.59,-193.98319999999998,247.6546,-136.9658,175,75
2026-05-07 18:34:17.850,5,0.95,-1.15,0.95,-214.3832,247.6546,-156.6358,175,75
2026-05-07 18:34:17.850,5,-0.45,-1.14,-0.06,-208.58319999999998,247.6546,-150.8558,175,75
2026-05-07 18:34:17.869,5,-2.0,-1.68,-0.82,-78.1132,247.6546,-90.61580000000001,175,75
2026-05-07 18:34:17.894,5,-2.0,-1.63,-0.66,25.1868,247.6546,-132.3158,175,75
2026-05-07 18:34:17.907,5,-2.0,-1.29,0.07,104.8468,247.6546,-192.5258,175,75
2026-05-07 18:34:17.918,5,-2.0,1.79,2.0,-47.9332,124.56460000000001,-252.8258,175,75
2026-05-07 18:34:17.918,5,-2.0,-0.15,1.9,-58.7832,-42.9854,-200.7358,175,75
2026-05-07 18:34:17.929,5,-2.0,-0.69,0.63,26.896800000000002,-251.74540000000002,-143.9558,175,75
2026-05-07 18:34:17.942,5,-2.0,-0.16,1.31,121.5868,-252.6154,101.9542,175,75
2026-05-07 18:34:17.952,5,-2.0,-0.32,0.9,160.29680000000002,-252.6154,203.6842,175,75
2026-05-07 18:34:17.965,5,-1.13,-0.24,0.81,166.8968,-252.6154,247.4442,175,75
2026-05-07 18:34:17.976,5,-0.71,-0.19,0.91,135.5968,-252.6154,247.4442,175,75
2026-05-07 18:34:17.976,5,-0.37,-0.12,0.93,97.0968,-252.6154,247.4442,175,75
2026-05-07 18:34:17.988,5,-0.2,-0.07,0.87,61.446799999999996,-252.6154,247.4442,175,75
2026-05-07 18:34:18.002,5,-0.16,-0.06,0.86,31.1068,-252.6154,247.4442,175,75
2026-05-07 18:34:18.016,5,-0.32,-0.1,0.63,10.0668,-252.6154,245.6242,175,75
2026-05-07 18:34:18.016,5,-0.47,-0.16,0.3,-17.2932,-252.6154,176.3442,175,75
2026-05-07 18:34:18.028,5,0.41,-0.22,0.02,-35.513200000000005,-252.6154,160.4542,175,75
2026-05-07 18:34:18.038,5,0.53,-0.27,-0.15,-46.373200000000004,-252.6154,156.8042,175,75
2026-05-07 18:34:18.055,5,0.66,-0.36,-0.31,-43.153200000000005,-252.6154,164.2642,175,75
2026-05-07 18:34:18.066,5,1.07,-0.44,-0.68,-30.3332,-252.6154,156.0242,175,75
2026-05-07 18:34:18.066,5,2.0,-0.56,-1.42,-11.343200000000001,-243.43540000000002,98.3342,175,75
2026-05-07 18:34:18.077,5,0.97,-0.14,-1.54,-14.0632,-91.16539999999999,22.464199999999998,175,75
2026-05-07 18:34:18.087,5,-0.23,-0.43,-0.55,15.4368,-63.8954,-30.7158,175,75
2026-05-07 18:34:18.100,5,-0.62,-0.18,-0.6,10.806799999999999,-90.8754,-60.2858,175,75
2026-05-07 18:34:18.113,5,-0.55,-0.13,-0.24,-0.6332,-103.80539999999999,-87.5858,175,75
2026-05-07 18:34:18.126,5,-0.48,-0.08,0.02,-18.623199999999997,-73.58539999999999,-108.7958,175,75
2026-05-07 18:34:18.136,5,-0.59,-0.06,0.13,-40.8632,-23.9354,-140.7058,175,75
2026-05-07 18:34:18.136,5,-0.46,-0.15,0.12,-60.973200000000006,20.674599999999998,-187.5758,175,75
2026-05-07 18:34:18.147,5,-0.45,-0.13,0.07,-70.6132,63.5546,-206.0158,175,75
2026-05-07 18:34:18.159,5,-0.43,-0.05,-0.01,-74.31320000000001,91.3446,-218.2258,175,75
2026-05-07 18:34:18.170,5,-0.19,0.15,0.02,-79.9032,117.1246,-234.3858,175,75
2026-05-07 18:34:18.178,5,0.25,0.34,0.13,-93.89320000000001,162.4346,-243.6858,175,75
2026-05-07 18:34:18.186,5,0.67,0.62,0.18,-117.8232,226.8646,-228.4458,175,75
2026-05-07 18:34:18.201,5,0.91,0.7,0.16,-144.2432,247.6546,-198.0458,175,75
2026-05-07 18:34:18.211,5,0.85,0.66,0.03,-160.32319999999999,247.6546,-158.8858,175,75
2026-05-07 18:34:18.223,5,1.04,0.59,-0.16,-149.4632,247.6546,-54.6458,175,75
2026-05-07 18:34:18.235,5,0.42,0.75,0.04,-102.2332,247.6546,74.9542,175,75
2026-05-07 18:34:18.247,5,-0.16,0.74,0.38,-65.5732,166.8946,136.9442,175,75
2026-05-07 18:34:18.250,5,-0.35,0.62,0.52,-48.9332,115.08460000000001,144.0542,175,75
2026-05-07 18:34:18.261,5,-0.48,0.39,0.46,-42.373200000000004,86.0246,142.3542,175,75
2026-05-07 18:34:18.272,5,-0.55,0.15,0.34,-38.5032,58.3546,152.3342,175,75
2026-05-07 18:34:18.285,5,-0.57,0.02,0.22,-33.723200000000006,29.424599999999998,177.3342,175,75
2026-05-07 18:34:18.292,5,-0.55,-0.13,0.14,-23.693199999999997,9.304599999999999,213.1142,175,75
2026-05-07 18:34:18.303,5,-0.6,-0.29,0.07,-7.013200000000001,2.7445999999999997,247.4442,175,75
2026-05-07 18:34:18.315,5,-0.54,-0.37,0.09,13.3768,9.1646,247.4442,175,75
2026-05-07 18:34:18.315,5,-0.4,-0.08,0.33,29.5168,40.7646,247.4442,175,75
2026-05-07 18:34:18.327,5,-0.12,-0.42,0.43,44.2468,112.1846,247.4442,175,75
2026-05-07 18:34:18.339,5,0.12,-0.31,0.64,41.446799999999996,226.8246,247.4442,175,75
2026-05-07 18:34:18.351,5,0.25,-0.19,0.99,22.8568,247.6546,247.4442,175,75
2026-05-07 18:34:18.362,5,-0.19,0.05,1.21,-12.4932,247.6546,247.4442,175,75
2026-05-07 18:34:18.367,5,-2.0,-1.84,2.0,-24.5432,247.6546,-12.3658,175,75
2026-05-07 18:34:18.381,5,-1.92,0.11,2.0,-93.28320000000001,247.6546,-252.8258,175,75
2026-05-07 18:34:18.387,5,-2.0,-0.99,0.84,-101.9032,247.6546,-252.8258,175,75
2026-05-07 18:34:18.398,5,-2.0,-1.28,-0.17,-25.833199999999998,247.6546,-252.8258,175,75
2026-05-07 18:34:18.409,5,-2.0,-1.03,0.21,48.526799999999994,167.00459999999998,-234.4858,175,75
2026-05-07 18:34:18.427,5,-2.0,-0.17,1.3,47.6768,-38.8454,-112.8358,175,75
2026-05-07 18:34:18.438,5,-2.0,0.84,2.0,0.6768000000000001,-225.1054,31.7842,175,75
2026-05-07 18:34:18.438,5,-2.0,2.0,2.0,-103.8432,-252.6154,246.7242,175,75
2026-05-07 18:34:18.448,5,-2.0,-0.93,2.0,-89.81320000000001,-252.6154,247.4442,175,75
2026-05-07 18:34:18.459,5,-2.0,-2.0,1.08,-120.3732,-252.6154,247.4442,175,75
2026-05-07 18:34:18.473,5,-0.57,-1.79,0.1,-88.31320000000001,-252.6154,247.4442,175,75
2026-05-07 18:34:18.483,5,-0.92,-1.51,-0.07,-37.123200000000004,-252.6154,247.4442,175,75
2026-05-07 18:34:18.494,5,-1.02,-1.17,-0.34,-8.5732,-252.6154,247.4442,175,75
2026-05-07 18:34:18.505,5,-1.08,-0.46,-0.75,-23.4132,-252.6154,145.2042,175,75
2026-05-07 18:34:18.516,5,-0.87,-0.01,-0.84,-65.9932,-252.6154,-21.8358,175,75
2026-05-07 18:34:18.516,5,2.0,0.95,-2.0,-148.77319999999997,-252.6154,-252.8258,175,75
2026-05-07 18:34:18.538,5,2.0,0.56,-2.0,-241.57319999999999,-228.0154,-252.8258,175,75
2026-05-07 18:34:18.549,5,2.0,0.77,-2.0,-155.6032,138.0246,-181.9458,175,75
2026-05-07 18:34:18.549,5,-1.0,0.43,-1.27,-130.32319999999999,113.86460000000001,-163.9558,175,75
2026-05-07 18:34:18.560,5,-1.18,0.28,-0.78,-95.8732,35.8246,-252.8258,175,75
2026-05-07 18:34:18.572,5,-0.52,0.29,-0.24,-68.7332,18.8346,-252.8258,175,75
2026-05-07 18:34:18.586,5,0.5,0.3,0.34,-61.2432,102.72460000000001,-252.8258,175,75
2026-05-07 18:34:18.586,5,1.26,0.56,0.54,-73.9032,225.4346,-252.8258,175,75
2026-05-07 18:34:18.597,5,2.0,0.45,0.93,-129.6332,247.6546,-223.4358,175,75
2026-05-07 18:34:18.608,5,1.89,0.49,1.12,-199.32319999999999,247.6546,-109.2258,175,75
2026-05-07 18:34:18.619,5,2.0,2.0,2.0,-248.02319999999997,247.6546,204.7942,175,75
2026-05-07 18:34:18.636,5,2.0,2.0,2.0,-248.02319999999997,247.6546,247.4442,175,75
2026-05-07 18:34:18.636,5,-0.93,0.52,0.28,-248.02319999999997,247.6546,247.4442,175,75
2026-05-07 18:34:18.646,5,-2.0,-0.12,0.54,-174.79319999999998,247.6546,247.4442,175,75
2026-05-07 18:34:18.658,5,-2.0,-0.98,0.45,-122.9832,247.6546,247.4442,175,75
2026-05-07 18:34:18.668,5,-2.0,-1.14,-0.01,-44.0332,247.6546,172.5242,175,75
2026-05-07 18:34:18.679,5,-2.0,-1.19,0.08,23.4968,154.2146,36.5742,175,75
2026-05-07 18:34:18.701,5,-2.0,-0.86,2.0,55.056799999999996,-61.1554,-56.0858,175,75
2026-05-07 18:34:18.714,5,-1.57,-0.44,2.0,-8.4932,-71.5654,2.1742000000000004,175,75
2026-05-07 18:34:18.726,5,-2.0,-0.24,1.97,-31.463199999999997,-117.7854,58.8542,175,75
2026-05-07 18:34:18.737,5,-2.0,-0.15,1.35,-37.623200000000004,-212.1254,87.1742,175,75
2026-05-07 18:34:18.737,5,-1.79,-0.17,1.23,-42.693200000000004,-252.6154,120.6742,175,75
2026-05-07 18:34:18.751,5,-1.26,-0.21,1.24,-49.8232,-252.6154,167.7542,175,75
2026-05-07 18:34:18.762,5,-0.78,-0.32,1.2,-58.8632,-252.6154,224.1242,175,75
2026-05-07 18:34:18.774,5,-0.55,-0.45,1.05,-63.093199999999996,-252.6154,247.4442,175,75
2026-05-07 18:34:18.785,5,-0.38,-0.63,0.8,-59.6432,-252.6154,247.4442,175,75
2026-05-07 18:34:18.796,5,-0.33,-0.83,0.58,-45.2832,-252.6154,247.4442,175,75
2026-05-07 18:34:18.807,5,-0.42,-0.93,0.43,-29.283199999999997,-252.6154,247.4442,175,75
2026-05-07 18:34:18.807,5,-0.33,-1.09,0.16,-9.9632,-252.6154,247.4442,175,75
2026-05-07 18:34:18.823,5,-0.07,-1.15,-0.06,9.3768,-252.6154,247.4442,175,75
2026-05-07 18:34:18.830,5,0.08,-1.21,-0.38,31.1968,-252.6154,247.4442,175,75
2026-05-07 18:34:18.842,5,0.46,-1.26,-0.74,54.1868,-252.6154,231.0742,175,75
2026-05-07 18:34:18.856,5,1.98,-1.1,-1.51,88.5968,-252.6154,115.8142,175,75
2026-05-07 18:34:18.865,5,2.0,-1.31,-2.0,95.5468,-69.94539999999999,-141.4158,175,75
2026-05-07 18:34:18.865,5,0.25,-1.14,-2.0,128.1068,99.8446,-252.8258,175,75
2026-05-07 18:34:18.877,5,-0.86,-0.77,-1.31,169.38680000000002,40.684599999999996,-252.8258,175,75
2026-05-07 18:34:18.893,5,-1.03,-0.31,-0.87,191.19680000000002,-40.8254,-252.8258,175,75
2026-05-07 18:34:18.902,5,-0.93,0.27,-0.52,173.63680000000002,-99.2254,-252.8258,175,75
2026-05-07 18:34:18.919,5,-0.82,0.76,-0.31,117.7068,-139.9154,-252.8258,175,75
2026-05-07 18:34:18.922,5,0.54,1.19,-0.35,46.1368,-134.65540000000001,-252.8258,175,75
2026-05-07 18:34:18.927,5,2.0,1.78,-0.63,-18.2732,45.9546,-168.6058,175,75
2026-05-07 18:34:18.944,5,0.72,1.48,-0.29,-97.5532,204.4846,-106.5758,175,75
2026-05-07 18:34:18.951,5,0.0,1.08,0.12,-142.98319999999998,247.6546,-193.3458,175,75
2026-05-07 18:34:18.966,5,0.72,0.83,0.64,-187.9632,247.6546,-252.8258,175,75
2026-05-07 18:34:18.978,5,2.0,0.78,1.72,-243.23319999999998,247.6546,-191.0558,175,75
2026-05-07 18:34:18.989,5,2.0,1.18,1.56,-248.02319999999997,247.6546,247.4442,175,75
2026-05-07 18:34:19.000,5,0.64,2.0,0.23,-248.02319999999997,247.6546,247.4442,175,75
2026-05-07 18:34:19.010,5,-2.0,-2.0,2.0,-248.02319999999997,247.6546,247.4442,175,75
2026-05-07 18:34:19.017,5,-2.0,-2.0,-0.83,-145.2232,247.6546,247.4442,175,75
2026-05-07 18:34:19.036,5,-2.0,-2.0,-1.35,46.8668,247.6546,213.8342,175,75
2026-05-07 18:34:19.036,5,-2.0,-2.0,-1.2,252.2468,151.1846,-57.6358,175,75
2026-05-07 18:34:19.050,5,-2.0,-2.0,-0.68,252.2468,29.4446,-175.5058,175,75
2026-05-07 18:34:19.061,5,-2.0,-1.8,1.53,252.2468,56.3446,-162.4758,175,75
2026-05-07 18:34:19.073,5,-2.0,-1.48,2.0,252.2468,76.3446,-224.2358,175,75
2026-05-07 18:34:19.084,5,-2.0,-0.11,2.0,252.2468,22.2446,-252.8258,175,75
2026-05-07 18:34:19.096,5,-1.92,1.2,2.0,252.2468,-141.3954,-252.8258,175,75
2026-05-07 18:34:19.114,5,-2.0,0.67,1.18,147.2868,-252.6154,-194.6258,175,75
2026-05-07 18:34:19.128,5,-2.0,0.6,0.96,118.3168,-252.6154,-182.7358,175,75
2026-05-07 18:34:19.139,5,-0.75,0.28,0.41,151.2768,-252.6154,16.9742,175,75
2026-05-07 18:34:19.150,5,-0.14,0.41,0.34,163.8768,-252.6154,83.4542,175,75
2026-05-07 18:34:19.161,5,0.18,0.47,0.32,157.32680000000002,-252.6154,136.6242,175,75
2026-05-07 18:34:19.177,5,0.59,0.44,0.26,135.95680000000002,-252.6154,178.2742,175,75
2026-05-07 18:34:19.177,5,0.81,0.33,-0.05,113.9168,-252.6154,234.6842,175,75
2026-05-07 18:34:19.189,5,1.43,0.35,-0.8,86.57679999999999,-252.6154,247.4442,175,75
2026-05-07 18:34:19.199,5,2.0,0.74,-2.0,139.32680000000002,-187.74540000000002,247.4442,175,75
2026-05-07 18:34:19.206,5,2.0,1.24,-2.0,102.7468,229.0146,247.4442,175,75
2026-05-07 18:34:19.221,5,-0.35,0.38,-1.84,10.0668,247.6546,247.4442,175,75
2026-05-07 18:34:19.231,5,-1.14,-0.11,-1.28,-31.323199999999996,141.7946,245.7742,175,75
2026-05-07 18:34:19.246,5,-1.57,-0.15,-0.94,-38.8832,6.8546,188.6242,175,75
2026-05-07 18:34:19.256,5,-1.72,-0.05,-0.65,-41.763200000000005,-110.9254,96.38419999999999,175,75
2026-05-07 18:34:19.266,5,-1.49,0.02,-0.39,-50.9932,-184.6054,-21.1258,175,75
2026-05-07 18:34:19.266,5,-1.2,0.01,-0.38,-54.833200000000005,-210.99540000000002,-121.9758,175,75
2026-05-07 18:34:19.278,5,-0.78,-0.18,-0.47,-39.943200000000004,-211.6954,-181.3158,175,75
2026-05-07 18:34:19.293,5,0.94,-0.27,-0.46,-14.7032,-169.55540000000002,-177.2858,175,75
2026-05-07 18:34:19.303,5,2.0,0.25,-0.67,2.2668,85.0946,28.3342,175,75
2026-05-07 18:34:19.314,5,1.99,0.34,-0.12,-1.8032,247.6546,177.5042,175,75
2026-05-07 18:34:19.326,5,1.5,-0.15,0.23,16.2668,247.6546,209.8142,175,75
2026-05-07 18:34:19.336,5,1.0,0.24,0.12,-5.953200000000001,247.6546,201.9742,175,75
2026-05-07 18:34:19.346,5,0.75,0.96,1.48,-26.603199999999998,247.6546,176.6142,175,75
2026-05-07 18:34:19.358,5,1.36,2.0,2.0,-131.20319999999998,247.6546,247.4442,175,75
2026-05-07 18:34:19.358,5,0.83,0.9,2.0,-210.86319999999998,247.6546,209.3642,175,75
2026-05-07 18:34:19.385,5,-2.0,-0.81,0.05,-190.64319999999998,247.6546,-76.3158,175,75
2026-05-07 18:34:19.387,5,-2.0,-1.07,-0.86,-171.08319999999998,247.6546,-22.0758,175,75
2026-05-07 18:34:19.403,5,-2.0,-1.39,-0.84,-125.0432,247.6546,49.6842,175,75
2026-05-07 18:34:19.415,5,-2.0,-1.26,0.26,-94.8432,187.47459999999998,132.2342,175,75
2026-05-07 18:34:19.415,5,-2.0,-1.2,2.0,-128.86319999999998,-38.1454,186.8942,175,75
2026-05-07 18:34:19.427,5,-2.0,-1.6,2.0,-118.8432,-180.8454,136.4242,175,75
2026-05-07 18:34:19.446,5,-2.0,-1.62,1.24,-68.03320000000001,-252.6154,30.0342,175,75
2026-05-07 18:34:19.446,5,-2.0,-1.21,0.87,-36.9632,-252.6154,-44.2658,175,75
2026-05-07 18:34:19.457,5,-2.0,-0.91,0.56,-0.6732,-252.6154,-91.9158,175,75
2026-05-07 18:34:19.487,5,-1.07,-0.33,0.48,49.126799999999996,-252.6154,-53.4458,175,75
2026-05-07 18:34:19.487,5,-0.79,-0.19,0.4,75.7368,-252.6154,-30.1858,175,75
2026-05-07 18:34:19.498,5,-0.52,-0.08,0.28,98.7868,-252.6154,-10.4958,175,75
2026-05-07 18:34:19.510,5,-0.36,0.03,0.27,107.6768,-252.6154,-0.5558000000000001,175,75
2026-05-07 18:34:19.534,5,0.23,0.1,0.21,84.10679999999999,-252.6154,29.894199999999998,175,75
2026-05-07 18:34:19.545,5,0.19,0.02,0.11,69.2668,-252.6154,57.3642,175,75
2026-05-07 18:34:19.556,5,0.19,-0.06,0.01,63.7868,-252.6154,80.2542,175,75
2026-05-07 18:34:19.556,5,0.19,-0.2,-0.15,73.71679999999999,-252.6154,101.0242,175,75
2026-05-07 18:34:19.566,5,0.07,-0.3,-0.38,102.7968,-252.6154,123.7542,175,75
2026-05-07 18:34:19.587,5,1.74,-0.62,-1.32,201.19680000000002,-252.6154,247.4442,175,75
2026-05-07 18:34:19.598,5,2.0,-0.02,-2.0,252.2468,-148.8454,247.4442,175,75
2026-05-07 18:34:19.622,5,1.28,0.13,-1.88,252.2468,78.6346,247.4442,175,75
2026-05-07 18:34:19.636,5,0.02,-0.23,-1.36,252.2468,241.2346,247.4442,175,75
2026-05-07 18:34:19.646,5,-1.23,-0.01,-0.51,240.19680000000002,247.6546,195.8142,175,75
2026-05-07 18:34:19.646,5,-1.36,0.04,-0.19,178.76680000000002,217.97459999999998,87.4342,175,75
2026-05-07 18:34:19.664,5,-1.25,0.09,0.0,114.5368,195.1746,-29.3758,175,75
2026-05-07 18:34:19.671,5,-1.11,0.12,0.09,59.3268,183.72459999999998,-129.4758,175,75
2026-05-07 18:34:19.686,5,-0.85,0.13,0.13,9.6768,173.72459999999998,-215.1758,175,75
2026-05-07 18:34:19.708,5,0.84,0.25,0.66,-98.0532,162.6246,-220.8958,175,75
2026-05-07 18:34:19.719,5,2.0,2.0,2.0,-194.61319999999998,-243.4554,247.4442,175,75
2026-05-07 18:34:19.753,5,2.0,-0.62,2.0,-38.483200000000004,247.6546,19.304199999999998,175,75
2026-05-07 18:34:19.761,5,1.88,-0.73,2.0,-48.2532,247.6546,-16.805799999999998,175,75
2026-05-07 18:34:19.776,5,2.0,-0.52,2.0,-87.0932,247.6546,117.4142,175,75
2026-05-07 18:34:19.776,5,-0.05,-0.8,1.42,-127.61319999999999,247.6546,247.4442,175,75
2026-05-07 18:34:19.812,5,-2.0,-1.5,0.75,-88.06320000000001,247.6546,74.4042,175,75
2026-05-07 18:34:19.846,5,-2.0,-0.95,2.0,166.3668,-7.295400000000001,-142.7658,175,75
2026-05-07 18:34:19.846,5,-2.0,-0.02,2.0,172.9068,-108.08539999999999,-114.7658,175,75
2026-05-07 18:34:19.862,5,-2.0,0.43,2.0,132.0268,-205.4554,-92.9358,175,75
2026-05-07 18:34:19.875,5,-2.0,0.49,1.81,101.8768,-252.6154,-87.3258,175,75
2026-05-07 18:34:19.886,5,-1.23,0.44,1.54,91.0168,-252.6154,-63.1358,175,75
2026-05-07 18:34:19.886,5,-0.39,0.39,1.46,94.0968,-252.6154,15.644199999999998,175,75
2026-05-07 18:34:19.897,5,0.19,0.43,1.54,85.60679999999999,-252.6154,122.5742,175,75
2026-05-07 18:34:19.909,5,0.44,0.46,1.57,57.5768,-240.4154,222.9242,175,75
2026-05-07 18:34:19.919,5,0.56,0.43,1.42,29.486800000000002,-184.4254,247.4442,175,75
2026-05-07 18:34:19.936,5,-0.02,0.32,1.19,-14.073200000000002,-186.9454,247.4442,175,75
2026-05-07 18:34:19.949,5,-0.12,0.14,1.11,-42.3532,-252.6154,247.4442,175,75
2026-05-07 18:34:19.969,5,0.09,-0.06,0.86,-70.2632,-252.6154,247.4442,175,75
2026-05-07 18:34:19.969,5,0.46,-0.23,0.54,-86.06320000000001,-252.6154,247.4442,175,75
2026-05-07 18:34:19.980,5,0.49,-0.36,0.15,-91.1632,-252.6154,222.4242,175,75
2026-05-07 18:34:19.991,5,0.49,-0.54,-0.33,-79.4532,-252.6154,139.3342,175,75
2026-05-07 18:34:20.001,5,0.97,-0.46,-0.77,-60.0432,-163.2554,26.0942,175,75
2026-05-07 18:34:20.007,5,0.9,-0.31,-1.06,-64.89320000000001,-58.5954,-117.5558,175,75
2026-05-07 18:34:20.025,5,0.5,-0.09,-1.37,-87.5132,-4.9554,-193.6258,175,75
2026-05-07 18:34:20.041,5,0.12,-0.02,-0.87,-58.983200000000004,-16.2254,-209.2858,175,75
2026-05-07 18:34:20.041,5,-0.16,0.07,-0.82,-45.693200000000004,-62.0454,-191.3158,175,75
2026-05-07 18:34:20.054,5,-0.18,0.23,-0.65,-41.833200000000005,-112.16539999999999,-161.8558,175,75
2026-05-07 18:34:20.058,5,0.07,0.3,-0.41,-44.5032,-138.4754,-119.9558,175,75
2026-05-07 18:34:20.069,5,0.3,0.27,-0.18,-49.123200000000004,-108.91539999999999,-66.1758,175,75
2026-05-07 18:34:20.081,5,0.2,0.26,-0.02,-59.733200000000004,-49.6254,-35.6358,175,75
2026-05-07 18:34:20.096,5,0.26,0.13,0.09,-63.9032,33.9946,-30.5158,175,75
2026-05-07 18:34:20.096,5,0.11,0.05,0.16,-61.193200000000004,129.8946,-28.5958,175,75
2026-05-07 18:34:20.107,5,-0.02,0.05,0.14,-57.9632,216.8646,-36.8258,175,75
2026-05-07 18:34:20.120,5,-0.15,0.09,0.1,-60.483200000000004,247.6546,-39.0658,175,75
2026-05-07 18:34:20.130,5,-0.22,0.13,0.09,-65.9732,247.6546,-30.4358,175,75
2026-05-07 18:34:20.140,5,-0.12,0.24,0.13,-75.9032,247.6546,1.8741999999999996,175,75
2026-05-07 18:34:20.154,5,0.06,0.35,0.25,-83.7732,247.6546,56.8742,175,75
2026-05-07 18:34:20.162,5,1.06,1.42,0.4,-83.5732,198.1346,236.2742,175,75
2026-05-07 18:34:20.179,5,0.47,0.66,1.22,-43.6732,54.4446,247.4442,175,75
2026-05-07 18:34:20.195,5,-0.28,0.21,0.3,-16.0432,50.0146,247.4442,175,75
2026-05-07 18:34:20.206,5,-0.35,-0.01,0.14,-0.9632000000000001,41.0946,247.4442,175,75
2026-05-07 18:34:20.217,5,-0.14,-0.14,-0.09,18.0368,-18.7954,247.4442,175,75
2026-05-07 18:34:20.231,5,-0.23,0.07,0.33,11.8468,-45.2954,228.5942,175,75
2026-05-07 18:34:20.250,5,0.06,-0.1,0.53,-15.963199999999999,-71.1454,157.7242,175,75
2026-05-07 18:34:20.276,5,0.84,-0.32,1.14,-49.6432,-11.4654,114.8742,175,75
2026-05-07 18:34:20.284,5,1.28,-0.56,1.53,-60.8832,50.4146,121.9142,175,75
2026-05-07 18:34:20.302,5,1.2,-0.57,2.0,-77.2732,218.8346,92.7142,175,75
2026-05-07 18:34:20.315,5,1.23,-0.52,2.0,-93.0532,247.6546,18.4242,175,75
2026-05-07 18:34:20.317,5,0.58,-0.62,2.0,-93.0232,247.6546,-82.6658,175,75
2026-05-07 18:34:20.336,5,-0.07,-0.73,1.85,-70.0532,247.6546,-171.6058,175,75
2026-05-07 18:34:20.366,5,-2.0,-0.14,1.14,33.446799999999996,247.6546,-136.0558,175,75
2026-05-07 18:34:20.378,5,-2.0,0.38,1.54,14.8268,247.6546,-111.5758,175,75
2026-05-07 18:34:20.378,5,-2.0,0.66,1.84,-23.9832,218.47459999999998,-92.2958,175,75
2026-05-07 18:34:20.408,5,-2.0,0.47,1.75,-101.8632,0.9546000000000001,-34.9058,175,75
2026-05-07 18:34:20.420,5,-1.79,-0.09,1.48,-104.81320000000001,-91.0154,151.0142,175,75
2026-05-07 18:34:20.446,5,-1.84,-0.19,1.45,-72.14320000000001,-127.52539999999999,247.4442,175,75
2026-05-07 18:34:20.460,5,-1.78,-0.36,1.38,-76.06320000000001,-208.02540000000002,247.4442,175,75
2026-05-07 18:34:20.470,5,-1.65,-0.49,1.4,-75.8032,-249.6054,245.7842,175,75
2026-05-07 18:34:20.481,5,-1.4,-0.63,1.35,-73.9832,-252.6154,166.2042,175,75
2026-05-07 18:34:20.493,5,-0.87,-0.78,1.15,-60.983200000000004,-252.6154,107.13419999999999,175,75
2026-05-07 18:34:20.505,5,-0.57,-0.88,0.96,-30.4132,-229.6254,81.5342,175,75
2026-05-07 18:34:20.519,5,-0.48,-0.84,0.89,6.126799999999999,-194.7254,70.0442,175,75
2026-05-07 18:34:20.534,5,-0.43,-0.54,1.02,48.1468,-141.55540000000002,35.4242,175,75
2026-05-07 18:34:20.558,5,-0.19,-0.28,1.04,54.5668,-81.8754,-29.3458,175,75
2026-05-07 18:34:20.603,5,-0.16,0.12,1.05,68.3868,-69.0354,-40.1458,175,75
2026-05-07 18:34:20.613,5,-0.28,0.14,0.97,64.3368,-89.2654,-27.8158,175,75
2026-05-07 18:34:20.623,5,-0.32,0.25,0.93,52.446799999999996,-108.3654,-24.8658,175,75
2026-05-07 18:34:20.638,5,-0.28,0.21,0.84,36.3268,-120.58539999999999,-24.2758,175,75
2026-05-07 18:34:20.638,5,-0.28,0.12,0.7,22.8868,-132.4454,-15.4558,175,75
2026-05-07 18:34:20.648,5,-0.27,-0.01,0.52,18.5168,-145.2854,-1.3758,175,75
2026-05-07 18:34:20.658,5,-0.23,-0.11,0.36,19.0268,-150.8654,15.074200000000001,175,75
2026-05-07 18:34:20.672,5,-0.25,-0.15,0.21,23.9768,-153.21540000000002,34.6542,175,75
2026-05-07 18:34:20.677,5,-0.32,-0.21,0.1,28.5268,-161.4554,54.5242,175,75
2026-05-07 18:34:20.695,5,-0.42,-0.17,-0.01,31.716800000000003,-184.9554,69.7142,175,75
2026-05-07 18:34:20.695,5,-0.58,-0.12,-0.18,33.4068,-229.7954,73.3042,175,75
2026-05-07 18:34:20.730,5,-0.44,-0.12,-0.37,52.986799999999995,-252.6154,70.1242,175,75
2026-05-07 18:34:20.742,5,-0.26,0.09,-0.52,50.9668,-252.6154,71.5242,175,75
2026-05-07 18:34:20.765,5,0.9,0.32,-0.4,18.0368,-252.6154,74.2542,175,75
2026-05-07 18:34:20.806,5,-0.24,0.14,-0.1,34.846799999999995,116.5446,-42.4158,175,75
2026-05-07 18:34:20.819,5,-0.15,0.17,0.01,26.306800000000003,171.1446,-70.6758,175,75
2026-05-07 18:34:20.819,5,-0.11,0.17,0.06,6.386799999999999,205.9246,-95.8758,175,75
2026-05-07 18:34:20.831,5,-0.1,0.16,0.08,-13.933200000000001,242.5446,-91.11580000000001,175,75
2026-05-07 18:34:20.847,5,-0.17,0.18,0.05,-31.3732,247.6546,-88.6358,175,75
2026-05-07 18:34:20.857,5,-0.1,0.23,0.07,-46.623200000000004,247.6546,-82.5758,175,75
2026-05-07 18:34:20.871,5,0.23,0.32,0.16,-79.8632,247.6546,-49.4558,175,75
2026-05-07 18:34:20.888,5,0.17,0.32,0.2,-98.7932,247.6546,-22.9958,175,75
2026-05-07 18:34:20.901,5,0.1,0.33,0.27,-132.4632,247.6546,41.3342,175,75
2026-05-07 18:34:20.916,5,0.26,0.34,0.57,-153.1632,247.6546,91.6242,175,75
2026-05-07 18:34:20.926,5,0.57,0.83,1.0,-194.9932,247.6546,178.2442,175,75
2026-05-07 18:34:20.931,5,0.92,1.96,2.0,-248.02319999999997,247.6546,247.4442,175,75
2026-05-07 18:34:20.941,5,0.53,2.0,2.0,-248.02319999999997,247.6546,245.4942,175,75
2026-05-07 18:34:20.950,5,-0.96,0.72,1.23,-248.02319999999997,247.6546,247.4442,175,75
2026-05-07 18:34:20.961,5,-2.0,-0.43,-0.22,-248.02319999999997,247.6546,247.4442,175,75
2026-05-07 18:34:20.974,5,-2.0,-0.65,-1.15,-248.02319999999997,247.6546,247.4442,175,75
2026-05-07 18:34:20.987,5,-2.0,-1.29,-1.41,-248.02319999999997,245.6746,247.4442,175,75
2026-05-07 18:34:20.987,5,-2.0,-1.37,-0.99,-149.67319999999998,-34.9754,247.4442,175,75
2026-05-07 18:34:21.011,5,-2.0,-1.2,-0.36,-44.1132,-222.5754,231.3642,175,75
2026-05-07 18:34:21.011,5,-2.0,-1.21,1.05,3.0568,-190.58540000000002,111.4842,175,75
2026-05-07 18:34:21.026,5,-1.83,-1.81,2.0,-13.5632,-84.8754,43.8142,175,75
2026-05-07 18:34:21.059,5,-2.0,-1.17,0.36,34.9068,-218.55540000000002,-34.2858,175,75
2026-05-07 18:34:21.073,5,-2.0,-1.0,0.76,74.96679999999999,-252.6154,-104.2158,175,75
2026-05-07 18:34:21.089,5,-1.7,-0.79,0.98,105.2668,-252.6154,-163.4958,175,75
2026-05-07 18:34:21.089,5,-0.93,-0.4,1.17,116.4868,-234.9454,-148.0258,175,75
2026-05-07 18:34:21.101,5,-0.87,-0.17,1.11,124.2668,-241.6754,-79.4158,175,75
2026-05-07 18:34:21.112,5,-1.06,-0.05,0.95,128.70680000000002,-231.9454,-56.5358,175,75
2026-05-07 18:34:21.125,5,-1.09,-0.0,0.88,119.4568,-198.6254,-78.3758,175,75
2026-05-07 18:34:21.138,5,-0.92,-0.03,0.86,93.8668,-161.74540000000002,-84.3158,175,75
2026-05-07 18:34:21.138,5,-0.79,-0.11,0.82,63.3968,-125.9754,-56.3458,175,75
2026-05-07 18:34:21.156,5,-0.79,-0.15,0.78,41.486799999999995,-91.2354,-17.055799999999998,175,75
2026-05-07 18:34:21.168,5,-0.83,-0.12,0.81,30.0868,-64.77539999999999,15.1142,175,75
2026-05-07 18:34:21.168,5,-0.82,0.01,0.94,24.0168,-60.5854,46.5642,175,75
2026-05-07 18:34:21.178,5,-0.7,0.15,1.19,13.6368,-82.3654,92.0042,175,75
2026-05-07 18:34:21.188,5,-0.7,0.14,1.3,2.5868,-123.94539999999999,145.3242,175,75
2026-05-07 18:34:21.198,5,-0.9,-0.01,1.25,-3.5732000000000004,-180.9754,168.4642,175,75
2026-05-07 18:34:21.210,5,-1.49,-0.21,1.21,-4.8032,-252.6154,92.1442,175,75
2026-05-07 18:34:21.234,5,-0.29,-0.34,0.63,-19.1132,-252.6154,-44.0558,175,75
2026-05-07 18:34:21.240,5,-0.26,-0.21,0.4,-13.3232,-252.6154,-71.1558,175,75
2026-05-07 18:34:21.257,5,-0.3,0.06,0.1,-3.9431999999999996,-252.6154,-123.1058,175,75
2026-05-07 18:34:21.268,5,-0.26,0.26,-0.26,0.036799999999999944,-252.6154,-215.3358,175,75
2026-05-07 18:34:21.268,5,0.15,0.39,-0.75,35.266799999999996,-252.6154,-181.4958,175,75
2026-05-07 18:34:21.281,5,1.02,0.56,-1.33,61.376799999999996,-252.6154,-149.8658,175,75
2026-05-07 18:34:21.292,5,2.0,1.52,-1.97,29.166800000000002,-252.6154,-130.6058,175,75
2026-05-07 18:34:21.307,5,2.0,1.28,-2.0,1.4668,-155.2854,3.2441999999999998,175,75
2026-05-07 18:34:21.309,5,0.7,0.92,-1.46,-23.943199999999997,-59.3254,54.8542,175,75
2026-05-07 18:34:21.326,5,-0.49,0.45,-0.95,-36.553200000000004,-88.94539999999999,32.8342,175,75
2026-05-07 18:34:21.349,5,-0.79,0.19,-0.55,-36.3932,-140.6054,-7.7058,175,75
2026-05-07 18:34:21.349,5,-0.6,0.01,-0.28,-32.9932,-152.58540000000002,-34.3258,175,75
2026-05-07 18:34:21.360,5,0.12,-0.02,0.18,-23.943199999999997,-39.3654,-99.9658,175,75
2026-05-07 18:34:21.387,5,1.09,-0.04,0.57,-39.1632,220.3346,-42.6458,175,75
2026-05-07 18:34:21.397,5,1.68,-0.02,0.6,-52.6732,247.6546,25.464199999999998,175,75
2026-05-07 18:34:21.397,5,2.0,0.27,1.09,-86.7132,247.6546,123.9742,175,75
2026-05-07 18:34:21.411,5,2.0,2.0,2.0,-200.3732,247.6546,247.4442,175,75
2026-05-07 18:34:21.424,5,0.8,2.0,2.0,-215.58319999999998,247.6546,247.4442,175,75
2026-05-07 18:34:21.432,5,-0.56,-0.26,2.0,-73.2132,247.6546,247.4442,175,75
2026-05-07 18:34:21.440,5,-1.87,-0.33,0.73,-50.763200000000005,247.6546,165.6642,175,75
2026-05-07 18:34:21.473,5,-2.0,-1.28,-0.38,69.3768,247.6546,-252.8258,175,75
2026-05-07 18:34:21.484,5,-2.0,-1.16,0.01,103.18679999999999,247.6546,-252.8258,175,75
2026-05-07 18:34:21.488,5,-1.73,2.0,2.0,-81.67320000000001,40.6946,18.8142,175,75
2026-05-07 18:34:21.503,5,-2.0,0.69,2.0,-248.02319999999997,-122.91539999999999,188.8742,175,75
2026-05-07 18:34:21.516,5,-2.0,-0.51,1.27,-248.02319999999997,-214.71540000000002,124.5242,175,75
2026-05-07 18:34:21.526,5,-2.0,-0.95,1.71,-175.4432,-252.6154,109.2042,175,75
2026-05-07 18:34:21.542,5,-1.4,-1.09,1.01,-75.2532,-252.6154,106.7242,175,75
2026-05-07 18:34:21.566,5,-0.4,-0.86,0.56,19.646800000000002,-252.6154,169.1742,175,75
2026-05-07 18:34:21.578,5,-0.3,-0.35,0.14,61.2968,-252.6154,147.5542,175,75
2026-05-07 18:34:21.597,5,-0.12,-0.28,-0.41,65.5968,-252.6154,63.104200000000006,175,75
2026-05-07 18:34:21.597,5,0.08,-0.23,-0.86,91.9868,-252.6154,62.2042,175,75
2026-05-07 18:34:21.616,5,1.37,-0.03,-1.42,102.96679999999999,-252.6154,34.1042,175,75
2026-05-07 18:34:21.616,5,2.0,0.33,-2.0,113.1668,-252.6154,181.5042,175,75
2026-05-07 18:34:21.628,5,1.8,0.09,-2.0,147.4668,25.0446,76.5142,175,75
2026-05-07 18:34:21.647,5,-0.82,-0.07,-1.39,114.5468,21.674599999999998,-35.2658,175,75
2026-05-07 18:34:21.647,5,-1.26,-0.39,-0.69,109.4068,-65.0054,-66.0058,175,75
2026-05-07 18:34:21.658,5,-1.44,-0.26,-0.61,96.7868,-161.0654,-90.1258,175,75
2026-05-07 18:34:21.676,5,-1.25,0.02,-0.26,59.9068,-216.5954,-121.7958,175,75
2026-05-07 18:34:21.680,5,-0.73,0.12,0.04,-1.0332,-198.9754,-161.3358,175,75
2026-05-07 18:34:21.687,5,-0.42,0.06,0.17,-56.4932,-124.1454,-210.2658,175,75
2026-05-07 18:34:21.705,5,0.3,-0.05,0.24,-101.4432,-22.3054,-248.9958,175,75
2026-05-07 18:34:21.716,5,0.96,-0.21,0.37,-129.27319999999997,118.1546,-221.7758,175,75
2026-05-07 18:34:21.735,5,2.0,0.14,0.78,-180.32319999999999,247.6546,-73.2658,175,75
2026-05-07 18:34:21.748,5,2.0,0.08,0.97,-236.1832,247.6546,12.5442,175,75
2026-05-07 18:34:21.748,5,1.2,-0.37,2.0,-238.70319999999998,247.6546,-74.6458,175,75
2026-05-07 18:34:21.761,5,2.0,-0.25,2.0,-232.9632,247.6546,-252.8258,175,75
2026-05-07 18:34:21.772,5,1.77,-0.89,1.68,-213.05319999999998,247.6546,-226.2058,175,75
2026-05-07 18:34:21.778,5,-0.89,-1.6,-0.18,-116.89320000000001,247.6546,-128.2558,175,75
2026-05-07 18:34:21.792,5,-2.0,-1.6,-1.05,6.5268,247.6546,-164.7358,175,75
2026-05-07 18:34:21.804,5,-2.0,-1.51,-1.06,123.2668,247.6546,-160.2958,175,75
2026-05-07 18:34:21.809,5,-2.0,-1.19,-0.73,221.42680000000001,247.6546,-167.2958,175,75
2026-05-07 18:34:21.826,5,-2.0,0.14,1.02,240.22680000000003,62.684599999999996,-202.2558,175,75
2026-05-07 18:34:21.826,5,-2.0,2.0,2.0,19.1868,-130.4854,-173.4658,175,75
2026-05-07 18:34:21.840,5,-2.0,0.28,2.0,-59.7032,-252.6154,-132.1458,175,75
2026-05-07 18:34:21.850,5,-2.0,-0.08,0.73,6.486800000000001,-252.6154,-161.6858,175,75
2026-05-07 18:34:21.861,5,-1.53,-0.46,0.41,122.0468,-252.6154,-91.3158,175,75
2026-05-07 18:34:21.879,5,-0.79,-0.01,0.41,252.2468,-252.6154,31.1642,175,75
2026-05-07 18:34:21.890,5,-0.73,0.23,0.39,252.2468,-252.6154,21.2842,175,75
2026-05-07 18:34:21.911,5,-0.56,0.51,-0.15,227.7568,-252.6154,-20.0158,175,75
2026-05-07 18:34:21.922,5,0.12,0.52,-0.7,205.7468,-252.6154,17.7342,175,75
2026-05-07 18:34:21.946,5,2.0,0.31,-2.0,252.2468,-252.6154,247.4442,175,75
2026-05-07 18:34:21.957,5,1.11,1.73,-2.0,252.2468,-233.8254,247.4442,175,75
2026-05-07 18:34:21.957,5,0.0,0.71,-2.0,215.1468,-183.0354,247.4442,175,75
2026-05-07 18:34:21.977,5,-0.89,-0.34,-1.55,122.3468,-49.1054,247.4442,175,75
2026-05-07 18:34:21.977,5,-1.51,-0.12,-0.35,54.8868,-28.3054,77.8642,175,75
2026-05-07 18:34:21.991,5,-1.69,-0.35,-0.03,-13.3032,-41.9154,-27.0758,175,75
2026-05-07 18:34:21.999,5,-1.26,-0.27,0.24,-83.3232,8.724599999999999,-112.4958,175,75
2026-05-07 18:34:22.011,5,-0.6,-0.47,0.21,-137.7532,66.28460000000001,-150.8058,175,75
2026-05-07 18:34:22.021,5,0.15,-0.7,0.07,-152.51319999999998,155.5446,-152.0558,175,75
2026-05-07 18:34:22.030,5,1.59,-0.93,0.17,-131.20319999999998,247.6546,-161.1458,175,75
2026-05-07 18:34:22.042,5,2.0,-0.91,0.65,-89.6132,247.6546,-181.9958,175,75
2026-05-07 18:34:22.046,5,2.0,-0.51,0.95,-104.8832,247.6546,-171.4058,175,75
2026-05-07 18:34:22.068,5,2.0,0.68,2.0,-103.9632,58.8046,-252.8258,175,75
2026-05-07 18:34:22.085,5,2.0,0.24,2.0,-182.9132,247.6546,-252.8258,175,75
2026-05-07 18:34:22.108,5,-0.69,-1.48,-0.09,-116.5532,247.6546,-252.8258,175,75
2026-05-07 18:34:22.108,5,-2.0,-0.74,-0.02,4.4768,247.6546,-192.0458,175,75
2026-05-07 18:34:22.120,5,-2.0,-0.04,0.25,101.1768,247.6546,-31.2258,175,75
2026-05-07 18:34:22.133,5,-2.0,0.38,1.21,78.1668,247.6546,-32.0458,175,75
2026-05-07 18:34:22.143,5,-2.0,1.47,2.0,-60.0732,73.7646,-38.025800000000004,175,75
2026-05-07 18:34:22.168,5,-2.0,0.99,2.0,-201.1932,-117.41539999999999,21.6542,175,75
2026-05-07 18:34:22.169,5,-2.0,-0.11,1.68,-204.51319999999998,-252.6154,122.8542,175,75
2026-05-07 18:34:22.181,5,-2.0,-0.71,1.3,-158.4432,-252.6154,247.4442,175,75
2026-05-07 18:34:22.191,5,-1.97,-0.97,1.2,-94.3332,-252.6154,247.4442,175,75
2026-05-07 18:34:22.191,5,-2.0,-0.97,1.41,-46.1332,-252.6154,247.4442,175,75
2026-05-07 18:34:22.201,5,-1.95,-0.92,1.28,-30.403200000000002,-252.6154,197.5242,175,75
2026-05-07 18:34:22.213,5,-0.53,-0.9,0.67,-18.493199999999998,-252.6154,135.7842,175,75
2026-05-07 18:34:22.231,5,-0.5,-0.84,0.39,5.7568,-252.6154,90.2842,175,75
2026-05-07 18:34:22.231,5,-0.65,-0.69,0.2,24.256800000000002,-252.6154,29.5242,175,75
2026-05-07 18:34:22.244,5,-0.69,-0.54,-0.13,38.6468,-252.6154,-31.2358,175,75
2026-05-07 18:34:22.252,5,-0.43,-0.4,-0.43,53.1368,-252.6154,-64.5758,175,75
2026-05-07 18:34:22.275,5,0.14,0.2,-1.11,74.1468,-252.6154,-138.6358,175,75
2026-05-07 18:34:22.287,5,1.22,0.13,-1.7,115.93679999999999,-252.6154,-143.0258,175,75
2026-05-07 18:34:22.287,5,2.0,0.14,-2.0,114.6768,-134.4754,-162.6958,175,75
2026-05-07 18:34:22.300,5,-0.42,0.36,-1.77,120.8068,-8.0354,-166.4058,175,75
2026-05-07 18:34:22.309,5,-1.54,0.25,-0.77,102.8768,-73.7354,-252.7358,175,75
2026-05-07 18:34:22.326,5,-1.67,0.4,-0.53,78.6268,-148.2954,-252.8258,175,75
2026-05-07 18:34:22.330,5,-1.17,0.4,-0.27,40.196799999999996,-188.9754,-252.8258,175,75
2026-05-07 18:34:22.343,5,-0.72,0.33,-0.12,-8.763200000000001,-190.9154,-252.8258,175,75
2026-05-07 18:34:22.355,5,0.3,0.47,-0.28,-56.193200000000004,-143.4254,-252.8258,175,75
2026-05-07 18:34:22.366,5,1.6,0.65,-0.58,-85.17320000000001,5.544599999999999,-155.9558,175,75
2026-05-07 18:34:22.378,5,1.02,0.79,-0.24,-121.7232,199.6046,-46.4058,175,75
2026-05-07 18:34:22.378,5,0.88,0.84,0.11,-170.33319999999998,247.6546,-15.4258,175,75
2026-05-07 18:34:22.389,5,1.21,0.76,0.43,-233.9032,247.6546,-9.4858,175,75
2026-05-07 18:34:22.399,5,2.0,1.13,0.46,-248.02319999999997,247.6546,-6.1358,175,75
2026-05-07 18:34:22.417,5,2.0,1.1,0.9,-248.02319999999997,247.6546,82.3642,175,75
2026-05-07 18:34:22.417,5,2.0,2.0,2.0,-248.02319999999997,247.6546,247.4442,175,75
2026-05-07 18:34:22.429,5,-1.41,-0.26,2.0,-248.02319999999997,247.6546,247.4442,175,75
2026-05-07 18:34:22.440,5,0.42,-2.0,2.0,-165.4432,247.6546,247.4442,175,75
2026-05-07 18:34:22.450,5,-0.85,-1.72,1.69,-56.8632,247.6546,114.2042,175,75
2026-05-07 18:34:22.471,5,-2.0,-2.0,0.89,-0.10320000000000018,247.6546,-23.9258,175,75
2026-05-07 18:34:22.471,5,-2.0,-2.0,0.68,82.6768,247.6546,-105.9458,175,75
2026-05-07 18:34:22.486,5,-2.0,-2.0,0.78,187.9068,247.6546,-169.6658,175,75
2026-05-07 18:34:22.497,5,-2.0,-2.0,1.61,252.2468,141.5246,-229.3658,175,75
2026-05-07 18:34:22.507,5,-2.0,-1.03,2.0,252.2468,5.3146,-252.8258,175,75
2026-05-07 18:34:22.518,5,-1.95,0.98,2.0,252.2468,-186.4554,-245.4158,175,75
2026-05-07 18:34:22.526,5,-2.0,0.88,2.0,233.5568,-252.6154,-108.7658,175,75
2026-05-07 18:34:22.531,5,-1.92,1.03,1.77,185.38680000000002,-252.6154,-172.7658,175,75
2026-05-07 18:34:22.542,5,-0.89,0.81,1.48,129.1668,-252.6154,-198.6558,175,75
2026-05-07 18:34:22.559,5,-0.21,0.43,1.03,101.4968,-252.6154,-135.8958,175,75
2026-05-07 18:34:22.559,5,0.08,0.26,0.59,117.8468,-252.6154,-38.3158,175,75
2026-05-07 18:34:22.570,5,0.39,0.26,0.36,155.0068,-252.6154,30.6742,175,75
2026-05-07 18:34:22.584,5,0.63,0.35,0.24,177.07680000000002,-252.6154,89.9542,175,75
2026-05-07 18:34:22.598,5,1.0,0.57,-0.06,149.6268,-252.6154,135.3642,175,75
2026-05-07 18:34:22.611,5,2.0,0.7,-1.07,134.13680000000002,-252.6154,183.5842,175,75
2026-05-07 18:34:22.627,5,2.0,-0.13,-1.09,203.2568,-80.8754,247.4442,175,75
2026-05-07 18:34:22.627,5,1.22,1.1,-1.58,146.0968,128.1246,247.4442,175,75
2026-05-07 18:34:22.642,5,-0.61,0.5,-1.01,90.96679999999999,106.17460000000001,247.4442,175,75
2026-05-07 18:34:22.654,5,-1.0,0.25,-0.62,63.9068,34.0546,224.7842,175,75
2026-05-07 18:34:22.671,5,-1.4,0.14,-0.24,22.9468,-123.80539999999999,34.5942,175,75
2026-05-07 18:34:22.689,5,-1.3,0.08,-0.12,-5.033200000000001,-177.0954,-62.4658,175,75
2026-05-07 18:34:22.689,5,-0.94,0.07,0.04,-31.0132,-199.8154,-133.8958,175,75
2026-05-07 18:34:22.708,5,-0.7,-0.1,0.01,-57.483200000000004,-179.1354,-172.0958,175,75
2026-05-07 18:34:22.723,5,0.11,-0.35,0.2,-89.4432,-70.4254,-150.6158,175,75
2026-05-07 18:34:22.736,5,0.27,-0.4,0.21,-88.5932,18.7346,-114.1258,175,75
2026-05-07 18:34:22.742,5,0.32,-0.38,0.16,-76.5832,113.2146,-91.7358,175,75
2026-05-07 18:34:22.756,5,0.31,-0.36,0.12,-54.233200000000004,207.7946,-89.7858,175,75
2026-05-07 18:34:22.767,5,0.23,-0.3,0.1,-23.9132,247.6546,-104.0058,175,75
2026-05-07 18:34:22.768,5,0.16,0.02,-0.04,-18.4132,247.6546,-128.2158,175,75
2026-05-07 18:34:22.778,5,0.13,0.16,0.15,-14.5632,247.6546,-152.1258,175,75
2026-05-07 18:34:22.790,5,0.14,0.35,0.18,-26.1532,247.6546,-183.7658,175,75
2026-05-07 18:34:22.801,5,0.26,0.41,0.21,-20.3632,247.6546,-158.4358,175,75
2026-05-07 18:34:22.826,5,0.05,1.1,1.4,35.166799999999995,18.5646,160.5042,175,75
2026-05-07 18:34:22.837,5,-0.44,0.4,0.51,21.8568,-17.1154,114.0942,175,75
2026-05-07 18:34:22.849,5,-0.37,-0.15,-0.03,18.1768,-96.2354,90.1142,175,75
2026-05-07 18:34:22.882,5,-0.02,0.27,0.21,36.3268,-77.0654,65.1842,175,75
2026-05-07 18:34:22.897,5,0.24,0.19,0.61,19.2268,-40.4554,45.3642,175,75
2026-05-07 18:34:22.897,5,0.63,0.34,1.25,-14.963199999999999,-27.2254,59.2842,175,75
2026-05-07 18:34:22.908,5,1.04,0.31,2.0,-54.2432,-64.9754,116.1642,175,75
2026-05-07 18:34:22.920,5,1.52,-0.05,2.0,-60.973200000000006,-75.29539999999999,135.8342,175,75
2026-05-07 18:34:22.933,5,1.47,-0.36,2.0,-47.0432,-25.3854,110.5542,175,75
2026-05-07 18:34:22.945,5,1.31,-0.46,1.94,-33.3932,69.1846,83.2742,175,75
2026-05-07 18:34:22.959,5,1.11,-0.44,1.73,-22.4132,190.34459999999999,54.5242,175,75
2026-05-07 18:34:22.968,5,0.64,-0.41,1.67,-11.0432,247.6546,-2.5858,175,75
2026-05-07 18:34:22.968,5,0.19,-0.35,1.66,3.0368,247.6546,-95.4458,175,75
2026-05-07 18:34:22.980,5,-0.04,-0.21,1.63,3.1168,247.6546,-171.7958,175,75
2026-05-07 18:34:22.991,5,-0.46,-0.1,1.35,-17.7332,247.6546,-182.2858,175,75
2026-05-07 18:34:22.999,5,-0.64,0.01,1.25,-45.3232,247.6546,-154.0458,175,75
2026-05-07 18:34:23.011,5,-1.02,-0.24,1.01,-63.803200000000004,247.6546,-131.9058,175,75
2026-05-07 18:34:23.021,5,-1.28,-0.45,0.83,-66.28320000000001,247.6546,-96.3958,175,75
2026-05-07 18:34:23.031,5,-1.74,-0.54,0.8,-47.693200000000004,247.6546,-80.2858,175,75
2026-05-07 18:34:23.041,5,-2.0,-0.52,0.91,-19.6532,247.6546,-80.7658,175,75
2026-05-07 18:34:23.052,5,-2.0,-0.34,1.22,4.6468,247.6546,-97.0758,175,75
2026-05-07 18:34:23.063,5,-2.0,-0.02,1.63,11.3868,185.7946,-125.5858,175,75
2026-05-07 18:34:23.089,5,-2.0,0.55,2.0,-33.193200000000004,42.1646,-86.8458,175,75
2026-05-07 18:34:23.089,5,-2.0,0.3,2.0,-39.4232,-21.8754,-46.6158,175,75
2026-05-07 18:34:23.099,5,-2.0,-0.14,1.61,-22.1632,-70.04539999999999,9.3942,175,75
2026-05-07 18:34:23.110,5,-2.0,-0.32,1.38,4.3568,-132.49540000000002,88.3442,175,75
2026-05-07 18:34:23.128,5,-1.82,-0.36,1.38,25.1868,-252.6154,137.7942,175,75
2026-05-07 18:34:23.142,5,-1.47,-0.35,1.44,20.5868,-252.6154,123.0042,175,75
2026-05-07 18:34:23.156,5,-1.06,-0.39,1.42,11.0168,-252.6154,100.0442,175,75
2026-05-07 18:34:23.167,5,-0.69,-0.48,1.3,5.456799999999999,-252.6154,80.7942,175,75
2026-05-07 18:34:23.167,5,-0.39,-0.56,1.17,11.2868,-252.6154,61.7042,175,75
2026-05-07 18:34:23.178,5,-0.25,-0.56,1.07,26.3568,-216.3554,42.0842,175,75
2026-05-07 18:34:23.202,5,-0.16,-0.53,1.04,42.9068,-165.8854,19.4742,175,75
2026-05-07 18:34:23.202,5,-0.13,-0.43,1.06,57.9668,-116.2254,-15.8658,175,75
2026-05-07 18:34:23.217,5,-0.17,-0.31,1.11,68.7768,-75.3154,-51.0758,175,75
2026-05-07 18:34:23.225,5,-0.12,-0.14,1.2,75.1968,-43.7354,-81.6658,175,75
2026-05-07 18:34:23.236,5,-0.1,0.02,1.27,77.3868,-21.5854,-92.8358,175,75
2026-05-07 18:34:23.247,5,-0.06,0.09,1.28,76.0668,-15.3254,-84.6358,175,75
2026-05-07 18:34:23.257,5,-0.22,0.21,1.25,78.35679999999999,-17.7954,-66.3758,175,75
2026-05-07 18:34:23.257,5,-0.37,0.29,1.2,74.1968,-27.1154,-56.0758,175,75
2026-05-07 18:34:23.272,5,-0.46,0.32,1.16,61.986799999999995,-37.815400000000004,-46.7358,175,75
2026-05-07 18:34:23.283,5,-0.53,0.3,1.07,44.6168,-55.7654,-33.635799999999996,175,75
2026-05-07 18:34:23.297,5,-0.59,0.2,0.92,34.486799999999995,-86.58539999999999,-13.5558,175,75
2026-05-07 18:34:23.297,5,-0.6,0.1,0.77,32.9268,-127.32539999999999,6.2142,175,75
2026-05-07 18:34:23.309,5,-0.59,0.02,0.66,36.196799999999996,-169.1954,15.7042,175,75
2026-05-07 18:34:23.321,5,-0.54,-0.01,0.54,41.1368,-205.55540000000002,17.144199999999998,175,75
2026-05-07 18:34:23.356,5,-0.48,-0.01,0.01,57.0668,-252.6154,10.9142,175,75
2026-05-07 18:34:23.368,5,-0.56,0.01,-0.26,56.6568,-252.6154,-1.9158,175,75
2026-05-07 18:34:23.380,5,-0.6,0.23,-0.96,74.4868,-252.6154,0.0242,175,75
2026-05-07 18:34:23.397,5,-0.3,-0.1,-0.75,84.3668,-252.6154,6.8842,175,75
2026-05-07 18:34:23.407,5,-0.04,-0.02,-0.97,86.10679999999999,-252.6154,23.7842,175,75
2026-05-07 18:34:23.426,5,2.0,0.23,-1.73,63.5868,-252.6154,130.7842,175,75
2026-05-07 18:34:23.426,5,0.36,0.26,-0.87,33.8068,-141.33540000000002,94.9242,175,75
2026-05-07 18:34:23.446,5,-0.44,-0.09,0.05,-29.763199999999998,-33.7554,-19.7658,175,75
2026-05-07 18:34:23.460,5,-0.6,-0.27,0.13,-53.7032,41.9946,-68.1258,175,75
2026-05-07 18:34:23.482,5,-0.19,-0.16,0.12,-83.4932,218.3746,-130.1958,175,75
2026-05-07 18:34:23.493,5,-0.21,-0.11,0.02,-84.28320000000001,247.6546,-147.3958,175,75
2026-05-07 18:34:23.506,5,-0.1,-0.02,0.01,-87.7032,247.6546,-163.1758,175,75
2026-05-07 18:34:23.506,5,0.03,0.09,0.03,-96.6932,247.6546,-172.7358,175,75
2026-05-07 18:34:23.520,5,0.08,0.21,0.07,-111.8632,247.6546,-179.8458,175,75
2026-05-07 18:34:23.537,5,0.3,0.34,0.16,-132.9132,247.6546,-195.4958,175,75
2026-05-07 18:34:23.537,5,0.56,0.37,0.18,-142.17319999999998,247.6546,-173.4058,175,75
2026-05-07 18:34:23.558,5,0.42,0.63,0.41,-119.9932,247.6546,45.6942,175,75
2026-05-07 18:34:23.570,5,0.25,0.73,0.71,-115.28320000000001,247.6546,82.4742,175,75
2026-05-07 18:34:23.580,5,0.24,0.85,1.07,-136.8432,247.6546,121.6942,175,75
2026-05-07 18:34:23.595,5,0.19,0.95,1.41,-191.14319999999998,247.6546,181.0842,175,75
2026-05-07 18:34:23.600,5,-0.04,0.93,1.56,-248.02319999999997,247.6546,212.3342,175,75
2026-05-07 18:34:23.611,5,-0.22,0.94,1.73,-248.02319999999997,247.6546,179.0342,175,75
2026-05-07 18:34:23.623,5,-0.04,-0.15,1.95,-248.02319999999997,247.6546,138.6942,175,75
2026-05-07 18:34:23.633,5,-1.64,-0.88,0.95,-248.02319999999997,247.6546,89.9642,175,75
2026-05-07 18:34:23.638,5,-2.0,-1.09,0.14,-226.1532,247.6546,48.4442,175,75
2026-05-07 18:34:23.659,5,-2.0,-1.36,-0.28,-51.483200000000004,167.0546,62.494200000000006,175,75
2026-05-07 18:34:23.677,5,-2.0,-1.28,-0.01,30.1968,-77.07539999999999,52.6542,175,75
2026-05-07 18:34:23.688,5,-2.0,-1.15,0.64,76.7868,-219.1254,34.3142,175,75
2026-05-07 18:34:23.688,5,-2.0,-1.06,1.74,88.2468,-242.6254,15.4542,175,75
2026-05-07 18:34:23.699,5,-1.97,-0.95,2.0,53.4268,-234.8754,-6.6158,175,75
2026-05-07 18:34:23.717,5,-2.0,-0.76,1.76,38.1368,-252.6154,-99.6358,175,75
2026-05-07 18:34:23.718,5,-1.88,-0.5,0.95,57.696799999999996,-252.6154,-147.8558,175,75
2026-05-07 18:34:23.737,5,-1.46,-0.33,0.82,82.2268,-252.6154,-134.6758,175,75
2026-05-07 18:34:23.737,5,-1.11,-0.13,0.91,106.1668,-252.6154,-93.9358,175,75
2026-05-07 18:34:23.748,5,-0.75,0.14,1.11,119.71679999999999,-252.6154,-65.7958,175,75
2026-05-07 18:34:23.776,5,-0.3,0.28,1.27,78.60679999999999,-196.3454,-59.6758,175,75
2026-05-07 18:34:23.788,5,-0.15,0.2,1.25,50.5868,-125.5654,-43.3558,175,75
2026-05-07 18:34:23.788,5,-0.09,0.05,1.2,26.4568,-50.4254,-17.5658,175,75
2026-05-07 18:34:23.800,5,-0.2,-0.1,1.14,13.556799999999999,19.174599999999998,13.104199999999999,175,75
2026-05-07 18:34:23.811,5,-0.53,-0.17,1.18,8.0068,67.5746,31.3042,175,75
2026-05-07 18:34:23.825,5,-0.96,-0.22,1.32,8.5368,81.08460000000001,18.3542,175,75
2026-05-07 18:34:23.837,5,-1.25,-0.31,1.43,16.3968,66.7746,-19.6358,175,75
2026-05-07 18:34:23.837,5,-1.4,-0.36,1.41,29.486800000000002,39.6646,-52.5558,175,75
2026-05-07 18:34:23.848,5,-1.48,-0.31,1.33,48.5868,1.2546,-66.3258,175,75
2026-05-07 18:34:23.862,5,-1.53,-0.13,1.34,67.0968,-44.0954,-68.5458,175,75
2026-05-07 18:34:23.871,5,-1.5,0.1,1.43,77.8068,-101.0954,-64.5358,175,75
2026-05-07 18:34:23.880,5,-1.26,0.28,1.5,78.7068,-163.1254,-47.4658,175,75
2026-05-07 18:34:23.890,5,-0.96,0.3,1.44,76.32679999999999,-218.55540000000002,-15.0458,175,75
2026-05-07 18:34:23.901,5,-0.72,0.25,1.28,74.1168,-252.6154,18.804199999999998,175,75
2026-05-07 18:34:23.911,5,-0.56,0.18,1.08,76.18679999999999,-252.6154,42.5342,175,75
2026-05-07 18:34:23.922,5,-0.29,0.13,0.88,79.1968,-252.6154,61.7642,175,75
2026-05-07 18:34:23.932,5,-0.5,0.12,0.76,69.85679999999999,-252.6154,66.3342,175,75
2026-05-07 18:34:23.944,5,-0.03,0.15,0.52,59.2568,-252.6154,58.4542,175,75
2026-05-07 18:34:23.956,5,0.22,0.09,0.3,51.1368,-252.6154,33.3642,175,75
2026-05-07 18:34:23.966,5,0.39,0.11,-0.06,49.626799999999996,-252.6154,14.234200000000001,175,75
2026-05-07 18:34:23.966,5,0.62,0.13,-0.23,58.096799999999995,-252.6154,41.3542,175,75
2026-05-07 18:34:23.977,5,0.86,0.15,-0.63,51.2568,-252.6154,19.894199999999998,175,75
2026-05-07 18:34:24.002,5,1.86,0.05,-1.25,9.1368,-184.1354,-77.9058,175,75
2026-05-07 18:34:24.016,5,0.46,0.23,-1.25,11.8468,-126.5354,-101.1658,175,75
2026-05-07 18:34:24.026,5,-0.29,0.16,-1.0,0.7168000000000001,-165.0754,-101.5258,175,75
2026-05-07 18:34:24.027,5,-0.58,-0.01,-0.84,-8.9032,-232.5154,-87.6858,175,75
2026-05-07 18:34:24.040,5,-0.85,0.09,-0.87,-5.8832,-252.6154,-71.5458,175,75
2026-05-07 18:34:24.054,5,-0.57,-0.08,-0.38,1.1168,-252.6154,-44.1558,175,75
2026-05-07 18:34:24.062,5,-0.42,-0.04,-0.25,0.42680000000000007,-243.21540000000002,-76.6758,175,75
2026-05-07 18:34:24.070,5,-0.09,-0.12,-0.02,12.6068,-155.4254,-72.0158,175,75
2026-05-07 18:34:24.082,5,0.07,-0.05,0.05,25.0668,-38.0054,-60.2558,175,75
2026-05-07 18:34:24.092,5,0.11,0.08,0.13,31.5268,83.25460000000001,-41.6458,175,75
2026-05-07 18:34:24.097,5,0.21,0.21,0.26,22.716800000000003,205.1546,-22.7758,175,75
2026-05-07 18:34:24.116,5,0.66,0.32,0.44,1.8068,247.6546,-2.6658,175,75
2026-05-07 18:34:24.131,5,2.0,0.77,0.74,-112.31320000000001,247.6546,88.6442,175,75
2026-05-07 18:34:24.146,5,2.0,1.61,2.0,-242.32319999999999,247.6546,247.4442,175,75
2026-05-07 18:34:24.157,5,2.0,2.0,2.0,-248.02319999999997,247.6546,247.4442,175,75
2026-05-07 18:34:24.157,5,-2.0,-1.76,2.0,-248.02319999999997,247.6546,247.4442,175,75
2026-05-07 18:34:24.169,5,-2.0,-0.3,0.61,-157.7232,247.6546,247.4442,175,75
2026-05-07 18:34:24.184,5,-2.0,-1.4,-1.11,-10.6432,247.6546,247.4442,175,75
2026-05-07 18:34:24.199,5,-2.0,-1.49,-1.05,114.1268,247.6546,-105.0858,175,75
2026-05-07 18:34:24.210,5,-2.0,-0.98,-0.42,252.2468,57.6046,-252.8258,175,75
2026-05-07 18:34:24.232,5,1.97,2.0,2.0,147.67680000000001,-69.4854,-124.5758,175,75
2026-05-07 18:34:24.244,5,-2.0,1.56,2.0,-83.7132,-252.6154,247.4442,175,75
2026-05-07 18:34:24.255,5,-2.0,-0.0,1.08,-61.9032,-252.6154,159.1242,175,75
2026-05-07 18:34:24.266,5,-2.0,-0.02,1.32,-31.673199999999998,-252.6154,67.6742,175,75
2026-05-07 18:34:24.277,5,-1.55,-0.46,1.01,-32.9232,-252.6154,175.0542,175,75
2026-05-07 18:34:24.287,5,-0.71,-0.87,0.65,-12.7232,-252.6154,247.4442,175,75
2026-05-07 18:34:24.300,5,-0.09,-0.6,0.61,2.2468,-252.6154,247.4442,175,75
2026-05-07 18:34:24.310,5,-0.24,-0.33,-0.29,14.7668,-252.6154,247.4442,175,75
2026-05-07 18:34:24.326,5,-0.71,-0.71,-0.79,-40.763200000000005,-252.6154,247.4442,175,75
2026-05-07 18:34:24.329,5,-0.63,-0.95,-1.27,-60.8532,-252.6154,247.4442,175,75
2026-05-07 18:34:24.363,5,-1.21,-0.72,-1.25,-37.2532,-5.7454,-252.8258,175,75
2026-05-07 18:34:24.373,5,-1.35,-0.52,-0.93,-1.2532,-124.1454,-252.8258,175,75
2026-05-07 18:34:24.378,5,-1.05,0.02,-0.54,2.2268,-210.8654,-252.8258,175,75
2026-05-07 18:34:24.397,5,-0.43,0.51,-0.04,-77.03320000000001,-220.3654,-252.8258,175,75
2026-05-07 18:34:24.417,5,0.28,0.71,0.23,-122.6932,-138.52540000000002,-252.8258,175,75
2026-05-07 18:34:24.428,5,2.0,1.15,0.49,-173.4332,66.55460000000001,-252.8258,175,75
2026-05-07 18:34:24.442,5,2.0,0.8,0.74,-248.02319999999997,247.6546,-238.1058,175,75
2026-05-07 18:34:24.453,5,2.0,0.62,0.6,-248.02319999999997,247.6546,-196.1858,175,75
2026-05-07 18:34:24.468,5,1.92,1.97,0.86,-248.02319999999997,247.6546,247.4442,175,75
2026-05-07 18:34:24.479,5,-1.5,0.73,-0.39,-248.02319999999997,247.6546,247.4442,175,75
2026-05-07 18:34:24.492,5,-2.0,-2.0,1.78,-231.5632,247.6546,247.4442,175,75
2026-05-07 18:34:24.505,5,-2.0,-1.84,-0.33,-127.03320000000001,247.6546,210.7842,175,75
2026-05-07 18:34:24.517,5,-2.0,-1.95,-1.01,20.1768,247.6546,2.0542000000000002,175,75
2026-05-07 18:34:24.527,5,-2.0,-1.98,-0.93,180.9068,165.0246,-120.8958,175,75
2026-05-07 18:34:24.539,5,-2.0,-1.49,-0.21,252.2468,-16.3154,-177.8458,175,75
2026-05-07 18:34:24.539,5,-2.0,-1.15,1.88,252.2468,-71.74539999999999,-181.5758,175,75
2026-05-07 18:34:24.566,5,-0.93,0.79,2.0,233.42680000000001,-252.6154,-177.8958,175,75
2026-05-07 18:34:24.576,5,-1.59,0.7,1.0,225.13680000000002,-252.6154,-171.0358,175,75
2026-05-07 18:34:24.576,5,-1.28,0.59,0.53,215.67680000000001,-252.6154,-217.0358,175,75
2026-05-07 18:34:24.588,5,-1.0,0.61,0.25,212.9668,-252.6154,-213.7758,175,75
2026-05-07 18:34:24.599,5,-0.79,0.55,-0.13,217.0968,-252.6154,-213.6058,175,75
2026-05-07 18:34:24.616,5,-0.68,0.51,-0.45,221.4968,-252.6154,-226.3958,175,75
2026-05-07 18:34:24.619,5,-0.03,0.59,-0.79,220.8168,-252.6154,-234.7958,175,75
2026-05-07 18:34:24.631,5,0.85,0.98,-1.79,194.3368,-252.6154,-184.7658,175,75
2026-05-07 18:34:24.642,5,2.0,2.0,-2.0,252.2468,-252.6154,247.4442,175,75
2026-05-07 18:34:24.651,5,-1.21,1.86,-1.61,252.2468,-252.6154,247.4442,175,75
2026-05-07 18:34:24.657,5,-1.49,1.06,-1.21,252.2468,-252.6154,247.4442,175,75
2026-05-07 18:34:24.673,5,-1.09,0.14,-1.12,185.92680000000001,-252.6154,247.4442,175,75
2026-05-07 18:34:24.686,5,-1.34,-0.29,-1.77,138.42680000000001,-252.6154,184.9942,175,75
2026-05-07 18:34:24.697,5,-0.42,-0.57,-0.29,86.6468,-180.6054,65.7542,175,75
2026-05-07 18:34:24.700,5,-0.08,-0.63,0.06,42.3268,-19.6554,-6.9558,175,75
2026-05-07 18:34:24.712,5,0.32,-0.56,0.4,10.9968,173.28459999999998,-56.4158,175,75
2026-05-07 18:34:24.723,5,0.72,-0.31,0.64,-27.7732,247.6546,-97.8258,175,75
2026-05-07 18:34:24.734,5,1.12,-0.27,0.49,-67.1232,247.6546,-116.6258,175,75
2026-05-07 18:34:24.747,5,1.5,-0.08,0.41,-120.8632,247.6546,-134.6558,175,75
2026-05-07 18:34:24.754,5,2.0,0.11,0.66,-176.83319999999998,247.6546,-190.4758,175,75
2026-05-07 18:34:24.763,5,2.0,1.02,2.0,-248.02319999999997,247.6546,-139.3558,175,75
2026-05-07 18:34:24.768,5,1.52,0.27,2.0,-248.02319999999997,247.6546,247.4442,175,75
2026-05-07 18:34:24.778,5,0.2,0.16,1.63,-248.02319999999997,247.6546,195.6242,175,75
2026-05-07 18:34:24.794,5,-2.0,-1.28,-0.27,-168.2232,247.6546,-160.0658,175,75
2026-05-07 18:34:24.805,5,-2.0,-1.25,-0.84,-98.0932,247.6546,-252.8258,175,75
2026-05-07 18:34:24.818,5,-2.0,-1.87,-1.04,-12.1432,247.6546,-252.8258,175,75
2026-05-07 18:34:24.828,5,-2.0,-1.84,-0.78,84.8968,142.9646,-106.8558,175,75
2026-05-07 18:34:24.828,5,-2.0,-0.85,1.12,116.8768,-181.77540000000002,41.3942,175,75
2026-05-07 18:34:24.840,5,-2.0,1.32,2.0,-58.403200000000005,-252.6154,145.4242,175,75
2026-05-07 18:34:24.850,5,-2.0,-0.72,1.97,-33.4232,-252.6154,68.5242,175,75
2026-05-07 18:34:24.865,5,-2.0,-0.59,0.65,-11.843200000000001,-252.6154,-31.7258,175,75
2026-05-07 18:34:24.877,5,-2.0,-0.65,0.23,26.166800000000002,-252.6154,-72.2158,175,75
2026-05-07 18:34:24.887,5,-1.29,-0.55,0.14,64.8468,-252.6154,-68.1258,175,75
2026-05-07 18:34:24.903,5,-0.6,-0.35,-0.22,133.16680000000002,-252.6154,-24.7558,175,75
2026-05-07 18:34:24.912,5,-0.3,-0.03,-0.41,160.94680000000002,-252.6154,-24.4858,175,75
2026-05-07 18:34:24.930,5,0.38,0.03,-1.53,183.7168,-252.6154,-29.0558,175,75
2026-05-07 18:34:24.957,5,2.0,1.28,-2.0,252.2468,-174.0354,247.4442,175,75
2026-05-07 18:34:24.957,5,0.4,1.23,-2.0,252.2468,-75.5054,247.4442,175,75
2026-05-07 18:34:24.983,5,-2.0,-0.16,-0.94,146.1568,-49.1654,71.5342,175,75
2026-05-07 18:34:24.989,5,-2.0,0.04,-0.53,91.7768,-162.55540000000002,-45.0558,175,75
2026-05-07 18:34:25.003,5,-1.59,0.01,-0.4,7.726800000000001,-226.1954,-129.5258,175,75
2026-05-07 18:34:25.018,5,-0.65,-0.25,-0.44,-69.4632,-217.15540000000001,-203.6158,175,75
2026-05-07 18:34:25.018,5,0.55,-0.64,-0.51,-105.5232,-73.2354,-252.8258,175,75
2026-05-07 18:34:25.030,5,1.53,-0.67,-0.37,-96.53320000000001,135.9646,-252.8258,175,75
2026-05-07 18:34:25.041,5,1.57,-0.41,0.41,-88.9432,247.6546,-252.8258,175,75
2026-05-07 18:34:25.057,5,2.0,-0.26,1.23,-100.2432,247.6546,-252.8258,175,75
2026-05-07 18:34:25.068,5,2.0,1.39,2.0,-215.4632,247.6546,-233.3458,175,75
2026-05-07 18:34:25.068,5,2.0,0.25,2.0,-248.02319999999997,-252.6154,247.4442,175,75
2026-05-07 18:34:25.082,5,2.0,-0.38,2.0,-248.02319999999997,83.55460000000001,132.6242,175,75
2026-05-07 18:34:25.093,5,2.0,-0.44,2.0,-248.02319999999997,247.6546,62.02419999999999,175,75
2026-05-07 18:34:25.103,5,0.3,-0.91,2.0,-227.79319999999998,247.6546,-99.61580000000001,175,75
2026-05-07 18:34:25.117,5,-2.0,-2.0,2.0,-52.0032,247.6546,-252.8258,175,75
2026-05-07 18:34:25.133,5,-1.6,-1.58,2.0,90.4968,247.6546,-252.8258,175,75
2026-05-07 18:34:25.134,5,-2.0,-0.89,2.0,240.1168,247.6546,-252.8258,175,75
2026-05-07 18:34:25.147,5,-2.0,0.06,2.0,252.2468,216.91459999999998,-252.8258,175,75
2026-05-07 18:34:25.159,5,-2.0,0.99,2.0,252.2468,27.0446,-252.8258,175,75
2026-05-07 18:34:25.177,5,-1.7,1.2,2.0,154.72680000000003,-252.6154,-182.5758,175,75
2026-05-07 18:34:25.188,5,-0.65,0.91,1.82,135.7468,-252.6154,-59.7158,175,75
2026-05-07 18:34:25.188,5,-0.11,0.8,1.61,123.3068,-252.6154,44.0442,175,75
2026-05-07 18:34:25.198,5,0.16,0.63,1.29,114.0668,-252.6154,114.6242,175,75
2026-05-07 18:34:25.208,5,0.42,0.63,1.0,110.4568,-252.6154,170.2442,175,75
2026-05-07 18:34:25.224,5,0.75,0.44,0.75,107.6768,-252.6154,247.4442,175,75
2026-05-07 18:34:25.235,5,0.83,0.6,0.44,105.3868,-252.6154,247.4442,175,75
2026-05-07 18:34:25.258,5,1.79,0.5,-0.52,65.0968,-252.6154,247.4442,175,75
2026-05-07 18:34:25.258,5,2.0,0.19,-1.33,70.3768,-232.74540000000002,247.4442,175,75
2026-05-07 18:34:25.269,5,1.22,0.1,-1.45,45.7868,-63.7754,247.4442,175,75
2026-05-07 18:34:25.288,5,-0.18,-0.77,0.44,28.216800000000003,-25.9954,125.54419999999999,175,75
2026-05-07 18:34:25.290,5,-0.74,-0.08,-0.84,-19.1532,-50.9254,28.2842,175,75
2026-05-07 18:34:25.301,5,-0.93,-0.23,-0.7,-34.8632,-102.63539999999999,-44.9258,175,75
2026-05-07 18:34:25.319,5,-1.08,-0.28,-0.62,-39.013200000000005,-154.7554,-102.9958,175,75
2026-05-07 18:34:25.331,5,-0.68,-0.15,-0.14,-42.9532,-202.58540000000002,-170.1858,175,75
2026-05-07 18:34:25.343,5,-0.48,-0.21,0.04,-51.6732,-162.7654,-190.2558,175,75
2026-05-07 18:34:25.355,5,-0.13,-0.26,0.18,-57.5032,-92.0954,-187.9258,175,75
2026-05-07 18:34:25.374,5,0.04,-0.23,0.19,-48.2532,118.16460000000001,-145.4758,175,75
2026-05-07 18:34:25.387,5,-0.03,-0.06,0.12,-43.6432,206.78459999999998,-151.0258,175,75
2026-05-07 18:34:25.399,5,0.63,0.24,0.02,-65.6332,247.6546,-174.8758,175,75
2026-05-07 18:34:25.418,5,1.11,0.7,-0.12,-97.4032,247.6546,-154.6258,175,75
2026-05-07 18:34:25.429,5,1.0,0.65,-0.27,-128.2432,247.6546,-121.0358,175,75
2026-05-07 18:34:25.429,5,0.43,0.73,-0.28,-135.05319999999998,247.6546,-31.5858,175,75
2026-05-07 18:34:25.445,5,0.26,-0.75,0.05,-32.443200000000004,247.6546,247.4442,175,75
2026-05-07 18:34:25.452,5,-0.13,0.97,1.07,-12.7932,51.434599999999996,247.4442,175,75
2026-05-07 18:34:25.468,5,-0.19,0.17,0.59,-12.4832,30.2746,247.4442,175,75
2026-05-07 18:34:25.468,5,-0.14,-0.17,0.29,-4.9132,31.3146,227.2342,175,75
2026-05-07 18:34:25.479,5,-0.47,-0.97,0.04,8.4368,18.924599999999998,200.1342,175,75
2026-05-07 18:34:25.493,5,-0.29,-0.4,0.22,17.1168,-0.8154000000000001,199.5542,175,75
2026-05-07 18:34:25.504,5,-0.47,-0.33,0.28,24.7468,-27.4454,162.4342,175,75
2026-05-07 18:34:25.516,5,-0.61,-0.12,0.49,20.556800000000003,-38.8254,66.0042,175,75
2026-05-07 18:34:25.538,5,0.03,-0.02,1.1,-50.723200000000006,-66.2354,-118.0858,175,75
2026-05-07 18:34:25.549,5,0.48,-0.06,1.53,-99.3232,-64.16539999999999,-178.9458,175,75
2026-05-07 18:34:25.549,5,0.81,-0.16,1.83,-125.2332,-44.1054,-224.3458,175,75
2026-05-07 18:34:25.559,5,1.35,-0.03,2.0,-136.70319999999998,12.5946,-237.7958,175,75
2026-05-07 18:34:25.581,5,2.0,0.25,2.0,-172.3832,247.6546,-199.1758,175,75
2026-05-07 18:34:25.593,5,1.95,0.19,2.0,-183.70319999999998,247.6546,-157.5458,175,75
2026-05-07 18:34:25.605,5,1.12,-0.21,1.73,-129.04319999999998,247.6546,-69.86580000000001,175,75
2026-05-07 18:34:25.617,5,-0.41,-0.46,1.22,-23.9132,247.6546,27.3542,175,75
2026-05-07 18:34:25.617,5,-1.89,-0.16,0.99,44.9768,247.6546,39.0042,175,75
2026-05-07 18:34:25.640,5,-2.0,0.34,1.48,21.3668,247.6546,-38.0558,175,75
2026-05-07 18:34:25.655,5,-2.0,0.58,1.97,-46.943200000000004,208.0846,-28.3058,175,75
2026-05-07 18:34:25.668,5,-2.0,0.32,2.0,-139.9332,-75.88539999999999,-1.9658,175,75
2026-05-07 18:34:25.681,5,-2.0,-0.26,2.0,-117.9932,-146.1754,104.8442,175,75
2026-05-07 18:34:25.692,5,-2.0,-0.67,1.8,-69.2532,-205.4554,233.2942,175,75
2026-05-07 18:34:25.704,5,-2.0,-0.72,1.67,-28.0032,-252.6154,247.4442,175,75
2026-05-07 18:34:25.710,5,-2.0,-0.73,1.76,-8.8332,-252.6154,247.4442,175,75
2026-05-07 18:34:25.722,5,-2.0,-0.76,1.75,-3.3732,-252.6154,142.4842,175,75
2026-05-07 18:34:25.748,5,-0.99,-0.74,1.44,1.1368,-252.6154,60.5842,175,75
2026-05-07 18:34:25.748,5,-0.34,-0.77,1.17,21.8668,-252.6154,49.6542,175,75
2026-05-07 18:34:25.764,5,-0.15,-0.66,1.02,50.3268,-252.6154,49.9342,175,75
2026-05-07 18:34:25.764,5,-0.16,-0.49,0.82,72.5168,-252.6154,36.3342,175,75
2026-05-07 18:34:25.777,5,-0.16,-0.26,0.65,85.1668,-252.6154,11.7442,175,75
2026-05-07 18:34:25.789,5,0.45,0.07,0.47,78.1268,-252.6154,-77.3558,175,75
2026-05-07 18:34:25.808,5,0.48,0.15,0.42,66.35679999999999,-252.6154,-97.0258,175,75
2026-05-07 18:34:25.808,5,0.57,0.23,0.35,52.026799999999994,-229.8454,-103.5758,175,75
2026-05-07 18:34:25.819,5,0.69,0.18,0.22,38.5768,-179.2954,-102.2258,175,75
2026-05-07 18:34:25.829,5,0.7,0.07,0.05,31.8868,-139.7254,-86.9558,175,75
2026-05-07 18:34:25.840,5,0.59,0.14,-0.14,29.1368,-115.07539999999999,-63.2958,175,75
2026-05-07 18:34:25.855,5,0.52,0.19,-0.21,30.1968,-89.2054,-22.5758,175,75
2026-05-07 18:34:25.866,5,0.44,0.21,-0.27,21.3568,-73.7054,-1.8058,175,75
2026-05-07 18:34:25.877,5,0.15,0.38,-0.36,29.256800000000002,-67.32539999999999,-1.9258,175,75
2026-05-07 18:34:25.888,5,-0.04,0.18,-0.24,22.2468,-70.93539999999999,-9.8558,175,75
2026-05-07 18:34:25.893,5,-0.14,0.1,-0.24,23.3668,-81.33539999999999,-19.6358,175,75
2026-05-07 18:34:25.910,5,-0.18,-0.06,-0.2,34.196799999999996,-100.55539999999999,-24.7358,175,75
2026-05-07 18:34:25.920,5,-0.23,-0.05,-0.18,41.166799999999995,-106.2654,-18.855800000000002,175,75
2026-05-07 18:34:25.931,5,-0.19,-0.09,-0.1,42.7268,-106.1754,-8.4358,175,75
2026-05-07 18:34:25.942,5,-0.17,-0.07,-0.04,38.3968,-98.4854,2.9141999999999997,175,75
2026-05-07 18:34:25.958,5,-0.07,-0.04,0.04,27.716800000000003,-77.16539999999999,15.7242,175,75
2026-05-07 18:34:25.958,5,-0.02,0.04,0.1,14.396799999999999,-36.3254,29.2642,175,75
2026-05-07 18:34:25.968,5,0.02,0.04,0.09,2.1968,15.2346,24.1942,175,75
2026-05-07 18:34:25.979,5,0.06,0.06,0.05,-2.9831999999999996,70.7346,12.9442,175,75
2026-05-07 18:34:25.991,5,0.12,0.14,0.05,-7.6732,127.86460000000001,-3.8457999999999997,175,75
2026-05-07 18:34:26.001,5,0.12,0.23,0.06,-14.533199999999999,177.4246,-15.9558,175,75
2026-05-07 18:34:26.018,5,0.16,0.3,0.1,-26.5232,223.25459999999998,-33.8658,175,75
2026-05-07 18:34:26.029,5,0.2,0.42,0.17,-51.3432,247.6546,-53.8758,175,75
2026-05-07 18:34:26.049,5,0.0,0.12,0.38,-64.4632,247.6546,-45.6258,175,75
2026-05-07 18:34:26.061,5,0.05,0.23,0.42,-80.2532,247.6546,-26.285800000000002,175,75
2026-05-07 18:34:26.072,5,0.26,0.15,0.56,-101.6332,247.6546,33.0342,175,75
2026-05-07 18:34:26.089,5,0.38,-0.0,0.65,-125.1632,247.6546,125.0942,175,75
2026-05-07 18:34:26.089,5,0.28,0.18,0.74,-151.2532,247.6546,247.4242,175,75
2026-05-07 18:34:26.099,5,0.11,0.17,0.79,-169.1932,247.6546,247.4442,175,75
2026-05-07 18:34:26.117,5,-0.62,0.26,1.27,-211.83319999999998,247.6546,247.4442,175,75
2026-05-07 18:34:26.117,5,-1.62,-0.33,1.99,-204.0932,247.6546,247.4442,175,75
2026-05-07 18:34:26.130,5,-2.0,-1.76,2.0,-145.05319999999998,247.6546,91.9142,175,75
2026-05-07 18:34:26.141,5,-2.0,-0.81,1.5,-91.67320000000001,247.6546,-57.3958,175,75
2026-05-07 18:34:26.151,5,-2.0,-1.36,0.73,-78.67320000000001,247.6546,-164.8258,175,75
2026-05-07 18:34:26.167,5,-2.0,-1.64,0.68,-52.2832,247.6546,-241.3758,175,75
2026-05-07 18:34:26.178,5,-2.0,-1.94,2.0,7.6768,146.5746,-252.8258,175,75
2026-05-07 18:34:26.178,5,-2.0,-1.51,2.0,58.1768,-37.6254,-221.7958,175,75
2026-05-07 18:34:26.189,5,-2.0,-0.87,1.69,108.3868,-188.3154,-201.9158,175,75
2026-05-07 18:34:26.201,5,-2.0,-0.37,1.4,139.95680000000002,-252.6154,-218.3758,175,75
2026-05-07 18:34:26.209,5,-2.0,0.13,1.26,151.7468,-252.6154,-241.4858,175,75
2026-05-07 18:34:26.221,5,-2.0,0.55,0.97,146.0868,-252.6154,-252.8258,175,75
2026-05-07 18:34:26.240,5,-1.55,1.1,0.23,154.10680000000002,-252.6154,-252.8258,175,75
2026-05-07 18:34:26.257,5,-0.84,1.02,-0.79,239.0968,-252.6154,-252.8258,175,75
2026-05-07 18:34:26.272,5,0.69,2.0,-1.95,252.2468,-252.6154,-252.8258,175,75
2026-05-07 18:34:26.283,5,2.0,2.0,-2.0,252.2468,-252.6154,2.5841999999999996,175,75
2026-05-07 18:34:26.295,5,2.0,1.13,-0.27,252.2468,-252.6154,247.4442,175,75
2026-05-07 18:34:26.301,5,0.88,1.63,-1.66,252.2468,-252.6154,247.4442,175,75
2026-05-07 18:34:26.315,5,0.43,0.38,-1.11,252.2468,-252.6154,247.4442,175,75
2026-05-07 18:34:26.318,5,0.41,-0.68,-0.68,167.8468,-93.91539999999999,182.8142,175,75
2026-05-07 18:34:26.352,5,0.39,-0.37,0.37,10.306799999999999,247.6546,7.744199999999999,175,75
2026-05-07 18:34:26.363,5,0.34,-0.03,0.5,-54.5432,247.6546,-39.3158,175,75
2026-05-07 18:34:26.367,5,0.13,0.09,0.55,-115.5832,247.6546,-135.1258,175,75
2026-05-07 18:34:26.393,5,-1.77,-1.34,2.0,-45.333200000000005,247.6546,-252.8258,175,75
2026-05-07 18:34:26.407,5,1.54,1.74,2.0,-38.8432,-16.165399999999998,-252.8258,175,75
2026-05-07 18:34:26.411,5,0.49,1.31,2.0,-186.8832,59.0246,-252.8258,175,75
2026-05-07 18:34:26.427,5,0.72,2.0,1.62,-248.02319999999997,212.1546,-252.8258,175,75
2026-05-07 18:34:26.448,5,-0.34,-0.72,0.45,-248.02319999999997,247.6546,-252.8258,175,75
2026-05-07 18:34:26.448,5,-0.93,-0.54,0.54,-175.0032,247.6546,-252.8258,175,75
2026-05-07 18:34:26.459,5,-1.26,0.03,0.99,-103.1532,226.7646,-229.0958,175,75
2026-05-07 18:34:26.470,5,-1.39,1.01,1.89,-68.7332,174.2346,-165.2058,175,75
2026-05-07 18:34:26.484,5,-1.33,0.8,2.0,-69.0032,133.1046,-119.0658,175,75
2026-05-07 18:34:26.496,5,-1.36,0.85,2.0,-77.2932,86.6046,-71.6558,175,75
2026-05-07 18:34:26.507,5,-1.01,0.23,1.46,-74.8532,-46.1154,70.2042,175,75
2026-05-07 18:34:26.524,5,-0.61,0.11,1.52,-72.5732,-109.82539999999999,158.3542,175,75
2026-05-07 18:34:26.538,5,-0.47,-0.16,1.33,-61.233200000000004,-160.0454,228.1642,175,75
2026-05-07 18:34:26.549,5,-0.52,-0.34,1.16,-37.5032,-203.90540000000001,247.4442,175,75
2026-05-07 18:34:26.561,5,-0.89,-0.25,1.17,-22.493199999999998,-252.6154,247.4442,175,75
2026-05-07 18:34:26.577,5,-0.47,-0.5,0.56,-30.323199999999996,-252.6154,81.6442,175,75
2026-05-07 18:34:26.587,5,-0.03,-0.47,0.15,-27.0932,-252.6154,17.2742,175,75
2026-05-07 18:34:26.600,5,0.17,-0.43,-0.57,11.5068,-252.6154,-56.775800000000004,175,75
2026-05-07 18:34:26.612,5,0.5,-0.44,-1.39,44.1868,-252.6154,-103.8358,175,75
2026-05-07 18:34:26.636,5,0.1,-0.09,-1.32,34.9368,-233.7854,-252.8258,175,75
2026-05-07 18:34:26.646,5,-0.44,0.12,-0.91,19.1568,-252.6154,-252.8258,175,75
2026-05-07 18:34:26.658,5,-0.39,0.26,-0.61,-10.6132,-252.6154,-252.8258,175,75
2026-05-07 18:34:26.658,5,-0.26,0.45,-0.22,-60.5732,-252.6154,-252.8258,175,75
2026-05-07 18:34:26.670,5,-0.23,0.59,0.01,-116.6632,-247.1454,-252.8258,175,75
2026-05-07 18:34:26.687,5,-0.25,0.58,0.07,-175.02319999999997,-191.9154,-252.8258,175,75
2026-05-07 18:34:26.692,5,0.14,0.32,0.05,-213.82319999999999,-119.5354,-252.8258,175,75
2026-05-07 18:34:26.711,5,0.79,0.04,0.05,-222.6032,85.91460000000001,-155.3558,175,75
2026-05-07 18:34:26.727,5,1.0,0.13,0.21,-227.9932,221.53459999999998,-90.36580000000001,175,75
2026-05-07 18:34:26.737,5,1.17,0.29,0.44,-245.5332,247.6546,-34.2758,175,75
2026-05-07 18:34:26.747,5,1.5,0.37,0.44,-248.02319999999997,247.6546,5.924199999999999,175,75
2026-05-07 18:34:26.759,5,1.7,0.07,0.43,-248.02319999999997,247.6546,18.2342,175,75
2026-05-07 18:34:26.760,5,2.0,-0.01,0.44,-248.02319999999997,247.6546,9.4142,175,75
2026-05-07 18:34:26.772,5,2.0,2.0,2.0,-248.02319999999997,247.6546,247.4442,175,75
2026-05-07 18:34:26.782,5,-0.63,-1.69,2.0,-146.9632,247.6546,247.4442,175,75
2026-05-07 18:34:26.789,5,-1.78,-1.22,0.98,-33.8632,247.6546,44.8342,175,75
2026-05-07 18:34:26.804,5,-2.0,-1.41,-0.41,92.4568,247.6546,-197.5858,175,75
2026-05-07 18:34:26.811,5,-2.0,-1.58,-0.81,210.1468,247.6546,-252.8258,175,75
2026-05-07 18:34:26.824,5,-2.0,-1.4,-0.8,252.2468,247.6546,-252.8258,175,75
2026-05-07 18:34:26.840,5,-2.0,2.0,2.0,188.0268,-199.8454,33.974199999999996,175,75
2026-05-07 18:34:26.851,5,-2.0,0.8,2.0,36.946799999999996,-252.6154,159.0442,175,75
2026-05-07 18:34:26.862,5,-2.0,0.5,1.25,1.7168,-252.6154,67.8042,175,75
2026-05-07 18:34:26.873,5,-1.3,0.04,1.03,-5.0931999999999995,-252.6154,30.2742,175,75
2026-05-07 18:34:26.884,5,-0.32,-0.35,0.65,12.7468,-252.6154,83.9742,175,75
2026-05-07 18:34:26.895,5,0.48,-0.74,0.16,56.416799999999995,-252.6154,162.1242,175,75
2026-05-07 18:34:26.908,5,0.46,-0.61,-0.07,108.7868,-252.6154,247.4442,175,75
2026-05-07 18:34:26.911,5,0.31,-0.5,-0.36,123.9968,-252.6154,247.4442,175,75
2026-05-07 18:34:26.921,5,0.55,-0.49,-0.36,106.1468,-252.6154,247.4442,175,75
2026-05-07 18:34:26.934,5,2.0,-1.45,-2.0,98.3668,-252.6154,145.4642,175,75
2026-05-07 18:34:26.944,5,2.0,-1.49,-1.59,95.8468,100.67460000000001,-171.9158,175,75
2026-05-07 18:34:26.955,5,0.46,-0.63,-0.08,85.8368,161.1546,-113.0758,175,75
2026-05-07 18:34:26.959,5,0.19,-0.23,0.48,58.196799999999996,195.7346,-63.275800000000004,175,75
2026-05-07 18:34:26.975,5,0.3,-0.02,0.87,19.036800000000003,247.6546,-99.86580000000001,175,75
2026-05-07 18:34:26.987,5,0.19,0.03,1.06,-33.0332,247.6546,-203.1858,175,75
2026-05-07 18:34:26.997,5,-0.08,-0.12,0.98,-73.06320000000001,247.6546,-252.8258,175,75
2026-05-07 18:34:26.997,5,-0.72,-0.56,1.07,-74.2432,247.6546,-252.8258,175,75
2026-05-07 18:34:27.011,5,-1.12,-1.02,2.0,-9.513200000000001,247.6546,-252.8258,175,75
2026-05-07 18:34:27.023,5,0.18,0.04,2.0,21.626800000000003,247.6546,-252.8258,175,75
2026-05-07 18:34:27.034,5,-0.35,-0.36,1.41,50.2168,247.6546,-252.8258,175,75
2026-05-07 18:34:27.045,5,-1.64,-0.28,0.96,97.71679999999999,247.6546,-252.8258,175,75
2026-05-07 18:34:27.050,5,-2.0,-0.01,1.04,142.44680000000002,247.6546,-252.8258,175,75
2026-05-07 18:34:27.073,5,-2.0,0.66,1.58,153.48680000000002,117.25460000000001,-252.8258,175,75
2026-05-07 18:34:27.073,5,-2.0,0.87,1.58,140.41680000000002,-18.8054,-190.5758,175,75
2026-05-07 18:34:27.084,5,-2.0,0.8,1.33,133.07680000000002,-133.24540000000002,-140.8658,175,75
2026-05-07 18:34:27.096,5,-1.59,0.68,1.01,136.91680000000002,-239.8454,-58.0558,175,75
2026-05-07 18:34:27.099,5,-1.1,0.6,0.87,133.94680000000002,-252.6154,30.654200000000003,175,75
2026-05-07 18:34:27.119,5,-0.67,0.54,0.72,124.7668,-252.6154,112.0742,175,75
2026-05-07 18:34:27.119,5,-0.39,0.56,0.66,108.0968,-252.6154,177.6542,175,75
2026-05-07 18:34:27.139,5,0.08,0.38,0.36,101.85679999999999,-252.6154,247.4442,175,75
2026-05-07 18:34:27.149,5,0.26,0.38,0.12,105.32679999999999,-252.6154,247.4442,175,75
2026-05-07 18:34:27.161,5,0.33,0.46,-0.14,95.4768,-252.6154,247.4442,175,75
2026-05-07 18:34:27.161,5,0.5,0.29,-0.66,80.9168,-252.6154,247.4442,175,75
2026-05-07 18:34:27.172,5,0.58,0.05,-1.16,93.1968,-252.6154,247.4442,175,75
2026-05-07 18:34:27.182,5,2.0,-0.28,-2.0,105.3968,-252.6154,247.4442,175,75
2026-05-07 18:34:27.194,5,1.96,-0.74,-2.0,116.8768,11.2346,177.8342,175,75
2026-05-07 18:34:27.209,5,-0.15,-0.44,-1.37,102.6668,26.5346,86.3142,175,75
2026-05-07 18:34:27.219,5,-0.55,-0.23,-1.03,86.46679999999999,-43.815400000000004,89.0542,175,75
2026-05-07 18:34:27.227,5,-0.58,-0.14,-0.22,49.666799999999995,-96.29539999999999,102.6142,175,75
2026-05-07 18:34:27.238,5,-0.3,0.06,0.29,6.0068,-82.49539999999999,97.6942,175,75
2026-05-07 18:34:27.240,5,-0.07,-0.12,0.51,-35.4532,9.7346,94.1642,175,75
2026-05-07 18:34:27.249,5,0.24,-0.19,0.57,-76.2232,131.9846,29.1042,175,75
2026-05-07 18:34:27.275,5,0.78,-0.2,0.64,-106.8732,247.6546,-20.6458,175,75
2026-05-07 18:34:27.275,5,1.45,-0.22,0.95,-127.3232,247.6546,-91.1258,175,75
2026-05-07 18:34:27.288,5,1.83,-0.35,1.02,-135.80319999999998,247.6546,-182.3558,175,75
2026-05-07 18:34:27.288,5,1.56,-0.34,2.0,-135.73319999999998,247.6546,-252.8258,175,75
2026-05-07 18:34:27.302,5,2.0,0.35,2.0,-147.39319999999998,247.6546,-252.8258,175,75
2026-05-07 18:34:27.312,5,1.16,-0.76,1.89,-138.6632,247.6546,-252.8258,175,75
2026-05-07 18:34:27.323,5,-0.6,-1.61,0.33,-53.2832,247.6546,-252.8258,175,75
2026-05-07 18:34:27.336,5,-2.0,-1.2,-0.23,45.3268,247.6546,-252.8258,175,75
2026-05-07 18:34:27.349,5,-2.0,-0.96,-0.19,128.73680000000002,247.6546,-135.2158,175,75
2026-05-07 18:34:27.349,5,-2.0,-0.17,0.56,180.8968,163.9246,-67.6658,175,75
2026-05-07 18:34:27.360,5,-2.0,0.84,1.7,125.4168,-83.52539999999999,-68.1358,175,75
2026-05-07 18:34:27.375,5,-2.0,1.31,2.0,15.6268,-252.6154,-66.5458,175,75
2026-05-07 18:34:27.385,5,-2.0,0.73,1.65,-49.693200000000004,-252.6154,-33.9058,175,75
2026-05-07 18:34:27.395,5,-1.02,0.12,1.07,-40.513200000000005,-252.6154,52.6542,175,75
2026-05-07 18:34:27.406,5,-0.43,-0.15,0.9,-14.5432,-252.6154,166.1042,175,75
2026-05-07 18:34:27.420,5,-0.23,-0.18,0.81,17.6768,-252.6154,247.4442,175,75
2026-05-07 18:34:27.420,5,-0.18,-0.09,0.74,46.2868,-252.6154,247.4442,175,75
2026-05-07 18:34:27.432,5,-0.0,-0.04,0.67,62.1068,-252.6154,247.4442,175,75
2026-05-07 18:34:27.448,5,0.2,-0.02,0.59,59.626799999999996,-252.6154,247.4442,175,75
2026-05-07 18:34:27.464,5,0.41,-0.14,0.37,46.7468,-252.6154,247.4442,175,75
2026-05-07 18:34:27.475,5,0.37,-0.49,0.2,33.6568,-252.6154,247.4442,175,75
2026-05-07 18:34:27.488,5,0.59,-0.75,0.06,28.056800000000003,-252.6154,247.4442,175,75
2026-05-07 18:34:27.497,5,1.5,-1.07,-0.38,37.0668,-252.6154,247.4442,175,75
2026-05-07 18:34:27.509,5,1.32,-1.21,-0.84,44.6368,-59.3954,78.0542,175,75
2026-05-07 18:34:27.509,5,0.24,-0.78,-0.56,48.7168,41.9246,-100.5758,175,75
2026-05-07 18:34:27.520,5,-0.16,-0.38,-0.25,57.306799999999996,80.7346,-214.3258,175,75
2026-05-07 18:34:27.535,5,-0.14,-0.02,0.06,57.7468,108.0146,-252.8258,175,75
2026-05-07 18:34:27.545,5,0.09,0.2,0.32,47.096799999999995,136.8346,-252.8258,175,75
2026-05-07 18:34:27.556,5,0.46,0.34,0.6,20.6868,177.0546,-252.8258,175,75
2026-05-07 18:34:27.567,5,0.92,0.67,0.91,-23.8932,229.0746,-252.8258,175,75
2026-05-07 18:34:27.579,5,1.38,0.94,1.59,-81.9632,208.75459999999998,-252.8258,175,75
2026-05-07 18:34:27.579,5,2.0,1.07,2.0,-129.7232,130.5546,-62.9458,175,75
2026-05-07 18:34:27.598,5,2.0,0.72,2.0,-175.30319999999998,200.1246,60.1542,175,75
2026-05-07 18:34:27.609,5,2.0,-0.06,2.0,-197.9132,247.6546,106.3142,175,75
2026-05-07 18:34:27.609,5,0.88,-0.61,2.0,-171.7132,247.6546,137.7242,175,75
2026-05-07 18:34:27.623,5,-0.5,-1.42,2.0,-95.2232,247.6546,48.2042,175,75
2026-05-07 18:34:27.635,5,-1.41,-1.37,1.38,-29.7032,247.6546,-4.7058,175,75
2026-05-07 18:34:27.656,5,-2.0,-0.67,1.36,94.0468,192.09459999999999,-166.2258,175,75
2026-05-07 18:34:27.674,5,-2.0,0.65,2.0,87.4568,-183.9554,-165.0458,175,75
2026-05-07 18:34:27.681,5,-1.59,0.45,1.77,93.5468,-252.6154,-178.3958,175,75
2026-05-07 18:34:27.698,5,-0.88,0.42,1.56,106.8068,-252.6154,-150.7358,175,75
2026-05-07 18:34:27.702,5,-0.31,0.42,1.49,106.2668,-252.6154,-89.86580000000001,175,75
2026-05-07 18:34:27.719,5,0.08,0.46,1.44,93.8068,-252.6154,-21.1458,175,75
2026-05-07 18:34:27.719,5,0.33,0.48,1.35,82.6468,-252.6154,41.3742,175,75
2026-05-07 18:34:27.729,5,0.56,0.46,1.27,72.4868,-229.4254,104.1442,175,75
2026-05-07 18:34:27.741,5,0.49,0.46,1.31,59.6168,-179.7854,161.3742,175,75
2026-05-07 18:34:27.759,5,0.77,0.5,1.32,35.806799999999996,-124.27539999999999,198.6042,175,75
2026-05-07 18:34:27.759,5,0.76,0.4,1.29,10.396799999999999,-68.04539999999999,224.8742,175,75
2026-05-07 18:34:27.770,5,0.47,0.26,1.24,-5.9232,-46.9854,230.0442,175,75
2026-05-07 18:34:27.800,5,0.34,-0.13,1.2,-14.573200000000002,-60.2354,110.1842,175,75
2026-05-07 18:34:27.800,5,0.39,-0.2,1.01,-0.22319999999999984,-30.7754,33.1042,175,75
2026-05-07 18:34:27.828,5,0.17,0.16,0.8,25.2668,42.1746,-94.5058,175,75
2026-05-07 18:34:27.839,5,0.08,0.3,0.71,30.7668,52.1146,-134.9258,175,75
2026-05-07 18:34:27.851,5,0.03,0.4,0.59,42.0668,31.5946,-139.2858,175,75
2026-05-07 18:34:27.851,5,-0.06,0.53,0.5,56.8568,-14.6754,-121.0758,175,75
2026-05-07 18:34:27.861,5,-0.17,0.52,0.47,62.3568,-52.6554,-108.9858,175,75
2026-05-07 18:34:27.875,5,-0.14,0.53,0.48,50.986799999999995,-70.68539999999999,-102.1358,175,75
2026-05-07 18:34:27.887,5,-0.1,0.42,0.39,32.6068,-76.07539999999999,-76.4458,175,75
2026-05-07 18:34:27.899,5,-0.02,0.3,0.3,16.8468,-80.4054,-34.8958,175,75
2026-05-07 18:34:27.899,5,-0.02,0.17,0.21,6.306800000000001,-84.52539999999999,15.394199999999998,175,75
2026-05-07 18:34:27.910,5,-0.02,0.03,0.09,1.8968,-89.02539999999999,72.3942,175,75
2026-05-07 18:34:27.921,5,-0.1,-0.14,-0.04,8.1668,-95.8754,130.0142,175,75
2026-05-07 18:34:27.929,5,-0.26,0.39,0.13,11.1968,-111.18539999999999,166.5542,175,75
2026-05-07 18:34:27.957,5,-0.29,-0.45,-0.2,55.6168,-161.40540000000001,247.4442,175,75
2026-05-07 18:34:27.969,5,-0.3,-0.42,-0.16,80.6168,-179.2254,247.4442,175,75
2026-05-07 18:34:27.979,5,-0.28,-0.36,-0.06,94.1968,-179.3254,247.4442,175,75
2026-05-07 18:34:27.992,5,-0.21,-0.24,0.07,91.93679999999999,-149.8454,247.4442,175,75
2026-05-07 18:34:28.002,5,-0.12,-0.2,0.15,73.5968,-85.74539999999999,187.0642,175,75
2026-05-07 18:34:28.006,5,0.04,-0.19,0.17,48.1368,0.5246,112.5542,175,75
2026-05-07 18:34:28.017,5,0.27,-0.14,0.13,18.0568,107.9346,24.5342,175,75
2026-05-07 18:34:28.028,5,0.35,-0.08,0.09,-16.443199999999997,219.25459999999998,-77.1658,175,75
2026-05-07 18:34:28.028,5,0.28,-0.06,0.13,-41.833200000000005,247.6546,-153.7958,175,75
2026-05-07 18:34:28.043,5,0.21,0.0,0.24,-52.1832,247.6546,-223.5158,175,75
2026-05-07 18:34:28.052,5,0.48,0.2,0.4,-59.123200000000004,247.6546,-252.8258,175,75
2026-05-07 18:34:28.069,5,0.68,0.21,0.96,-71.03320000000001,247.6546,-252.8258,175,75
2026-05-07 18:34:28.069,5,2.0,2.0,2.0,-106.3532,225.0446,6.584199999999999,175,75
2026-05-07 18:34:28.094,5,1.43,1.69,2.0,-108.9132,193.28459999999998,119.2642,175,75
2026-05-07 18:34:28.094,5,0.31,0.43,1.58,-78.7232,247.6546,41.9142,175,75
2026-05-07 18:34:28.109,5,-0.4,-0.02,0.99,-78.9932,247.6546,-34.8258,175,75
2026-05-07 18:34:28.109,5,-0.92,0.02,0.92,-82.0232,247.6546,-58.7858,175,75
2026-05-07 18:34:28.131,5,-1.07,-0.15,1.32,-177.01319999999998,247.6546,-72.5258,175,75
2026-05-07 18:34:28.144,5,-1.24,-0.48,1.31,-183.0632,247.6546,-29.5258,175,75
2026-05-07 18:34:28.154,5,-1.83,-0.7,1.24,-146.95319999999998,247.6546,27.9742,175,75
2026-05-07 18:34:28.165,5,-2.0,-0.8,1.29,-98.8732,247.6546,60.2642,175,75
2026-05-07 18:34:28.176,5,-2.0,-0.84,1.39,-49.7032,227.75459999999998,51.2042,175,75
2026-05-07 18:34:28.190,5,-2.0,-0.82,1.63,-10.8932,130.28459999999998,0.0242,175,75
2026-05-07 18:34:28.190,5,-2.0,-0.76,1.74,26.6368,24.6546,-51.7158,175,75
2026-05-07 18:34:28.208,5,-2.0,-0.46,1.71,59.5868,-65.3654,-68.9158,175,75
2026-05-07 18:34:28.219,5,-2.0,-0.09,1.73,78.8468,-151.8654,-80.2658,175,75
2026-05-07 18:34:28.229,5,-2.0,0.17,1.7,84.0068,-222.71540000000002,-83.1758,175,75
2026-05-07 18:34:28.229,5,-1.65,0.31,1.56,84.9468,-252.6154,-71.7058,175,75
2026-05-07 18:34:28.241,5,-1.28,0.32,1.34,87.1468,-252.6154,-52.9958,175,75
2026-05-07 18:34:28.252,5,-0.89,0.3,1.14,91.6368,-252.6154,-32.6458,175,75
2026-05-07 18:34:28.264,5,-0.56,0.3,1.01,96.4268,-252.6154,-10.995800000000001,175,75
2026-05-07 18:34:28.272,5,-0.28,0.34,0.95,98.3168,-252.6154,15.0442,175,75
2026-05-07 18:34:28.281,5,0.01,0.37,0.96,93.5468,-252.6154,39.1342,175,75
2026-05-07 18:34:28.302,5,0.27,0.41,0.95,77.5368,-197.4754,81.1542,175,75
2026-05-07 18:34:28.312,5,0.46,0.42,0.87,64.7068,-159.46540000000002,100.5442,175,75
2026-05-07 18:34:28.324,5,0.46,0.37,0.86,48.8368,-118.88539999999999,112.4442,175,75
2026-05-07 18:34:28.344,5,0.45,0.18,0.71,16.9668,-37.1054,128.2642,175,75
2026-05-07 18:34:28.360,5,0.39,0.06,0.63,6.3568,-6.3254,136.9142,175,75
2026-05-07 18:34:28.360,5,0.26,-0.04,0.55,-0.013199999999999878,11.054599999999999,147.1242,175,75
2026-05-07 18:34:28.370,5,0.14,-0.09,0.49,-3.1931999999999996,12.5046,158.3342,175,75
2026-05-07 18:34:28.381,5,0.0,-0.19,0.42,-5.1632,-3.5454,164.8142,175,75
2026-05-07 18:34:28.397,5,-0.13,-0.24,0.35,-3.0832,-31.6254,164.2442,175,75
2026-05-07 18:34:28.404,5,-0.28,-0.02,0.36,-0.4832000000000001,-66.2654,149.2542,175,75
2026-05-07 18:34:28.419,5,-0.39,-0.18,0.19,3.1968,-99.7254,121.1942,175,75
2026-05-07 18:34:28.431,5,-0.51,-0.12,0.07,8.0068,-135.9754,80.2042,175,75
2026-05-07 18:34:28.431,5,-0.67,-0.04,-0.07,9.6068,-179.8554,23.0242,175,75
2026-05-07 18:34:28.444,5,-0.66,-0.05,-0.24,7.4468,-231.7854,-25.5458,175,75
2026-05-07 18:34:28.460,5,-0.44,-0.18,-0.34,35.776799999999994,-252.6154,-58.9558,175,75
2026-05-07 18:34:28.472,5,-0.24,-0.1,-0.43,32.3268,-252.6154,-55.2158,175,75
2026-05-07 18:34:28.483,5,0.09,-0.0,-0.29,13.9668,-252.6154,-41.4958,175,75
2026-05-07 18:34:28.495,5,0.35,0.11,-0.12,-21.693199999999997,-252.6154,-37.5658,175,75
2026-05-07 18:34:28.505,5,0.51,0.21,-0.0,-66.5832,-252.6154,-61.4758,175,75
2026-05-07 18:34:28.510,5,0.3,0.22,-0.01,-102.5432,-166.8754,-121.6658,175,75
2026-05-07 18:34:28.529,5,0.07,0.25,-0.05,-113.0932,-80.0154,-201.1458,175,75
2026-05-07 18:34:28.529,5,0.1,0.35,0.05,-110.7232,-2.3154,-252.8258,175,75
2026-05-07 18:34:28.544,5,0.16,0.4,0.21,-108.4432,81.2346,-252.8258,175,75
2026-05-07 18:34:28.550,5,0.35,0.46,0.38,-105.17320000000001,177.72459999999998,-252.8258,175,75
2026-05-07 18:34:28.566,5,0.92,0.93,0.27,-140.86319999999998,247.6546,-252.8258,175,75
2026-05-07 18:34:28.588,5,2.0,2.0,1.97,-248.02319999999997,247.6546,-122.2758,175,75
2026-05-07 18:34:28.602,5,0.23,2.0,1.88,-248.02319999999997,247.6546,247.4442,175,75
2026-05-07 18:34:28.629,5,-2.0,0.28,-0.76,-248.02319999999997,247.6546,247.4442,175,75
2026-05-07 18:34:28.629,5,-2.0,-0.16,-0.85,-248.02319999999997,247.6546,247.4442,175,75
2026-05-07 18:34:28.652,5,-2.0,-0.01,-0.03,-176.11319999999998,72.53460000000001,247.4442,175,75
2026-05-07 18:34:28.667,5,-2.0,0.21,0.69,-194.57319999999999,-67.91539999999999,247.4442,175,75
2026-05-07 18:34:28.669,5,-2.0,0.78,1.83,-248.02319999999997,-149.2654,247.4442,175,75
2026-05-07 18:34:28.679,5,-1.12,1.45,2.0,-248.02319999999997,-180.93540000000002,247.4442,175,75
2026-05-07 18:34:28.699,5,-2.0,-0.65,2.0,-248.02319999999997,-252.6154,247.4442,175,75
2026-05-07 18:34:28.709,5,-2.0,-1.14,1.59,-248.02319999999997,-252.6154,247.4442,175,75
2026-05-07 18:34:28.725,5,-0.73,-1.61,-0.09,-98.2232,-252.6154,247.4442,175,75
2026-05-07 18:34:28.733,5,-0.87,-1.41,0.23,2.3968,-252.6154,247.4442,175,75
2026-05-07 18:34:28.744,5,-0.89,-1.22,0.83,27.876800000000003,-252.6154,242.6442,175,75
2026-05-07 18:34:28.756,5,0.17,-0.53,0.87,-3.7731999999999997,-252.6154,246.9242,175,75
2026-05-07 18:34:28.768,5,0.85,-0.96,1.14,-51.3232,-252.6154,247.4442,175,75
2026-05-07 18:34:28.779,5,1.18,-1.06,1.03,-85.1632,-252.6154,247.4442,175,75
2026-05-07 18:34:28.779,5,0.77,-1.12,0.71,-87.8032,-252.6154,247.4442,175,75
2026-05-07 18:34:28.790,5,0.39,-1.07,0.43,-52.2932,-213.99540000000002,247.4442,175,75
2026-05-07 18:34:28.800,5,0.17,-0.91,0.28,2.4268,-128.7454,206.6142,175,75
2026-05-07 18:34:28.824,5,0.04,-0.37,0.37,101.2668,35.1546,-31.6658,175,75
2026-05-07 18:34:28.838,5,0.25,-0.13,0.6,116.5368,119.0446,-121.9958,175,75
2026-05-07 18:34:28.850,5,0.36,0.04,0.86,98.0968,190.3746,-172.7958,175,75
2026-05-07 18:34:28.863,5,0.67,0.11,1.35,8.7168,192.4246,-92.7358,175,75
2026-05-07 18:34:28.874,5,0.64,0.1,1.35,-8.1232,142.0546,36.1842,175,75
2026-05-07 18:34:28.887,5,0.34,0.06,1.25,-8.6432,146.7946,120.6242,175,75
2026-05-07 18:34:28.899,5,0.0,-0.07,1.1,-6.193200000000001,187.4346,169.1742,175,75
2026-05-07 18:34:28.910,5,-0.32,-0.03,1.09,-14.983200000000002,210.56459999999998,215.5942,175,75
2026-05-07 18:34:28.920,5,-0.76,0.02,1.14,-27.463199999999997,203.7446,247.4442,175,75
2026-05-07 18:34:28.920,5,-0.95,0.08,1.32,-43.3432,181.84459999999999,247.4442,175,75
2026-05-07 18:34:28.940,5,-1.4,-0.24,1.69,-72.1932,81.5946,229.6542,175,75
2026-05-07 18:34:28.951,5,-1.39,-0.56,1.74,-65.06320000000001,18.1546,192.9642,175,75
2026-05-07 18:34:28.962,5,-1.19,-0.76,1.62,-44.5632,-36.2054,164.1942,175,75
2026-05-07 18:34:28.973,5,-1.04,-0.87,1.44,-19.4832,-64.8454,155.6642,175,75
2026-05-07 18:34:28.984,5,-1.08,-0.75,1.29,-0.3031999999999999,-93.80539999999999,146.4942,175,75
2026-05-07 18:34:28.995,5,-0.88,-0.59,1.27,5.8068,-127.77539999999999,134.8542,175,75
2026-05-07 18:34:29.006,5,-0.59,-0.48,1.24,1.5568,-153.1254,138.3742,175,75
2026-05-07 18:34:29.015,5,-0.34,-0.42,1.15,-6.623200000000001,-169.5054,157.9342,175,75
2026-05-07 18:34:29.027,5,-0.17,-0.41,1.04,-15.0632,-177.7854,182.8742,175,75
2026-05-07 18:34:29.037,5,-0.06,-0.41,0.95,-22.283199999999997,-179.7554,204.8142,175,75
2026-05-07 18:34:29.043,5,0.03,-0.41,0.88,-28.4832,-178.2354,219.3342,175,75
2026-05-07 18:34:29.054,5,0.09,-0.43,0.84,-35.9232,-174.6054,227.2942,175,75
2026-05-07 18:34:29.068,5,0.17,-0.45,0.79,-42.8432,-167.7554,226.4542,175,75
2026-05-07 18:34:29.068,5,0.24,-0.52,0.7,-43.693200000000004,-155.6354,221.8142,175,75
2026-05-07 18:34:29.088,5,0.26,-0.59,0.56,-34.2032,-140.27540000000002,217.6042,175,75
2026-05-07 18:34:29.098,5,0.24,-0.6,0.44,-14.6332,-124.7254,210.6142,175,75
2026-05-07 18:34:29.108,5,0.16,-0.53,0.36,7.4468,-108.4754,191.0242,175,75
2026-05-07 18:34:29.120,5,0.1,-0.39,0.34,25.2268,-88.8154,154.4942,175,75
2026-05-07 18:34:29.131,5,0.02,-0.15,0.26,40.7068,-56.6254,68.8242,175,75
2026-05-07 18:34:29.161,5,-0.12,0.01,0.12,47.1368,-72.5354,-18.6158,175,75
2026-05-07 18:34:29.161,5,-0.11,0.09,0.11,57.0768,-89.4554,-45.9258,175,75
2026-05-07 18:34:29.185,5,-0.09,0.37,0.04,72.6968,-140.4754,-129.4758,175,75
2026-05-07 18:34:29.198,5,0.33,0.44,0.08,76.4468,-173.6454,-123.6758,175,75
2026-05-07 18:34:29.209,5,0.87,0.57,0.25,69.93679999999999,-187.4454,-61.4458,175,75
2026-05-07 18:34:29.219,5,1.12,0.62,0.43,56.3368,-157.3454,5.9442,175,75
2026-05-07 18:34:29.219,5,1.13,0.54,0.57,39.9568,-82.79539999999999,60.3242,175,75
2026-05-07 18:34:29.236,5,1.0,0.45,0.75,22.416800000000002,26.0646,86.5642,175,75
2026-05-07 18:34:29.251,5,1.3,0.48,1.07,3.5868,150.0246,108.4542,175,75
2026-05-07 18:34:29.265,5,2.0,0.98,2.0,-112.9032,247.6546,247.4442,175,75
2026-05-07 18:34:29.276,5,1.94,0.78,1.37,-146.42319999999998,247.6546,247.4442,175,75
2026-05-07 18:34:29.281,5,-0.09,0.36,0.68,-129.0332,247.6546,247.4442,175,75
2026-05-07 18:34:29.300,5,-2.0,-0.56,1.54,-92.9632,247.6546,247.4442,175,75
2026-05-07 18:34:29.300,5,-2.0,-1.26,1.12,-54.0232,247.6546,196.8842,175,75
2026-05-07 18:34:29.319,5,-2.0,-1.24,0.1,3.2268,247.6546,74.9942,175,75
2026-05-07 18:34:29.322,5,-2.0,-1.35,-0.02,59.3668,247.6546,-24.2158,175,75
2026-05-07 18:34:29.337,5,-2.0,-1.35,0.61,92.1768,145.4346,-54.3458,175,75
2026-05-07 18:34:29.355,5,-2.0,-0.73,2.0,112.0868,-147.33540000000002,-125.7658,175,75
2026-05-07 18:34:29.367,5,-2.0,-0.02,2.0,86.6468,-233.8554,-96.0258,175,75
2026-05-07 18:34:29.385,5,-1.65,0.22,1.43,96.93679999999999,-252.6154,-43.8658,175,75
2026-05-07 18:34:29.398,5,-1.06,0.35,1.26,107.2268,-252.6154,1.4742000000000002,175,75
2026-05-07 18:34:29.400,5,-0.65,0.38,0.96,114.3068,-252.6154,43.4242,175,75
2026-05-07 18:34:29.417,5,-0.4,0.31,0.53,120.5568,-252.6154,78.5842,175,75
2026-05-07 18:34:29.422,5,-0.0,0.49,0.22,122.93679999999999,-252.6154,99.3242,175,75
2026-05-07 18:34:29.433,5,0.15,0.33,-0.16,124.5968,-252.6154,117.0042,175,75
2026-05-07 18:34:29.441,5,0.33,0.44,-0.44,121.7068,-252.6154,104.9942,175,75
2026-05-07 18:34:29.463,5,1.25,0.51,-1.06,105.5068,-252.6154,130.8142,175,75
2026-05-07 18:34:29.463,5,2.0,0.92,-2.0,151.7468,-252.6154,247.4442,175,75
2026-05-07 18:34:29.476,5,0.86,1.09,-2.0,143.45680000000002,-13.195400000000001,247.4442,175,75
2026-05-07 18:34:29.490,5,-1.1,0.45,-1.08,103.8168,-4.2054,247.4442,175,75
2026-05-07 18:34:29.490,5,-1.47,0.08,-0.61,72.7968,-75.9754,119.6142,175,75
2026-05-07 18:34:29.518,5,-1.31,-0.08,-0.3,36.5068,-209.74540000000002,66.4642,175,75
2026-05-07 18:34:29.528,5,-0.57,-0.41,-0.02,13.816799999999999,-204.7554,71.4242,175,75
2026-05-07 18:34:29.551,5,0.68,-0.5,0.18,17.1368,109.1246,83.4042,175,75
2026-05-07 18:34:29.563,5,1.32,-0.49,0.28,51.416799999999995,247.6546,85.6542,175,75
2026-05-07 18:34:29.575,5,2.0,-0.27,0.31,52.1368,247.6546,94.7642,175,75
2026-05-07 18:34:29.586,5,2.0,0.13,0.41,39.3168,247.6546,119.8942,175,75
2026-05-07 18:34:29.597,5,1.47,0.32,0.57,2.2268,247.6546,123.4242,175,75
2026-05-07 18:34:29.608,5,-0.72,1.37,2.0,-74.9332,247.6546,16.6842,175,75
2026-05-07 18:34:29.633,5,-0.72,-0.54,0.35,-107.9632,247.6546,-123.9658,175,75
2026-05-07 18:34:29.646,5,-2.0,-0.86,-0.06,-71.1832,247.6546,-178.6458,175,75
2026-05-07 18:34:29.660,5,-2.0,-0.82,-0.03,-31.7632,247.6546,-166.9158,175,75
2026-05-07 18:34:29.670,5,-2.0,0.33,1.59,-45.9332,112.9946,-33.5258,175,75
2026-05-07 18:34:29.682,5,-1.87,1.29,2.0,-131.9132,-12.5054,64.1742,175,75
2026-05-07 18:34:29.703,5,-1.19,0.13,2.0,-205.77319999999997,-54.6654,206.6842,175,75
2026-05-07 18:34:29.714,5,-1.27,-0.59,1.8,-171.48319999999998,-28.4454,247.4442,175,75
2026-05-07 18:34:29.719,5,-2.0,-1.29,1.54,-119.39320000000001,-141.5154,239.3742,175,75
2026-05-07 18:34:29.740,5,-1.86,-1.33,1.32,-71.28320000000001,-221.49540000000002,159.7642,175,75
2026-05-07 18:34:29.751,5,-1.31,-1.25,0.9,-21.0432,-217.7554,114.3742,175,75
2026-05-07 18:34:29.772,5,-1.22,-1.04,0.78,20.9268,-203.0454,82.5542,175,75
2026-05-07 18:34:29.786,5,-1.07,-0.76,0.83,40.9068,-204.9154,44.7742,175,75
2026-05-07 18:34:29.786,5,-0.83,-0.58,0.85,40.3868,-212.6254,13.514199999999999,175,75
2026-05-07 18:34:29.812,5,-0.1,-0.31,0.61,15.7668,-221.1354,12.7142,175,75
2026-05-07 18:34:29.812,5,0.08,-0.31,0.52,20.486800000000002,-205.2654,18.8142,175,75
2026-05-07 18:34:29.824,5,0.15,-0.25,0.45,29.5968,-178.3654,19.1542,175,75
2026-05-07 18:34:29.833,5,0.13,-0.18,0.39,38.4968,-143.6254,3.4442,175,75
2026-05-07 18:34:29.849,5,0.07,-0.09,0.34,44.7468,-114.7654,-17.7958,175,75
2026-05-07 18:34:29.849,5,0.05,-0.02,0.28,48.2268,-97.41539999999999,-34.7958,175,75
2026-05-07 18:34:29.868,5,0.02,0.04,0.21,49.446799999999996,-95.08539999999999,-45.1458,175,75
2026-05-07 18:34:29.878,5,-0.06,0.1,0.15,46.346799999999995,-107.49539999999999,-57.6758,175,75
2026-05-07 18:34:29.889,5,0.11,0.01,0.02,47.736799999999995,-119.2554,-45.2658,175,75
2026-05-07 18:34:29.900,5,0.21,0.16,-0.05,53.2268,-128.1154,-24.2658,175,75
2026-05-07 18:34:29.900,5,0.23,0.14,-0.11,62.3968,-126.24539999999999,-6.7158,175,75
2026-05-07 18:34:29.911,5,0.47,0.18,-0.2,67.96679999999999,-116.80539999999999,-3.3358,175,75
2026-05-07 18:34:29.933,5,0.97,0.19,-0.3,76.5568,-44.9254,28.7442,175,75
2026-05-07 18:34:29.944,5,1.25,0.35,-0.2,63.8968,6.7346,57.6442,175,75
2026-05-07 18:34:29.971,5,1.36,0.34,0.01,18.9068,118.94460000000001,142.9642,175,75
2026-05-07 18:34:29.972,5,0.57,0.2,0.17,14.2768,148.44459999999998,119.9242,175,75
2026-05-07 18:34:29.993,5,0.27,0.15,0.46,18.9068,169.7046,54.8242,175,75
2026-05-07 18:34:29.993,5,0.35,0.21,0.72,14.226799999999999,217.1546,-18.2758,175,75
2026-05-07 18:34:30.000,5,0.7,0.15,1.1,-0.013199999999999878,247.6546,-73.8958,175,75
2026-05-07 18:34:30.019,5,1.28,0.14,1.87,-40.803200000000004,247.6546,-72.3158,175,75
2026-05-07 18:34:30.019,5,1.96,0.12,2.0,-103.4932,247.6546,36.7642,175,75
2026-05-07 18:34:30.033,5,1.63,-0.27,2.0,-145.17319999999998,247.6546,143.5142,175,75
2026-05-07 18:34:30.043,5,-0.14,-1.45,2.0,-113.67320000000001,247.6546,60.1642,175,75
2026-05-07 18:34:30.053,5,-0.09,-1.6,2.0,-64.8632,247.6546,-26.5058,175,75
2026-05-07 18:34:30.064,5,-2.0,-1.68,1.09,-22.2232,247.6546,20.1042,175,75
2026-05-07 18:34:30.078,5,-2.0,-1.43,0.61,27.716800000000003,247.6546,-78.2358,175,75
2026-05-07 18:34:30.078,5,-2.0,-1.62,0.91,98.3168,247.6546,-135.8358,175,75
2026-05-07 18:34:30.091,5,-2.0,-0.87,2.0,139.7768,106.83460000000001,-161.5958,175,75
2026-05-07 18:34:30.102,5,-2.0,0.14,2.0,104.5468,-99.6754,-144.2858,175,75
2026-05-07 18:34:30.114,5,-2.0,0.17,2.0,63.7968,-224.1154,-169.3758,175,75
2026-05-07 18:34:30.125,5,-2.0,0.22,1.95,56.0368,-252.6154,-203.9558,175,75
2026-05-07 18:34:30.140,5,-1.35,0.28,1.91,69.0268,-252.6154,-175.6858,175,75
2026-05-07 18:34:30.140,5,-0.83,0.13,1.52,106.0368,-252.6154,-132.0258,175,75
2026-05-07 18:34:30.152,5,-0.47,0.16,1.36,140.3968,-252.6154,-87.1658,175,75
2026-05-07 18:34:30.179,5,0.04,0.44,1.32,137.97680000000003,-252.6154,3.2542000000000004,175,75
2026-05-07 18:34:30.179,5,0.2,0.47,1.29,121.6568,-220.1654,47.7342,175,75
2026-05-07 18:34:30.207,5,0.53,0.51,1.14,90.9968,-155.3254,138.5342,175,75
2026-05-07 18:34:30.223,5,0.4,0.59,1.06,64.4768,-99.0354,169.1642,175,75
2026-05-07 18:34:30.238,5,0.32,0.63,1.03,45.4368,-88.02539999999999,155.5242,175,75
2026-05-07 18:34:30.274,5,0.41,0.2,0.62,26.8168,-51.9354,57.3942,175,75
2026-05-07 18:34:30.293,5,0.16,0.26,0.38,39.6768,-38.5754,23.4042,175,75
2026-05-07 18:34:30.301,5,0.04,0.31,0.32,41.766799999999996,-50.3754,11.7042,175,75
2026-05-07 18:34:30.332,5,-0.14,0.23,0.13,32.196799999999996,-101.71539999999999,-19.1358,175,75
2026-05-07 18:34:30.345,5,-0.15,0.12,0.04,24.966800000000003,-106.8954,-15.825800000000001,175,75
2026-05-07 18:34:30.366,5,-0.17,-0.02,-0.05,18.416800000000002,-115.6254,12.7042,175,75
2026-05-07 18:34:30.388,5,-0.09,-0.29,-0.21,31.5168,-125.57539999999999,79.13419999999999,175,75
2026-05-07 18:34:30.427,5,-0.04,0.06,0.05,36.1368,-66.8654,164.0742,175,75
2026-05-07 18:34:30.449,5,0.15,0.03,-0.01,8.3568,33.1346,113.1942,175,75
2026-05-07 18:34:30.460,5,0.24,0.09,-0.02,3.8468,88.44460000000001,98.0942,175,75
2026-05-07 18:34:30.460,5,0.23,0.01,-0.03,1.4367999999999999,134.31459999999998,83.7142,175,75
2026-05-07 18:34:30.471,5,0.22,0.02,-0.01,0.2168000000000001,172.9846,76.6142,175,75
2026-05-07 18:34:30.514,5,1.05,0.18,-0.07,9.2868,210.97459999999998,156.6842,175,75
2026-05-07 18:34:30.527,5,0.41,0.2,0.25,15.0268,155.7346,203.7542,175,75
2026-05-07 18:34:30.564,5,0.17,0.22,0.76,1.9268,33.3646,198.8642,175,75
2026-05-07 18:34:30.576,5,0.11,0.09,0.74,7.4368,35.6546,37.7642,175,75
2026-05-07 18:34:30.576,5,0.24,0.32,1.15,-18.5032,78.86460000000001,-39.6458,175,75
2026-05-07 18:34:30.586,5,0.52,0.41,1.65,-65.7132,123.47460000000001,-95.2658,175,75
2026-05-07 18:34:30.596,5,0.94,0.5,2.0,-129.9632,180.5546,-126.7458,175,75
2026-05-07 18:34:30.601,5,1.58,0.56,2.0,-214.0332,247.6546,-127.5658,175,75
2026-05-07 18:34:30.624,5,1.24,-0.0,1.85,-248.02319999999997,247.6546,20.3842,175,75
2026-05-07 18:34:30.635,5,-0.59,-0.54,1.42,-219.6832,247.6546,111.8042,175,75
2026-05-07 18:34:30.645,5,-2.0,-0.96,1.06,-129.1332,247.6546,66.5942,175,75
2026-05-07 18:34:30.683,5,-2.0,0.7,2.0,-64.9832,77.31460000000001,-125.5458,175,75
2026-05-07 18:34:30.691,5,-2.0,0.52,2.0,-83.6232,-66.68539999999999,-105.3458,175,75
2026-05-07 18:34:30.720,5,-1.63,-0.03,1.54,-48.6032,-224.1354,208.8242,175,75
2026-05-07 18:34:30.736,5,-1.46,-0.01,1.51,-43.9332,-209.1254,247.4442,175,75
2026-05-07 18:34:30.745,5,-1.43,0.04,1.5,-50.983200000000004,-200.2554,247.4442,175,75
2026-05-07 18:34:30.784,5,-1.47,-0.35,1.46,-95.1232,-252.6154,247.4442,175,75
2026-05-07 18:34:30.784,5,-1.1,-0.62,1.33,-97.4432,-252.6154,247.4442,175,75
2026-05-07 18:34:30.795,5,-0.61,-0.84,1.02,-72.9332,-248.52540000000002,196.3642,175,75
2026-05-07 18:34:30.802,5,-0.36,-0.91,0.89,-28.7732,-203.2354,164.7842,175,75
2026-05-07 18:34:30.811,5,-0.32,-0.77,0.93,26.126800000000003,-167.80540000000002,139.6542,175,75
2026-05-07 18:34:30.831,5,-0.21,-0.52,1.04,64.38680000000001,-146.5754,109.0842,175,75
2026-05-07 18:34:30.831,5,-0.16,-0.25,1.14,88.4468,-131.7554,86.2542,175,75
2026-05-07 18:34:30.848,5,-0.02,0.02,1.18,99.8668,-126.2354,79.88419999999999,175,75
2026-05-07 18:34:30.855,5,0.04,0.17,1.11,100.21679999999999,-125.96539999999999,90.2642,175,75
2026-05-07 18:34:30.863,5,0.15,0.27,1.07,98.1968,-116.0654,108.7342,175,75
2026-05-07 18:34:30.876,5,0.18,0.37,1.01,85.9168,-96.96539999999999,126.79419999999999,175,75
2026-05-07 18:34:30.889,5,0.14,0.39,0.94,67.9268,-72.99539999999999,142.0742,175,75
2026-05-07 18:34:30.889,5,0.1,0.38,0.87,46.0068,-50.815400000000004,155.0742,175,75
2026-05-07 18:34:30.901,5,0.05,0.33,0.8,20.4368,-29.1754,166.3942,175,75
2026-05-07 18:34:30.923,5,0.04,0.22,0.68,0.10680000000000023,-8.455400000000001,179.1842,175,75
2026-05-07 18:34:30.923,5,0.02,0.09,0.55,-11.523200000000001,11.6046,198.1642,175,75
2026-05-07 18:34:30.934,5,-0.05,-0.06,0.41,-13.5432,26.6646,219.6042,175,75
2026-05-07 18:34:30.949,5,-0.12,-0.15,0.3,-7.5732,32.3746,241.3142,175,75
2026-05-07 18:34:30.976,5,-0.27,-0.17,0.21,1.1668,18.5046,247.4442,175,75
2026-05-07 18:34:30.976,5,-0.42,-0.19,0.14,12.8368,-11.4954,247.4442,175,75
2026-05-07 18:34:31.019,5,-0.63,-0.55,0.15,65.1868,-252.6154,150.9742,175,75
2026-05-07 18:34:31.030,5,-0.43,-0.05,-0.33,73.1368,-252.6154,127.52420000000001,175,75
2026-05-07 18:34:31.030,5,-0.28,-0.01,-0.3,75.9968,-252.6154,106.5642,175,75
2026-05-07 18:34:31.041,5,-0.06,0.05,-0.27,71.7268,-252.6154,96.7142,175,75
2026-05-07 18:34:31.055,5,0.19,0.09,-0.22,63.196799999999996,-252.6154,90.0342,175,75
2026-05-07 18:34:31.077,5,0.38,0.16,-0.25,61.3368,-166.0354,36.2942,175,75
2026-05-07 18:34:31.087,5,0.44,0.16,-0.25,74.35679999999999,-72.16539999999999,-5.6258,175,75
2026-05-07 18:34:31.096,5,0.45,0.31,-0.19,88.4568,25.2946,-39.8558,175,75
2026-05-07 18:34:31.109,5,0.46,0.46,-0.13,93.2268,122.31460000000001,-56.4558,175,75
2026-05-07 18:34:31.109,5,0.27,0.54,-0.04,88.7768,201.6746,-53.3458,175,75
2026-05-07 18:34:31.122,5,-0.03,0.53,0.1,68.5568,247.6546,-54.9758,175,75
2026-05-07 18:34:31.135,5,-0.14,0.5,0.12,45.3568,247.6546,-43.3058,175,75
2026-05-07 18:34:31.149,5,-0.02,0.49,0.07,25.4968,247.6546,11.2342,175,75
2026-05-07 18:34:31.156,5,0.11,0.69,0.08,10.2568,247.6546,101.5042,175,75
2026-05-07 18:34:31.169,5,-0.24,0.9,0.16,-7.6432,247.6546,188.0042,175,75
2026-05-07 18:34:31.182,5,-0.73,0.85,0.22,-21.923199999999998,247.6546,202.3242,175,75
