Time,ID,Ax,Ay,Az,Gx,Gy,Gz,Height,Weight
2026-05-09 17:11:55.368,5,0.06,0.48,2.0,-77.0886,-78.63980000000001,-11.0286,175,75
2026-05-09 17:11:55.379,5,0.24,0.39,2.0,-69.8686,-48.189800000000005,43.4614,175,75
2026-05-09 17:11:55.379,5,0.16,0.32,2.0,-49.958600000000004,-23.7598,96.5514,175,75
2026-05-09 17:11:55.393,5,-0.11,0.31,2.0,-34.308600000000006,-17.2398,126.3614,175,75
2026-05-09 17:11:55.404,5,-0.34,0.29,2.0,-35.958600000000004,-25.4198,132.7414,175,75
2026-05-09 17:11:55.420,5,-0.45,0.13,1.93,-40.528600000000004,-40.2098,129.5514,175,75
2026-05-09 17:11:55.420,5,-0.38,0.03,1.76,-38.3186,-57.6398,133.0814,175,75
2026-05-09 17:11:55.440,5,-0.25,-0.0,1.66,-35.1886,-75.16980000000001,147.0714,175,75
2026-05-09 17:11:55.440,5,-0.06,-0.05,1.54,-34.7986,-91.9498,173.5714,175,75
2026-05-09 17:11:55.456,5,0.05,-0.15,1.38,-35.3786,-105.2898,203.7214,175,75
2026-05-09 17:11:55.468,5,0.19,-0.25,1.28,-35.8786,-114.91980000000001,231.2714,175,75
2026-05-09 17:11:55.468,5,0.32,-0.4,1.17,-37.4386,-130.7998,246.0914,175,75
2026-05-09 17:11:55.479,5,0.41,-0.65,1.07,-36.6986,-159.3098,246.0914,175,75
2026-05-09 17:11:55.495,5,0.56,-0.85,0.97,-34.5686,-184.2498,246.0914,175,75
2026-05-09 17:11:55.509,5,0.63,-1.05,0.78,-25.8386,-189.8098,246.0914,175,75
2026-05-09 17:11:55.537,5,0.54,-1.2,0.58,-5.698600000000001,-179.3598,246.0914,175,75
2026-05-09 17:11:55.537,5,0.46,-1.32,0.31,24.361399999999996,-151.8698,246.0914,175,75
2026-05-09 17:11:55.537,5,0.54,-1.35,-0.08,58.401399999999995,-81.7598,208.2314,175,75
2026-05-09 17:11:55.568,5,-0.12,-0.91,-0.56,106.6114,112.3502,-112.5586,175,75
2026-05-09 17:11:55.568,5,-0.43,-0.5,-0.63,109.84140000000001,138.2302,-221.7986,175,75
2026-05-09 17:11:55.579,5,-0.43,-1.03,0.24,128.3014,125.2002,-254.1786,175,75
2026-05-09 17:11:55.590,5,-0.53,-0.11,-0.51,108.3014,80.8502,-254.1786,175,75
2026-05-09 17:11:55.590,5,-0.47,0.04,-0.5,89.40140000000001,29.8002,-254.1786,175,75
2026-05-09 17:11:55.601,5,-0.3,0.18,-0.44,58.8114,-21.9998,-254.1786,175,75
2026-05-09 17:11:55.622,5,0.41,0.6,-0.19,-56.528600000000004,-64.7598,-250.8286,175,75
2026-05-09 17:11:55.636,5,0.79,0.47,-0.12,-121.2586,-29.799799999999998,-212.7186,175,75
2026-05-09 17:11:55.648,5,0.87,0.18,-0.12,-149.76860000000002,17.2602,-161.5086,175,75
2026-05-09 17:11:55.670,5,0.85,0.03,-0.09,-150.2486,67.7402,-108.7486,175,75
2026-05-09 17:11:55.670,5,0.69,0.0,-0.08,-127.32860000000001,99.0602,-64.7286,175,75
2026-05-09 17:11:55.694,5,0.32,0.15,0.08,-66.8686,-0.08979999999999988,-25.598599999999998,175,75
2026-05-09 17:11:55.694,5,0.66,0.51,0.52,-3.8286000000000007,-200.4098,10.9714,175,75
2026-05-09 17:11:55.705,5,1.3,0.64,1.13,9.991399999999999,-252.6298,2.5014000000000003,175,75
2026-05-09 17:11:55.720,5,1.6,0.69,1.33,-0.6786000000000003,-249.1198,-59.1986,175,75
2026-05-09 17:11:55.742,5,2.0,-0.07,1.74,-81.81859999999999,246.8302,-132.4786,175,75
2026-05-09 17:11:55.753,5,2.0,-0.29,1.9,-84.70859999999999,247.6402,183.7514,175,75
2026-05-09 17:11:55.753,5,0.15,-0.75,1.96,-8.8886,247.6402,246.0914,175,75
2026-05-09 17:11:55.778,5,-2.0,-0.54,2.0,123.40140000000001,229.7502,246.0914,175,75
2026-05-09 17:11:55.789,5,-2.0,-0.6,2.0,112.2014,147.8402,-7.938599999999999,175,75
2026-05-09 17:11:55.794,5,-2.0,-0.75,1.97,94.5214,69.4302,-228.1886,175,75
2026-05-09 17:11:55.805,5,-2.0,-1.02,2.0,93.68140000000001,-10.4298,-254.1786,175,75
2026-05-09 17:11:55.808,5,-1.56,-0.94,2.0,148.5914,-106.66980000000001,-254.1786,175,75
2026-05-09 17:11:55.821,5,-0.99,-0.39,1.81,210.0014,-182.4398,-254.1786,175,75
2026-05-09 17:11:55.836,5,-0.55,0.1,1.63,223.6514,-195.8798,-254.1786,175,75
2026-05-09 17:11:55.847,5,-0.42,0.33,1.48,202.8014,-168.3398,-254.1786,175,75
2026-05-09 17:11:55.868,5,-0.2,0.69,1.18,126.54140000000001,-105.27980000000001,-254.1786,175,75
2026-05-09 17:11:55.882,5,-0.22,0.86,1.03,86.4914,-109.2398,-254.1786,175,75
2026-05-09 17:11:55.882,5,-0.14,0.97,0.9,49.8814,-136.1898,-254.1786,175,75
2026-05-09 17:11:55.894,5,0.08,1.04,0.66,23.931399999999996,-179.6398,-254.1786,175,75
2026-05-09 17:11:55.905,5,0.69,1.17,0.38,17.601399999999998,-231.6798,-202.36860000000001,175,75
2026-05-09 17:11:55.917,5,2.0,1.23,0.03,32.9414,-230.9698,-2.3986,175,75
2026-05-09 17:11:55.917,5,2.0,1.25,-0.25,36.941399999999994,-96.7998,246.0914,175,75
2026-05-09 17:11:55.943,5,1.7,0.87,-0.16,25.1214,50.5302,246.0914,175,75
2026-05-09 17:11:55.943,5,0.5,0.53,-0.15,11.2514,118.2102,246.0914,175,75
2026-05-09 17:11:55.965,5,0.29,0.03,-0.06,12.5214,139.18019999999999,246.0914,175,75
2026-05-09 17:11:55.965,5,0.61,-0.21,0.25,21.9214,133.6102,246.0914,175,75
2026-05-09 17:11:55.976,5,1.2,-0.09,0.99,6.8414,98.11019999999999,246.0914,175,75
2026-05-09 17:11:55.981,5,1.76,-0.01,2.0,-2.5986000000000002,50.7802,246.0914,175,75
2026-05-09 17:11:55.993,5,1.37,-0.36,2.0,35.4314,126.53020000000001,246.0914,175,75
2026-05-09 17:11:56.003,5,0.72,-0.26,2.0,74.46140000000001,247.6402,132.6814,175,75
2026-05-09 17:11:56.019,5,-0.32,0.04,2.0,72.7514,247.6402,-58.7686,175,75
2026-05-09 17:11:56.030,5,-1.42,0.07,1.94,49.7514,247.6402,-188.6386,175,75
2026-05-09 17:11:56.030,5,-1.7,0.2,1.83,39.971399999999996,137.6202,-213.6586,175,75
2026-05-09 17:11:56.041,5,-1.33,0.39,2.0,23.6314,6.880199999999999,-203.9286,175,75
2026-05-09 17:11:56.051,5,-0.8,0.42,2.0,-9.7986,-63.4998,-137.6886,175,75
2026-05-09 17:11:56.061,5,-0.37,0.26,2.0,-33.7686,-90.0198,-41.598600000000005,175,75
2026-05-09 17:11:56.072,5,-0.04,0.03,1.82,-21.668599999999998,-83.8798,107.6914,175,75
2026-05-09 17:11:56.084,5,0.15,-0.08,1.64,15.5314,-68.9598,246.0914,175,75
2026-05-09 17:11:56.105,5,0.11,0.16,1.64,34.0814,-64.9598,246.0914,175,75
2026-05-09 17:11:56.105,5,-0.01,0.28,1.58,13.1714,-70.2898,246.0914,175,75
2026-05-09 17:11:56.116,5,0.05,0.15,1.33,-20.208599999999997,-69.8398,246.0914,175,75
2026-05-09 17:11:56.128,5,0.0,-0.06,1.14,-46.058600000000006,-84.6798,246.0914,175,75
2026-05-09 17:11:56.128,5,-0.2,-0.39,1.0,-64.0286,-139.9298,246.0914,175,75
2026-05-09 17:11:56.141,5,-0.16,-0.71,0.93,-87.4786,-209.1498,246.0914,175,75
2026-05-09 17:11:56.153,5,0.04,-1.05,0.69,-89.8286,-227.59980000000002,246.0914,175,75
2026-05-09 17:11:56.164,5,0.2,-1.29,0.37,-66.3886,-190.8598,246.0914,175,75
2026-05-09 17:11:56.177,5,0.37,-1.51,-0.09,-27.0086,-110.16980000000001,191.8714,175,75
2026-05-09 17:11:56.187,5,0.17,-1.5,-0.43,30.8114,-19.7498,60.3814,175,75
2026-05-09 17:11:56.187,5,-0.14,-1.27,-0.59,87.9114,41.6202,-49.138600000000004,175,75
2026-05-09 17:11:56.216,5,-0.45,-0.6,-0.67,135.8914,82.6902,-187.9686,175,75
2026-05-09 17:11:56.227,5,-0.52,-0.51,-0.4,154.4114,73.4502,-231.7186,175,75
2026-05-09 17:11:56.238,5,-0.54,-0.14,-0.38,134.95139999999998,46.8202,-254.1786,175,75
2026-05-09 17:11:56.250,5,-0.5,0.06,-0.28,104.6714,6.4302,-254.1786,175,75
2026-05-09 17:11:56.260,5,0.01,0.41,-0.08,7.301399999999999,-58.5298,-254.1786,175,75
2026-05-09 17:11:56.271,5,0.44,0.41,-0.03,-45.8986,-44.939800000000005,-250.4586,175,75
2026-05-09 17:11:56.282,5,0.74,0.27,-0.12,-77.8986,-0.6497999999999997,-232.6386,175,75
2026-05-09 17:11:56.294,5,0.8,0.1,-0.26,-81.65859999999999,52.990199999999994,-206.7286,175,75
2026-05-09 17:11:56.305,5,0.68,0.05,-0.35,-62.318599999999996,96.2402,-176.9686,175,75
2026-05-09 17:11:56.317,5,0.49,0.08,-0.35,-35.308600000000006,114.6802,-151.8186,175,75
2026-05-09 17:11:56.327,5,0.3,0.2,-0.32,0.24139999999999961,87.1402,-119.68860000000001,175,75
2026-05-09 17:11:56.327,5,0.27,0.34,-0.13,35.0214,8.1402,-72.7386,175,75
2026-05-09 17:11:56.352,5,0.39,0.56,0.21,33.8814,-60.1498,-9.7086,175,75
2026-05-09 17:11:56.371,5,0.33,0.47,0.24,14.9514,-87.5098,30.3914,175,75
2026-05-09 17:11:56.371,5,0.27,0.27,0.19,3.3613999999999997,-90.8698,52.4914,175,75
2026-05-09 17:11:56.398,5,0.37,0.14,0.24,-1.1286000000000005,-77.38980000000001,69.56139999999999,175,75
2026-05-09 17:11:56.408,5,0.67,0.18,0.51,-4.0586,-55.1098,100.9014,175,75
2026-05-09 17:11:56.421,5,2.0,0.62,1.62,-66.8286,3.6902,224.0114,175,75
2026-05-09 17:11:56.421,5,2.0,0.41,2.0,-99.0586,226.6902,195.4314,175,75
2026-05-09 17:11:56.432,5,2.0,0.13,1.99,-125.2786,247.6402,185.3314,175,75
2026-05-09 17:11:56.442,5,1.5,-0.3,2.0,-136.3086,247.6402,228.1114,175,75
2026-05-09 17:11:56.442,5,-0.47,-1.12,2.0,-88.5086,247.6402,246.0914,175,75
2026-05-09 17:11:56.453,5,-2.0,-1.27,1.86,4.0714,247.6402,246.0914,175,75
2026-05-09 17:11:56.468,5,-2.0,-1.44,1.42,87.3914,247.6402,121.9414,175,75
2026-05-09 17:11:56.480,5,-2.0,-1.43,1.2,151.8414,165.5902,-41.9786,175,75
2026-05-09 17:11:56.491,5,-2.0,-1.43,1.15,219.6514,-43.909800000000004,-206.9886,175,75
2026-05-09 17:11:56.502,5,-2.0,-1.17,1.47,253.4114,-143.2998,-254.1786,175,75
2026-05-09 17:11:56.513,5,-1.93,-0.53,2.0,253.4114,-105.63980000000001,-254.1786,175,75
2026-05-09 17:11:56.529,5,-1.68,0.02,2.0,253.4114,-131.4198,-254.1786,175,75
2026-05-09 17:11:56.541,5,-1.35,0.66,1.82,253.4114,-252.6298,-254.1786,175,75
2026-05-09 17:11:56.541,5,-0.75,1.17,1.68,253.4114,-252.6298,-254.1786,175,75
2026-05-09 17:11:56.555,5,-0.22,1.65,1.76,248.4414,-252.6298,-254.1786,175,75
2026-05-09 17:11:56.555,5,0.05,2.0,1.71,200.3414,-252.6298,-254.1786,175,75
2026-05-09 17:11:56.568,5,0.36,2.0,1.4,164.20139999999998,-252.6298,-254.1786,175,75
2026-05-09 17:11:56.585,5,1.45,2.0,1.04,138.45139999999998,-252.6298,-254.1786,175,75
2026-05-09 17:11:56.585,5,2.0,2.0,0.93,101.3014,-252.6298,-149.7286,175,75
2026-05-09 17:11:56.598,5,2.0,2.0,0.83,22.681399999999996,-150.3398,96.31139999999999,175,75
2026-05-09 17:11:56.608,5,1.36,1.74,0.62,-52.8586,0.7802000000000002,213.7014,175,75
2026-05-09 17:11:56.618,5,1.28,1.05,0.44,-88.2786,91.9102,246.0914,175,75
2026-05-09 17:11:56.618,5,1.49,0.79,0.56,-97.4786,164.9502,246.0914,175,75
2026-05-09 17:11:56.630,5,1.73,0.88,0.91,-96.62859999999999,193.2002,246.0914,175,75
2026-05-09 17:11:56.645,5,2.0,1.31,1.61,-101.7186,219.4602,246.0914,175,75
2026-05-09 17:11:56.657,5,1.18,1.26,2.0,-99.0886,217.7702,246.0914,175,75
2026-05-09 17:11:56.669,5,-0.3,0.35,2.0,-76.37859999999999,84.97019999999999,246.0914,175,75
2026-05-09 17:11:56.669,5,-0.52,-0.44,2.0,-69.6986,91.8502,246.0914,175,75
2026-05-09 17:11:56.680,5,-1.17,-0.46,1.71,-65.03859999999999,158.8602,246.0914,175,75
2026-05-09 17:11:56.690,5,-1.65,-0.42,0.72,-58.738600000000005,170.65019999999998,84.81139999999999,175,75
2026-05-09 17:11:56.701,5,-1.73,-0.8,1.12,-28.1586,140.68019999999999,-20.6386,175,75
2026-05-09 17:11:56.716,5,-1.32,-0.95,0.83,9.4714,75.0202,-54.378600000000006,175,75
2026-05-09 17:11:56.727,5,-0.97,-0.7,0.86,40.0714,-8.2198,-41.208600000000004,175,75
2026-05-09 17:11:56.737,5,-0.52,-0.41,0.96,46.4514,-90.9798,-16.2786,175,75
2026-05-09 17:11:56.748,5,-0.27,-0.22,0.92,39.8914,-171.1798,27.9414,175,75
2026-05-09 17:11:56.766,5,0.54,-0.41,0.67,34.2214,-238.2798,85.0514,175,75
2026-05-09 17:11:56.778,5,1.12,-0.73,0.22,42.651399999999995,-252.6298,158.0714,175,75
2026-05-09 17:11:56.788,5,2.0,-1.06,-0.3,73.2714,-252.6298,231.8014,175,75
2026-05-09 17:11:56.831,5,2.0,-1.34,-1.32,123.51140000000001,-108.5098,246.0914,175,75
2026-05-09 17:11:56.831,5,1.76,-0.99,-1.57,143.26139999999998,23.6602,246.0914,175,75
2026-05-09 17:11:56.842,5,0.15,-0.87,-1.39,178.8114,57.2602,246.0914,175,75
2026-05-09 17:11:56.888,5,-1.96,-0.39,-0.05,89.0014,-108.3798,-105.4086,175,75
2026-05-09 17:11:56.894,5,-1.58,-0.3,0.08,43.721399999999996,-135.6398,-239.1986,175,75
2026-05-09 17:11:56.908,5,-0.94,-0.11,0.14,-11.4786,-133.0198,-254.1786,175,75
2026-05-09 17:11:56.914,5,-0.43,0.15,0.13,-76.8686,-105.9598,-254.1786,175,75
2026-05-09 17:11:56.933,5,0.07,0.53,-0.02,-194.98860000000002,-40.759800000000006,-254.1786,175,75
2026-05-09 17:11:56.948,5,0.24,0.64,-0.07,-236.1586,-7.2498,-254.1786,175,75
2026-05-09 17:11:56.959,5,0.33,0.75,-0.04,-246.8586,24.7302,-254.1786,175,75
2026-05-09 17:11:56.993,5,1.12,0.8,-0.08,-219.61860000000001,138.0702,-254.1786,175,75
2026-05-09 17:11:57.003,5,0.32,0.45,0.24,-171.0886,142.3002,-195.4086,175,75
2026-05-09 17:11:57.013,5,-0.09,0.46,0.55,-120.5286,160.43019999999999,-106.54860000000001,175,75
2026-05-09 17:11:57.013,5,-0.25,0.27,0.56,-63.568599999999996,181.40019999999998,-13.218599999999999,175,75
2026-05-09 17:11:57.035,5,-0.71,0.32,0.69,38.971399999999996,143.93019999999999,230.5214,175,75
2026-05-09 17:11:57.045,5,-0.81,0.36,0.67,51.6414,89.8402,246.0914,175,75
2026-05-09 17:11:57.056,5,-0.6,0.4,0.66,53.1314,38.4602,246.0914,175,75
2026-05-09 17:11:57.067,5,-0.01,0.56,0.86,42.1014,-12.689799999999998,246.0914,175,75
2026-05-09 17:11:57.067,5,0.97,0.9,1.42,3.3113999999999995,-120.8398,246.0914,175,75
2026-05-09 17:11:57.078,5,1.06,1.64,2.0,-47.4486,-252.6298,246.0914,175,75
2026-05-09 17:11:57.090,5,2.0,-0.27,1.09,-6.4686,18.4102,246.0914,175,75
2026-05-09 17:11:57.100,5,1.34,0.12,1.3,31.031399999999998,247.6402,89.5414,175,75
2026-05-09 17:11:57.100,5,0.54,0.09,1.03,29.601399999999998,247.6402,-52.1186,175,75
2026-05-09 17:11:57.112,5,0.58,-1.33,0.48,49.1314,247.6402,-4.4786,175,75
2026-05-09 17:11:57.135,5,-0.1,-1.77,1.1,-53.0486,247.0002,246.0914,175,75
2026-05-09 17:11:57.135,5,-0.95,-1.67,1.16,-4.708600000000001,167.40019999999998,246.0914,175,75
2026-05-09 17:11:57.146,5,-2.0,-1.33,1.65,31.0514,135.6202,246.0914,175,75
2026-05-09 17:11:57.146,5,-2.0,-1.29,2.0,29.261400000000002,120.6302,189.3614,175,75
2026-05-09 17:11:57.158,5,-2.0,-1.78,2.0,25.351399999999998,102.72019999999999,-254.1786,175,75
2026-05-09 17:11:57.158,5,-2.0,-2.0,2.0,59.861399999999996,77.1602,-254.1786,175,75
2026-05-09 17:11:57.175,5,-1.18,-1.7,2.0,142.67139999999998,68.1602,-254.1786,175,75
2026-05-09 17:11:57.183,5,-1.44,-0.88,2.0,253.4114,-32.1098,-254.1786,175,75
2026-05-09 17:11:57.204,5,-1.2,1.15,1.57,253.4114,-252.6298,-254.1786,175,75
2026-05-09 17:11:57.216,5,-1.17,1.69,1.53,253.4114,-252.6298,-254.1786,175,75
2026-05-09 17:11:57.228,5,-0.92,1.79,1.32,253.4114,-252.6298,-254.1786,175,75
2026-05-09 17:11:57.228,5,-0.63,1.68,1.1,230.3114,-252.6298,-254.1786,175,75
2026-05-09 17:11:57.238,5,0.46,1.51,0.91,188.26139999999998,-252.6298,-254.1786,175,75
2026-05-09 17:11:57.249,5,2.0,1.85,0.99,152.1214,-252.6298,-125.0186,175,75
2026-05-09 17:11:57.275,5,1.71,1.57,1.06,22.8814,107.6302,229.0714,175,75
2026-05-09 17:11:57.287,5,1.06,0.97,0.93,-18.0586,234.40019999999998,246.0914,175,75
2026-05-09 17:11:57.298,5,0.92,0.69,0.99,-49.208600000000004,247.6402,246.0914,175,75
2026-05-09 17:11:57.298,5,1.08,0.45,0.88,-60.2886,247.6402,246.0914,175,75
2026-05-09 17:11:57.321,5,0.65,0.46,0.75,-43.0886,247.6402,246.0914,175,75
2026-05-09 17:11:57.321,5,-0.79,0.76,1.09,-19.288600000000002,247.6402,246.0914,175,75
2026-05-09 17:11:57.332,5,-2.0,0.09,2.0,-17.8686,177.4902,246.0914,175,75
2026-05-09 17:11:57.344,5,-2.0,-0.7,2.0,-37.3386,-5.799799999999999,220.5614,175,75
2026-05-09 17:11:57.357,5,-2.0,-1.11,1.47,-13.318600000000002,-47.229800000000004,-3.9185999999999996,175,75
2026-05-09 17:11:57.368,5,-1.77,-1.08,1.07,51.0214,-60.9598,-177.7586,175,75
2026-05-09 17:11:57.368,5,-1.37,-0.5,0.93,95.2514,-73.13980000000001,-254.1786,175,75
2026-05-09 17:11:57.390,5,-0.95,0.02,0.87,114.3614,-90.1898,-254.1786,175,75
2026-05-09 17:11:57.390,5,-0.57,0.53,0.74,128.38139999999999,-183.9098,-254.1786,175,75
2026-05-09 17:11:57.407,5,0.04,0.74,0.58,146.3414,-252.6298,-254.1786,175,75
2026-05-09 17:11:57.418,5,0.6,1.21,0.39,118.87140000000001,-252.6298,-254.1786,175,75
2026-05-09 17:11:57.440,5,2.0,0.78,-0.19,97.04140000000001,-252.6298,-174.4286,175,75
2026-05-09 17:11:57.440,5,1.67,0.47,-0.6,109.0814,-245.06980000000001,42.621399999999994,175,75
2026-05-09 17:11:57.451,5,0.37,0.26,-0.28,110.07140000000001,-241.4998,165.2614,175,75
2026-05-09 17:11:57.461,5,-0.46,0.18,-0.08,96.9514,-252.6298,226.60139999999998,175,75
2026-05-09 17:11:57.482,5,-0.5,-0.12,-0.15,87.98140000000001,-252.6298,246.0914,175,75
2026-05-09 17:11:57.514,5,-0.26,-0.09,-0.08,59.7814,-252.6298,246.0914,175,75
2026-05-09 17:11:57.514,5,-0.2,-0.13,-0.14,44.9614,-186.2798,239.3914,175,75
2026-05-09 17:11:57.524,5,-0.22,-0.07,-0.22,26.2314,-76.7598,136.0614,175,75
2026-05-09 17:11:57.536,5,-0.41,-0.2,-0.26,18.391399999999997,20.220200000000002,33.7714,175,75
2026-05-09 17:11:57.555,5,-0.13,-0.23,-0.18,9.7514,156.0302,-64.6786,175,75
2026-05-09 17:11:57.567,5,-0.12,-0.11,-0.17,4.5214,197.6702,-71.6286,175,75
2026-05-09 17:11:57.567,5,-0.08,0.03,-0.13,-4.1686000000000005,228.2702,-79.7686,175,75
2026-05-09 17:11:57.579,5,0.01,0.13,-0.06,-14.568600000000002,247.6402,-96.57860000000001,175,75
2026-05-09 17:11:57.601,5,0.04,0.2,0.01,-25.4086,247.6402,-119.5386,175,75
2026-05-09 17:11:57.618,5,0.13,0.2,0.04,-36.1886,247.6402,-142.5786,175,75
2026-05-09 17:11:57.619,5,0.23,0.13,0.09,-40.1186,247.6402,-157.2586,175,75
2026-05-09 17:11:57.630,5,0.66,0.13,0.03,-34.4086,247.6402,-148.2986,175,75
2026-05-09 17:11:57.640,5,0.57,1.01,0.69,18.0514,163.1002,246.0914,175,75
2026-05-09 17:11:57.649,5,-0.03,0.96,0.99,13.641399999999999,59.3002,246.0914,175,75
2026-05-09 17:11:57.666,5,-0.0,0.39,0.77,-0.5286000000000004,21.720200000000002,246.0914,175,75
2026-05-09 17:11:57.677,5,-0.13,-0.0,0.52,7.8214,23.5902,246.0914,175,75
2026-05-09 17:11:57.688,5,-0.24,-0.04,0.55,19.7314,30.140200000000004,246.0914,175,75
2026-05-09 17:11:57.688,5,0.06,0.27,1.02,20.041400000000003,48.480199999999996,231.8914,175,75
2026-05-09 17:11:57.698,5,0.77,-0.21,1.28,13.6214,118.6602,240.0714,175,75
2026-05-09 17:11:57.718,5,0.85,0.04,1.76,-9.098600000000001,247.6402,246.0914,175,75
2026-05-09 17:11:57.728,5,0.18,0.39,2.0,-53.278600000000004,247.6402,191.4914,175,75
2026-05-09 17:11:57.728,5,-0.56,0.46,2.0,-111.90859999999999,247.6402,55.1814,175,75
2026-05-09 17:11:57.747,5,-1.16,0.1,2.0,-143.2186,247.6402,-110.21860000000001,175,75
2026-05-09 17:11:57.763,5,-2.0,-0.94,2.0,-45.7686,247.6402,-233.5886,175,75
2026-05-09 17:11:57.769,5,-2.0,-0.85,2.0,38.0314,161.2802,-145.7386,175,75
2026-05-09 17:11:57.784,5,-2.0,-0.36,2.0,92.7414,-2.5098,-84.2486,175,75
2026-05-09 17:11:57.793,5,-2.0,0.22,2.0,113.9214,-180.81980000000001,-69.5586,175,75
2026-05-09 17:11:57.810,5,-2.0,0.39,2.0,128.60139999999998,-252.6298,-53.8586,175,75
2026-05-09 17:11:57.810,5,-1.72,0.26,1.83,164.0514,-252.6298,-30.1986,175,75
2026-05-09 17:11:57.821,5,-0.76,0.34,1.29,178.29139999999998,-252.6298,-2.4785999999999997,175,75
2026-05-09 17:11:57.832,5,-0.14,0.4,0.89,161.5314,-252.6298,20.991400000000002,175,75
2026-05-09 17:11:57.844,5,-0.11,0.44,0.64,131.0514,-252.6298,37.3014,175,75
2026-05-09 17:11:57.859,5,0.83,0.2,-0.01,114.1314,-252.6298,54.0714,175,75
2026-05-09 17:11:57.859,5,2.0,0.54,-1.91,110.1014,-252.6298,197.3414,175,75
2026-05-09 17:11:57.874,5,2.0,1.28,-2.0,124.46140000000001,76.1602,246.0914,175,75
2026-05-09 17:11:57.886,5,0.37,0.92,-1.71,46.361399999999996,159.0702,246.0914,175,75
2026-05-09 17:11:57.896,5,-0.71,0.39,-0.58,-20.4786,58.660199999999996,246.0914,175,75
2026-05-09 17:11:57.911,5,-0.38,-0.12,-0.21,-52.4786,-16.6398,245.2814,175,75
2026-05-09 17:11:57.915,5,0.27,-0.59,-0.12,-40.0186,-42.7898,246.0914,175,75
2026-05-09 17:11:57.930,5,1.47,-0.96,1.0,-26.108600000000003,26.360200000000003,246.0914,175,75
2026-05-09 17:11:57.937,5,2.0,-0.26,0.73,-6.188600000000001,247.6102,246.0914,175,75
2026-05-09 17:11:57.955,5,0.92,0.0,1.97,25.971400000000003,247.6402,246.0914,175,75
2026-05-09 17:11:57.955,5,-0.48,-0.76,2.0,131.9014,247.6402,-139.4586,175,75
2026-05-09 17:11:57.972,5,0.28,0.52,2.0,113.3514,247.6402,-254.1786,175,75
2026-05-09 17:11:57.972,5,-1.4,0.45,2.0,63.831399999999995,247.6402,-254.1786,175,75
2026-05-09 17:11:57.992,5,-2.0,0.7,2.0,57.2514,163.9102,-254.1786,175,75
2026-05-09 17:11:58.003,5,-2.0,0.63,1.69,59.3914,-69.9898,-250.6986,175,75
2026-05-09 17:11:58.003,5,-2.0,0.78,1.96,28.1314,-224.3998,-171.2986,175,75
2026-05-09 17:11:58.014,5,-1.27,0.71,2.0,-8.9986,-252.6298,-34.9886,175,75
2026-05-09 17:11:58.024,5,-0.03,0.57,2.0,-14.658600000000002,-246.7798,174.3014,175,75
2026-05-09 17:11:58.041,5,0.79,0.43,2.0,23.711399999999998,-207.8898,246.0914,175,75
2026-05-09 17:11:58.041,5,1.12,0.6,1.78,47.6214,-154.31980000000001,246.0914,175,75
2026-05-09 17:11:58.064,5,1.2,0.53,1.47,34.9214,-78.9598,246.0914,175,75
2026-05-09 17:11:58.064,5,0.94,0.45,1.18,18.9414,4.3602,246.0914,175,75
2026-05-09 17:11:58.076,5,0.7,0.0,0.86,19.971400000000003,45.420199999999994,246.0914,175,75
2026-05-09 17:11:58.087,5,-0.52,-0.34,1.12,-4.868600000000001,-86.3698,246.0914,175,75
2026-05-09 17:11:58.098,5,-0.8,-1.18,1.41,-81.0086,-252.6298,246.0914,175,75
2026-05-09 17:11:58.108,5,0.15,-2.0,0.48,-73.73859999999999,-252.6298,246.0914,175,75
2026-05-09 17:11:58.108,5,-0.74,-2.0,-0.19,5.9414,-185.7498,246.0914,175,75
2026-05-09 17:11:58.119,5,-1.51,-2.0,-0.35,85.01140000000001,-110.66980000000001,176.9614,175,75
2026-05-09 17:11:58.138,5,-1.63,-1.54,-0.49,145.42139999999998,-70.9898,-79.7586,175,75
2026-05-09 17:11:58.144,5,-1.01,-1.44,-0.89,197.10139999999998,-42.8498,-253.3286,175,75
2026-05-09 17:11:58.154,5,-0.37,-1.04,-1.13,228.0914,-0.5997999999999999,-254.1786,175,75
2026-05-09 17:11:58.166,5,0.08,-0.48,-1.34,247.5914,62.810199999999995,-254.1786,175,75
2026-05-09 17:11:58.172,5,-0.12,-0.54,-0.81,236.5214,92.8002,-254.1786,175,75
2026-05-09 17:11:58.188,5,-0.39,-0.2,-0.48,202.0014,89.0102,-254.1786,175,75
2026-05-09 17:11:58.190,5,-0.61,-0.02,-0.25,162.3614,65.4002,-254.1786,175,75
2026-05-09 17:11:58.210,5,-0.79,0.26,-0.08,114.71140000000001,19.8202,-254.1786,175,75
2026-05-09 17:11:58.224,5,-0.73,0.57,0.07,51.7414,-30.2498,-254.1786,175,75
2026-05-09 17:11:58.224,5,-0.37,0.8,0.16,-26.6186,-65.60979999999999,-254.1786,175,75
2026-05-09 17:11:58.249,5,0.36,1.09,0.11,-149.70860000000002,-49.579800000000006,-254.1786,175,75
2026-05-09 17:11:58.249,5,1.69,1.02,-0.13,-180.70860000000002,14.9602,-254.1786,175,75
2026-05-09 17:11:58.271,5,2.0,2.0,-0.8,-128.6386,66.5902,-50.8386,175,75
2026-05-09 17:11:58.271,5,1.86,2.0,0.24,-53.6986,-38.6298,246.0914,175,75
2026-05-09 17:11:58.284,5,0.28,2.0,0.9,-58.738600000000005,-68.6198,246.0914,175,75
2026-05-09 17:11:58.295,5,-0.04,1.36,1.03,-104.65859999999999,-28.3398,246.0914,175,75
2026-05-09 17:11:58.308,5,0.33,1.12,0.99,-134.4486,62.0402,131.1714,175,75
2026-05-09 17:11:58.320,5,1.04,0.76,1.35,-156.7786,157.0502,97.0514,175,75
2026-05-09 17:11:58.320,5,2.0,0.42,1.86,-178.95860000000002,247.6402,246.0914,175,75
2026-05-09 17:11:58.339,5,2.0,0.0,1.6,-190.9786,247.6402,246.0914,175,75
2026-05-09 17:11:58.345,5,1.5,-2.0,1.33,-188.1886,247.6402,246.0914,175,75
2026-05-09 17:11:58.357,5,-0.71,-0.66,1.42,-125.9586,247.6402,246.0914,175,75
2026-05-09 17:11:58.368,5,-2.0,-1.65,2.0,-52.708600000000004,179.7302,246.0914,175,75
2026-05-09 17:11:58.368,5,-2.0,-1.86,1.94,1.0313999999999997,-47.409800000000004,246.0914,175,75
2026-05-09 17:11:58.389,5,-2.0,-1.97,1.54,55.3114,-189.6998,79.9114,175,75
2026-05-09 17:11:58.400,5,-2.0,-1.83,1.31,118.84140000000001,-238.5398,-254.1786,175,75
2026-05-09 17:11:58.400,5,-2.0,-1.81,1.39,197.7514,-131.7998,-254.1786,175,75
2026-05-09 17:11:58.420,5,-0.9,-1.09,1.49,250.67139999999998,55.5302,-254.1786,175,75
2026-05-09 17:11:58.420,5,-1.12,-0.35,1.36,253.4114,172.68019999999999,-254.1786,175,75
2026-05-09 17:11:58.430,5,-1.24,0.42,1.25,253.4114,143.1702,-254.1786,175,75
2026-05-09 17:11:58.441,5,-0.57,1.53,1.16,253.4114,-13.0598,-254.1786,175,75
2026-05-09 17:11:58.449,5,-0.35,2.0,1.41,253.4114,-157.5598,-254.1786,175,75
2026-05-09 17:11:58.463,5,-0.77,2.0,1.53,253.4114,-223.9798,-254.1786,175,75
2026-05-09 17:11:58.478,5,-1.26,2.0,1.4,219.3014,-252.6298,-254.1786,175,75
2026-05-09 17:11:58.478,5,-0.12,2.0,0.79,144.7114,-252.6298,-254.1786,175,75
2026-05-09 17:11:58.488,5,2.0,2.0,0.19,100.07140000000001,-252.6298,-254.1786,175,75
2026-05-09 17:11:58.511,5,2.0,2.0,-0.1,-3.9186000000000005,-162.4398,245.8314,175,75
2026-05-09 17:11:58.511,5,0.66,2.0,-0.39,-95.34859999999999,-71.3798,246.0914,175,75
2026-05-09 17:11:58.522,5,-0.92,1.97,-0.47,-133.42860000000002,-51.329800000000006,246.0914,175,75
2026-05-09 17:11:58.532,5,-1.31,1.13,-0.58,-127.66859999999998,-44.0598,246.0914,175,75
2026-05-09 17:11:58.541,5,-0.37,0.37,-0.57,-93.53859999999999,-20.189799999999998,246.0914,175,75
2026-05-09 17:11:58.554,5,0.41,-0.52,-0.74,-26.9386,9.040199999999999,246.0914,175,75
2026-05-09 17:11:58.565,5,0.9,1.75,0.04,50.471399999999996,48.1402,246.0914,175,75
2026-05-09 17:11:58.576,5,1.0,-0.46,-0.43,157.8114,90.7702,246.0914,175,75
2026-05-09 17:11:58.587,5,2.0,-1.49,0.18,253.4114,247.6402,246.0914,175,75
2026-05-09 17:11:58.598,5,-0.07,-1.72,2.0,253.4114,247.6402,152.6414,175,75
2026-05-09 17:11:58.612,5,-0.95,0.39,2.0,253.4114,247.6402,-154.1086,175,75
2026-05-09 17:11:58.624,5,-1.87,1.26,2.0,184.0514,247.6402,-254.1786,175,75
2026-05-09 17:11:58.635,5,-2.0,0.79,2.0,37.7114,247.6402,-254.1786,175,75
2026-05-09 17:11:58.643,5,-2.0,1.05,2.0,-41.8586,239.3802,-254.1786,175,75
2026-05-09 17:11:58.657,5,-2.0,0.57,2.0,-67.34859999999999,-15.5898,-254.1786,175,75
2026-05-09 17:11:58.667,5,-2.0,0.21,2.0,-89.56859999999999,-183.34980000000002,-101.5986,175,75
2026-05-09 17:11:58.679,5,-1.08,0.01,2.0,-79.03859999999999,-195.7898,246.0914,175,75
2026-05-09 17:11:58.691,5,-0.68,0.13,1.93,-22.4486,-143.0298,246.0914,175,75
2026-05-09 17:11:58.703,5,-0.44,0.61,2.0,9.401399999999999,-210.0498,246.0914,175,75
2026-05-09 17:11:58.717,5,0.1,0.74,2.0,-53.638600000000004,-252.6298,246.0914,175,75
2026-05-09 17:11:58.730,5,0.28,1.37,2.0,-132.79860000000002,-252.6298,246.0914,175,75
2026-05-09 17:11:58.730,5,-0.16,-0.36,1.2,-159.36860000000001,-252.6298,246.0914,175,75
2026-05-09 17:11:58.741,5,-0.83,-0.93,0.84,-170.95860000000002,-252.6298,246.0914,175,75
2026-05-09 17:11:58.759,5,0.03,-2.0,-0.01,-176.2286,-252.6298,246.0914,175,75
2026-05-09 17:11:58.770,5,0.12,-2.0,-1.36,-92.1686,-252.6298,246.0914,175,75
2026-05-09 17:11:58.770,5,-1.45,-2.0,-1.28,17.4914,-118.63980000000001,25.171400000000002,175,75
2026-05-09 17:11:58.779,5,-1.71,-1.86,-1.34,86.9414,-89.3698,-254.1786,175,75
2026-05-09 17:11:58.794,5,-1.11,-1.12,-1.13,120.3014,-90.3098,-254.1786,175,75
2026-05-09 17:11:58.807,5,-0.52,-0.56,-0.67,148.4314,-69.41980000000001,-254.1786,175,75
2026-05-09 17:11:58.829,5,-0.59,0.41,-0.08,51.611399999999996,-54.3798,-254.1786,175,75
2026-05-09 17:11:58.846,5,-0.49,0.58,-0.06,0.9613999999999998,-85.2898,-254.1786,175,75
2026-05-09 17:11:58.856,5,-0.07,0.72,-0.09,-59.3786,-107.3698,-254.1786,175,75
2026-05-09 17:11:58.867,5,0.87,0.74,-0.22,-116.45859999999999,-77.0098,-254.1786,175,75
2026-05-09 17:11:58.877,5,1.73,0.57,-0.51,-147.1286,30.040200000000002,-213.7586,175,75
2026-05-09 17:11:58.885,5,0.9,0.41,-0.68,-151.73860000000002,109.7102,-92.82860000000001,175,75
2026-05-09 17:11:58.896,5,0.31,0.32,-0.57,-139.1686,148.5902,-30.5186,175,75
2026-05-09 17:11:58.907,5,0.09,0.21,-0.51,-108.40859999999999,172.3102,-5.2185999999999995,175,75
2026-05-09 17:11:58.912,5,0.1,0.18,-0.43,-70.65859999999999,186.1602,10.1314,175,75
2026-05-09 17:11:58.926,5,0.33,0.27,-0.36,-39.7686,197.93019999999999,39.5214,175,75
2026-05-09 17:11:58.941,5,0.68,0.41,-0.22,-18.668599999999998,210.1602,96.4114,175,75
2026-05-09 17:11:58.952,5,0.98,0.73,-0.03,-15.358600000000001,211.8902,193.6414,175,75
2026-05-09 17:11:58.965,5,0.85,1.37,0.64,7.141399999999999,55.910199999999996,246.0914,175,75
2026-05-09 17:11:58.976,5,0.8,1.22,1.51,-10.2486,-121.7198,246.0914,175,75
2026-05-09 17:11:58.987,5,1.68,0.71,1.94,-34.2686,90.6302,246.0914,175,75
2026-05-09 17:11:58.997,5,2.0,0.22,2.0,-61.418600000000005,247.6402,209.4914,175,75
2026-05-09 17:11:59.008,5,2.0,-0.02,2.0,-117.56859999999999,247.6402,246.0914,175,75
2026-05-09 17:11:59.013,5,0.25,-0.56,2.0,-139.7186,247.6402,246.0914,175,75
2026-05-09 17:11:59.025,5,-1.95,-1.53,1.72,-86.28859999999999,247.6402,246.0914,175,75
2026-05-09 17:11:59.038,5,-2.0,-1.87,1.24,60.721399999999996,120.4502,42.7414,175,75
2026-05-09 17:11:59.048,5,-2.0,-1.66,1.33,155.07139999999998,-78.3798,-125.6486,175,75
2026-05-09 17:11:59.077,5,-1.66,-0.45,2.0,217.1414,-134.4398,-254.1786,175,75
2026-05-09 17:11:59.088,5,-1.14,0.09,2.0,210.07139999999998,-131.8398,-254.1786,175,75
2026-05-09 17:11:59.099,5,-0.62,0.83,1.76,253.4114,-201.0598,-254.1786,175,75
2026-05-09 17:11:59.109,5,-0.45,0.98,1.62,224.8114,-171.3398,-254.1786,175,75
2026-05-09 17:11:59.121,5,-0.45,0.93,1.48,173.5914,-139.9898,-254.1786,175,75
2026-05-09 17:11:59.133,5,-0.6,0.89,1.25,123.6314,-128.8798,-254.1786,175,75
2026-05-09 17:11:59.147,5,-0.86,0.96,1.01,80.5514,-159.4898,-254.1786,175,75
2026-05-09 17:11:59.159,5,0.43,1.7,0.44,72.04140000000001,-252.6298,-198.4086,175,75
2026-05-09 17:11:59.173,5,2.0,2.0,0.7,107.6414,-252.6298,107.5914,175,75
2026-05-09 17:11:59.185,5,2.0,2.0,0.74,58.5014,-168.7498,246.0914,175,75
2026-05-09 17:11:59.189,5,2.0,2.0,0.6,-5.768600000000001,11.580200000000001,246.0914,175,75
2026-05-09 17:11:59.204,5,1.34,1.32,0.71,-55.6486,145.2002,246.0914,175,75
2026-05-09 17:11:59.215,5,1.8,0.86,1.01,-115.6186,226.8802,246.0914,175,75
2026-05-09 17:11:59.226,5,2.0,0.85,1.48,-168.0586,247.6402,246.0914,175,75
2026-05-09 17:11:59.237,5,0.52,0.6,2.0,-211.6586,150.7502,246.0914,175,75
2026-05-09 17:11:59.249,5,-0.77,-0.88,1.88,-113.1886,-24.6798,246.0914,175,75
2026-05-09 17:11:59.259,5,-1.36,-0.81,1.55,-70.78859999999999,88.1602,242.2614,175,75
2026-05-09 17:11:59.281,5,-1.77,-1.09,1.35,-24.8286,138.7502,-165.7286,175,75
2026-05-09 17:11:59.292,5,-1.42,-1.11,1.21,2.6413999999999995,78.0502,-243.4486,175,75
2026-05-09 17:11:59.304,5,-0.44,-0.92,1.15,22.5614,-19.439799999999998,-254.1786,175,75
2026-05-09 17:11:59.317,5,0.43,-0.57,0.96,47.791399999999996,-76.1198,-227.5886,175,75
2026-05-09 17:11:59.327,5,0.79,-0.28,0.8,65.4514,-129.9598,-163.2286,175,75
2026-05-09 17:11:59.350,5,1.52,-0.19,0.28,64.4014,-146.4198,-6.018599999999999,175,75
2026-05-09 17:11:59.360,5,1.71,-0.49,-0.27,83.57140000000001,-103.1798,83.4414,175,75
2026-05-09 17:11:59.371,5,2.0,-0.81,-1.66,171.26139999999998,102.9202,246.0914,175,75
2026-05-09 17:11:59.383,5,1.01,-0.48,-1.64,204.3014,152.1402,246.0914,175,75
2026-05-09 17:11:59.407,5,-1.27,-0.29,-0.44,118.51140000000001,25.8302,142.9714,175,75
2026-05-09 17:11:59.408,5,-1.71,-0.29,-0.21,76.3314,-74.2198,50.941399999999994,175,75
2026-05-09 17:11:59.430,5,-1.27,-0.09,0.08,-13.6986,-209.3798,-161.6286,175,75
2026-05-09 17:11:59.440,5,-0.61,0.14,0.18,-70.8886,-188.8698,-252.9786,175,75
2026-05-09 17:11:59.464,5,0.01,0.42,0.03,-176.3586,-88.7598,-254.1786,175,75
2026-05-09 17:11:59.469,5,0.11,0.49,-0.02,-204.9986,-47.839800000000004,-254.1786,175,75
2026-05-09 17:11:59.485,5,0.22,0.53,-0.02,-218.89860000000002,-12.3398,-254.1786,175,75
2026-05-09 17:11:59.497,5,0.4,0.5,-0.04,-218.3186,22.270200000000003,-254.1786,175,75
2026-05-09 17:11:59.509,5,0.73,0.47,-0.03,-210.7486,67.0902,-254.1786,175,75
2026-05-09 17:11:59.522,5,0.64,0.49,0.08,-193.95860000000002,186.3602,-254.1786,175,75
2026-05-09 17:11:59.534,5,0.31,0.41,0.13,-174.2786,226.7102,-211.5986,175,75
2026-05-09 17:11:59.560,5,0.3,0.54,0.4,-76.40859999999999,223.7302,18.5314,175,75
2026-05-09 17:11:59.573,5,0.24,0.66,0.77,-28.2686,206.7102,141.1714,175,75
2026-05-09 17:11:59.573,5,-0.03,0.72,0.97,-5.4886,186.0002,235.4614,175,75
2026-05-09 17:11:59.583,5,-0.14,0.67,0.96,-9.2286,147.7802,246.0914,175,75
2026-05-09 17:11:59.597,5,-0.03,0.65,1.0,-26.248600000000003,87.7602,246.0914,175,75
2026-05-09 17:11:59.608,5,0.24,0.85,1.3,-58.458600000000004,-19.1998,246.0914,175,75
2026-05-09 17:11:59.608,5,0.25,0.86,1.74,-102.0486,-217.1298,246.0914,175,75
2026-05-09 17:11:59.639,5,2.0,-0.2,1.39,-56.9286,5.7902,68.7514,175,75
2026-05-09 17:11:59.651,5,1.28,-0.26,0.99,10.0114,247.6402,-67.9286,175,75
2026-05-09 17:11:59.677,5,1.56,-1.18,0.74,80.8114,247.6402,-19.9586,175,75
2026-05-09 17:11:59.677,5,1.93,-0.69,1.83,42.8414,247.6402,246.0914,175,75
2026-05-09 17:11:59.698,5,-1.69,-0.78,1.85,43.3114,243.7902,246.0914,175,75
2026-05-09 17:11:59.711,5,-2.0,-0.83,2.0,31.391399999999997,156.4902,246.0914,175,75
2026-05-09 17:11:59.735,5,-2.0,-1.38,2.0,-4.698600000000001,109.11019999999999,-221.9086,175,75
2026-05-09 17:11:59.748,5,-2.0,-1.78,2.0,15.1214,91.5602,-254.1786,175,75
2026-05-09 17:11:59.758,5,-1.78,-1.79,2.0,91.34140000000001,12.490200000000002,-254.1786,175,75
2026-05-09 17:11:59.758,5,-1.56,-1.0,1.81,183.2414,-97.6598,-254.1786,175,75
2026-05-09 17:11:59.771,5,-1.11,-0.05,1.54,247.07139999999998,-178.34980000000002,-254.1786,175,75
2026-05-09 17:11:59.792,5,-0.32,1.07,1.54,226.6214,-233.34980000000002,-254.1786,175,75
2026-05-09 17:11:59.812,5,-0.01,1.3,1.54,187.6214,-235.3698,-254.1786,175,75
2026-05-09 17:11:59.812,5,0.4,1.25,1.58,142.9314,-216.8898,-254.1786,175,75
2026-05-09 17:11:59.825,5,0.91,1.03,1.6,99.9214,-160.8798,-188.9286,175,75
2026-05-09 17:11:59.829,5,1.3,0.73,1.61,68.7714,-67.5698,-61.1986,175,75
2026-05-09 17:11:59.860,5,0.53,0.26,1.26,21.3814,203.2702,246.0914,175,75
2026-05-09 17:11:59.895,5,-1.59,-0.12,1.28,21.901400000000002,107.4802,246.0914,175,75
2026-05-09 17:11:59.920,5,-1.36,-0.6,1.26,50.8714,-45.259800000000006,-8.2286,175,75
2026-05-09 17:11:59.930,5,-1.0,-0.47,1.1,85.43140000000001,-83.88980000000001,-117.4886,175,75
2026-05-09 17:11:59.938,5,-0.3,0.24,1.01,114.54140000000001,-120.3698,-241.4086,175,75
2026-05-09 17:11:59.963,5,0.02,0.7,0.74,106.1714,-195.0098,-254.1786,175,75
2026-05-09 17:11:59.972,5,0.1,0.88,0.54,96.82140000000001,-232.8298,-254.1786,175,75
2026-05-09 17:12:00.001,5,1.32,0.5,-0.36,53.441399999999994,-221.2298,-150.5686,175,75
2026-05-09 17:12:00.016,5,1.13,0.36,-0.48,60.831399999999995,-180.1298,5.5614,175,75
2026-05-09 17:12:00.023,5,0.47,0.13,-0.13,63.6414,-161.59980000000002,106.4614,175,75
2026-05-09 17:12:00.037,5,0.09,0.03,-0.2,63.111399999999996,-166.8398,181.6714,175,75
2026-05-09 17:12:00.047,5,0.01,-0.04,-0.21,64.8514,-178.4298,246.0914,175,75
2026-05-09 17:12:00.063,5,-0.01,0.11,-0.0,40.511399999999995,-158.2398,246.0914,175,75
2026-05-09 17:12:00.072,5,-0.03,0.06,0.01,19.141399999999997,-101.2198,246.0914,175,75
2026-05-09 17:12:00.096,5,-0.24,-0.02,-0.16,-4.4186000000000005,19.790200000000002,196.4714,175,75
2026-05-09 17:12:00.107,5,-0.25,-0.17,-0.25,-0.4086000000000003,67.8502,135.7514,175,75
2026-05-09 17:12:00.133,5,0.05,-0.03,-0.14,12.4414,165.7902,14.101400000000002,175,75
2026-05-09 17:12:00.156,5,0.3,0.04,-0.08,11.2314,226.7502,-7.858599999999999,175,75
2026-05-09 17:12:00.179,5,0.35,0.0,-0.2,23.8814,247.6402,7.601400000000001,175,75
2026-05-09 17:12:00.179,5,0.45,0.18,-0.19,31.221400000000003,247.6402,21.3614,175,75
2026-05-09 17:12:00.200,5,0.54,0.66,0.26,33.4514,115.8902,83.2114,175,75
2026-05-09 17:12:00.211,5,0.09,0.32,0.37,-40.3386,14.4802,79.6314,175,75
2026-05-09 17:12:00.224,5,-0.17,-0.02,0.29,-48.8686,14.150200000000002,69.2214,175,75
2026-05-09 17:12:00.239,5,0.22,-0.03,0.78,-60.3186,49.590199999999996,57.5714,175,75
2026-05-09 17:12:00.249,5,0.8,-0.04,1.12,-70.5586,187.5002,53.611399999999996,175,75
2026-05-09 17:12:00.269,5,0.84,0.09,1.54,-93.7986,247.6402,41.6614,175,75
2026-05-09 17:12:00.269,5,0.83,0.11,1.93,-137.1886,247.6402,8.6414,175,75
2026-05-09 17:12:00.282,5,0.67,0.9,2.0,-246.8586,247.6402,93.0014,175,75
2026-05-09 17:12:00.304,5,-2.0,-0.69,2.0,-207.2886,247.6402,176.8414,175,75
2026-05-09 17:12:00.311,5,-2.0,-1.36,2.0,-108.1186,247.6402,97.7514,175,75
2026-05-09 17:12:00.325,5,-2.0,-1.71,2.0,1.4913999999999996,-136.4798,28.801400000000005,175,75
2026-05-09 17:12:00.347,5,-2.0,-0.88,1.62,197.48139999999998,-252.6298,-82.5986,175,75
2026-05-09 17:12:00.377,5,1.11,0.33,0.16,224.32139999999998,-252.6298,-64.0886,175,75
2026-05-09 17:12:00.392,5,2.0,0.97,-2.0,147.4114,-46.9898,186.7014,175,75
2026-05-09 17:12:00.406,5,2.0,0.95,-2.0,111.6414,203.93019999999999,141.2914,175,75
2026-05-09 17:12:00.418,5,-0.88,-0.15,-0.38,6.1613999999999995,53.4302,114.6614,175,75
2026-05-09 17:12:00.437,5,-0.89,-0.37,-0.2,6.0214,-58.1998,158.5114,175,75
2026-05-09 17:12:00.458,5,-0.53,-0.41,0.48,17.2414,-148.2498,216.5014,175,75
2026-05-09 17:12:00.458,5,0.16,-0.29,1.23,8.8214,-39.939800000000005,173.5914,175,75
2026-05-09 17:12:00.484,5,0.81,0.63,1.81,-135.8586,247.6402,-130.2586,175,75
2026-05-09 17:12:00.494,5,1.12,0.44,2.0,-203.7286,247.6402,-254.1786,175,75
2026-05-09 17:12:00.511,5,0.7,-0.01,2.0,-120.9786,159.0302,-48.128600000000006,175,75
2026-05-09 17:12:00.544,5,-2.0,-0.18,1.53,40.8414,122.61019999999999,32.3514,175,75
2026-05-09 17:12:00.553,5,-2.0,0.48,2.0,50.5514,-120.1798,106.1914,175,75
2026-05-09 17:12:00.569,5,-2.0,0.78,2.0,-10.438600000000001,-242.8098,135.0114,175,75
2026-05-09 17:12:00.569,5,-0.86,0.33,2.0,-56.348600000000005,-252.6298,239.1414,175,75
2026-05-09 17:12:00.578,5,0.1,-0.11,1.84,-51.2986,-252.6298,246.0914,175,75
2026-05-09 17:12:00.592,5,0.44,-0.22,1.63,-38.7286,-252.6298,246.0914,175,75
2026-05-09 17:12:00.603,5,0.47,0.04,1.58,-28.2986,-209.6998,246.0914,175,75
2026-05-09 17:12:00.615,5,0.5,-0.42,0.96,-2.6486,-162.09980000000002,246.0914,175,75
2026-05-09 17:12:00.631,5,-0.09,-0.63,0.54,58.941399999999994,-181.5398,246.0914,175,75
2026-05-09 17:12:00.659,5,0.19,-1.56,-0.12,97.6114,-225.6798,246.0914,175,75
2026-05-09 17:12:00.669,5,0.25,-1.81,-0.4,107.65140000000001,-144.1798,224.1214,175,75
2026-05-09 17:12:00.680,5,0.22,-1.75,-0.48,129.1714,-49.259800000000006,62.871399999999994,175,75
2026-05-09 17:12:00.702,5,0.26,-1.64,-0.58,158.1114,36.5002,-47.6886,175,75
2026-05-09 17:12:00.733,5,-0.68,-0.99,0.2,176.63139999999999,81.9202,-145.5086,175,75
2026-05-09 17:12:00.740,5,-0.94,-0.16,-0.04,133.01139999999998,25.6402,-184.0086,175,75
2026-05-09 17:12:00.764,5,-0.93,0.03,0.06,98.04140000000001,-26.319799999999997,-223.8586,175,75
2026-05-09 17:12:00.764,5,-0.86,0.27,0.12,52.7114,-73.77980000000001,-254.1786,175,75
2026-05-09 17:12:00.787,5,-0.75,0.56,0.2,-5.438600000000001,-113.77980000000001,-254.1786,175,75
2026-05-09 17:12:00.787,5,-0.56,0.72,0.23,-64.1086,-138.8598,-254.1786,175,75
2026-05-09 17:12:00.802,5,-0.19,0.87,0.23,-116.6086,-143.8598,-254.1786,175,75
2026-05-09 17:12:00.802,5,0.36,0.9,0.22,-152.2786,-116.8598,-254.1786,175,75
2026-05-09 17:12:00.812,5,2.0,1.32,-0.66,-138.1586,-3.9097999999999997,-219.8586,175,75
2026-05-09 17:12:00.827,5,2.0,2.0,-0.13,-48.0886,28.2302,246.0914,175,75
2026-05-09 17:12:00.847,5,-0.18,2.0,1.43,-246.8586,147.0702,246.0914,175,75
2026-05-09 17:12:00.847,5,0.54,1.2,1.61,-246.8586,137.0402,72.1314,175,75
2026-05-09 17:12:00.883,5,2.0,-1.14,1.27,-223.6886,247.6402,246.0914,175,75
2026-05-09 17:12:00.899,5,-2.0,-0.95,1.94,-11.5386,147.0202,246.0914,175,75
2026-05-09 17:12:00.909,5,-2.0,-1.16,2.0,-22.7286,-86.9298,246.0914,175,75
2026-05-09 17:12:00.930,5,-2.0,-1.42,1.97,-24.348599999999998,-211.3298,95.45139999999999,175,75
2026-05-09 17:12:00.940,5,-2.0,-1.45,1.87,-3.4786,-229.5398,-254.1786,175,75
2026-05-09 17:12:00.963,5,-0.52,-1.6,2.0,105.90140000000001,2.0302,-254.1786,175,75
2026-05-09 17:12:00.963,5,-1.07,-0.78,2.0,164.9314,-22.0998,-254.1786,175,75
2026-05-09 17:12:00.974,5,-0.12,0.08,1.62,210.2514,-68.13980000000001,-254.1786,175,75
2026-05-09 17:12:00.997,5,0.48,0.65,1.38,251.88139999999999,-78.8598,-254.1786,175,75
2026-05-09 17:12:01.027,5,-0.43,0.88,1.19,156.7414,-48.689800000000005,-254.1786,175,75
2026-05-09 17:12:01.027,5,-0.68,0.95,1.01,106.1714,-62.1498,-254.1786,175,75
2026-05-09 17:12:01.044,5,-0.87,1.11,0.85,49.1414,-100.8198,-238.5786,175,75
2026-05-09 17:12:01.056,5,-0.2,1.63,0.53,3.5513999999999997,-141.6998,-202.9686,175,75
2026-05-09 17:12:01.067,5,1.13,2.0,0.14,-31.2586,-159.1798,-72.9786,175,75
2026-05-09 17:12:01.079,5,2.0,2.0,0.03,-76.45859999999999,-95.2998,114.9114,175,75
2026-05-09 17:12:01.089,5,0.82,1.97,-0.0,-131.61860000000001,-20.189799999999998,246.0914,175,75
2026-05-09 17:12:01.108,5,-0.08,-0.05,-0.47,-139.4686,-18.7498,246.0914,175,75
2026-05-09 17:12:01.121,5,0.01,-0.43,-0.54,-74.7986,-24.119799999999998,246.0914,175,75
2026-05-09 17:12:01.146,5,0.39,-0.82,-0.48,82.8514,-30.639799999999997,246.0914,175,75
2026-05-09 17:12:01.146,5,0.7,-0.35,-0.1,139.4714,-18.869799999999998,246.0914,175,75
2026-05-09 17:12:01.170,5,1.22,-0.35,0.26,179.5914,30.850200000000005,246.0914,175,75
2026-05-09 17:12:01.191,5,1.88,-1.58,2.0,253.4114,247.6402,246.0914,175,75
2026-05-09 17:12:01.191,5,0.52,0.06,2.0,229.7214,247.6402,165.4614,175,75
2026-05-09 17:12:01.216,5,-2.0,0.33,2.0,73.3014,247.6402,-254.1786,175,75
2026-05-09 17:12:01.228,5,-2.0,0.3,2.0,7.961399999999999,247.6402,-254.1786,175,75
2026-05-09 17:12:01.240,5,-2.0,0.29,2.0,-22.108600000000003,135.8902,-254.1786,175,75
2026-05-09 17:12:01.240,5,-2.0,0.42,2.0,-39.1286,-102.5598,-132.36860000000001,175,75
2026-05-09 17:12:01.263,5,-0.61,-0.22,2.0,-58.7486,-228.5398,223.5914,175,75
2026-05-09 17:12:01.277,5,-0.07,-0.41,1.88,-23.568600000000004,-199.6598,246.0914,175,75
2026-05-09 17:12:01.291,5,-0.06,-0.29,1.73,-6.3286,-207.8398,246.0914,175,75
2026-05-09 17:12:01.291,5,-0.1,-0.36,1.46,-24.4086,-223.7098,246.0914,175,75
2026-05-09 17:12:01.311,5,-0.35,-0.21,1.36,-52.3686,-252.6298,246.0914,175,75
2026-05-09 17:12:01.311,5,-0.68,-0.5,1.17,-84.2786,-252.6298,246.0914,175,75
2026-05-09 17:12:01.327,5,-0.63,-0.89,0.78,-121.9786,-252.6298,246.0914,175,75
2026-05-09 17:12:01.333,5,0.74,-1.94,-0.17,-124.7186,-252.6298,246.0914,175,75
2026-05-09 17:12:01.360,5,-0.18,-2.0,-1.0,23.4814,-125.7098,-58.528600000000004,175,75
2026-05-09 17:12:01.360,5,-0.31,-1.4,-0.96,90.7514,-61.9698,-216.1886,175,75
2026-05-09 17:12:01.375,5,-0.1,-0.82,-1.12,120.3614,-22.6698,-254.1786,175,75
2026-05-09 17:12:01.676,5,-0.45,0.27,-0.32,-0.7385999999999999,-50.939800000000005,-228.7286,175,75
2026-05-09 17:12:01.676,5,0.13,0.37,-0.09,-87.9186,-64.2398,-229.5086,175,75
2026-05-09 17:12:01.676,5,0.46,0.35,-0.06,-106.56859999999999,-14.9498,-224.0686,175,75
2026-05-09 17:12:01.676,5,0.57,0.34,-0.07,-115.3286,53.8202,-221.7686,175,75
2026-05-09 17:12:01.676,5,0.84,0.44,-0.1,-111.45859999999999,195.93019999999999,-235.5386,175,75
2026-05-09 17:12:01.676,5,0.29,1.85,1.77,-33.458600000000004,-1.5797999999999996,246.0914,175,75
2026-05-09 17:12:01.676,5,1.12,1.09,1.87,-93.4486,138.2002,194.6714,175,75
2026-05-09 17:12:01.676,5,1.98,-0.01,1.96,-145.82860000000002,247.6402,167.0614,175,75
2026-05-09 17:12:01.676,5,-2.0,-1.61,1.61,104.6114,-209.1098,-236.2386,175,75
2026-05-09 17:12:01.676,5,-1.81,-0.83,2.0,229.5214,-154.1998,-254.1786,175,75
2026-05-09 17:12:01.770,5,-0.13,1.34,1.39,253.4114,-252.6298,-254.1786,175,75
2026-05-09 17:12:01.770,5,-0.05,1.89,1.39,253.4114,-252.6298,-254.1786,175,75
2026-05-09 17:12:01.770,5,0.45,1.56,0.83,181.73139999999998,-252.6298,-254.1786,175,75
2026-05-09 17:12:01.770,5,0.78,1.4,-0.49,-25.7286,-181.6798,246.0914,175,75
2026-05-09 17:12:01.770,5,1.96,0.73,-0.99,43.2114,-16.2198,246.0914,175,75
2026-05-09 17:12:01.956,5,1.63,-0.35,2.0,84.5214,200.3602,246.0914,175,75
2026-05-09 17:12:01.956,5,-0.67,0.44,2.0,29.9414,247.6402,48.471399999999996,175,75
2026-05-09 17:12:01.956,5,-1.85,0.66,2.0,-27.858600000000003,247.6402,-254.1786,175,75
2026-05-09 17:12:01.956,5,-1.96,0.4,2.0,36.5914,-150.9198,-46.3386,175,75
2026-05-09 17:12:01.956,5,-1.51,0.36,2.0,31.9914,-209.6398,48.6814,175,75
2026-05-09 17:12:01.956,5,0.99,-0.36,0.37,15.3814,-152.3398,246.0914,175,75
2026-05-09 17:12:01.969,5,0.61,-0.83,-0.08,36.7314,-217.34980000000002,246.0914,175,75
2026-05-09 17:12:01.969,5,2.0,-2.0,-1.67,52.221399999999996,-197.8898,246.0914,175,75
2026-05-09 17:12:02.080,5,-0.55,-0.19,0.13,17.4314,18.2502,-254.1786,175,75
2026-05-09 17:12:02.080,5,-0.34,-0.02,0.13,-42.7886,35.700199999999995,-254.1786,175,75
2026-05-09 17:12:02.080,5,-0.27,0.12,0.07,-100.37859999999999,31.3302,-254.1786,175,75
2026-05-09 17:12:02.097,5,-0.19,0.33,0.06,-179.5086,6.0802000000000005,-254.1786,175,75
2026-05-09 17:12:02.098,5,0.03,0.56,0.09,-204.5986,6.990200000000001,-254.1786,175,75
2026-05-09 17:12:02.105,5,0.0,0.6,0.08,-218.23860000000002,13.720200000000002,-254.1786,175,75
2026-05-09 17:12:02.147,5,0.29,0.59,0.08,-220.2786,34.1802,-254.1786,175,75
2026-05-09 17:12:02.149,5,-0.31,0.8,0.38,-71.1686,98.2102,-49.9286,175,75
2026-05-09 17:12:02.372,5,-0.01,0.58,0.62,-19.318600000000004,67.97019999999999,57.9514,175,75
2026-05-09 17:12:02.372,5,2.0,0.87,2.0,-19.238599999999998,-220.4098,246.0914,175,75
2026-05-09 17:12:02.372,5,2.0,0.01,2.0,-15.568600000000002,76.7902,246.0914,175,75
2026-05-09 17:12:02.372,5,-0.4,-2.0,1.51,-48.668600000000005,247.6402,246.0914,175,75
2026-05-09 17:12:02.372,5,-0.97,-1.45,0.9,-47.4286,247.6402,246.0914,175,75
2026-05-09 17:12:02.372,5,-2.0,-1.35,1.08,-38.4286,161.6002,246.0914,175,75
2026-05-09 17:12:02.372,5,-2.0,-1.22,1.36,-12.7386,42.8302,246.0914,175,75
2026-05-09 17:12:02.373,5,-2.0,-1.02,1.71,8.4614,-0.18979999999999997,17.881400000000003,175,75
2026-05-09 17:12:02.373,5,-2.0,-0.98,2.0,21.7014,31.920199999999998,-254.1786,175,75
2026-05-09 17:12:02.373,5,-1.22,-0.86,2.0,44.3914,97.4302,-254.1786,175,75
2026-05-09 17:12:02.373,5,-0.38,1.02,1.5,146.0214,-181.3898,-254.1786,175,75
2026-05-09 17:12:02.373,5,-0.32,0.77,1.32,124.82140000000001,-181.09980000000002,-254.1786,175,75
2026-05-09 17:12:02.445,5,0.44,0.65,1.5,-16.038600000000002,107.22019999999999,246.0914,175,75
2026-05-09 17:12:02.445,5,0.22,0.49,1.34,-27.4086,133.6702,246.0914,175,75
2026-05-09 17:12:02.492,5,-0.69,0.28,1.26,-44.1186,118.22019999999999,246.0914,175,75
2026-05-09 17:12:02.506,5,-0.8,-0.89,0.82,67.3114,-187.4098,-6.0886,175,75
2026-05-09 17:12:02.516,5,-0.51,-0.54,0.75,90.0514,-121.5798,-121.32860000000001,175,75
2026-05-09 17:12:02.527,5,-0.38,-0.21,0.66,99.6114,-52.049800000000005,-224.8586,175,75
2026-05-09 17:12:02.553,5,-0.38,0.52,0.29,58.0714,-0.1397999999999997,-254.1786,175,75
2026-05-09 17:12:02.567,5,-0.2,0.56,0.06,60.3514,-80.5398,-254.1786,175,75
2026-05-09 17:12:02.567,5,0.17,0.56,-0.01,78.57140000000001,-197.4698,-254.1786,175,75
2026-05-09 17:12:02.578,5,0.94,0.8,0.11,67.87140000000001,-236.2798,-254.1786,175,75
2026-05-09 17:12:02.590,5,1.36,0.71,0.06,49.2814,-196.5098,-149.4786,175,75
2026-05-09 17:12:02.610,5,0.04,0.27,0.12,26.6614,-145.6398,47.3514,175,75
2026-05-09 17:12:02.622,5,-0.11,0.08,0.12,20.7314,-147.0198,101.3814,175,75
2026-05-09 17:12:02.632,5,-0.2,0.04,0.1,21.5614,-148.59980000000002,160.6514,175,75
2026-05-09 17:12:02.643,5,-0.24,0.08,0.08,20.321399999999997,-143.3098,195.13139999999999,175,75
2026-05-09 17:12:02.648,5,-0.15,0.1,0.02,19.2014,-126.0198,207.9014,175,75
2026-05-09 17:12:02.665,5,0.09,0.11,-0.11,18.6814,-92.0898,204.9914,175,75
2026-05-09 17:12:02.677,5,0.34,0.14,-0.24,19.971400000000003,-45.9898,195.4414,175,75
2026-05-09 17:12:02.688,5,0.4,0.13,0.03,28.2314,10.5902,180.2314,175,75
2026-05-09 17:12:02.699,5,0.19,0.21,-0.23,31.651400000000002,61.9002,159.0414,175,75
2026-05-09 17:12:02.699,5,0.13,0.22,-0.25,26.651400000000002,99.0202,135.0714,175,75
2026-05-09 17:12:02.717,5,0.13,0.21,-0.22,22.391399999999997,125.8502,112.3314,175,75
2026-05-09 17:12:02.735,5,0.16,0.38,-0.08,10.9514,180.15019999999998,61.9114,175,75
2026-05-09 17:12:02.745,5,0.24,0.46,-0.01,0.3413999999999997,211.9502,26.491400000000002,175,75
2026-05-09 17:12:02.764,5,0.24,0.57,0.19,-8.7286,247.6402,43.2314,175,75
2026-05-09 17:12:02.777,5,-0.29,0.49,0.24,1.0913999999999997,247.6402,18.4314,175,75
2026-05-09 17:12:02.777,5,0.07,0.73,0.68,2.3114,189.3902,38.371399999999994,175,75
2026-05-09 17:12:02.792,5,0.67,1.01,1.71,-21.6886,118.4002,142.7214,175,75
2026-05-09 17:12:02.800,5,1.06,0.91,2.0,-74.73859999999999,192.2002,199.8214,175,75
2026-05-09 17:12:02.826,5,1.01,1.05,2.0,-245.6086,247.6402,246.0914,175,75
2026-05-09 17:12:02.841,5,-1.6,0.8,2.0,-246.8586,247.6402,246.0914,175,75
2026-05-09 17:12:02.841,5,-2.0,-0.27,2.0,-238.23860000000002,247.6402,246.0914,175,75
2026-05-09 17:12:02.855,5,-2.0,-0.76,2.0,-175.0286,247.6402,171.4714,175,75
2026-05-09 17:12:02.867,5,-2.0,-1.11,2.0,-112.8986,-15.6598,77.6114,175,75
2026-05-09 17:12:02.908,5,-2.0,-0.53,1.91,24.5914,-252.6298,-24.3586,175,75
2026-05-09 17:12:02.919,5,-0.55,-0.38,1.38,32.7014,-252.6298,-46.1486,175,75
2026-05-09 17:12:02.931,5,1.02,-0.17,0.5,62.901399999999995,-252.6298,2.4614000000000003,175,75
2026-05-09 17:12:02.942,5,1.41,-0.18,0.15,82.32140000000001,-252.6298,37.5914,175,75
2026-05-09 17:12:02.954,5,2.0,-0.1,-0.45,102.18140000000001,-252.6298,78.2914,175,75
2026-05-09 17:12:02.969,5,2.0,0.32,-2.0,108.8614,-86.5398,238.8114,175,75
2026-05-09 17:12:03.028,5,-0.45,-0.68,0.48,71.9514,-91.1498,165.3214,175,75
2026-05-09 17:12:03.046,5,-0.08,-0.92,0.8,30.0514,-71.9598,52.5014,175,75
2026-05-09 17:12:03.051,5,0.42,-1.13,1.14,25.4514,13.900200000000002,-45.1886,175,75
2026-05-09 17:12:03.066,5,0.79,-0.91,1.44,22.4514,168.3402,-110.0986,175,75
2026-05-09 17:12:03.066,5,0.27,-0.66,2.0,20.211399999999998,247.6402,-233.1386,175,75
2026-05-09 17:12:03.080,5,0.36,-0.22,2.0,38.7014,247.6402,-254.1786,175,75
2026-05-09 17:12:03.080,5,1.13,0.97,2.0,24.831400000000002,247.6402,-254.1786,175,75
2026-05-09 17:12:03.093,5,0.1,1.06,2.0,-25.988599999999998,233.15019999999998,-254.1786,175,75
2026-05-09 17:12:03.093,5,-0.7,0.58,2.0,-7.1386,146.90019999999998,-254.1786,175,75
2026-05-09 17:12:03.113,5,-1.99,0.64,2.0,15.071399999999999,8.6402,-254.1786,175,75
2026-05-09 17:12:03.126,5,-1.76,0.87,2.0,29.831400000000002,-220.2198,-17.7986,175,75
2026-05-09 17:12:03.138,5,-0.73,0.87,2.0,53.941399999999994,-252.6298,165.4014,175,75
2026-05-09 17:12:03.155,5,0.34,0.86,2.0,92.18140000000001,-252.6298,246.0914,175,75
2026-05-09 17:12:03.155,5,1.04,0.88,2.0,94.7214,-218.3598,246.0914,175,75
2026-05-09 17:12:03.180,5,1.61,0.47,1.14,37.7414,-37.909800000000004,246.0914,175,75
2026-05-09 17:12:03.180,5,1.1,0.39,0.88,24.751399999999997,48.7602,246.0914,175,75
2026-05-09 17:12:03.190,5,0.02,0.12,0.78,23.1614,2.5602,246.0914,175,75
2026-05-09 17:12:03.213,5,-0.11,-1.9,0.65,-128.3886,-252.6298,246.0914,175,75
2026-05-09 17:12:03.240,5,-2.0,-1.7,-0.4,58.191399999999994,-84.1198,-118.8886,175,75
2026-05-09 17:12:03.263,5,-0.32,-1.05,-0.64,188.01139999999998,-50.6798,-254.1786,175,75
2026-05-09 17:12:03.274,5,0.55,-0.37,-0.62,185.9414,24.110200000000003,-254.1786,175,75
2026-05-09 17:12:03.285,5,0.81,-0.39,-0.43,174.0214,103.9102,-254.1786,175,75
2026-05-09 17:12:03.307,5,-0.21,0.3,-0.37,-9.9786,115.0302,-242.2786,175,75
2026-05-09 17:12:03.343,5,-0.2,0.28,-0.3,-116.73859999999999,-50.8598,-239.2186,175,75
2026-05-09 17:12:03.360,5,0.07,0.19,-0.23,-120.01859999999999,-66.5698,-229.1886,175,75
2026-05-09 17:12:03.360,5,0.22,0.23,-0.14,-115.4686,-56.6398,-229.6586,175,75
2026-05-09 17:12:03.381,5,0.27,0.19,-0.02,-103.6986,-34.0098,-224.3286,175,75
2026-05-09 17:12:03.383,5,0.29,0.21,0.08,-93.09859999999999,1.3302,-225.5486,175,75
2026-05-09 17:12:03.406,5,0.36,0.23,0.12,-76.06859999999999,44.420199999999994,-217.89860000000002,175,75
2026-05-09 17:12:03.417,5,0.53,0.36,0.12,-73.0086,90.4002,-205.5686,175,75
2026-05-09 17:12:03.428,5,1.25,0.56,0.22,-63.9986,139.5402,-142.1886,175,75
2026-05-09 17:12:03.428,5,2.0,1.6,0.65,-32.5386,22.0102,189.9714,175,75
2026-05-09 17:12:03.471,5,1.69,1.58,2.0,-191.6386,134.2402,143.63139999999999,175,75
2026-05-09 17:12:03.471,5,2.0,1.03,2.0,-246.8586,247.6402,181.4814,175,75
2026-05-09 17:12:03.484,5,2.0,-0.01,2.0,-246.8586,247.6402,246.0914,175,75
2026-05-09 17:12:03.511,5,-1.28,-0.67,1.93,-120.6886,247.6402,246.0914,175,75
2026-05-09 17:12:03.525,5,-2.0,-0.94,1.98,-87.5886,157.3602,246.0914,175,75
2026-05-09 17:12:03.525,5,-2.0,-1.22,1.98,-51.9786,7.4302,215.6414,175,75
2026-05-09 17:12:03.535,5,-2.0,-1.49,2.0,-16.788600000000002,-89.16980000000001,101.8314,175,75
2026-05-09 17:12:03.548,5,-1.65,-1.39,2.0,13.141399999999999,-160.9998,-0.6285999999999996,175,75
2026-05-09 17:12:03.561,5,-0.87,-1.17,2.0,11.0914,-199.1798,-49.418600000000005,175,75
2026-05-09 17:12:03.571,5,-0.65,-0.95,1.68,25.2314,-252.6298,-112.7686,175,75
2026-05-09 17:12:03.571,5,-0.16,-0.68,1.21,49.6214,-252.6298,-176.14860000000002,175,75
2026-05-09 17:12:03.581,5,0.26,-0.35,0.9,74.5314,-252.6298,-230.5286,175,75
2026-05-09 17:12:03.592,5,0.74,-0.05,0.66,99.26140000000001,-196.4298,-254.1786,175,75
2026-05-09 17:12:03.602,5,0.91,0.54,0.44,111.8814,-64.7598,-254.1786,175,75
2026-05-09 17:12:03.623,5,1.33,0.62,0.22,105.84140000000001,-35.4298,-254.1786,175,75
2026-05-09 17:12:03.623,5,1.75,0.77,-0.18,124.9714,-15.3798,-116.5186,175,75
2026-05-09 17:12:03.633,5,0.97,0.91,-0.0,103.76140000000001,30.0102,-41.278600000000004,175,75
2026-05-09 17:12:03.648,5,0.09,0.73,-0.02,81.7514,54.020199999999996,-35.5386,175,75
2026-05-09 17:12:03.657,5,-0.3,0.42,-0.08,70.5214,43.1202,-49.4386,175,75
2026-05-09 17:12:03.670,5,-0.32,0.17,-0.11,75.3114,20.3002,-48.848600000000005,175,75
2026-05-09 17:12:03.682,5,-0.33,-0.03,-0.03,103.68140000000001,-60.7498,25.651400000000002,175,75
2026-05-09 17:12:03.699,5,0.01,-0.04,0.19,119.9714,-70.99980000000001,93.03139999999999,175,75
2026-05-09 17:12:03.713,5,0.6,-0.04,0.49,128.88139999999999,27.2402,179.1114,175,75
2026-05-09 17:12:03.737,5,1.79,0.1,0.94,104.0614,247.6402,246.0914,175,75
2026-05-09 17:12:03.758,5,2.0,1.18,2.0,-0.7385999999999999,247.6402,246.0914,175,75
2026-05-09 17:12:03.769,5,0.03,0.17,2.0,-43.888600000000004,247.6402,246.0914,175,75
2026-05-09 17:12:03.784,5,-1.7,-0.19,2.0,-55.9786,247.6402,246.0914,175,75
2026-05-09 17:12:03.794,5,-2.0,-0.32,2.0,-69.01859999999999,247.6402,36.6414,175,75
2026-05-09 17:12:03.797,5,-2.0,-1.02,1.8,-67.8286,247.6402,-203.6086,175,75
2026-05-09 17:12:03.809,5,-2.0,-1.29,1.81,-35.4386,146.0202,-254.1786,175,75
2026-05-09 17:12:03.829,5,-2.0,-1.2,2.0,28.611399999999996,5.7702,-254.1786,175,75
2026-05-09 17:12:03.843,5,-0.92,0.22,2.0,70.0514,-252.6298,-161.6386,175,75
2026-05-09 17:12:03.864,5,-0.71,0.42,2.0,40.761399999999995,-252.6298,-135.7086,175,75
2026-05-09 17:12:03.879,5,-0.32,0.36,1.66,5.7514,-252.6298,-107.43860000000001,175,75
2026-05-09 17:12:03.891,5,0.14,0.19,1.26,-20.6586,-252.6298,-70.5686,175,75
2026-05-09 17:12:03.903,5,0.24,0.14,0.92,-30.608600000000003,-252.6298,-16.4786,175,75
2026-05-09 17:12:03.916,5,0.68,-0.02,0.4,-23.208599999999997,-209.6798,90.2514,175,75
2026-05-09 17:12:03.923,5,0.65,-0.0,0.17,-18.898600000000002,-206.0498,125.16139999999999,175,75
2026-05-09 17:12:03.931,5,0.72,-0.13,-0.13,-8.5486,-212.56980000000001,172.6214,175,75
2026-05-09 17:12:03.944,5,1.21,-0.14,-0.36,-3.3686000000000007,-211.1498,196.5214,175,75
2026-05-09 17:12:03.954,5,1.19,-0.36,-1.1,-8.6386,-13.599799999999998,136.0314,175,75
2026-05-09 17:12:03.961,5,0.36,-0.47,-0.56,14.3714,24.0102,106.2414,175,75
2026-05-09 17:12:03.989,5,-0.27,-0.3,-0.5,12.3314,21.7402,79.2714,175,75
2026-05-09 17:12:03.999,5,-0.7,-0.23,-0.36,3.2013999999999996,-8.6298,36.331399999999995,175,75
2026-05-09 17:12:04.009,5,-1.08,-0.17,-0.32,-27.5086,-101.1998,-97.9886,175,75
2026-05-09 17:12:04.024,5,-0.97,-0.14,-0.37,-44.388600000000004,-148.4898,-164.2286,175,75
2026-05-09 17:12:04.024,5,-0.64,-0.05,-0.41,-63.4586,-175.6998,-216.9486,175,75
2026-05-09 17:12:04.044,5,0.21,0.14,-0.32,-111.34859999999999,-126.63980000000001,-254.1786,175,75
2026-05-09 17:12:04.058,5,0.37,0.14,-0.29,-124.3586,-66.9798,-254.1786,175,75
2026-05-09 17:12:04.071,5,0.3,0.15,-0.2,-119.8886,33.6202,-254.1786,175,75
2026-05-09 17:12:04.082,5,0.35,0.18,-0.13,-113.34859999999999,72.33019999999999,-254.1786,175,75
2026-05-09 17:12:04.093,5,0.51,0.27,-0.1,-108.7486,110.0602,-232.3286,175,75
2026-05-09 17:12:04.104,5,0.78,0.39,-0.04,-103.8686,159.7702,-188.7986,175,75
2026-05-09 17:12:04.115,5,1.58,0.81,0.1,-110.01859999999999,233.6002,-120.3086,175,75
2026-05-09 17:12:04.127,5,2.0,2.0,1.14,-123.53859999999999,247.6402,161.9614,175,75
2026-05-09 17:12:04.142,5,1.02,1.59,1.99,-246.8586,239.4502,246.0914,175,75
2026-05-09 17:12:04.170,5,-2.0,-1.7,1.75,-195.1986,247.6402,246.0914,175,75
2026-05-09 17:12:04.193,5,-2.0,-1.62,1.6,-106.1186,131.1002,246.0914,175,75
2026-05-09 17:12:04.207,5,-2.0,-1.74,1.92,-4.5586,-252.6298,246.0914,175,75
2026-05-09 17:12:04.218,5,-2.0,-1.62,2.0,-19.6886,-252.6298,103.5814,175,75
2026-05-09 17:12:04.218,5,-1.01,-1.55,2.0,-72.65859999999999,-252.6298,5.091400000000001,175,75
2026-05-09 17:12:04.230,5,-0.95,-1.41,2.0,-88.0586,-252.6298,-143.1886,175,75
2026-05-09 17:12:04.243,5,0.06,-0.92,1.68,-49.2986,-252.6298,-254.1786,175,75
2026-05-09 17:12:04.259,5,1.15,-0.44,1.22,-1.7486000000000006,-252.6298,-254.1786,175,75
2026-05-09 17:12:04.259,5,1.64,-0.05,1.09,47.011399999999995,-120.27980000000001,-254.1786,175,75
2026-05-09 17:12:04.270,5,1.63,0.24,1.11,84.6314,11.560200000000002,-254.1786,175,75
2026-05-09 17:12:04.280,5,1.79,0.46,1.33,101.1014,69.0502,-254.1786,175,75
2026-05-09 17:12:04.305,5,1.38,0.31,1.93,91.29140000000001,107.2102,-119.8786,175,75
2026-05-09 17:12:04.315,5,0.9,0.23,1.9,91.8814,200.7402,-10.5186,175,75
2026-05-09 17:12:04.325,5,0.45,0.54,2.0,82.6714,223.0902,153.1914,175,75
2026-05-09 17:12:04.337,5,0.27,0.75,2.0,47.151399999999995,174.9802,246.0914,175,75
2026-05-09 17:12:04.348,5,-0.49,-0.08,2.0,-51.5486,-49.009800000000006,246.0914,175,75
2026-05-09 17:12:04.376,5,-0.49,-1.19,2.0,-78.1486,-201.9298,246.0914,175,75
2026-05-09 17:12:04.376,5,-0.63,-1.98,2.0,-71.56859999999999,-252.6298,246.0914,175,75
2026-05-09 17:12:04.387,5,-1.25,-1.96,1.47,-47.958600000000004,-252.6298,246.0914,175,75
2026-05-09 17:12:04.398,5,-1.67,-1.79,0.94,-22.988599999999998,-252.6298,246.0914,175,75
2026-05-09 17:12:04.412,5,-0.24,-1.77,-0.56,55.2414,-237.1398,-164.6286,175,75
2026-05-09 17:12:04.423,5,0.27,-1.04,-0.72,97.5514,-69.6598,-254.1786,175,75
2026-05-09 17:12:04.433,5,0.41,-0.4,-0.74,103.7814,46.340199999999996,-254.1786,175,75
2026-05-09 17:12:04.447,5,0.6,-0.04,-0.75,100.1114,119.3902,-254.1786,175,75
2026-05-09 17:12:04.458,5,0.58,0.16,-0.66,124.1714,168.5002,-254.1786,175,75
2026-05-09 17:12:04.470,5,1.38,0.86,-1.11,60.111399999999996,207.3402,-254.1786,175,75
2026-05-09 17:12:04.482,5,1.54,0.89,-1.28,33.2314,173.7102,-254.1786,175,75
2026-05-09 17:12:04.509,5,-0.7,0.51,-0.43,-0.33860000000000046,-49.909800000000004,-133.0786,175,75
2026-05-09 17:12:04.523,5,-0.68,0.35,-0.26,-22.208599999999997,-141.59980000000002,-140.1986,175,75
2026-05-09 17:12:04.523,5,-0.28,0.2,-0.09,-36.8986,-199.8098,-123.9886,175,75
2026-05-09 17:12:04.533,5,0.06,0.13,0.07,-43.778600000000004,-212.2698,-89.6086,175,75
2026-05-09 17:12:04.544,5,0.12,0.05,0.21,-37.5386,-188.6698,-53.4786,175,75
2026-05-09 17:12:04.554,5,0.03,0.03,0.19,-38.638600000000004,-165.56980000000001,-24.3986,175,75
2026-05-09 17:12:04.566,5,-0.04,-0.07,0.19,-29.098600000000005,-123.1798,-6.178599999999999,175,75
2026-05-09 17:12:04.578,5,-0.11,-0.11,0.13,-10.4986,-90.8298,5.841400000000001,175,75
2026-05-09 17:12:04.589,5,-0.14,-0.1,0.05,12.141399999999999,-60.3098,8.9314,175,75
2026-05-09 17:12:04.589,5,-0.1,-0.02,0.0,29.3714,-35.439800000000005,7.2314,175,75
2026-05-09 17:12:04.602,5,0.09,0.04,-0.03,37.9514,-7.8298,5.7914,175,75
2026-05-09 17:12:04.614,5,0.23,0.12,0.02,38.261399999999995,23.2802,24.1814,175,75
2026-05-09 17:12:04.627,5,0.53,0.08,0.02,30.781399999999998,66.7802,51.0214,175,75
2026-05-09 17:12:04.653,5,0.57,-0.14,0.17,14.2114,197.3302,172.1414,175,75
2026-05-09 17:12:04.672,5,0.17,-0.1,0.28,16.7214,247.6402,201.6614,175,75
2026-05-09 17:12:04.683,5,-0.19,-0.01,0.46,18.5214,247.6402,164.7014,175,75
2026-05-09 17:12:04.689,5,-0.43,-0.12,1.38,3.0813999999999995,84.1702,99.5214,175,75
2026-05-09 17:12:04.704,5,-0.0,-0.21,1.64,-26.968600000000002,-76.7398,22.8514,175,75
2026-05-09 17:12:04.716,5,0.3,-0.09,1.29,-46.7686,-124.02980000000001,-45.5686,175,75
2026-05-09 17:12:04.728,5,0.42,-0.05,1.03,-62.4386,-111.4098,-92.4086,175,75
2026-05-09 17:12:04.745,5,0.71,-0.04,0.77,-52.7886,-60.019800000000004,-136.0686,175,75
2026-05-09 17:12:04.767,5,1.96,0.19,1.65,-51.1986,-27.7498,-105.6786,175,75
2026-05-09 17:12:04.772,5,2.0,-0.01,1.83,-76.4486,47.0402,-8.4986,175,75
2026-05-09 17:12:04.797,5,1.46,-0.57,1.27,-45.2186,247.6402,135.3014,175,75
2026-05-09 17:12:04.807,5,0.6,-0.51,1.13,1.6513999999999998,247.6402,130.3014,175,75
2026-05-09 17:12:04.821,5,-0.11,-0.25,1.28,4.8414,247.6402,17.9314,175,75
2026-05-09 17:12:04.837,5,-0.33,-0.35,1.28,-0.7086000000000006,247.6402,-67.6686,175,75
2026-05-09 17:12:04.847,5,-0.47,-0.51,1.41,0.07139999999999969,247.6402,-143.8186,175,75
2026-05-09 17:12:04.876,5,-0.86,-0.42,2.0,34.2714,238.1102,-201.64860000000002,175,75
2026-05-09 17:12:04.889,5,-1.07,-0.2,2.0,46.4614,171.9802,-201.36860000000001,175,75
2026-05-09 17:12:04.901,5,-1.5,-0.11,2.0,55.9214,113.3102,-198.5086,175,75
2026-05-09 17:12:04.916,5,-1.68,0.11,2.0,63.971399999999996,39.4402,-191.0786,175,75
2026-05-09 17:12:04.927,5,-1.5,0.2,2.0,65.2914,-51.6698,-152.1986,175,75
2026-05-09 17:12:04.942,5,-1.21,0.26,1.99,60.2814,-131.9298,-91.07860000000001,175,75
2026-05-09 17:12:04.942,5,-0.84,0.22,1.83,58.331399999999995,-178.0898,-33.6086,175,75
2026-05-09 17:12:04.975,5,-0.46,0.22,1.69,55.1314,-201.8298,24.0014,175,75
2026-05-09 17:12:04.975,5,-0.23,0.22,1.66,45.5614,-205.6698,65.5814,175,75
2026-05-09 17:12:04.994,5,0.07,0.24,1.68,24.4414,-193.6998,93.67139999999999,175,75
2026-05-09 17:12:04.994,5,-0.08,0.35,1.71,1.2613999999999996,-178.4298,121.42139999999999,175,75
2026-05-09 17:12:05.004,5,0.43,0.12,1.74,-15.8286,-140.2298,121.1414,175,75
2026-05-09 17:12:05.004,5,0.6,-0.13,1.81,-19.8686,-100.1198,124.8414,175,75
2026-05-09 17:12:05.012,5,0.6,-0.39,1.86,-8.2386,-55.7198,124.3714,175,75
2026-05-09 17:12:05.026,5,-0.06,-0.63,1.87,31.251399999999997,12.350200000000001,69.7414,175,75
2026-05-09 17:12:05.041,5,-0.45,-0.61,1.8,42.4814,28.6602,9.031400000000001,175,75
2026-05-09 17:12:05.064,5,-0.87,-0.34,1.42,85.1314,-17.029799999999998,-183.6686,175,75
2026-05-09 17:12:05.091,5,-0.6,0.13,1.3,113.84140000000001,-101.7598,-215.1286,175,75
2026-05-09 17:12:05.110,5,-0.46,0.28,1.2,119.3914,-139.31980000000001,-211.4986,175,75
2026-05-09 17:12:05.137,5,-0.36,0.48,1.09,117.23140000000001,-170.9898,-207.3086,175,75
2026-05-09 17:12:05.137,5,-0.24,0.57,0.92,108.9114,-194.59980000000002,-204.7886,175,75
2026-05-09 17:12:05.152,5,-0.21,0.63,0.73,97.4414,-214.0198,-203.8486,175,75
2026-05-09 17:12:05.152,5,-0.13,0.68,0.57,78.0814,-227.4998,-205.36860000000001,175,75
2026-05-09 17:12:05.164,5,-0.01,0.63,0.38,58.1714,-234.9898,-197.3186,175,75
2026-05-09 17:12:05.174,5,0.34,0.5,0.08,46.0714,-237.1798,-165.9486,175,75
2026-05-09 17:12:05.174,5,0.97,0.45,-0.48,57.4314,-237.7798,-49.7586,175,75
2026-05-09 17:12:05.185,5,0.79,0.4,-0.58,80.1614,-243.7098,103.8814,175,75
2026-05-09 17:12:05.202,5,0.19,0.53,-0.63,90.3614,-252.6298,201.7314,175,75
2026-05-09 17:12:05.202,5,-0.22,0.24,-0.49,84.98140000000001,-252.6298,239.0014,175,75
2026-05-09 17:12:05.213,5,-0.14,-0.09,-0.62,84.7414,-252.6298,246.0914,175,75
2026-05-09 17:12:05.229,5,0.09,-0.2,-0.61,94.7214,-252.6298,246.0914,175,75
2026-05-09 17:12:05.229,5,0.16,-0.14,-0.43,91.9714,-252.6298,246.0914,175,75
2026-05-09 17:12:05.241,5,0.1,-0.05,-0.16,71.7014,-252.6298,246.0914,175,75
2026-05-09 17:12:05.251,5,-0.17,-0.14,0.02,46.4114,-158.0898,207.2414,175,75
2026-05-09 17:12:05.251,5,-0.25,0.19,0.18,16.851399999999998,-56.4298,127.98140000000001,175,75
2026-05-09 17:12:05.264,5,-0.49,-0.31,0.06,-4.408600000000001,32.0002,44.111399999999996,175,75
2026-05-09 17:12:05.274,5,-0.49,-0.3,-0.06,-21.348599999999998,101.3202,-22.3186,175,75
2026-05-09 17:12:05.287,5,-0.3,-0.24,-0.17,-36.1886,160.4602,-75.8886,175,75
2026-05-09 17:12:05.297,5,-0.1,-0.12,-0.22,-48.308600000000006,210.4502,-111.57860000000001,175,75
2026-05-09 17:12:05.307,5,0.04,-0.0,-0.21,-60.9586,247.6402,-138.3086,175,75
2026-05-09 17:12:05.319,5,0.11,0.12,-0.16,-71.42859999999999,247.6402,-156.9386,175,75
2026-05-09 17:12:05.348,5,0.68,0.23,0.01,-111.8086,247.6402,-204.7186,175,75
2026-05-09 17:12:05.348,5,1.68,0.45,0.24,-114.8286,247.6402,-112.1486,175,75
2026-05-09 17:12:05.363,5,1.27,1.47,-0.44,-114.90859999999999,247.6402,98.1514,175,75
2026-05-09 17:12:05.381,5,0.2,0.72,0.95,-57.6086,247.3502,231.1514,175,75
2026-05-09 17:12:05.384,5,0.15,0.77,1.44,-51.4786,154.0802,246.0914,175,75
2026-05-09 17:12:05.395,5,-0.0,0.34,1.39,-68.6986,133.5602,246.0914,175,75
2026-05-09 17:12:05.408,5,-0.06,0.1,1.29,-81.59859999999999,190.0402,246.0914,175,75
2026-05-09 17:12:05.408,5,-0.31,0.09,1.32,-92.0586,247.6402,246.0914,175,75
2026-05-09 17:12:05.430,5,-1.38,0.02,2.0,-175.23860000000002,247.6402,227.1614,175,75
2026-05-09 17:12:05.460,5,-2.0,-1.53,2.0,-77.0486,134.2202,-116.8886,175,75
2026-05-09 17:12:05.470,5,-2.0,-1.45,2.0,5.0314,14.4602,-144.5686,175,75
2026-05-09 17:12:05.499,5,-2.0,-0.03,2.0,122.87140000000001,-252.6298,-181.1886,175,75
2026-05-09 17:12:05.529,5,0.01,0.17,1.39,119.0214,-252.6298,-172.7286,175,75
2026-05-09 17:12:05.529,5,0.59,0.12,0.99,110.3914,-252.6298,-146.6886,175,75
2026-05-09 17:12:05.541,5,0.73,0.23,0.73,101.6614,-252.6298,-100.2886,175,75
2026-05-09 17:12:05.553,5,0.94,0.14,0.26,98.62140000000001,-252.6298,-58.278600000000004,175,75
2026-05-09 17:12:05.567,5,1.29,0.19,-0.24,97.9914,-252.6298,-16.1186,175,75
2026-05-09 17:12:05.582,5,2.0,0.73,-2.0,84.84140000000001,21.0102,117.3614,175,75
2026-05-09 17:12:05.607,5,-0.21,-0.0,-0.34,-18.2686,-9.759799999999998,27.4414,175,75
2026-05-09 17:12:05.607,5,-0.18,-0.37,-0.13,-32.4386,-53.8198,45.0914,175,75
2026-05-09 17:12:05.618,5,0.14,-0.65,-0.06,-24.4786,-76.1298,81.9414,175,75
2026-05-09 17:12:05.631,5,0.48,-0.4,0.54,-25.7986,-50.4898,129.3314,175,75
2026-05-09 17:12:05.642,5,0.96,-0.42,1.14,-15.068600000000002,38.7502,157.1414,175,75
2026-05-09 17:12:05.659,5,1.3,-0.4,1.89,-59.4286,192.9902,131.7414,175,75
2026-05-09 17:12:05.674,5,0.24,-0.23,2.0,-43.8286,238.2902,-150.11860000000001,175,75
2026-05-09 17:12:05.685,5,1.42,0.48,2.0,-41.6586,221.1402,-254.1786,175,75
2026-05-09 17:12:05.695,5,0.83,0.48,2.0,-79.8886,247.6402,-254.1786,175,75
2026-05-09 17:12:05.709,5,-0.46,-0.05,1.81,-44.058600000000006,247.6402,-254.1786,175,75
2026-05-09 17:12:05.709,5,-0.9,0.0,1.44,15.4314,142.3202,-254.1786,175,75
2026-05-09 17:12:05.717,5,-2.0,0.43,1.44,45.8414,-10.7198,-163.2486,175,75
2026-05-09 17:12:05.746,5,-1.9,0.65,1.58,42.5514,-123.1298,-92.8986,175,75
2026-05-09 17:12:05.747,5,-1.03,0.63,1.71,25.281399999999998,-187.9598,10.4314,175,75
2026-05-09 17:12:05.747,5,0.08,0.55,1.74,18.5514,-204.2898,182.10139999999998,175,75
2026-05-09 17:12:05.771,5,1.31,0.48,1.42,6.801399999999999,-143.9598,246.0914,175,75
2026-05-09 17:12:05.788,5,1.14,0.41,1.05,1.2613999999999996,-11.1798,246.0914,175,75
2026-05-09 17:12:05.800,5,0.34,-0.2,0.7,6.4914,-89.0998,246.0914,175,75
2026-05-09 17:12:05.811,5,1.29,-2.0,-0.11,3.6013999999999995,-173.0898,246.0914,175,75
2026-05-09 17:12:05.821,5,-0.19,-1.87,-0.28,46.9614,-73.8798,246.0914,175,75
2026-05-09 17:12:05.832,5,-1.06,-1.36,-0.24,103.9714,-19.2498,113.2714,175,75
2026-05-09 17:12:05.842,5,-1.48,-1.1,-0.29,153.5314,-6.6498,-77.1986,175,75
2026-05-09 17:12:05.861,5,-1.15,-0.77,-0.35,186.88139999999999,-7.8298,-226.3486,175,75
2026-05-09 17:12:05.871,5,-0.4,-0.37,-0.39,184.1114,11.6202,-254.1786,175,75
2026-05-09 17:12:05.883,5,-0.01,-0.83,0.35,173.4314,45.160199999999996,-254.1786,175,75
2026-05-09 17:12:05.883,5,0.17,0.09,-0.3,131.7714,78.4302,-254.1786,175,75
2026-05-09 17:12:05.896,5,0.1,0.21,-0.31,86.54140000000001,84.9902,-254.1786,175,75
2026-05-09 17:12:05.907,5,-0.05,0.35,-0.28,41.8414,65.4902,-254.1786,175,75
2026-05-09 17:12:05.917,5,-0.12,0.36,-0.3,0.3913999999999995,29.750200000000003,-254.1786,175,75
2026-05-09 17:12:05.917,5,-0.04,0.34,-0.33,-31.598600000000005,-12.899799999999999,-226.4386,175,75
2026-05-09 17:12:05.928,5,0.36,0.31,-0.24,-54.958600000000004,-31.5998,-185.4086,175,75
2026-05-09 17:12:05.946,5,0.93,0.22,-0.15,-66.12859999999999,-0.2697999999999996,-126.68860000000001,175,75
2026-05-09 17:12:05.951,5,1.38,0.15,-0.1,-62.7186,73.1702,-51.5086,175,75
2026-05-09 17:12:05.977,5,2.0,0.27,-0.08,-53.1586,164.6202,40.8114,175,75
2026-05-09 17:12:05.983,5,1.83,0.64,0.2,-25.318600000000004,110.1402,142.60139999999998,175,75
2026-05-09 17:12:05.994,5,1.06,0.87,1.1,18.011400000000002,-80.9798,129.38139999999999,175,75
2026-05-09 17:12:06.007,5,1.74,0.8,2.0,-70.3386,-3.0498,-92.54860000000001,175,75
2026-05-09 17:12:06.010,5,2.0,-0.19,2.0,-129.48860000000002,247.6402,-93.9586,175,75
2026-05-09 17:12:06.020,5,2.0,-0.68,1.4,-135.6086,247.6402,13.4314,175,75
2026-05-09 17:12:06.029,5,2.0,-0.74,2.0,-187.4186,247.6402,246.0914,175,75
2026-05-09 17:12:06.040,5,-1.45,-1.48,2.0,-144.17860000000002,247.6402,246.0914,175,75
2026-05-09 17:12:06.069,5,-2.0,-1.53,1.78,26.751399999999997,18.0702,158.8014,175,75
2026-05-09 17:12:06.080,5,-2.0,-1.17,1.81,57.9114,-80.5698,-160.0886,175,75
2026-05-09 17:12:06.091,5,-2.0,-0.93,1.95,71.7814,-79.9298,-254.1786,175,75
2026-05-09 17:12:06.091,5,-1.79,-0.75,2.0,92.1714,-17.3798,-254.1786,175,75
2026-05-09 17:12:06.106,5,-1.28,-0.1,1.89,151.5314,-78.2198,-254.1786,175,75
2026-05-09 17:12:06.129,5,0.36,1.16,1.54,242.10139999999998,-245.31980000000001,-254.1786,175,75
2026-05-09 17:12:06.129,5,0.44,1.36,1.46,219.3014,-195.0198,-254.1786,175,75
2026-05-09 17:12:06.154,5,0.15,1.09,1.13,111.2414,-81.8198,-254.1786,175,75
2026-05-09 17:12:06.166,5,0.02,0.85,0.95,57.2514,-42.8898,-254.1786,175,75
2026-05-09 17:12:06.177,5,-0.25,0.91,0.76,2.7213999999999996,-47.269800000000004,-254.1786,175,75
2026-05-09 17:12:06.189,5,-0.46,1.04,0.53,-54.2186,-77.5598,-168.3086,175,75
2026-05-09 17:12:06.189,5,-0.32,1.31,0.3,-112.06859999999999,-115.8598,-70.4086,175,75
2026-05-09 17:12:06.201,5,0.24,1.58,0.01,-165.29860000000002,-133.6098,35.2814,175,75
2026-05-09 17:12:06.210,5,0.36,2.0,-0.08,-206.2586,-117.0198,161.4114,175,75
2026-05-09 17:12:06.231,5,1.08,1.8,-0.64,-223.9486,-67.5098,246.0914,175,75
2026-05-09 17:12:06.243,5,0.56,1.27,-0.9,-210.6686,-32.5598,246.0914,175,75
2026-05-09 17:12:06.254,5,0.29,0.63,-0.99,-161.3486,-16.2198,246.0914,175,75
2026-05-09 17:12:06.254,5,0.22,0.03,-0.93,-80.3686,-3.8598,246.0914,175,75
2026-05-09 17:12:06.277,5,0.61,-0.42,-0.4,79.8614,36.0402,246.0914,175,75
2026-05-09 17:12:06.287,5,0.84,-0.1,-0.86,141.13139999999999,70.00019999999999,246.0914,175,75
2026-05-09 17:12:06.299,5,2.0,-1.27,2.0,168.04139999999998,219.0402,246.0914,175,75
2026-05-09 17:12:06.310,5,2.0,-1.09,2.0,182.8414,133.8902,246.0914,175,75
2026-05-09 17:12:06.322,5,-0.22,-0.12,2.0,170.04139999999998,247.6402,199.5314,175,75
2026-05-09 17:12:06.333,5,-2.0,0.37,2.0,119.3914,247.6402,-155.0786,175,75
2026-05-09 17:12:06.344,5,-2.0,-0.32,1.99,91.1414,247.6402,-254.1786,175,75
2026-05-09 17:12:06.357,5,-2.0,-0.13,1.93,76.98140000000001,247.6402,-254.1786,175,75
2026-05-09 17:12:06.369,5,-2.0,0.31,2.0,99.9414,16.0102,-254.1786,175,75
2026-05-09 17:12:06.379,5,-1.87,0.89,2.0,79.01140000000001,-252.6298,-233.4286,175,75
2026-05-09 17:12:06.388,5,-1.06,1.04,2.0,24.511400000000002,-252.6298,-109.8786,175,75
2026-05-09 17:12:06.421,5,0.06,0.32,2.0,6.301399999999999,-252.6298,51.511399999999995,175,75
2026-05-09 17:12:06.421,5,0.69,-0.0,1.65,14.8814,-252.6298,246.0914,175,75
2026-05-09 17:12:06.434,5,0.94,-0.07,1.3,16.461399999999998,-252.6298,246.0914,175,75
2026-05-09 17:12:06.445,5,1.09,0.2,0.88,11.8714,-190.06980000000001,246.0914,175,75
2026-05-09 17:12:06.452,5,0.31,-0.35,0.37,27.101399999999998,-218.0198,246.0914,175,75
2026-05-09 17:12:06.463,5,1.32,-1.36,-0.2,-31.5086,-252.6298,246.0914,175,75
2026-05-09 17:12:06.473,5,1.82,-2.0,-1.21,-46.058600000000006,-113.0798,246.0914,175,75
2026-05-09 17:12:06.488,5,-1.15,-0.9,-0.69,19.8714,38.6202,-92.0986,175,75
2026-05-09 17:12:06.488,5,-1.45,-0.51,-0.47,29.101399999999998,5.4602,-215.39860000000002,175,75
2026-05-09 17:12:06.501,5,-1.32,-0.19,-0.34,41.0914,-29.959799999999998,-254.1786,175,75
2026-05-09 17:12:06.512,5,-0.82,-0.17,-0.3,32.7714,-58.6398,-254.1786,175,75
2026-05-09 17:12:06.538,5,-0.04,0.27,-0.3,-25.778599999999997,-119.9698,-254.1786,175,75
2026-05-09 17:12:06.550,5,0.16,0.5,-0.23,-67.37859999999999,-113.3398,-254.1786,175,75
2026-05-09 17:12:06.572,5,0.58,0.48,-0.31,-142.4486,-35.6398,-254.1786,175,75
2026-05-09 17:12:06.583,5,0.6,0.3,-0.39,-144.7586,15.7802,-248.1786,175,75
2026-05-09 17:12:06.609,5,0.22,0.19,-0.29,-117.1986,85.7802,-178.6686,175,75
2026-05-09 17:12:06.609,5,0.17,0.22,-0.21,-103.0886,102.1002,-160.7686,175,75
2026-05-09 17:12:06.633,5,0.59,0.16,-0.09,-79.53859999999999,137.8202,-84.7586,175,75
2026-05-09 17:12:06.644,5,0.78,0.21,0.07,-66.2486,166.5302,-23.188599999999997,175,75
2026-05-09 17:12:06.656,5,0.92,0.34,0.34,-62.278600000000004,204.0502,35.1014,175,75
2026-05-09 17:12:06.656,5,1.77,1.53,0.48,-95.31859999999999,165.0202,210.1114,175,75
2026-05-09 17:12:06.676,5,2.0,1.03,2.0,-129.2486,102.3802,246.0914,175,75
2026-05-09 17:12:06.681,5,1.68,0.57,2.0,-167.98860000000002,227.4102,246.0914,175,75
2026-05-09 17:12:06.689,5,1.87,-0.02,2.0,-187.9386,247.6402,246.0914,175,75
2026-05-09 17:12:06.704,5,0.28,-0.86,2.0,-150.57860000000002,247.6402,246.0914,175,75
2026-05-09 17:12:06.721,5,-1.65,-1.77,1.99,-76.0286,247.6402,162.0414,175,75
2026-05-09 17:12:06.731,5,-2.0,-1.64,1.86,12.8714,247.6402,48.121399999999994,175,75
2026-05-09 17:12:06.731,5,-2.0,-1.58,1.83,93.9114,244.9102,-82.4786,175,75
2026-05-09 17:12:06.739,5,-2.0,-1.36,1.85,160.6814,68.6402,-220.4786,175,75
2026-05-09 17:12:06.753,5,-2.0,-0.94,2.0,193.5514,-75.63980000000001,-254.1786,175,75
2026-05-09 17:12:06.759,5,-2.0,-0.34,2.0,201.0914,-184.6598,-254.1786,175,75
2026-05-09 17:12:06.775,5,-1.71,0.06,2.0,234.0914,-252.6298,-254.1786,175,75
2026-05-09 17:12:06.790,5,-0.92,0.41,1.69,253.4114,-252.6298,-254.1786,175,75
2026-05-09 17:12:06.790,5,-0.25,0.76,1.44,253.4114,-252.6298,-254.1786,175,75
2026-05-09 17:12:06.819,5,0.27,0.88,0.98,177.7214,-252.6298,-254.1786,175,75
2026-05-09 17:12:06.819,5,0.28,0.96,0.73,132.82139999999998,-215.0298,-254.1786,175,75
2026-05-09 17:12:06.837,5,1.46,1.3,0.04,80.32140000000001,-173.6298,-136.6986,175,75
2026-05-09 17:12:06.851,5,2.0,1.87,0.12,72.3514,-135.2098,72.2714,175,75
2026-05-09 17:12:06.868,5,2.0,2.0,0.15,30.681399999999996,-40.6798,246.0914,175,75
2026-05-09 17:12:06.868,5,1.48,1.88,0.44,-33.058600000000006,60.130199999999995,246.0914,175,75
2026-05-09 17:12:06.881,5,1.15,1.0,0.77,-93.0586,142.3202,246.0914,175,75
2026-05-09 17:12:06.897,5,1.23,0.66,1.01,-139.0886,187.3302,246.0914,175,75
2026-05-09 17:12:06.908,5,1.66,0.58,1.2,-185.2586,247.40019999999998,246.0914,175,75
2026-05-09 17:12:06.919,5,1.39,0.48,1.99,-192.2186,247.6402,246.0914,175,75
2026-05-09 17:12:06.930,5,-0.3,-0.68,2.0,-136.7486,125.4202,246.0914,175,75
2026-05-09 17:12:06.930,5,-0.36,-1.29,2.0,-54.8986,58.590199999999996,246.0914,175,75
2026-05-09 17:12:06.945,5,-1.15,-0.94,2.0,7.8514,110.6602,240.9014,175,75
2026-05-09 17:12:06.956,5,-1.89,-0.95,2.0,33.4614,152.9502,27.0014,175,75
2026-05-09 17:12:06.969,5,-1.59,-0.75,2.0,26.781399999999998,164.0102,-144.5086,175,75
2026-05-09 17:12:06.969,5,-1.69,-0.84,2.0,16.3614,101.4602,-235.11860000000001,175,75
2026-05-09 17:12:06.980,5,-1.15,-0.64,2.0,38.5714,-36.9298,-235.9886,175,75
2026-05-09 17:12:07.000,5,-0.53,-0.14,2.0,49.9314,-133.2198,-186.6686,175,75
2026-05-09 17:12:07.000,5,-0.23,0.13,1.92,33.3214,-177.8798,-128.6986,175,75
2026-05-09 17:12:07.010,5,0.05,0.19,1.57,8.4314,-182.9598,-75.5186,175,75
2026-05-09 17:12:07.026,5,0.24,0.04,1.15,-10.2386,-165.5498,-13.308599999999998,175,75
2026-05-09 17:12:07.028,5,0.39,-0.17,0.75,-11.1586,-141.4298,53.3214,175,75
2026-05-09 17:12:07.037,5,0.47,-0.22,0.43,-0.8286000000000007,-126.2098,127.97139999999999,175,75
2026-05-09 17:12:07.049,5,0.5,-0.15,0.13,15.401399999999999,-120.1198,193.85139999999998,175,75
2026-05-09 17:12:07.060,5,0.85,-0.39,-0.2,37.5914,-125.7898,246.0914,175,75
2026-05-09 17:12:07.083,5,0.99,-0.37,-0.51,55.8214,-142.5498,246.0914,175,75
2026-05-09 17:12:07.083,5,2.0,-0.65,-1.31,72.4414,-85.3398,246.0914,175,75
2026-05-09 17:12:07.095,5,1.58,-0.81,-1.74,67.3014,18.3402,246.0914,175,75
2026-05-09 17:12:07.106,5,0.34,-0.82,-1.25,78.6614,45.240199999999994,196.6814,175,75
2026-05-09 17:12:07.131,5,-1.3,-0.53,-0.56,69.4114,-68.5798,49.8214,175,75
2026-05-09 17:12:07.131,5,-1.34,-0.32,-0.33,51.971399999999996,-127.3398,-66.5786,175,75
2026-05-09 17:12:07.146,5,-0.84,-0.27,-0.14,24.721400000000003,-133.1198,-184.89860000000002,175,75
2026-05-09 17:12:07.157,5,-0.35,-0.2,-0.03,-7.5686,-92.3098,-254.1786,175,75
2026-05-09 17:12:07.169,5,-0.12,-0.04,0.02,-40.988600000000005,-45.1798,-254.1786,175,75
2026-05-09 17:12:07.169,5,-0.08,0.14,0.02,-75.6686,-7.2798,-254.1786,175,75
2026-05-09 17:12:07.180,5,-0.02,0.25,-0.01,-103.4186,20.860200000000003,-254.1786,175,75
2026-05-09 17:12:07.200,5,0.09,0.46,-0.05,-131.2186,64.33019999999999,-254.1786,175,75
2026-05-09 17:12:07.211,5,0.24,0.55,-0.03,-133.1286,84.3102,-254.1786,175,75
2026-05-09 17:12:07.237,5,0.53,0.55,-0.04,-134.0986,108.72019999999999,-254.1786,175,75
2026-05-09 17:12:07.237,5,0.74,0.7,-0.01,-133.6386,141.5302,-254.1786,175,75
2026-05-09 17:12:07.248,5,0.23,0.69,0.1,-125.47859999999999,177.9802,-154.8586,175,75
2026-05-09 17:12:07.259,5,-0.17,0.55,0.15,-101.4486,155.2202,-61.4786,175,75
2026-05-09 17:12:07.270,5,-0.26,0.44,0.26,-69.12859999999999,124.8002,18.5714,175,75
2026-05-09 17:12:07.282,5,-0.05,0.4,0.6,-30.538600000000002,98.5902,109.42139999999999,175,75
2026-05-09 17:12:07.293,5,0.2,0.43,0.87,-12.908600000000002,85.4302,214.2314,175,75
2026-05-09 17:12:07.304,5,0.42,0.59,1.15,-14.9686,64.1702,246.0914,175,75
2026-05-09 17:12:07.315,5,0.71,0.78,1.47,-30.168600000000005,3.3002000000000002,246.0914,175,75
2026-05-09 17:12:07.327,5,0.61,0.79,1.88,-56.1086,-110.9298,246.0914,175,75
2026-05-09 17:12:07.338,5,0.4,0.91,2.0,-87.6686,-252.6298,246.0914,175,75
2026-05-09 17:12:07.338,5,1.03,-0.69,2.0,-100.59859999999999,-252.6298,246.0914,175,75
2026-05-09 17:12:07.359,5,2.0,-1.48,2.0,-76.81859999999999,-252.6298,246.0914,175,75
2026-05-09 17:12:07.374,5,2.0,-1.6,1.81,0.9113999999999995,215.7802,98.7214,175,75
2026-05-09 17:12:07.384,5,1.32,-1.13,1.8,9.0314,247.6402,38.191399999999994,175,75
2026-05-09 17:12:07.384,5,0.34,-1.3,1.87,-65.31859999999999,247.6402,55.901399999999995,175,75
2026-05-09 17:12:07.397,5,-0.06,-1.82,1.19,-87.2986,247.6402,169.2514,175,75
2026-05-09 17:12:07.405,5,-0.7,-2.0,0.71,-17.6286,206.7702,246.0914,175,75
2026-05-09 17:12:07.418,5,-1.58,-1.77,0.92,53.041399999999996,116.4302,246.0914,175,75
2026-05-09 17:12:07.418,5,-2.0,-1.38,1.52,88.7214,44.4002,158.9814,175,75
2026-05-09 17:12:07.442,5,-2.0,-1.09,2.0,85.6114,27.2102,-86.1686,175,75
2026-05-09 17:12:07.442,5,-1.36,-1.09,2.0,73.8814,69.1502,-254.1786,175,75
2026-05-09 17:12:07.454,5,-0.53,-1.08,2.0,90.68140000000001,132.8702,-254.1786,175,75
2026-05-09 17:12:07.465,5,-0.5,-0.78,2.0,130.3414,160.7502,-254.1786,175,75
2026-05-09 17:12:07.479,5,-0.61,-0.2,1.67,180.23139999999998,121.3502,-254.1786,175,75
2026-05-09 17:12:07.491,5,-0.36,0.47,1.53,226.5014,22.270200000000003,-254.1786,175,75
2026-05-09 17:12:07.492,5,-0.08,0.87,1.68,244.23139999999998,-78.4698,-254.1786,175,75
2026-05-09 17:12:07.512,5,-0.21,1.11,1.72,231.4914,-125.2298,-254.1786,175,75
2026-05-09 17:12:07.512,5,-0.4,1.02,1.54,203.6214,-141.5498,-254.1786,175,75
2026-05-09 17:12:07.524,5,-0.3,0.76,1.38,174.23139999999998,-139.1598,-225.7586,175,75
2026-05-09 17:12:07.552,5,0.29,0.56,1.45,95.3614,-74.5598,17.1114,175,75
2026-05-09 17:12:07.575,5,0.73,0.56,1.58,42.6014,-3.5598,152.88139999999999,175,75
2026-05-09 17:12:07.575,5,1.02,0.59,1.67,-11.2986,81.4002,246.0914,175,75
2026-05-09 17:12:07.581,5,0.85,0.47,1.47,-47.3286,145.9402,246.0914,175,75
2026-05-09 17:12:07.593,5,0.59,0.38,1.39,-55.4386,165.3702,246.0914,175,75
2026-05-09 17:12:07.605,5,-0.45,0.43,1.79,-70.9986,88.4602,246.0914,175,75
2026-05-09 17:12:07.612,5,-1.44,-0.35,2.0,-108.2186,-91.0998,246.0914,175,75
2026-05-09 17:12:07.626,5,-0.93,-0.67,2.0,-112.4486,-176.6398,246.0914,175,75
2026-05-09 17:12:07.626,5,-0.83,-1.32,1.31,-69.4386,-148.1598,181.2414,175,75
2026-05-09 17:12:07.647,5,-1.23,-1.19,0.91,-17.668599999999998,-114.0898,60.6014,175,75
2026-05-09 17:12:07.658,5,-1.19,-0.88,0.78,22.9414,-81.9598,-86.2386,175,75
2026-05-09 17:12:07.673,5,-0.82,-0.61,0.79,50.4314,-30.8998,-228.3486,175,75
2026-05-09 17:12:07.687,5,-0.49,-0.37,0.78,66.5614,23.7802,-254.1786,175,75
2026-05-09 17:12:07.687,5,-0.28,-0.14,0.78,81.26140000000001,71.5602,-254.1786,175,75
2026-05-09 17:12:07.692,5,-0.18,0.12,0.77,98.7214,102.6802,-254.1786,175,75
2026-05-09 17:12:07.711,5,-0.07,0.55,0.84,117.59140000000001,79.8902,-254.1786,175,75
2026-05-09 17:12:07.711,5,0.43,0.99,1.04,131.2714,-10.5598,-254.1786,175,75
2026-05-09 17:12:07.722,5,0.19,1.09,1.0,130.2414,-99.3198,-254.1786,175,75
2026-05-09 17:12:07.733,5,-0.29,1.22,0.88,111.5814,-153.9498,-254.1786,175,75
2026-05-09 17:12:07.733,5,-0.38,0.95,0.57,89.68140000000001,-193.2498,-254.1786,175,75
2026-05-09 17:12:07.748,5,0.12,0.74,0.35,68.7814,-214.4998,-254.1786,175,75
2026-05-09 17:12:07.760,5,0.23,0.6,0.09,55.221399999999996,-225.3098,-115.7286,175,75
2026-05-09 17:12:07.760,5,0.15,0.52,-0.1,52.6814,-252.6298,60.56139999999999,175,75
2026-05-09 17:12:07.770,5,0.01,0.51,-0.2,46.971399999999996,-252.6298,198.3014,175,75
2026-05-09 17:12:07.781,5,-0.06,0.27,-0.32,48.0914,-252.6298,246.0914,175,75
2026-05-09 17:12:07.797,5,0.34,-0.01,-0.59,65.34140000000001,-252.6298,246.0914,175,75
2026-05-09 17:12:07.797,5,0.62,-0.17,-0.67,111.8314,-252.6298,246.0914,175,75
2026-05-09 17:12:07.809,5,0.55,-0.07,-0.59,140.2414,-189.6598,246.0914,175,75
2026-05-09 17:12:07.829,5,-0.06,-0.03,-0.08,137.1614,-27.1298,246.0914,175,75
2026-05-09 17:12:07.850,5,-0.22,0.18,0.12,104.59140000000001,48.950199999999995,246.0914,175,75
2026-05-09 17:12:07.850,5,-0.32,-0.22,-0.08,86.98140000000001,121.08019999999999,204.4614,175,75
2026-05-09 17:12:07.871,5,-0.42,-0.25,-0.1,65.9714,177.7502,129.2714,175,75
2026-05-09 17:12:07.871,5,-0.32,-0.21,-0.13,44.111399999999996,219.0402,63.0714,175,75
2026-05-09 17:12:07.887,5,-0.18,-0.13,-0.12,19.4414,247.6402,9.2314,175,75
2026-05-09 17:12:07.887,5,-0.07,-0.04,-0.07,-6.2186,247.6402,-31.2986,175,75
2026-05-09 17:12:07.898,5,0.07,0.02,-0.05,-27.538600000000002,247.6402,-64.5986,175,75
2026-05-09 17:12:07.922,5,0.08,0.12,-0.01,-45.7886,247.6402,-106.9786,175,75
2026-05-09 17:12:07.922,5,0.12,0.22,0.09,-55.8986,247.6402,-161.3386,175,75
2026-05-09 17:12:07.933,5,0.19,0.21,0.59,-49.7886,247.6402,-183.4386,175,75
2026-05-09 17:12:07.957,5,0.81,1.52,0.05,-39.7986,-24.439799999999998,-24.4086,175,75
2026-05-09 17:12:07.967,5,0.74,0.4,1.21,-25.218600000000002,-92.66980000000001,10.1114,175,75
2026-05-09 17:12:07.967,5,0.72,0.38,1.26,-30.418600000000005,-62.769800000000004,-9.378599999999999,175,75
2026-05-09 17:12:07.978,5,0.99,0.31,1.46,-50.6786,56.1402,-45.888600000000004,175,75
2026-05-09 17:12:07.989,5,1.44,0.21,1.79,-80.4486,247.6402,-58.738600000000005,175,75
2026-05-09 17:12:08.016,5,-0.99,0.15,2.0,-173.04860000000002,247.6402,228.1514,175,75
2026-05-09 17:12:08.032,5,-2.0,-0.46,2.0,-116.8586,247.6402,155.8014,175,75
2026-05-09 17:12:08.032,5,-2.0,-0.56,2.0,-98.9686,247.6402,94.0514,175,75
2026-05-09 17:12:08.043,5,-2.0,-1.11,2.0,-76.6986,37.910199999999996,65.95139999999999,175,75
2026-05-09 17:12:08.053,5,-2.0,-1.34,2.0,-25.528599999999997,-187.2798,37.121399999999994,175,75
2026-05-09 17:12:08.063,5,-2.0,-1.07,2.0,23.1314,-252.6298,-37.2186,175,75
2026-05-09 17:12:08.078,5,-2.0,-0.68,1.97,47.8414,-252.6298,-135.1686,175,75
2026-05-09 17:12:08.078,5,-0.85,-0.28,1.37,70.3914,-252.6298,-210.1386,175,75
2026-05-09 17:12:08.088,5,0.46,0.09,0.69,92.1714,-252.6298,-231.0186,175,75
2026-05-09 17:12:08.111,5,0.69,0.24,0.67,104.1314,-252.6298,-250.2186,175,75
2026-05-09 17:12:08.111,5,0.85,0.48,0.31,105.8614,-252.6298,-252.2986,175,75
2026-05-09 17:12:08.122,5,2.0,0.57,-0.65,117.7414,-252.6298,-190.5986,175,75
2026-05-09 17:12:08.132,5,2.0,1.79,-1.96,123.1914,-151.4198,68.2314,175,75
2026-05-09 17:12:08.143,5,2.0,1.59,-1.62,93.82140000000001,63.1002,114.7114,175,75
2026-05-09 17:12:08.154,5,-0.19,0.9,-0.9,33.7714,98.7402,18.331400000000002,175,75
2026-05-09 17:12:08.170,5,-0.51,0.31,-0.54,2.3013999999999997,41.8702,-41.1086,175,75
2026-05-09 17:12:08.180,5,-0.29,-0.23,-0.28,-3.8086,-29.459799999999998,-35.708600000000004,175,75
2026-05-09 17:12:08.180,5,0.21,-0.56,0.11,0.3213999999999997,-82.8298,31.2814,175,75
2026-05-09 17:12:08.190,5,1.34,0.06,0.37,-3.0686,-94.1198,150.9814,175,75
2026-05-09 17:12:08.200,5,2.0,-0.87,1.62,7.6414,-25.049799999999998,246.0914,175,75
2026-05-09 17:12:08.222,5,1.3,-0.82,2.0,51.9514,247.6402,193.4614,175,75
2026-05-09 17:12:08.233,5,0.13,-0.06,2.0,74.26140000000001,247.6402,-120.3586,175,75
2026-05-09 17:12:08.243,5,-1.29,0.35,2.0,37.191399999999994,247.6402,-254.1786,175,75
2026-05-09 17:12:08.252,5,-2.0,-0.19,2.0,37.1414,247.6402,-254.1786,175,75
2026-05-09 17:12:08.266,5,-2.0,0.58,2.0,60.9114,109.5702,-254.1786,175,75
2026-05-09 17:12:08.277,5,-1.64,1.07,2.0,38.4814,-112.2598,-254.1786,175,75
2026-05-09 17:12:08.291,5,-1.2,0.96,2.0,0.5713999999999997,-208.56980000000001,-169.5686,175,75
2026-05-09 17:12:08.291,5,-0.37,0.62,2.0,0.07139999999999969,-233.6098,-44.6086,175,75
2026-05-09 17:12:08.315,5,0.59,0.55,2.0,54.511399999999995,-248.7798,246.0914,175,75
2026-05-09 17:12:08.333,5,0.87,0.44,1.72,21.141399999999997,-221.0198,246.0914,175,75
2026-05-09 17:12:08.333,5,0.81,0.45,1.34,-16.4086,-184.7798,246.0914,175,75
2026-05-09 17:12:08.347,5,0.89,-0.05,0.91,-41.1886,-172.5598,246.0914,175,75
2026-05-09 17:12:08.390,5,0.76,-0.38,0.38,-51.9786,-212.6698,246.0914,175,75
2026-05-09 17:12:08.390,5,0.78,-0.94,0.25,-51.7986,-252.6298,246.0914,175,75
2026-05-09 17:12:08.390,5,1.48,-1.79,-0.47,-43.4286,-152.2898,246.0914,175,75
2026-05-09 17:12:08.402,5,0.18,-1.26,-0.3,-1.4086000000000007,-28.299799999999998,172.2014,175,75
2026-05-09 17:12:08.413,5,-0.94,-0.73,-0.11,55.8914,32.0302,-61.888600000000004,175,75
2026-05-09 17:12:08.426,5,-0.23,-0.29,-0.28,62.6414,12.950199999999999,-161.8586,175,75
2026-05-09 17:12:08.436,5,0.37,-0.89,0.53,45.971399999999996,47.8502,-173.6886,175,75
2026-05-09 17:12:08.448,5,0.52,0.01,-0.54,-6.9986,99.9302,-217.3786,175,75
2026-05-09 17:12:08.459,5,0.31,-0.0,-0.72,-53.9986,128.7202,-249.7986,175,75
2026-05-09 17:12:08.478,5,-0.32,0.06,-0.58,-90.40859999999999,61.5202,-250.7286,175,75
2026-05-09 17:12:08.490,5,-0.37,0.07,-0.48,-93.76859999999999,-0.9597999999999998,-247.1086,175,75
2026-05-09 17:12:08.496,5,-0.25,0.05,-0.35,-90.48859999999999,-50.229800000000004,-239.7886,175,75
2026-05-09 17:12:08.533,5,0.01,0.11,0.07,-77.8286,-58.7098,-205.7886,175,75
2026-05-09 17:12:08.544,5,-0.02,0.16,0.1,-78.5886,-45.0998,-207.14860000000002,175,75
2026-05-09 17:12:08.555,5,-0.06,0.28,0.16,-85.76859999999999,-31.3098,-222.1286,175,75
2026-05-09 17:12:08.567,5,0.02,0.28,0.18,-92.6086,-17.1198,-230.5786,175,75
2026-05-09 17:12:08.580,5,0.27,0.25,0.19,-91.76859999999999,4.1502,-224.0186,175,75
2026-05-09 17:12:08.590,5,0.89,0.45,0.17,-88.78859999999999,40.880199999999995,-199.5986,175,75
2026-05-09 17:12:08.606,5,2.0,2.0,1.79,-7.7186,-133.8398,246.0914,175,75
2026-05-09 17:12:08.617,5,1.65,1.52,2.0,-63.75860000000001,-48.6798,246.0914,175,75
2026-05-09 17:12:08.627,5,2.0,0.62,2.0,-111.06859999999999,180.1602,171.5014,175,75
2026-05-09 17:12:08.627,5,2.0,0.02,2.0,-158.5086,247.6402,216.5714,175,75
2026-05-09 17:12:08.638,5,1.31,-0.43,2.0,-173.26860000000002,247.6402,246.0914,175,75
2026-05-09 17:12:08.649,5,-1.12,-0.88,1.79,-121.4186,247.6402,246.0914,175,75
2026-05-09 17:12:08.667,5,-2.0,-0.41,1.46,-96.34859999999999,247.6402,226.3014,175,75
2026-05-09 17:12:08.673,5,-2.0,-1.09,1.6,-74.4486,114.6302,138.7714,175,75
2026-05-09 17:12:08.688,5,-2.0,-1.44,1.54,-39.0886,-20.0598,88.4314,175,75
2026-05-09 17:12:08.688,5,-2.0,-1.58,1.85,2.1313999999999997,-141.7798,75.06139999999999,175,75
2026-05-09 17:12:08.698,5,-1.14,-1.53,2.0,9.6914,-238.8098,84.42139999999999,175,75
2026-05-09 17:12:08.711,5,-0.81,-1.3,2.0,-14.858600000000001,-252.6298,52.4514,175,75
2026-05-09 17:12:08.722,5,-0.46,-1.06,1.72,-14.3486,-252.6298,-39.378600000000006,175,75
2026-05-09 17:12:08.730,5,0.37,-0.86,1.21,5.211399999999999,-252.6298,-118.4786,175,75
2026-05-09 17:12:08.743,5,0.93,-0.63,0.9,39.4814,-227.5498,-181.5886,175,75
2026-05-09 17:12:08.753,5,1.09,-0.23,0.78,67.12140000000001,-108.0198,-254.1786,175,75
2026-05-09 17:12:08.765,5,1.07,0.26,0.75,66.3014,5.200200000000001,-254.1786,175,75
2026-05-09 17:12:08.769,5,0.8,0.5,0.65,51.7114,84.6602,-254.1786,175,75
2026-05-09 17:12:08.783,5,0.79,0.66,0.62,33.0214,131.6902,-254.1786,175,75
2026-05-09 17:12:08.797,5,0.91,0.49,0.44,31.7414,138.2702,-254.1786,175,75
2026-05-09 17:12:08.807,5,1.03,0.59,0.41,54.3414,107.47019999999999,-254.1786,175,75
2026-05-09 17:12:08.807,5,0.46,0.6,0.66,53.9914,102.4102,-186.7686,175,75
2026-05-09 17:12:08.818,5,0.11,0.43,0.7,41.041399999999996,108.6902,-145.2686,175,75
2026-05-09 17:12:08.829,5,-0.17,0.22,0.63,36.7514,107.2802,-93.0886,175,75
2026-05-09 17:12:08.855,5,-0.3,0.15,0.6,42.361399999999996,88.9102,-43.4786,175,75
2026-05-09 17:12:08.855,5,-0.16,0.21,0.64,54.721399999999996,44.6902,39.9514,175,75
2026-05-09 17:12:08.877,5,0.34,0.28,0.84,57.291399999999996,1.4902000000000002,148.3114,175,75
2026-05-09 17:12:08.877,5,0.79,0.26,0.99,52.2714,-25.4098,246.0914,175,75
2026-05-09 17:12:08.894,5,1.13,0.09,1.04,40.901399999999995,-43.939800000000005,246.0914,175,75
2026-05-09 17:12:08.894,5,1.23,-0.29,1.1,29.0614,-45.799800000000005,246.0914,175,75
2026-05-09 17:12:08.906,5,1.06,-0.47,1.32,8.671399999999998,-58.369800000000005,246.0914,175,75
2026-05-09 17:12:08.914,5,0.28,-0.88,1.76,-3.2986000000000004,-101.7098,246.0914,175,75
2026-05-09 17:12:08.925,5,-0.34,-1.39,1.74,-1.4586000000000006,-97.2198,246.0914,175,75
2026-05-09 17:12:08.934,5,-1.2,-1.21,1.49,23.2314,-23.819799999999997,246.0914,175,75
2026-05-09 17:12:08.951,5,-1.75,-0.8,1.52,37.7114,57.6102,-29.0686,175,75
2026-05-09 17:12:08.951,5,-1.52,-0.58,1.76,35.4814,147.7302,-254.1786,175,75
2026-05-09 17:12:08.962,5,-0.96,-0.52,2.0,30.541400000000003,247.3002,-254.1786,175,75
2026-05-09 17:12:08.984,5,-0.8,-0.57,2.0,48.3914,247.6402,-254.1786,175,75
2026-05-09 17:12:08.997,5,-0.39,-0.16,2.0,89.3914,153.5902,-254.1786,175,75
2026-05-09 17:12:09.007,5,0.38,0.72,2.0,117.2214,-51.4498,-254.1786,175,75
2026-05-09 17:12:09.007,5,0.19,0.88,2.0,92.0214,-148.1498,-254.1786,175,75
2026-05-09 17:12:09.045,5,0.16,0.14,1.2,26.971400000000003,-162.9198,43.7414,175,75
2026-05-09 17:12:09.058,5,0.36,0.04,0.99,26.0214,-127.6998,159.7214,175,75
2026-05-09 17:12:09.068,5,0.54,0.01,0.74,28.8114,-100.63980000000001,246.0914,175,75
2026-05-09 17:12:09.068,5,0.78,0.02,0.59,34.2114,-87.0898,246.0914,175,75
2026-05-09 17:12:09.082,5,0.79,0.07,0.43,34.7214,-97.8298,246.0914,175,75
2026-05-09 17:12:09.082,5,0.93,0.19,0.46,20.721400000000003,-171.81980000000001,246.0914,175,75
2026-05-09 17:12:09.097,5,2.0,-0.5,-0.03,-9.608600000000001,-202.8098,246.0914,175,75
2026-05-09 17:12:09.102,5,1.84,-0.99,-0.64,-21.8686,-27.3798,246.0914,175,75
2026-05-09 17:12:09.113,5,0.19,-0.72,-0.53,-15.868599999999999,65.3102,126.26140000000001,175,75
2026-05-09 17:12:09.124,5,-0.81,-0.44,-0.45,-6.3186,76.1702,27.3014,175,75
2026-05-09 17:12:09.141,5,-1.29,-0.3,-0.44,-4.708600000000001,28.1502,-62.9286,175,75
2026-05-09 17:12:09.148,5,-1.42,0.08,-0.35,11.6814,-38.409800000000004,-169.9386,175,75
2026-05-09 17:12:09.159,5,-1.16,-0.06,-0.5,9.0214,-107.6998,-253.5186,175,75
2026-05-09 17:12:09.159,5,-0.71,0.06,-0.6,-6.0586,-161.0898,-254.1786,175,75
2026-05-09 17:12:09.172,5,-0.29,0.2,-0.63,-27.708599999999997,-188.3898,-254.1786,175,75
2026-05-09 17:12:09.181,5,0.08,0.34,-0.56,-58.7486,-189.4598,-254.1786,175,75
2026-05-09 17:12:09.194,5,0.3,0.45,-0.35,-98.37859999999999,-158.8298,-254.1786,175,75
2026-05-09 17:12:09.206,5,0.32,0.4,-0.14,-129.5986,-109.4398,-254.1786,175,75
2026-05-09 17:12:09.212,5,0.34,0.25,-0.02,-141.4486,-50.829800000000006,-254.1786,175,75
2026-05-09 17:12:09.227,5,0.45,0.21,0.07,-140.98860000000002,4.6202000000000005,-239.8586,175,75
2026-05-09 17:12:09.227,5,0.56,0.28,0.11,-131.1886,69.1502,-206.1886,175,75
2026-05-09 17:12:09.238,5,0.85,0.47,0.11,-119.6986,148.1302,-163.3586,175,75
2026-05-09 17:12:09.263,5,2.0,1.6,0.71,-163.3186,247.6402,22.4814,175,75
2026-05-09 17:12:09.269,5,2.0,2.0,2.0,-205.0886,247.6402,246.0914,175,75
2026-05-09 17:12:09.283,5,0.7,1.61,2.0,-224.2486,246.0502,246.0914,175,75
2026-05-09 17:12:09.293,5,0.67,0.62,1.72,-245.07860000000002,247.6402,246.0914,175,75
2026-05-09 17:12:09.300,5,0.46,-0.42,2.0,-222.4186,247.6402,246.0914,175,75
2026-05-09 17:12:09.311,5,-0.56,1.51,2.0,-192.7586,247.6402,246.0914,175,75
2026-05-09 17:12:09.327,5,-2.0,-1.28,2.0,-118.15859999999999,222.6702,246.0914,175,75
2026-05-09 17:12:09.337,5,-2.0,-1.63,1.59,-45.9386,40.1102,246.0914,175,75
2026-05-09 17:12:09.337,5,-2.0,-1.63,1.6,12.5214,-142.59980000000002,246.0914,175,75
2026-05-09 17:12:09.357,5,-2.0,-1.48,1.79,43.7414,-252.6298,141.6514,175,75
2026-05-09 17:12:09.367,5,-1.85,-1.36,2.0,31.8714,-252.6298,30.5714,175,75
2026-05-09 17:12:09.382,5,-0.92,-1.1,2.0,-20.5086,-252.6298,-20.1486,175,75
2026-05-09 17:12:09.392,5,-0.4,-1.1,1.9,-52.3986,-252.6298,-94.6086,175,75
2026-05-09 17:12:09.403,5,0.67,-0.93,1.49,-29.038600000000002,-252.6298,-191.5286,175,75
2026-05-09 17:12:09.439,5,1.5,-0.38,1.34,34.3314,-54.839800000000004,-254.1786,175,75
2026-05-09 17:12:09.457,5,1.38,-0.19,1.3,61.2314,76.8502,-254.1786,175,75
2026-05-09 17:12:09.468,5,1.16,-0.17,1.28,87.6014,180.7802,-254.1786,175,75
2026-05-09 17:12:09.493,5,0.93,-0.08,1.39,123.3914,217.7502,-171.9386,175,75
2026-05-09 17:12:09.493,5,0.59,0.34,1.78,153.6514,192.5902,-25.2986,175,75
2026-05-09 17:12:09.504,5,0.2,0.45,2.0,154.7514,140.2402,124.81139999999999,175,75
2026-05-09 17:12:09.504,5,0.05,1.19,2.0,108.73140000000001,94.4802,246.0914,175,75
2026-05-09 17:12:09.513,5,0.44,0.84,2.0,27.2714,50.020199999999996,246.0914,175,75
2026-05-09 17:12:09.525,5,0.65,-0.13,2.0,-19.788600000000002,41.590199999999996,246.0914,175,75
2026-05-09 17:12:09.535,5,0.1,-0.03,2.0,-33.9086,13.200199999999999,246.0914,175,75
2026-05-09 17:12:09.535,5,-1.95,-1.19,2.0,-21.858600000000003,-123.3198,246.0914,175,75
2026-05-09 17:12:09.546,5,-2.0,-1.3,2.0,-9.188600000000001,-252.6298,246.0914,175,75
2026-05-09 17:12:09.557,5,-2.0,-1.33,1.75,-0.5086000000000004,-252.6298,246.0914,175,75
2026-05-09 17:12:09.570,5,-2.0,-1.32,1.37,-0.10860000000000047,-252.6298,246.0914,175,75
2026-05-09 17:12:09.570,5,-1.68,-1.33,0.92,3.1713999999999998,-252.6298,246.0914,175,75
2026-05-09 17:12:09.588,5,-0.51,-1.36,0.39,23.831400000000002,-252.6298,83.4814,175,75
2026-05-09 17:12:09.599,5,1.84,-1.2,-0.43,49.011399999999995,-252.6298,-177.6286,175,75
2026-05-09 17:12:09.599,5,2.0,-0.65,-0.73,63.3814,-64.3298,-254.1786,175,75
2026-05-09 17:12:09.610,5,2.0,-0.53,-1.06,100.0514,94.2602,-254.1786,175,75
2026-05-09 17:12:09.624,5,2.0,-0.21,-1.68,133.7414,166.3802,-254.1786,175,75
2026-05-09 17:12:09.624,5,1.37,-0.23,-1.5,199.5514,161.68019999999999,-91.7686,175,75
2026-05-09 17:12:09.638,5,0.3,-0.09,-1.14,234.0314,80.4902,64.20139999999999,175,75
2026-05-09 17:12:09.638,5,-0.47,-0.01,-0.87,238.3614,-46.3798,160.4314,175,75
2026-05-09 17:12:09.648,5,-0.73,0.19,-0.65,220.0814,-181.6698,204.6914,175,75
2026-05-09 17:12:09.648,5,-0.49,0.5,-0.32,164.2714,-252.6298,204.3714,175,75
2026-05-09 17:12:09.660,5,0.01,0.59,-0.09,83.8914,-252.6298,179.0514,175,75
2026-05-09 17:12:09.670,5,0.28,0.32,-0.02,18.5014,-252.6298,148.7714,175,75
2026-05-09 17:12:09.681,5,0.08,0.09,0.02,-20.638600000000004,-199.5898,115.0814,175,75
2026-05-09 17:12:09.703,5,-0.18,-0.08,0.06,-37.6986,-153.1298,74.7414,175,75
2026-05-09 17:12:09.703,5,-0.27,-0.32,0.03,-35.2686,-111.3198,38.1814,175,75
2026-05-09 17:12:09.714,5,-0.25,-0.33,0.01,-14.6886,-72.66980000000001,4.2214,175,75
2026-05-09 17:12:09.725,5,-0.09,-0.22,-0.1,7.921399999999999,-29.889799999999997,-17.4686,175,75
2026-05-09 17:12:09.738,5,-0.01,-0.16,-0.06,28.1714,11.9302,-28.3086,175,75
2026-05-09 17:12:09.739,5,0.06,-0.02,-0.07,39.861399999999996,48.6802,-32.1686,175,75
2026-05-09 17:12:09.749,5,0.1,0.09,-0.08,41.291399999999996,77.6002,-28.2686,175,75
2026-05-09 17:12:09.767,5,0.09,0.16,-0.07,35.0414,95.33019999999999,-21.7886,175,75
2026-05-09 17:12:09.767,5,0.07,0.31,-0.04,34.0614,105.3002,-8.1586,175,75
2026-05-09 17:12:09.780,5,0.08,0.24,0.03,21.8414,110.6502,-0.25859999999999994,175,75
2026-05-09 17:12:09.791,5,0.15,0.23,0.1,15.0414,119.5302,10.031400000000001,175,75
2026-05-09 17:12:09.798,5,0.3,0.19,0.23,13.4314,140.3302,28.3914,175,75
2026-05-09 17:12:09.814,5,0.44,0.15,0.34,16.891399999999997,171.6002,52.7414,175,75
2026-05-09 17:12:09.825,5,0.57,0.11,0.65,6.4914,201.3502,88.5014,175,75
2026-05-09 17:12:09.836,5,0.61,0.39,0.68,-5.7986,193.3502,172.1414,175,75
2026-05-09 17:12:09.850,5,0.47,0.63,1.02,-9.178600000000001,113.5502,246.0914,175,75
2026-05-09 17:12:09.850,5,0.29,0.66,1.18,-12.6986,43.270199999999996,246.0914,175,75
2026-05-09 17:12:09.861,5,0.09,0.55,1.24,-19.0886,-15.959800000000001,246.0914,175,75
2026-05-09 17:12:09.879,5,-0.06,0.36,1.19,-22.3786,-52.8798,246.0914,175,75
2026-05-09 17:12:09.879,5,-0.12,0.21,1.16,-16.458599999999997,-65.5698,246.0914,175,75
2026-05-09 17:12:09.889,5,0.05,0.1,1.3,-4.2786,-63.4298,220.8414,175,75
2026-05-09 17:12:09.904,5,0.43,0.04,1.56,6.551399999999999,-57.299800000000005,161.3914,175,75
2026-05-09 17:12:09.914,5,0.96,-0.04,1.89,9.4114,-56.909800000000004,144.9114,175,75
2026-05-09 17:12:09.924,5,1.55,-0.21,2.0,0.5513999999999997,-54.6698,187.9414,175,75
2026-05-09 17:12:09.955,5,2.0,-0.53,2.0,-5.5686,22.0902,246.0914,175,75
2026-05-09 17:12:09.955,5,1.88,-0.33,2.0,-6.8886,150.9802,246.0914,175,75
2026-05-09 17:12:09.973,5,0.76,-0.67,1.96,0.3713999999999995,208.4902,246.0914,175,75
2026-05-09 17:12:09.984,5,-0.41,-0.72,1.7,-2.4886,171.0602,246.0914,175,75
2026-05-09 17:12:09.984,5,-0.9,-0.85,1.37,-0.018600000000000172,135.2202,246.0914,175,75
2026-05-09 17:12:10.005,5,-1.42,-1.34,1.06,56.3014,86.3502,197.0114,175,75
2026-05-09 17:12:10.022,5,-1.46,-1.29,1.84,108.3314,25.5302,4.7414,175,75
2026-05-09 17:12:10.034,5,-1.05,-1.05,2.0,86.54140000000001,28.9002,-149.1786,175,75
2026-05-09 17:12:10.034,5,-0.66,-0.8,2.0,50.7714,58.490199999999994,-254.1786,175,75
2026-05-09 17:12:10.055,5,-0.61,-0.32,2.0,45.721399999999996,98.25019999999999,-254.1786,175,75
2026-05-09 17:12:10.067,5,-0.39,0.02,1.98,83.1714,22.290200000000002,-254.1786,175,75
2026-05-09 17:12:10.077,5,-0.19,0.46,2.0,107.2514,-62.0698,-254.1786,175,75
2026-05-09 17:12:10.077,5,-0.24,0.79,2.0,104.73140000000001,-101.8498,-254.1786,175,75
2026-05-09 17:12:10.100,5,-0.24,0.88,2.0,85.7814,-129.1898,-254.1786,175,75
2026-05-09 17:12:10.100,5,-0.15,0.74,2.0,68.3514,-149.9698,-137.36860000000001,175,75
2026-05-09 17:12:10.112,5,0.02,0.5,1.87,57.9614,-154.1898,-13.598600000000001,175,75
2026-05-09 17:12:10.126,5,0.14,0.36,1.71,48.581399999999995,-140.4098,103.6414,175,75
2026-05-09 17:12:10.126,5,0.31,0.35,1.65,30.321399999999997,-119.2998,201.0714,175,75
2026-05-09 17:12:10.151,5,0.47,0.28,1.57,6.7414,-102.88980000000001,246.0914,175,75
2026-05-09 17:12:10.151,5,0.43,0.19,1.6,-16.738599999999998,-117.2598,246.0914,175,75
2026-05-09 17:12:10.162,5,0.07,0.07,1.61,-43.668600000000005,-156.5398,246.0914,175,75
2026-05-09 17:12:10.172,5,0.06,-0.4,1.58,-61.818599999999996,-197.1498,246.0914,175,75
2026-05-09 17:12:10.184,5,0.12,-0.76,1.32,-53.2186,-215.4998,246.0914,175,75
2026-05-09 17:12:10.197,5,0.13,-0.89,1.06,-28.4086,-206.8098,193.2014,175,75
2026-05-09 17:12:10.207,5,0.06,-0.86,0.85,-3.6186000000000007,-176.5098,107.4314,175,75
2026-05-09 17:12:10.215,5,0.12,-0.75,0.66,11.1314,-118.3698,-18.7986,175,75
2026-05-09 17:12:10.227,5,0.15,-0.62,0.48,18.9214,-43.4198,-151.0886,175,75
2026-05-09 17:12:10.227,5,0.09,-0.49,0.37,33.7714,17.1902,-234.7286,175,75
2026-05-09 17:12:10.238,5,-0.01,-0.29,0.3,51.1714,55.170199999999994,-254.1786,175,75
2026-05-09 17:12:10.281,5,-0.14,-0.07,0.25,62.361399999999996,72.08019999999999,-254.1786,175,75
2026-05-09 17:12:10.302,5,-0.25,0.12,0.23,60.4914,66.0102,-254.1786,175,75
2026-05-09 17:12:10.302,5,-0.3,0.31,0.22,48.4914,47.490199999999994,-254.1786,175,75
2026-05-09 17:12:10.321,5,-0.07,0.37,0.15,29.9214,17.8902,-254.1786,175,75
2026-05-09 17:12:10.321,5,0.13,0.38,0.08,5.301399999999999,-21.8298,-254.1786,175,75
2026-05-09 17:12:10.332,5,0.56,0.31,0.02,-12.7386,-64.1698,-254.1786,175,75
2026-05-09 17:12:10.332,5,0.94,0.44,-0.01,-14.478600000000002,-81.2698,-143.9286,175,75
2026-05-09 17:12:10.340,5,0.07,0.32,-0.07,-28.0786,-88.5698,-7.3786,175,75
2026-05-09 17:12:10.349,5,-0.24,0.14,-0.02,-29.058600000000006,-107.6998,9.461400000000001,175,75
2026-05-09 17:12:10.356,5,-0.34,-0.01,-0.02,-23.248600000000003,-126.7698,22.8014,175,75
2026-05-09 17:12:10.381,5,-0.4,-0.04,-0.0,-10.9886,-148.7398,35.1614,175,75
2026-05-09 17:12:10.381,5,-0.38,-0.11,0.02,3.9913999999999996,-160.1398,53.9314,175,75
2026-05-09 17:12:10.393,5,-0.32,-0.07,0.09,16.961399999999998,-161.81980000000001,67.9114,175,75
2026-05-09 17:12:10.393,5,-0.17,-0.01,0.12,25.151400000000002,-145.8398,73.67139999999999,175,75
2026-05-09 17:12:10.404,5,0.01,0.04,0.1,28.5914,-113.8298,78.8814,175,75
2026-05-09 17:12:10.415,5,0.33,0.11,-0.01,29.151400000000002,-69.0198,89.9814,175,75
2026-05-09 17:12:10.426,5,0.6,0.2,-0.13,26.211399999999998,-10.889800000000001,108.5914,175,75
2026-05-09 17:12:10.436,5,0.77,0.14,-0.14,25.101399999999998,66.9102,121.6114,175,75
2026-05-09 17:12:10.449,5,0.45,0.36,-0.35,16.8814,137.2202,128.8114,175,75
2026-05-09 17:12:10.471,5,0.1,0.36,-0.22,5.9113999999999995,168.7502,103.3614,175,75
2026-05-09 17:12:10.471,5,-0.03,0.27,-0.04,-6.2585999999999995,183.68019999999999,77.3214,175,75
2026-05-09 17:12:10.482,5,-0.06,0.25,0.11,-16.5186,191.9702,53.6614,175,75
2026-05-09 17:12:10.482,5,0.04,0.22,0.25,-24.348599999999998,207.2002,26.4814,175,75
2026-05-09 17:12:10.504,5,0.19,0.07,0.4,-23.5886,234.0802,3.1414,175,75
2026-05-09 17:12:10.514,5,0.59,-0.26,0.72,-35.208600000000004,247.6402,11.2314,175,75
2026-05-09 17:12:10.533,5,1.15,-0.09,1.05,-36.8286,247.6402,79.9614,175,75
2026-05-09 17:12:10.543,5,1.98,0.64,1.87,-79.56859999999999,247.6402,246.0914,175,75
2026-05-09 17:12:10.553,5,1.58,0.7,1.97,-119.95859999999999,247.6402,246.0914,175,75
2026-05-09 17:12:10.565,5,1.02,0.74,2.0,-168.4086,247.6402,246.0914,175,75
2026-05-09 17:12:10.565,5,-0.81,0.08,2.0,-202.3786,247.6402,246.0914,175,75
2026-05-09 17:12:10.576,5,-2.0,-0.83,2.0,-185.3886,247.6402,246.0914,175,75
2026-05-09 17:12:10.587,5,-2.0,-1.62,2.0,-151.3586,247.6402,116.7714,175,75
2026-05-09 17:12:10.587,5,-2.0,-1.94,1.67,-71.1486,163.2002,17.011400000000002,175,75
2026-05-09 17:12:10.598,5,-2.0,-2.0,1.76,28.081400000000002,-99.6898,-36.378600000000006,175,75
2026-05-09 17:12:10.610,5,-2.0,-1.93,2.0,102.7214,-252.6298,-61.6586,175,75
2026-05-09 17:12:10.610,5,-2.0,-1.4,2.0,102.3814,-252.6298,-91.5686,175,75
2026-05-09 17:12:10.624,5,-2.0,-1.06,2.0,59.5714,-252.6298,-164.3286,175,75
2026-05-09 17:12:10.637,5,-1.47,-0.73,2.0,74.6014,-252.6298,-254.1786,175,75
2026-05-09 17:12:10.647,5,-0.3,-0.45,1.66,102.9414,-252.6298,-254.1786,175,75
2026-05-09 17:12:10.647,5,0.29,-0.23,1.43,129.0114,-252.6298,-254.1786,175,75
2026-05-09 17:12:10.675,5,0.35,0.28,1.05,148.67139999999998,-244.6998,-254.1786,175,75
2026-05-09 17:12:10.686,5,0.15,0.59,0.8,143.0614,-245.6998,-241.8786,175,75
2026-05-09 17:12:10.696,5,0.06,0.67,0.41,127.2814,-252.6298,-230.0886,175,75
2026-05-09 17:12:10.706,5,0.03,0.61,-0.13,122.32140000000001,-252.6298,-205.2486,175,75
2026-05-09 17:12:10.707,5,1.04,0.6,-0.82,131.51139999999998,-252.6298,-125.0186,175,75
2026-05-09 17:12:10.725,5,2.0,0.92,-1.3,150.92139999999998,-252.6298,67.56139999999999,175,75
2026-05-09 17:12:10.737,5,2.0,1.44,-1.31,130.6514,-252.6298,179.1414,175,75
2026-05-09 17:12:10.737,5,0.63,0.71,-0.84,72.6614,-193.8998,133.9114,175,75
2026-05-09 17:12:10.748,5,0.09,0.17,-0.42,40.941399999999994,-170.4298,74.5714,175,75
2026-05-09 17:12:10.760,5,0.28,-0.11,-0.03,32.8114,-142.5298,51.121399999999994,175,75
2026-05-09 17:12:10.772,5,0.68,0.09,0.51,22.5614,-75.4698,40.1714,175,75
2026-05-09 17:12:10.784,5,1.01,1.51,-0.07,-30.668600000000005,45.6202,34.8814,175,75
2026-05-09 17:12:10.799,5,1.73,0.13,1.59,-58.168600000000005,238.7002,23.1814,175,75
2026-05-09 17:12:10.808,5,2.0,0.67,1.68,-126.2486,247.6402,20.2714,175,75
2026-05-09 17:12:10.808,5,2.0,1.52,2.0,-183.0986,247.6402,246.0914,175,75
2026-05-09 17:12:10.823,5,1.07,0.57,2.0,-123.34859999999999,247.6402,246.0914,175,75
2026-05-09 17:12:10.838,5,-0.37,-0.05,1.69,-72.1186,247.6402,246.0914,175,75
2026-05-09 17:12:10.838,5,-2.0,-0.14,1.17,-51.8186,247.6402,246.0914,175,75
2026-05-09 17:12:10.862,5,-2.0,-0.57,1.2,-56.4486,77.4302,121.1114,175,75
2026-05-09 17:12:10.879,5,-1.59,-0.54,1.43,-44.058600000000006,-30.1098,134.7514,175,75
2026-05-09 17:12:10.899,5,-0.94,-0.52,1.69,-25.958599999999997,-112.4398,160.1114,175,75
2026-05-09 17:12:10.899,5,-0.4,-0.54,1.72,-19.528599999999997,-178.6198,196.0114,175,75
2026-05-09 17:12:10.910,5,0.17,-0.63,1.44,-16.8786,-226.0198,225.6214,175,75
2026-05-09 17:12:10.924,5,0.56,-0.89,0.96,-5.538600000000001,-252.6298,246.0914,175,75
2026-05-09 17:12:10.924,5,0.85,-0.96,0.62,21.6314,-252.6298,246.0914,175,75
2026-05-09 17:12:10.929,5,0.94,-1.03,0.29,60.2714,-252.6298,246.0914,175,75
2026-05-09 17:12:10.953,5,1.28,-0.9,-0.35,125.3914,-142.1598,236.4614,175,75
2026-05-09 17:12:10.967,5,0.99,-0.86,-0.51,132.4014,-23.5398,112.8214,175,75
2026-05-09 17:12:10.977,5,0.57,-0.81,-0.54,137.5914,55.8002,20.741400000000002,175,75
2026-05-09 17:12:10.977,5,0.13,-0.62,-0.5,145.0514,92.8102,-27.3786,175,75
2026-05-09 17:12:10.989,5,-0.03,-0.35,-0.45,133.9014,101.3002,-50.4286,175,75
2026-05-09 17:12:11.016,5,-0.1,-0.53,-0.08,134.45139999999998,99.75019999999999,-71.7686,175,75
2026-05-09 17:12:11.033,5,-0.19,0.02,-0.25,88.1714,88.3002,-104.9286,175,75
2026-05-09 17:12:11.049,5,-0.2,0.11,-0.24,40.6714,67.4302,-139.5786,175,75
2026-05-09 17:12:11.060,5,-0.16,0.11,-0.21,5.4914,45.160199999999996,-159.3586,175,75
2026-05-09 17:12:11.073,5,-0.1,0.09,-0.17,-20.5586,24.6602,-166.4486,175,75
2026-05-09 17:12:11.073,5,-0.05,0.03,-0.14,-36.168600000000005,8.110199999999999,-162.8286,175,75
2026-05-09 17:12:11.086,5,0.03,-0.02,-0.11,-44.5386,-1.9797999999999998,-149.6686,175,75
2026-05-09 17:12:11.096,5,0.09,-0.07,-0.11,-44.4986,-4.5998,-131.5486,175,75
2026-05-09 17:12:11.111,5,0.17,-0.09,-0.07,-38.3286,2.2202,-114.1486,175,75
2026-05-09 17:12:11.123,5,0.57,-0.09,-0.0,-25.7686,56.6902,-82.2786,175,75
2026-05-09 17:12:11.133,5,0.91,-0.07,0.03,-23.988599999999998,110.9202,-51.7586,175,75
2026-05-09 17:12:11.161,5,1.74,-0.04,1.1,-36.558600000000006,-156.0198,-62.2686,175,75
2026-05-09 17:12:11.161,5,1.32,2.0,-0.19,-59.598600000000005,-116.66980000000001,-116.4086,175,75
2026-05-09 17:12:11.175,5,2.0,0.7,2.0,-102.8986,64.0102,-168.8086,175,75
2026-05-09 17:12:11.175,5,2.0,-0.17,2.0,-156.7786,247.6402,-145.8086,175,75
2026-05-09 17:12:11.197,5,1.53,-1.43,1.79,-174.0586,247.6402,246.0914,175,75
2026-05-09 17:12:11.197,5,-2.0,-1.64,1.5,-81.53859999999999,247.6402,246.0914,175,75
2026-05-09 17:12:11.208,5,-2.0,-1.5,1.58,6.291399999999999,120.0102,246.0914,175,75
2026-05-09 17:12:11.218,5,-2.0,-1.34,1.63,51.8414,-27.0198,146.3314,175,75
2026-05-09 17:12:11.237,5,-2.0,-1.13,1.64,75.9414,-117.0598,-143.0186,175,75
2026-05-09 17:12:11.248,5,-2.0,-0.83,1.9,88.73140000000001,-98.5198,-254.1786,175,75
2026-05-09 17:12:11.248,5,-1.24,-0.61,2.0,95.1314,15.580200000000001,-254.1786,175,75
2026-05-09 17:12:11.268,5,-1.03,-0.35,2.0,117.8314,88.4502,-254.1786,175,75
2026-05-09 17:12:11.279,5,-1.1,0.39,1.92,177.4014,-11.6798,-254.1786,175,75
2026-05-09 17:12:11.289,5,0.12,1.08,1.78,232.6214,-119.2898,-254.1786,175,75
2026-05-09 17:12:11.289,5,0.15,1.34,1.73,237.1614,-137.7898,-254.1786,175,75
2026-05-09 17:12:11.307,5,-0.06,1.28,1.67,210.45139999999998,-105.1298,-254.1786,175,75
2026-05-09 17:12:11.307,5,-0.2,1.0,1.55,158.20139999999998,-61.009800000000006,-254.1786,175,75
2026-05-09 17:12:11.318,5,-0.29,0.74,1.37,104.2014,-29.1498,-254.1786,175,75
2026-05-09 17:12:11.351,5,-0.54,0.49,0.88,9.7814,-31.7598,-63.558600000000006,175,75
2026-05-09 17:12:11.351,5,-0.62,0.64,0.7,-34.2986,-54.2398,21.4314,175,75
2026-05-09 17:12:11.364,5,-0.46,0.83,0.52,-82.76859999999999,-67.63980000000001,50.8814,175,75
2026-05-09 17:12:11.377,5,0.16,1.06,0.14,-111.17859999999999,-56.4498,48.9314,175,75
2026-05-09 17:12:11.377,5,2.0,0.75,-0.38,-91.87859999999999,-20.3998,162.1714,175,75
2026-05-09 17:12:11.400,5,2.0,1.65,-0.99,-28.0886,41.240199999999994,246.0914,175,75
2026-05-09 17:12:11.400,5,1.35,1.56,-0.69,15.901399999999999,98.9502,246.0914,175,75
2026-05-09 17:12:11.414,5,0.62,0.79,-0.18,31.681399999999996,108.6002,246.0914,175,75
2026-05-09 17:12:11.434,5,0.4,0.62,0.24,16.141399999999997,85.00019999999999,246.0914,175,75
2026-05-09 17:12:11.444,5,0.41,-0.15,0.81,-42.6986,-20.119799999999998,246.0914,175,75
2026-05-09 17:12:11.456,5,0.59,-0.29,1.08,-77.15859999999999,-58.159800000000004,246.0914,175,75
2026-05-09 17:12:11.468,5,1.54,-0.8,1.54,-69.5786,-6.3797999999999995,246.0914,175,75
2026-05-09 17:12:11.477,5,1.61,-1.25,1.94,-2.5986000000000002,195.5102,246.0914,175,75
2026-05-09 17:12:11.497,5,0.66,-1.53,2.0,90.37140000000001,247.6402,134.9814,175,75
2026-05-09 17:12:11.508,5,-1.54,-0.6,2.0,163.17139999999998,247.6402,-250.9886,175,75
2026-05-09 17:12:11.519,5,-2.0,0.08,2.0,137.0214,247.6402,-254.1786,175,75
2026-05-09 17:12:11.534,5,-2.0,0.25,2.0,115.32140000000001,136.2702,-254.1786,175,75
2026-05-09 17:12:11.547,5,-1.58,1.0,2.0,38.8014,-246.7298,-254.1786,175,75
2026-05-09 17:12:11.553,5,-0.56,0.64,2.0,18.1314,-252.6298,-147.7186,175,75
2026-05-09 17:12:11.567,5,0.38,0.24,1.66,31.101399999999998,-252.6298,36.1714,175,75
2026-05-09 17:12:11.567,5,0.72,0.17,1.46,42.8114,-252.6298,211.8614,175,75
2026-05-09 17:12:11.581,5,0.98,0.17,1.23,38.6814,-205.1798,246.0914,175,75
2026-05-09 17:12:11.591,5,0.68,0.36,0.82,32.861399999999996,-138.1198,246.0914,175,75
2026-05-09 17:12:11.631,5,0.77,0.27,0.38,43.7514,-25.939799999999998,246.0914,175,75
2026-05-09 17:12:11.631,5,0.44,-0.1,0.22,42.361399999999996,-47.6998,246.0914,175,75
2026-05-09 17:12:11.645,5,0.45,-0.3,0.2,-0.3786000000000005,-104.3798,246.0914,175,75
2026-05-09 17:12:11.656,5,0.64,-0.87,-0.03,-38.9686,-59.229800000000004,246.0914,175,75
2026-05-09 17:12:11.667,5,-0.16,-0.92,-0.08,-39.6086,-12.4098,199.85139999999998,175,75
2026-05-09 17:12:11.667,5,-0.69,-0.82,-0.06,-17.538600000000002,6.560200000000001,65.8014,175,75
2026-05-09 17:12:11.679,5,-0.81,-0.79,-0.12,13.9114,1.6902,-40.6986,175,75
2026-05-09 17:12:11.679,5,-0.56,-0.68,-0.19,43.6214,-12.669799999999999,-111.5886,175,75
2026-05-09 17:12:11.690,5,-0.13,-0.47,-0.25,57.6314,-15.529799999999998,-148.4586,175,75
2026-05-09 17:12:11.703,5,0.19,-0.29,-0.4,49.2014,-0.029799999999999827,-158.9886,175,75
2026-05-09 17:12:11.714,5,0.41,-1.0,0.19,52.791399999999996,22.5902,-159.0986,175,75
2026-05-09 17:12:11.727,5,0.24,-0.21,-0.61,36.511399999999995,31.780200000000004,-162.3286,175,75
2026-05-09 17:12:11.732,5,0.21,-0.21,-0.73,22.5214,32.7502,-158.2386,175,75
2026-05-09 17:12:11.738,5,0.1,-0.16,-0.68,11.8014,23.5802,-151.1986,175,75
2026-05-09 17:12:11.751,5,-0.07,-0.03,-0.47,-3.9286000000000003,10.3002,-152.5686,175,75
2026-05-09 17:12:11.772,5,-0.2,0.05,-0.23,-21.348599999999998,-1.9198,-166.11860000000001,175,75
2026-05-09 17:12:11.772,5,-0.21,0.06,-0.03,-36.0786,-3.9497999999999998,-187.9486,175,75
2026-05-09 17:12:11.782,5,-0.07,0.02,0.07,-44.5186,11.0302,-209.39860000000002,175,75
2026-05-09 17:12:11.794,5,0.11,0.07,0.12,-44.7886,40.410199999999996,-224.9986,175,75
2026-05-09 17:12:11.804,5,0.25,0.1,0.08,-42.9286,73.8902,-233.4786,175,75
2026-05-09 17:12:11.811,5,0.41,0.14,0.07,-40.0186,108.83019999999999,-232.9486,175,75
2026-05-09 17:12:11.822,5,0.58,0.14,0.11,-36.4786,147.9402,-220.7286,175,75
2026-05-09 17:12:11.832,5,0.8,0.25,0.12,-34.028600000000004,165.7602,-199.5386,175,75
2026-05-09 17:12:11.847,5,1.88,0.7,0.9,4.6114,-150.5498,77.4314,175,75
2026-05-09 17:12:11.847,5,2.0,2.0,1.16,-20.458599999999997,-252.6298,246.0914,175,75
2026-05-09 17:12:11.859,5,2.0,2.0,2.0,-105.15859999999999,-252.6298,242.4314,175,75
2026-05-09 17:12:11.873,5,2.0,1.4,2.0,-236.0586,228.8302,-41.3986,175,75
2026-05-09 17:12:11.884,5,2.0,0.65,2.0,-246.8586,247.6402,-179.7986,175,75
2026-05-09 17:12:11.897,5,1.86,-1.05,1.36,-246.8586,247.6402,-149.3086,175,75
2026-05-09 17:12:11.907,5,-0.06,-0.43,0.46,-236.4486,247.6402,228.2614,175,75
2026-05-09 17:12:11.910,5,-1.28,-0.89,1.47,-124.9586,247.6402,246.0914,175,75
2026-05-09 17:12:11.928,5,-2.0,-0.92,2.0,-75.0586,-108.9898,246.0914,175,75
2026-05-09 17:12:11.960,5,-2.0,-1.52,2.0,-83.01859999999999,-252.6298,80.3414,175,75
2026-05-09 17:12:11.960,5,-1.58,-1.61,2.0,-71.9186,-252.6298,-91.43860000000001,175,75
2026-05-09 17:12:11.970,5,-1.14,-1.28,1.86,-40.1586,-252.6298,-254.1786,175,75
2026-05-09 17:12:11.992,5,-0.07,-0.6,1.2,-5.7486,-252.6298,-254.1786,175,75
2026-05-09 17:12:11.992,5,0.76,-0.22,1.0,29.9214,-208.6198,-254.1786,175,75
2026-05-09 17:12:11.997,5,0.84,0.26,0.9,52.4614,-99.52980000000001,-254.1786,175,75
2026-05-09 17:12:12.009,5,0.69,0.78,0.88,55.191399999999994,-23.5098,-254.1786,175,75
2026-05-09 17:12:12.020,5,0.6,1.2,0.69,63.4914,-36.6698,-254.1786,175,75
2026-05-09 17:12:12.038,5,1.2,1.01,0.62,125.0314,-112.1798,-254.1786,175,75
2026-05-09 17:12:12.060,5,0.47,0.59,1.47,12.9714,189.8602,-88.3786,175,75
2026-05-09 17:12:12.074,5,0.09,0.42,1.49,-2.2486000000000006,247.6402,108.8814,175,75
2026-05-09 17:12:12.086,5,0.02,0.72,1.78,-2.0586,247.6402,246.0914,175,75
2026-05-09 17:12:12.098,5,0.34,1.44,2.0,-7.768600000000001,219.5702,246.0914,175,75
2026-05-09 17:12:12.098,5,0.46,2.0,2.0,-42.808600000000006,204.40019999999998,246.0914,175,75
2026-05-09 17:12:12.112,5,0.29,2.0,2.0,-94.84859999999999,247.6402,246.0914,175,75
2026-05-09 17:12:12.123,5,-1.82,1.44,2.0,-177.07860000000002,123.36019999999999,246.0914,175,75
2026-05-09 17:12:12.134,5,-2.0,-0.74,2.0,-199.42860000000002,-65.2298,246.0914,175,75
2026-05-09 17:12:12.145,5,-2.0,-1.31,2.0,-144.82860000000002,-138.9898,246.0914,175,75
2026-05-09 17:12:12.163,5,-2.0,-1.74,1.56,-56.3786,-214.4698,246.0914,175,75
2026-05-09 17:12:12.188,5,-2.0,-1.84,1.17,43.4914,-252.6298,246.0914,175,75
2026-05-09 17:12:12.191,5,-1.35,-1.73,0.99,189.3614,-252.6298,102.4614,175,75
2026-05-09 17:12:12.204,5,-0.19,-1.57,0.9,210.3414,-252.6298,146.5614,175,75
2026-05-09 17:12:12.215,5,0.51,-1.35,0.63,204.60139999999998,-252.6298,222.7214,175,75
2026-05-09 17:12:12.225,5,1.76,-1.43,-0.02,195.76139999999998,-252.6298,246.0914,175,75
2026-05-09 17:12:12.225,5,2.0,-2.0,-2.0,222.4714,-189.5798,246.0914,175,75
2026-05-09 17:12:12.236,5,2.0,-1.68,-2.0,253.4114,74.6502,246.0914,175,75
2026-05-09 17:12:12.260,5,-1.45,-0.36,-1.27,253.4114,-53.329800000000006,246.0914,175,75
2026-05-09 17:12:12.272,5,-2.0,0.13,-0.3,253.4114,-252.6298,92.1514,175,75
2026-05-09 17:12:12.282,5,-1.03,-0.05,-0.17,167.0814,-252.6298,-56.888600000000004,175,75
2026-05-09 17:12:12.293,5,0.15,-0.32,-0.09,83.7014,-244.0098,-98.2686,175,75
2026-05-09 17:12:12.303,5,0.72,-0.34,-0.04,6.0214,-130.6598,-69.5186,175,75
2026-05-09 17:12:12.314,5,0.77,-0.26,-0.07,-69.0086,-15.4098,-11.0486,175,75
2026-05-09 17:12:12.325,5,0.5,-0.23,-0.2,-127.3386,77.75019999999999,20.2714,175,75
2026-05-09 17:12:12.344,5,0.18,-0.28,-0.36,-151.6386,146.1402,13.2314,175,75
2026-05-09 17:12:12.344,5,0.02,-0.3,-0.38,-150.2786,194.2102,-25.0886,175,75
2026-05-09 17:12:12.355,5,-0.08,-0.22,-0.3,-136.95860000000002,230.6602,-84.2686,175,75
2026-05-09 17:12:12.365,5,-0.19,-0.18,-0.21,-119.8686,247.6402,-146.0186,175,75
2026-05-09 17:12:12.376,5,-0.21,-0.09,-0.15,-100.9986,247.6402,-199.0586,175,75
2026-05-09 17:12:12.388,5,-0.21,-0.02,-0.05,-84.34859999999999,247.6402,-240.0086,175,75
2026-05-09 17:12:12.388,5,-0.05,0.0,0.08,-66.3986,247.6402,-254.1786,175,75
2026-05-09 17:12:12.405,5,0.16,0.01,0.24,-40.958600000000004,247.6402,-254.1786,175,75
2026-05-09 17:12:12.418,5,0.71,0.09,0.99,-22.568600000000004,163.43019999999999,-168.2086,175,75
2026-05-09 17:12:12.428,5,0.79,0.71,1.32,-3.2486000000000006,32.2502,3.9114000000000004,175,75
2026-05-09 17:12:12.428,5,0.49,0.83,1.36,-20.218600000000002,-15.9698,85.6214,175,75
2026-05-09 17:12:12.451,5,0.23,0.71,1.22,-40.598600000000005,-28.9298,117.3014,175,75
2026-05-09 17:12:12.463,5,0.07,0.57,1.06,-50.6086,-44.799800000000005,145.0014,175,75
2026-05-09 17:12:12.463,5,0.04,0.53,0.98,-48.278600000000004,-66.63980000000001,172.0714,175,75
2026-05-09 17:12:12.473,5,0.11,0.63,0.97,-39.5086,-90.8998,193.9314,175,75
2026-05-09 17:12:12.485,5,0.24,0.8,1.04,-28.5486,-113.66980000000001,201.5314,175,75
2026-05-09 17:12:12.498,5,0.33,0.97,1.2,-22.6986,-114.9098,180.2214,175,75
2026-05-09 17:12:12.508,5,0.47,1.1,1.42,-31.8686,-78.8398,125.23140000000001,175,75
2026-05-09 17:12:12.508,5,0.98,1.02,1.7,-36.5186,-33.5098,102.5114,175,75
2026-05-09 17:12:12.520,5,1.8,0.93,2.0,-49.638600000000004,23.9602,189.5214,175,75
2026-05-09 17:12:12.530,5,2.0,0.59,2.0,-79.15859999999999,149.9402,246.0914,175,75
2026-05-09 17:12:12.549,5,2.0,0.15,2.0,-91.06859999999999,247.6402,246.0914,175,75
2026-05-09 17:12:12.561,5,1.02,0.13,1.57,-88.1886,247.6402,246.0914,175,75
2026-05-09 17:12:12.561,5,-1.16,-0.04,1.18,-95.8286,247.6402,246.0914,175,75
2026-05-09 17:12:12.574,5,-2.0,-0.36,1.26,-88.0486,247.6402,246.0914,175,75
2026-05-09 17:12:12.585,5,-2.0,-0.86,1.38,-65.53859999999999,105.0402,246.0914,175,75
2026-05-09 17:12:12.597,5,-2.0,-1.38,1.28,-23.6986,-53.8898,246.0914,175,75
2026-05-09 17:12:12.607,5,-2.0,-1.54,1.36,28.6714,-145.59980000000002,222.3914,175,75
2026-05-09 17:12:12.618,5,-2.0,-1.45,1.77,60.9514,-180.59980000000002,73.9314,175,75
2026-05-09 17:12:12.618,5,-1.24,-1.07,2.0,33.1514,-170.0798,-49.7686,175,75
2026-05-09 17:12:12.638,5,-1.57,-0.82,2.0,-20.7986,-180.84980000000002,-213.7286,175,75
2026-05-09 17:12:12.644,5,-0.27,-0.34,2.0,-12.4886,-158.6098,-254.1786,175,75
2026-05-09 17:12:12.655,5,0.36,0.2,1.94,9.0114,-88.4098,-254.1786,175,75
2026-05-09 17:12:12.666,5,0.73,0.53,1.53,41.6214,-80.49980000000001,-254.1786,175,75
2026-05-09 17:12:12.680,5,0.89,0.74,1.27,90.4914,-147.8298,-254.1786,175,75
2026-05-09 17:12:12.680,5,0.55,0.55,1.15,145.1214,-202.59980000000002,-254.1786,175,75
2026-05-09 17:12:12.694,5,0.27,0.77,1.26,167.0014,-201.06980000000001,-222.7786,175,75
2026-05-09 17:12:12.708,5,0.3,0.54,1.19,164.0814,-174.81980000000001,-109.4886,175,75
2026-05-09 17:12:12.724,5,0.43,0.34,1.04,160.8114,-128.4398,28.6014,175,75
2026-05-09 17:12:12.724,5,0.5,0.33,0.89,161.1914,-83.0898,171.1914,175,75
2026-05-09 17:12:12.737,5,0.72,0.41,0.84,157.13139999999999,-34.409800000000004,246.0914,175,75
2026-05-09 17:12:12.749,5,0.94,0.47,1.01,134.0514,34.950199999999995,246.0914,175,75
2026-05-09 17:12:12.768,5,1.44,0.56,1.23,44.1714,186.3602,246.0914,175,75
2026-05-09 17:12:12.778,5,1.28,0.84,1.27,-2.7086000000000006,247.6402,246.0914,175,75
2026-05-09 17:12:12.778,5,-0.21,0.62,1.8,-26.7686,156.1602,246.0914,175,75
2026-05-09 17:12:12.791,5,-0.85,-0.3,2.0,-52.8686,-36.6798,246.0914,175,75
2026-05-09 17:12:12.808,5,-0.82,-0.85,1.97,-50.2486,-60.5598,246.0914,175,75
2026-05-09 17:12:12.808,5,-1.34,-0.88,1.47,-29.1986,-20.0198,233.6514,175,75
2026-05-09 17:12:12.819,5,-1.89,-0.96,1.14,-2.6186000000000007,-2.3398,50.4314,175,75
2026-05-09 17:12:12.834,5,-1.75,-0.98,0.93,26.4914,-24.4898,-125.5686,175,75
2026-05-09 17:12:12.848,5,-1.16,-0.81,0.86,58.8814,-45.479800000000004,-250.8886,175,75
2026-05-09 17:12:12.863,5,-0.08,-0.13,0.8,109.0814,-58.519800000000004,-254.1786,175,75
2026-05-09 17:12:12.879,5,0.32,0.22,0.79,120.87140000000001,-63.6998,-254.1786,175,75
2026-05-09 17:12:12.879,5,0.6,0.44,0.73,130.6614,-100.7398,-254.1786,175,75
2026-05-09 17:12:12.892,5,0.79,0.73,0.68,130.0414,-144.0898,-254.1786,175,75
2026-05-09 17:12:12.902,5,0.87,0.65,0.58,118.5214,-162.3798,-254.1786,175,75
2026-05-09 17:12:12.916,5,0.98,0.67,0.44,106.6714,-135.8598,-180.7986,175,75
2026-05-09 17:12:12.929,5,0.75,0.57,0.28,85.3814,-96.6198,-94.8586,175,75
2026-05-09 17:12:12.929,5,0.39,0.31,0.14,73.21140000000001,-82.3398,-5.8886,175,75
2026-05-09 17:12:12.944,5,0.07,0.19,0.11,65.1514,-100.4398,78.3614,175,75
2026-05-09 17:12:12.960,5,-0.17,0.01,0.14,60.9914,-134.9198,148.7614,175,75
