Time,ID,Ax,Ay,Az,Gx,Gy,Gz,Height,Weight
2026-05-11 17:56:47.918,5,-0.33,-0.06,0.37,-96.5794,43.3572,-246.53379999999999,175,75
2026-05-11 17:56:47.918,5,-0.01,-0.18,0.07,40.6706,-89.9928,-30.7038,175,75
2026-05-11 17:56:47.918,5,0.01,0.34,-0.64,170.4206,-58.2828,253.7362,175,75
2026-05-11 17:56:47.918,5,-0.01,0.01,-0.47,164.44060000000002,-71.11280000000001,253.7362,175,75
2026-05-11 17:56:47.918,5,-0.45,-0.44,0.87,88.4806,182.7072,-29.7138,175,75
2026-05-11 17:56:47.918,5,-0.89,-0.49,2.0,-17.3594,113.13719999999999,-170.53379999999999,175,75
2026-05-11 17:56:47.918,5,0.79,-0.38,2.0,-94.85940000000001,-57.452799999999996,-246.53379999999999,175,75
2026-05-11 17:56:47.918,5,2.0,0.6,2.0,-189.37939999999998,47.9072,-246.53379999999999,175,75
2026-05-11 17:56:47.918,5,2.0,0.64,2.0,-247.81939999999997,248.1572,-246.53379999999999,175,75
2026-05-11 17:56:47.918,5,-2.0,0.41,2.0,155.3906,-106.0528,-89.6338,175,75
2026-05-11 17:56:47.918,5,-2.0,0.67,2.0,115.7606,-252.1128,-37.623799999999996,175,75
2026-05-11 17:56:47.918,5,-1.11,0.61,2.0,94.53059999999999,-252.1128,77.78620000000001,175,75
2026-05-11 17:56:47.918,5,0.59,0.52,1.69,102.5906,-252.1128,202.21620000000001,175,75
2026-05-11 17:56:47.918,5,2.0,1.17,-2.0,136.28060000000002,180.0472,253.7362,175,75
2026-05-11 17:56:47.918,5,0.22,0.3,-1.67,43.6106,248.1572,253.7362,175,75
2026-05-11 17:56:47.919,5,-1.7,-0.12,-0.6,-29.639400000000002,248.1572,177.0762,175,75
2026-05-11 17:56:47.919,5,-1.01,-1.21,-1.25,54.5406,-252.1128,-203.4438,175,75
2026-05-11 17:56:47.919,5,-0.03,-1.17,-1.7,94.4906,-252.1128,-217.9538,175,75
2026-05-11 17:56:47.919,5,0.12,-0.78,-1.35,85.3706,-206.4528,-223.2238,175,75
2026-05-11 17:56:47.919,5,2.0,1.22,-0.26,-247.81939999999997,248.1572,-162.7938,175,75
2026-05-11 17:56:47.919,5,2.0,2.0,1.29,-247.81939999999997,248.1572,-95.7538,175,75
2026-05-11 17:56:47.919,5,2.0,2.0,2.0,-247.81939999999997,248.1572,253.7362,175,75
2026-05-11 17:56:47.920,5,1.16,0.7,2.0,-247.81939999999997,177.3972,253.7362,175,75
2026-05-11 17:56:47.920,5,-2.0,-2.0,2.0,24.720599999999997,195.4272,68.5562,175,75
2026-05-11 17:56:47.920,5,-2.0,-1.52,2.0,87.14059999999999,46.9272,-68.0238,175,75
2026-05-11 17:56:47.920,5,-2.0,-1.43,2.0,85.1606,-37.6128,-165.8238,175,75
2026-05-11 17:56:47.920,5,-1.26,-1.29,2.0,45.4606,-91.4428,-182.6338,175,75
2026-05-11 17:56:47.920,5,-1.03,-1.24,2.0,59.940599999999996,-226.0628,-188.4738,175,75
2026-05-11 17:56:47.920,5,-0.34,-0.75,2.0,105.6306,-252.1128,-203.9838,175,75
2026-05-11 17:56:47.920,5,0.23,-0.27,1.81,134.9806,-252.1128,-221.7238,175,75
2026-05-11 17:56:47.928,5,0.47,0.12,1.26,140.5106,-252.1128,-235.4738,175,75
2026-05-11 17:56:47.932,5,0.99,0.7,0.45,98.5906,-248.6928,-228.5838,175,75
2026-05-11 17:56:48.056,5,-0.28,1.01,-0.33,-20.3094,125.87719999999999,-65.2238,175,75
2026-05-11 17:56:48.056,5,-0.04,0.48,-0.58,-39.3494,45.9172,-130.6338,175,75
2026-05-11 17:56:48.056,5,-0.35,0.17,-0.3,36.1706,-39.5528,38.2862,175,75
2026-05-11 17:56:48.085,5,-0.32,0.14,-0.32,57.7606,-102.70280000000001,115.0462,175,75
2026-05-11 17:56:48.085,5,0.01,0.13,-0.43,76.7406,-107.2128,192.9362,175,75
2026-05-11 17:56:48.141,5,-0.12,-0.07,-0.42,75.2606,-31.6628,178.21620000000001,175,75
2026-05-11 17:56:48.141,5,-0.14,-0.22,-0.46,70.1806,7.2372000000000005,134.7862,175,75
2026-05-11 17:56:48.141,5,-0.12,-0.32,-0.52,65.0806,38.8872,101.3262,175,75
2026-05-11 17:56:48.141,5,-0.06,-0.39,-0.43,62.4106,64.35719999999999,82.5562,175,75
2026-05-11 17:56:48.188,5,0.29,-0.49,-0.39,61.7806,94.0572,89.89620000000001,175,75
2026-05-11 17:56:48.188,5,1.8,-1.74,2.0,-156.09939999999997,-11.922799999999999,-196.8438,175,75
2026-05-11 17:56:48.424,5,2.0,-0.92,2.0,-231.6994,84.48719999999999,-175.6338,175,75
2026-05-11 17:56:48.424,5,1.46,-0.83,2.0,-211.52939999999998,248.1572,-219.3438,175,75
2026-05-11 17:56:48.424,5,-0.64,-0.85,2.0,-86.0594,248.1572,-246.53379999999999,175,75
2026-05-11 17:56:48.424,5,-0.52,-0.51,2.0,-17.9494,248.1572,-246.53379999999999,175,75
2026-05-11 17:56:48.424,5,-0.83,0.07,2.0,21.720599999999997,157.9672,-246.53379999999999,175,75
2026-05-11 17:56:48.424,5,-2.0,0.6,2.0,5.5006,-69.1928,-63.7838,175,75
2026-05-11 17:56:48.425,5,-0.96,0.81,2.0,4.3706,-188.68280000000001,-12.7038,175,75
2026-05-11 17:56:48.425,5,0.25,0.67,2.0,38.0406,-249.74280000000002,117.4662,175,75
2026-05-11 17:56:48.426,5,0.7,0.43,2.0,36.0306,-228.4028,242.8062,175,75
2026-05-11 17:56:48.426,5,0.84,0.25,2.0,8.050600000000001,-172.1428,253.7362,175,75
2026-05-11 17:56:48.426,5,0.69,0.02,1.8,-35.5994,-120.37280000000001,253.7362,175,75
2026-05-11 17:56:48.426,5,-0.47,-0.78,0.66,-130.9894,-252.1128,253.7362,175,75
2026-05-11 17:56:48.426,5,1.35,-1.75,-0.47,-138.6094,-252.1128,253.7362,175,75
2026-05-11 17:56:48.426,5,0.85,-2.0,-0.99,-90.8294,-141.43280000000001,120.6162,175,75
2026-05-11 17:56:48.426,5,-0.16,-1.63,-0.71,-30.1794,-34.8228,-87.6838,175,75
2026-05-11 17:56:48.426,5,-0.64,-1.22,-0.43,27.950599999999998,6.0972,-233.3338,175,75
2026-05-11 17:56:48.427,5,-0.49,-0.71,-0.24,62.2506,25.717200000000002,-246.53379999999999,175,75
2026-05-11 17:56:48.427,5,-0.17,-0.2,-0.06,63.1106,54.1272,-246.53379999999999,175,75
2026-05-11 17:56:48.427,5,-0.05,0.31,0.15,33.7906,87.8172,-246.53379999999999,175,75
2026-05-11 17:56:48.822,5,1.72,1.7,-0.32,-107.0994,171.5472,-246.53379999999999,175,75
2026-05-11 17:56:48.822,5,1.43,1.28,0.2,-47.2494,38.5372,-176.0038,175,75
2026-05-11 17:56:48.822,5,0.43,1.74,0.69,-44.5894,-23.1828,-116.6738,175,75
2026-05-11 17:56:48.822,5,0.03,1.21,0.72,-43.8294,-60.2128,-113.2638,175,75
2026-05-11 17:56:48.822,5,0.11,0.55,0.42,-14.3394,-78.3328,-87.9838,175,75
2026-05-11 17:56:48.822,5,0.39,0.05,0.03,45.8206,-78.6328,-4.1038,175,75
2026-05-11 17:56:48.822,5,0.45,-0.06,-0.24,113.9206,-70.7728,115.6562,175,75
2026-05-11 17:56:48.822,5,0.34,0.06,-0.36,165.50060000000002,-70.8028,224.4262,175,75
2026-05-11 17:56:48.822,5,0.26,0.1,-0.37,191.0406,-79.2428,253.7362,175,75
2026-05-11 17:56:48.822,5,0.17,0.03,-0.36,202.40060000000003,-93.76280000000001,253.7362,175,75
2026-05-11 17:56:48.822,5,0.23,-0.19,-0.37,213.90060000000003,-106.4928,253.7362,175,75
2026-05-11 17:56:48.823,5,0.44,-0.39,-0.48,233.88060000000002,-69.31280000000001,253.7362,175,75
2026-05-11 17:56:48.823,5,-0.55,-0.25,-0.06,242.7606,23.1072,253.7362,175,75
2026-05-11 17:56:48.823,5,-0.86,-0.06,0.36,211.4606,40.4972,166.6962,175,75
2026-05-11 17:56:48.823,5,-0.36,0.11,1.0,108.7406,123.90719999999999,-60.99379999999999,175,75
2026-05-11 17:56:48.823,5,0.87,-0.03,1.59,43.300599999999996,248.1572,-153.5838,175,75
2026-05-11 17:56:48.823,5,0.49,0.25,2.0,-47.6494,248.1572,-246.53379999999999,175,75
2026-05-11 17:56:48.823,5,2.0,1.32,2.0,-246.49939999999998,68.62719999999999,-246.53379999999999,175,75
2026-05-11 17:56:48.823,5,2.0,0.33,2.0,-247.81939999999997,248.1572,-246.53379999999999,175,75
2026-05-11 17:56:48.823,5,1.71,-0.88,2.0,-216.12939999999998,248.1572,-72.3438,175,75
2026-05-11 17:56:48.823,5,-0.85,-0.95,2.0,-13.609399999999999,248.1572,154.6962,175,75
2026-05-11 17:56:48.823,5,-2.0,0.47,2.0,105.5906,-49.9328,112.2062,175,75
2026-05-11 17:56:48.823,5,-2.0,0.47,2.0,37.8306,-252.1128,39.2462,175,75
2026-05-11 17:56:48.823,5,-1.36,0.13,2.0,-12.789399999999999,-252.1128,39.9062,175,75
2026-05-11 17:56:48.823,5,0.07,-0.19,1.68,-16.889400000000002,-252.1128,99.3262,175,75
2026-05-11 17:56:48.823,5,0.82,-0.25,0.92,-9.7594,-252.1128,179.5462,175,75
2026-05-11 17:56:48.823,5,-0.97,-0.42,-1.05,-49.3694,234.1272,61.7962,175,75
2026-05-11 17:56:48.824,5,-1.9,-0.36,-0.81,-39.0394,122.2772,-40.623799999999996,175,75
2026-05-11 17:56:48.824,5,-2.0,-0.16,-1.12,9.6906,-149.7228,-246.53379999999999,175,75
2026-05-11 17:56:48.908,5,0.7,0.42,-1.46,59.7006,-175.1028,-246.53379999999999,175,75
2026-05-11 17:56:48.909,5,0.04,0.35,-0.57,22.520599999999998,-98.98280000000001,-181.1638,175,75
2026-05-11 17:56:48.909,5,-0.3,0.15,0.04,-26.6294,-27.9328,-62.99379999999999,175,75
2026-05-11 17:56:48.909,5,0.57,0.3,0.29,-114.5894,191.0772,77.8262,175,75
2026-05-11 17:56:48.923,5,2.0,1.76,0.98,-247.81939999999997,248.1572,40.3962,175,75
2026-05-11 17:56:48.934,5,0.64,0.82,1.89,-247.81939999999997,49.8472,253.7362,175,75
2026-05-11 17:56:48.973,5,0.26,-0.02,2.0,-247.81939999999997,248.1572,253.7362,175,75
2026-05-11 17:56:48.978,5,-2.0,-2.0,2.0,147.34060000000002,242.5572,-116.4838,175,75
2026-05-11 17:56:48.998,5,-2.0,-1.59,2.0,190.8906,57.8772,-151.0138,175,75
2026-05-11 17:56:48.998,5,-2.0,-0.72,2.0,186.37060000000002,-184.1028,-220.7638,175,75
2026-05-11 17:56:49.013,5,-2.0,-0.18,2.0,156.5406,-252.1128,-246.53379999999999,175,75
2026-05-11 17:56:49.013,5,-1.31,0.12,1.91,131.2106,-252.1128,-230.5638,175,75
2026-05-11 17:56:49.026,5,0.06,0.28,1.36,125.4306,-252.1128,-185.6038,175,75
2026-05-11 17:56:49.041,5,0.75,0.54,0.76,131.40060000000003,-252.1128,-166.2538,175,75
2026-05-11 17:56:49.052,5,2.0,1.11,-0.6,153.59060000000002,-252.1128,-41.9638,175,75
2026-05-11 17:56:49.052,5,2.0,1.8,-1.58,165.53060000000002,-21.052799999999998,253.7362,175,75
2026-05-11 17:56:49.064,5,1.32,0.98,-0.83,135.93060000000003,132.3972,245.6562,175,75
2026-05-11 17:56:49.074,5,-0.46,0.79,-0.38,95.7406,113.60719999999999,121.0462,175,75
2026-05-11 17:56:49.076,5,-0.95,0.54,-0.16,59.7606,40.8872,14.146199999999999,175,75
2026-05-11 17:56:49.109,5,1.14,-0.13,-0.93,96.0106,-78.7728,80.2362,175,75
2026-05-11 17:56:49.120,5,0.91,0.08,-0.89,118.8506,-37.9928,168.2262,175,75
2026-05-11 17:56:49.131,5,0.16,0.16,-0.65,118.6506,-23.7728,192.8762,175,75
2026-05-11 17:56:49.131,5,-0.41,0.1,-0.42,106.28059999999999,-39.2428,167.21620000000001,175,75
2026-05-11 17:56:49.142,5,-0.71,0.02,-0.24,91.4006,-71.0528,118.9462,175,75
2026-05-11 17:56:49.152,5,-0.79,-0.02,-0.12,76.6306,-106.0828,66.6262,175,75
2026-05-11 17:56:49.164,5,-0.65,-0.05,-0.04,60.8306,-133.9028,19.9862,175,75
2026-05-11 17:56:49.178,5,-0.27,-0.05,-0.0,42.8506,-131.83280000000002,-12.0738,175,75
2026-05-11 17:56:49.191,5,0.11,-0.13,-0.04,24.900599999999997,-96.65280000000001,-19.793799999999997,175,75
2026-05-11 17:56:49.191,5,0.2,-0.23,-0.19,18.6706,-56.6028,-1.7638000000000003,175,75
2026-05-11 17:56:49.202,5,0.13,-0.27,-0.29,17.3406,-23.4328,22.8462,175,75
2026-05-11 17:56:49.219,5,0.07,-0.3,-0.32,16.3106,5.9472,33.2162,175,75
2026-05-11 17:56:49.219,5,0.05,-0.48,-0.27,19.0306,32.7172,26.386200000000002,175,75
2026-05-11 17:56:49.235,5,0.15,-0.43,-0.25,28.0506,72.1772,23.4462,175,75
2026-05-11 17:56:49.256,5,0.63,-0.42,-0.04,40.7006,160.3872,4.3362,175,75
2026-05-11 17:56:49.270,5,0.44,-0.36,0.38,31.1006,161.7972,-16.683799999999998,175,75
2026-05-11 17:56:49.280,5,0.82,-0.31,1.85,-37.2894,-33.8928,-20.9438,175,75
2026-05-11 17:56:49.280,5,2.0,-0.0,1.86,-104.7794,-103.40280000000001,12.4262,175,75
2026-05-11 17:56:49.292,5,2.0,0.18,2.0,-177.84939999999997,127.4872,-20.5338,175,75
2026-05-11 17:56:49.314,5,-0.22,-0.45,2.0,-210.68939999999998,248.1572,-246.53379999999999,175,75
2026-05-11 17:56:49.327,5,-0.4,-0.62,2.0,-135.1794,248.1572,-246.53379999999999,175,75
2026-05-11 17:56:49.340,5,-0.83,-0.68,2.0,-78.3694,248.1572,-246.53379999999999,175,75
2026-05-11 17:56:49.340,5,-2.0,-0.73,2.0,-19.369400000000002,229.0172,-237.5038,175,75
2026-05-11 17:56:49.355,5,-2.0,-0.47,2.0,23.3506,85.04719999999999,-106.8438,175,75
2026-05-11 17:56:49.367,5,-2.0,0.07,2.0,34.8806,-71.7728,-57.1738,175,75
2026-05-11 17:56:49.380,5,-2.0,0.57,2.0,22.2806,-215.30280000000002,-54.4938,175,75
2026-05-11 17:56:49.390,5,-1.24,0.72,2.0,9.970600000000001,-252.1128,-7.1638,175,75
2026-05-11 17:56:49.390,5,-0.01,0.5,2.0,3.6306000000000003,-252.1128,53.4362,175,75
2026-05-11 17:56:49.401,5,0.72,0.21,2.0,-0.4693999999999998,-252.1128,101.5762,175,75
2026-05-11 17:56:49.414,5,1.07,-0.0,1.72,-8.7594,-252.1128,151.71620000000001,175,75
2026-05-11 17:56:49.426,5,0.83,-0.17,1.1,-24.689400000000003,-252.1128,193.1162,175,75
2026-05-11 17:56:49.439,5,1.21,-0.35,0.49,-32.769400000000005,-252.1128,211.3062,175,75
2026-05-11 17:56:49.451,5,2.0,-0.33,-0.63,-67.4994,45.9872,-35.5738,175,75
2026-05-11 17:56:49.462,5,0.69,-0.15,0.06,-83.6594,113.0872,-141.7938,175,75
2026-05-11 17:56:49.472,5,0.05,0.09,0.59,-80.10940000000001,125.7772,-217.5738,175,75
2026-05-11 17:56:49.484,5,-0.14,0.25,0.7,-72.3094,135.66719999999998,-246.53379999999999,175,75
2026-05-11 17:56:49.499,5,-0.04,0.21,0.69,-45.199400000000004,55.7572,-246.53379999999999,175,75
2026-05-11 17:56:49.510,5,0.27,0.36,0.61,-5.269399999999999,-83.12280000000001,-197.9538,175,75
2026-05-11 17:56:49.510,5,1.08,0.38,0.27,25.0806,-139.24280000000002,-72.9838,175,75
2026-05-11 17:56:49.521,5,1.31,0.27,-0.26,65.59060000000001,-113.15280000000001,52.126200000000004,175,75
2026-05-11 17:56:49.562,5,0.75,0.38,-0.6,96.1006,-75.9128,133.6962,175,75
2026-05-11 17:56:49.562,5,0.17,0.41,-0.7,106.1906,-67.59280000000001,162.4262,175,75
2026-05-11 17:56:49.574,5,-0.41,0.23,-0.67,113.89059999999999,-96.9428,162.5862,175,75
2026-05-11 17:56:49.574,5,-0.84,0.07,-0.6,128.85060000000001,-162.2028,144.4862,175,75
2026-05-11 17:56:49.592,5,-1.05,-0.0,-0.53,140.2906,-249.71280000000002,120.0762,175,75
2026-05-11 17:56:49.609,5,-0.84,-0.01,-0.38,137.2406,-252.1128,103.9462,175,75
2026-05-11 17:56:49.616,5,-0.18,0.01,-0.19,118.1006,-252.1128,100.0962,175,75
2026-05-11 17:56:49.622,5,0.04,0.01,0.01,86.89059999999999,-252.1128,89.4162,175,75
2026-05-11 17:56:49.633,5,-0.03,-0.04,0.1,48.0906,-231.8228,58.4562,175,75
2026-05-11 17:56:49.644,5,-0.09,-0.2,0.06,16.6206,-153.5428,17.2162,175,75
2026-05-11 17:56:49.654,5,-0.13,-0.35,-0.03,0.6206000000000003,-82.0728,-13.4638,175,75
2026-05-11 17:56:49.683,5,-0.08,-0.45,-0.15,0.4006000000000003,-23.1628,-18.5538,175,75
2026-05-11 17:56:49.684,5,0.01,-0.43,-0.24,10.0206,26.8172,-0.18380000000000019,175,75
2026-05-11 17:56:49.694,5,-0.08,-0.28,-0.16,15.1606,69.62719999999999,15.4362,175,75
2026-05-11 17:56:49.705,5,-0.19,-0.11,0.04,4.0506,107.5672,1.4261999999999997,175,75
2026-05-11 17:56:49.715,5,-0.07,0.04,0.17,-15.849400000000001,151.2972,-34.8338,175,75
2026-05-11 17:56:49.725,5,0.36,0.22,0.25,-42.7994,215.8772,-71.4338,175,75
2026-05-11 17:56:49.738,5,2.0,1.22,1.28,-150.5094,248.1572,72.3062,175,75
2026-05-11 17:56:49.749,5,2.0,0.87,1.38,-228.2694,248.1572,98.1362,175,75
2026-05-11 17:56:49.749,5,1.56,-0.21,2.0,-185.4794,248.1572,147.6962,175,75
2026-05-11 17:56:49.763,5,1.49,-0.84,2.0,-138.2894,248.1572,98.5762,175,75
2026-05-11 17:56:49.826,5,-2.0,-2.0,2.0,69.6906,248.1572,-97.8038,175,75
2026-05-11 17:56:49.826,5,-2.0,-1.08,2.0,119.8806,-30.9228,-142.1038,175,75
2026-05-11 17:56:49.835,5,-2.0,-0.37,2.0,150.2406,-252.1128,-193.7338,175,75
2026-05-11 17:56:49.852,5,-2.0,0.36,2.0,152.47060000000002,-252.1128,-207.1838,175,75
2026-05-11 17:56:49.852,5,-0.72,0.68,2.0,144.78060000000002,-252.1128,-159.5438,175,75
2026-05-11 17:56:49.865,5,0.51,0.74,1.35,134.38060000000002,-252.1128,-89.8938,175,75
2026-05-11 17:56:49.876,5,1.81,0.79,0.58,116.14059999999999,-252.1128,-9.7638,175,75
2026-05-11 17:56:49.876,5,2.0,0.41,-1.02,138.56060000000002,-252.1128,253.7362,175,75
2026-05-11 17:56:49.904,5,1.27,0.38,-1.14,51.5706,86.9172,253.7362,175,75
2026-05-11 17:56:49.912,5,-0.29,0.05,-0.74,-10.3094,139.7772,202.8362,175,75
2026-05-11 17:56:49.912,5,-1.27,-0.22,-0.52,-42.449400000000004,100.6472,83.3062,175,75
2026-05-11 17:56:49.931,5,-1.98,-0.47,-0.73,-42.8394,0.48719999999999986,-23.5038,175,75
2026-05-11 17:56:49.942,5,-1.96,-0.63,-0.89,-25.1994,-120.95280000000001,-129.3538,175,75
2026-05-11 17:56:49.942,5,-1.72,-0.6,-1.39,-2.1393999999999997,-220.9428,-236.3038,175,75
2026-05-11 17:56:49.953,5,-0.98,-0.34,-1.93,12.3206,-252.1128,-246.53379999999999,175,75
2026-05-11 17:56:49.964,5,0.03,0.03,-1.8,5.3506,-252.1128,-246.53379999999999,175,75
2026-05-11 17:56:49.989,5,-0.32,0.26,0.14,-126.0794,-66.76280000000001,-45.9138,175,75
2026-05-11 17:56:49.999,5,0.31,0.23,-0.27,-152.56939999999997,208.7172,14.1762,175,75
2026-05-11 17:56:49.999,5,0.55,0.4,-0.47,-150.40939999999998,248.1572,9.2362,175,75
2026-05-11 17:56:50.036,5,0.19,0.56,-0.28,-181.1094,248.1572,-56.9838,175,75
2026-05-11 17:56:50.036,5,2.0,1.68,0.51,-167.43939999999998,248.1572,83.7562,175,75
2026-05-11 17:56:50.047,5,2.0,2.0,2.0,-38.5394,-101.4928,253.7362,175,75
2026-05-11 17:56:50.058,5,1.38,0.36,2.0,-36.6694,-86.7228,253.7362,175,75
2026-05-11 17:56:50.065,5,2.0,-0.4,2.0,-61.96940000000001,112.87719999999999,253.7362,175,75
2026-05-11 17:56:50.090,5,-0.13,-1.53,2.0,-5.689399999999999,248.1572,253.7362,175,75
2026-05-11 17:56:50.091,5,-2.0,-1.7,2.0,6.810600000000001,248.1572,253.7362,175,75
2026-05-11 17:56:50.113,5,-2.0,-1.6,2.0,65.6606,40.2372,-241.0238,175,75
2026-05-11 17:56:50.126,5,-2.0,-1.18,2.0,87.2406,-176.05280000000002,-246.53379999999999,175,75
2026-05-11 17:56:50.136,5,-2.0,-0.61,2.0,91.1106,-252.1128,-246.53379999999999,175,75
2026-05-11 17:56:50.136,5,-0.65,-0.12,2.0,99.0106,-252.1128,-246.53379999999999,175,75
2026-05-11 17:56:50.147,5,0.5,0.52,1.86,114.7106,-252.1128,-246.53379999999999,175,75
2026-05-11 17:56:50.158,5,1.63,1.34,1.17,94.2306,-252.1128,-246.53379999999999,175,75
2026-05-11 17:56:50.170,5,2.0,1.55,-0.33,73.3606,-252.1128,-84.8738,175,75
2026-05-11 17:56:50.196,5,2.0,1.12,-0.19,65.9806,-72.2228,74.4662,175,75
2026-05-11 17:56:50.207,5,1.08,0.6,-0.34,58.690599999999996,33.1872,64.1362,175,75
2026-05-11 17:56:50.207,5,0.14,0.34,-0.14,57.6406,53.2072,35.6862,175,75
2026-05-11 17:56:50.219,5,-0.2,0.18,-0.2,56.980599999999995,40.5172,13.3562,175,75
2026-05-11 17:56:50.230,5,-0.25,0.07,-0.39,65.2206,3.2371999999999996,9.3962,175,75
2026-05-11 17:56:50.241,5,0.0,0.05,-0.63,82.2106,-34.8628,32.6062,175,75
2026-05-11 17:56:50.241,5,0.58,0.24,-0.71,92.8206,-42.5428,76.4562,175,75
2026-05-11 17:56:50.257,5,0.52,0.32,-0.64,85.7906,-15.6028,111.7262,175,75
2026-05-11 17:56:50.258,5,-0.02,0.28,-0.47,71.3706,-9.9828,117.6562,175,75
2026-05-11 17:56:50.281,5,-0.58,0.15,-0.11,38.690599999999996,-62.3528,71.3662,175,75
2026-05-11 17:56:50.281,5,-0.55,0.02,-0.06,30.150599999999997,-91.4128,42.1462,175,75
2026-05-11 17:56:50.292,5,-0.36,-0.05,-0.07,29.200599999999998,-107.8328,21.5362,175,75
2026-05-11 17:56:50.303,5,-0.17,-0.03,-0.11,29.900599999999997,-105.89280000000001,10.6862,175,75
2026-05-11 17:56:50.315,5,0.02,-0.03,-0.19,28.6806,-88.78280000000001,9.9662,175,75
2026-05-11 17:56:50.336,5,0.55,-0.12,-0.5,36.9206,-16.0128,62.0262,175,75
2026-05-11 17:56:50.376,5,0.61,-0.15,-0.61,45.6606,31.837200000000003,110.7462,175,75
2026-05-11 17:56:50.376,5,0.41,-0.14,-0.59,49.800599999999996,67.23719999999999,145.71620000000001,175,75
2026-05-11 17:56:50.410,5,-0.28,-0.09,-0.11,16.4106,93.7872,110.3162,175,75
2026-05-11 17:56:50.420,5,-0.46,-0.09,0.15,-1.8193999999999995,89.57719999999999,72.3662,175,75
2026-05-11 17:56:50.433,5,-0.4,-0.12,0.35,-16.7894,81.0272,42.4562,175,75
2026-05-11 17:56:50.433,5,-0.04,-0.18,0.5,-27.729400000000002,92.5572,31.4462,175,75
2026-05-11 17:56:50.448,5,0.51,-0.37,0.69,-28.619400000000002,148.6572,39.6862,175,75
2026-05-11 17:56:50.448,5,1.83,-0.51,0.71,-8.9994,248.1572,39.876200000000004,175,75
2026-05-11 17:56:50.460,5,2.0,-0.96,2.0,0.5906000000000002,248.1572,2.0161999999999995,175,75
2026-05-11 17:56:50.460,5,1.79,-1.14,2.0,-2.3093999999999997,248.1572,-156.4838,175,75
2026-05-11 17:56:50.460,5,1.06,-1.18,2.0,29.1606,248.1572,-246.53379999999999,175,75
2026-05-11 17:56:50.473,5,-1.34,-1.06,2.0,55.3506,248.1572,-246.53379999999999,175,75
2026-05-11 17:56:50.473,5,-2.0,-0.84,2.0,82.14059999999999,248.1572,-246.53379999999999,175,75
2026-05-11 17:56:50.481,5,-2.0,-0.33,2.0,97.0406,111.6972,-246.53379999999999,175,75
2026-05-11 17:56:50.506,5,-2.0,0.32,2.0,95.2206,-252.1128,-246.53379999999999,175,75
2026-05-11 17:56:50.507,5,-2.0,0.88,2.0,71.9506,-252.1128,-246.53379999999999,175,75
2026-05-11 17:56:50.528,5,0.91,1.24,2.0,99.1106,-252.1128,-175.1638,175,75
2026-05-11 17:56:50.543,5,2.0,1.44,1.36,109.3106,-214.7928,201.7762,175,75
2026-05-11 17:56:50.562,5,2.0,1.48,1.16,61.7606,-15.3128,253.7362,175,75
2026-05-11 17:56:50.575,5,0.23,0.62,0.78,-78.0794,78.2872,253.7362,175,75
2026-05-11 17:56:50.590,5,0.03,0.06,0.56,-119.6194,-23.1828,253.7362,175,75
2026-05-11 17:56:50.601,5,0.68,-0.53,0.48,-115.3394,-87.6328,253.7362,175,75
2026-05-11 17:56:50.611,5,0.64,-0.75,0.56,-80.10940000000001,-63.9628,194.4362,175,75
2026-05-11 17:56:50.611,5,0.14,-0.44,0.64,-62.0994,-37.6128,96.5762,175,75
2026-05-11 17:56:50.636,5,-0.36,-0.2,0.42,-57.8194,-35.5628,-39.123799999999996,175,75
2026-05-11 17:56:50.646,5,-0.29,-0.32,0.11,-34.519400000000005,-57.8028,-64.5138,175,75
2026-05-11 17:56:50.669,5,1.88,-0.24,-0.92,33.0506,-40.8728,-68.2038,175,75
2026-05-11 17:56:50.687,5,0.01,0.25,-0.88,80.2706,4.8572,0.21619999999999973,175,75
2026-05-11 17:56:50.698,5,-0.64,0.24,-0.56,83.9906,-72.76280000000001,-6.213800000000001,175,75
2026-05-11 17:56:50.711,5,-0.81,0.26,-0.53,83.9106,-157.99280000000002,-29.473799999999997,175,75
2026-05-11 17:56:50.711,5,-0.55,0.23,-0.46,80.8506,-227.6628,-44.1038,175,75
2026-05-11 17:56:50.735,5,0.24,0.18,0.13,52.8506,-225.8928,31.2862,175,75
2026-05-11 17:56:50.760,5,-0.22,-0.02,0.33,20.2106,-174.68280000000001,100.8762,175,75
2026-05-11 17:56:50.770,5,-0.38,-0.14,0.33,18.6806,-157.8628,114.4062,175,75
2026-05-11 17:56:50.770,5,-0.4,-0.23,0.32,26.2406,-140.9428,115.9362,175,75
2026-05-11 17:56:50.792,5,0.18,-0.28,0.19,41.9706,-76.3528,104.0962,175,75
2026-05-11 17:56:50.816,5,1.1,-0.03,0.05,47.730599999999995,150.8572,84.3662,175,75
2026-05-11 17:56:50.826,5,1.92,0.47,0.46,15.6506,248.1572,43.7062,175,75
2026-05-11 17:56:50.838,5,2.0,0.46,1.47,-48.2894,248.1572,-78.3638,175,75
2026-05-11 17:56:50.844,5,2.0,0.47,1.75,-128.21939999999998,248.1572,-133.9838,175,75
2026-05-11 17:56:50.857,5,2.0,0.66,2.0,-186.93939999999998,248.1572,135.4962,175,75
2026-05-11 17:56:50.872,5,1.33,-0.71,2.0,-174.7994,248.1572,173.1962,175,75
2026-05-11 17:56:50.895,5,-2.0,-1.76,2.0,-7.349399999999999,248.1572,74.89620000000001,175,75
2026-05-11 17:56:50.917,5,-2.0,-1.36,2.0,52.3606,-188.6028,-124.2838,175,75
2026-05-11 17:56:50.917,5,-2.0,-0.82,2.0,90.1706,-252.1128,-187.3238,175,75
2026-05-11 17:56:50.929,5,-1.49,-0.23,2.0,109.1706,-252.1128,-201.4038,175,75
2026-05-11 17:56:50.937,5,-0.15,0.19,1.67,116.8406,-252.1128,-178.5538,175,75
2026-05-11 17:56:50.944,5,0.68,0.52,0.89,112.3606,-252.1128,-152.8038,175,75
2026-05-11 17:56:50.969,5,2.0,0.74,-1.72,96.7606,-238.6328,145.2062,175,75
2026-05-11 17:56:50.979,5,1.89,0.43,-1.11,62.2406,-5.5028,139.3662,175,75
2026-05-11 17:56:50.979,5,0.13,0.1,-0.28,26.3706,40.047200000000004,91.9062,175,75
2026-05-11 17:56:50.991,5,-0.8,0.07,-0.38,-6.1693999999999996,15.2072,39.7562,175,75
2026-05-11 17:56:51.008,5,-1.66,-0.02,-0.52,-39.1894,-81.3328,-27.7838,175,75
2026-05-11 17:56:51.012,5,-1.63,-0.1,-1.38,-68.6994,-202.2928,-100.3138,175,75
2026-05-11 17:56:51.022,5,-1.04,-0.28,-2.0,-62.6194,-252.1128,-171.53379999999999,175,75
2026-05-11 17:56:51.032,5,-1.28,-0.21,-2.0,-30.309400000000004,-252.1128,-208.1538,175,75
2026-05-11 17:56:51.072,5,-0.86,0.19,-1.14,-33.2594,-252.1128,-209.7738,175,75
2026-05-11 17:56:51.096,5,0.02,-0.07,0.62,-86.6994,-32.1528,-152.7038,175,75
2026-05-11 17:56:51.106,5,0.34,0.05,0.15,-89.2594,115.9572,-101.8338,175,75
2026-05-11 17:56:51.107,5,0.97,0.28,-0.61,-75.7594,248.1572,-21.9438,175,75
2026-05-11 17:56:51.150,5,1.02,0.54,-0.86,-69.6794,248.1572,49.3562,175,75
2026-05-11 17:56:51.161,5,0.93,0.73,-0.68,-80.96940000000001,248.1572,84.7562,175,75
2026-05-11 17:56:51.174,5,0.32,1.0,-0.33,-123.6394,248.1572,55.736200000000004,175,75
2026-05-11 17:56:51.227,5,1.51,1.55,0.47,-203.0494,248.1572,-18.0738,175,75
2026-05-11 17:56:51.227,5,2.0,2.0,2.0,-247.81939999999997,35.7872,253.7362,175,75
2026-05-11 17:56:51.238,5,0.82,0.29,2.0,-216.6994,-102.34280000000001,253.7362,175,75
2026-05-11 17:56:51.238,5,0.91,-0.64,2.0,-170.6394,147.9572,253.7362,175,75
2026-05-11 17:56:51.250,5,-0.31,-1.52,1.95,-88.7894,248.1572,252.1662,175,75
2026-05-11 17:56:51.260,5,-1.36,-2.0,2.0,19.1606,248.1572,145.7762,175,75
2026-05-11 17:56:51.260,5,-2.0,-1.85,2.0,72.39059999999999,248.1572,8.0862,175,75
2026-05-11 17:56:51.271,5,-2.0,-1.78,2.0,55.620599999999996,207.5872,-141.4438,175,75
2026-05-11 17:56:51.271,5,-2.0,-1.36,2.0,66.3706,-165.6228,-246.53379999999999,175,75
2026-05-11 17:56:51.282,5,-1.59,-0.75,2.0,88.9006,-252.1128,-246.53379999999999,175,75
2026-05-11 17:56:51.282,5,-0.57,-0.14,2.0,97.5606,-252.1128,-246.53379999999999,175,75
2026-05-11 17:56:51.292,5,0.22,0.35,1.66,95.3706,-252.1128,-246.53379999999999,175,75
2026-05-11 17:56:51.303,5,0.77,0.8,0.9,90.8206,-252.1128,-246.53379999999999,175,75
2026-05-11 17:56:51.303,5,2.0,1.71,-0.66,104.6206,-252.1128,-84.2838,175,75
2026-05-11 17:56:51.313,5,2.0,1.41,-0.92,106.1306,-41.1728,135.7862,175,75
2026-05-11 17:56:51.325,5,1.28,1.04,-0.76,97.2706,80.8972,154.2962,175,75
2026-05-11 17:56:51.336,5,0.12,0.75,-0.48,78.2406,93.34719999999999,106.39620000000001,175,75
2026-05-11 17:56:51.337,5,-0.31,0.38,-0.34,62.8606,71.3672,72.4762,175,75
2026-05-11 17:56:51.363,5,-0.45,0.16,-0.46,60.5306,25.2572,55.1062,175,75
2026-05-11 17:56:51.380,5,-0.45,0.01,-0.64,76.6606,-33.8928,56.0662,175,75
2026-05-11 17:56:51.380,5,-0.45,0.14,-0.81,92.9106,-95.9928,64.6062,175,75
2026-05-11 17:56:51.393,5,-0.52,0.36,-0.85,87.7306,-151.1728,59.7662,175,75
2026-05-11 17:56:51.408,5,-0.28,0.41,-0.6,79.5506,-188.46280000000002,47.4562,175,75
2026-05-11 17:56:51.408,5,-0.14,0.26,-0.3,65.0806,-186.5728,42.306200000000004,175,75
2026-05-11 17:56:51.408,5,-0.27,0.12,-0.04,55.5806,-172.6228,32.0762,175,75
2026-05-11 17:56:51.429,5,-0.35,-0.07,0.1,58.1606,-154.3428,22.456200000000003,175,75
2026-05-11 17:56:51.429,5,-0.32,-0.28,0.13,76.5406,-132.1128,26.5562,175,75
2026-05-11 17:56:51.454,5,-0.24,-0.39,0.04,103.6806,-108.70280000000001,52.236200000000004,175,75
2026-05-11 17:56:51.460,5,-0.05,-0.33,-0.16,128.1406,-83.6028,93.4862,175,75
2026-05-11 17:56:51.485,5,0.31,-0.18,-0.51,135.53060000000002,-41.0528,135.5262,175,75
2026-05-11 17:56:51.485,5,0.52,-0.13,-0.77,132.5106,28.2472,166.9962,175,75
2026-05-11 17:56:51.504,5,0.35,-0.19,-0.79,114.78059999999999,103.0672,162.9062,175,75
2026-05-11 17:56:51.515,5,0.1,-0.4,-0.51,98.5606,156.0472,144.1762,175,75
2026-05-11 17:56:51.515,5,0.23,-0.44,-0.16,81.5006,248.1572,84.8162,175,75
2026-05-11 17:56:51.526,5,0.44,-0.35,-0.07,70.9006,248.1572,43.2262,175,75
2026-05-11 17:56:51.526,5,-0.04,-0.35,0.19,55.300599999999996,248.1572,-56.053799999999995,175,75
2026-05-11 17:56:51.574,5,1.15,0.18,2.0,-247.81939999999997,248.1572,-246.53379999999999,175,75
2026-05-11 17:56:51.578,5,0.11,-0.18,2.0,-247.81939999999997,248.1572,-246.53379999999999,175,75
2026-05-11 17:56:51.578,5,-0.8,-0.4,2.0,-176.5194,248.1572,-246.53379999999999,175,75
2026-05-11 17:56:51.589,5,-2.0,-0.05,2.0,6.240600000000001,147.3272,-164.8838,175,75
2026-05-11 17:56:51.606,5,-2.0,0.34,2.0,56.6506,-185.6128,1.8861999999999999,175,75
2026-05-11 17:56:51.629,5,-0.62,0.59,2.0,72.4806,-252.1128,184.0762,175,75
2026-05-11 17:56:51.641,5,0.65,0.47,2.0,40.1406,-252.1128,253.7362,175,75
2026-05-11 17:56:51.641,5,1.42,0.24,1.89,-4.699399999999999,-252.1128,253.7362,175,75
2026-05-11 17:56:51.660,5,1.41,-0.08,1.26,-40.5294,-252.1128,253.7362,175,75
2026-05-11 17:56:51.660,5,2.0,-0.59,0.2,-48.5494,-249.5028,253.7362,175,75
2026-05-11 17:56:51.671,5,2.0,-0.91,-0.54,-55.6594,-3.8828,253.7362,175,75
2026-05-11 17:56:51.682,5,0.64,-0.73,-0.09,-80.3894,80.9172,188.0062,175,75
2026-05-11 17:56:51.694,5,-0.15,-0.64,0.33,-99.9894,74.07719999999999,100.1362,175,75
2026-05-11 17:56:51.704,5,-0.65,-0.57,0.53,-98.2794,32.5272,-2.8238,175,75
2026-05-11 17:56:51.718,5,-0.59,-0.26,0.74,-82.1494,-8.7328,-135.3538,175,75
2026-05-11 17:56:51.730,5,-0.21,0.16,0.93,-77.3194,-11.9628,-246.53379999999999,175,75
2026-05-11 17:56:51.740,5,0.1,0.52,0.95,-83.2094,9.3472,-246.53379999999999,175,75
2026-05-11 17:56:51.751,5,1.0,0.58,0.62,-78.2794,6.9272,-246.53379999999999,175,75
2026-05-11 17:56:51.751,5,2.0,0.44,-0.11,-21.529400000000003,22.787200000000002,-219.9438,175,75
2026-05-11 17:56:51.775,5,0.29,0.37,-0.3,112.0806,25.787200000000002,42.1662,175,75
2026-05-11 17:56:51.790,5,-0.35,0.31,-0.21,136.16060000000002,-6.2328,75.9962,175,75
2026-05-11 17:56:51.801,5,-0.95,0.01,-0.36,158.40060000000003,-168.8628,109.4562,175,75
2026-05-11 17:56:51.811,5,-0.87,-0.13,-0.61,181.43060000000003,-252.1128,133.1062,175,75
2026-05-11 17:56:51.835,5,0.21,0.02,-0.37,222.2106,-252.1128,247.5862,175,75
2026-05-11 17:56:51.845,5,0.62,0.21,-0.25,194.37060000000002,-252.1128,253.7362,175,75
2026-05-11 17:56:51.866,5,-0.19,-0.14,-0.13,106.8206,-121.28280000000001,177.0462,175,75
2026-05-11 17:56:51.876,5,-0.62,-0.28,0.01,69.4306,-48.5028,84.1362,175,75
2026-05-11 17:56:51.887,5,-0.56,-0.38,0.1,37.6506,2.8271999999999995,16.7062,175,75
2026-05-11 17:56:51.898,5,-0.3,-0.47,0.09,18.0406,51.6772,-12.283800000000001,175,75
2026-05-11 17:56:51.903,5,0.04,-0.5,0.05,7.810600000000001,104.90719999999999,-25.0838,175,75
2026-05-11 17:56:51.921,5,0.36,-0.41,0.06,0.2006000000000001,177.7972,-31.513799999999996,175,75
2026-05-11 17:56:51.921,5,0.48,-0.22,0.23,-12.0994,248.1572,-33.4638,175,75
2026-05-11 17:56:51.967,5,0.96,0.06,0.62,-36.2294,248.1572,-27.953799999999998,175,75
2026-05-11 17:56:51.992,5,2.0,0.26,1.77,-68.0594,248.1572,-107.8238,175,75
2026-05-11 17:56:52.004,5,2.0,1.06,2.0,-119.4994,248.1572,-157.9538,175,75
2026-05-11 17:56:52.015,5,2.0,0.56,2.0,-169.12939999999998,233.06719999999999,-216.5638,175,75
2026-05-11 17:56:52.063,5,-2.0,-1.13,2.0,36.9206,142.4672,55.6362,175,75
2026-05-11 17:56:52.067,5,-2.0,-0.4,2.0,66.0306,-166.8928,69.2362,175,75
2026-05-11 17:56:52.088,5,-2.0,-0.12,2.0,33.6406,-252.1128,-13.403800000000002,175,75
2026-05-11 17:56:52.088,5,-1.67,-0.22,2.0,11.3506,-252.1128,-54.763799999999996,175,75
2026-05-11 17:56:52.098,5,-0.09,-0.37,1.52,28.2806,-252.1128,-27.2538,175,75
2026-05-11 17:56:52.121,5,2.0,1.3,-2.0,89.6306,22.0772,253.7362,175,75
2026-05-11 17:56:52.132,5,-1.39,0.32,-0.59,22.1706,134.3772,123.4362,175,75
2026-05-11 17:56:52.155,5,-2.0,0.07,-0.58,-11.359399999999999,9.1172,-32.123799999999996,175,75
2026-05-11 17:56:52.166,5,-2.0,-0.26,-1.01,-14.4294,-99.5228,-172.1238,175,75
2026-05-11 17:56:52.166,5,-1.72,-0.58,-1.83,20.3006,-200.6928,-246.53379999999999,175,75
2026-05-11 17:56:52.176,5,-1.2,-0.63,-2.0,75.7706,-252.1128,-246.53379999999999,175,75
2026-05-11 17:56:52.187,5,0.19,0.51,-0.92,49.5806,-252.1128,-246.53379999999999,175,75
2026-05-11 17:56:52.204,5,0.23,0.5,0.0,-36.4394,-132.5628,-169.3538,175,75
2026-05-11 17:56:52.215,5,0.14,0.41,0.42,-116.6194,24.3372,-96.3138,175,75
2026-05-11 17:56:52.226,5,0.8,0.45,-0.01,-209.6994,248.1572,-7.053800000000001,175,75
2026-05-11 17:56:52.236,5,0.32,0.98,0.35,-247.81939999999997,248.1572,-85.8338,175,75
2026-05-11 17:56:52.248,5,2.0,2.0,2.0,-202.55939999999998,242.97719999999998,253.7362,175,75
2026-05-11 17:56:52.248,5,0.18,2.0,2.0,-228.1394,-35.3028,253.7362,175,75
2026-05-11 17:56:52.259,5,-0.25,-0.38,2.0,-189.9594,11.1272,253.7362,175,75
2026-05-11 17:56:52.272,5,1.07,-0.89,2.0,-169.5194,248.1572,172.6662,175,75
2026-05-11 17:56:52.272,5,0.71,-2.0,2.0,-131.09939999999997,248.1572,49.5262,175,75
2026-05-11 17:56:52.284,5,-1.02,-2.0,2.0,-100.1994,248.1572,93.2362,175,75
2026-05-11 17:56:52.294,5,-2.0,-2.0,2.0,3.9206000000000003,248.1572,92.0762,175,75
2026-05-11 17:56:52.294,5,-2.0,-2.0,2.0,117.9806,48.2572,-11.863800000000001,175,75
2026-05-11 17:56:52.305,5,-2.0,-1.59,2.0,166.40060000000003,-252.1128,-187.6638,175,75
2026-05-11 17:56:52.324,5,-2.0,-0.78,2.0,154.16060000000002,-252.1128,-246.53379999999999,175,75
2026-05-11 17:56:52.324,5,-1.22,-0.25,1.83,120.3406,-252.1128,-246.53379999999999,175,75
2026-05-11 17:56:52.353,5,2.0,1.81,-0.95,124.1206,-234.5028,-114.9138,175,75
2026-05-11 17:56:52.374,5,0.28,1.2,-0.12,64.06060000000001,134.44719999999998,11.636199999999999,175,75
2026-05-11 17:56:52.390,5,-0.68,0.77,-0.06,34.8106,114.0372,-79.9738,175,75
2026-05-11 17:56:52.393,5,-0.94,0.55,-0.28,18.4306,48.7772,-163.4338,175,75
2026-05-11 17:56:52.465,5,-0.49,0.19,-0.76,36.1306,-28.372799999999998,-189.6238,175,75
2026-05-11 17:56:52.465,5,0.77,0.11,-1.18,87.5006,-72.00280000000001,-99.3938,175,75
2026-05-11 17:56:52.480,5,0.15,0.49,-0.58,108.5406,-87.73280000000001,111.0262,175,75
2026-05-11 17:56:52.506,5,-0.36,0.23,-0.21,77.8406,-154.21280000000002,164.0662,175,75
2026-05-11 17:56:52.539,5,-0.39,0.01,0.03,67.7906,-184.7228,153.1662,175,75
2026-05-11 17:56:52.539,5,-0.31,-0.1,0.05,71.8406,-173.4128,136.7062,175,75
2026-05-11 17:56:52.551,5,-0.19,-0.18,0.01,84.6706,-145.9728,122.9362,175,75
2026-05-11 17:56:52.562,5,-0.1,-0.21,-0.12,99.39059999999999,-107.90280000000001,113.4562,175,75
2026-05-11 17:56:52.562,5,0.06,-0.17,-0.45,107.9306,-20.1828,96.7562,175,75
2026-05-11 17:56:52.575,5,0.05,-0.15,-0.54,99.0206,27.8172,87.03620000000001,175,75
2026-05-11 17:56:52.585,5,-0.04,-0.15,-0.48,79.8706,66.3372,75.8562,175,75
2026-05-11 17:56:52.599,5,-0.12,-0.16,-0.28,58.9206,94.29719999999999,67.2762,175,75
2026-05-11 17:56:52.612,5,-0.08,-0.25,-0.12,45.2906,117.9472,68.1562,175,75
2026-05-11 17:56:52.612,5,0.07,-0.29,-0.07,38.6806,149.6472,60.5462,175,75
2026-05-11 17:56:52.634,5,1.1,-0.51,-0.37,37.4306,248.1572,-70.60379999999999,175,75
2026-05-11 17:56:52.634,5,-0.88,-0.59,1.13,4.3806,248.1572,-246.53379999999999,175,75
2026-05-11 17:56:52.645,5,2.0,-0.64,2.0,-57.9194,-101.73280000000001,-246.53379999999999,175,75
2026-05-11 17:56:52.645,5,2.0,-0.1,2.0,-154.6394,53.6572,-243.0838,175,75
2026-05-11 17:56:52.670,5,2.0,0.04,2.0,-195.80939999999998,248.1572,-197.3138,175,75
2026-05-11 17:56:52.670,5,1.35,0.05,2.0,-224.46939999999998,248.1572,-227.0138,175,75
2026-05-11 17:56:52.680,5,-0.54,-0.51,2.0,-189.80939999999998,248.1572,-246.53379999999999,175,75
2026-05-11 17:56:52.693,5,-1.79,-0.57,2.0,-56.8594,248.1572,-246.53379999999999,175,75
2026-05-11 17:56:52.706,5,-2.0,-0.1,2.0,22.540599999999998,248.1572,-246.53379999999999,175,75
2026-05-11 17:56:52.706,5,-2.0,-0.03,2.0,52.5606,74.60719999999999,-207.5738,175,75
2026-05-11 17:56:52.718,5,-2.0,0.35,2.0,62.4106,-147.83280000000002,-157.0938,175,75
2026-05-11 17:56:52.718,5,-2.0,0.74,2.0,49.8506,-252.1128,-81.9338,175,75
2026-05-11 17:56:52.734,5,-1.19,0.76,2.0,62.1406,-252.1128,44.2062,175,75
2026-05-11 17:56:52.734,5,0.15,0.58,2.0,96.6906,-252.1128,165.0162,175,75
2026-05-11 17:56:52.745,5,1.27,0.47,2.0,101.2406,-252.1128,253.7362,175,75
2026-05-11 17:56:52.749,5,1.7,0.36,1.83,73.2706,-252.1128,253.7362,175,75
2026-05-11 17:56:52.761,5,1.75,0.19,1.23,40.5206,-252.1128,253.7362,175,75
2026-05-11 17:56:52.772,5,1.89,-0.08,0.68,7.3506,-213.6028,253.7362,175,75
2026-05-11 17:56:52.783,5,2.0,-0.75,-0.44,-19.4894,-56.1428,253.7362,175,75
2026-05-11 17:56:52.783,5,0.97,-0.94,-0.4,-49.0894,75.23719999999999,253.7362,175,75
2026-05-11 17:56:52.792,5,-0.27,-0.85,0.07,-81.3794,85.12719999999999,202.4962,175,75
2026-05-11 17:56:52.804,5,-0.81,-0.81,0.36,-99.2494,60.9872,90.0462,175,75
2026-05-11 17:56:52.814,5,-1.03,-0.74,0.48,-95.2894,22.0772,-38.7138,175,75
2026-05-11 17:56:52.844,5,0.06,0.28,0.53,-52.2394,-5.0528,-246.53379999999999,175,75
2026-05-11 17:56:52.870,5,2.0,0.87,-0.46,16.3406,36.9172,-214.6038,175,75
2026-05-11 17:56:52.870,5,1.21,0.74,-0.38,66.5406,47.2072,-76.8338,175,75
2026-05-11 17:56:52.898,5,-0.57,0.21,-0.22,108.1906,-32.732800000000005,-39.0438,175,75
2026-05-11 17:56:52.904,5,-0.78,-0.0,-0.28,126.0806,-108.9328,-17.683799999999998,175,75
2026-05-11 17:56:52.915,5,-0.72,-0.11,-0.41,151.5406,-187.8228,17.6862,175,75
2026-05-11 17:56:52.920,5,-0.45,-0.05,-0.5,176.63060000000002,-252.1128,70.8862,175,75
2026-05-11 17:56:52.937,5,0.07,0.19,-0.4,178.3606,-252.1128,144.4362,175,75
2026-05-11 17:56:52.947,5,0.28,0.28,-0.22,157.0106,-252.1128,213.6162,175,75
2026-05-11 17:56:52.962,5,0.27,0.2,-0.12,127.9906,-252.1128,253.7362,175,75
2026-05-11 17:56:52.975,5,-0.13,-0.14,-0.04,80.3206,-139.21280000000002,237.2362,175,75
2026-05-11 17:56:52.986,5,-0.38,-0.28,0.08,66.7606,-76.2728,179.4462,175,75
2026-05-11 17:56:53.021,5,-0.07,-0.42,0.26,62.1606,79.74719999999999,25.706200000000003,175,75
2026-05-11 17:56:53.021,5,0.2,-0.23,0.43,50.370599999999996,154.6372,-4.0938,175,75
2026-05-11 17:56:53.032,5,1.05,-0.07,0.75,26.7106,248.1572,-12.2438,175,75
2026-05-11 17:56:53.042,5,2.0,0.09,1.49,-5.1494,248.1572,-89.2938,175,75
2026-05-11 17:56:53.069,5,2.0,1.02,2.0,-153.30939999999998,248.1572,-174.7138,175,75
2026-05-11 17:56:53.080,5,2.0,-0.11,2.0,-183.9494,248.1572,-121.71379999999999,175,75
2026-05-11 17:56:53.090,5,0.37,-0.93,2.0,-144.33939999999998,248.1572,-135.0938,175,75
2026-05-11 17:56:53.090,5,-2.0,-1.43,2.0,-22.3394,248.1572,-115.4138,175,75
2026-05-11 17:56:53.104,5,-2.0,-0.84,2.0,60.3206,248.1572,-44.1138,175,75
2026-05-11 17:56:53.114,5,-2.0,-0.21,2.0,48.690599999999996,-92.92280000000001,-20.6638,175,75
2026-05-11 17:56:53.125,5,-2.0,-0.01,2.0,7.8306000000000004,-252.1128,-44.7138,175,75
2026-05-11 17:56:53.137,5,-1.5,-0.16,2.0,-10.199399999999999,-252.1128,-25.183799999999998,175,75
2026-05-11 17:56:53.150,5,-0.11,-0.2,1.76,-4.8393999999999995,-252.1128,30.5062,175,75
2026-05-11 17:56:53.150,5,0.64,-0.03,0.94,-8.289399999999999,-252.1128,65.6062,175,75
2026-05-11 17:56:53.162,5,1.29,0.05,0.01,-18.389400000000002,-252.1128,69.5062,175,75
2026-05-11 17:56:53.174,5,2.0,0.53,-2.0,-0.0693999999999999,-94.1928,189.0762,175,75
2026-05-11 17:56:53.186,5,1.17,-0.15,-1.44,9.2006,106.62719999999999,127.53620000000001,175,75
2026-05-11 17:56:53.216,5,-2.0,-0.1,-1.16,-34.809400000000004,-141.08280000000002,-204.8338,175,75
2026-05-11 17:56:53.226,5,-1.8,-0.31,-1.9,18.0106,-252.1128,-246.53379999999999,175,75
2026-05-11 17:56:53.240,5,-1.4,-0.27,-2.0,96.14059999999999,-252.1128,-246.53379999999999,175,75
2026-05-11 17:56:53.240,5,-0.12,0.78,-1.96,100.0406,-252.1128,-246.53379999999999,175,75
2026-05-11 17:56:53.251,5,0.13,0.83,-0.49,19.6206,-252.1128,-176.2238,175,75
2026-05-11 17:56:53.272,5,0.01,0.28,0.46,-60.1394,-105.2728,-72.60379999999999,175,75
2026-05-11 17:56:53.284,5,-0.05,0.09,0.66,-115.0494,78.3972,-5.5738,175,75
2026-05-11 17:56:53.284,5,0.58,0.13,0.39,-145.9594,248.1572,41.556200000000004,175,75
2026-05-11 17:56:53.296,5,1.13,0.37,-0.11,-167.2394,248.1572,95.6562,175,75
2026-05-11 17:56:53.307,5,0.5,0.58,-0.39,-186.80939999999998,248.1572,96.6162,175,75
2026-05-11 17:56:53.320,5,0.82,0.9,0.24,-238.99939999999998,248.1572,-5.8238,175,75
2026-05-11 17:56:53.331,5,0.09,0.83,2.0,-195.77939999999998,-90.9428,253.7362,175,75
2026-05-11 17:56:53.353,5,-0.28,-1.65,2.0,-93.2294,248.1572,253.7362,175,75
2026-05-11 17:56:53.362,5,-1.57,-2.0,2.0,-39.2494,248.1572,52.7862,175,75
2026-05-11 17:56:53.374,5,-2.0,-1.74,2.0,2.4906,248.1572,-101.2938,175,75
2026-05-11 17:56:53.393,5,-2.0,-2.0,2.0,54.1706,248.1572,-165.7438,175,75
2026-05-11 17:56:53.427,5,-2.0,-0.88,2.0,126.8806,-252.1128,-246.53379999999999,175,75
2026-05-11 17:56:53.427,5,-1.54,-0.22,1.87,131.3306,-252.1128,-246.53379999999999,175,75
2026-05-11 17:56:53.439,5,-0.53,0.36,1.34,144.4506,-252.1128,-246.53379999999999,175,75
2026-05-11 17:56:53.449,5,0.4,1.28,0.56,182.66060000000002,-252.1128,-246.53379999999999,175,75
2026-05-11 17:56:53.455,5,2.0,2.0,-0.54,230.69060000000002,-252.1128,-242.8238,175,75
2026-05-11 17:56:53.470,5,2.0,2.0,0.17,118.6606,-189.8828,77.1062,175,75
2026-05-11 17:56:53.486,5,-0.36,1.02,-0.27,-10.8094,-42.4428,-12.603800000000001,175,75
2026-05-11 17:56:53.495,5,-0.58,0.47,-0.7,-15.809399999999998,-67.9128,-75.96379999999999,175,75
2026-05-11 17:56:53.508,5,-0.3,-0.04,-1.16,36.3106,-108.5228,-77.3738,175,75
2026-05-11 17:56:53.520,5,0.04,-0.15,-1.53,122.3706,-147.2528,-14.333800000000002,175,75
2026-05-11 17:56:53.530,5,0.31,0.26,-1.39,183.6406,-167.52280000000002,69.3662,175,75
2026-05-11 17:56:53.552,5,-0.11,0.47,-0.5,189.1406,-181.18280000000001,187.6362,175,75
2026-05-11 17:56:53.552,5,-0.2,0.23,-0.21,168.6106,-186.3128,213.9262,175,75
2026-05-11 17:56:53.564,5,-0.29,0.09,-0.06,156.90060000000003,-171.5028,224.4362,175,75
2026-05-11 17:56:53.579,5,-0.23,-0.03,0.01,146.62060000000002,-138.99280000000002,211.5262,175,75
2026-05-11 17:56:53.590,5,-0.29,-0.33,-0.11,134.4206,-27.6028,133.0762,175,75
2026-05-11 17:56:53.601,5,-0.37,-0.36,-0.18,125.4206,22.3072,84.1762,175,75
2026-05-11 17:56:53.612,5,-0.23,-0.41,-0.31,119.2506,68.49719999999999,46.3662,175,75
2026-05-11 17:56:53.624,5,-0.01,-0.36,-0.37,102.2106,121.34719999999999,24.296200000000002,175,75
2026-05-11 17:56:53.639,5,0.12,-0.27,-0.37,72.4206,175.2672,15.1662,175,75
2026-05-11 17:56:53.646,5,0.07,-0.17,-0.28,35.2406,213.81719999999999,14.8662,175,75
2026-05-11 17:56:53.677,5,0.3,-0.24,-0.16,-11.4194,248.1572,-15.4138,175,75
2026-05-11 17:56:53.688,5,0.54,-0.49,-0.07,2.5306,248.1572,-133.4338,175,75
2026-05-11 17:56:53.698,5,0.31,-0.22,0.84,5.1706,72.9172,-230.6338,175,75
2026-05-11 17:56:53.708,5,1.2,-0.04,1.7,-22.6494,-173.7028,-228.1338,175,75
2026-05-11 17:56:53.720,5,2.0,0.2,1.84,-59.1194,-228.21280000000002,-113.3238,175,75
2026-05-11 17:56:53.721,5,1.74,0.27,2.0,-131.56939999999997,-53.5728,-78.3438,175,75
2026-05-11 17:56:53.732,5,1.99,0.33,2.0,-198.46939999999998,245.9272,-100.0938,175,75
2026-05-11 17:56:53.743,5,1.88,0.21,2.0,-247.81939999999997,248.1572,-156.0838,175,75
2026-05-11 17:56:53.753,5,0.38,-0.53,2.0,-247.81939999999997,248.1572,-242.3738,175,75
2026-05-11 17:56:53.785,5,-2.0,-0.51,2.0,84.4506,94.18719999999999,-117.8738,175,75
2026-05-11 17:56:53.812,5,-1.65,0.44,2.0,89.2906,-252.1128,-75.3838,175,75
2026-05-11 17:56:53.824,5,-0.06,0.6,2.0,68.53059999999999,-252.1128,-9.703800000000001,175,75
2026-05-11 17:56:53.836,5,1.14,0.57,1.73,41.1406,-252.1128,50.556200000000004,175,75
2026-05-11 17:56:53.857,5,2.0,0.18,-0.29,45.4706,-252.1128,253.7362,175,75
2026-05-11 17:56:53.871,5,1.5,0.06,0.03,-14.4294,66.9472,253.7362,175,75
2026-05-11 17:56:53.886,5,0.58,-0.1,0.66,-75.4194,107.4272,174.0762,175,75
2026-05-11 17:56:53.899,5,-0.6,0.35,1.47,-145.4794,132.4972,-180.0838,175,75
2026-05-11 17:56:53.916,5,-0.58,0.23,1.25,-133.7294,105.1172,-246.53379999999999,175,75
2026-05-11 17:56:53.924,5,0.04,0.04,1.04,-80.9894,-0.8128000000000002,-246.53379999999999,175,75
2026-05-11 17:56:53.939,5,0.52,0.08,0.82,-12.1494,-141.6028,-183.6038,175,75
2026-05-11 17:56:53.939,5,0.58,0.11,0.58,38.2506,-218.8628,-43.9938,175,75
2026-05-11 17:56:54.029,5,1.6,-0.17,-0.2,88.4606,-226.9828,84.4262,175,75
2026-05-11 17:56:54.038,5,1.53,-0.16,-0.83,163.1706,-182.68280000000001,244.7762,175,75
2026-05-11 17:56:54.049,5,0.79,0.04,-0.88,212.7606,-169.02280000000002,253.7362,175,75
2026-05-11 17:56:54.049,5,0.19,0.28,-0.96,229.2706,-188.8128,253.7362,175,75
2026-05-11 17:56:54.049,5,-0.33,0.33,-1.03,188.56060000000002,-207.5728,253.7362,175,75
2026-05-11 17:56:54.051,5,-1.0,0.25,-0.89,146.56060000000002,-244.2928,237.0462,175,75
2026-05-11 17:56:54.059,5,-1.45,-0.13,-0.57,83.1106,-252.1128,108.2062,175,75
2026-05-11 17:56:54.093,5,-1.22,-0.28,-0.26,41.4306,-252.1128,-0.4738000000000002,175,75
2026-05-11 17:56:54.124,5,-0.89,-0.31,0.13,8.1206,-252.1128,-90.5438,175,75
2026-05-11 17:56:54.124,5,-0.44,-0.28,0.41,-25.2494,-252.1128,-150.6138,175,75
2026-05-11 17:56:54.136,5,0.08,-0.28,0.35,-55.1394,-165.7628,-168.3138,175,75
2026-05-11 17:56:54.146,5,0.46,-0.27,-0.01,-77.2294,-54.8228,-138.1538,175,75
2026-05-11 17:56:54.146,5,0.56,-0.25,-0.39,-84.0894,43.5072,-80.7338,175,75
2026-05-11 17:56:54.147,5,0.35,-0.22,-0.48,-77.1894,112.7272,-16.6938,175,75
2026-05-11 17:56:54.157,5,0.07,-0.19,-0.33,-60.8294,154.9372,43.4262,175,75
2026-05-11 17:56:54.168,5,-0.12,-0.15,-0.09,-47.0494,176.5572,67.9062,175,75
2026-05-11 17:56:54.183,5,0.36,0.45,0.35,-67.5994,248.1572,21.706200000000003,175,75
2026-05-11 17:56:54.197,5,2.0,1.32,1.01,-134.4794,248.1572,-28.113799999999998,175,75
2026-05-11 17:56:54.208,5,2.0,1.47,1.64,-247.81939999999997,248.1572,-81.5238,175,75
2026-05-11 17:56:54.208,5,2.0,1.1,2.0,-247.81939999999997,248.1572,-19.0138,175,75
2026-05-11 17:56:54.214,5,1.99,-0.33,2.0,-247.81939999999997,209.5272,96.5162,175,75
2026-05-11 17:56:54.219,5,1.2,-1.44,2.0,-199.06939999999997,248.1572,120.0562,175,75
2026-05-11 17:56:54.234,5,-0.97,-2.0,2.0,-53.7894,248.1572,163.3062,175,75
2026-05-11 17:56:54.234,5,-2.0,-1.93,2.0,55.8506,248.1572,221.9462,175,75
2026-05-11 17:56:54.250,5,-2.0,-1.64,2.0,68.4906,88.2772,111.6662,175,75
2026-05-11 17:56:54.261,5,-2.0,-1.18,2.0,69.4706,-232.3628,-85.2638,175,75
2026-05-11 17:56:54.261,5,-2.0,-0.76,2.0,66.2406,-252.1128,-246.53379999999999,175,75
2026-05-11 17:56:54.274,5,-1.59,-0.41,2.0,77.4906,-252.1128,-246.53379999999999,175,75
2026-05-11 17:56:54.298,5,2.0,1.05,0.23,143.5806,-252.1128,-161.0638,175,75
2026-05-11 17:56:54.303,5,1.91,1.07,-0.8,137.06060000000002,48.8372,253.7362,175,75
2026-05-11 17:56:54.303,5,-0.1,0.53,-0.29,86.4606,106.98719999999999,158.5862,175,75
2026-05-11 17:56:54.324,5,-1.07,-0.23,-0.57,34.1606,26.5272,-14.693800000000001,175,75
2026-05-11 17:56:54.335,5,-0.91,-0.53,-0.97,51.1106,-46.0528,-78.5738,175,75
2026-05-11 17:56:54.335,5,-0.64,-0.69,-1.51,79.8006,-97.6828,-123.96379999999999,175,75
2026-05-11 17:56:54.353,5,-0.38,-0.58,-1.79,105.6706,-109.86280000000001,-178.7238,175,75
2026-05-11 17:56:54.364,5,-1.01,-0.42,-1.15,134.72060000000002,-162.8128,-212.9238,175,75
2026-05-11 17:56:54.376,5,-1.13,-0.22,-0.7,122.5506,-212.6428,-185.2438,175,75
2026-05-11 17:56:54.386,5,-0.79,0.2,-0.27,64.31060000000001,-226.18280000000001,-149.8238,175,75
2026-05-11 17:56:54.399,5,0.0,0.52,0.03,-36.0894,-148.3128,-111.3738,175,75
2026-05-11 17:56:54.414,5,0.51,0.33,-0.18,-123.0094,10.4472,-67.1538,175,75
2026-05-11 17:56:54.432,5,0.36,0.24,-0.48,-159.59939999999997,177.1072,-52.3438,175,75
2026-05-11 17:56:54.443,5,0.52,0.44,-0.44,-181.31939999999997,248.1572,-68.8138,175,75
2026-05-11 17:56:54.466,5,0.84,0.75,-0.26,-219.7694,248.1572,-88.8338,175,75
2026-05-11 17:56:54.467,5,0.33,0.85,-0.16,-247.81939999999997,248.1572,-125.63380000000001,175,75
2026-05-11 17:56:54.477,5,2.0,2.0,1.97,-220.0194,248.1572,156.8862,175,75
2026-05-11 17:56:54.490,5,1.64,2.0,2.0,-111.4494,-174.3928,253.7362,175,75
2026-05-11 17:56:54.490,5,1.19,1.68,2.0,-210.8294,89.18719999999999,253.7362,175,75
2026-05-11 17:56:54.531,5,1.81,-1.49,2.0,-221.12939999999998,248.1572,-68.6538,175,75
2026-05-11 17:56:54.542,5,0.12,-2.0,2.0,-166.52939999999998,248.1572,-24.133799999999997,175,75
2026-05-11 17:56:54.588,5,-1.56,-2.0,2.0,-100.1194,248.1572,109.2062,175,75
2026-05-11 17:56:54.588,5,-2.0,-2.0,2.0,-22.6994,248.1572,197.4162,175,75
2026-05-11 17:56:54.591,5,-2.0,-2.0,2.0,63.9206,-38.7428,115.8762,175,75
2026-05-11 17:56:54.613,5,-2.0,-0.79,2.0,65.2706,-252.1128,-246.53379999999999,175,75
2026-05-11 17:56:54.613,5,-1.0,-0.45,2.0,30.1406,-252.1128,-246.53379999999999,175,75
2026-05-11 17:56:54.635,5,1.29,0.67,0.4,76.8106,-252.1128,-246.53379999999999,175,75
2026-05-11 17:56:54.635,5,2.0,1.3,-0.98,113.6306,-226.6128,-145.0838,175,75
2026-05-11 17:56:54.635,5,2.0,0.91,-0.24,121.39059999999999,46.9872,-11.203800000000001,175,75
2026-05-11 17:56:54.645,5,0.01,0.65,0.12,113.4106,91.84719999999999,-47.5738,175,75
2026-05-11 17:56:54.658,5,-0.92,0.48,0.12,95.6106,60.3372,-115.10379999999999,175,75
2026-05-11 17:56:54.669,5,-0.98,0.01,-0.56,91.9806,-123.2128,-190.8838,175,75
2026-05-11 17:56:54.681,5,0.31,-0.07,-1.37,140.68060000000003,-191.4228,-111.2038,175,75
2026-05-11 17:56:54.692,5,0.96,0.31,-1.35,209.3206,-193.7628,44.736200000000004,175,75
2026-05-11 17:56:54.704,5,0.3,0.72,-0.87,196.7306,-191.0728,142.2962,175,75
2026-05-11 17:56:54.704,5,-0.28,0.76,-0.5,157.1406,-209.24280000000002,181.8062,175,75
2026-05-11 17:56:54.715,5,-0.57,0.56,-0.22,110.64059999999999,-231.1528,186.8562,175,75
2026-05-11 17:56:54.727,5,-0.51,0.26,-0.13,79.2706,-231.7328,180.1862,175,75
2026-05-11 17:56:54.736,5,-0.31,0.01,-0.15,71.7206,-200.33280000000002,168.6262,175,75
2026-05-11 17:56:54.736,5,-0.13,-0.13,-0.24,81.9506,-138.5328,153.2662,175,75
2026-05-11 17:56:54.748,5,-0.12,-0.13,-0.39,97.9506,-61.882799999999996,127.8362,175,75
2026-05-11 17:56:54.748,5,-0.22,-0.12,-0.52,107.2106,17.3172,92.4462,175,75
2026-05-11 17:56:54.753,5,-0.19,-0.11,-0.57,105.9406,81.1172,64.9162,175,75
2026-05-11 17:56:54.769,5,-0.1,-0.13,-0.5,97.1906,146.41719999999998,52.3862,175,75
2026-05-11 17:56:54.780,5,-0.11,-0.1,-0.37,79.6306,200.5172,55.7162,175,75
2026-05-11 17:56:54.780,5,-0.09,-0.18,-0.23,66.3806,239.5872,81.1862,175,75
2026-05-11 17:56:54.802,5,-0.28,-0.07,0.23,32.0306,248.1572,105.6962,175,75
2026-05-11 17:56:54.820,5,0.22,-0.16,0.24,10.5606,248.1572,113.7362,175,75
2026-05-11 17:56:54.831,5,2.0,-2.0,1.08,35.1706,248.1572,47.236200000000004,175,75
2026-05-11 17:56:54.855,5,2.0,-2.0,2.0,-87.1994,-53.9028,-246.53379999999999,175,75
2026-05-11 17:56:54.855,5,2.0,-0.63,2.0,-149.65939999999998,55.7772,-182.9238,175,75
2026-05-11 17:56:54.951,5,0.44,-0.11,2.0,-175.87939999999998,237.2972,-172.0938,175,75
2026-05-11 17:56:54.951,5,-0.49,0.31,2.0,-232.89939999999999,248.1572,-246.53379999999999,175,75
2026-05-11 17:56:54.961,5,-1.08,0.29,2.0,-247.81939999999997,248.1572,-246.53379999999999,175,75
2026-05-11 17:56:54.965,5,-1.97,-0.42,2.0,-247.81939999999997,248.1572,-246.53379999999999,175,75
2026-05-11 17:56:54.992,5,-1.63,-0.02,2.0,21.5806,-35.2428,-166.53379999999999,175,75
2026-05-11 17:56:54.992,5,-2.0,0.11,2.0,82.4806,-35.9928,-97.8038,175,75
2026-05-11 17:56:55.003,5,-0.67,0.56,2.0,99.53059999999999,-252.1128,253.7362,175,75
2026-05-11 17:56:55.015,5,0.2,0.37,2.0,46.550599999999996,-252.1128,253.7362,175,75
2026-05-11 17:56:55.026,5,0.67,0.03,1.75,1.7106000000000003,-252.1128,253.7362,175,75
2026-05-11 17:56:55.036,5,0.34,-0.66,0.44,-61.889399999999995,-252.1128,253.7362,175,75
2026-05-11 17:56:55.036,5,2.0,-1.47,-1.33,-92.0294,-252.1128,253.7362,175,75
2026-05-11 17:56:55.046,5,1.68,-1.68,-1.12,-87.6694,-26.7528,-31.2538,175,75
2026-05-11 17:56:55.059,5,0.09,-0.98,-0.22,-62.3994,27.8572,-131.4038,175,75
2026-05-11 17:56:55.059,5,-0.43,-0.38,0.31,-44.2494,24.127200000000002,-180.4238,175,75
2026-05-11 17:56:55.074,5,-0.54,0.67,0.66,-77.0594,29.7572,-246.53379999999999,175,75
2026-05-11 17:56:55.086,5,-0.14,0.83,0.48,-102.5494,20.3572,-246.53379999999999,175,75
2026-05-11 17:56:55.088,5,2.0,0.44,-0.08,-76.6394,3.7971999999999992,-246.53379999999999,175,75
2026-05-11 17:56:55.104,5,2.0,0.92,-0.6,16.3806,4.2272,-89.5238,175,75
2026-05-11 17:56:55.106,5,0.98,0.58,-0.35,77.8206,2.3072,50.1062,175,75
2026-05-11 17:56:55.111,5,0.05,0.36,-0.31,119.3706,-22.4128,103.5662,175,75
2026-05-11 17:56:55.120,5,-0.45,0.18,-0.26,146.41060000000002,-75.4428,129.4162,175,75
2026-05-11 17:56:55.131,5,-0.72,0.07,-0.28,167.7606,-146.24280000000002,139.8762,175,75
2026-05-11 17:56:55.143,5,-0.65,0.01,-0.2,182.7606,-211.9228,146.5862,175,75
2026-05-11 17:56:55.153,5,-0.41,0.07,-0.14,183.3206,-252.1128,159.3462,175,75
2026-05-11 17:56:55.163,5,-0.09,0.08,-0.05,172.3006,-252.1128,182.9462,175,75
2026-05-11 17:56:55.175,5,0.03,-0.01,0.05,131.0106,-223.6428,214.2862,175,75
2026-05-11 17:56:55.203,5,-0.27,-0.33,-0.12,107.2506,-130.4728,165.4362,175,75
2026-05-11 17:56:55.237,5,-0.41,-0.4,-0.1,97.7406,-87.26280000000001,117.5162,175,75
2026-05-11 17:56:55.261,5,-0.28,-0.34,0.11,61.8106,-5.4428,33.846199999999996,175,75
2026-05-11 17:56:55.261,5,0.03,-0.32,0.12,38.5606,56.7172,-4.1538,175,75
2026-05-11 17:56:55.272,5,0.35,-0.25,0.14,16.7206,139.3472,-37.5438,175,75
2026-05-11 17:56:55.283,5,0.68,-0.11,0.32,-5.2494,236.6472,-60.3638,175,75
2026-05-11 17:56:55.283,5,2.0,-0.16,0.86,-22.7194,248.1572,-105.2738,175,75
2026-05-11 17:56:55.319,5,2.0,-0.0,1.55,-66.6394,248.1572,-183.5138,175,75
2026-05-11 17:56:55.319,5,1.91,-0.02,2.0,-122.9894,248.1572,-200.2638,175,75
2026-05-11 17:56:55.319,5,2.0,-0.15,2.0,-144.7594,157.2672,-175.8438,175,75
2026-05-11 17:56:55.331,5,0.99,-0.58,2.0,-152.8294,248.1572,-175.1338,175,75
2026-05-11 17:56:55.399,5,-0.71,-1.09,2.0,-125.94940000000001,248.1572,-145.4438,175,75
2026-05-11 17:56:55.399,5,-2.0,-1.31,2.0,-66.0094,248.1572,-120.5238,175,75
2026-05-11 17:56:55.411,5,-2.0,-1.0,2.0,6.1806,161.9872,-114.3638,175,75
2026-05-11 17:56:55.411,5,-2.0,-0.25,2.0,27.7606,-219.4528,-117.0638,175,75
2026-05-11 17:56:55.423,5,-1.77,0.04,2.0,6.380599999999999,-252.1128,-156.7038,175,75
2026-05-11 17:56:55.435,5,-0.63,-0.05,2.0,11.0806,-252.1128,-171.9038,175,75
2026-05-11 17:56:55.435,5,0.1,-0.01,1.89,35.5606,-252.1128,-149.8538,175,75
2026-05-11 17:56:55.451,5,0.8,0.3,1.25,41.1806,-252.1128,-128.6538,175,75
2026-05-11 17:56:55.451,5,0.6,0.57,0.58,21.9206,-252.1128,-127.28379999999999,175,75
2026-05-11 17:56:55.461,5,2.0,1.0,-1.17,8.300600000000001,-252.1128,-45.443799999999996,175,75
2026-05-11 17:56:55.483,5,-1.01,0.44,-0.79,7.490600000000001,-66.31280000000001,109.2162,175,75
2026-05-11 17:56:55.493,5,-1.74,0.09,-0.73,-5.119400000000001,-156.6128,14.806199999999999,175,75
2026-05-11 17:56:55.493,5,-2.0,-0.33,-1.27,7.1106,-252.1128,-78.3238,175,75
2026-05-11 17:56:55.503,5,-1.97,-0.66,-1.86,50.0206,-252.1128,-136.1038,175,75
2026-05-11 17:56:55.503,5,-1.72,-0.48,-2.0,90.2106,-252.1128,-165.1738,175,75
2026-05-11 17:56:55.514,5,-0.51,0.24,-1.49,64.6306,-252.1128,-166.2238,175,75
2026-05-11 17:56:55.516,5,0.07,0.26,-0.41,-5.4794,-252.1128,-126.50380000000001,175,75
2026-05-11 17:56:55.528,5,0.11,0.08,0.26,-72.0194,-158.2028,-87.9438,175,75
2026-05-11 17:56:55.545,5,0.27,0.1,0.33,-127.3994,64.87719999999999,-63.023799999999994,175,75
2026-05-11 17:56:55.571,5,0.96,0.66,-0.77,-226.46939999999998,248.1572,7.966200000000001,175,75
2026-05-11 17:56:55.582,5,0.95,0.7,0.04,-247.81939999999997,248.1572,-111.1938,175,75
2026-05-11 17:56:55.592,5,2.0,2.0,2.0,-236.18939999999998,31.8472,253.7362,175,75
2026-05-11 17:56:55.604,5,0.18,0.71,2.0,-247.81939999999997,-178.08280000000002,253.7362,175,75
2026-05-11 17:56:55.604,5,1.57,-1.23,2.0,-185.87939999999998,47.7872,253.7362,175,75
2026-05-11 17:56:55.615,5,1.03,-1.66,2.0,-117.8494,248.1572,117.4062,175,75
2026-05-11 17:56:55.627,5,-1.27,-2.0,2.0,-50.059400000000004,248.1572,-36.5638,175,75
2026-05-11 17:56:55.642,5,-2.0,-2.0,2.0,73.1106,248.1572,-246.53379999999999,175,75
2026-05-11 17:56:55.651,5,-2.0,-2.0,2.0,79.7206,74.0672,-246.53379999999999,175,75
2026-05-11 17:56:55.651,5,-2.0,-1.38,2.0,56.3906,-160.08280000000002,-246.53379999999999,175,75
2026-05-11 17:56:55.677,5,-2.0,-0.65,2.0,27.360599999999998,-252.1128,-246.53379999999999,175,75
2026-05-11 17:56:55.678,5,-1.05,-0.13,2.0,9.4806,-252.1128,-246.53379999999999,175,75
2026-05-11 17:56:55.682,5,0.1,0.27,1.93,11.880600000000001,-252.1128,-246.53379999999999,175,75
2026-05-11 17:56:55.705,5,0.7,0.74,1.41,20.3006,-252.1128,-246.53379999999999,175,75
2026-05-11 17:56:55.716,5,1.03,1.18,0.79,27.470599999999997,-247.99280000000002,-246.53379999999999,175,75
2026-05-11 17:56:55.727,5,2.0,1.72,-0.13,45.9606,-160.24280000000002,-246.53379999999999,175,75
2026-05-11 17:56:55.749,5,0.26,1.59,0.31,-66.5294,57.8872,-146.9938,175,75
2026-05-11 17:56:55.761,5,-0.58,1.32,0.32,-131.81939999999997,42.867200000000004,-230.1138,175,75
2026-05-11 17:56:55.778,5,-0.64,1.04,0.09,-174.5394,-5.9328,-246.53379999999999,175,75
2026-05-11 17:56:55.791,5,0.14,0.63,-0.41,-165.52939999999998,-41.9628,-246.53379999999999,175,75
2026-05-11 17:56:55.791,5,0.97,0.35,-0.78,-105.9294,-30.0728,-205.1438,175,75
2026-05-11 17:56:55.791,5,0.69,0.41,-0.62,-42.0794,2.5172,-78.96379999999999,175,75
2026-05-11 17:56:55.802,5,0.07,0.46,-0.36,-3.7494,16.2672,1.8661999999999999,175,75
2026-05-11 17:56:55.802,5,-0.35,0.42,-0.26,19.950599999999998,6.7372000000000005,49.876200000000004,175,75
2026-05-11 17:56:55.823,5,-0.51,0.31,-0.28,40.3606,-23.7528,82.9562,175,75
2026-05-11 17:56:55.824,5,-0.52,0.18,-0.35,64.4706,-61.1828,111.8062,175,75
2026-05-11 17:56:55.834,5,-0.37,0.07,-0.49,93.2206,-94.9628,137.9962,175,75
2026-05-11 17:56:55.854,5,-0.12,0.05,-0.55,122.9406,-111.90280000000001,161.7862,175,75
2026-05-11 17:56:55.871,5,0.1,0.09,-0.6,141.7006,-106.64280000000001,178.8962,175,75
2026-05-11 17:56:55.871,5,0.19,0.12,-0.59,147.25060000000002,-81.1928,178.4562,175,75
2026-05-11 17:56:55.881,5,0.21,0.06,-0.57,137.18060000000003,-32.1228,148.0862,175,75
2026-05-11 17:56:55.892,5,-0.03,-0.06,-0.44,116.6306,21.9372,90.8662,175,75
2026-05-11 17:56:55.902,5,-0.32,-0.22,-0.26,90.9506,57.2372,23.8562,175,75
2026-05-11 17:56:55.902,5,-0.23,-0.34,-0.12,71.5906,81.32719999999999,-12.283800000000001,175,75
2026-05-11 17:56:55.920,5,0.01,-0.35,-0.06,50.7906,108.23719999999999,-22.3038,175,75
2026-05-11 17:56:55.930,5,0.27,-0.36,-0.02,28.0806,148.1772,-19.223799999999997,175,75
2026-05-11 17:56:55.933,5,0.42,-0.39,0.03,7.8506,201.4872,-15.993800000000002,175,75
2026-05-11 17:56:55.955,5,0.39,-0.34,0.17,-11.1794,248.1372,-21.453799999999998,175,75
2026-05-11 17:56:55.965,5,-0.22,-0.27,0.63,-41.7994,227.75719999999998,-63.9838,175,75
2026-05-11 17:56:56.033,5,2.0,-0.41,2.0,-247.81939999999997,-162.30280000000002,-246.53379999999999,175,75
2026-05-11 17:56:56.033,5,2.0,-0.32,2.0,-247.81939999999997,26.627200000000002,-152.6238,175,75
2026-05-11 17:56:56.071,5,0.94,-0.85,2.0,-247.81939999999997,248.1572,-142.4338,175,75
2026-05-11 17:56:56.071,5,-0.75,-1.39,2.0,-247.81939999999997,248.1572,-241.5438,175,75
2026-05-11 17:56:56.085,5,-2.0,-2.0,2.0,-126.53940000000001,248.1572,-246.53379999999999,175,75
2026-05-11 17:56:56.096,5,-2.0,-1.43,2.0,105.7306,248.1572,-246.53379999999999,175,75
2026-05-11 17:56:56.107,5,-2.0,0.18,2.0,165.37060000000002,-9.0528,-246.53379999999999,175,75
2026-05-11 17:56:56.117,5,-2.0,0.74,2.0,151.09060000000002,-163.4128,-246.53379999999999,175,75
2026-05-11 17:56:56.140,5,-2.0,1.04,2.0,135.1706,-252.1128,-246.53379999999999,175,75
2026-05-11 17:56:56.151,5,-1.88,1.12,2.0,127.9606,-252.1128,-246.53379999999999,175,75
2026-05-11 17:56:56.151,5,-0.84,1.17,2.0,122.2106,-252.1128,-171.4838,175,75
2026-05-11 17:56:56.178,5,0.94,1.35,1.62,93.9706,-252.1128,-62.8138,175,75
2026-05-11 17:56:56.189,5,2.0,1.55,0.9,57.4206,-252.1128,173.7562,175,75
2026-05-11 17:56:56.203,5,2.0,1.42,0.49,21.5806,-166.3428,253.7362,175,75
2026-05-11 17:56:56.216,5,0.42,-0.34,-0.4,-41.8294,-54.8928,253.7362,175,75
2026-05-11 17:56:56.229,5,2.0,-1.78,-2.0,29.8506,76.13719999999999,253.7362,175,75
2026-05-11 17:56:56.241,5,0.79,-2.0,-2.0,81.5906,246.9872,253.7362,175,75
2026-05-11 17:56:56.241,5,-2.0,-0.16,0.42,31.3406,111.79719999999999,-183.3138,175,75
2026-05-11 17:56:56.252,5,-1.2,0.89,0.95,-183.6694,-55.0528,-246.53379999999999,175,75
2026-05-11 17:56:56.262,5,-0.18,0.55,0.63,-232.8594,-82.4428,-246.53379999999999,175,75
2026-05-11 17:56:56.273,5,0.3,0.46,0.49,-235.1094,-61.202799999999996,-246.53379999999999,175,75
2026-05-11 17:56:56.294,5,2.0,0.65,0.01,-101.4394,74.88719999999999,-246.53379999999999,175,75
2026-05-11 17:56:56.294,5,1.08,0.9,0.24,-38.129400000000004,91.87719999999999,-223.0638,175,75
2026-05-11 17:56:56.305,5,-0.15,0.92,0.35,5.1906,58.1272,-197.4838,175,75
2026-05-11 17:56:56.305,5,-0.67,0.79,0.33,38.8106,-4.2928,-211.53379999999999,175,75
2026-05-11 17:56:56.305,5,-0.31,0.49,0.14,76.6606,-59.5828,-177.8638,175,75
2026-05-11 17:56:56.316,5,0.2,0.29,-0.03,118.3706,-85.86280000000001,-62.133799999999994,175,75
2026-05-11 17:56:56.324,5,0.35,0.31,-0.1,148.7306,-97.64280000000001,79.6862,175,75
2026-05-11 17:56:56.336,5,0.36,0.3,-0.17,161.5806,-99.0528,203.6762,175,75
2026-05-11 17:56:56.336,5,0.3,0.02,-0.23,177.0106,-111.14280000000001,253.7362,175,75
2026-05-11 17:56:56.347,5,0.29,-0.02,-0.05,178.88060000000002,-117.5828,253.7362,175,75
2026-05-11 17:56:56.358,5,0.69,-0.12,0.06,167.4806,-67.15280000000001,253.7362,175,75
2026-05-11 17:56:56.369,5,1.09,-0.36,0.1,154.50060000000002,50.8072,253.7362,175,75
2026-05-11 17:56:56.374,5,1.13,-0.81,0.32,150.5106,211.6472,253.7362,175,75
2026-05-11 17:56:56.387,5,1.69,-1.49,1.79,111.0106,248.1572,149.8862,175,75
2026-05-11 17:56:56.400,5,-0.03,-1.56,2.0,6.4605999999999995,248.1572,-151.9838,175,75
2026-05-11 17:56:56.400,5,-0.41,-0.12,2.0,-88.6294,240.7972,-246.53379999999999,175,75
2026-05-11 17:56:56.411,5,-0.87,0.26,2.0,-195.39939999999999,248.1572,-246.53379999999999,175,75
2026-05-11 17:56:56.429,5,-0.78,-0.15,2.0,-247.81939999999997,248.1572,-246.53379999999999,175,75
2026-05-11 17:56:56.461,5,-2.0,0.64,2.0,70.53059999999999,-92.53280000000001,-113.1338,175,75
2026-05-11 17:56:56.472,5,-2.0,0.89,2.0,53.2406,-233.8928,-64.5538,175,75
2026-05-11 17:56:56.489,5,-2.0,0.91,2.0,32.4206,-252.1128,-25.8538,175,75
2026-05-11 17:56:56.510,5,1.91,0.24,0.55,151.7306,-252.1128,253.7362,175,75
2026-05-11 17:56:56.551,5,2.0,0.71,-0.69,216.9506,-252.1128,253.7362,175,75
2026-05-11 17:56:56.551,5,2.0,0.93,-1.38,252.4506,-137.8928,253.7362,175,75
2026-05-11 17:56:56.551,5,2.0,0.65,-2.0,240.68060000000003,158.0872,253.7362,175,75
2026-05-11 17:56:56.573,5,-2.0,-0.77,-0.21,88.4206,60.3072,-30.9938,175,75
2026-05-11 17:56:56.583,5,-2.0,-1.07,-0.38,85.1306,-118.75280000000001,-194.2138,175,75
2026-05-11 17:56:56.591,5,-1.83,-1.17,-0.62,107.8506,-252.1128,-246.53379999999999,175,75
2026-05-11 17:56:56.608,5,-0.51,-1.01,-0.88,122.8706,-252.1128,-246.53379999999999,175,75
2026-05-11 17:56:56.639,5,0.32,0.31,0.04,-82.0494,-113.09280000000001,-228.2238,175,75
2026-05-11 17:56:56.652,5,0.17,0.43,0.08,-185.71939999999998,-50.2128,-219.2938,175,75
2026-05-11 17:56:56.667,5,0.54,0.49,-0.11,-247.81939999999997,87.9772,-246.53379999999999,175,75
2026-05-11 17:56:56.672,5,0.61,0.72,0.08,-247.81939999999997,176.7972,-246.53379999999999,175,75
2026-05-11 17:56:56.686,5,0.63,1.12,0.38,-247.81939999999997,248.1572,-246.53379999999999,175,75
2026-05-11 17:56:56.700,5,2.0,1.93,1.06,-247.81939999999997,248.1572,-246.53379999999999,175,75
2026-05-11 17:56:56.710,5,2.0,2.0,1.77,-247.81939999999997,248.1572,-123.21379999999999,175,75
2026-05-11 17:56:56.710,5,2.0,1.59,2.0,-247.81939999999997,173.5472,253.7362,175,75
2026-05-11 17:56:56.720,5,1.56,0.06,2.0,-247.81939999999997,248.1572,253.7362,175,75
2026-05-11 17:56:56.736,5,0.36,-1.43,2.0,-247.81939999999997,248.1572,253.7362,175,75
2026-05-11 17:56:56.748,5,-2.0,-2.0,2.0,-142.40939999999998,248.1572,253.7362,175,75
2026-05-11 17:56:56.758,5,-2.0,-1.38,2.0,-31.5394,215.6172,253.7362,175,75
2026-05-11 17:56:56.760,5,-2.0,-2.0,2.0,61.2906,-50.2428,20.6462,175,75
2026-05-11 17:56:56.780,5,-2.0,-0.82,2.0,138.8006,-252.1128,-246.53379999999999,175,75
2026-05-11 17:56:56.800,5,-1.28,-0.34,2.0,144.87060000000002,-252.1128,-246.53379999999999,175,75
2026-05-11 17:56:56.811,5,0.19,0.4,2.0,148.87060000000002,-252.1128,-246.53379999999999,175,75
2026-05-11 17:56:56.811,5,1.18,0.98,1.52,140.66060000000002,-252.1128,-246.53379999999999,175,75
2026-05-11 17:56:56.823,5,1.6,1.42,1.05,105.7006,-252.1128,-246.53379999999999,175,75
2026-05-11 17:56:56.839,5,2.0,1.55,-0.0,66.8706,-252.1128,-161.5438,175,75
2026-05-11 17:56:56.850,5,2.0,1.12,0.04,36.9706,-4.7028,15.3462,175,75
2026-05-11 17:56:56.850,5,0.6,0.91,0.26,0.8306000000000002,99.93719999999999,12.706199999999999,175,75
2026-05-11 17:56:56.876,5,-0.73,0.46,0.09,-63.9894,87.8672,-113.3338,175,75
2026-05-11 17:56:56.891,5,-0.49,0.35,-0.26,-74.7594,34.6872,-150.7038,175,75
2026-05-11 17:56:56.901,5,0.55,0.42,-0.88,-59.6494,11.5972,-133.2338,175,75
2026-05-11 17:56:56.901,5,1.51,0.81,-1.4,-36.1194,68.23719999999999,-47.5938,175,75
2026-05-11 17:56:56.913,5,0.55,0.9,-0.86,-22.549400000000002,120.0272,-2.2638000000000003,175,75
2026-05-11 17:56:56.927,5,-0.27,0.85,-0.51,-36.7594,111.49719999999999,-23.6938,175,75
2026-05-11 17:56:56.940,5,-0.4,0.48,-0.25,-44.2294,80.9172,-41.2538,175,75
2026-05-11 17:56:56.949,5,-0.33,0.13,-0.13,-34.8194,48.5672,-28.7738,175,75
2026-05-11 17:56:56.952,5,-0.27,-0.07,-0.15,-8.779399999999999,16.9372,9.5262,175,75
2026-05-11 17:56:56.968,5,-0.23,-0.21,-0.22,28.470599999999997,-16.4328,64.4562,175,75
2026-05-11 17:56:56.990,5,-0.08,-0.16,-0.26,97.1706,-71.56280000000001,170.6962,175,75
2026-05-11 17:56:56.997,5,0.01,-0.07,-0.24,113.3806,-85.28280000000001,209.8462,175,75
2026-05-11 17:56:57.007,5,0.07,-0.03,-0.23,116.78059999999999,-87.8328,235.8762,175,75
2026-05-11 17:56:57.019,5,0.12,-0.03,-0.2,110.4406,-81.00280000000001,253.7362,175,75
2026-05-11 17:56:57.027,5,0.17,-0.12,-0.17,98.4006,-55.132799999999996,253.7362,175,75
2026-05-11 17:56:57.037,5,0.06,-0.23,-0.1,85.6006,-18.0628,225.3362,175,75
2026-05-11 17:56:57.059,5,0.34,-0.79,-0.16,66.8106,135.1572,30.7862,175,75
2026-05-11 17:56:57.072,5,0.28,-0.94,0.27,51.5706,199.4572,-99.3038,175,75
2026-05-11 17:56:57.099,5,2.0,-1.53,2.0,-136.4594,-78.61280000000001,-246.53379999999999,175,75
2026-05-11 17:56:57.099,5,2.0,-0.66,2.0,-234.7994,43.367200000000004,-152.5638,175,75
2026-05-11 17:56:57.111,5,1.1,-0.56,2.0,-247.81939999999997,194.41719999999998,-109.4238,175,75
2026-05-11 17:56:57.123,5,0.5,-0.5,2.0,-247.81939999999997,248.1572,-181.7038,175,75
2026-05-11 17:56:57.123,5,-0.93,-0.82,2.0,-223.6794,248.1572,-246.53379999999999,175,75
2026-05-11 17:56:57.156,5,-1.85,-1.0,2.0,-73.2794,248.1572,-246.53379999999999,175,75
2026-05-11 17:56:57.170,5,-0.51,0.38,2.0,29.4806,218.1372,-246.53379999999999,175,75
2026-05-11 17:56:57.170,5,-1.59,0.54,2.0,62.550599999999996,77.0572,-246.53379999999999,175,75
2026-05-11 17:56:57.190,5,-2.0,0.63,2.0,77.0006,-61.3728,-246.53379999999999,175,75
2026-05-11 17:56:57.190,5,-2.0,0.83,2.0,69.3206,-213.4128,-153.8138,175,75
2026-05-11 17:56:57.240,5,-2.0,0.86,2.0,57.8106,-252.1128,-73.8938,175,75
2026-05-11 17:56:57.240,5,-1.0,0.71,2.0,67.0606,-252.1128,41.0062,175,75
2026-05-11 17:56:57.250,5,0.34,0.55,1.78,84.3206,-252.1128,195.7862,175,75
2026-05-11 17:56:57.250,5,2.0,0.67,0.97,108.7406,-252.1128,253.7362,175,75
2026-05-11 17:56:57.261,5,2.0,0.32,0.07,141.4906,-252.1128,253.7362,175,75
2026-05-11 17:56:57.287,5,2.0,0.33,-0.45,182.0806,-210.3228,253.7362,175,75
2026-05-11 17:56:57.298,5,-1.57,-1.15,-0.41,142.81060000000002,187.0472,253.7362,175,75
2026-05-11 17:56:57.309,5,-2.0,-1.08,0.22,132.84060000000002,63.4472,183.5362,175,75
2026-05-11 17:56:57.319,5,-2.0,-0.85,0.51,117.0106,-87.9728,-111.2238,175,75
2026-05-11 17:56:57.333,5,-1.74,-0.48,-0.29,70.5606,-252.1128,-246.53379999999999,175,75
2026-05-11 17:56:57.333,5,0.26,-0.41,-0.56,72.9906,-220.4128,-246.53379999999999,175,75
2026-05-11 17:56:57.349,5,0.85,0.32,0.31,-19.3794,12.237200000000001,-246.53379999999999,175,75
2026-05-11 17:56:57.349,5,-0.0,0.72,0.58,-93.7594,49.4972,-246.53379999999999,175,75
2026-05-11 17:56:57.361,5,-0.41,1.19,0.64,-168.6994,40.0172,-246.53379999999999,175,75
2026-05-11 17:56:57.361,5,0.26,1.78,0.47,-236.0794,8.5472,-246.53379999999999,175,75
2026-05-11 17:56:57.380,5,2.0,2.0,0.06,-241.09939999999997,-10.2328,-246.53379999999999,175,75
2026-05-11 17:56:57.392,5,0.38,1.2,0.51,-212.49939999999998,-30.6328,-120.3438,175,75
2026-05-11 17:56:57.406,5,-0.14,0.51,0.51,-179.9794,-22.0228,-84.9138,175,75
2026-05-11 17:56:57.415,5,-0.16,0.04,0.38,-134.0494,-11.322799999999999,-29.833799999999997,175,75
2026-05-11 17:56:57.429,5,0.01,-0.15,0.13,-70.46940000000001,-3.5728,53.4962,175,75
2026-05-11 17:56:57.447,5,0.08,0.08,-0.29,41.5006,4.8671999999999995,213.4262,175,75
2026-05-11 17:56:57.459,5,-0.25,0.14,-0.12,69.5406,-12.092799999999999,241.2962,175,75
2026-05-11 17:56:57.459,5,-0.31,0.16,0.09,73.8206,-35.9228,230.1062,175,75
2026-05-11 17:56:57.473,5,-0.04,0.22,0.35,61.5106,-38.0228,208.1062,175,75
2026-05-11 17:56:57.499,5,0.34,0.29,0.6,31.9906,-8.1228,191.8162,175,75
2026-05-11 17:56:57.508,5,0.91,0.34,1.01,-11.379399999999999,39.8772,201.7862,175,75
2026-05-11 17:56:57.508,5,2.0,0.81,2.0,-81.4394,116.62719999999999,253.7362,175,75
2026-05-11 17:56:57.521,5,2.0,0.21,2.0,-166.71939999999998,103.85719999999999,253.7362,175,75
2026-05-11 17:56:57.532,5,1.73,-0.36,2.0,-198.36939999999998,248.1572,229.3362,175,75
2026-05-11 17:56:57.543,5,-1.06,-1.88,2.0,-8.7594,248.1572,-109.1438,175,75
2026-05-11 17:56:57.559,5,-2.0,-1.52,2.0,91.2506,248.1572,-192.4938,175,75
2026-05-11 17:56:57.559,5,-2.0,-0.63,2.0,132.0106,204.3072,-246.53379999999999,175,75
2026-05-11 17:56:57.572,5,-2.0,0.12,2.0,123.6206,-71.2128,-246.53379999999999,175,75
2026-05-11 17:56:57.582,5,-2.0,0.64,2.0,85.9506,-252.1128,-246.53379999999999,175,75
2026-05-11 17:56:57.599,5,-1.49,0.73,2.0,51.6706,-252.1128,-246.53379999999999,175,75
2026-05-11 17:56:57.621,5,0.02,0.6,1.6,47.9506,-252.1128,-157.1238,175,75
2026-05-11 17:56:57.621,5,1.05,0.46,1.12,56.2406,-252.1128,-50.053799999999995,175,75
2026-05-11 17:56:57.632,5,2.0,0.45,0.02,72.7106,-252.1128,186.9562,175,75
2026-05-11 17:56:57.645,5,2.0,0.98,-1.55,132.0806,83.7072,253.7362,175,75
2026-05-11 17:56:57.676,5,0.84,0.19,-1.11,80.4806,226.6272,253.7362,175,75
2026-05-11 17:56:57.676,5,-0.8,-0.01,-0.65,25.6706,228.4272,253.7362,175,75
2026-05-11 17:56:57.698,5,-2.0,-0.47,-0.5,-20.9694,36.0772,-15.313800000000002,175,75
2026-05-11 17:56:57.698,5,-1.74,-0.66,-0.83,-24.0794,-75.36280000000001,-183.6638,175,75
2026-05-11 17:56:57.708,5,-1.02,-0.76,-1.03,-6.8894,-133.3228,-246.53379999999999,175,75
2026-05-11 17:56:57.719,5,-0.37,-0.77,-1.27,22.9106,-153.2528,-246.53379999999999,175,75
2026-05-11 17:56:57.719,5,-0.02,-0.51,-1.05,40.9106,-139.3828,-246.53379999999999,175,75
2026-05-11 17:56:57.731,5,-0.05,-0.22,-0.58,34.480599999999995,-117.4728,-246.53379999999999,175,75
2026-05-11 17:56:57.743,5,-0.28,0.06,-0.11,1.8206000000000002,-103.7228,-246.53379999999999,175,75
2026-05-11 17:56:57.754,5,-0.27,0.37,0.19,-50.559400000000004,-85.3028,-246.53379999999999,175,75
2026-05-11 17:56:57.770,5,0.29,0.63,0.26,-115.6894,-28.122799999999998,-246.53379999999999,175,75
2026-05-11 17:56:57.770,5,0.9,0.63,0.19,-173.9194,72.2272,-246.53379999999999,175,75
2026-05-11 17:56:57.793,5,2.0,1.73,0.24,-247.81939999999997,248.1572,-94.9138,175,75
2026-05-11 17:56:57.808,5,2.0,2.0,0.96,-247.81939999999997,248.1572,-19.5038,175,75
2026-05-11 17:56:57.819,5,2.0,1.81,1.37,-247.81939999999997,248.1572,145.9962,175,75
2026-05-11 17:56:57.819,5,2.0,1.16,2.0,-247.81939999999997,248.1572,253.7362,175,75
2026-05-11 17:56:57.833,5,0.39,-0.93,1.39,-247.81939999999997,248.1572,253.7362,175,75
2026-05-11 17:56:57.847,5,-0.47,-2.0,1.61,-91.5394,248.1572,253.7362,175,75
2026-05-11 17:56:57.857,5,-2.0,-1.93,2.0,26.4306,248.1572,253.7362,175,75
2026-05-11 17:56:57.870,5,-2.0,-1.87,2.0,60.980599999999995,248.1572,253.7362,175,75
2026-05-11 17:56:57.870,5,-2.0,-1.64,2.0,24.270599999999998,36.3372,-3.4338,175,75
2026-05-11 17:56:57.882,5,-2.0,-1.41,2.0,7.1906,-107.67280000000001,-246.53379999999999,175,75
2026-05-11 17:56:57.892,5,-2.0,-1.19,2.0,28.8206,-148.2628,-246.53379999999999,175,75
2026-05-11 17:56:57.903,5,-1.91,-0.86,2.0,101.4306,-181.18280000000001,-246.53379999999999,175,75
2026-05-11 17:56:57.925,5,0.32,0.97,1.91,225.8206,-252.1128,-246.53379999999999,175,75
2026-05-11 17:56:57.937,5,0.85,1.57,1.76,190.50060000000002,-252.1128,-246.53379999999999,175,75
2026-05-11 17:56:57.964,5,2.0,1.21,0.09,72.2506,-119.31280000000001,-160.6338,175,75
2026-05-11 17:56:57.975,5,1.33,0.92,0.03,46.0006,-15.7928,-58.1438,175,75
2026-05-11 17:56:57.992,5,0.5,0.74,-0.01,18.720599999999997,37.8772,-14.813800000000002,175,75
2026-05-11 17:56:57.992,5,-0.01,0.58,0.0,-6.6693999999999996,48.047200000000004,-6.9338,175,75
2026-05-11 17:56:58.013,5,-0.08,0.34,-0.15,-46.2794,28.0072,-17.953799999999998,175,75
2026-05-11 17:56:58.023,5,0.21,0.3,-0.28,-47.949400000000004,33.9572,-11.1538,175,75
2026-05-11 17:56:58.040,5,0.42,0.34,-0.34,-43.2894,65.29719999999999,-2.5938000000000003,175,75
2026-05-11 17:56:58.050,5,0.31,0.33,-0.32,-35.309400000000004,101.18719999999999,-2.0738,175,75
2026-05-11 17:56:58.065,5,0.05,0.19,-0.17,-18.2194,117.93719999999999,8.4062,175,75
2026-05-11 17:56:58.075,5,0.04,0.17,-0.09,-17.4694,97.13719999999999,37.5862,175,75
2026-05-11 17:56:58.085,5,0.07,0.16,-0.11,-19.529400000000003,68.1172,72.8362,175,75
2026-05-11 17:56:58.101,5,0.12,0.13,-0.19,-17.9194,43.1272,100.4662,175,75
2026-05-11 17:56:58.111,5,0.14,0.1,-0.26,-11.859399999999999,23.9072,116.2362,175,75
2026-05-11 17:56:58.111,5,0.12,0.04,-0.32,-1.7293999999999996,12.177200000000001,117.0762,175,75
2026-05-11 17:56:58.139,5,-0.07,-0.08,-0.29,17.5606,1.0472,78.7362,175,75
2026-05-11 17:56:58.176,5,0.02,-0.35,0.05,40.0806,-45.0128,67.4462,175,75
2026-05-11 17:56:58.187,5,0.59,-0.29,0.22,22.5306,-9.4128,52.1662,175,75
2026-05-11 17:56:58.196,5,0.72,-0.41,0.38,-12.8394,18.127200000000002,-41.6038,175,75
2026-05-11 17:56:58.210,5,0.91,-0.48,1.0,-70.2294,-61.8128,-163.3738,175,75
2026-05-11 17:56:58.221,5,2.0,-0.86,1.67,-145.7894,48.5572,-104.4138,175,75
2026-05-11 17:56:58.231,5,2.0,-0.92,1.99,-126.91940000000001,248.1572,-32.7538,175,75
2026-05-11 17:56:58.251,5,1.25,-1.06,2.0,-96.6294,248.1572,5.696199999999999,175,75
2026-05-11 17:56:58.263,5,-1.54,-1.43,2.0,-10.8194,248.1572,-151.7338,175,75
2026-05-11 17:56:58.274,5,-2.0,-0.8,2.0,116.6606,248.1572,-246.53379999999999,175,75
2026-05-11 17:56:58.274,5,-2.0,0.34,2.0,100.39059999999999,218.25719999999998,-246.53379999999999,175,75
2026-05-11 17:56:58.291,5,-2.0,0.62,2.0,59.5306,71.99719999999999,-246.53379999999999,175,75
2026-05-11 17:56:58.291,5,-2.0,0.61,2.0,51.8906,-154.9728,-246.53379999999999,175,75
2026-05-11 17:56:58.306,5,-2.0,0.74,2.0,58.3106,-252.1128,-246.53379999999999,175,75
2026-05-11 17:56:58.320,5,-1.05,0.86,2.0,46.8506,-252.1128,-167.5838,175,75
2026-05-11 17:56:58.335,5,-0.11,0.96,2.0,37.0606,-252.1128,-52.5438,175,75
2026-05-11 17:56:58.356,5,0.85,0.92,2.0,54.2106,-252.1128,77.8762,175,75
2026-05-11 17:56:58.356,5,2.0,0.99,1.61,88.7506,-252.1128,253.7362,175,75
2026-05-11 17:56:58.368,5,1.35,1.01,0.93,55.2706,-63.0428,253.7362,175,75
2026-05-11 17:56:58.405,5,1.16,-0.08,0.18,-16.689400000000003,-43.8628,253.7362,175,75
2026-05-11 17:56:58.421,5,1.72,-1.12,-0.41,-21.479400000000002,19.1072,253.7362,175,75
2026-05-11 17:56:58.439,5,0.43,-1.76,-0.3,-11.049399999999999,63.20720000000001,253.7362,175,75
2026-05-11 17:56:58.439,5,-0.86,-1.65,0.05,11.8206,68.4272,253.7362,175,75
2026-05-11 17:56:58.439,5,-1.99,-1.42,0.35,45.7606,34.9072,67.64620000000001,175,75
2026-05-11 17:56:58.449,5,-2.0,-1.34,0.43,79.8706,-35.632799999999996,-133.28379999999999,175,75
2026-05-11 17:56:58.449,5,-2.0,-1.05,0.38,100.4506,-107.9728,-246.53379999999999,175,75
2026-05-11 17:56:58.487,5,-1.5,-0.45,0.28,86.1706,-139.5028,-246.53379999999999,175,75
2026-05-11 17:56:58.488,5,-0.4,0.22,0.21,23.8506,-111.95280000000001,-246.53379999999999,175,75
2026-05-11 17:56:58.510,5,0.27,0.49,0.09,-126.56939999999999,-15.822799999999999,-246.53379999999999,175,75
2026-05-11 17:56:58.510,5,0.09,0.58,0.12,-173.11939999999998,-9.5828,-246.53379999999999,175,75
2026-05-11 17:56:58.540,5,0.33,0.76,0.17,-204.27939999999998,-10.842799999999999,-246.53379999999999,175,75
2026-05-11 17:56:58.540,5,1.09,1.11,0.25,-241.65939999999998,41.367200000000004,-246.53379999999999,175,75
2026-05-11 17:56:58.552,5,1.72,1.29,0.13,-247.81939999999997,134.4872,-246.53379999999999,175,75
2026-05-11 17:56:58.552,5,0.85,1.26,0.2,-247.81939999999997,173.3972,-246.53379999999999,175,75
2026-05-11 17:56:58.574,5,0.03,0.96,0.65,-213.40939999999998,75.68719999999999,-199.28379999999999,175,75
2026-05-11 17:56:58.608,5,-0.03,0.67,0.82,-130.06939999999997,23.4572,-106.35379999999999,175,75
2026-05-11 17:56:58.621,5,0.0,0.31,0.71,-35.269400000000005,6.1072,-20.9938,175,75
2026-05-11 17:56:58.621,5,0.01,0.16,0.47,58.4906,4.5172,65.6262,175,75
2026-05-11 17:56:58.632,5,0.19,0.26,0.08,163.2106,-25.2628,228.8962,175,75
2026-05-11 17:56:58.645,5,0.18,0.27,0.03,174.5206,-48.5628,253.7362,175,75
2026-05-11 17:56:58.645,5,0.13,0.26,0.11,163.0506,-71.7128,253.7362,175,75
2026-05-11 17:56:58.674,5,0.2,0.14,0.28,141.85060000000001,-89.7428,253.7362,175,75
2026-05-11 17:56:58.674,5,0.43,0.02,0.46,116.2706,-89.90280000000001,253.7362,175,75
2026-05-11 17:56:58.689,5,1.67,-0.34,1.28,46.6806,69.04719999999999,253.7362,175,75
2026-05-11 17:56:58.700,5,2.0,-1.2,2.0,23.900599999999997,248.1572,148.0962,175,75
2026-05-11 17:56:58.700,5,0.17,-0.51,2.0,-4.2394,248.1572,-152.1038,175,75
2026-05-11 17:56:58.710,5,-0.69,-0.22,2.0,-58.3394,248.1572,-246.53379999999999,175,75
2026-05-11 17:56:58.710,5,-0.88,-0.72,2.0,-64.1794,248.1572,-246.53379999999999,175,75
2026-05-11 17:56:58.724,5,-1.16,-0.98,2.0,-31.2894,248.1572,-246.53379999999999,175,75
2026-05-11 17:56:58.724,5,-1.43,-0.53,2.0,21.0106,248.1572,-246.53379999999999,175,75
2026-05-11 17:56:58.735,5,-1.92,0.32,2.0,60.0106,25.627200000000002,-199.9938,175,75
2026-05-11 17:56:58.750,5,-2.0,0.83,2.0,51.0206,-127.86280000000001,-151.6238,175,75
2026-05-11 17:56:58.762,5,-0.97,0.39,2.0,26.4806,-252.1128,-30.153799999999997,175,75
2026-05-11 17:56:58.780,5,-0.11,0.18,1.82,40.870599999999996,-252.1128,103.8162,175,75
2026-05-11 17:56:58.793,5,1.04,0.08,0.18,44.5906,-252.1128,253.7362,175,75
2026-05-11 17:56:58.820,5,2.0,0.06,-2.0,90.9406,224.94719999999998,253.7362,175,75
2026-05-11 17:56:58.820,5,-0.66,-0.21,-1.49,86.6206,247.28719999999998,253.7362,175,75
2026-05-11 17:56:58.839,5,-2.0,-0.68,-0.92,79.5606,130.6172,247.5762,175,75
2026-05-11 17:56:58.857,5,-2.0,-0.93,-0.8,114.7306,-242.1328,-62.663799999999995,175,75
2026-05-11 17:56:58.870,5,-2.0,-0.58,-0.96,113.9806,-252.1128,-246.53379999999999,175,75
2026-05-11 17:56:58.870,5,-1.38,0.05,-0.88,64.0306,-252.1128,-246.53379999999999,175,75
2026-05-11 17:56:58.880,5,-0.09,0.43,-0.43,-24.8094,-252.1128,-246.53379999999999,175,75
2026-05-11 17:56:58.899,5,0.58,0.49,0.06,-116.10940000000001,-189.7628,-246.53379999999999,175,75
2026-05-11 17:56:58.899,5,0.73,0.37,0.43,-188.1794,-72.50280000000001,-246.53379999999999,175,75
2026-05-11 17:56:58.915,5,1.16,0.57,0.52,-235.7294,34.0772,-246.53379999999999,175,75
2026-05-11 17:56:58.928,5,2.0,2.0,1.05,-247.81939999999997,241.3672,-246.53379999999999,175,75
2026-05-11 17:56:58.941,5,2.0,1.66,0.63,-247.81939999999997,248.1572,-152.7038,175,75
2026-05-11 17:56:58.949,5,2.0,1.71,1.12,-247.81939999999997,248.1572,149.0462,175,75
2026-05-11 17:56:58.960,5,0.84,0.82,2.0,-247.81939999999997,248.1572,253.7362,175,75
2026-05-11 17:56:58.973,5,-1.57,-1.26,1.88,-247.81939999999997,248.1572,253.7362,175,75
2026-05-11 17:56:58.988,5,-2.0,-2.0,2.0,-50.2094,248.1572,253.7362,175,75
2026-05-11 17:56:59.008,5,-2.0,-2.0,2.0,161.9206,-161.8828,46.6862,175,75
2026-05-11 17:56:59.020,5,-2.0,-1.47,2.0,170.9206,-252.1128,-234.3238,175,75
2026-05-11 17:56:59.042,5,-2.0,-0.8,2.0,141.62060000000002,-252.1128,-246.53379999999999,175,75
2026-05-11 17:56:59.042,5,-0.87,-0.32,2.0,92.2706,-252.1128,-246.53379999999999,175,75
2026-05-11 17:56:59.054,5,0.38,0.62,0.99,80.3706,-252.1128,-246.53379999999999,175,75
2026-05-11 17:56:59.064,5,0.93,1.1,0.23,116.14059999999999,-252.1128,-246.53379999999999,175,75
2026-05-11 17:56:59.078,5,2.0,2.0,-0.42,130.2806,-252.1128,-246.53379999999999,175,75
2026-05-11 17:56:59.096,5,0.41,1.06,0.31,18.720599999999997,5.4372,-42.803799999999995,175,75
2026-05-11 17:56:59.129,5,-0.5,0.84,0.45,-39.0894,23.4272,-108.0338,175,75
2026-05-11 17:56:59.139,5,-0.82,0.59,0.32,-89.60940000000001,1.4671999999999998,-187.4038,175,75
2026-05-11 17:56:59.139,5,-0.68,0.2,-0.08,-104.6394,-46.6128,-227.6738,175,75
2026-05-11 17:56:59.162,5,0.98,0.17,-0.89,-1.3194,-69.23280000000001,-88.6638,175,75
2026-05-11 17:56:59.162,5,0.72,0.57,-0.66,21.0106,-12.412799999999999,-11.793800000000001,175,75
2026-05-11 17:56:59.173,5,0.12,0.45,-0.54,26.400599999999997,21.1572,9.0762,175,75
2026-05-11 17:56:59.173,5,-0.14,0.27,-0.43,34.8406,26.5272,11.3162,175,75
2026-05-11 17:56:59.183,5,-0.15,0.14,-0.31,44.9206,27.1072,10.6862,175,75
2026-05-11 17:56:59.197,5,-0.11,0.05,-0.28,54.980599999999995,29.787200000000002,14.1062,175,75
2026-05-11 17:56:59.231,5,0.02,0.01,-0.29,64.06060000000001,43.2072,29.6962,175,75
2026-05-11 17:56:59.242,5,-0.05,0.04,-0.19,54.2106,49.9872,32.1262,175,75
2026-05-11 17:56:59.242,5,-0.14,0.03,-0.11,37.9906,49.4072,29.8562,175,75
2026-05-11 17:56:59.253,5,-0.14,-0.03,-0.04,21.4906,46.3372,26.366200000000003,175,75
2026-05-11 17:56:59.253,5,-0.06,-0.12,-0.01,9.6306,46.0072,25.0862,175,75
2026-05-11 17:56:59.265,5,0.19,-0.25,-0.03,7.3406,59.3472,29.0062,175,75
2026-05-11 17:56:59.275,5,0.4,-0.25,0.03,6.890600000000001,93.2072,25.5162,175,75
2026-05-11 17:56:59.285,5,0.71,-0.23,0.08,4.740600000000001,129.5272,12.1162,175,75
2026-05-11 17:56:59.313,5,1.85,-0.3,0.12,-1.7094,186.44719999999998,-65.3938,175,75
2026-05-11 17:56:59.330,5,2.0,-0.48,1.49,-45.4994,35.5972,-246.53379999999999,175,75
2026-05-11 17:56:59.330,5,2.0,0.23,1.56,-110.7494,-87.6328,-156.5638,175,75
2026-05-11 17:56:59.343,5,1.85,-0.79,1.65,-140.7394,36.547200000000004,20.5162,175,75
2026-05-11 17:56:59.354,5,1.51,-0.86,1.92,-112.5694,248.1572,85.0062,175,75
2026-05-11 17:56:59.354,5,0.45,-0.76,2.0,-81.5994,248.1572,70.4362,175,75
2026-05-11 17:56:59.367,5,-2.0,-1.09,2.0,73.8006,248.1572,-246.53379999999999,175,75
2026-05-11 17:56:59.384,5,-2.0,0.12,2.0,107.8006,125.74719999999999,-246.53379999999999,175,75
2026-05-11 17:56:59.396,5,-1.8,0.4,2.0,88.4906,-21.5128,-246.53379999999999,175,75
2026-05-11 17:56:59.396,5,-1.95,0.42,2.0,105.7206,-158.08280000000002,-246.53379999999999,175,75
2026-05-11 17:56:59.407,5,-1.8,0.67,2.0,126.6506,-252.1128,-246.53379999999999,175,75
2026-05-11 17:56:59.423,5,-1.35,0.95,2.0,122.2406,-252.1128,-172.3738,175,75
2026-05-11 17:56:59.423,5,-0.64,1.05,2.0,108.7906,-252.1128,-77.6338,175,75
2026-05-11 17:56:59.435,5,0.53,1.03,1.79,89.7606,-252.1128,19.0462,175,75
2026-05-11 17:56:59.441,5,2.0,1.04,0.98,78.39059999999999,-252.1128,236.7462,175,75
2026-05-11 17:56:59.455,5,2.0,1.13,0.2,70.8706,-252.1128,253.7362,175,75
2026-05-11 17:56:59.468,5,2.0,1.14,0.13,38.5606,-134.1528,253.7362,175,75
2026-05-11 17:56:59.483,5,0.62,-0.36,-0.55,-38.4194,248.1572,253.7362,175,75
2026-05-11 17:56:59.499,5,-0.81,-0.45,-0.01,-65.0394,213.7172,253.7362,175,75
2026-05-11 17:56:59.511,5,-1.6,-0.91,0.11,-68.3694,111.0872,231.8462,175,75
2026-05-11 17:56:59.511,5,-2.0,-1.5,0.02,-33.5294,-14.0328,146.0062,175,75
2026-05-11 17:56:59.536,5,-2.0,-1.47,-0.0,10.640600000000001,-129.9728,16.7262,175,75
2026-05-11 17:56:59.536,5,-1.98,-1.25,-0.04,30.520599999999998,-187.0628,-182.6738,175,75
2026-05-11 17:56:59.547,5,-0.98,-0.55,0.05,-13.0194,-145.49280000000002,-246.53379999999999,175,75
2026-05-11 17:56:59.560,5,-0.1,-0.03,0.22,-84.9894,-58.0228,-246.53379999999999,175,75
2026-05-11 17:56:59.573,5,0.26,0.22,0.42,-157.8894,6.4172,-246.53379999999999,175,75
2026-05-11 17:56:59.583,5,0.32,0.3,0.53,-212.6994,40.9872,-246.53379999999999,175,75
2026-05-11 17:56:59.593,5,0.44,0.73,0.83,-247.81939999999997,96.8372,-246.53379999999999,175,75
2026-05-11 17:56:59.604,5,0.55,0.8,0.93,-247.81939999999997,147.5172,-246.53379999999999,175,75
2026-05-11 17:56:59.640,5,0.71,0.78,1.07,-247.81939999999997,218.1072,-246.53379999999999,175,75
2026-05-11 17:56:59.644,5,0.92,0.65,1.12,-247.81939999999997,248.1572,-246.53379999999999,175,75
2026-05-11 17:56:59.644,5,1.26,0.35,0.82,-247.81939999999997,204.78719999999998,-246.53379999999999,175,75
2026-05-11 17:56:59.653,5,0.39,0.34,0.99,-110.9494,78.37719999999999,-127.21379999999999,175,75
2026-05-11 17:56:59.662,5,-0.53,0.38,1.03,-23.3394,42.3372,-98.0838,175,75
2026-05-11 17:56:59.672,5,-0.92,0.26,0.74,39.0606,5.297199999999999,-118.3438,175,75
2026-05-11 17:56:59.672,5,-0.85,0.16,0.38,94.5006,-53.3528,-123.3738,175,75
2026-05-11 17:56:59.689,5,0.06,0.22,0.02,136.40060000000003,-108.6828,-72.3938,175,75
2026-05-11 17:56:59.694,5,0.87,0.39,-0.26,166.93060000000003,-111.9428,54.0462,175,75
2026-05-11 17:56:59.709,5,0.59,0.61,-0.2,171.0806,-98.6028,159.2662,175,75
2026-05-11 17:56:59.710,5,0.23,0.66,0.02,144.40060000000003,-92.70280000000001,199.1762,175,75
2026-05-11 17:56:59.724,5,0.21,0.46,0.25,106.5106,-80.6628,207.3962,175,75
2026-05-11 17:56:59.736,5,0.42,0.26,0.46,71.2506,-43.8228,210.1462,175,75
2026-05-11 17:56:59.752,5,0.83,0.06,0.67,47.3406,28.3672,220.6162,175,75
2026-05-11 17:56:59.752,5,2.0,-0.48,1.2,38.4006,177.8072,234.4962,175,75
2026-05-11 17:56:59.763,5,2.0,-0.76,2.0,18.8506,248.1572,206.8762,175,75
2026-05-11 17:56:59.782,5,0.39,-0.58,2.0,-36.7194,248.1572,-147.3438,175,75
2026-05-11 17:56:59.794,5,-0.61,-0.75,2.0,-20.1794,248.1572,-246.53379999999999,175,75
2026-05-11 17:56:59.816,5,-2.0,-0.66,2.0,23.7506,248.1572,-246.53379999999999,175,75
2026-05-11 17:56:59.827,5,-2.0,-0.0,2.0,49.3406,-46.882799999999996,-246.53379999999999,175,75
2026-05-11 17:56:59.843,5,-1.21,0.26,2.0,37.8606,-252.1128,-148.28379999999999,175,75
2026-05-11 17:56:59.853,5,-0.08,0.05,2.0,62.4006,-252.1128,-18.7638,175,75
2026-05-11 17:56:59.879,5,0.91,0.32,0.9,66.3706,-252.1128,177.5162,175,75
2026-05-11 17:56:59.879,5,2.0,0.32,-0.36,37.730599999999995,-252.1128,241.5262,175,75
2026-05-11 17:56:59.895,5,2.0,0.5,-1.91,-9.039399999999999,43.9172,221.9562,175,75
2026-05-11 17:56:59.904,5,0.33,0.01,-1.41,-54.699400000000004,147.7472,112.5862,175,75
2026-05-11 17:56:59.912,5,-1.12,-0.24,-0.82,-47.1794,89.6972,50.6662,175,75
2026-05-11 17:56:59.927,5,-1.89,-0.41,-0.97,-30.2894,-38.452799999999996,-15.333800000000002,175,75
2026-05-11 17:56:59.943,5,-1.6,-0.2,-1.95,1.2806000000000002,-252.1128,-188.5438,175,75
2026-05-11 17:56:59.961,5,0.18,-0.1,-1.26,-54.4994,-252.1128,-246.53379999999999,175,75
2026-05-11 17:56:59.978,5,-0.12,-0.24,-0.24,-73.7294,-231.3128,-194.78379999999999,175,75
2026-05-11 17:56:59.987,5,-0.37,-0.33,0.43,-94.3794,-161.24280000000002,-121.10379999999999,175,75
2026-05-11 17:56:59.991,5,-0.41,-0.35,0.71,-110.3094,-81.9928,-63.0838,175,75
2026-05-11 17:57:00.010,5,-0.11,-0.05,0.71,-140.30939999999998,29.2272,-45.7438,175,75
2026-05-11 17:57:00.010,5,0.73,0.28,0.34,-184.9894,201.69719999999998,-69.5738,175,75
2026-05-11 17:57:00.024,5,0.92,0.35,-0.08,-230.9794,248.1572,-104.10379999999999,175,75
2026-05-11 17:57:00.039,5,0.93,0.51,-0.11,-247.81939999999997,248.1572,-120.5738,175,75
2026-05-11 17:57:00.050,5,2.0,1.66,0.74,-247.81939999999997,248.1572,-110.9538,175,75
2026-05-11 17:57:00.050,5,2.0,2.0,-0.46,-247.81939999999997,248.1572,27.0362,175,75
2026-05-11 17:57:00.066,5,1.61,1.39,2.0,-247.81939999999997,176.0172,253.7362,175,75
2026-05-11 17:57:00.076,5,0.81,-0.76,2.0,-247.81939999999997,248.1572,253.7362,175,75
2026-05-11 17:57:00.089,5,-1.19,-1.67,1.62,-134.0194,248.1572,253.7362,175,75
2026-05-11 17:57:00.100,5,-2.0,-2.0,1.89,54.5006,248.1572,253.7362,175,75
2026-05-11 17:57:00.111,5,-2.0,-1.93,2.0,140.72060000000002,-77.9128,65.75619999999999,175,75
2026-05-11 17:57:00.129,5,-2.0,-1.74,2.0,105.8506,-252.1128,-36.373799999999996,175,75
2026-05-11 17:57:00.142,5,-2.0,-1.44,2.0,93.8806,-252.1128,-101.6538,175,75
2026-05-11 17:57:00.152,5,-1.28,-1.08,2.0,70.4306,-252.1128,-146.7938,175,75
2026-05-11 17:57:00.153,5,-0.62,-0.73,1.96,64.7406,-252.1128,-222.9238,175,75
2026-05-11 17:57:00.172,5,0.95,-0.08,0.35,101.8106,-252.1128,-246.53379999999999,175,75
2026-05-11 17:57:00.183,5,2.0,0.72,-0.6,112.9806,-252.1128,-246.53379999999999,175,75
2026-05-11 17:57:00.199,5,2.0,0.8,-1.12,132.0406,47.9372,-205.4138,175,75
2026-05-11 17:57:00.219,5,-0.39,0.73,-0.05,129.1406,91.79719999999999,-127.37379999999999,175,75
2026-05-11 17:57:00.219,5,-0.88,0.78,0.13,89.0706,33.2672,-189.1338,175,75
2026-05-11 17:57:00.234,5,-0.54,0.71,-0.14,52.4106,-30.8528,-220.6338,175,75
2026-05-11 17:57:00.241,5,0.78,0.58,-0.69,45.6506,-68.23280000000001,-127.8338,175,75
2026-05-11 17:57:00.266,5,1.21,0.57,-0.81,63.3606,-58.4328,47.7862,175,75
2026-05-11 17:57:00.330,5,0.39,0.67,-0.61,71.0206,-52.7828,158.2062,175,75
2026-05-11 17:57:00.335,5,-0.07,0.37,-0.4,73.3406,-64.8228,202.7062,175,75
2026-05-11 17:57:00.349,5,-0.7,-0.01,-0.07,89.39059999999999,-135.1628,221.5862,175,75
2026-05-11 17:57:00.359,5,-0.45,-0.21,-0.12,105.28059999999999,-198.46280000000002,180.7062,175,75
2026-05-11 17:57:00.371,5,-0.08,-0.17,-0.28,110.1806,-167.3828,137.3262,175,75
2026-05-11 17:57:00.371,5,-0.02,-0.04,-0.4,98.9206,-108.42280000000001,72.4162,175,75
2026-05-11 17:57:00.378,5,-0.1,0.0,-0.33,43.980599999999995,-0.3428000000000002,-37.763799999999996,175,75
2026-05-11 17:57:00.390,5,-0.06,-0.02,-0.22,12.470600000000001,35.0872,-56.5438,175,75
2026-05-11 17:57:00.390,5,0.02,-0.1,-0.15,-13.449399999999999,57.7172,-43.5038,175,75
2026-05-11 17:57:00.403,5,0.13,-0.31,-0.15,-19.369400000000002,71.0072,1.9762,175,75
2026-05-11 17:57:00.403,5,0.06,-0.41,-0.04,-9.7294,80.63719999999999,47.7062,175,75
2026-05-11 17:57:00.414,5,0.16,-0.42,0.05,6.240600000000001,96.8372,75.5262,175,75
2026-05-11 17:57:00.414,5,0.52,-0.36,0.12,20.6706,137.6372,88.2362,175,75
2026-05-11 17:57:00.442,5,2.0,-1.18,2.0,-29.049400000000002,144.9972,-224.4938,175,75
2026-05-11 17:57:00.455,5,1.19,-0.43,2.0,-79.7294,248.1572,-166.7638,175,75
2026-05-11 17:57:00.474,5,-0.61,-0.38,1.93,-92.5894,248.1572,-222.28379999999999,175,75
2026-05-11 17:57:00.474,5,-1.56,-0.52,2.0,-94.2394,248.1572,-246.53379999999999,175,75
2026-05-11 17:57:00.484,5,-2.0,-0.73,2.0,-76.21940000000001,248.1572,-246.53379999999999,175,75
2026-05-11 17:57:00.497,5,-2.0,-0.62,2.0,-16.349400000000003,248.1572,-246.53379999999999,175,75
2026-05-11 17:57:00.504,5,-1.95,0.48,2.0,43.9006,43.8972,-246.53379999999999,175,75
2026-05-11 17:57:00.536,5,-2.0,0.98,2.0,35.5906,-194.2528,-186.8838,175,75
2026-05-11 17:57:00.569,5,-1.66,0.92,2.0,14.950600000000001,-239.1528,-180.0138,175,75
2026-05-11 17:57:00.569,5,-1.16,0.56,2.0,32.3006,-239.6028,-150.8638,175,75
2026-05-11 17:57:00.580,5,-0.42,0.4,2.0,90.9106,-252.1128,-36.5838,175,75
2026-05-11 17:57:00.580,5,0.22,0.51,2.0,130.5106,-252.1128,104.6862,175,75
2026-05-11 17:57:00.592,5,0.79,0.64,1.94,119.3706,-252.1128,199.71620000000001,175,75
2026-05-11 17:57:00.592,5,1.21,0.5,1.49,79.6506,-252.1128,253.7362,175,75
2026-05-11 17:57:00.605,5,1.22,0.24,0.98,39.9106,-202.52280000000002,253.7362,175,75
2026-05-11 17:57:00.605,5,0.97,-0.06,0.57,14.5806,-172.8628,253.7362,175,75
2026-05-11 17:57:00.605,5,1.97,-0.58,-0.15,0.8906000000000003,-127.2728,253.7362,175,75
2026-05-11 17:57:00.616,5,1.56,-0.85,-0.58,-10.6694,7.217199999999999,253.7362,175,75
2026-05-11 17:57:00.631,5,0.15,-0.72,-0.21,-38.8694,62.4672,253.7362,175,75
2026-05-11 17:57:00.631,5,-0.97,-0.51,0.34,-63.499399999999994,51.2272,145.1762,175,75
2026-05-11 17:57:00.653,5,-1.21,-0.44,0.61,-105.8894,-30.122799999999998,-120.3738,175,75
2026-05-11 17:57:00.667,5,-0.16,-0.32,0.47,-127.4594,-25.6728,-246.53379999999999,175,75
2026-05-11 17:57:00.695,5,1.15,0.0,0.11,-113.3894,22.217200000000002,-246.53379999999999,175,75
2026-05-11 17:57:00.695,5,2.0,0.28,-0.09,-65.9594,-4.0128,-246.53379999999999,175,75
2026-05-11 17:57:00.720,5,1.09,0.76,-0.07,34.010600000000004,13.8772,-129.7038,175,75
2026-05-11 17:57:00.720,5,0.13,0.62,-0.01,51.800599999999996,9.6272,-87.9338,175,75
2026-05-11 17:57:00.732,5,-0.39,0.46,0.06,61.190599999999996,-18.2428,-72.0838,175,75
2026-05-11 17:57:00.742,5,-0.57,0.3,0.06,68.3606,-61.3128,-51.7338,175,75
2026-05-11 17:57:00.754,5,-0.58,0.17,0.02,76.6606,-110.50280000000001,-7.6638,175,75
2026-05-11 17:57:00.762,5,-0.58,0.13,-0.05,87.14059999999999,-166.77280000000002,55.7562,175,75
2026-05-11 17:57:00.774,5,-0.54,0.16,-0.15,95.6006,-218.08280000000002,118.5862,175,75
2026-05-11 17:57:00.786,5,-0.32,0.18,-0.23,102.7206,-252.1128,179.3362,175,75
2026-05-11 17:57:00.797,5,0.04,0.15,-0.27,110.0106,-252.1128,240.4562,175,75
2026-05-11 17:57:00.809,5,0.2,0.04,-0.2,118.7006,-246.2928,253.7362,175,75
2026-05-11 17:57:00.825,5,0.48,-0.27,0.04,136.88060000000002,-107.6628,253.7362,175,75
2026-05-11 17:57:00.840,5,0.55,-0.39,0.27,149.69060000000002,3.9772,253.7362,175,75
2026-05-11 17:57:00.850,5,1.47,-0.66,0.45,174.69060000000002,153.1072,245.9562,175,75
2026-05-11 17:57:00.851,5,2.0,-0.93,0.81,230.5706,248.1572,195.1362,175,75
2026-05-11 17:57:00.870,5,2.0,-0.53,1.34,252.4506,248.1572,62.5862,175,75
2026-05-11 17:57:00.899,5,0.36,-0.5,2.0,-119.96940000000001,248.1572,-246.53379999999999,175,75
2026-05-11 17:57:00.909,5,-1.43,-0.8,2.0,-85.0494,248.1572,-246.53379999999999,175,75
2026-05-11 17:57:00.942,5,-2.0,-0.03,2.0,62.3306,-91.73280000000001,-190.7038,175,75
2026-05-11 17:57:00.942,5,-2.0,0.59,2.0,89.2306,-252.1128,-150.3438,175,75
2026-05-11 17:57:00.960,5,-0.93,0.79,2.0,98.3206,-252.1128,-99.0638,175,75
2026-05-11 17:57:00.972,5,0.27,0.77,2.0,100.5906,-252.1128,-19.0838,175,75
2026-05-11 17:57:00.972,5,1.21,0.78,1.5,83.9906,-252.1128,72.4062,175,75
2026-05-11 17:57:00.984,5,1.99,0.69,0.87,49.800599999999996,-252.1128,187.1662,175,75
2026-05-11 17:57:00.997,5,2.0,0.56,-1.24,-31.659399999999998,21.2272,253.7362,175,75
2026-05-11 17:57:01.021,5,-0.82,-0.05,-0.47,-136.56939999999997,138.9072,103.3062,175,75
2026-05-11 17:57:01.074,5,-0.8,0.03,-1.07,-32.019400000000005,-212.5028,-246.53379999999999,175,75
2026-05-11 17:57:01.094,5,-0.32,0.01,0.2,-39.1594,-149.8928,-231.4738,175,75
2026-05-11 17:57:01.100,5,0.2,0.11,0.43,-49.809400000000004,-50.6628,-182.4538,175,75
2026-05-11 17:57:01.116,5,0.81,0.4,0.45,-74.2394,108.82719999999999,-125.6138,175,75
2026-05-11 17:57:01.123,5,1.25,0.63,0.1,-107.6194,248.1572,-73.0238,175,75
2026-05-11 17:57:01.140,5,1.1,0.66,-0.25,-138.8594,248.1572,-20.9638,175,75
2026-05-11 17:57:01.174,5,0.29,1.63,2.0,-200.39939999999999,35.4672,253.7362,175,75
2026-05-11 17:57:01.184,5,0.76,0.42,2.0,-187.0794,210.8972,253.7362,175,75
2026-05-11 17:57:01.199,5,0.12,-0.79,2.0,-159.90939999999998,248.1572,144.1062,175,75
2026-05-11 17:57:01.199,5,-0.83,-1.84,2.0,-104.3394,248.1572,50.4262,175,75
2026-05-11 17:57:01.210,5,-2.0,-2.0,2.0,-41.019400000000005,248.1572,72.8062,175,75
2026-05-11 17:57:01.221,5,-2.0,-2.0,2.0,-2.8493999999999997,221.8972,98.4962,175,75
2026-05-11 17:57:01.239,5,-2.0,-1.91,2.0,45.5606,-40.9828,38.9262,175,75
2026-05-11 17:57:01.247,5,-2.0,-1.4,2.0,72.9206,-252.1128,-74.7938,175,75
2026-05-11 17:57:01.261,5,-1.02,-0.66,2.0,41.8106,-252.1128,-183.4738,175,75
2026-05-11 17:57:01.299,5,2.0,0.49,0.2,58.1306,-252.1128,-231.5638,175,75
2026-05-11 17:57:01.308,5,2.0,0.53,-0.36,78.0106,30.7872,-76.3738,175,75
2026-05-11 17:57:01.319,5,1.03,0.42,0.15,93.1006,116.0072,-28.2638,175,75
2026-05-11 17:57:01.330,5,-0.02,0.46,0.35,88.78059999999999,128.0472,-48.2138,175,75
2026-05-11 17:57:01.356,5,-0.85,0.28,0.24,62.1406,36.4672,-135.0238,175,75
2026-05-11 17:57:01.356,5,-0.64,0.24,0.02,62.1106,-55.6628,-136.6438,175,75
2026-05-11 17:57:01.371,5,0.69,0.33,-0.4,76.2106,-108.34280000000001,-62.3438,175,75
2026-05-11 17:57:01.390,5,0.72,0.72,-0.6,83.4906,-49.7628,200.0662,175,75
2026-05-11 17:57:01.401,5,-0.65,0.35,-0.31,61.2106,-104.5428,209.2862,175,75
2026-05-11 17:57:01.413,5,-0.76,0.12,-0.3,53.6306,-161.3228,188.6062,175,75
2026-05-11 17:57:01.441,5,-0.14,-0.2,-0.39,79.6806,-215.4828,163.2662,175,75
2026-05-11 17:57:01.441,5,-0.03,-0.13,-0.32,88.2406,-181.4428,136.9362,175,75
2026-05-11 17:57:01.461,5,-0.15,-0.12,-0.15,80.0406,-82.14280000000001,55.5862,175,75
2026-05-11 17:57:01.480,5,-0.09,-0.17,-0.12,73.5906,-30.7628,32.7362,175,75
2026-05-11 17:57:01.491,5,-0.06,-0.19,-0.01,55.4206,49.1872,45.876200000000004,175,75
2026-05-11 17:57:01.509,5,0.1,-0.26,-0.04,52.0806,79.07719999999999,83.0562,175,75
2026-05-11 17:57:01.521,5,0.08,-0.24,0.03,48.1406,111.3972,109.4362,175,75
2026-05-11 17:57:01.521,5,0.18,-0.23,0.12,41.6306,148.8972,116.0062,175,75
2026-05-11 17:57:01.532,5,0.64,-0.29,0.12,37.7606,210.0772,117.8662,175,75
2026-05-11 17:57:01.549,5,1.88,-0.62,0.22,44.2506,248.1572,80.7062,175,75
2026-05-11 17:57:01.549,5,2.0,-2.0,2.0,37.9506,248.1572,-95.7638,175,75
2026-05-11 17:57:01.567,5,2.0,-0.93,2.0,-45.699400000000004,106.9572,-119.2338,175,75
2026-05-11 17:57:01.572,5,1.07,-0.41,2.0,-65.7594,248.1572,-105.6438,175,75
2026-05-11 17:57:01.588,5,-0.06,-0.18,2.0,-93.6594,248.1572,-204.9438,175,75
2026-05-11 17:57:01.599,5,-1.38,-0.6,2.0,-92.35940000000001,248.1572,-246.53379999999999,175,75
2026-05-11 17:57:01.610,5,-2.0,-0.89,2.0,-31.599400000000003,248.1572,-246.53379999999999,175,75
2026-05-11 17:57:01.610,5,-2.0,-0.46,2.0,67.0506,248.1572,-246.53379999999999,175,75
2026-05-11 17:57:01.625,5,-2.0,0.05,2.0,111.2706,5.1472,-246.53379999999999,175,75
2026-05-11 17:57:01.645,5,-2.0,0.35,2.0,117.3406,-252.1128,-124.53379999999999,175,75
2026-05-11 17:57:01.659,5,-1.59,0.45,2.0,109.2306,-252.1128,-57.1438,175,75
2026-05-11 17:57:01.679,5,0.44,0.63,1.7,85.2306,-252.1128,106.4562,175,75
2026-05-11 17:57:01.687,5,1.06,0.44,1.22,53.690599999999996,-252.1128,195.5362,175,75
2026-05-11 17:57:01.733,5,0.6,-0.31,-0.46,-50.1194,109.9472,235.9162,175,75
2026-05-11 17:57:01.754,5,-0.93,-0.03,0.71,-120.5794,66.9572,-17.6738,175,75
2026-05-11 17:57:01.754,5,-0.94,0.12,0.85,-137.8294,26.467200000000002,-166.9238,175,75
2026-05-11 17:57:01.770,5,-0.48,0.1,0.7,-137.65939999999998,-1.7928000000000002,-246.53379999999999,175,75
2026-05-11 17:57:01.824,5,2.0,0.17,-0.18,-23.3294,-43.4628,-166.4838,175,75
2026-05-11 17:57:01.824,5,1.5,0.32,-0.15,22.0306,-5.0828,15.806199999999999,175,75
2026-05-11 17:57:01.834,5,-0.2,0.08,0.06,50.9106,-19.3428,110.6262,175,75
2026-05-11 17:57:01.845,5,-0.57,0.06,0.05,50.7006,-59.0328,109.1262,175,75
2026-05-11 17:57:01.849,5,-0.75,0.07,-0.0,45.690599999999996,-114.2128,94.78620000000001,175,75
2026-05-11 17:57:01.863,5,-0.79,0.1,-0.13,37.7006,-175.4428,74.6862,175,75
2026-05-11 17:57:01.863,5,-0.62,0.13,-0.31,29.950599999999998,-229.02280000000002,59.0062,175,75
2026-05-11 17:57:01.885,5,-0.08,0.23,-0.65,7.4306,-246.46280000000002,28.636200000000002,175,75
2026-05-11 17:57:01.898,5,-0.15,0.1,-0.41,7.050600000000001,-217.1528,6.7962,175,75
2026-05-11 17:57:01.909,5,-0.25,0.04,-0.23,10.620600000000001,-186.24280000000002,-16.0638,175,75
2026-05-11 17:57:01.922,5,0.31,-0.37,0.04,51.2906,-80.6328,-16.1538,175,75
2026-05-11 17:57:01.944,5,0.9,-0.38,0.35,106.5806,135.7172,35.596199999999996,175,75
2026-05-11 17:57:01.956,5,1.83,-0.53,0.68,128.0406,248.1572,88.0662,175,75
2026-05-11 17:57:01.979,5,2.0,0.19,2.0,110.6906,248.1572,176.2962,175,75
2026-05-11 17:57:01.979,5,2.0,0.36,2.0,-34.7294,117.26719999999999,66.0462,175,75
2026-05-11 17:57:02.003,5,-0.99,-0.67,2.0,-110.6294,248.1572,-162.3538,175,75
2026-05-11 17:57:02.014,5,-2.0,-1.08,2.0,-40.769400000000005,248.1572,-246.53379999999999,175,75
2026-05-11 17:57:02.021,5,-2.0,-0.95,2.0,59.4206,193.9072,-246.53379999999999,175,75
2026-05-11 17:57:02.040,5,-2.0,-0.12,2.0,129.2106,-114.9628,-246.53379999999999,175,75
2026-05-11 17:57:02.057,5,-0.66,0.82,2.0,92.3406,-252.1128,-110.9738,175,75
2026-05-11 17:57:02.061,5,0.25,0.72,2.0,82.2506,-252.1128,-29.763799999999996,175,75
2026-05-11 17:57:02.079,5,0.87,0.7,1.76,70.2006,-252.1128,56.5662,175,75
2026-05-11 17:57:02.094,5,1.74,0.6,0.52,5.0506,-252.1128,248.71620000000001,175,75
2026-05-11 17:57:02.109,5,2.0,0.28,-0.38,2.6906000000000003,-185.8228,253.7362,175,75
2026-05-11 17:57:02.109,5,2.0,0.0,-1.83,-1.7894,70.26719999999999,253.7362,175,75
2026-05-11 17:57:02.123,5,0.75,-0.29,-1.52,-26.9194,199.4572,216.1362,175,75
2026-05-11 17:57:02.140,5,-0.68,-0.44,-0.77,-31.239400000000003,164.9372,127.4362,175,75
2026-05-11 17:57:02.150,5,-1.32,-0.47,-0.62,-27.2194,72.5372,64.3762,175,75
2026-05-11 17:57:02.150,5,-1.55,-0.5,-0.67,-17.0694,-45.7828,-1.0938000000000003,175,75
2026-05-11 17:57:02.167,5,-1.43,-0.49,-0.88,-8.789399999999999,-156.8928,-74.3738,175,75
2026-05-11 17:57:02.196,5,-0.15,-0.13,-1.06,-20.4494,-226.3828,-246.53379999999999,175,75
2026-05-11 17:57:02.207,5,-0.09,0.02,-0.67,-42.4994,-200.24280000000002,-246.53379999999999,175,75
2026-05-11 17:57:02.220,5,-0.07,0.12,-0.26,-66.1794,-163.2828,-246.53379999999999,175,75
2026-05-11 17:57:02.234,5,-0.08,0.24,0.11,-91.85940000000001,-114.5428,-226.2238,175,75
2026-05-11 17:57:02.242,5,0.12,0.35,0.27,-116.4094,-46.1528,-194.7338,175,75
2026-05-11 17:57:02.271,5,0.44,0.41,0.21,-134.0794,46.6472,-150.0438,175,75
2026-05-11 17:57:02.271,5,0.85,0.43,0.02,-142.59939999999997,159.5872,-89.5438,175,75
2026-05-11 17:57:02.271,5,0.96,0.53,-0.16,-143.74939999999998,248.1572,-22.8938,175,75
2026-05-11 17:57:02.283,5,0.87,0.72,-0.1,-157.1394,248.1572,18.1762,175,75
2026-05-11 17:57:02.296,5,1.41,1.14,0.15,-195.37939999999998,248.1572,71.0562,175,75
2026-05-11 17:57:02.296,5,2.0,1.97,1.2,-247.81939999999997,248.1572,146.8762,175,75
2026-05-11 17:57:02.309,5,2.0,2.0,2.0,-247.81939999999997,248.1572,253.7362,175,75
2026-05-11 17:57:02.339,5,0.94,0.38,2.0,-247.81939999999997,172.7672,253.7362,175,75
2026-05-11 17:57:02.352,5,-0.67,-1.11,2.0,-217.5394,248.1572,253.7362,175,75
2026-05-11 17:57:02.352,5,-1.88,-2.0,2.0,-69.2894,248.1572,253.7362,175,75
2026-05-11 17:57:02.362,5,-2.0,-2.0,2.0,33.9806,248.1572,234.6462,175,75
2026-05-11 17:57:02.373,5,-2.0,-1.96,2.0,41.050599999999996,146.7172,101.2762,175,75
2026-05-11 17:57:02.388,5,-2.0,-1.76,2.0,6.0106,-93.86280000000001,-54.2038,175,75
2026-05-11 17:57:02.388,5,-2.0,-1.65,2.0,-0.6294,-252.1128,-186.6338,175,75
2026-05-11 17:57:02.401,5,-0.78,-0.82,1.84,49.7106,-252.1128,-246.53379999999999,175,75
2026-05-11 17:57:02.401,5,0.4,-0.18,1.18,68.14059999999999,-252.1128,-246.53379999999999,175,75
2026-05-11 17:57:02.413,5,1.74,0.35,0.66,90.9806,-252.1128,-246.53379999999999,175,75
2026-05-11 17:57:02.423,5,2.0,1.35,-0.43,107.0106,-212.08280000000002,-226.6738,175,75
2026-05-11 17:57:02.459,5,2.0,0.88,-0.02,108.0206,63.267199999999995,2.6961999999999997,175,75
2026-05-11 17:57:02.459,5,0.76,0.64,0.34,105.0706,124.88719999999999,48.9162,175,75
2026-05-11 17:57:02.475,5,-0.85,0.36,0.37,56.5906,90.7272,-57.2038,175,75
2026-05-11 17:57:02.475,5,-1.02,0.17,0.21,40.8406,12.6972,-95.10379999999999,175,75
2026-05-11 17:57:02.481,5,-0.78,0.11,0.01,36.4506,-76.56280000000001,-101.3238,175,75
2026-05-11 17:57:02.501,5,0.43,0.15,-0.37,43.9506,-132.1228,-50.3438,175,75
2026-05-11 17:57:02.511,5,1.86,0.44,-0.78,63.940599999999996,-91.90280000000001,110.6262,175,75
2026-05-11 17:57:02.527,5,-0.15,0.47,-0.3,55.4706,-40.7228,249.1262,175,75
2026-05-11 17:57:02.541,5,-0.76,0.43,-0.21,38.2406,-78.62280000000001,209.8862,175,75
2026-05-11 17:57:02.552,5,-1.14,0.19,-0.07,23.950599999999998,-139.4228,143.5962,175,75
2026-05-11 17:57:02.552,5,-1.1,-0.02,-0.03,20.520599999999998,-202.8928,73.0762,175,75
2026-05-11 17:57:02.570,5,-0.67,-0.16,-0.09,32.7906,-238.30280000000002,32.2362,175,75
2026-05-11 17:57:02.570,5,0.04,-0.23,-0.21,59.9506,-228.9728,37.1162,175,75
2026-05-11 17:57:02.591,5,0.46,-0.12,-0.41,91.8406,-178.3428,74.9862,175,75
2026-05-11 17:57:02.613,5,0.22,0.05,-0.5,118.4006,-72.42280000000001,114.0062,175,75
2026-05-11 17:57:02.613,5,0.08,-0.01,-0.36,116.9106,-28.9228,114.7362,175,75
2026-05-11 17:57:02.646,5,0.13,-0.19,-0.21,107.5906,57.0072,116.7962,175,75
2026-05-11 17:57:02.646,5,0.14,-0.33,-0.17,105.5606,95.38719999999999,132.1762,175,75
2026-05-11 17:57:02.662,5,0.29,-0.42,0.02,99.4206,164.16719999999998,138.46620000000001,175,75
2026-05-11 17:57:02.673,5,1.09,-0.48,-0.07,97.8306,248.1572,118.8762,175,75
2026-05-11 17:57:02.684,5,0.1,-0.9,0.55,75.3106,248.1572,-130.9138,175,75
2026-05-11 17:57:02.701,5,2.0,-1.61,2.0,-49.3194,-69.9628,-246.53379999999999,175,75
2026-05-11 17:57:02.701,5,2.0,0.14,1.33,-119.1794,21.5272,-246.53379999999999,175,75
2026-05-11 17:57:02.722,5,2.0,-0.57,2.0,-114.6994,248.1572,-195.7638,175,75
2026-05-11 17:57:02.722,5,1.46,-0.59,2.0,-112.3994,248.1572,-162.4838,175,75
2026-05-11 17:57:02.738,5,-0.07,-0.76,2.0,-80.6494,248.1572,-184.1238,175,75
2026-05-11 17:57:02.753,5,-1.69,-0.49,2.0,21.5806,248.1572,-174.7938,175,75
2026-05-11 17:57:02.813,5,-2.0,0.31,2.0,73.4006,48.9672,-233.6538,175,75
2026-05-11 17:57:02.813,5,-2.0,0.41,2.0,52.0706,-171.6628,-224.9638,175,75
2026-05-11 17:57:02.823,5,-2.0,0.43,2.0,40.8806,-252.1128,-120.0338,175,75
2026-05-11 17:57:02.824,5,-0.8,0.47,2.0,56.7906,-252.1128,24.0962,175,75
2026-05-11 17:57:02.839,5,0.35,0.56,2.0,89.9806,-252.1128,143.9462,175,75
2026-05-11 17:57:02.850,5,1.83,0.57,1.59,77.2006,-252.1128,253.7362,175,75
2026-05-11 17:57:02.850,5,2.0,0.34,1.08,38.5406,-252.1128,253.7362,175,75
2026-05-11 17:57:02.850,5,2.0,-0.22,0.18,15.300600000000001,-114.7928,253.7362,175,75
2026-05-11 17:57:02.855,5,2.0,-0.58,-0.22,-7.019399999999999,118.6172,253.7362,175,75
2026-05-11 17:57:02.872,5,-0.77,-0.53,0.38,-64.1194,160.6572,231.3262,175,75
2026-05-11 17:57:02.893,5,-1.54,-0.7,0.49,-76.5994,80.10719999999999,148.3962,175,75
2026-05-11 17:57:02.906,5,-1.75,-0.83,0.58,-92.0794,-40.1728,49.556200000000004,175,75
2026-05-11 17:57:02.918,5,-0.63,-0.81,0.69,-114.3094,-104.45280000000001,-102.1338,175,75
2026-05-11 17:57:02.918,5,0.74,-0.61,0.69,-133.5094,-38.0428,-246.53379999999999,175,75
2026-05-11 17:57:02.943,5,1.03,-0.35,0.52,-134.0194,50.9772,-246.53379999999999,175,75
2026-05-11 17:57:02.943,5,0.69,-0.01,0.43,-111.4494,62.907199999999996,-246.53379999999999,175,75
2026-05-11 17:57:02.943,5,1.14,0.55,0.36,-70.5294,25.0472,-246.53379999999999,175,75
2026-05-11 17:57:02.954,5,2.0,1.04,0.08,-22.4994,28.377200000000002,-246.53379999999999,175,75
2026-05-11 17:57:02.973,5,1.04,0.98,-0.05,14.9406,31.647199999999998,-169.4538,175,75
2026-05-11 17:57:02.973,5,0.01,0.76,0.06,28.8306,5.207199999999999,-110.9138,175,75
2026-05-11 17:57:02.987,5,-0.62,0.62,0.04,26.6606,-45.5328,-89.46379999999999,175,75
2026-05-11 17:57:02.999,5,-0.74,0.44,-0.03,20.810599999999997,-110.56280000000001,-61.793800000000005,175,75
2026-05-11 17:57:03.015,5,-0.69,0.31,-0.19,22.3506,-183.0628,-6.5138,175,75
2026-05-11 17:57:03.027,5,-0.5,0.2,-0.41,34.3406,-252.1128,74.0962,175,75
2026-05-11 17:57:03.037,5,-0.28,0.19,-0.64,54.7106,-252.1128,163.2962,175,75
2026-05-11 17:57:03.052,5,-0.33,0.15,-0.26,104.5906,-252.1128,253.7362,175,75
2026-05-11 17:57:03.113,5,-0.31,-0.03,-0.03,110.4606,-252.1128,239.0062,175,75
2026-05-11 17:57:03.130,5,-0.09,-0.34,0.24,129.4806,-90.42280000000001,158.0562,175,75
2026-05-11 17:57:03.130,5,0.25,-0.44,0.26,138.6406,16.4572,119.6362,175,75
2026-05-11 17:57:03.130,5,0.64,-0.36,0.17,149.50060000000002,158.53719999999998,87.5562,175,75
2026-05-11 17:57:03.141,5,1.18,-0.41,0.23,157.1406,248.1572,74.9462,175,75
2026-05-11 17:57:03.156,5,-1.09,-0.78,2.0,153.59060000000002,248.1572,-13.633799999999999,175,75
2026-05-11 17:57:03.156,5,2.0,-0.61,2.0,-6.4894,16.0072,-140.9938,175,75
2026-05-11 17:57:03.166,5,0.84,-0.46,2.0,-50.5394,248.1572,-149.0438,175,75
2026-05-11 17:57:03.172,5,-0.95,-0.71,2.0,-55.7994,248.1572,-194.0638,175,75
2026-05-11 17:57:03.198,5,-2.0,-0.95,2.0,-4.8094,248.1572,-246.53379999999999,175,75
2026-05-11 17:57:03.209,5,-2.0,0.15,2.0,129.63060000000002,-164.27280000000002,-239.4338,175,75
2026-05-11 17:57:03.220,5,-1.1,0.71,2.0,117.1906,-252.1128,-138.3438,175,75
2026-05-11 17:57:03.221,5,0.14,0.66,2.0,84.6906,-252.1128,-61.7538,175,75
2026-05-11 17:57:03.234,5,1.0,0.53,1.9,55.2606,-252.1128,21.2662,175,75
2026-05-11 17:57:03.245,5,1.53,0.46,1.16,17.6906,-252.1128,117.4562,175,75
2026-05-11 17:57:03.256,5,1.71,0.47,0.58,-16.4994,-252.1128,215.9162,175,75
2026-05-11 17:57:03.262,5,2.0,0.35,-0.67,-40.7994,-125.73280000000001,253.7362,175,75
2026-05-11 17:57:03.302,5,2.0,0.13,-1.29,-87.9894,117.8372,206.4862,175,75
2026-05-11 17:57:03.323,5,-0.13,-0.07,-0.75,-121.7994,166.75719999999998,100.6862,175,75
2026-05-11 17:57:03.323,5,-1.24,-0.1,-0.65,-135.31939999999997,111.2072,14.6762,175,75
2026-05-11 17:57:03.338,5,-1.65,-0.23,-1.03,-107.5494,-102.4428,-174.3438,175,75
2026-05-11 17:57:03.346,5,-1.12,-0.19,-1.53,-73.6794,-185.6628,-246.53379999999999,175,75
2026-05-11 17:57:03.359,5,-0.28,-0.01,-1.94,27.2506,-168.8628,-246.53379999999999,175,75
2026-05-11 17:57:03.369,5,-0.49,0.21,-0.44,31.470599999999997,-117.62280000000001,-246.53379999999999,175,75
2026-05-11 17:57:03.375,5,-0.15,0.18,0.08,4.5306,-42.3328,-183.7638,175,75
2026-05-11 17:57:03.390,5,0.45,0.32,0.34,-34.6594,93.5272,-103.1538,175,75
2026-05-11 17:57:03.413,5,1.0,0.51,0.3,-78.0294,248.1572,-39.0238,175,75
2026-05-11 17:57:03.413,5,1.29,0.76,0.2,-125.4494,248.1572,-0.023800000000000043,175,75
2026-05-11 17:57:03.413,5,2.0,1.59,0.69,-198.6694,248.1572,4.4361999999999995,175,75
2026-05-11 17:57:03.425,5,2.0,2.0,2.0,-247.81939999999997,248.1572,253.7362,175,75
2026-05-11 17:57:03.437,5,-0.61,2.0,2.0,-208.36939999999998,145.1372,253.7362,175,75
2026-05-11 17:57:03.449,5,-1.96,0.84,2.0,-216.30939999999998,73.3672,253.7362,175,75
2026-05-11 17:57:03.470,5,-0.64,-0.13,2.0,-243.06939999999997,236.2372,224.8762,175,75
2026-05-11 17:57:03.470,5,-0.51,-1.72,2.0,-214.52939999999998,248.1572,49.0262,175,75
2026-05-11 17:57:03.506,5,-1.36,-2.0,2.0,-113.1994,248.1572,37.3962,175,75
2026-05-11 17:57:03.532,5,-2.0,-1.94,2.0,-36.5794,248.1572,128.3862,175,75
2026-05-11 17:57:03.532,5,-2.0,-2.0,2.0,49.7106,138.81719999999999,109.7362,175,75
2026-05-11 17:57:03.543,5,-2.0,-1.93,2.0,103.8206,-154.1228,-70.1138,175,75
2026-05-11 17:57:03.543,5,-2.0,-1.06,2.0,97.9306,-252.1128,-246.53379999999999,175,75
2026-05-11 17:57:03.543,5,-2.0,-0.6,2.0,71.7306,-252.1128,-246.53379999999999,175,75
2026-05-11 17:57:03.554,5,-0.54,-0.3,1.72,60.7006,-252.1128,-246.53379999999999,175,75
2026-05-11 17:57:03.554,5,0.28,0.19,1.08,70.8206,-252.1128,-246.53379999999999,175,75
2026-05-11 17:57:03.564,5,2.0,1.66,-0.78,145.5806,-194.0728,-38.7438,175,75
2026-05-11 17:57:03.575,5,2.0,1.15,0.07,111.7706,51.3372,106.5262,175,75
2026-05-11 17:57:03.623,5,-0.03,1.04,0.3,65.2406,102.3672,61.7562,175,75
2026-05-11 17:57:03.635,5,-0.83,0.79,0.35,12.1006,82.3072,-31.2538,175,75
2026-05-11 17:57:03.635,5,-1.01,0.41,0.18,-22.8394,22.627200000000002,-118.6838,175,75
2026-05-11 17:57:03.646,5,-0.6,-0.02,-0.1,-17.8294,-47.9128,-148.4138,175,75
2026-05-11 17:57:03.646,5,0.77,-0.23,-0.33,26.2606,-76.15280000000001,-93.0138,175,75
2026-05-11 17:57:03.658,5,1.84,0.0,-0.44,79.4106,-20.0828,60.4762,175,75
2026-05-11 17:57:03.658,5,1.04,0.31,-0.41,106.8806,30.687199999999997,162.7562,175,75
2026-05-11 17:57:03.662,5,0.41,0.35,-0.33,107.64059999999999,42.0372,197.8062,175,75
2026-05-11 17:57:03.675,5,-0.03,0.31,-0.24,88.7606,25.1172,197.4362,175,75
2026-05-11 17:57:03.675,5,-0.33,0.22,-0.23,59.870599999999996,-11.8028,172.4262,175,75
2026-05-11 17:57:03.687,5,-0.45,0.09,-0.27,32.5606,-55.2728,136.5062,175,75
2026-05-11 17:57:03.693,5,-0.48,0.01,-0.3,12.050600000000001,-95.12280000000001,95.0462,175,75
2026-05-11 17:57:03.707,5,-0.42,-0.01,-0.31,-2.9493999999999994,-123.45280000000001,48.8362,175,75
2026-05-11 17:57:03.720,5,-0.29,-0.02,-0.29,-10.379399999999999,-135.3928,3.3162,175,75
2026-05-11 17:57:03.726,5,-0.11,-0.0,-0.28,-11.5894,-129.9228,-36.6138,175,75
2026-05-11 17:57:03.738,5,0.0,0.04,-0.25,-10.4394,-111.4728,-62.7338,175,75
2026-05-11 17:57:03.753,5,0.09,-0.05,-0.18,-2.6594,-70.84280000000001,-49.4538,175,75
2026-05-11 17:57:03.809,5,2.0,-0.69,-0.07,75.2106,194.31719999999999,57.6762,175,75
2026-05-11 17:57:03.820,5,2.0,-2.0,1.35,160.84060000000002,248.1572,89.8062,175,75
2026-05-11 17:57:03.831,5,2.0,-1.38,2.0,55.5606,217.6872,38.7262,175,75
2026-05-11 17:57:03.831,5,0.86,-0.17,2.0,-19.889400000000002,248.1572,-1.3338000000000005,175,75
2026-05-11 17:57:03.854,5,-1.51,0.27,2.0,-78.6694,248.1572,-168.4838,175,75
2026-05-11 17:57:03.894,5,-2.0,-0.52,2.0,-120.1194,248.1572,-246.53379999999999,175,75
2026-05-11 17:57:03.939,5,-1.11,-0.11,2.0,73.9206,-56.5628,-246.53379999999999,175,75
2026-05-11 17:57:03.939,5,-1.37,0.42,2.0,118.3006,-194.5328,-75.3338,175,75
2026-05-11 17:57:03.949,5,-1.53,0.75,2.0,111.1706,-212.0128,-31.473799999999997,175,75
2026-05-11 17:57:03.949,5,-1.23,0.83,2.0,107.9706,-225.3128,-35.7338,175,75
2026-05-11 17:57:03.961,5,-0.38,0.82,2.0,109.9506,-252.1128,49.6662,175,75
2026-05-11 17:57:04.006,5,0.3,0.73,2.0,89.2606,-252.1128,151.4462,175,75
2026-05-11 17:57:04.019,5,1.17,0.31,1.37,15.950600000000001,-251.74280000000002,253.7362,175,75
2026-05-11 17:57:04.030,5,1.02,0.02,0.89,-10.459399999999999,-200.08280000000002,253.7362,175,75
2026-05-11 17:57:04.041,5,0.73,-0.26,0.53,-22.8094,-187.3728,253.7362,175,75
2026-05-11 17:57:04.041,5,1.24,-0.66,-0.01,-28.869400000000002,-161.3228,253.7362,175,75
2026-05-11 17:57:04.053,5,1.07,-1.0,-0.57,-33.7294,-55.8928,253.7362,175,75
2026-05-11 17:57:04.059,5,-0.06,-0.99,-0.46,-38.309400000000004,8.1472,175.7462,175,75
2026-05-11 17:57:04.070,5,-0.92,-0.9,-0.22,-31.739400000000003,15.077200000000001,26.636200000000002,175,75
2026-05-11 17:57:04.070,5,-1.5,-0.74,-0.02,-21.599400000000003,-25.0228,-107.4438,175,75
2026-05-11 17:57:04.091,5,-1.19,-0.51,-0.02,-21.8294,-77.36280000000001,-217.7438,175,75
2026-05-11 17:57:04.091,5,-0.04,-0.1,-0.03,-57.8394,-68.8228,-246.53379999999999,175,75
2026-05-11 17:57:04.104,5,0.94,0.23,-0.06,-118.21940000000001,22.9372,-246.53379999999999,175,75
2026-05-11 17:57:04.110,5,0.98,0.31,-0.03,-155.65939999999998,102.23719999999999,-246.53379999999999,175,75
2026-05-11 17:57:04.121,5,1.52,0.6,0.15,-141.8294,83.76719999999999,-246.53379999999999,175,75
2026-05-11 17:57:04.129,5,2.0,1.13,0.3,-95.7994,31.8072,-246.53379999999999,175,75
2026-05-11 17:57:04.139,5,1.15,1.06,0.45,-60.1194,-9.5328,-207.5938,175,75
2026-05-11 17:57:04.150,5,0.22,0.79,0.6,-39.2494,-44.5328,-144.7638,175,75
2026-05-11 17:57:04.153,5,-0.18,0.52,0.63,-27.1094,-62.7428,-128.3638,175,75
2026-05-11 17:57:04.159,5,-0.15,0.25,0.57,-11.1694,-65.9328,-99.2638,175,75
2026-05-11 17:57:04.172,5,-0.02,0.05,0.45,13.7306,-62.2228,-28.0538,175,75
2026-05-11 17:57:04.184,5,0.03,0.01,0.32,45.550599999999996,-58.9928,73.4562,175,75
2026-05-11 17:57:04.184,5,0.01,0.11,0.21,68.4006,-59.2528,158.6262,175,75
2026-05-11 17:57:04.195,5,0.01,0.22,0.12,83.4706,-61.1628,223.4562,175,75
2026-05-11 17:57:04.206,5,-0.01,0.25,0.01,88.0406,-65.89280000000001,253.7362,175,75
2026-05-11 17:57:04.206,5,-0.07,0.19,-0.02,89.9006,-72.34280000000001,253.7362,175,75
2026-05-11 17:57:04.213,5,-0.09,0.08,0.04,90.7406,-78.45280000000001,253.7362,175,75
2026-05-11 17:57:04.226,5,0.06,-0.04,0.11,91.9706,-75.4728,253.7362,175,75
2026-05-11 17:57:04.226,5,0.44,-0.14,0.16,95.53059999999999,-47.1928,253.7362,175,75
2026-05-11 17:57:04.237,5,1.33,-0.27,0.18,102.03059999999999,54.9272,253.7362,175,75
2026-05-11 17:57:04.237,5,2.0,-0.8,0.42,118.1306,235.75719999999998,240.0762,175,75
2026-05-11 17:57:04.248,5,1.44,-1.09,1.87,103.9106,248.1572,178.9462,175,75
2026-05-11 17:57:04.259,5,0.9,-1.14,2.0,-25.4894,228.9372,103.8362,175,75
2026-05-11 17:57:04.269,5,0.45,-0.99,2.0,-102.8694,232.6272,53.8962,175,75
2026-05-11 17:57:04.269,5,-1.04,-1.07,2.0,-97.4294,248.1572,-40.3838,175,75
2026-05-11 17:57:04.282,5,-2.0,-1.47,2.0,-31.949400000000004,248.1572,-196.0038,175,75
2026-05-11 17:57:04.300,5,-2.0,-1.71,2.0,66.9206,218.16719999999998,-246.53379999999999,175,75
2026-05-11 17:57:04.314,5,-1.79,-1.02,2.0,141.81060000000002,66.07719999999999,-246.53379999999999,175,75
2026-05-11 17:57:04.337,5,-0.85,0.63,2.0,116.3006,-252.1128,-246.53379999999999,175,75
2026-05-11 17:57:04.350,5,-0.26,0.75,1.89,93.7106,-252.1128,-201.2438,175,75
2026-05-11 17:57:04.350,5,0.37,0.74,1.59,68.0806,-252.1128,-130.3838,175,75
2026-05-11 17:57:04.373,5,1.57,0.58,0.83,16.1506,-252.1128,64.6062,175,75
2026-05-11 17:57:04.390,5,1.49,0.5,0.54,-7.369399999999999,-187.58280000000002,176.6862,175,75
2026-05-11 17:57:04.423,5,1.01,-0.0,-0.44,-87.9594,-36.6628,248.5262,175,75
2026-05-11 17:57:04.423,5,0.56,-0.11,-0.75,-120.2894,56.4272,130.7162,175,75
2026-05-11 17:57:04.438,5,-0.21,-0.11,-0.61,-154.11939999999998,93.71719999999999,6.616199999999999,175,75
2026-05-11 17:57:04.448,5,-0.76,-0.11,-0.51,-172.9894,71.0072,-88.2838,175,75
2026-05-11 17:57:04.460,5,-1.09,-0.06,-0.49,-176.80939999999998,8.9672,-163.5438,175,75
2026-05-11 17:57:04.460,5,-1.09,-0.01,-0.63,-170.0494,-72.5728,-220.9038,175,75
2026-05-11 17:57:04.471,5,-0.46,0.08,-1.03,-154.6694,-142.21280000000002,-240.4538,175,75
2026-05-11 17:57:04.493,5,0.77,-0.39,-1.03,-108.4794,-148.0628,-175.8538,175,75
2026-05-11 17:57:04.493,5,0.69,0.19,-1.46,-49.4694,-108.0828,-72.1438,175,75
2026-05-11 17:57:04.509,5,-0.32,0.28,-0.99,-16.279400000000003,-96.2728,-19.703799999999998,175,75
2026-05-11 17:57:04.520,5,-0.01,0.22,-0.24,-5.109399999999999,-65.7428,-12.1638,175,75
2026-05-11 17:57:04.532,5,0.62,0.2,-0.08,-6.9094,26.5572,11.8262,175,75
2026-05-11 17:57:04.543,5,0.92,0.15,-0.06,-10.119399999999999,154.9872,41.7562,175,75
2026-05-11 17:57:04.564,5,0.92,0.05,-0.13,-4.9094,248.1572,71.6762,175,75
2026-05-11 17:57:04.574,5,0.82,-0.1,0.21,17.1806,248.1572,103.39620000000001,175,75
2026-05-11 17:57:04.587,5,1.93,-0.96,2.0,79.4106,248.1572,44.4762,175,75
2026-05-11 17:57:04.597,5,2.0,-0.56,2.0,5.240600000000001,32.9372,66.9962,175,75
2026-05-11 17:57:04.608,5,2.0,-0.6,2.0,14.620600000000001,248.1572,94.9762,175,75
2026-05-11 17:57:04.619,5,1.0,-0.91,2.0,20.9406,248.1572,132.1162,175,75
2026-05-11 17:57:04.623,5,-0.25,-0.83,2.0,-30.7894,248.1572,199.1662,175,75
2026-05-11 17:57:04.655,5,-2.0,-1.96,2.0,-133.99939999999998,163.6772,-7.473800000000001,175,75
2026-05-11 17:57:04.666,5,-2.0,-2.0,2.0,-74.7594,-52.9828,-147.3838,175,75
2026-05-11 17:57:04.667,5,-2.0,-1.98,2.0,-5.8894,-212.21280000000002,-246.53379999999999,175,75
2026-05-11 17:57:04.678,5,-2.0,-1.27,2.0,23.610599999999998,-252.1128,-246.53379999999999,175,75
2026-05-11 17:57:04.745,5,1.29,1.24,1.45,-26.7594,-252.1128,-246.53379999999999,175,75
2026-05-11 17:57:04.750,5,2.0,2.0,1.08,-35.8594,-185.8828,-246.53379999999999,175,75
2026-05-11 17:57:04.762,5,2.0,2.0,0.61,-50.6594,62.3372,-246.53379999999999,175,75
2026-05-11 17:57:04.788,5,-1.4,1.03,0.54,-205.2094,22.947200000000002,-246.53379999999999,175,75
2026-05-11 17:57:04.798,5,-0.65,0.53,0.06,-186.5194,-90.6928,-246.53379999999999,175,75
2026-05-11 17:57:04.819,5,0.71,0.75,-0.46,-50.809400000000004,-133.2528,53.3862,175,75
2026-05-11 17:57:04.819,5,0.15,1.04,-0.3,-30.7294,-102.0228,142.5362,175,75
2026-05-11 17:57:04.832,5,-0.38,0.97,-0.27,-29.699400000000004,-77.5828,140.6962,175,75
2026-05-11 17:57:04.843,5,-0.57,0.65,-0.43,-16.8294,-64.67280000000001,90.6262,175,75
2026-05-11 17:57:04.853,5,-0.38,0.3,-0.57,20.9206,-56.202799999999996,58.736200000000004,175,75
2026-05-11 17:57:04.864,5,-0.24,-0.01,-0.64,79.1706,-56.7628,72.3462,175,75
2026-05-11 17:57:04.864,5,-0.17,-0.15,-0.55,136.8906,-67.2128,113.2062,175,75
2026-05-11 17:57:04.878,5,-0.03,-0.09,-0.41,182.5706,-74.4628,162.2662,175,75
2026-05-11 17:57:04.892,5,0.14,-0.02,-0.23,207.40060000000003,-66.0228,206.7762,175,75
2026-05-11 17:57:04.895,5,0.3,0.1,-0.08,197.13060000000002,-17.4728,253.7362,175,75
2026-05-11 17:57:04.937,5,0.17,-0.22,-0.5,139.9206,121.4772,210.5262,175,75
2026-05-11 17:57:04.956,5,-0.97,-0.27,-0.11,78.1706,81.23719999999999,19.6462,175,75
2026-05-11 17:57:04.976,5,-0.26,-0.39,0.33,-22.2594,-138.3728,-183.0538,175,75
2026-05-11 17:57:04.987,5,0.25,-0.56,0.39,-17.549400000000002,-157.1228,-200.4238,175,75
2026-05-11 17:57:04.999,5,0.8,-0.78,0.65,-2.0593999999999997,-142.1028,-194.78379999999999,175,75
2026-05-11 17:57:05.009,5,2.0,-1.03,2.0,44.4106,189.3372,-108.5538,175,75
2026-05-11 17:57:05.020,5,2.0,-0.21,2.0,22.3506,248.1572,-120.1538,175,75
2026-05-11 17:57:05.031,5,1.34,0.1,2.0,5.0106,248.1572,-246.53379999999999,175,75
2026-05-11 17:57:05.031,5,-0.59,0.24,2.0,-22.369400000000002,248.1572,-246.53379999999999,175,75
2026-05-11 17:57:05.045,5,-2.0,-0.14,2.0,-47.8894,248.1572,-246.53379999999999,175,75
2026-05-11 17:57:05.056,5,-2.0,-0.43,2.0,-44.4594,142.6372,-246.53379999999999,175,75
2026-05-11 17:57:05.068,5,-2.0,-0.63,2.0,-39.6794,-56.2528,-139.8938,175,75
2026-05-11 17:57:05.081,5,-1.82,-0.54,2.0,-42.3694,-140.3128,34.4062,175,75
2026-05-11 17:57:05.091,5,-1.13,-0.15,2.0,-53.629400000000004,-147.6328,152.0962,175,75
2026-05-11 17:57:05.091,5,-1.29,0.06,2.0,-74.0294,-234.77280000000002,165.2962,175,75
2026-05-11 17:57:05.110,5,-0.75,-0.13,2.0,-96.3394,-252.1128,119.3862,175,75
2026-05-11 17:57:05.129,5,0.49,-0.38,1.79,-124.8894,-252.1128,105.4162,175,75
2026-05-11 17:57:05.140,5,0.45,-0.33,1.3,-145.7894,-252.1128,97.5262,175,75
2026-05-11 17:57:05.152,5,0.29,-0.29,0.78,-168.0794,-252.1128,43.4562,175,75
2026-05-11 17:57:05.169,5,2.0,-0.23,-0.12,-195.5794,-230.52280000000002,-147.3338,175,75
2026-05-11 17:57:05.169,5,2.0,-0.12,-0.57,-230.9894,45.0972,-246.53379999999999,175,75
2026-05-11 17:57:05.181,5,0.73,0.0,-0.06,-237.36939999999998,148.1372,-246.53379999999999,175,75
2026-05-11 17:57:05.217,5,-0.58,0.92,0.12,-247.81939999999997,5.047199999999999,-246.53379999999999,175,75
