Time,ID,Ax,Ay,Az,Gx,Gy,Gz,Height,Weight
2026-05-09 16:02:16.005,5,1.79,0.76,0.06,74.6142,-152.4082,-89.0252,175,75
2026-05-09 16:02:16.023,5,0.84,0.74,0.24,59.1342,-74.06819999999999,-58.5352,175,75
2026-05-09 16:02:16.044,5,-0.14,0.19,0.21,33.3842,-10.478200000000001,-75.42519999999999,175,75
2026-05-09 16:02:16.044,5,-0.36,-0.04,0.08,41.324200000000005,-19.348200000000002,-68.20519999999999,175,75
2026-05-09 16:02:16.058,5,-0.43,-0.18,-0.04,56.8842,-47.688199999999995,-46.8452,175,75
2026-05-09 16:02:16.068,5,-0.48,-0.28,-0.21,81.9042,-92.37819999999999,-3.9151999999999996,175,75
2026-05-09 16:02:16.077,5,-0.48,-0.31,-0.37,106.5942,-144.0882,46.8848,175,75
2026-05-09 16:02:16.086,5,-0.44,-0.2,-0.6,119.2842,-195.91819999999998,92.2248,175,75
2026-05-09 16:02:16.103,5,-0.27,-0.33,-0.53,143.6242,-231.9782,128.7548,175,75
2026-05-09 16:02:16.116,5,0.1,-0.08,-0.85,121.27420000000001,-202.6082,146.41479999999999,175,75
2026-05-09 16:02:16.127,5,-0.06,-0.14,-0.64,99.7542,-167.7782,137.7248,175,75
2026-05-09 16:02:16.138,5,-0.1,-0.18,-0.38,76.1542,-126.3082,124.4748,175,75
2026-05-09 16:02:16.148,5,-0.07,-0.22,-0.19,52.4742,-61.048199999999994,99.37480000000001,175,75
2026-05-09 16:02:16.159,5,0.0,-0.27,-0.11,35.294200000000004,9.951799999999999,70.4848,175,75
2026-05-09 16:02:16.169,5,0.27,-0.29,-0.1,20.644199999999998,98.5318,47.1148,175,75
2026-05-09 16:02:16.180,5,0.65,-0.29,-0.1,8.3242,212.7518,35.1348,175,75
2026-05-09 16:02:16.191,5,1.22,-0.37,-0.11,3.7441999999999998,247.3818,41.324799999999996,175,75
2026-05-09 16:02:16.202,5,2.0,-0.65,-0.05,26.3642,247.3818,69.0848,175,75
2026-05-09 16:02:16.204,5,2.0,1.1,-1.5,46.4842,247.3818,111.6648,175,75
2026-05-09 16:02:16.218,5,2.0,0.53,2.0,48.5142,247.3818,249.9748,175,75
2026-05-09 16:02:16.243,5,1.0,0.29,2.0,-89.5058,205.2318,-11.795200000000001,175,75
2026-05-09 16:02:16.261,5,-1.38,0.18,2.0,-144.5358,247.3818,-247.3252,175,75
2026-05-09 16:02:16.274,5,-2.0,0.08,2.0,-146.5758,247.3818,-250.2952,175,75
2026-05-09 16:02:16.284,5,-1.15,0.33,2.0,-150.0958,29.7818,-110.4952,175,75
2026-05-09 16:02:16.304,5,-0.91,-0.12,2.0,-100.1158,-52.758199999999995,93.40480000000001,175,75
2026-05-09 16:02:16.334,5,-0.52,-0.11,2.0,-35.7758,-252.88819999999998,249.9748,175,75
2026-05-09 16:02:16.344,5,-0.55,-0.7,1.86,-71.3558,-252.88819999999998,249.9748,175,75
2026-05-09 16:02:16.344,5,0.34,-1.25,1.18,-98.6758,-252.88819999999998,249.9748,175,75
2026-05-09 16:02:16.374,5,1.83,-2.0,-0.4,-2.6458,-252.88819999999998,232.4048,175,75
2026-05-09 16:02:16.385,5,1.17,-1.61,-0.72,21.3242,-141.9282,-27.8952,175,75
2026-05-09 16:02:16.385,5,0.18,-1.18,-0.33,53.744200000000006,-4.8382,-198.95520000000002,175,75
2026-05-09 16:02:16.394,5,-0.38,-0.66,-0.02,83.6842,55.101800000000004,-250.2952,175,75
2026-05-09 16:02:16.406,5,-0.62,-0.25,0.08,96.7942,73.8518,-250.2952,175,75
2026-05-09 16:02:16.417,5,-0.55,0.21,0.2,89.4842,77.4918,-250.2952,175,75
2026-05-09 16:02:16.433,5,-0.44,0.7,0.27,56.8342,77.3518,-250.2952,175,75
2026-05-09 16:02:16.440,5,-0.16,1.02,0.19,-4.5558,76.7518,-250.2952,175,75
2026-05-09 16:02:16.446,5,1.48,1.39,-0.17,-68.8158,88.4618,-250.2952,175,75
2026-05-09 16:02:16.455,5,2.0,1.66,-0.52,-91.3258,86.3318,-237.89520000000002,175,75
2026-05-09 16:02:16.480,5,0.23,0.86,0.43,-148.0958,28.7918,-82.22519999999999,175,75
2026-05-09 16:02:16.495,5,0.35,0.25,0.54,-132.8358,88.0218,-77.53519999999999,175,75
2026-05-09 16:02:16.495,5,0.64,0.04,0.89,-102.1058,142.0318,-35.1952,175,75
2026-05-09 16:02:16.505,5,0.59,0.14,0.81,-46.0558,164.2318,66.0848,175,75
2026-05-09 16:02:16.528,5,-0.36,0.1,0.8,68.5142,116.1118,178.3048,175,75
2026-05-09 16:02:16.541,5,-0.64,0.08,0.68,86.2142,56.6918,205.0848,175,75
2026-05-09 16:02:16.547,5,-0.76,0.04,0.62,85.66420000000001,-8.078199999999999,208.9548,175,75
2026-05-09 16:02:16.560,5,-0.71,-0.04,0.51,75.6742,-81.4182,210.16479999999999,175,75
2026-05-09 16:02:16.570,5,-0.46,-0.09,0.32,63.784200000000006,-150.0982,215.0548,175,75
2026-05-09 16:02:16.597,5,2.0,-0.41,-1.16,38.794200000000004,-49.8482,126.88480000000001,175,75
2026-05-09 16:02:16.608,5,1.21,-0.44,-0.89,8.7142,89.8118,15.4248,175,75
2026-05-09 16:02:16.631,5,0.59,-0.76,-0.05,6.8142,55.101800000000004,95.57480000000001,175,75
2026-05-09 16:02:16.644,5,0.97,-0.81,0.31,18.8442,100.7118,149.3748,175,75
2026-05-09 16:02:16.644,5,0.6,-0.85,0.97,19.2542,132.7418,80.46480000000001,175,75
2026-05-09 16:02:16.664,5,0.01,-1.34,2.0,6.514200000000001,45.3318,-142.0452,175,75
2026-05-09 16:02:16.673,5,2.0,-0.55,2.0,-22.4358,98.4618,-225.6352,175,75
2026-05-09 16:02:16.674,5,1.77,-0.02,2.0,-71.6458,209.6618,-179.8552,175,75
2026-05-09 16:02:16.688,5,0.81,0.08,2.0,-122.8458,247.3818,-171.6652,175,75
2026-05-09 16:02:16.705,5,-0.93,-0.16,2.0,-150.6458,247.3818,-220.5252,175,75
2026-05-09 16:02:16.718,5,-1.06,-0.14,2.0,-103.7458,180.6718,-185.6852,175,75
2026-05-09 16:02:16.730,5,-1.23,-0.05,2.0,-54.505799999999994,67.7518,-129.6252,175,75
2026-05-09 16:02:16.734,5,-1.51,-0.0,2.0,-14.6158,-54.5682,-43.3352,175,75
2026-05-09 16:02:16.753,5,-1.85,-0.06,2.0,22.964199999999998,-176.13819999999998,27.0948,175,75
2026-05-09 16:02:16.764,5,-1.83,0.01,2.0,35.1542,-252.88819999999998,82.60480000000001,175,75
2026-05-09 16:02:16.782,5,-0.63,-0.1,1.33,46.4042,-252.88819999999998,148.3348,175,75
2026-05-09 16:02:16.797,5,0.3,-0.25,0.31,56.034200000000006,-252.88819999999998,242.9348,175,75
2026-05-09 16:02:16.810,5,1.23,-0.42,-0.67,83.94420000000001,-252.88819999999998,249.9748,175,75
2026-05-09 16:02:16.828,5,2.0,-0.68,-2.0,65.1742,35.9018,4.8648,175,75
2026-05-09 16:02:16.853,5,-1.53,-0.63,-0.74,93.4342,-17.6682,-88.48519999999999,175,75
2026-05-09 16:02:16.873,5,-2.0,0.02,-0.45,71.0042,-252.88819999999998,-180.8852,175,75
2026-05-09 16:02:16.876,5,-1.78,0.18,-0.98,18.8442,-252.88819999999998,-225.2252,175,75
2026-05-09 16:02:16.920,5,-0.28,0.55,0.06,-206.98579999999998,-143.4882,-181.36520000000002,175,75
2026-05-09 16:02:16.946,5,2.0,0.54,-1.04,-143.7758,247.3818,41.1548,175,75
2026-05-09 16:02:16.956,5,2.0,1.06,-0.9,-120.9058,247.3818,200.6548,175,75
2026-05-09 16:02:16.966,5,2.0,1.04,-0.23,-149.04579999999999,247.3818,249.9748,175,75
2026-05-09 16:02:16.978,5,2.0,-0.24,-0.05,-166.8658,247.3818,249.9748,175,75
2026-05-09 16:02:16.993,5,0.06,0.08,2.0,-179.1858,247.3818,249.9748,175,75
2026-05-09 16:02:17.005,5,0.86,-1.02,2.0,-125.0158,140.0118,156.3148,175,75
2026-05-09 16:02:17.005,5,-0.34,-0.95,1.82,-77.2158,179.6818,107.40480000000001,175,75
2026-05-09 16:02:17.016,5,-1.64,-1.12,1.53,-28.2258,247.3818,33.2048,175,75
2026-05-09 16:02:17.026,5,-2.0,-1.29,1.35,41.0142,247.3818,-54.7552,175,75
2026-05-09 16:02:17.037,5,-2.0,-1.35,1.45,112.4242,215.8818,-105.1352,175,75
2026-05-09 16:02:17.051,5,-2.0,-0.54,2.0,128.3842,-51.7682,-155.58520000000001,175,75
2026-05-09 16:02:17.061,5,-1.41,-0.43,2.0,124.5142,-252.88819999999998,-238.8152,175,75
2026-05-09 16:02:17.072,5,0.25,0.23,2.0,110.2042,-252.88819999999998,-250.2952,175,75
2026-05-09 16:02:17.092,5,1.1,0.58,1.6,86.6042,-252.88819999999998,-244.1352,175,75
2026-05-09 16:02:17.104,5,1.1,0.6,1.24,71.91420000000001,-251.13819999999998,-227.2552,175,75
2026-05-09 16:02:17.115,5,1.59,0.53,0.93,57.684200000000004,-183.5282,-176.14520000000002,175,75
2026-05-09 16:02:17.115,5,2.0,0.64,0.63,55.934200000000004,-96.98819999999999,-55.5052,175,75
2026-05-09 16:02:17.126,5,1.67,0.72,0.49,49.174200000000006,-6.4382,38.0548,175,75
2026-05-09 16:02:17.136,5,0.89,0.69,0.49,37.294200000000004,46.9318,64.7348,175,75
2026-05-09 16:02:17.156,5,0.38,0.31,0.6,19.7542,46.4018,31.2848,175,75
2026-05-09 16:02:17.167,5,0.4,0.22,0.74,20.8742,31.451800000000002,17.2048,175,75
2026-05-09 16:02:17.181,5,0.31,0.17,0.75,27.4442,19.3618,9.2348,175,75
2026-05-09 16:02:17.193,5,0.15,0.18,0.68,37.4742,-1.0681999999999998,9.3048,175,75
2026-05-09 16:02:17.204,5,0.04,0.21,0.65,41.8442,-24.278200000000002,11.6448,175,75
2026-05-09 16:02:17.214,5,-0.04,0.21,0.6,40.284200000000006,-42.3782,12.6648,175,75
2026-05-09 16:02:17.214,5,-0.07,0.2,0.51,35.994200000000006,-59.218199999999996,18.1248,175,75
2026-05-09 16:02:17.225,5,-0.06,0.15,0.35,32.3742,-78.23819999999999,33.7648,175,75
2026-05-09 16:02:17.235,5,-0.02,0.08,0.18,34.254200000000004,-99.6982,60.6048,175,75
2026-05-09 16:02:17.249,5,-0.06,0.02,0.0,43.0842,-124.6982,92.8448,175,75
2026-05-09 16:02:17.262,5,-0.13,-0.06,-0.19,56.8742,-148.1882,115.0648,175,75
2026-05-09 16:02:17.279,5,-0.05,-0.61,-0.22,99.3442,-188.13819999999998,142.98479999999998,175,75
2026-05-09 16:02:17.294,5,-0.29,-0.05,-1.11,125.2142,-224.5982,154.9048,175,75
2026-05-09 16:02:17.304,5,-0.14,0.0,-1.68,138.5242,-252.88819999999998,171.13479999999998,175,75
2026-05-09 16:02:17.308,5,0.18,-0.09,-1.56,149.1642,-247.13819999999998,174.1548,175,75
2026-05-09 16:02:17.319,5,0.29,-0.17,-0.98,133.2442,-177.4782,155.3048,175,75
2026-05-09 16:02:17.338,5,0.07,-0.3,-0.31,80.9542,-7.1982,89.6948,175,75
2026-05-09 16:02:17.383,5,2.0,-1.4,-0.15,204.8342,247.3818,139.0048,175,75
2026-05-09 16:02:17.383,5,2.0,-0.58,-0.03,239.0642,247.3818,115.01480000000001,175,75
2026-05-09 16:02:17.422,5,-0.99,0.62,2.0,-73.9558,247.3818,-250.2952,175,75
2026-05-09 16:02:17.431,5,-2.0,0.8,2.0,-153.8358,247.3818,-250.2952,175,75
2026-05-09 16:02:17.443,5,-2.0,0.85,2.0,-146.1558,81.43180000000001,-250.2952,175,75
2026-05-09 16:02:17.444,5,-2.0,0.76,2.0,-131.9058,-142.41819999999998,-144.6852,175,75
2026-05-09 16:02:17.464,5,-1.83,0.68,2.0,-122.9658,-247.0882,13.784799999999999,175,75
2026-05-09 16:02:17.474,5,-0.46,0.59,2.0,-86.1558,-252.88819999999998,184.4948,175,75
2026-05-09 16:02:17.474,5,0.08,0.38,2.0,-12.8758,-241.3682,249.9748,175,75
2026-05-09 16:02:17.492,5,0.46,0.47,2.0,4.0342,-223.7982,249.9748,175,75
2026-05-09 16:02:17.494,5,0.55,0.28,1.92,-13.325800000000001,-207.69819999999999,249.9748,175,75
2026-05-09 16:02:17.507,5,0.3,-0.2,1.41,-47.4858,-252.88819999999998,249.9748,175,75
2026-05-09 16:02:17.519,5,-0.03,-0.7,1.12,-126.2958,-252.88819999999998,249.9748,175,75
2026-05-09 16:02:17.525,5,2.0,-2.0,-0.2,-126.8158,-252.88819999999998,249.9748,175,75
2026-05-09 16:02:17.544,5,1.98,-2.0,-1.2,-44.325799999999994,-199.5582,249.9748,175,75
2026-05-09 16:02:17.544,5,0.0,-1.83,-0.42,25.6142,-31.418200000000002,82.5648,175,75
2026-05-09 16:02:17.555,5,-0.89,-1.21,0.17,77.02420000000001,51.0418,-106.3852,175,75
2026-05-09 16:02:17.576,5,-1.29,-0.33,0.35,131.3542,68.7418,-250.2952,175,75
2026-05-09 16:02:17.593,5,-0.88,0.13,0.31,133.7442,58.8218,-250.2952,175,75
2026-05-09 16:02:17.603,5,-0.53,0.59,0.26,113.6542,57.101800000000004,-250.2952,175,75
2026-05-09 16:02:17.614,5,-0.16,1.17,0.2,63.674200000000006,61.421800000000005,-250.2952,175,75
2026-05-09 16:02:17.625,5,1.77,1.46,-0.58,-2.9358,63.1418,-250.2952,175,75
2026-05-09 16:02:17.625,5,1.96,1.83,-0.55,27.2742,-57.4882,-111.36519999999999,175,75
2026-05-09 16:02:17.637,5,-0.0,1.85,0.13,-54.9458,-107.62819999999999,-38.245200000000004,175,75
2026-05-09 16:02:17.654,5,0.06,0.79,0.09,-107.5258,-97.1982,-53.0052,175,75
2026-05-09 16:02:17.654,5,0.04,0.21,0.18,-114.1258,-63.3082,-40.8152,175,75
2026-05-09 16:02:17.675,5,0.05,-0.32,0.34,-77.80579999999999,26.581799999999998,-1.6752,175,75
2026-05-09 16:02:17.686,5,-0.01,-0.27,0.16,-38.6158,66.62180000000001,28.4748,175,75
2026-05-09 16:02:17.696,5,0.07,-0.29,-0.01,12.4542,82.9818,81.6648,175,75
2026-05-09 16:02:17.707,5,0.22,-0.04,0.02,59.2242,53.0418,180.6148,175,75
2026-05-09 16:02:17.717,5,0.43,0.22,0.16,74.0942,34.0418,249.9748,175,75
2026-05-09 16:02:17.728,5,0.9,0.24,0.17,73.3242,42.021800000000006,249.9748,175,75
2026-05-09 16:02:17.739,5,1.25,0.23,0.22,56.9542,58.061800000000005,249.9748,175,75
2026-05-09 16:02:17.751,5,1.57,-0.03,0.28,20.7042,61.6118,249.9748,175,75
2026-05-09 16:02:17.759,5,0.58,-0.62,0.7,-23.1258,43.491800000000005,249.9748,175,75
2026-05-09 16:02:17.779,5,0.72,-1.4,1.19,-15.085799999999999,124.4618,105.18480000000001,175,75
2026-05-09 16:02:17.791,5,-0.4,-1.14,2.0,-5.755800000000001,130.6818,-90.00519999999999,175,75
2026-05-09 16:02:17.794,5,1.73,-0.68,2.0,-41.3358,203.4918,-240.7552,175,75
2026-05-09 16:02:17.809,5,0.68,-0.78,2.0,-79.5258,247.3818,-250.2952,175,75
2026-05-09 16:02:17.824,5,-0.11,-0.77,2.0,-101.2658,247.3818,-250.2952,175,75
2026-05-09 16:02:17.834,5,-0.22,-0.38,2.0,-130.3558,247.3818,-250.2952,175,75
2026-05-09 16:02:17.834,5,-0.33,-0.18,2.0,-138.6358,194.7218,-232.1252,175,75
2026-05-09 16:02:17.846,5,-1.17,-0.19,2.0,-105.9858,103.40180000000001,-168.7552,175,75
2026-05-09 16:02:17.863,5,-1.55,0.05,2.0,-58.995799999999996,23.3718,-182.1952,175,75
2026-05-09 16:02:17.874,5,-1.64,-0.02,2.0,15.774199999999999,-91.1182,-192.1052,175,75
2026-05-09 16:02:17.887,5,-1.06,0.12,2.0,86.6342,-252.88819999999998,-85.17519999999999,175,75
2026-05-09 16:02:17.898,5,-0.91,0.25,1.83,115.0042,-252.88819999999998,4.2348,175,75
2026-05-09 16:02:17.898,5,-0.29,0.38,1.43,117.9542,-252.88819999999998,46.3848,175,75
2026-05-09 16:02:17.908,5,0.55,0.34,1.06,105.5342,-252.88819999999998,93.35480000000001,175,75
2026-05-09 16:02:17.923,5,0.94,0.24,0.43,103.1442,-252.88819999999998,173.3448,175,75
2026-05-09 16:02:17.935,5,1.65,0.09,-0.33,117.0942,-252.88819999999998,249.9748,175,75
2026-05-09 16:02:17.935,5,2.0,0.32,-1.5,142.20420000000001,-252.88819999999998,249.9748,175,75
2026-05-09 16:02:17.949,5,2.0,-0.11,-2.0,176.8042,-204.13819999999998,249.9748,175,75
2026-05-09 16:02:17.960,5,0.15,-0.37,-2.0,133.7742,-93.2782,149.5248,175,75
2026-05-09 16:02:17.974,5,-1.46,-0.46,-1.43,103.1442,-109.45819999999999,-5.425199999999999,175,75
2026-05-09 16:02:17.974,5,-2.0,-0.22,-0.69,76.1842,-204.5982,-105.6552,175,75
2026-05-09 16:02:18.012,5,-1.0,-0.04,-0.63,-71.3658,-252.88819999999998,-175.6552,175,75
2026-05-09 16:02:18.035,5,0.52,0.31,-0.88,-136.54579999999999,-252.88819999999998,-82.3852,175,75
2026-05-09 16:02:18.035,5,0.44,0.47,-0.78,-149.9758,-143.19819999999999,-48.425200000000004,175,75
2026-05-09 16:02:18.045,5,0.69,0.48,-0.86,-139.4158,7.8618,-25.0852,175,75
2026-05-09 16:02:18.064,5,1.17,0.65,-0.96,-103.8258,197.4518,-5.8452,175,75
2026-05-09 16:02:18.064,5,2.0,0.56,-0.87,-73.3158,247.3818,10.614799999999999,175,75
2026-05-09 16:02:18.083,5,2.0,0.91,-0.27,-55.0558,247.3818,58.7248,175,75
2026-05-09 16:02:18.110,5,2.0,2.0,2.0,-226.5358,247.3818,249.9748,175,75
2026-05-09 16:02:18.124,5,-0.68,-1.14,2.0,-124.4858,247.3818,249.9748,175,75
2026-05-09 16:02:18.144,5,-2.0,-1.38,2.0,-51.0858,233.6018,40.6948,175,75
2026-05-09 16:02:18.144,5,-2.0,-1.46,2.0,-11.155800000000001,175.6918,-61.425200000000004,175,75
2026-05-09 16:02:18.155,5,-2.0,-1.53,2.0,23.964199999999998,-57.938199999999995,-122.7152,175,75
2026-05-09 16:02:18.165,5,-2.0,-1.29,2.0,77.7442,-252.88819999999998,-200.7252,175,75
2026-05-09 16:02:18.178,5,-0.71,-0.47,2.0,106.2542,-252.88819999999998,-249.1352,175,75
2026-05-09 16:02:18.203,5,1.12,0.59,1.63,98.9742,-252.88819999999998,-250.2952,175,75
2026-05-09 16:02:18.214,5,1.36,0.74,1.2,74.5142,-252.88819999999998,-250.2952,175,75
2026-05-09 16:02:18.214,5,2.0,0.9,0.83,45.8042,-252.88819999999998,-250.2952,175,75
2026-05-09 16:02:18.249,5,0.89,0.73,0.53,-7.555800000000001,120.65180000000001,39.6148,175,75
2026-05-09 16:02:18.259,5,0.11,0.58,0.49,-27.515800000000002,145.5718,3.4048,175,75
2026-05-09 16:02:18.270,5,-0.26,0.35,0.41,-30.1258,95.5718,-53.1452,175,75
2026-05-09 16:02:18.293,5,0.12,0.25,0.43,28.6342,-44.6382,-78.62519999999999,175,75
2026-05-09 16:02:18.309,5,0.4,0.41,0.61,46.324200000000005,-65.9282,-48.0352,175,75
2026-05-09 16:02:18.315,5,0.27,0.37,0.54,50.104200000000006,-77.6482,-7.7852,175,75
2026-05-09 16:02:18.315,5,0.09,0.3,0.46,51.3142,-89.5782,18.8648,175,75
2026-05-09 16:02:18.325,5,0.01,0.25,0.41,47.9842,-100.8082,36.6648,175,75
2026-05-09 16:02:18.345,5,-0.09,0.07,0.2,42.074200000000005,-124.1082,69.99480000000001,175,75
2026-05-09 16:02:18.357,5,-0.11,-0.08,0.01,47.674200000000006,-144.2082,93.1148,175,75
2026-05-09 16:02:18.367,5,-0.22,-0.1,-0.32,64.6542,-170.2182,116.46480000000001,175,75
2026-05-09 16:02:18.384,5,-0.32,-0.09,-0.72,74.3142,-204.2482,126.1148,175,75
2026-05-09 16:02:18.392,5,-0.36,0.15,-1.42,96.3542,-233.9082,122.5648,175,75
2026-05-09 16:02:18.417,5,-0.52,0.02,-0.89,78.9742,-252.88819999999998,51.3148,175,75
2026-05-09 16:02:18.427,5,-0.31,-0.07,-0.45,49.034200000000006,-243.9582,61.1248,175,75
2026-05-09 16:02:18.439,5,-0.07,-0.33,-0.39,43.5142,-193.7082,78.49480000000001,175,75
2026-05-09 16:02:18.486,5,0.73,-0.05,-0.43,-32.035799999999995,247.3818,-69.39519999999999,175,75
2026-05-09 16:02:18.503,5,2.0,-1.42,0.22,15.504199999999999,247.3818,24.1248,175,75
2026-05-09 16:02:18.538,5,-1.2,0.1,2.0,-27.285800000000002,247.3818,-107.0552,175,75
2026-05-09 16:02:18.556,5,-2.0,0.24,2.0,-85.2658,247.3818,-250.2952,175,75
2026-05-09 16:02:18.567,5,-2.0,0.65,2.0,-90.9558,-64.3982,-179.9352,175,75
2026-05-09 16:02:18.578,5,-2.0,0.51,2.0,-102.6558,-252.88819999999998,4.0848,175,75
2026-05-09 16:02:18.590,5,-0.84,0.33,2.0,-91.7058,-252.88819999999998,102.65480000000001,175,75
2026-05-09 16:02:18.603,5,0.17,0.1,2.0,-17.8258,-252.88819999999998,220.9548,175,75
2026-05-09 16:02:18.603,5,0.37,0.17,2.0,16.4542,-252.88819999999998,249.9748,175,75
2026-05-09 16:02:18.616,5,0.2,0.12,2.0,-24.445800000000002,-252.88819999999998,249.9748,175,75
2026-05-09 16:02:18.626,5,0.54,-0.34,1.53,-63.1058,-252.88819999999998,249.9748,175,75
2026-05-09 16:02:18.637,5,0.83,-0.77,0.93,-69.9658,-252.88819999999998,249.9748,175,75
2026-05-09 16:02:18.676,5,0.26,-1.36,-0.25,70.9042,33.561800000000005,-79.0252,175,75
2026-05-09 16:02:18.714,5,-0.79,-0.11,0.38,100.4542,89.4518,-250.2952,175,75
2026-05-09 16:02:18.714,5,-0.64,0.26,0.43,80.55420000000001,60.2518,-250.2952,175,75
2026-05-09 16:02:18.725,5,-0.52,0.64,0.42,42.424200000000006,31.881800000000002,-250.2952,175,75
2026-05-09 16:02:18.738,5,-0.08,0.84,0.1,-6.2158,-10.508199999999999,-250.2952,175,75
2026-05-09 16:02:18.752,5,1.77,1.17,-0.61,-31.1658,-81.8582,-250.2952,175,75
2026-05-09 16:02:18.763,5,1.44,1.21,-0.32,-22.355800000000002,-134.1582,-71.0452,175,75
2026-05-09 16:02:18.774,5,0.27,1.23,-0.12,-70.3258,-127.2982,-40.7352,175,75
2026-05-09 16:02:18.774,5,0.12,0.61,-0.07,-93.0758,-108.0582,-33.7352,175,75
2026-05-09 16:02:18.785,5,0.02,0.26,0.02,-89.80579999999999,-77.1682,-24.2652,175,75
2026-05-09 16:02:18.796,5,-0.02,0.15,0.05,-70.6058,-36.7682,-21.1452,175,75
2026-05-09 16:02:18.839,5,0.3,0.21,-0.13,48.674200000000006,121.9418,128.3448,175,75
2026-05-09 16:02:18.865,5,1.07,0.05,0.14,60.7042,203.1718,249.9748,175,75
2026-05-09 16:02:18.880,5,1.49,0.08,0.56,31.234199999999998,148.4718,249.9748,175,75
2026-05-09 16:02:18.913,5,0.65,-1.33,1.95,-20.035800000000002,113.8218,35.3148,175,75
2026-05-09 16:02:18.924,5,0.91,-0.55,2.0,-65.0358,247.3818,-226.0052,175,75
2026-05-09 16:02:18.942,5,0.13,-0.88,2.0,-86.0758,247.3818,-250.2952,175,75
2026-05-09 16:02:18.953,5,-0.44,-0.91,2.0,-82.5458,247.3818,-250.2952,175,75
2026-05-09 16:02:18.999,5,-1.53,0.23,2.0,68.6842,-252.88819999999998,-131.8852,175,75
2026-05-09 16:02:19.004,5,-1.19,0.31,2.0,95.08420000000001,-252.88819999999998,-13.6852,175,75
2026-05-09 16:02:19.019,5,-0.67,0.3,1.5,98.5442,-252.88819999999998,42.9448,175,75
2026-05-09 16:02:19.044,5,0.77,0.17,0.51,77.3242,-252.88819999999998,150.8348,175,75
2026-05-09 16:02:19.044,5,1.76,-0.07,-0.37,82.6542,-252.88819999999998,248.1148,175,75
2026-05-09 16:02:19.060,5,2.0,-0.22,-2.0,145.7442,-252.88819999999998,249.9748,175,75
2026-05-09 16:02:19.073,5,2.0,-0.06,-2.0,214.5342,-227.4882,249.9748,175,75
2026-05-09 16:02:19.086,5,-1.49,-0.43,-1.35,133.2442,-90.8682,-21.7752,175,75
2026-05-09 16:02:19.106,5,-2.0,0.3,0.05,25.9342,-252.88819999999998,-203.2152,175,75
2026-05-09 16:02:19.118,5,-1.51,0.24,0.01,-50.8658,-252.88819999999998,-244.6952,175,75
2026-05-09 16:02:19.144,5,-0.25,-0.14,-0.79,-110.9658,-252.88819999999998,-194.9452,175,75
2026-05-09 16:02:19.155,5,0.43,0.09,-0.86,-108.9358,-252.88819999999998,-110.25519999999999,175,75
2026-05-09 16:02:19.155,5,0.35,0.38,-0.61,-116.7158,-165.63819999999998,-45.2852,175,75
2026-05-09 16:02:19.166,5,0.28,0.43,-0.48,-117.5158,-48.2082,-18.0852,175,75
2026-05-09 16:02:19.180,5,0.61,0.41,-0.59,-93.6458,99.8518,-6.5152,175,75
2026-05-09 16:02:19.195,5,1.18,0.46,-0.59,-62.6258,247.3818,6.3348,175,75
2026-05-09 16:02:19.211,5,2.0,0.96,-0.04,-73.1758,247.3818,55.7348,175,75
2026-05-09 16:02:19.215,5,1.12,0.65,-0.62,-146.4158,247.3818,-12.3352,175,75
2026-05-09 16:02:19.230,5,2.0,0.36,-0.22,-182.9058,247.3818,0.3648,175,75
2026-05-09 16:02:19.254,5,-1.29,-0.82,2.0,-105.8658,233.0118,249.9748,175,75
2026-05-09 16:02:19.264,5,-2.0,-0.77,2.0,-71.1258,163.9318,243.9348,175,75
2026-05-09 16:02:19.268,5,-2.0,-1.07,1.97,-55.745799999999996,125.98179999999999,34.4148,175,75
2026-05-09 16:02:19.277,5,-2.0,-1.45,1.75,-2.1458,48.2618,-140.7552,175,75
2026-05-09 16:02:19.299,5,-2.0,-1.57,2.0,50.2242,-47.898199999999996,-211.8452,175,75
2026-05-09 16:02:19.311,5,-0.75,-0.7,2.0,89.8742,-252.88819999999998,-250.2952,175,75
2026-05-09 16:02:19.316,5,0.46,0.19,2.0,118.4242,-252.88819999999998,-250.2952,175,75
2026-05-09 16:02:19.326,5,1.42,0.65,1.81,97.2942,-252.88819999999998,-250.2952,175,75
2026-05-09 16:02:19.374,5,1.77,0.64,0.66,19.3842,39.9718,28.924799999999998,175,75
2026-05-09 16:02:19.385,5,0.8,0.73,0.73,-11.2658,129.8518,40.1648,175,75
2026-05-09 16:02:19.391,5,0.09,0.61,0.64,-36.6658,154.1718,-4.6852,175,75
2026-05-09 16:02:19.395,5,-0.22,0.42,0.43,-37.6258,103.5218,-59.0852,175,75
2026-05-09 16:02:19.418,5,0.33,0.5,0.5,32.2842,-52.468199999999996,-46.8152,175,75
2026-05-09 16:02:19.433,5,0.45,0.54,0.65,46.574200000000005,-64.3382,-14.7552,175,75
2026-05-09 16:02:19.447,5,0.28,0.45,0.55,52.7342,-68.4082,19.0248,175,75
2026-05-09 16:02:19.469,5,-0.01,0.32,0.38,51.1242,-92.6582,80.2248,175,75
2026-05-09 16:02:19.487,5,-0.05,0.09,0.18,43.4742,-102.7882,102.29480000000001,175,75
2026-05-09 16:02:19.507,5,-0.1,-0.11,0.01,53.3442,-101.3982,116.10480000000001,175,75
2026-05-09 16:02:19.519,5,-0.25,-0.33,-0.64,112.3242,-124.95819999999999,152.3148,175,75
2026-05-09 16:02:19.528,5,-0.25,-0.34,-0.79,158.5242,-166.0982,181.32479999999998,175,75
2026-05-09 16:02:19.538,5,-0.28,-0.1,-1.48,207.3542,-209.2382,195.1848,175,75
2026-05-09 16:02:19.545,5,-0.15,0.16,-1.59,199.4142,-214.8682,169.7848,175,75
2026-05-09 16:02:19.605,5,0.54,-0.56,-0.35,-2.0358,247.3818,9.8248,175,75
2026-05-09 16:02:19.622,5,0.78,-0.57,-0.22,-9.1758,247.3818,7.2948,175,75
2026-05-09 16:02:19.649,5,2.0,0.33,-0.22,17.0242,247.3818,31.6048,175,75
2026-05-09 16:02:19.665,5,-1.93,-1.37,2.0,39.744200000000006,247.3818,-250.2952,175,75
2026-05-09 16:02:19.690,5,2.0,1.04,2.0,1.0042,173.61180000000002,-250.2952,175,75
2026-05-09 16:02:19.712,5,1.42,0.5,2.0,-162.5558,247.3818,-250.2952,175,75
2026-05-09 16:02:19.712,5,-0.45,0.51,2.0,-204.5758,247.3818,-250.2952,175,75
2026-05-09 16:02:19.725,5,-1.83,0.21,2.0,-218.6658,247.3818,-250.2952,175,75
2026-05-09 16:02:19.725,5,-2.0,0.04,2.0,-172.4158,224.2318,-230.1052,175,75
2026-05-09 16:02:19.731,5,-2.0,0.3,2.0,-125.7658,35.1918,-94.9452,175,75
2026-05-09 16:02:19.747,5,-1.29,0.81,2.0,-54.285799999999995,-203.6882,162.23479999999998,175,75
2026-05-09 16:02:19.757,5,-0.99,0.43,2.0,-8.2158,-252.88819999999998,224.1248,175,75
2026-05-09 16:02:19.775,5,0.33,-0.32,2.0,-25.1758,-252.88819999999998,249.9748,175,75
2026-05-09 16:02:19.786,5,0.69,-0.55,1.35,-5.9658,-252.88819999999998,249.9748,175,75
2026-05-09 16:02:19.800,5,1.51,-1.54,-0.78,75.1342,-252.88819999999998,249.9748,175,75
2026-05-09 16:02:19.804,5,1.71,-1.62,-1.39,75.2942,-251.5382,136.0248,175,75
2026-05-09 16:02:19.841,5,-0.88,-0.5,0.11,91.7942,-39.9882,-250.2952,175,75
2026-05-09 16:02:19.893,5,0.46,0.47,-0.33,-10.1258,-59.5882,-250.2952,175,75
2026-05-09 16:02:19.902,5,0.9,0.97,-0.82,-47.2258,-23.9282,-250.2952,175,75
2026-05-09 16:02:19.914,5,0.07,0.95,-0.59,-104.22579999999999,24.3918,-118.39519999999999,175,75
2026-05-09 16:02:19.937,5,0.07,0.62,-0.3,-116.5158,44.101800000000004,-86.4052,175,75
2026-05-09 16:02:19.965,5,0.17,0.06,0.08,-18.945800000000002,208.8918,117.21480000000001,175,75
2026-05-09 16:02:20.002,5,0.61,0.27,0.56,-4.7058,153.6818,249.9748,175,75
2026-05-09 16:02:20.015,5,0.91,0.34,1.12,-4.235799999999999,-11.818200000000001,249.9748,175,75
2026-05-09 16:02:20.015,5,0.2,-0.49,1.91,-12.055800000000001,-107.3082,249.9748,175,75
2026-05-09 16:02:20.026,5,1.38,-1.54,2.0,-8.8658,-80.8282,115.65480000000001,175,75
2026-05-09 16:02:20.041,5,1.37,-1.37,2.0,19.2442,32.7918,-126.23519999999999,175,75
2026-05-09 16:02:20.074,5,-0.79,-0.66,2.0,-49.105799999999995,247.3818,-250.2952,175,75
2026-05-09 16:02:20.084,5,-0.6,-0.26,2.0,-71.9058,247.3818,-250.2952,175,75
2026-05-09 16:02:20.109,5,-1.84,0.08,2.0,-57.965799999999994,61.451800000000006,-187.0352,175,75
2026-05-09 16:02:20.125,5,-1.91,0.29,2.0,-77.05579999999999,-75.8982,-177.14520000000002,175,75
2026-05-09 16:02:20.145,5,-0.9,0.26,2.0,-79.5458,-252.88819999999998,-121.62519999999999,175,75
2026-05-09 16:02:20.145,5,-0.32,0.16,1.95,-26.5458,-252.88819999999998,-49.7852,175,75
2026-05-09 16:02:20.145,5,0.06,0.19,1.46,49.934200000000004,-252.88819999999998,25.8948,175,75
2026-05-09 16:02:20.166,5,1.26,0.6,0.77,93.0142,-252.88819999999998,173.0248,175,75
2026-05-09 16:02:20.198,5,2.0,0.43,-1.29,116.5342,-252.88819999999998,249.9748,175,75
2026-05-09 16:02:20.198,5,1.79,-0.75,-0.98,144.2942,-202.8182,249.9748,175,75
2026-05-09 16:02:20.210,5,0.41,-1.05,-2.0,156.0942,-83.3282,215.8948,175,75
2026-05-09 16:02:20.226,5,-1.53,-0.45,-0.62,135.7742,-126.9282,-54.2652,175,75
2026-05-09 16:02:20.237,5,-1.64,0.0,0.06,72.4242,-181.8782,-128.98520000000002,175,75
2026-05-09 16:02:20.247,5,-1.48,0.17,0.25,-9.3758,-216.7682,-186.5052,175,75
2026-05-09 16:02:20.269,5,-1.24,0.22,-0.02,-88.1158,-251.69819999999999,-205.89520000000002,175,75
2026-05-09 16:02:20.269,5,-0.52,0.26,-0.45,-152.0858,-252.88819999999998,-178.9452,175,75
2026-05-09 16:02:20.304,5,0.7,0.41,-0.81,-180.6158,-9.3582,-53.2752,175,75
2026-05-09 16:02:20.317,5,1.03,0.6,-0.73,-159.4258,147.0118,-48.5552,175,75
2026-05-09 16:02:20.317,5,1.3,0.55,-0.58,-139.3658,247.3818,-53.6152,175,75
2026-05-09 16:02:20.325,5,1.89,0.59,-0.45,-124.3458,247.3818,-45.3552,175,75
2026-05-09 16:02:20.366,5,2.0,0.63,2.0,-237.8158,247.3818,249.9748,175,75
2026-05-09 16:02:20.366,5,0.26,-0.59,2.0,-167.8858,233.36180000000002,155.1548,175,75
2026-05-09 16:02:20.384,5,-0.79,-1.0,2.0,-119.80579999999999,247.3818,46.2648,175,75
2026-05-09 16:02:20.402,5,-2.0,-1.57,1.5,35.324200000000005,247.3818,11.1548,175,75
2026-05-09 16:02:20.414,5,-2.0,-1.63,2.0,90.9342,65.1018,83.38480000000001,175,75
2026-05-09 16:02:20.435,5,-2.0,-1.22,2.0,71.6542,-247.16819999999998,106.8948,175,75
2026-05-09 16:02:20.435,5,-1.93,-0.93,2.0,62.394200000000005,-252.88819999999998,-19.9252,175,75
2026-05-09 16:02:20.446,5,-0.18,-0.34,2.0,23.144199999999998,-252.88819999999998,-141.3052,175,75
2026-05-09 16:02:20.446,5,1.32,-0.21,1.65,10.1442,-252.88819999999998,-208.39520000000002,175,75
2026-05-09 16:02:20.464,5,1.72,-0.09,0.88,30.304199999999998,-252.88819999999998,-236.61520000000002,175,75
2026-05-09 16:02:20.487,5,2.0,0.46,0.11,15.1242,-143.4782,-213.58520000000001,175,75
2026-05-09 16:02:20.514,5,-0.28,0.3,0.52,-7.5458,233.86180000000002,-139.7752,175,75
2026-05-09 16:02:20.538,5,-0.63,0.46,0.37,3.7842,139.0118,-208.4752,175,75
2026-05-09 16:02:20.545,5,0.56,0.92,0.79,40.6542,-76.5382,-91.61519999999999,175,75
2026-05-09 16:02:20.564,5,0.29,0.82,0.73,31.0142,-91.0182,-48.1352,175,75
2026-05-09 16:02:20.568,5,0.15,0.46,0.5,36.0142,-97.81819999999999,-11.5052,175,75
2026-05-09 16:02:20.599,5,-0.25,0.06,0.28,58.6942,-122.0382,90.90480000000001,175,75
2026-05-09 16:02:20.626,5,-0.5,-0.27,-0.58,129.8542,-193.69819999999999,158.3648,175,75
2026-05-09 16:02:20.655,5,0.2,0.17,-1.44,229.3242,-237.5982,215.5548,175,75
2026-05-09 16:02:20.666,5,-0.33,0.08,-0.86,185.1742,-202.7982,183.23479999999998,175,75
2026-05-09 16:02:20.687,5,-0.32,-0.53,-0.11,105.1742,-126.6182,128.5548,175,75
2026-05-09 16:02:20.703,5,-0.22,-0.44,-0.01,63.744200000000006,-46.0882,84.8948,175,75
2026-05-09 16:02:20.718,5,0.64,-0.5,-0.41,1.6441999999999999,194.58180000000002,5.1348,175,75
2026-05-09 16:02:20.729,5,0.94,-0.44,-0.39,-12.8358,247.3818,4.5148,175,75
2026-05-09 16:02:20.740,5,1.95,-0.34,-0.32,-14.305800000000001,247.3818,49.8848,175,75
2026-05-09 16:02:20.763,5,2.0,-0.3,0.06,44.8042,247.3818,5.3748000000000005,175,75
2026-05-09 16:02:20.763,5,0.88,0.11,2.0,54.464200000000005,247.3818,-250.2952,175,75
2026-05-09 16:02:20.775,5,2.0,0.71,2.0,-102.44579999999999,247.3818,-250.2952,175,75
2026-05-09 16:02:20.803,5,0.02,0.21,2.0,-145.23579999999998,247.3818,-250.2952,175,75
2026-05-09 16:02:20.815,5,-2.0,-0.18,2.0,-109.44579999999999,247.3818,-160.0652,175,75
2026-05-09 16:02:20.842,5,-2.0,0.42,2.0,-43.385799999999996,-56.578199999999995,148.0548,175,75
2026-05-09 16:02:20.842,5,-2.0,0.69,2.0,-33.255799999999994,-207.41819999999998,161.8448,175,75
2026-05-09 16:02:20.854,5,-1.25,0.26,2.0,-31.2758,-252.88819999999998,192.2748,175,75
2026-05-09 16:02:20.865,5,-0.19,-0.17,2.0,-39.8458,-252.88819999999998,249.9748,175,75
2026-05-09 16:02:20.877,5,0.97,-0.6,1.07,-19.2358,-252.88819999999998,249.9748,175,75
2026-05-09 16:02:20.888,5,0.92,-0.86,0.51,6.164199999999999,-252.88819999999998,249.9748,175,75
2026-05-09 16:02:20.898,5,1.64,-1.28,-0.46,33.3342,-252.88819999999998,249.9748,175,75
2026-05-09 16:02:20.912,5,2.0,-1.6,-1.4,46.354200000000006,-240.7682,201.98479999999998,175,75
2026-05-09 16:02:20.923,5,0.97,-1.44,-0.93,61.9842,-82.1182,29.834799999999998,175,75
2026-05-09 16:02:20.927,5,-0.06,-1.02,-0.28,89.3542,-6.808199999999999,-78.72519999999999,175,75
2026-05-09 16:02:20.942,5,-0.76,-0.69,0.02,110.58420000000001,13.171800000000001,-174.9752,175,75
2026-05-09 16:02:20.959,5,-0.95,0.0,0.11,124.27420000000001,-30.5782,-250.2952,175,75
2026-05-09 16:02:20.971,5,-0.65,0.59,-0.02,91.0342,-50.1082,-250.2952,175,75
2026-05-09 16:02:20.983,5,-0.13,0.6,-0.3,41.5542,-59.9882,-250.2952,175,75
2026-05-09 16:02:20.994,5,0.63,0.96,-0.55,0.5041999999999999,-40.158199999999994,-250.2952,175,75
2026-05-09 16:02:21.006,5,1.32,1.06,-0.82,-40.7958,15.921800000000001,-193.9052,175,75
2026-05-09 16:02:21.006,5,0.49,0.98,-0.77,-71.1858,44.2518,-98.97519999999999,175,75
2026-05-09 16:02:21.020,5,-0.07,0.78,-0.42,-94.7158,42.3618,-81.73519999999999,175,75
2026-05-09 16:02:21.055,5,0.35,0.21,0.1,-49.5858,165.2818,6.6948,175,75
2026-05-09 16:02:21.074,5,0.57,0.33,0.06,-30.515800000000002,181.2118,94.8948,175,75
2026-05-09 16:02:21.075,5,0.78,0.53,0.18,-18.7758,179.0418,200.6548,175,75
2026-05-09 16:02:21.093,5,0.45,0.57,0.45,-14.0158,111.7518,249.9748,175,75
2026-05-09 16:02:21.102,5,0.41,0.41,0.76,-26.3358,22.8518,249.9748,175,75
2026-05-09 16:02:21.113,5,0.9,0.14,0.85,-33.6558,-36.718199999999996,249.9748,175,75
2026-05-09 16:02:21.124,5,0.34,-0.27,1.26,-30.105800000000002,-58.2782,249.9748,175,75
2026-05-09 16:02:21.144,5,1.87,-1.72,2.0,-0.3358000000000001,70.2218,32.6048,175,75
2026-05-09 16:02:21.170,5,-0.17,-1.44,2.0,-31.3558,247.3818,-85.5752,175,75
2026-05-09 16:02:21.198,5,-1.56,-1.27,2.0,-8.8758,245.6218,-183.4152,175,75
2026-05-09 16:02:21.254,5,-0.64,0.14,1.49,-21.6458,-252.88819999999998,-155.4452,175,75
2026-05-09 16:02:21.265,5,0.48,0.26,0.57,31.5742,-252.88819999999998,-35.8752,175,75
2026-05-09 16:02:21.276,5,1.08,0.45,0.02,54.5142,-252.88819999999998,56.8448,175,75
2026-05-09 16:02:21.301,5,2.0,0.78,-1.71,104.8742,-252.88819999999998,249.9748,175,75
2026-05-09 16:02:21.306,5,0.66,0.64,-1.61,125.7142,-162.88819999999998,249.9748,175,75
2026-05-09 16:02:21.342,5,-1.49,-0.46,-1.27,125.1442,-240.3082,-92.5852,175,75
2026-05-09 16:02:21.352,5,-1.38,-0.11,-0.74,96.9342,-252.88819999999998,-173.7552,175,75
2026-05-09 16:02:21.362,5,-1.07,-0.02,-0.44,34.7642,-252.88819999999998,-186.6552,175,75
2026-05-09 16:02:21.374,5,-0.54,0.07,-0.31,-39.5158,-252.88819999999998,-142.6052,175,75
2026-05-09 16:02:21.374,5,-0.13,0.17,-0.27,-114.3558,-252.88819999999998,-79.5452,175,75
2026-05-09 16:02:21.387,5,0.0,0.15,-0.38,-160.3858,-200.0382,-40.7752,175,75
2026-05-09 16:02:21.415,5,0.73,0.12,-0.76,-148.5058,59.461800000000004,-34.4752,175,75
2026-05-09 16:02:21.426,5,1.34,0.32,-1.08,-102.69579999999999,246.0118,-10.6952,175,75
2026-05-09 16:02:21.438,5,1.47,0.55,-0.92,-67.83579999999999,247.3818,13.4048,175,75
2026-05-09 16:02:21.438,5,1.59,0.82,-0.55,-72.7158,247.3818,16.9448,175,75
2026-05-09 16:02:21.445,5,2.0,1.14,-0.03,-122.1058,247.3818,16.814799999999998,175,75
2026-05-09 16:02:21.486,5,-0.87,-2.0,2.0,-248.73579999999998,168.7818,223.7848,175,75
2026-05-09 16:02:21.497,5,-2.0,-2.0,1.57,-85.0958,186.6618,157.04479999999998,175,75
2026-05-09 16:02:21.508,5,-2.0,-2.0,1.79,56.644200000000005,133.7618,42.9848,175,75
2026-05-09 16:02:21.528,5,-2.0,-0.74,2.0,104.77420000000001,-122.4482,-250.2952,175,75
2026-05-09 16:02:21.577,5,2.0,1.34,1.65,129.7242,-252.88819999999998,-238.0552,175,75
2026-05-09 16:02:21.577,5,2.0,1.25,0.96,85.9342,-195.4582,-66.2452,175,75
2026-05-09 16:02:21.602,5,2.0,0.91,0.73,57.3442,-53.6382,62.3948,175,75
2026-05-09 16:02:21.602,5,1.21,0.52,0.76,31.0042,51.4018,112.5348,175,75
2026-05-09 16:02:21.613,5,0.66,0.23,0.7,17.964199999999998,106.8318,122.4448,175,75
2026-05-09 16:02:21.630,5,0.32,0.01,0.49,21.8442,106.8018,129.76479999999998,175,75
2026-05-09 16:02:21.630,5,-0.0,-0.07,0.38,44.0642,41.851800000000004,127.5948,175,75
2026-05-09 16:02:21.643,5,0.12,-0.04,0.59,66.19420000000001,-42.4882,86.0548,175,75
2026-05-09 16:02:21.654,5,0.5,-0.01,0.87,68.9242,-68.4382,31.6348,175,75
2026-05-09 16:02:21.654,5,0.41,0.1,0.91,59.5642,-63.8382,-13.135200000000001,175,75
2026-05-09 16:02:21.674,5,0.16,0.16,0.72,37.034200000000006,-68.95819999999999,-78.48519999999999,175,75
2026-05-09 16:02:21.704,5,0.1,0.16,0.56,33.294200000000004,-72.59819999999999,-104.0552,175,75
2026-05-09 16:02:21.715,5,0.04,0.12,0.44,34.8442,-76.48819999999999,-100.1352,175,75
2026-05-09 16:02:21.755,5,-0.27,-0.16,-0.17,90.6042,-153.16819999999998,18.4448,175,75
2026-05-09 16:02:21.755,5,-0.55,-0.18,-0.4,117.80420000000001,-192.5382,42.1848,175,75
2026-05-09 16:02:21.765,5,-0.5,-0.15,-0.76,142.23420000000002,-238.0082,67.4848,175,75
2026-05-09 16:02:21.775,5,-0.33,-0.02,-1.12,194.5542,-252.88819999999998,107.8648,175,75
2026-05-09 16:02:21.788,5,0.11,-0.07,-1.42,216.3242,-252.88819999999998,161.6148,175,75
2026-05-09 16:02:21.799,5,0.57,-0.2,-1.46,219.1642,-243.1282,184.0248,175,75
2026-05-09 16:02:21.814,5,0.59,-0.31,-1.19,182.5442,-133.0882,158.16479999999999,175,75
2026-05-09 16:02:21.825,5,0.1,-0.26,-0.53,118.6842,-38.688199999999995,136.76479999999998,175,75
2026-05-09 16:02:21.825,5,0.02,-0.4,-0.07,58.8742,39.9718,129.9748,175,75
2026-05-09 16:02:21.837,5,0.08,-0.53,0.1,13.944199999999999,138.3518,110.8648,175,75
2026-05-09 16:02:21.853,5,0.38,-0.6,0.08,-12.5158,247.3818,86.5648,175,75
2026-05-09 16:02:21.885,5,2.0,-1.17,0.46,34.244200000000006,247.3818,38.004799999999996,175,75
2026-05-09 16:02:21.885,5,-0.25,-1.12,1.42,36.324200000000005,247.3818,-186.7752,175,75
2026-05-09 16:02:21.901,5,-0.38,-0.04,2.0,47.9142,247.3818,-250.2952,175,75
2026-05-09 16:02:21.915,5,-1.7,0.43,2.0,-195.1258,247.3818,-250.2952,175,75
2026-05-09 16:02:21.936,5,-2.0,0.15,2.0,-127.9058,65.0318,-250.2952,175,75
2026-05-09 16:02:21.961,5,-1.11,0.62,2.0,-43.815799999999996,-252.88819999999998,130.5848,175,75
2026-05-09 16:02:21.981,5,0.36,0.21,2.0,16.874200000000002,-252.88819999999998,249.9748,175,75
2026-05-09 16:02:21.992,5,0.8,0.08,1.92,18.0242,-252.88819999999998,249.9748,175,75
2026-05-09 16:02:21.999,5,1.23,-0.09,1.29,20.4242,-252.88819999999998,249.9748,175,75
2026-05-09 16:02:22.017,5,1.61,-0.89,0.21,9.004199999999999,-252.88819999999998,249.9748,175,75
2026-05-09 16:02:22.028,5,1.82,-1.63,-0.61,10.7442,-215.91819999999998,249.9748,175,75
2026-05-09 16:02:22.037,5,0.94,-1.53,-0.41,25.4942,-64.5382,84.21480000000001,175,75
2026-05-09 16:02:22.052,5,0.15,-1.01,0.17,48.4842,50.211800000000004,-58.2152,175,75
2026-05-09 16:02:22.072,5,-0.71,-0.36,0.52,57.644200000000005,120.0718,-250.2952,175,75
2026-05-09 16:02:22.082,5,-0.63,-0.07,0.49,49.5642,99.2018,-250.2952,175,75
2026-05-09 16:02:22.103,5,-0.07,0.44,0.2,15.194199999999999,14.581799999999998,-250.2952,175,75
2026-05-09 16:02:22.103,5,0.49,0.76,-0.34,6.994199999999999,-93.2182,-250.2952,175,75
2026-05-09 16:02:22.121,5,1.31,0.89,-0.49,16.7142,-159.0282,-126.4952,175,75
2026-05-09 16:02:22.142,5,0.17,0.59,-0.3,-10.735800000000001,-119.48819999999999,-23.595200000000002,175,75
2026-05-09 16:02:22.158,5,-0.08,0.16,-0.15,-6.835800000000001,-101.6682,-6.8751999999999995,175,75
2026-05-09 16:02:22.181,5,0.12,0.07,-0.2,18.9342,-49.438199999999995,43.3348,175,75
2026-05-09 16:02:22.192,5,0.32,0.07,-0.22,37.854200000000006,-8.508199999999999,87.7848,175,75
2026-05-09 16:02:22.202,5,0.4,0.13,-0.17,52.254200000000004,43.2918,131.1148,175,75
2026-05-09 16:02:22.211,5,0.51,0.11,-0.1,59.744200000000006,99.7518,164.01479999999998,175,75
2026-05-09 16:02:22.224,5,0.85,0.03,-0.09,67.8142,162.5218,204.07479999999998,175,75
2026-05-09 16:02:22.235,5,1.33,0.01,-0.06,70.9942,237.3718,249.9748,175,75
2026-05-09 16:02:22.256,5,0.07,-0.68,1.79,-1.0758,148.30180000000001,143.82479999999998,175,75
2026-05-09 16:02:22.257,5,1.31,0.72,1.02,-52.6158,85.4718,-61.3752,175,75
2026-05-09 16:02:22.268,5,1.55,-0.37,2.0,-50.715799999999994,152.7018,-194.4652,175,75
2026-05-09 16:02:22.283,5,2.0,-0.17,2.0,-125.1158,247.3818,-111.97519999999999,175,75
2026-05-09 16:02:22.289,5,0.23,-0.53,2.0,-142.9958,247.3818,-49.0052,175,75
2026-05-09 16:02:22.314,5,-1.98,-0.89,2.0,-69.1558,247.3818,-108.2452,175,75
2026-05-09 16:02:22.329,5,-2.0,-0.87,2.0,-10.4458,224.6918,-160.20520000000002,175,75
2026-05-09 16:02:22.354,5,-2.0,0.1,2.0,13.844199999999999,-123.0882,-115.0452,175,75
2026-05-09 16:02:22.364,5,-1.8,0.26,2.0,-1.9658000000000002,-252.88819999999998,-82.7152,175,75
2026-05-09 16:02:22.364,5,-1.19,0.15,2.0,4.9041999999999994,-252.88819999999998,-60.1352,175,75
2026-05-09 16:02:22.376,5,-0.63,-0.02,1.71,41.7042,-252.88819999999998,-23.1952,175,75
2026-05-09 16:02:22.387,5,-0.02,-0.02,1.17,70.0942,-252.88819999999998,43.9248,175,75
2026-05-09 16:02:22.402,5,0.94,0.21,0.11,96.5642,-252.88819999999998,207.4448,175,75
2026-05-09 16:02:22.412,5,2.0,0.29,-1.0,109.2542,-252.88819999999998,249.9748,175,75
2026-05-09 16:02:22.427,5,1.0,-1.1,-2.0,35.964200000000005,41.0718,-76.1052,175,75
2026-05-09 16:02:22.438,5,-0.82,-1.05,-1.83,60.074200000000005,11.361799999999999,-145.0652,175,75
2026-05-09 16:02:22.449,5,-1.51,-0.74,-1.1,91.8642,-103.0182,-141.7952,175,75
2026-05-09 16:02:22.459,5,-1.65,-0.22,-0.61,76.4242,-210.0182,-144.2252,175,75
2026-05-09 16:02:22.470,5,-1.55,0.14,-0.31,9.4542,-252.88819999999998,-151.45520000000002,175,75
2026-05-09 16:02:22.480,5,-1.22,0.25,-0.38,-74.0258,-252.88819999999998,-138.0752,175,75
2026-05-09 16:02:22.489,5,-0.37,0.17,-0.61,-146.7458,-252.88819999999998,-104.4152,175,75
2026-05-09 16:02:22.503,5,0.15,0.18,-0.67,-183.5858,-252.88819999999998,-82.9452,175,75
2026-05-09 16:02:22.503,5,0.09,0.3,-0.55,-194.48579999999998,-177.16819999999998,-82.1352,175,75
2026-05-09 16:02:22.523,5,0.34,0.41,-0.49,-192.2558,-67.7682,-97.73519999999999,175,75
2026-05-09 16:02:22.525,5,1.16,0.52,-0.78,-169.2558,85.0918,-82.2452,175,75
2026-05-09 16:02:22.536,5,1.33,0.57,-0.86,-130.51579999999998,247.3818,-34.0552,175,75
2026-05-09 16:02:22.545,5,1.2,0.71,-0.56,-110.5758,247.3818,-12.2552,175,75
2026-05-09 16:02:22.569,5,2.0,1.59,0.69,-230.9458,247.3818,11.8548,175,75
2026-05-09 16:02:22.583,5,2.0,2.0,2.0,-248.73579999999998,247.3818,144.7848,175,75
2026-05-09 16:02:22.594,5,0.43,0.81,2.0,-248.73579999999998,247.3818,249.9748,175,75
2026-05-09 16:02:22.605,5,-1.16,-1.38,2.0,-201.3158,183.1718,249.9748,175,75
2026-05-09 16:02:22.605,5,-2.0,-2.0,2.0,-103.66579999999999,199.9118,249.9748,175,75
2026-05-09 16:02:22.624,5,-2.0,-2.0,1.95,-6.9558,198.8518,105.51480000000001,175,75
2026-05-09 16:02:22.635,5,-2.0,-1.7,2.0,69.16420000000001,-105.3282,-117.6552,175,75
2026-05-09 16:02:22.665,5,1.13,0.09,1.83,104.44420000000001,-252.88819999999998,-250.2952,175,75
2026-05-09 16:02:22.681,5,1.88,0.5,1.23,127.5742,-252.88819999999998,-250.2952,175,75
2026-05-09 16:02:22.693,5,2.0,0.78,0.76,125.8642,-252.88819999999998,-250.2952,175,75
2026-05-09 16:02:22.693,5,2.0,1.5,0.53,94.9242,-165.63819999999998,-150.8152,175,75
2026-05-09 16:02:22.716,5,1.16,0.71,0.62,52.7042,125.4118,52.3148,175,75
2026-05-09 16:02:22.728,5,0.23,0.56,0.6,35.8042,177.8118,27.4848,175,75
2026-05-09 16:02:22.738,5,-0.43,0.41,0.45,29.2842,140.8218,-29.2852,175,75
2026-05-09 16:02:22.765,5,-0.17,0.36,0.39,61.2242,-66.0082,-39.3352,175,75
2026-05-09 16:02:22.765,5,0.34,0.49,0.68,59.924200000000006,-106.1682,-4.465199999999999,175,75
2026-05-09 16:02:22.781,5,0.34,0.36,0.62,53.0942,-101.7282,31.1848,175,75
2026-05-09 16:02:22.791,5,0.16,0.09,0.39,61.784200000000006,-102.6782,67.9248,175,75
2026-05-09 16:02:22.797,5,0.05,0.03,0.29,77.2942,-111.8582,96.87480000000001,175,75
2026-05-09 16:02:22.815,5,0.0,-0.04,0.22,93.4242,-122.9482,121.96480000000001,175,75
2026-05-09 16:02:22.815,5,-0.1,-0.11,0.09,111.19420000000001,-138.4582,141.1848,175,75
2026-05-09 16:02:22.825,5,-0.08,-0.21,0.03,130.9342,-155.3982,158.60479999999998,175,75
2026-05-09 16:02:22.837,5,-0.24,-0.21,-0.14,153.6742,-177.6182,172.6848,175,75
2026-05-09 16:02:22.846,5,-0.49,-0.35,-0.34,167.6742,-201.3682,173.8648,175,75
2026-05-09 16:02:22.857,5,-0.45,-0.36,-0.53,187.7542,-230.2582,176.1848,175,75
2026-05-09 16:02:22.875,5,0.02,-0.09,-1.28,175.8242,-217.69819999999999,123.32480000000001,175,75
2026-05-09 16:02:22.887,5,-0.26,-0.17,-1.11,123.2242,-172.5582,70.9248,175,75
2026-05-09 16:02:22.914,5,-0.33,-0.52,-0.25,44.6342,-151.5082,82.4548,175,75
2026-05-09 16:02:22.914,5,-0.08,-0.5,-0.15,19.8742,-80.5882,73.3148,175,75
2026-05-09 16:02:22.925,5,0.18,-0.52,-0.32,-7.7158,36.521800000000006,18.3448,175,75
2026-05-09 16:02:22.945,5,0.39,-0.58,-0.49,-30.6258,174.4818,-48.2852,175,75
2026-05-09 16:02:22.945,5,0.6,-0.61,-0.39,-43.9158,247.3818,-82.9952,175,75
2026-05-09 16:02:22.956,5,1.4,-0.77,-0.28,-40.1958,247.3818,-85.8052,175,75
2026-05-09 16:02:22.985,5,2.0,-1.97,0.95,44.354200000000006,247.3818,-80.39519999999999,175,75
2026-05-09 16:02:22.985,5,-1.75,-1.18,2.0,74.3442,247.3818,-250.2952,175,75
2026-05-09 16:02:22.995,5,2.0,2.0,2.0,-63.4058,247.3818,-250.2952,175,75
2026-05-09 16:02:23.009,5,-0.0,0.67,2.0,-131.2758,247.3818,-214.95520000000002,175,75
2026-05-09 16:02:23.020,5,-2.0,0.64,2.0,-162.4958,247.3818,-250.2952,175,75
2026-05-09 16:02:23.026,5,-2.0,0.37,2.0,-182.9358,247.3818,-250.2952,175,75
2026-05-09 16:02:23.041,5,-2.0,0.65,2.0,-143.1558,31.2918,-250.2952,175,75
2026-05-09 16:02:23.071,5,0.25,0.42,2.0,-67.6158,-197.6082,213.0548,175,75
2026-05-09 16:02:23.085,5,0.34,0.47,2.0,8.7042,-252.88819999999998,249.9748,175,75
2026-05-09 16:02:23.095,5,0.12,0.32,2.0,-43.145799999999994,-252.88819999999998,249.9748,175,75
2026-05-09 16:02:23.124,5,1.22,-0.08,1.39,-155.98579999999998,-252.88819999999998,249.9748,175,75
2026-05-09 16:02:23.135,5,2.0,-1.94,0.06,-84.44579999999999,-252.88819999999998,249.9748,175,75
2026-05-09 16:02:23.135,5,1.42,-1.68,-0.26,-2.4258,-90.1882,161.1548,175,75
2026-05-09 16:02:23.146,5,0.68,-1.2,0.04,49.574200000000005,56.421800000000005,-22.5452,175,75
2026-05-09 16:02:23.162,5,-0.03,-0.79,0.27,83.2842,123.5518,-154.5252,175,75
2026-05-09 16:02:23.175,5,-0.48,-0.45,0.39,103.1042,103.3118,-239.0452,175,75
2026-05-09 16:02:23.175,5,-0.6,-0.08,0.44,103.8142,21.2018,-250.2952,175,75
2026-05-09 16:02:23.186,5,-0.45,0.27,0.41,87.3942,-75.5782,-250.2952,175,75
2026-05-09 16:02:23.197,5,-0.2,0.52,0.28,63.3842,-159.8082,-250.2952,175,75
2026-05-09 16:02:23.229,5,0.89,0.52,-0.68,37.5542,-183.2982,-79.8352,175,75
2026-05-09 16:02:23.244,5,0.29,0.7,-0.85,48.2742,-166.0182,-13.7552,175,75
2026-05-09 16:02:23.254,5,-0.14,0.34,-0.56,52.604200000000006,-164.1282,11.0748,175,75
2026-05-09 16:02:23.265,5,-0.39,0.23,-0.59,61.184200000000004,-176.4382,23.1048,175,75
2026-05-09 16:02:23.265,5,-0.45,0.23,-0.58,67.9042,-193.4782,33.6648,175,75
2026-05-09 16:02:23.276,5,-0.22,0.27,-0.48,65.13419999999999,-196.2782,49.3648,175,75
2026-05-09 16:02:23.300,5,-0.03,0.1,-0.22,55.4442,-118.7282,83.1948,175,75
2026-05-09 16:02:23.311,5,0.07,0.02,-0.09,58.424200000000006,-47.0582,84.1148,175,75
2026-05-09 16:02:23.333,5,0.59,-0.05,-0.12,74.4942,128.4018,93.29480000000001,175,75
2026-05-09 16:02:23.344,5,0.97,-0.1,-0.16,85.0042,245.9018,119.82480000000001,175,75
2026-05-09 16:02:23.357,5,1.72,-0.06,-0.29,94.5442,247.3818,166.4048,175,75
2026-05-09 16:02:23.357,5,2.0,-0.13,-0.33,98.80420000000001,247.3818,215.8648,175,75
2026-05-09 16:02:23.368,5,2.0,-0.59,0.04,115.3642,247.3818,205.2848,175,75
2026-05-09 16:02:23.383,5,-1.36,-1.51,2.0,31.3142,247.3818,-172.6852,175,75
2026-05-09 16:02:23.387,5,2.0,-0.05,2.0,-77.6358,85.3318,-250.2952,175,75
2026-05-09 16:02:23.404,5,1.44,-0.49,2.0,-147.98579999999998,247.3818,-83.73519999999999,175,75
2026-05-09 16:02:23.420,5,0.09,-0.8,1.92,-159.7458,247.3818,-15.5752,175,75
2026-05-09 16:02:23.420,5,-2.0,-1.07,2.0,-129.51579999999998,247.3818,-53.6052,175,75
2026-05-09 16:02:23.440,5,-2.0,-0.49,2.0,-10.1358,39.0118,-187.45520000000002,175,75
2026-05-09 16:02:23.455,5,-1.9,0.05,2.0,-6.8558,-103.1982,-164.7552,175,75
2026-05-09 16:02:23.455,5,-1.65,0.29,2.0,-21.4658,-213.2682,-150.20520000000002,175,75
2026-05-09 16:02:23.492,5,-0.42,0.08,1.44,42.4842,-252.88819999999998,-110.9452,175,75
2026-05-09 16:02:23.506,5,0.41,0.15,0.47,103.3642,-252.88819999999998,0.5048,175,75
2026-05-09 16:02:23.519,5,0.69,0.43,0.1,114.16420000000001,-252.88819999999998,59.574799999999996,175,75
2026-05-09 16:02:23.537,5,2.0,0.74,-2.0,124.6742,-252.88819999999998,249.9748,175,75
2026-05-09 16:02:23.564,5,-0.09,-0.92,-2.0,82.58420000000001,51.1918,-63.8152,175,75
2026-05-09 16:02:23.564,5,-1.26,-0.86,-1.41,93.2942,-36.4282,-75.4952,175,75
2026-05-09 16:02:23.586,5,-1.32,-0.23,0.06,63.644200000000005,-208.2182,-25.8952,175,75
2026-05-09 16:02:23.601,5,-1.16,-0.08,0.32,-7.405800000000001,-240.6582,-11.3352,175,75
2026-05-09 16:02:23.616,5,-0.6,0.04,-0.13,-145.9658,-230.5582,-54.4552,175,75
2026-05-09 16:02:23.628,5,-0.04,0.13,-0.35,-184.7158,-155.6782,-105.9452,175,75
2026-05-09 16:02:23.642,5,0.78,0.32,-0.74,-195.7758,-35.1282,-130.61520000000002,175,75
2026-05-09 16:02:23.660,5,1.86,0.87,-1.13,-157.5758,247.3818,-39.745200000000004,175,75
2026-05-09 16:02:23.671,5,1.19,1.02,-0.58,-168.8358,247.3818,-68.2952,175,75
2026-05-09 16:02:23.688,5,2.0,1.83,0.91,-248.73579999999998,247.3818,-86.7752,175,75
2026-05-09 16:02:23.699,5,2.0,2.0,2.0,-248.73579999999998,247.3818,249.9748,175,75
2026-05-09 16:02:23.721,5,-0.64,-1.39,2.0,-247.6558,247.3818,213.4648,175,75
2026-05-09 16:02:23.732,5,-1.28,-1.66,0.99,-143.9058,240.6918,175.6148,175,75
2026-05-09 16:02:23.743,5,-2.0,-2.0,1.6,-8.805800000000001,149.7918,175.26479999999998,175,75
2026-05-09 16:02:23.743,5,-2.0,-2.0,1.9,91.6242,-14.278199999999998,156.4748,175,75
2026-05-09 16:02:23.775,5,-2.0,-1.05,2.0,88.58420000000001,-252.88819999999998,-123.3052,175,75
2026-05-09 16:02:23.786,5,-0.68,-0.56,2.0,59.4842,-252.88819999999998,-250.2952,175,75
2026-05-09 16:02:23.793,5,1.33,-0.05,1.88,67.2242,-252.88819999999998,-250.2952,175,75
2026-05-09 16:02:23.815,5,2.0,1.56,0.69,97.1342,-139.7682,-173.2752,175,75
2026-05-09 16:02:23.843,5,0.95,0.75,0.87,31.4942,115.04180000000001,-37.0752,175,75
2026-05-09 16:02:23.868,5,-0.02,0.31,0.5,15.9042,142.2018,-46.8252,175,75
2026-05-09 16:02:23.880,5,0.02,0.54,0.61,59.044200000000004,-70.0882,31.3948,175,75
2026-05-09 16:02:23.894,5,0.16,0.45,0.69,59.5942,-111.8982,49.504799999999996,175,75
2026-05-09 16:02:23.894,5,0.15,0.2,0.59,63.614200000000004,-122.73819999999999,63.3848,175,75
2026-05-09 16:02:23.917,5,-0.02,0.01,0.44,85.2942,-121.1882,80.2048,175,75
2026-05-09 16:02:23.963,5,-0.36,-0.45,-0.18,159.2242,-171.91819999999998,124.1448,175,75
2026-05-09 16:02:23.974,5,-0.52,-0.45,-0.32,192.6442,-206.8182,136.7848,175,75
2026-05-09 16:02:23.987,5,-0.39,-0.16,-1.2,213.7942,-252.88819999999998,149.6948,175,75
2026-05-09 16:02:24.001,5,0.39,-0.34,-1.83,214.2142,-252.88819999999998,124.90480000000001,175,75
2026-05-09 16:02:24.018,5,-0.55,-0.24,-0.34,76.4942,-177.5682,125.65480000000001,175,75
2026-05-09 16:02:24.029,5,-0.49,-0.49,0.2,31.9542,-142.3382,146.88479999999998,175,75
2026-05-09 16:02:24.044,5,-0.47,-0.45,0.4,-7.495800000000001,-57.1082,116.65480000000001,175,75
2026-05-09 16:02:24.061,5,-0.34,-0.46,0.22,-43.565799999999996,57.631800000000005,34.9348,175,75
2026-05-09 16:02:24.067,5,0.76,-0.57,-0.55,-89.8758,247.3818,-171.17520000000002,175,75
2026-05-09 16:02:24.085,5,2.0,-0.98,0.13,-61.785799999999995,247.3818,-218.6252,175,75
2026-05-09 16:02:24.101,5,1.36,-0.49,2.0,-44.5558,247.3818,-144.23520000000002,175,75
2026-05-09 16:02:24.112,5,0.85,0.3,2.0,-0.6457999999999999,138.9818,-179.2752,175,75
2026-05-09 16:02:24.115,5,2.0,1.66,2.0,-73.5758,190.6518,-82.8352,175,75
2026-05-09 16:02:24.126,5,1.21,1.09,2.0,-184.54579999999999,247.3818,-179.1852,175,75
2026-05-09 16:02:24.148,5,-1.35,0.29,2.0,-182.7158,247.3818,-223.0952,175,75
2026-05-09 16:02:24.167,5,-1.9,-0.03,2.0,-139.4758,247.3818,-222.3752,175,75
2026-05-09 16:02:24.174,5,-2.0,-0.2,2.0,-101.4658,101.5618,-166.9452,175,75
2026-05-09 16:02:24.197,5,-1.79,-0.19,2.0,-68.2658,-68.3082,-53.3352,175,75
2026-05-09 16:02:24.207,5,-1.19,-0.09,2.0,-41.5558,-186.2482,72.3948,175,75
2026-05-09 16:02:24.207,5,-0.76,-0.06,2.0,-10.2158,-244.6182,136.57479999999998,175,75
2026-05-09 16:02:24.223,5,0.31,0.0,2.0,19.9342,-252.88819999999998,249.9748,175,75
2026-05-09 16:02:24.223,5,0.8,-0.1,1.58,11.9742,-252.88819999999998,249.9748,175,75
2026-05-09 16:02:24.263,5,1.61,-0.91,-0.35,-5.7058,-109.06819999999999,-4.5851999999999995,175,75
2026-05-09 16:02:24.278,5,0.96,-0.65,0.04,11.2842,-4.898199999999999,-82.8052,175,75
2026-05-09 16:02:24.287,5,0.02,-0.25,0.36,36.9042,105.1318,-154.2552,175,75
2026-05-09 16:02:24.304,5,-0.35,-0.06,0.29,43.8442,109.7418,-175.5452,175,75
2026-05-09 16:02:24.316,5,-0.58,0.12,0.1,45.354200000000006,79.4618,-198.6552,175,75
2026-05-09 16:02:24.316,5,-0.55,0.18,-0.29,48.0942,-0.8281999999999998,-190.0252,175,75
2026-05-09 16:02:24.326,5,-0.32,0.42,-0.53,49.5542,-109.5382,-144.36520000000002,175,75
2026-05-09 16:02:24.339,5,0.2,0.48,-0.77,55.1342,-176.2182,-91.0852,175,75
2026-05-09 16:02:24.357,5,0.12,0.37,-0.85,55.2042,-196.5382,28.814799999999998,175,75
2026-05-09 16:02:24.377,5,-0.39,0.21,-0.39,42.2642,-221.3782,63.6548,175,75
2026-05-09 16:02:24.414,5,0.18,0.04,-0.03,13.6242,-79.95819999999999,56.9448,175,75
2026-05-09 16:02:24.434,5,0.69,0.05,-0.12,42.424200000000006,138.5718,72.68480000000001,175,75
2026-05-09 16:02:24.445,5,1.11,0.09,-0.16,50.934200000000004,247.3818,99.93480000000001,175,75
2026-05-09 16:02:24.445,5,1.81,-0.0,-0.27,56.824200000000005,247.3818,156.0248,175,75
2026-05-09 16:02:24.467,5,2.0,-0.56,-0.03,78.33420000000001,247.3818,249.9748,175,75
2026-05-09 16:02:24.487,5,-0.32,-1.11,2.0,-48.3458,-26.4982,-130.9152,175,75
2026-05-09 16:02:24.498,5,1.03,-0.46,1.94,-59.7358,86.5918,-176.2752,175,75
2026-05-09 16:02:24.596,5,-0.17,0.05,1.17,57.5242,-252.88819999999998,-53.5552,175,75
2026-05-09 16:02:24.613,5,0.46,0.24,0.78,96.27420000000001,-252.88819999999998,22.0748,175,75
2026-05-09 16:02:24.623,5,0.9,0.42,0.24,116.33420000000001,-252.88819999999998,100.6948,175,75
2026-05-09 16:02:24.647,5,1.6,0.12,-2.0,214.1342,-248.0082,249.9748,175,75
2026-05-09 16:02:24.665,5,-0.35,-0.53,-2.0,194.2442,-156.1182,112.27480000000001,175,75
2026-05-09 16:02:24.693,5,-1.38,-0.11,-0.19,69.77420000000001,-252.88819999999998,-123.7452,175,75
2026-05-09 16:02:24.706,5,-1.28,-0.02,-0.14,-12.5258,-252.88819999999998,-81.4652,175,75
2026-05-09 16:02:24.717,5,-1.38,0.02,-0.25,-91.7858,-252.88819999999998,-49.3552,175,75
2026-05-09 16:02:24.728,5,-1.16,-0.08,-0.56,-149.3258,-252.88819999999998,-30.1352,175,75
2026-05-09 16:02:24.728,5,-0.9,0.23,-0.44,-195.29579999999999,-252.88819999999998,-69.4652,175,75
2026-05-09 16:02:24.745,5,-0.2,0.63,-0.07,-248.73579999999998,-151.4882,-238.4652,175,75
2026-05-09 16:02:24.764,5,2.0,0.35,-1.48,-182.3158,247.3818,-162.9152,175,75
2026-05-09 16:02:24.789,5,2.0,1.84,-1.02,-133.6358,247.3818,74.3948,175,75
2026-05-09 16:02:24.795,5,2.0,1.54,-0.52,-232.9658,247.3818,44.8348,175,75
2026-05-09 16:02:24.824,5,1.9,2.0,2.0,-248.73579999999998,247.3818,249.9748,175,75
2026-05-09 16:02:24.840,5,-1.52,-1.42,2.0,-248.5758,216.4318,249.9748,175,75
2026-05-09 16:02:24.864,5,-2.0,-1.81,1.9,-74.1058,180.83180000000002,132.54479999999998,175,75
2026-05-09 16:02:24.918,5,-0.73,-0.6,2.0,164.9042,-231.0082,-250.2952,175,75
2026-05-09 16:02:24.946,5,0.89,1.29,1.96,231.8442,-252.88819999999998,-250.2952,175,75
2026-05-09 16:02:24.946,5,1.53,1.2,1.34,229.8042,-252.88819999999998,-250.2952,175,75
2026-05-09 16:02:24.957,5,1.76,1.96,1.44,172.23420000000002,-252.88819999999998,-250.2952,175,75
2026-05-09 16:02:24.957,5,2.0,2.0,1.12,73.2642,-183.7982,-250.2952,175,75
2026-05-09 16:02:24.971,5,2.0,1.7,0.4,4.9642,-47.1682,-116.17519999999999,175,75
2026-05-09 16:02:24.971,5,1.16,1.57,0.42,-51.1258,38.951800000000006,23.1848,175,75
2026-05-09 16:02:24.981,5,0.32,1.31,0.38,-107.05579999999999,61.5818,71.46480000000001,175,75
2026-05-09 16:02:24.981,5,-0.27,1.03,0.27,-146.3558,30.5418,97.85480000000001,175,75
2026-05-09 16:02:24.997,5,-0.53,0.67,0.15,-162.98579999999998,-22.5882,101.04480000000001,175,75
2026-05-09 16:02:25.000,5,-0.5,0.31,-0.09,-156.2058,-67.1382,102.04480000000001,175,75
2026-05-09 16:02:25.011,5,-0.41,0.08,-0.28,-125.5358,-110.7482,116.24480000000001,175,75
2026-05-09 16:02:25.024,5,-0.27,-0.1,-0.37,-81.6458,-144.8282,136.48479999999998,175,75
2026-05-09 16:02:25.024,5,-0.2,-0.17,-0.41,-38.7358,-162.6482,151.8648,175,75
2026-05-09 16:02:25.043,5,-0.25,-0.22,-0.53,1.8741999999999999,-174.8982,157.3948,175,75
2026-05-09 16:02:25.043,5,-0.25,-0.56,-0.3,60.7342,-188.5982,160.3148,175,75
2026-05-09 16:02:25.055,5,-0.36,-0.27,-0.81,96.58420000000001,-207.8382,154.82479999999998,175,75
2026-05-09 16:02:25.074,5,-0.38,-0.25,-0.83,128.5842,-222.8082,138.7748,175,75
2026-05-09 16:02:25.087,5,-0.36,-0.08,-0.79,120.77420000000001,-215.66819999999998,65.8348,175,75
2026-05-09 16:02:25.097,5,-0.33,-0.11,-0.68,83.8642,-186.4882,25.8548,175,75
2026-05-09 16:02:25.110,5,-0.43,-0.12,-0.46,37.2042,-155.2282,3.5747999999999998,175,75
2026-05-09 16:02:25.124,5,-0.4,-0.18,-0.21,-5.335800000000001,-125.6382,4.6748,175,75
2026-05-09 16:02:25.135,5,-0.17,-0.25,-0.2,-36.1258,-70.6982,3.6048,175,75
2026-05-09 16:02:25.147,5,0.04,-0.25,-0.33,-59.135799999999996,14.631799999999998,-25.6952,175,75
2026-05-09 16:02:25.147,5,0.37,-0.33,-0.55,-70.3258,122.9518,-65.97519999999999,175,75
2026-05-09 16:02:25.171,5,0.67,-0.29,-0.66,-74.6758,242.4618,-98.47519999999999,175,75
2026-05-09 16:02:25.190,5,0.89,-0.17,-0.47,-82.2158,247.3818,-109.39519999999999,175,75
2026-05-09 16:02:25.190,5,2.0,-0.4,-0.28,-77.1858,247.3818,-87.36519999999999,175,75
2026-05-09 16:02:25.214,5,1.59,-0.26,1.8,-80.05579999999999,247.3818,249.9748,175,75
2026-05-09 16:02:25.214,5,-1.59,-0.83,2.0,-27.535800000000002,173.4218,30.6448,175,75
2026-05-09 16:02:25.226,5,2.0,0.07,2.0,-17.0458,247.3818,-148.6052,175,75
2026-05-09 16:02:25.236,5,0.28,0.35,2.0,-86.3258,247.3818,-250.2952,175,75
2026-05-09 16:02:25.251,5,-2.0,0.15,2.0,-91.2558,247.3818,-250.2952,175,75
2026-05-09 16:02:25.251,5,-2.0,0.66,2.0,-52.6558,247.3818,-250.2952,175,75
2026-05-09 16:02:25.263,5,-2.0,0.86,2.0,-51.135799999999996,-37.408199999999994,-250.2952,175,75
2026-05-09 16:02:25.276,5,-1.46,0.95,2.0,-78.1558,-225.1082,-67.6052,175,75
2026-05-09 16:02:25.289,5,-0.57,0.81,2.0,-51.4458,-216.44819999999999,59.1648,175,75
2026-05-09 16:02:25.302,5,-0.06,0.62,2.0,-8.3858,-214.8282,221.4648,175,75
2026-05-09 16:02:25.314,5,-0.09,0.52,2.0,-3.5458000000000003,-230.69819999999999,249.9748,175,75
2026-05-09 16:02:25.320,5,-0.15,0.36,2.0,-22.9158,-251.2082,249.9748,175,75
2026-05-09 16:02:25.333,5,-0.05,0.08,1.84,-67.4258,-252.88819999999998,249.9748,175,75
2026-05-09 16:02:25.336,5,0.49,-0.58,1.08,-89.91579999999999,-252.88819999999998,249.9748,175,75
2026-05-09 16:02:25.367,5,2.0,-2.0,-0.84,24.9342,-252.88819999999998,249.9748,175,75
2026-05-09 16:02:25.380,5,1.71,-2.0,-1.35,75.9742,-147.0082,249.9748,175,75
2026-05-09 16:02:25.429,5,-1.08,-1.17,0.23,129.36419999999998,30.011799999999997,-75.6952,175,75
2026-05-09 16:02:25.443,5,-1.71,-0.88,0.34,123.8442,36.101800000000004,-250.2952,175,75
2026-05-09 16:02:25.454,5,-1.71,-0.61,0.21,118.33420000000001,2.7418000000000005,-250.2952,175,75
2026-05-09 16:02:25.454,5,-1.22,-0.13,-0.0,98.9242,-38.3782,-250.2952,175,75
2026-05-09 16:02:25.465,5,-0.47,0.61,-0.21,34.864200000000004,-53.5982,-250.2952,175,75
2026-05-09 16:02:25.500,5,1.19,1.33,-0.39,-140.1958,-2.7681999999999998,-250.2952,175,75
2026-05-09 16:02:25.527,5,0.91,1.31,-0.43,-238.98579999999998,96.2318,-250.2952,175,75
2026-05-09 16:02:25.541,5,0.07,1.0,-0.23,-248.73579999999998,92.5918,-250.2952,175,75
2026-05-09 16:02:25.552,5,0.16,0.74,0.14,-225.7258,47.671800000000005,-245.11520000000002,175,75
2026-05-09 16:02:25.564,5,0.11,0.31,0.62,-148.1158,48.271800000000006,-115.9452,175,75
2026-05-09 16:02:25.574,5,0.03,0.03,0.61,-97.6258,74.1718,-49.3652,175,75
2026-05-09 16:02:25.574,5,-0.12,-0.14,0.51,-37.9358,83.26180000000001,38.3348,175,75
2026-05-09 16:02:25.584,5,-0.41,-0.09,0.43,16.4842,66.4618,117.5348,175,75
2026-05-09 16:02:25.585,5,-0.68,0.07,0.42,57.424200000000006,25.6218,171.32479999999998,175,75
2026-05-09 16:02:25.597,5,-0.74,0.24,0.38,75.02420000000001,-33.9882,194.76479999999998,175,75
2026-05-09 16:02:25.608,5,-0.28,0.28,0.21,77.80420000000001,-92.8882,207.4448,175,75
2026-05-09 16:02:25.608,5,0.32,0.31,-0.03,69.91420000000001,-116.70819999999999,247.2848,175,75
2026-05-09 16:02:25.630,5,1.59,0.27,-0.25,55.0942,-94.0082,249.9748,175,75
2026-05-09 16:02:25.630,5,2.0,-0.03,-0.6,47.244200000000006,19.2818,249.9748,175,75
2026-05-09 16:02:25.641,5,1.64,-0.76,-0.73,49.3842,148.7518,249.9748,175,75
2026-05-09 16:02:25.651,5,0.69,-1.16,-0.07,41.074200000000005,186.6518,249.9748,175,75
2026-05-09 16:02:25.651,5,-1.26,-0.64,2.0,-27.515800000000002,103.2118,-14.8152,175,75
2026-05-09 16:02:25.663,5,-0.07,-0.36,2.0,-80.3558,-48.508199999999995,-250.2952,175,75
2026-05-09 16:02:25.673,5,2.0,0.08,2.0,-155.1258,232.2618,-250.2952,175,75
2026-05-09 16:02:25.673,5,1.5,0.01,2.0,-224.5858,247.3818,-250.2952,175,75
2026-05-09 16:02:25.684,5,1.77,0.34,2.0,-248.73579999999998,247.3818,-250.2952,175,75
2026-05-09 16:02:25.697,5,0.19,-0.48,2.0,-248.73579999999998,247.3818,-49.6052,175,75
2026-05-09 16:02:25.697,5,-2.0,-0.76,2.0,-148.8958,247.3818,59.1548,175,75
2026-05-09 16:02:25.719,5,-2.0,-0.03,2.0,60.714200000000005,-252.88819999999998,-85.97519999999999,175,75
2026-05-09 16:02:25.741,5,-0.44,-0.05,1.62,38.184200000000004,-252.88819999999998,-33.7352,175,75
2026-05-09 16:02:25.752,5,1.1,0.04,1.08,37.794200000000004,-252.88819999999998,40.1848,175,75
2026-05-09 16:02:25.764,5,1.75,-0.13,0.36,44.534200000000006,-252.88819999999998,102.5648,175,75
2026-05-09 16:02:25.764,5,1.43,-0.12,-0.39,60.6642,-252.88819999999998,125.8348,175,75
2026-05-09 16:02:25.801,5,1.22,0.43,-2.0,26.4242,-187.3682,-64.3052,175,75
2026-05-09 16:02:25.802,5,-1.12,0.14,-2.0,-50.675799999999995,-188.9882,-186.8852,175,75
2026-05-09 16:02:25.825,5,-2.0,0.17,-1.47,-97.0958,-252.88819999999998,-250.2952,175,75
2026-05-09 16:02:25.846,5,-1.63,0.46,-0.79,-123.4058,-252.88819999999998,-250.2952,175,75
2026-05-09 16:02:25.846,5,-1.0,0.39,-0.6,-124.0758,-252.88819999999998,-250.2952,175,75
2026-05-09 16:02:25.861,5,-0.12,0.49,-0.58,-78.1558,-252.88819999999998,-143.20520000000002,175,75
2026-05-09 16:02:25.873,5,0.25,0.68,-0.94,-33.285799999999995,-218.5482,-35.0052,175,75
2026-05-09 16:02:25.873,5,0.85,0.84,-1.33,27.4242,-25.4082,60.9648,175,75
2026-05-09 16:02:25.889,5,1.51,0.92,-1.13,75.0342,216.4218,129.1148,175,75
2026-05-09 16:02:25.895,5,2.0,0.57,-1.07,113.16420000000001,247.3818,228.2448,175,75
2026-05-09 16:02:25.914,5,2.0,0.37,-1.18,133.5842,247.3818,249.9748,175,75
2026-05-09 16:02:25.926,5,2.0,1.4,-2.0,103.94420000000001,247.3818,249.9748,175,75
2026-05-09 16:02:25.936,5,2.0,0.47,-2.0,88.5742,247.3818,249.9748,175,75
2026-05-09 16:02:25.950,5,-2.0,-2.0,2.0,41.9142,247.3818,-76.59519999999999,175,75
2026-05-09 16:02:25.999,5,0.56,-1.43,2.0,-171.2558,247.3818,-220.5652,175,75
2026-05-09 16:02:26.010,5,-0.96,-1.69,1.98,-101.69579999999999,247.3818,-182.17520000000002,175,75
2026-05-09 16:02:26.031,5,-1.47,1.06,2.0,73.3142,-252.88819999999998,-250.2952,175,75
2026-05-09 16:02:26.043,5,-0.75,1.03,2.0,51.0942,-252.88819999999998,-250.2952,175,75
2026-05-09 16:02:26.055,5,0.64,1.05,1.49,96.8742,-252.88819999999998,-250.2952,175,75
2026-05-09 16:02:26.071,5,0.95,1.27,1.26,82.8842,-252.88819999999998,-250.2952,175,75
2026-05-09 16:02:26.082,5,2.0,1.66,0.95,29.5342,-252.88819999999998,-240.33520000000001,175,75
2026-05-09 16:02:26.082,5,2.0,1.41,0.42,-27.5758,-163.1582,-92.6052,175,75
2026-05-09 16:02:26.094,5,1.56,1.32,0.25,-64.3258,-90.37819999999999,28.2648,175,75
2026-05-09 16:02:26.094,5,0.72,1.11,0.24,-103.4258,-46.8482,91.7348,175,75
2026-05-09 16:02:26.105,5,0.07,0.97,0.33,-146.01579999999998,-35.0582,104.68480000000001,175,75
2026-05-09 16:02:26.115,5,-0.49,0.72,0.24,-189.6458,-44.788199999999996,62.0248,175,75
2026-05-09 16:02:26.126,5,-0.58,0.39,-0.0,-207.6858,-75.2882,20.7948,175,75
2026-05-09 16:02:26.126,5,-0.58,0.13,-0.24,-202.4358,-119.6082,-2.0351999999999997,175,75
2026-05-09 16:02:26.142,5,-0.54,-0.06,-0.51,-178.29579999999999,-167.8382,-13.215200000000001,175,75
2026-05-09 16:02:26.148,5,-0.44,-0.05,-0.81,-146.3358,-209.5182,-24.3352,175,75
2026-05-09 16:02:26.164,5,-0.19,-0.08,-1.04,-93.4858,-229.7182,-34.0752,175,75
2026-05-09 16:02:26.175,5,0.18,-0.02,-1.18,-37.8758,-221.6182,-22.7152,175,75
2026-05-09 16:02:26.187,5,0.09,0.28,-1.0,25.0042,-162.69819999999999,13.1048,175,75
2026-05-09 16:02:26.198,5,-0.11,0.31,-0.74,33.4842,-132.1082,26.7048,175,75
2026-05-09 16:02:26.212,5,-0.27,0.32,-0.52,30.7942,-101.2482,30.2148,175,75
2026-05-09 16:02:26.220,5,-0.37,0.27,-0.42,26.2242,-65.7582,26.0248,175,75
2026-05-09 16:02:26.235,5,-0.48,0.24,-0.33,23.7742,-33.7282,16.7648,175,75
2026-05-09 16:02:26.235,5,-0.38,0.09,-0.22,23.9442,-0.36819999999999986,19.584799999999998,175,75
2026-05-09 16:02:26.246,5,-0.11,-0.05,-0.25,29.4242,41.241800000000005,34.3648,175,75
2026-05-09 16:02:26.280,5,0.74,-0.09,-0.77,25.3142,208.4218,15.6648,175,75
2026-05-09 16:02:26.290,5,1.61,-0.21,-1.17,26.734199999999998,247.3818,-12.9152,175,75
2026-05-09 16:02:26.290,5,2.0,-0.35,-1.41,43.044200000000004,247.3818,10.1448,175,75
2026-05-09 16:02:26.302,5,2.0,-0.47,-1.09,59.7342,247.3818,102.37480000000001,175,75
2026-05-09 16:02:26.310,5,2.0,1.4,2.0,-15.325800000000001,247.3818,249.9748,175,75
2026-05-09 16:02:26.347,5,0.49,-2.0,2.0,175.9042,247.3818,249.9748,175,75
2026-05-09 16:02:26.360,5,-2.0,-1.42,2.0,248.4342,247.3818,249.9748,175,75
2026-05-09 16:02:26.365,5,-2.0,-0.56,1.27,251.5342,100.3618,3.3747999999999996,175,75
2026-05-09 16:02:26.368,5,-2.0,0.53,0.94,251.5342,40.9418,-250.2952,175,75
2026-05-09 16:02:26.380,5,-2.0,2.0,1.67,220.0842,-70.1082,-250.2952,175,75
2026-05-09 16:02:26.392,5,-2.0,2.0,2.0,48.254200000000004,-252.88819999999998,-250.2952,175,75
2026-05-09 16:02:26.392,5,-0.82,2.0,2.0,-106.6758,-252.88819999999998,-250.2952,175,75
2026-05-09 16:02:26.402,5,0.52,2.0,1.68,-166.51579999999998,-252.88819999999998,-250.2952,175,75
2026-05-09 16:02:26.402,5,2.0,2.0,2.0,-248.73579999999998,-252.88819999999998,-250.2952,175,75
2026-05-09 16:02:26.414,5,2.0,2.0,2.0,-248.73579999999998,-241.41819999999998,145.73479999999998,175,75
2026-05-09 16:02:26.470,5,2.0,1.3,1.71,-248.73579999999998,197.9418,249.9748,175,75
2026-05-09 16:02:26.470,5,0.95,0.39,0.72,-200.3258,247.3818,249.9748,175,75
2026-05-09 16:02:26.481,5,0.11,0.69,1.29,-74.6558,247.3818,249.9748,175,75
2026-05-09 16:02:26.481,5,-0.76,0.6,1.58,-41.645799999999994,247.3818,249.9748,175,75
2026-05-09 16:02:26.501,5,-1.61,-1.2,2.0,-248.73579999999998,-252.88819999999998,249.9748,175,75
2026-05-09 16:02:26.514,5,-0.76,-2.0,0.69,-248.73579999999998,-252.88819999999998,249.9748,175,75
2026-05-09 16:02:26.514,5,-0.39,-2.0,-0.72,-193.0558,-252.88819999999998,249.9748,175,75
2026-05-09 16:02:26.525,5,-1.22,-2.0,-1.07,-68.3458,-229.66819999999998,-101.61519999999999,175,75
2026-05-09 16:02:26.525,5,-1.71,-1.52,-0.49,16.1042,-97.8282,-250.2952,175,75
2026-05-09 16:02:26.536,5,-1.27,-0.59,-0.24,64.2842,-34.4082,-250.2952,175,75
2026-05-09 16:02:26.549,5,-0.79,0.13,-0.06,94.2542,-1.2481999999999998,-250.2952,175,75
2026-05-09 16:02:26.568,5,0.31,1.52,0.09,29.7242,48.1618,-250.2952,175,75
2026-05-09 16:02:26.585,5,1.21,0.88,1.18,-43.355799999999995,100.9618,-250.2952,175,75
2026-05-09 16:02:26.585,5,1.78,1.8,-0.98,-107.8258,155.9818,-250.2952,175,75
2026-05-09 16:02:26.595,5,0.56,1.34,-0.75,-145.29579999999999,146.4018,-250.2952,175,75
2026-05-09 16:02:26.595,5,-0.84,1.49,-0.48,-184.9658,56.9318,-250.2952,175,75
2026-05-09 16:02:26.606,5,-0.48,1.01,-0.26,-206.7158,-17.0382,-194.2452,175,75
2026-05-09 16:02:26.617,5,-0.09,0.63,-0.06,-202.1758,-24.6582,-90.00519999999999,175,75
2026-05-09 16:02:26.617,5,-0.0,0.27,0.16,-179.8558,10.9118,8.2448,175,75
2026-05-09 16:02:26.629,5,-0.07,0.04,0.2,-137.01579999999998,71.5018,75.4848,175,75
2026-05-09 16:02:26.644,5,0.02,0.01,0.01,-87.33579999999999,108.7518,127.38480000000001,175,75
2026-05-09 16:02:26.656,5,0.03,0.12,0.11,-29.1558,88.9418,230.66479999999999,175,75
2026-05-09 16:02:26.656,5,0.02,0.3,0.16,10.2242,50.0118,249.9748,175,75
2026-05-09 16:02:26.669,5,0.18,0.33,0.14,36.004200000000004,26.3518,249.9748,175,75
2026-05-09 16:02:26.679,5,0.47,0.3,0.16,54.0942,19.4118,249.9748,175,75
2026-05-09 16:02:26.690,5,0.88,0.15,0.23,62.5542,31.941799999999997,249.9748,175,75
2026-05-09 16:02:26.709,5,1.64,-0.12,0.4,39.644200000000005,54.6218,249.9748,175,75
2026-05-09 16:02:26.709,5,1.32,-0.66,0.66,-0.035800000000000054,55.7518,249.9748,175,75
2026-05-09 16:02:26.722,5,0.81,-1.24,0.87,-44.2258,56.2518,179.8748,175,75
2026-05-09 16:02:26.741,5,0.47,-1.57,1.46,-34.5458,81.9118,13.444799999999999,175,75
2026-05-09 16:02:26.756,5,-0.19,-1.11,2.0,-21.7158,45.561800000000005,-235.3852,175,75
2026-05-09 16:02:26.766,5,2.0,-0.71,2.0,-35.575799999999994,166.1018,-250.2952,175,75
2026-05-09 16:02:26.777,5,1.47,-0.62,2.0,-88.6358,247.3818,-227.8752,175,75
2026-05-09 16:02:26.777,5,0.68,-0.93,2.0,-122.5958,247.3818,-145.9452,175,75
2026-05-09 16:02:26.790,5,-0.29,-1.0,2.0,-103.1558,247.3818,-96.5452,175,75
2026-05-09 16:02:26.826,5,-1.48,-0.79,2.0,-63.61579999999999,247.3818,-61.1952,175,75
2026-05-09 16:02:26.837,5,-2.0,-0.89,2.0,26.1942,148.9618,-108.5752,175,75
2026-05-09 16:02:26.848,5,-2.0,0.08,2.0,50.3842,-252.88819999999998,-92.7152,175,75
2026-05-09 16:02:26.859,5,-1.13,0.14,1.7,45.5542,-252.88819999999998,-76.2152,175,75
2026-05-09 16:02:26.867,5,0.38,0.27,0.99,42.2642,-252.88819999999998,-13.4152,175,75
2026-05-09 16:02:26.888,5,1.85,0.24,0.33,47.004200000000004,-252.88819999999998,77.3148,175,75
2026-05-09 16:02:26.888,5,1.89,0.09,-0.38,55.3042,-252.88819999999998,135.9248,175,75
2026-05-09 16:02:26.899,5,2.0,0.5,-2.0,55.8342,-252.88819999999998,151.8948,175,75
2026-05-09 16:02:26.899,5,1.27,0.68,-2.0,55.2242,-161.8582,23.7648,175,75
2026-05-09 16:02:26.912,5,-0.69,0.13,-2.0,10.354199999999999,-107.0282,-130.6852,175,75
2026-05-09 16:02:26.925,5,-1.82,0.02,-1.35,-8.745800000000001,-170.2482,-250.2952,175,75
2026-05-09 16:02:26.925,5,-1.98,0.12,-0.91,-5.075800000000001,-252.88819999999998,-250.2952,175,75
2026-05-09 16:02:26.936,5,-1.68,0.31,-0.98,6.174199999999999,-252.88819999999998,-250.2952,175,75
2026-05-09 16:02:26.947,5,-0.38,0.48,-0.94,29.9742,-252.88819999999998,-192.2852,175,75
2026-05-09 16:02:26.958,5,0.02,0.76,-0.72,2.1142,-252.88819999999998,-16.1052,175,75
2026-05-09 16:02:26.971,5,0.12,0.63,-0.66,-23.695800000000002,-252.88819999999998,68.43480000000001,175,75
2026-05-09 16:02:26.971,5,0.16,0.71,-0.58,-36.575799999999994,-119.6882,47.4748,175,75
2026-05-09 16:02:27.009,5,0.86,0.62,-1.11,-16.8858,97.8618,42.8548,175,75
2026-05-09 16:02:27.009,5,1.46,0.53,-1.18,31.2942,247.3818,77.9848,175,75
2026-05-09 16:02:27.034,5,2.0,0.53,-1.13,65.4742,247.3818,174.7048,175,75
2026-05-09 16:02:27.034,5,2.0,1.03,-0.67,38.8142,247.3818,249.9748,175,75
2026-05-09 16:02:27.040,5,2.0,1.84,-2.0,-32.5158,247.3818,249.9748,175,75
2026-05-09 16:02:27.052,5,2.0,0.62,-1.74,-40.2658,247.3818,249.9748,175,75
2026-05-09 16:02:27.062,5,2.0,-1.23,2.0,-248.73579999999998,230.3518,-33.495200000000004,175,75
2026-05-09 16:02:27.076,5,0.87,-2.0,2.0,-191.9658,247.3818,14.524799999999999,175,75
2026-05-09 16:02:27.083,5,-0.93,-1.86,1.48,-88.16579999999999,247.3818,66.7248,175,75
2026-05-09 16:02:27.105,5,-2.0,-1.83,1.15,43.7342,247.3818,7.7148,175,75
2026-05-09 16:02:27.120,5,-2.0,-1.43,1.82,118.0042,111.6918,-156.0052,175,75
2026-05-09 16:02:27.131,5,-2.0,-0.81,2.0,103.2542,-164.6082,-250.2952,175,75
2026-05-09 16:02:27.131,5,-0.93,-0.24,2.0,80.8442,-252.88819999999998,-250.2952,175,75
2026-05-09 16:02:27.131,5,0.3,0.3,2.0,86.52420000000001,-252.88819999999998,-250.2952,175,75
2026-05-09 16:02:27.142,5,1.02,0.68,2.0,88.9742,-252.88819999999998,-250.2952,175,75
2026-05-09 16:02:27.153,5,1.41,0.86,1.68,62.1342,-252.88819999999998,-250.2952,175,75
2026-05-09 16:02:27.153,5,1.38,0.83,1.21,32.6342,-230.7082,-250.2952,175,75
2026-05-09 16:02:27.164,5,1.69,0.81,0.91,2.4142,-170.3582,-250.2952,175,75
2026-05-09 16:02:27.164,5,1.89,0.77,0.68,-21.9158,-82.0382,-216.5352,175,75
2026-05-09 16:02:27.176,5,1.34,0.68,0.49,-38.2758,-3.7782,-132.7952,175,75
2026-05-09 16:02:27.186,5,0.76,0.64,0.4,-48.035799999999995,38.811800000000005,-85.2152,175,75
2026-05-09 16:02:27.197,5,0.34,0.66,0.28,-52.745799999999996,47.9318,-59.7652,175,75
2026-05-09 16:02:27.235,5,-0.09,0.59,0.19,-58.3058,15.671800000000001,-63.2752,175,75
2026-05-09 16:02:27.235,5,-0.17,0.44,0.07,-50.605799999999995,-10.828199999999999,-76.0252,175,75
2026-05-09 16:02:27.246,5,-0.15,0.31,-0.03,-32.5158,-43.978199999999994,-73.8352,175,75
2026-05-09 16:02:27.293,5,-0.05,0.17,0.04,-2.8358000000000003,-100.4682,-17.8352,175,75
2026-05-09 16:02:27.311,5,-0.1,0.05,0.1,-5.995800000000001,-118.81819999999999,38.8948,175,75
2026-05-09 16:02:27.311,5,-0.16,-0.03,0.05,-9.9158,-125.37819999999999,64.01480000000001,175,75
2026-05-09 16:02:27.356,5,-0.24,-0.11,-0.03,-9.645800000000001,-128.2382,78.0648,175,75
2026-05-09 16:02:27.386,5,-0.33,-0.15,-0.2,-7.7758,-134.5182,82.87480000000001,175,75
2026-05-09 16:02:27.392,5,-0.25,-0.12,-0.49,-6.825800000000001,-138.1882,77.5048,175,75
2026-05-09 16:02:27.415,5,0.17,0.25,-1.13,8.7242,-113.7582,62.1548,175,75
2026-05-09 16:02:27.415,5,0.53,0.05,-1.18,19.4542,-56.3482,59.004799999999996,175,75
2026-05-09 16:02:27.427,5,0.12,0.11,-1.1,32.6742,-7.5382,51.4348,175,75
2026-05-09 16:02:27.464,5,0.31,0.05,-0.41,-18.4758,129.5418,-67.14519999999999,175,75
2026-05-09 16:02:27.464,5,1.04,-0.06,-0.63,-32.575799999999994,209.9818,-87.0252,175,75
2026-05-09 16:02:27.475,5,1.79,-0.32,-0.86,-22.6458,247.3818,-50.8852,175,75
2026-05-09 16:02:27.475,5,2.0,-0.36,-0.82,0.5141999999999999,247.3818,61.6548,175,75
2026-05-09 16:02:27.475,5,2.0,-0.1,-0.32,19.3842,247.3818,216.1148,175,75
2026-05-09 16:02:27.487,5,1.4,-0.83,2.0,31.2942,241.1018,249.9748,175,75
2026-05-09 16:02:27.498,5,0.13,-1.22,2.0,21.8742,-21.1582,5.1448,175,75
2026-05-09 16:02:27.498,5,2.0,0.35,2.0,-12.245800000000001,247.3818,-48.4152,175,75
2026-05-09 16:02:27.512,5,-0.1,0.11,2.0,-50.6558,247.3818,-110.25519999999999,175,75
2026-05-09 16:02:27.512,5,-2.0,-0.16,2.0,-35.955799999999996,247.3818,-250.2952,175,75
2026-05-09 16:02:27.524,5,-2.0,0.11,2.0,-42.135799999999996,247.3818,-250.2952,175,75
2026-05-09 16:02:27.524,5,-2.0,0.13,2.0,-51.035799999999995,54.1218,-250.2952,175,75
2026-05-09 16:02:27.535,5,-2.0,0.2,2.0,-54.825799999999994,-108.0082,-250.2952,175,75
2026-05-09 16:02:27.535,5,-1.31,0.29,2.0,-49.5458,-210.8382,-161.4652,175,75
2026-05-09 16:02:27.547,5,-0.16,0.34,2.0,-16.535800000000002,-240.8982,-21.5852,175,75
2026-05-09 16:02:27.550,5,0.24,0.29,2.0,35.674200000000006,-251.0482,118.2848,175,75
2026-05-09 16:02:27.557,5,0.51,0.43,2.0,46.824200000000005,-252.88819999999998,241.9248,175,75
2026-05-09 16:02:27.564,5,0.74,0.41,2.0,18.0342,-252.88819999999998,249.9748,175,75
2026-05-09 16:02:27.579,5,0.94,0.28,1.62,-13.1758,-252.88819999999998,249.9748,175,75
2026-05-09 16:02:27.579,5,0.82,-0.04,1.19,-39.0158,-252.88819999999998,249.9748,175,75
2026-05-09 16:02:27.591,5,0.8,-0.43,0.77,-66.9658,-252.88819999999998,249.9748,175,75
2026-05-09 16:02:27.591,5,1.8,-1.47,-0.3,-54.245799999999996,-234.3482,249.9748,175,75
2026-05-09 16:02:27.602,5,1.41,-1.67,-0.74,-12.1358,-92.1182,172.1248,175,75
2026-05-09 16:02:27.627,5,0.38,-1.27,-0.29,19.0342,5.5318,44.4048,175,75
2026-05-09 16:02:27.627,5,-0.31,-0.87,-0.02,23.5942,55.061800000000005,-71.97519999999999,175,75
2026-05-09 16:02:27.653,5,-0.88,-0.49,0.11,9.7042,55.0518,-197.2152,175,75
2026-05-09 16:02:27.687,5,-0.92,-0.14,0.12,-20.9358,17.081799999999998,-250.2952,175,75
2026-05-09 16:02:27.705,5,-0.63,0.17,0.06,-60.6258,-30.668200000000002,-250.2952,175,75
2026-05-09 16:02:27.717,5,-0.1,0.39,-0.06,-102.7158,-60.4882,-250.2952,175,75
2026-05-09 16:02:27.717,5,0.23,0.51,-0.15,-136.3658,-66.3182,-250.2952,175,75
2026-05-09 16:02:27.726,5,0.71,0.47,-0.23,-157.5758,-59.3782,-250.2952,175,75
2026-05-09 16:02:27.745,5,1.13,0.6,-0.28,-164.3258,-37.298199999999994,-250.2952,175,75
2026-05-09 16:02:27.769,5,0.78,0.51,-0.22,-156.5558,-11.2482,-176.58520000000001,175,75
2026-05-09 16:02:27.773,5,0.26,0.58,-0.04,-153.2858,8.271799999999999,-145.6552,175,75
2026-05-09 16:02:27.819,5,0.08,0.37,0.11,-122.4358,53.561800000000005,-173.5352,175,75
2026-05-09 16:02:27.819,5,0.06,0.36,0.08,-94.0958,79.1018,-179.20520000000002,175,75
2026-05-09 16:02:27.829,5,0.01,0.32,0.18,-59.965799999999994,96.5918,-172.0052,175,75
2026-05-09 16:02:27.829,5,0.04,0.3,0.14,-19.6458,99.0718,-137.6252,175,75
2026-05-09 16:02:27.839,5,0.1,0.37,0.14,13.6442,81.7418,-62.4452,175,75
2026-05-09 16:02:27.839,5,0.1,0.44,0.11,36.104200000000006,50.461800000000004,27.154799999999998,175,75
2026-05-09 16:02:27.848,5,0.18,0.34,0.09,52.0942,25.1718,107.13480000000001,175,75
2026-05-09 16:02:27.858,5,0.37,0.21,0.11,66.1842,19.1318,174.7048,175,75
2026-05-09 16:02:27.858,5,0.7,-0.04,0.17,77.5142,35.6218,243.0648,175,75
2026-05-09 16:02:27.869,5,2.0,0.03,0.34,83.77420000000001,148.05180000000001,249.9748,175,75
2026-05-09 16:02:27.874,5,0.99,-0.26,1.01,46.7242,222.1318,249.9748,175,75
2026-05-09 16:02:27.886,5,0.16,-1.58,2.0,-46.635799999999996,30.3618,69.21480000000001,175,75
2026-05-09 16:02:27.886,5,2.0,-1.18,2.0,-68.1558,80.8818,-148.7452,175,75
2026-05-09 16:02:27.902,5,1.51,-0.74,2.0,-91.08579999999999,247.3818,-101.6052,175,75
2026-05-09 16:02:27.909,5,0.38,-0.92,2.0,-86.80579999999999,247.3818,-95.42519999999999,175,75
2026-05-09 16:02:27.920,5,-0.91,-1.36,2.0,-65.7358,247.3818,-187.5552,175,75
2026-05-09 16:02:27.937,5,-1.54,-1.37,2.0,-36.4158,247.3818,-250.2952,175,75
2026-05-09 16:02:27.953,5,-1.12,-0.87,2.0,-15.575800000000001,247.3818,-250.2952,175,75
2026-05-09 16:02:27.978,5,-1.88,-0.32,2.0,20.4542,177.1518,-182.0752,175,75
2026-05-09 16:02:27.989,5,-2.0,0.01,2.0,48.5142,-11.208200000000001,-150.0252,175,75
2026-05-09 16:02:28.001,5,-2.0,0.41,2.0,49.3042,-198.6782,-144.9752,175,75
2026-05-09 16:02:28.001,5,-2.0,0.35,2.0,41.324200000000005,-252.88819999999998,-98.5852,175,75
2026-05-09 16:02:28.012,5,-1.18,0.15,1.69,45.9542,-252.88819999999998,-32.7852,175,75
2026-05-09 16:02:28.023,5,-0.02,0.06,1.13,61.244200000000006,-252.88819999999998,42.4648,175,75
2026-05-09 16:02:28.023,5,1.16,0.1,0.71,66.58420000000001,-252.88819999999998,141.9548,175,75
2026-05-09 16:02:28.035,5,1.72,0.23,0.13,71.8442,-252.88819999999998,243.04479999999998,175,75
2026-05-09 16:02:28.035,5,2.0,0.28,-1.31,113.9642,-252.88819999999998,249.9748,175,75
2026-05-09 16:02:28.035,5,2.0,0.22,-2.0,104.0942,-183.5882,249.9748,175,75
2026-05-09 16:02:28.055,5,-1.64,-0.4,-1.6,105.4942,-8.7082,-93.2652,175,75
2026-05-09 16:02:28.064,5,-2.0,-0.06,-0.95,78.77420000000001,-130.3482,-218.0952,175,75
2026-05-09 16:02:28.107,5,-1.96,0.19,-0.42,31.3842,-219.8682,-250.2952,175,75
2026-05-09 16:02:28.107,5,-1.73,0.36,-0.3,-17.8258,-252.88819999999998,-250.2952,175,75
2026-05-09 16:02:28.121,5,-1.18,0.26,-0.52,-50.425799999999995,-252.88819999999998,-250.2952,175,75
2026-05-09 16:02:28.131,5,-0.2,0.3,-0.84,-67.30579999999999,-252.88819999999998,-223.1252,175,75
2026-05-09 16:02:28.131,5,0.55,0.55,-1.1,-78.2058,-252.88819999999998,-44.4152,175,75
2026-05-09 16:02:28.142,5,0.25,0.62,-0.91,-85.7558,-252.88819999999998,42.504799999999996,175,75
2026-05-09 16:02:28.152,5,-0.06,0.52,-0.46,-87.2358,-134.2982,24.334799999999998,175,75
2026-05-09 16:02:28.152,5,0.44,0.45,-0.53,-67.0058,19.8818,7.7348,175,75
2026-05-09 16:02:28.163,5,1.15,0.35,-0.87,-20.7758,212.61180000000002,39.2848,175,75
2026-05-09 16:02:28.163,5,1.7,0.36,-0.96,28.1942,247.3818,102.37480000000001,175,75
2026-05-09 16:02:28.177,5,2.0,0.46,-0.91,54.9042,247.3818,202.6748,175,75
2026-05-09 16:02:28.188,5,2.0,0.34,-0.65,65.6442,247.3818,249.9748,175,75
2026-05-09 16:02:28.198,5,2.0,0.35,-0.96,37.7242,247.3818,249.9748,175,75
2026-05-09 16:02:28.249,5,-0.18,-1.98,2.0,-113.0058,247.3818,26.154799999999998,175,75
2026-05-09 16:02:28.260,5,-1.35,-1.29,1.71,-49.675799999999995,247.3818,0.7948,175,75
2026-05-09 16:02:28.260,5,-2.0,-1.73,2.0,41.684200000000004,247.3818,-182.3252,175,75
2026-05-09 16:02:28.271,5,-2.0,-1.51,2.0,103.3942,150.7918,-250.2952,175,75
2026-05-09 16:02:28.271,5,-1.84,-0.72,2.0,110.1142,-105.4982,-250.2952,175,75
2026-05-09 16:02:28.281,5,-0.74,0.0,2.0,129.5842,-249.1282,-250.2952,175,75
2026-05-09 16:02:28.292,5,-0.29,0.21,2.0,154.4742,-252.88819999999998,-250.2952,175,75
2026-05-09 16:02:28.292,5,0.26,0.78,2.0,144.23420000000002,-252.88819999999998,-250.2952,175,75
2026-05-09 16:02:28.357,5,0.99,0.75,0.78,-51.575799999999994,-174.6482,-230.4452,175,75
2026-05-09 16:02:28.367,5,1.32,0.72,0.5,-65.7058,-138.5782,-166.8852,175,75
2026-05-09 16:02:28.367,5,1.2,0.66,0.41,-73.7458,-80.5382,-99.39519999999999,175,75
2026-05-09 16:02:28.378,5,0.73,0.66,0.42,-80.5458,-30.5782,-64.37519999999999,175,75
2026-05-09 16:02:28.378,5,0.32,0.59,0.36,-82.9058,-1.2081999999999997,-62.5552,175,75
2026-05-09 16:02:28.378,5,0.06,0.51,0.28,-76.5658,7.301800000000001,-72.1552,175,75
2026-05-09 16:02:28.389,5,-0.12,0.44,0.19,-60.135799999999996,-6.7382,-79.1352,175,75
2026-05-09 16:02:28.400,5,-0.27,0.42,0.13,-39.0458,-33.8882,-81.36519999999999,175,75
2026-05-09 16:02:28.411,5,-0.26,0.39,0.13,-20.7758,-62.148199999999996,-77.00519999999999,175,75
2026-05-09 16:02:28.421,5,-0.21,0.33,0.09,-6.2258,-86.7282,-57.8152,175,75
2026-05-09 16:02:28.433,5,-0.09,0.17,-0.11,23.7642,-121.34819999999999,31.964799999999997,175,75
2026-05-09 16:02:28.443,5,-0.1,0.05,-0.27,43.5142,-134.8482,85.60480000000001,175,75
2026-05-09 16:02:28.488,5,-0.1,0.01,-0.51,65.3042,-148.9082,133.9748,175,75
2026-05-09 16:02:28.495,5,0.03,-0.43,-0.33,102.66420000000001,-161.8082,173.3048,175,75
2026-05-09 16:02:28.495,5,0.12,-0.28,-0.85,136.5542,-164.3482,190.6948,175,75
2026-05-09 16:02:28.505,5,-0.17,0.19,-1.29,129.0042,-152.9682,160.88479999999998,175,75
2026-05-09 16:02:28.509,5,-0.39,0.11,-1.09,92.4942,-137.19819999999999,95.02480000000001,175,75
2026-05-09 16:02:28.514,5,-0.6,-0.1,-0.6,51.614200000000004,-134.69819999999999,48.2348,175,75
2026-05-09 16:02:28.534,5,-0.33,-0.31,-0.3,28.484199999999998,-114.4982,26.3448,175,75
2026-05-09 16:02:28.547,5,0.05,-0.29,-0.34,8.424199999999999,-43.828199999999995,-6.9152,175,75
2026-05-09 16:02:28.547,5,0.34,-0.22,-0.49,-18.2958,56.7918,-55.5552,175,75
2026-05-09 16:02:28.567,5,0.59,-0.21,-0.57,-40.1258,163.6418,-95.3252,175,75
2026-05-09 16:02:28.567,5,0.96,-0.23,-0.52,-52.5558,247.3818,-103.2652,175,75
2026-05-09 16:02:28.609,5,2.0,-0.67,-0.13,-34.1958,247.3818,38.1848,175,75
2026-05-09 16:02:28.619,5,2.0,-0.01,2.0,-33.325799999999994,247.3818,249.9748,175,75
2026-05-09 16:02:28.619,5,-2.0,-1.24,2.0,22.144199999999998,166.2818,66.68480000000001,175,75
2026-05-09 16:02:28.632,5,2.0,0.35,2.0,-6.075800000000001,247.3818,-80.42519999999999,175,75
2026-05-09 16:02:28.632,5,-0.46,0.35,2.0,-70.1258,247.3818,-181.6552,175,75
2026-05-09 16:02:28.658,5,-2.0,0.12,2.0,-129.5858,247.3818,-250.2952,175,75
2026-05-09 16:02:28.658,5,-2.0,0.41,2.0,-76.9358,195.33180000000002,-250.2952,175,75
2026-05-09 16:02:28.673,5,-2.0,0.75,2.0,-43.2758,-115.7482,-226.8152,175,75
2026-05-09 16:02:28.673,5,-2.0,0.99,2.0,-38.1558,-235.3082,-88.62519999999999,175,75
2026-05-09 16:02:28.685,5,-1.47,0.84,2.0,15.2942,-252.88819999999998,14.0148,175,75
2026-05-09 16:02:28.685,5,-0.81,0.86,2.0,88.1242,-252.88819999999998,150.4648,175,75
2026-05-09 16:02:28.710,5,0.06,0.36,2.0,14.4042,-252.88819999999998,249.9748,175,75
2026-05-09 16:02:28.710,5,0.6,-0.16,1.6,-12.0258,-252.88819999999998,249.9748,175,75
2026-05-09 16:02:28.721,5,0.97,-0.86,0.89,-3.1957999999999998,-252.88819999999998,249.9748,175,75
2026-05-09 16:02:28.732,5,0.24,-1.0,0.57,3.9242,-252.88819999999998,249.9748,175,75
2026-05-09 16:02:28.732,5,2.0,-2.0,-1.36,-10.5158,-252.88819999999998,249.9748,175,75
2026-05-09 16:02:28.748,5,1.7,-2.0,-1.67,10.0642,-252.88819999999998,249.9748,175,75
2026-05-09 16:02:28.748,5,-0.3,-1.31,-0.5,-7.2858,-184.2182,144.6748,175,75
2026-05-09 16:02:28.759,5,-1.47,-0.78,0.09,-27.855800000000002,-132.1082,-95.59519999999999,175,75
2026-05-09 16:02:28.769,5,-2.0,-0.41,0.35,-46.565799999999996,-135.1282,-250.2952,175,75
2026-05-09 16:02:28.788,5,-1.83,-0.14,0.28,-63.80579999999999,-171.44819999999999,-250.2952,175,75
2026-05-09 16:02:28.813,5,-0.94,0.87,-0.38,-137.54579999999999,-252.88819999999998,-250.2952,175,75
2026-05-09 16:02:28.813,5,0.32,0.14,0.41,-175.9658,-252.88819999999998,-250.2952,175,75
2026-05-09 16:02:28.821,5,2.0,1.36,-1.22,-245.7058,-194.7082,-250.2952,175,75
2026-05-09 16:02:28.834,5,1.72,1.16,-1.22,-248.73579999999998,-70.62819999999999,-193.8852,175,75
2026-05-09 16:02:28.834,5,0.14,1.26,-0.72,-248.73579999999998,13.401799999999998,-150.6552,175,75
2026-05-09 16:02:28.851,5,-0.3,1.0,-0.25,-248.73579999999998,74.3118,-216.5252,175,75
2026-05-09 16:02:28.865,5,0.33,0.33,0.02,-239.8858,247.3218,-249.2752,175,75
2026-05-09 16:02:28.871,5,0.23,0.26,0.07,-200.8758,247.3818,-192.61520000000002,175,75
2026-05-09 16:02:28.884,5,0.08,0.17,0.03,-162.54579999999999,247.3818,-101.2652,175,75
2026-05-09 16:02:28.896,5,-0.03,0.17,-0.11,-120.4958,247.3818,19.7048,175,75
2026-05-09 16:02:28.907,5,-0.05,0.35,-0.12,-69.97579999999999,247.3818,168.7148,175,75
2026-05-09 16:02:28.907,5,0.19,0.86,0.07,-19.7058,166.5918,249.9748,175,75
2026-05-09 16:02:28.926,5,0.19,0.88,0.53,-7.325800000000001,40.7918,249.9748,175,75
2026-05-09 16:02:28.926,5,0.45,0.93,0.62,-14.235800000000001,-7.6781999999999995,249.9748,175,75
2026-05-09 16:02:28.941,5,1.49,0.21,0.68,-10.405800000000001,3.2418000000000005,249.9748,175,75
2026-05-09 16:02:28.949,5,1.17,-0.8,1.31,-55.6658,-48.438199999999995,249.9748,175,75
2026-05-09 16:02:28.961,5,2.0,-1.93,0.8,-85.6158,42.9418,210.76479999999998,175,75
2026-05-09 16:02:28.971,5,0.53,-2.0,1.18,-0.8158000000000003,170.2318,-3.7851999999999997,175,75
2026-05-09 16:02:28.986,5,1.19,-1.55,2.0,32.4242,203.1218,-174.6852,175,75
2026-05-09 16:02:28.986,5,0.54,-1.12,1.94,57.2042,247.3818,-175.2552,175,75
2026-05-09 16:02:28.996,5,-0.13,-1.31,2.0,73.9342,247.3818,-203.48520000000002,175,75
2026-05-09 16:02:29.006,5,-0.34,-1.25,2.0,77.0742,247.3818,-244.86520000000002,175,75
2026-05-09 16:02:29.019,5,-0.3,-0.62,2.0,30.2242,247.3818,-177.0252,175,75
2026-05-09 16:02:29.030,5,-2.0,-0.4,2.0,11.2342,247.3818,-108.6552,175,75
2026-05-09 16:02:29.042,5,-2.0,-0.36,2.0,36.2642,73.37180000000001,-127.89519999999999,175,75
2026-05-09 16:02:29.065,5,-2.0,0.08,2.0,33.004200000000004,-193.7182,-155.1052,175,75
2026-05-09 16:02:29.095,5,-1.58,-0.14,1.74,55.5842,-252.88819999999998,-63.8752,175,75
2026-05-09 16:02:29.095,5,-0.0,-0.2,1.01,84.0042,-252.88819999999998,14.774799999999999,175,75
2026-05-09 16:02:29.107,5,1.31,-0.05,0.46,104.7142,-252.88819999999998,144.0248,175,75
2026-05-09 16:02:29.117,5,1.76,-0.11,-0.36,123.77420000000001,-252.88819999999998,249.9748,175,75
2026-05-09 16:02:29.156,5,2.0,-0.04,-1.97,158.5742,-252.88819999999998,249.9748,175,75
2026-05-09 16:02:29.156,5,2.0,-0.94,-2.0,200.5442,-249.8682,249.9748,175,75
2026-05-09 16:02:29.187,5,-1.77,-0.71,-1.4,158.0042,-144.5482,-36.3252,175,75
2026-05-09 16:02:29.187,5,-2.0,-0.1,-0.42,127.02420000000001,-252.88819999999998,-115.5152,175,75
2026-05-09 16:02:29.222,5,-2.0,0.15,-0.01,54.9442,-252.88819999999998,-194.83520000000001,175,75
2026-05-09 16:02:29.253,5,-1.79,0.33,0.21,-23.265800000000002,-252.88819999999998,-250.2952,175,75
2026-05-09 16:02:29.253,5,-1.66,0.32,0.15,-94.4558,-252.88819999999998,-250.2952,175,75
2026-05-09 16:02:29.266,5,-1.36,0.25,-0.16,-152.3058,-252.88819999999998,-250.2952,175,75
2026-05-09 16:02:29.317,5,0.1,0.33,-1.03,-190.2458,-252.88819999999998,-85.03519999999999,175,75
2026-05-09 16:02:29.338,5,0.34,0.42,-1.21,-168.6158,-228.3782,-34.745200000000004,175,75
2026-05-09 16:02:29.338,5,0.15,0.54,-0.94,-130.6758,-41.798199999999994,-34.3152,175,75
2026-05-09 16:02:29.338,5,0.66,0.7,-0.95,-96.08579999999999,156.5018,-43.5252,175,75
2026-05-09 16:02:29.351,5,1.12,0.73,-1.0,-53.6658,247.3818,-29.4252,175,75
2026-05-09 16:02:29.359,5,2.0,0.65,-1.14,-19.285800000000002,247.3818,27.6648,175,75
2026-05-09 16:02:29.374,5,2.0,1.2,-0.75,-28.6558,247.3818,144.8448,175,75
2026-05-09 16:02:29.374,5,2.0,0.57,-0.98,-65.1758,247.3818,162.1748,175,75
2026-05-09 16:02:29.389,5,2.0,0.25,-1.4,-114.80579999999999,247.3818,192.57479999999998,175,75
2026-05-09 16:02:29.389,5,-2.0,-0.55,2.0,-184.5758,247.3818,249.9748,175,75
2026-05-09 16:02:29.400,5,-0.78,-0.22,2.0,-121.6158,155.9918,125.63480000000001,175,75
2026-05-09 16:02:29.400,5,-1.93,-1.56,2.0,-39.1558,243.5418,42.8648,175,75
2026-05-09 16:02:29.400,5,-2.0,-1.69,2.0,42.8842,237.4318,-87.7952,175,75
2026-05-09 16:02:29.427,5,-2.0,-1.52,2.0,70.7442,26.8618,-240.70520000000002,175,75
2026-05-09 16:02:29.483,5,0.35,0.23,2.0,173.0242,-252.88819999999998,-243.9052,175,75
2026-05-09 16:02:29.494,5,1.01,0.74,2.0,143.0242,-252.88819999999998,-250.2952,175,75
2026-05-09 16:02:29.527,5,1.25,0.87,1.63,89.6742,-252.88819999999998,-250.2952,175,75
2026-05-09 16:02:29.528,5,1.22,0.86,1.22,28.2242,-230.4382,-250.2952,175,75
2026-05-09 16:02:29.539,5,1.48,0.77,0.9,-19.5758,-169.5882,-238.5452,175,75
2026-05-09 16:02:29.539,5,1.39,0.67,0.46,-65.22579999999999,-8.3682,-86.6852,175,75
2026-05-09 16:02:29.543,5,0.74,0.66,0.37,-78.0058,42.851800000000004,-64.8252,175,75
2026-05-09 16:02:29.545,5,0.26,0.64,0.26,-84.7058,53.771800000000006,-77.1352,175,75
2026-05-09 16:02:29.550,5,0.1,0.54,0.2,-78.7358,35.6818,-89.12519999999999,175,75
2026-05-09 16:02:29.550,5,0.06,0.51,0.17,-60.7258,3.7818000000000005,-86.9152,175,75
2026-05-09 16:02:29.564,5,0.02,0.52,0.2,-39.635799999999996,-26.0582,-72.36519999999999,175,75
2026-05-09 16:02:29.564,5,-0.06,0.55,0.25,-23.8858,-49.9482,-64.28519999999999,175,75
2026-05-09 16:02:29.575,5,-0.09,0.53,0.32,-18.7258,-64.5082,-55.9852,175,75
2026-05-09 16:02:29.575,5,-0.14,0.45,0.35,-21.8458,-75.1082,-38.3152,175,75
2026-05-09 16:02:29.586,5,-0.21,0.32,0.29,-23.3258,-86.8882,-11.385200000000001,175,75
2026-05-09 16:02:29.589,5,-0.21,0.16,0.15,-17.1858,-99.9482,21.834799999999998,175,75
2026-05-09 16:02:29.617,5,-0.09,0.03,-0.03,-0.8158000000000003,-110.06819999999999,69.1448,175,75
2026-05-09 16:02:29.627,5,-0.05,-0.07,-0.3,29.054199999999998,-122.0182,126.90480000000001,175,75
2026-05-09 16:02:29.644,5,0.18,-0.96,0.1,111.5642,-139.5982,204.2148,175,75
2026-05-09 16:02:29.644,5,-0.04,-0.02,-1.26,138.8742,-133.8382,201.0048,175,75
2026-05-09 16:02:29.655,5,-0.31,-0.15,-1.25,137.9042,-119.5482,101.5048,175,75
2026-05-09 16:02:29.675,5,0.06,-0.26,-0.96,104.1542,-73.20819999999999,32.2648,175,75
2026-05-09 16:02:29.675,5,0.19,-0.3,-0.52,65.66420000000001,-10.1982,-0.06520000000000001,175,75
2026-05-09 16:02:29.687,5,0.42,-0.33,-0.31,27.644199999999998,57.9318,-8.875200000000001,175,75
2026-05-09 16:02:29.701,5,0.76,-0.43,-0.3,4.7542,144.0718,-5.8852,175,75
2026-05-09 16:02:29.712,5,1.37,-0.6,-0.32,0.9341999999999999,247.3818,12.9948,175,75
2026-05-09 16:02:29.712,5,2.0,-1.31,-0.46,29.9542,247.3818,40.8648,175,75
2026-05-09 16:02:29.747,5,2.0,-0.14,-1.23,105.9542,247.3818,112.24480000000001,175,75
2026-05-09 16:02:29.760,5,-2.0,-1.82,2.0,135.9742,247.3818,-250.2952,175,75
2026-05-09 16:02:29.772,5,2.0,1.26,2.0,53.864200000000004,247.3818,-250.2952,175,75
2026-05-09 16:02:29.772,5,0.09,0.74,2.0,-49.7758,247.3818,-250.2952,175,75
2026-05-09 16:02:29.791,5,-2.0,0.59,2.0,-126.5958,247.3818,-250.2952,175,75
2026-05-09 16:02:29.800,5,-2.0,0.84,2.0,-178.1658,247.3818,-250.2952,175,75
2026-05-09 16:02:29.800,5,-2.0,0.76,2.0,-180.4658,131.58180000000002,-250.2952,175,75
2026-05-09 16:02:29.815,5,-2.0,0.93,2.0,-107.7358,-171.9382,-250.2952,175,75
2026-05-09 16:02:29.889,5,-0.25,0.95,2.0,108.0442,-252.88819999999998,241.0848,175,75
2026-05-09 16:02:29.900,5,0.08,1.18,2.0,97.9842,-252.88819999999998,249.9748,175,75
2026-05-09 16:02:29.913,5,0.18,0.92,2.0,32.754200000000004,-252.88819999999998,249.9748,175,75
2026-05-09 16:02:29.913,5,0.45,0.43,2.0,-35.8658,-252.88819999999998,249.9748,175,75
2026-05-09 16:02:29.933,5,1.01,-0.26,1.24,-62.69579999999999,-252.88819999999998,249.9748,175,75
2026-05-09 16:02:29.933,5,0.38,0.18,1.08,-55.0158,-252.88819999999998,249.9748,175,75
2026-05-09 16:02:29.946,5,1.01,-1.64,-0.42,-52.1858,-252.88819999999998,249.9748,175,75
2026-05-09 16:02:29.946,5,1.56,-2.0,-1.76,-4.3558,-252.88819999999998,249.9748,175,75
2026-05-09 16:02:29.956,5,-1.42,-1.19,-0.1,32.3742,-165.9982,28.5548,175,75
2026-05-09 16:02:30.007,5,-1.2,-0.05,0.02,-9.5058,-208.69819999999999,-250.2952,175,75
2026-05-09 16:02:30.031,5,-0.65,0.5,-0.28,-54.3658,-226.5982,-250.2952,175,75
2026-05-09 16:02:30.097,5,0.68,0.81,-0.83,-230.29579999999999,16.3218,-241.8152,175,75
2026-05-09 16:02:30.122,5,0.1,1.0,-0.62,-237.8958,75.01180000000001,-218.64520000000002,175,75
2026-05-09 16:02:30.133,5,0.3,0.39,-0.12,-135.7258,247.3818,-12.7652,175,75
2026-05-09 16:02:30.140,5,0.86,0.72,0.2,-61.1658,247.3818,249.9748,175,75
2026-05-09 16:02:30.165,5,0.57,0.91,0.37,-56.8058,181.7318,249.9748,175,75
2026-05-09 16:02:30.166,5,-0.11,0.89,0.97,-55.255799999999994,123.2718,249.9748,175,75
2026-05-09 16:02:30.176,5,0.59,0.2,1.59,-74.5358,-24.6382,249.9748,175,75
2026-05-09 16:02:30.176,5,1.62,-2.0,1.81,-51.8658,-149.9982,227.7148,175,75
2026-05-09 16:02:30.188,5,-0.38,-1.13,2.0,80.6342,247.3818,-103.98519999999999,175,75
2026-05-09 16:02:30.188,5,-1.05,-1.34,2.0,54.424200000000006,247.3818,-247.7252,175,75
2026-05-09 16:02:30.196,5,-1.36,-1.36,2.0,15.1242,247.3818,-250.2952,175,75
2026-05-09 16:02:30.207,5,-1.09,-1.37,2.0,-1.9758,247.3818,-250.2952,175,75
2026-05-09 16:02:30.210,5,-0.72,-0.85,2.0,27.8642,163.4518,-250.2952,175,75
2026-05-09 16:02:30.231,5,-1.83,0.38,2.0,103.9642,-235.9082,-104.25519999999999,175,75
2026-05-09 16:02:30.244,5,-1.74,0.6,2.0,68.8742,-252.88819999999998,-101.9052,175,75
2026-05-09 16:02:30.261,5,-0.76,0.48,1.43,44.364200000000004,-252.88819999999998,-93.50519999999999,175,75
2026-05-09 16:02:30.286,5,0.45,0.46,0.99,26.8342,-252.88819999999998,-61.8052,175,75
2026-05-09 16:02:30.286,5,1.07,0.46,0.45,19.1642,-252.88819999999998,5.1848,175,75
2026-05-09 16:02:30.300,5,1.56,0.38,-0.34,21.0042,-252.88819999999998,74.6648,175,75
2026-05-09 16:02:30.300,5,2.0,0.76,-1.86,46.5842,-252.88819999999998,222.16479999999999,175,75
2026-05-09 16:02:30.332,5,1.58,0.59,-2.0,110.7142,-227.3982,249.9748,175,75
2026-05-09 16:02:30.332,5,-0.19,0.32,-2.0,132.20420000000001,-172.1082,181.3448,175,75
2026-05-09 16:02:30.342,5,-1.79,-0.16,-1.22,54.4042,-252.88819999999998,-102.5452,175,75
2026-05-09 16:02:30.353,5,-1.5,0.05,-0.46,5.4841999999999995,-252.88819999999998,-174.20520000000002,175,75
2026-05-09 16:02:30.353,5,-1.24,0.12,-0.23,-46.7258,-252.88819999999998,-194.3252,175,75
2026-05-09 16:02:30.364,5,-0.8,0.27,-0.18,-90.5458,-252.88819999999998,-179.64520000000002,175,75
2026-05-09 16:02:30.378,5,-0.33,0.34,-0.3,-118.2558,-252.88819999999998,-126.7952,175,75
2026-05-09 16:02:30.388,5,0.01,0.43,-0.34,-131.5858,-242.0782,-71.5752,175,75
2026-05-09 16:02:30.388,5,0.44,0.44,-0.63,-115.80579999999999,-114.3282,-16.6952,175,75
2026-05-09 16:02:30.399,5,1.12,0.42,-1.15,-65.5058,53.8618,46.574799999999996,175,75
2026-05-09 16:02:30.399,5,1.33,0.68,-1.53,7.1242,247.3818,99.26480000000001,175,75
2026-05-09 16:02:30.422,5,2.0,0.47,-0.94,71.6342,247.3818,129.3748,175,75
2026-05-09 16:02:30.432,5,2.0,0.23,-0.31,83.2442,247.3818,152.9648,175,75
2026-05-09 16:02:30.457,5,-0.15,-0.07,2.0,-124.1858,247.3818,35.4748,175,75
2026-05-09 16:02:30.464,5,-1.63,-1.33,1.76,-53.745799999999996,247.3818,-8.5152,175,75
2026-05-09 16:02:30.504,5,-2.0,-0.97,2.0,72.2342,-252.88819999999998,-250.2952,175,75
2026-05-09 16:02:30.512,5,-0.26,-0.29,2.0,98.3242,-252.88819999999998,-227.61520000000002,175,75
2026-05-09 16:02:30.524,5,1.2,0.76,1.91,85.7642,-252.88819999999998,-201.26520000000002,175,75
2026-05-09 16:02:30.542,5,1.46,0.97,1.56,31.9042,-252.88819999999998,-244.5652,175,75
2026-05-09 16:02:30.543,5,1.73,0.89,1.24,-28.2058,-238.8182,-244.0452,175,75
2026-05-09 16:02:30.553,5,1.95,0.71,0.98,-77.5058,-131.5682,-199.89520000000002,175,75
2026-05-09 16:02:30.564,5,1.49,0.46,0.75,-104.44579999999999,-14.2882,-160.9452,175,75
2026-05-09 16:02:30.577,5,0.54,0.13,0.56,-95.1758,122.5318,-164.42520000000002,175,75
2026-05-09 16:02:30.589,5,0.24,0.06,0.49,-66.0358,130.3218,-189.6552,175,75
2026-05-09 16:02:30.589,5,0.09,0.12,0.51,-24.8358,98.43180000000001,-208.2752,175,75
2026-05-09 16:02:30.600,5,0.15,0.28,0.61,13.924199999999999,44.5718,-204.5752,175,75
2026-05-09 16:02:30.600,5,0.27,0.51,0.8,33.1942,-5.148199999999999,-163.4452,175,75
2026-05-09 16:02:30.610,5,0.1,0.59,0.82,33.1742,-36.468199999999996,-126.37519999999999,175,75
2026-05-09 16:02:30.625,5,-0.06,0.58,0.64,15.194199999999999,-78.3082,-85.1952,175,75
2026-05-09 16:02:30.636,5,-0.03,0.54,0.56,3.2542,-96.84819999999999,-54.0652,175,75
2026-05-09 16:02:30.651,5,-0.01,0.3,0.23,-9.485800000000001,-134.4382,37.824799999999996,175,75
2026-05-09 16:02:30.666,5,-0.06,-0.02,-0.21,15.6342,-164.63819999999998,138.63479999999998,175,75
2026-05-09 16:02:30.677,5,-0.05,-0.05,-0.55,39.034200000000006,-171.7682,168.4348,175,75
2026-05-09 16:02:30.688,5,0.18,-0.92,-0.06,89.4642,-179.3482,183.1148,175,75
2026-05-09 16:02:30.698,5,0.39,0.03,-1.69,127.1242,-152.3382,168.91479999999999,175,75
2026-05-09 16:02:30.721,5,0.19,0.07,-1.86,139.4742,-106.3682,114.99480000000001,175,75
2026-05-09 16:02:30.751,5,-0.27,-0.32,-0.18,70.4842,-90.3082,-7.6552,175,75
2026-05-09 16:02:30.766,5,0.07,-0.34,-0.02,36.9142,-37.5982,-3.2051999999999996,175,75
2026-05-09 16:02:30.766,5,0.44,-0.42,-0.1,15.0742,44.241800000000005,-6.9152,175,75
2026-05-09 16:02:30.776,5,1.55,-0.46,-0.13,-1.3558,247.3818,-3.3952,175,75
2026-05-09 16:02:30.787,5,2.0,-0.72,0.35,6.1541999999999994,247.3818,30.2148,175,75
2026-05-09 16:02:30.798,5,2.0,-0.86,1.27,-18.1458,247.3818,95.21480000000001,175,75
2026-05-09 16:02:30.810,5,-2.0,-1.19,2.0,5.8042,247.3818,-236.20520000000002,175,75
2026-05-09 16:02:30.824,5,2.0,1.51,2.0,-65.4658,247.3818,-250.2952,175,75
2026-05-09 16:02:30.845,5,-1.44,0.08,2.0,-206.2458,247.3818,-250.2952,175,75
2026-05-09 16:02:30.867,5,-2.0,-0.52,2.0,-132.9758,212.9018,-250.2952,175,75
2026-05-09 16:02:30.879,5,-2.0,-0.14,2.0,-54.7958,-13.208200000000001,-124.11519999999999,175,75
2026-05-09 16:02:30.891,5,-2.0,0.31,2.0,-16.4158,-203.9882,24.994799999999998,175,75
2026-05-09 16:02:30.891,5,-1.58,0.57,2.0,5.0942,-252.88819999999998,71.2848,175,75
2026-05-09 16:02:30.902,5,-0.91,0.42,2.0,42.3342,-252.88819999999998,130.66479999999999,175,75
2026-05-09 16:02:30.913,5,-0.38,0.31,2.0,25.714199999999998,-252.88819999999998,183.9948,175,75
2026-05-09 16:02:30.917,5,0.35,0.09,1.95,5.574199999999999,-252.88819999999998,225.3648,175,75
2026-05-09 16:02:30.939,5,0.88,-0.31,0.81,13.754199999999999,-252.88819999999998,249.9748,175,75
2026-05-09 16:02:30.963,5,0.7,-0.66,0.2,35.4142,-252.88819999999998,249.9748,175,75
2026-05-09 16:02:31.004,5,2.0,-1.37,-1.77,12.684199999999999,-252.88819999999998,247.73479999999998,175,75
2026-05-09 16:02:31.004,5,1.2,-1.24,-1.09,14.7442,-119.6182,93.2848,175,75
2026-05-09 16:02:31.009,5,-0.13,-0.72,-0.29,23.3542,-43.258199999999995,-20.5852,175,75
2026-05-09 16:02:31.030,5,-1.24,-0.08,0.28,21.0042,-45.0982,-225.1952,175,75
2026-05-09 16:02:31.055,5,-0.76,0.53,-0.07,-32.9358,-104.4982,-250.2952,175,75
2026-05-09 16:02:31.055,5,0.07,0.66,-0.26,-76.7458,-108.7282,-250.2952,175,75
2026-05-09 16:02:31.066,5,1.15,0.55,-0.51,-94.6158,-64.8982,-250.2952,175,75
2026-05-09 16:02:31.074,5,1.57,0.86,-1.04,-91.9058,10.021799999999999,-228.5252,175,75
2026-05-09 16:02:31.087,5,0.31,0.98,-0.64,-97.19579999999999,40.1618,-145.0052,175,75
2026-05-09 16:02:31.097,5,0.03,0.57,-0.14,-108.9658,64.5818,-151.5452,175,75
2026-05-09 16:02:31.109,5,0.18,0.36,0.02,-92.9658,107.7018,-117.3252,175,75
2026-05-09 16:02:31.109,5,0.23,0.19,0.02,-65.3658,144.0018,-58.9052,175,75
2026-05-09 16:02:31.120,5,0.24,0.17,-0.01,-32.005799999999994,166.6218,24.4848,175,75
2026-05-09 16:02:31.137,5,0.16,0.22,0.19,15.7042,147.7918,196.91479999999999,175,75
2026-05-09 16:02:31.149,5,0.45,0.49,-0.11,19.7442,127.6018,249.9748,175,75
2026-05-09 16:02:31.163,5,0.69,0.07,0.46,25.894199999999998,102.6718,249.9748,175,75
2026-05-09 16:02:31.174,5,1.44,0.28,0.71,15.2042,68.4518,249.9748,175,75
2026-05-09 16:02:31.185,5,0.72,-1.91,2.0,-25.1258,-73.8882,242.9348,175,75
2026-05-09 16:02:31.203,5,1.35,-1.91,2.0,15.274199999999999,-38.2682,-56.5552,175,75
2026-05-09 16:02:31.205,5,2.0,-1.13,2.0,34.5142,233.8118,-53.0052,175,75
2026-05-09 16:02:31.223,5,0.09,-0.79,2.0,31.3442,247.3818,-70.03519999999999,175,75
2026-05-09 16:02:31.227,5,-1.47,-1.08,2.0,10.844199999999999,247.3818,-248.20520000000002,175,75
2026-05-09 16:02:31.247,5,-1.53,-1.13,2.0,-7.9658,247.3818,-250.2952,175,75
2026-05-09 16:02:31.258,5,-0.98,-0.73,2.0,-21.855800000000002,247.3818,-250.2952,175,75
2026-05-09 16:02:31.290,5,-1.51,0.0,2.0,61.214200000000005,1.0618000000000003,-222.9652,175,75
2026-05-09 16:02:31.290,5,-2.0,0.71,2.0,70.0442,-163.8482,-178.3852,175,75
2026-05-09 16:02:31.300,5,-2.0,0.64,2.0,57.114200000000004,-252.88819999999998,-167.4452,175,75
2026-05-09 16:02:31.374,5,2.0,0.62,-1.06,0.3241999999999998,-252.88819999999998,220.04479999999998,175,75
2026-05-09 16:02:31.378,5,2.0,0.04,-2.0,49.9542,-252.88819999999998,249.9748,175,75
2026-05-09 16:02:31.389,5,1.3,0.23,-2.0,44.434200000000004,-86.2782,223.3448,175,75
2026-05-09 16:02:31.421,5,-0.98,-0.44,-2.0,26.0942,-39.5982,-7.5851999999999995,175,75
2026-05-09 16:02:31.431,5,-1.86,-0.7,-0.95,18.8642,-119.8682,-137.5452,175,75
2026-05-09 16:02:31.431,5,-1.69,-0.15,-0.25,25.1942,-209.1082,-211.5352,175,75
2026-05-09 16:02:31.442,5,-1.63,-0.12,-0.05,-0.1958000000000002,-252.88819999999998,-237.1352,175,75
2026-05-09 16:02:31.442,5,-1.34,0.25,-0.1,-45.7758,-252.88819999999998,-229.3752,175,75
2026-05-09 16:02:31.452,5,-0.45,0.58,-0.36,-100.9958,-252.88819999999998,-180.8452,175,75
2026-05-09 16:02:31.464,5,0.4,0.68,-0.67,-149.23579999999998,-252.88819999999998,-87.5252,175,75
2026-05-09 16:02:31.475,5,0.8,0.67,-0.94,-162.79579999999999,-199.9882,-0.3952,175,75
2026-05-09 16:02:31.475,5,0.86,0.63,-1.06,-136.2558,-37.0882,49.4248,175,75
2026-05-09 16:02:31.500,5,0.96,0.61,-0.65,-56.8358,247.3818,77.9248,175,75
2026-05-09 16:02:31.500,5,1.13,0.51,-0.41,-41.0458,247.3818,82.71480000000001,175,75
2026-05-09 16:02:31.511,5,1.56,0.6,-0.12,-49.4158,247.3818,92.0048,175,75
2026-05-09 16:02:31.521,5,2.0,1.62,-0.98,-91.7958,247.3818,107.9248,175,75
2026-05-09 16:02:31.532,5,2.0,0.87,2.0,-144.3258,247.3818,249.9748,175,75
2026-05-09 16:02:31.544,5,1.04,-0.59,2.0,-155.0858,247.3818,249.9748,175,75
2026-05-09 16:02:31.544,5,-0.44,-0.99,2.0,-130.51579999999998,164.2918,209.1148,175,75
2026-05-09 16:02:31.558,5,-2.0,-1.43,1.84,-36.505799999999994,247.3818,-38.1352,175,75
2026-05-09 16:02:31.568,5,-2.0,-1.61,2.0,25.964199999999998,214.9118,-195.7552,175,75
2026-05-09 16:02:31.580,5,-2.0,-1.51,2.0,44.2242,-17.2082,-250.2952,175,75
2026-05-09 16:02:31.580,5,-1.84,-1.04,2.0,80.19420000000001,-229.6782,-250.2952,175,75
2026-05-09 16:02:31.586,5,-0.55,-0.15,2.0,128.3142,-252.88819999999998,-250.2952,175,75
2026-05-09 16:02:31.598,5,0.57,0.59,2.0,136.5442,-252.88819999999998,-250.2952,175,75
2026-05-09 16:02:31.613,5,1.53,1.07,1.67,101.2442,-252.88819999999998,-250.2952,175,75
2026-05-09 16:02:31.614,5,1.8,1.07,1.28,40.4142,-252.88819999999998,-250.2952,175,75
2026-05-09 16:02:31.643,5,2.0,0.69,0.65,-57.0958,-81.4382,-123.39519999999999,175,75
2026-05-09 16:02:31.655,5,1.22,0.52,0.6,-82.1558,27.3218,-59.4652,175,75
2026-05-09 16:02:31.678,5,-0.4,0.25,0.28,-105.5058,91.3918,-157.8552,175,75
2026-05-09 16:02:31.690,5,-0.26,0.2,0.11,-70.91579999999999,32.1218,-190.9752,175,75
2026-05-09 16:02:31.701,5,0.16,0.37,0.1,-19.1158,-27.758200000000002,-172.5552,175,75
2026-05-09 16:02:31.714,5,0.39,0.61,0.39,7.684200000000001,-51.188199999999995,-126.6552,175,75
2026-05-09 16:02:31.749,5,-0.03,0.12,0.26,25.4342,-77.9182,19.2848,175,75
2026-05-09 16:02:31.763,5,-0.02,-0.02,0.16,30.464199999999998,-88.1882,58.1948,175,75
2026-05-09 16:02:31.794,5,-0.06,-0.17,-0.51,81.0442,-114.81819999999999,148.10479999999998,175,75
2026-05-09 16:02:31.794,5,0.05,-0.29,-1.0,96.2942,-109.98819999999999,148.7748,175,75
2026-05-09 16:02:31.826,5,-0.51,-0.16,-1.03,96.3142,-42.9482,-31.165200000000002,175,75
2026-05-09 16:02:31.856,5,0.33,-0.05,-0.1,-41.1658,-7.5882,-81.36519999999999,175,75
2026-05-09 16:02:31.866,5,1.0,-0.25,-0.3,-67.8858,84.8418,-59.8652,175,75
2026-05-09 16:02:31.896,5,2.0,-1.06,0.45,-17.9558,247.3818,65.8448,175,75
2026-05-09 16:02:31.934,5,0.79,0.2,2.0,-82.44579999999999,247.3818,-250.2952,175,75
2026-05-09 16:02:31.934,5,-0.95,0.25,2.0,-137.8358,247.3818,-250.2952,175,75
2026-05-09 16:02:31.955,5,-2.0,0.06,2.0,-169.1458,247.3818,-250.2952,175,75
2026-05-09 16:02:31.969,5,-2.0,0.0,2.0,-157.98579999999998,247.3818,-250.2952,175,75
2026-05-09 16:02:31.984,5,-2.0,0.05,2.0,-106.1558,123.3218,-250.2952,175,75
2026-05-09 16:02:32.011,5,-0.58,0.76,2.0,143.9342,-252.88819999999998,8.2248,175,75
2026-05-09 16:02:32.023,5,-0.14,1.15,2.0,120.2142,-252.88819999999998,78.8448,175,75
2026-05-09 16:02:32.023,5,0.38,1.01,2.0,62.074200000000005,-252.88819999999998,113.3148,175,75
2026-05-09 16:02:32.037,5,0.79,0.73,1.56,10.9842,-252.88819999999998,158.7248,175,75
2026-05-09 16:02:32.051,5,1.64,0.35,0.86,-16.1358,-252.88819999999998,249.9748,175,75
2026-05-09 16:02:32.074,5,1.56,0.08,-0.07,14.854199999999999,-252.88819999999998,249.9748,175,75
2026-05-09 16:02:32.074,5,1.35,-0.1,-0.55,7.2341999999999995,-202.5582,249.9748,175,75
2026-05-09 16:02:32.094,5,0.79,-0.73,-0.86,-6.2958,-92.3382,249.9748,175,75
2026-05-09 16:02:32.094,5,0.09,-1.17,-0.62,-5.575800000000001,-34.5082,155.2448,175,75
2026-05-09 16:02:32.126,5,-1.02,-0.42,-0.03,8.0742,-46.1282,-161.2752,175,75
2026-05-09 16:02:32.153,5,-0.52,0.09,-0.13,-0.8957999999999999,-118.2782,-246.4752,175,75
2026-05-09 16:02:32.175,5,0.37,0.36,-0.43,-49.8058,-94.1082,-240.1252,175,75
2026-05-09 16:02:32.197,5,-0.04,0.53,-0.43,-74.3558,11.681799999999999,-163.39520000000002,175,75
2026-05-09 16:02:32.213,5,-0.09,0.28,-0.34,-67.5658,30.3618,-165.0552,175,75
2026-05-09 16:02:32.224,5,0.07,0.29,-0.17,-58.255799999999994,62.3518,-148.89520000000002,175,75
2026-05-09 16:02:32.235,5,0.13,0.23,-0.09,-45.8058,100.1418,-116.2452,175,75
2026-05-09 16:02:32.236,5,0.25,0.22,-0.03,-33.575799999999994,141.7018,-68.9952,175,75
2026-05-09 16:02:32.246,5,0.42,0.23,-0.0,-24.6658,184.9818,-9.5952,175,75
2026-05-09 16:02:32.269,5,1.07,0.16,0.19,-11.7058,247.3818,176.4248,175,75
2026-05-09 16:02:32.279,5,1.48,0.13,0.23,-3.6458,247.3818,249.9748,175,75
2026-05-09 16:02:32.290,5,1.86,0.36,0.69,-8.2158,220.9518,249.9748,175,75
2026-05-09 16:02:32.317,5,1.25,-1.37,2.0,-37.8458,-42.6982,-85.61519999999999,175,75
2026-05-09 16:02:32.324,5,2.0,-0.69,2.0,-70.4658,187.5018,-140.5352,175,75
2026-05-09 16:02:32.328,5,1.0,-0.61,2.0,-81.19579999999999,247.3818,-107.48519999999999,175,75
2026-05-09 16:02:32.348,5,-0.63,-0.84,2.0,-75.5358,247.3818,-177.7152,175,75
2026-05-09 16:02:32.406,5,-1.92,0.19,2.0,8.924199999999999,-94.09819999999999,-150.1652,175,75
2026-05-09 16:02:32.406,5,-1.61,0.53,2.0,7.2942,-208.38819999999998,-173.6052,175,75
2026-05-09 16:02:32.417,5,-0.95,0.43,2.0,19.8342,-252.88819999999998,-190.20520000000002,175,75
2026-05-09 16:02:32.417,5,-0.21,0.35,1.77,60.994200000000006,-252.88819999999998,-143.8152,175,75
2026-05-09 16:02:32.427,5,0.43,0.41,1.38,91.3842,-252.88819999999998,-59.7352,175,75
2026-05-09 16:02:32.438,5,0.59,0.56,1.12,94.5442,-252.88819999999998,0.0948,175,75
2026-05-09 16:02:32.453,5,1.32,0.56,0.28,53.464200000000005,-252.88819999999998,127.6148,175,75
2026-05-09 16:02:32.453,5,1.06,0.33,-0.22,57.244200000000006,-252.88819999999998,237.1148,175,75
2026-05-09 16:02:32.466,5,0.86,0.13,-1.05,90.7642,-246.5582,249.9748,175,75
2026-05-09 16:02:32.490,5,0.88,-0.1,-2.0,155.8142,-168.0582,249.9748,175,75
2026-05-09 16:02:32.513,5,-0.85,-0.45,-1.12,106.30420000000001,-114.3682,92.24480000000001,175,75
2026-05-09 16:02:32.513,5,-1.0,-0.38,-0.19,74.6542,-142.1882,57.1548,175,75
2026-05-09 16:02:32.526,5,-1.1,0.0,0.28,20.964199999999998,-152.7282,13.3548,175,75
2026-05-09 16:02:32.537,5,-1.08,0.24,0.36,-48.205799999999996,-147.9882,-56.6952,175,75
2026-05-09 16:02:32.545,5,-0.73,0.28,0.16,-106.2558,-125.7282,-129.3052,175,75
2026-05-09 16:02:32.559,5,0.47,0.28,-0.25,-132.4558,-55.7382,-160.3152,175,75
2026-05-09 16:02:32.570,5,1.75,0.34,-0.74,-120.22579999999999,103.01180000000001,-107.42519999999999,175,75
2026-05-09 16:02:32.581,5,2.0,0.61,-0.95,-93.3258,247.3818,-31.3752,175,75
2026-05-09 16:02:32.591,5,1.66,0.87,-0.59,-86.58579999999999,247.3818,8.6648,175,75
2026-05-09 16:02:32.604,5,2.0,1.0,0.03,-113.8458,247.3818,32.004799999999996,175,75
2026-05-09 16:02:32.615,5,2.0,2.0,2.0,-248.73579999999998,247.3818,249.9748,175,75
2026-05-09 16:02:32.677,5,-2.0,-1.4,1.84,56.794200000000004,81.43180000000001,-10.9452,175,75
2026-05-09 16:02:32.689,5,-1.67,-0.85,2.0,110.55420000000001,-252.88819999999998,22.0048,175,75
2026-05-09 16:02:32.703,5,-0.56,-0.48,2.0,116.9742,-252.88819999999998,29.2948,175,75
2026-05-09 16:02:32.717,5,1.61,-0.19,1.52,112.0642,-252.88819999999998,24.8048,175,75
2026-05-09 16:02:32.725,5,2.0,-0.33,0.91,126.0642,-252.88819999999998,79.2048,175,75
2026-05-09 16:02:32.745,5,2.0,-0.09,0.4,152.0042,-252.88819999999998,222.3348,175,75
2026-05-09 16:02:32.756,5,1.68,-0.06,0.29,145.1642,-138.8482,217.2848,175,75
2026-05-09 16:02:32.778,5,0.68,-0.23,0.38,139.1942,42.591800000000006,127.95480000000002,175,75
2026-05-09 16:02:32.788,5,0.23,-0.07,0.52,131.6342,75.43180000000001,82.24480000000001,175,75
2026-05-09 16:02:32.799,5,-0.12,0.08,0.65,114.9042,66.2018,29.6648,175,75
2026-05-09 16:02:32.811,5,-0.18,0.2,0.8,91.9942,39.711800000000004,-27.3952,175,75
2026-05-09 16:02:32.822,5,-0.05,0.2,0.9,65.8242,19.721799999999998,-75.47519999999999,175,75
2026-05-09 16:02:32.825,5,0.04,0.12,0.85,47.544200000000004,5.1718,-97.8852,175,75
2026-05-09 16:02:32.851,5,-0.01,-0.03,0.54,53.924200000000006,-40.408199999999994,-75.75519999999999,175,75
2026-05-09 16:02:32.855,5,-0.02,-0.01,0.37,73.3542,-72.7282,-37.2352,175,75
2026-05-09 16:02:32.886,5,-0.11,-0.02,0.13,117.1142,-141.8282,51.574799999999996,175,75
2026-05-09 16:02:32.903,5,-0.23,0.16,0.06,132.3242,-170.3482,80.79480000000001,175,75
2026-05-09 16:02:32.940,5,-0.4,-0.03,-0.47,186.9742,-218.5682,125.0548,175,75
2026-05-09 16:02:32.940,5,-0.38,-0.07,-0.74,226.5042,-246.2882,143.7748,175,75
2026-05-09 16:02:32.978,5,0.33,-0.14,-0.37,251.5342,-252.88819999999998,199.63479999999998,175,75
2026-05-09 16:02:32.978,5,0.88,-0.29,-0.51,251.5342,-135.4582,167.04479999999998,175,75
2026-05-09 16:02:33.002,5,1.16,-0.62,-0.41,222.7442,217.7518,109.10480000000001,175,75
2026-05-09 16:02:33.013,5,1.11,-0.46,-0.12,185.4142,247.3818,126.0948,175,75
2026-05-09 16:02:33.013,5,2.0,-0.55,0.05,155.76420000000002,247.3818,117.0348,175,75
2026-05-09 16:02:33.035,5,2.0,0.14,-0.06,180.4442,247.3818,128.3448,175,75
2026-05-09 16:02:33.063,5,2.0,0.86,2.0,72.2542,247.3818,-250.2952,175,75
2026-05-09 16:02:33.085,5,2.0,2.0,2.0,-63.16579999999999,217.8818,-250.2952,175,75
2026-05-09 16:02:33.095,5,-0.6,0.88,2.0,-118.3258,211.8518,-209.3552,175,75
2026-05-09 16:02:33.144,5,-2.0,0.43,2.0,-211.3358,-32.148199999999996,-161.2552,175,75
2026-05-09 16:02:33.156,5,-1.41,0.2,2.0,-173.1558,-154.0882,-44.3652,175,75
2026-05-09 16:02:33.168,5,-0.04,-0.09,2.0,-1.2358000000000002,-252.88819999999998,231.1948,175,75
2026-05-09 16:02:33.168,5,0.57,-0.04,1.74,61.4842,-252.88819999999998,249.9748,175,75
2026-05-09 16:02:33.179,5,0.39,0.26,1.4,2.7442,-252.88819999999998,249.9748,175,75
2026-05-09 16:02:33.187,5,0.7,-0.05,0.97,-71.0058,-252.88819999999998,249.9748,175,75
2026-05-09 16:02:33.187,5,1.73,-0.76,-0.0,-117.22579999999999,-252.88819999999998,228.1748,175,75
2026-05-09 16:02:33.241,5,0.35,-0.36,0.16,-114.16579999999999,59.1218,-199.70520000000002,175,75
2026-05-09 16:02:33.249,5,0.02,-0.16,0.27,-108.72579999999999,116.0918,-250.2952,175,75
2026-05-09 16:02:33.261,5,-0.26,0.06,0.23,-104.1258,120.62180000000001,-250.2952,175,75
2026-05-09 16:02:33.272,5,0.1,0.54,-0.23,-88.8858,1.2717999999999998,-250.2952,175,75
2026-05-09 16:02:33.272,5,0.91,0.35,-0.37,-53.0958,-61.1382,-241.9352,175,75
2026-05-09 16:02:33.284,5,0.62,0.62,-0.25,-42.0458,-75.6482,-148.3852,175,75
2026-05-09 16:02:33.295,5,0.0,0.37,-0.17,-35.0858,-87.62819999999999,-108.31519999999999,175,75
2026-05-09 16:02:33.295,5,-0.23,0.13,-0.11,-23.6158,-104.5082,-86.6052,175,75
2026-05-09 16:02:33.306,5,-0.23,0.02,-0.06,-9.1258,-115.87819999999999,-57.1452,175,75
2026-05-09 16:02:33.317,5,-0.26,0.02,-0.02,4.994199999999999,-113.5582,-28.2352,175,75
2026-05-09 16:02:33.317,5,-0.24,0.11,0.02,9.1942,-107.84819999999999,-5.0552,175,75
2026-05-09 16:02:33.328,5,-0.16,0.23,0.02,5.6442,-93.1182,13.4148,175,75
2026-05-09 16:02:33.328,5,0.08,0.31,-0.05,0.9341999999999999,-61.648199999999996,24.8048,175,75
2026-05-09 16:02:33.352,5,0.53,0.34,-0.18,2.9642,4.2218,41.6348,175,75
2026-05-09 16:02:33.352,5,0.71,0.32,-0.19,14.1242,89.1918,68.9148,175,75
2026-05-09 16:02:33.374,5,0.99,0.25,0.0,19.234199999999998,247.3818,110.0548,175,75
2026-05-09 16:02:33.374,5,1.43,0.04,0.12,22.234199999999998,247.3818,164.1848,175,75
2026-05-09 16:02:33.385,5,1.73,0.15,0.08,16.2542,247.3818,240.16479999999999,175,75
2026-05-09 16:02:33.408,5,0.68,-0.79,2.0,-21.8058,-33.2782,-28.3652,175,75
2026-05-09 16:02:33.422,5,2.0,-0.1,2.0,-108.6458,194.4518,-45.5252,175,75
2026-05-09 16:02:33.435,5,-1.17,-0.14,2.0,-105.1258,247.3818,-96.2752,175,75
2026-05-09 16:02:33.452,5,-1.66,-1.25,1.83,-67.80579999999999,247.3818,-158.1352,175,75
2026-05-09 16:02:33.465,5,-1.88,-1.14,2.0,11.6142,-16.1882,-212.3752,175,75
2026-05-09 16:02:33.477,5,-1.23,-0.48,2.0,12.3942,-165.7582,-198.2752,175,75
2026-05-09 16:02:33.487,5,-0.37,0.06,2.0,-6.575800000000001,-252.88819999999998,-171.67520000000002,175,75
2026-05-09 16:02:33.503,5,0.64,0.28,2.0,-28.445800000000002,-252.88819999999998,-144.3852,175,75
2026-05-09 16:02:33.503,5,1.37,0.38,2.0,-45.1958,-252.88819999999998,-134.0452,175,75
2026-05-09 16:02:33.521,5,1.52,0.14,1.61,-60.575799999999994,-243.2982,-117.6552,175,75
2026-05-09 16:02:33.533,5,1.21,-0.06,1.16,-75.83579999999999,-228.4382,-90.81519999999999,175,75
2026-05-09 16:02:33.544,5,0.99,-0.2,0.93,-84.5958,-212.4582,-70.98519999999999,175,75
2026-05-09 16:02:33.544,5,0.8,-0.28,0.88,-88.8458,-175.9782,-59.1052,175,75
2026-05-09 16:02:33.554,5,0.53,-0.34,0.88,-91.4358,-128.9282,-56.5852,175,75
2026-05-09 16:02:33.565,5,0.24,-0.37,0.88,-92.91579999999999,-86.6682,-63.0252,175,75
2026-05-09 16:02:33.586,5,-0.4,-0.41,0.86,-90.08579999999999,-12.828199999999999,-126.11519999999999,175,75
2026-05-09 16:02:33.599,5,-0.73,-0.36,0.8,-86.55579999999999,2.9418000000000006,-186.8452,175,75
2026-05-09 16:02:33.611,5,-1.01,-0.2,0.7,-85.7158,-5.2181999999999995,-250.2952,175,75
2026-05-09 16:02:33.623,5,-1.14,-0.02,0.56,-88.3858,-37.0882,-250.2952,175,75
2026-05-09 16:02:33.636,5,-0.91,0.34,0.26,-99.80579999999999,-138.4082,-250.2952,175,75
2026-05-09 16:02:33.648,5,-0.74,0.5,0.04,-103.8758,-190.5782,-250.2952,175,75
2026-05-09 16:02:33.676,5,0.92,0.09,-0.97,-31.4958,-187.5482,-250.2952,175,75
2026-05-09 16:02:33.706,5,-0.79,0.69,-0.8,-11.4158,-198.1882,-247.0052,175,75
2026-05-09 16:02:33.716,5,-0.48,0.62,-0.46,-30.6758,-213.0182,-208.3152,175,75
2026-05-09 16:02:33.716,5,-0.07,0.51,-0.22,-56.1858,-192.1082,-136.6852,175,75
2026-05-09 16:02:33.746,5,0.62,0.53,-0.14,-136.1758,94.1718,10.634799999999998,175,75
2026-05-09 16:02:33.773,5,1.58,0.41,-0.09,-155.3558,247.3818,7.984800000000001,175,75
2026-05-09 16:02:33.800,5,-0.17,1.05,2.0,-248.73579999999998,247.3818,117.8448,175,75
2026-05-09 16:02:33.811,5,2.0,0.42,2.0,-248.73579999999998,44.031800000000004,57.4948,175,75
2026-05-09 16:02:33.825,5,0.34,-0.61,2.0,-248.73579999999998,247.3818,-23.435200000000002,175,75
2026-05-09 16:02:33.836,5,-0.97,-1.48,1.85,-224.6558,247.3818,-147.4952,175,75
2026-05-09 16:02:33.845,5,-1.97,-2.0,2.0,-40.6958,247.3818,-244.0552,175,75
2026-05-09 16:02:33.859,5,-1.98,-1.37,2.0,127.6742,146.0718,-224.89520000000002,175,75
2026-05-09 16:02:33.892,5,-1.96,-0.02,2.0,161.9342,-139.1882,-166.1852,175,75
2026-05-09 16:02:33.892,5,-1.37,0.23,2.0,145.73420000000002,-252.88819999999998,-195.8252,175,75
2026-05-09 16:02:33.914,5,-0.38,0.71,2.0,121.2242,-252.88819999999998,-225.2552,175,75
2026-05-09 16:02:33.929,5,0.77,0.6,1.22,81.8642,-252.88819999999998,-228.9352,175,75
2026-05-09 16:02:33.940,5,0.89,0.72,0.77,71.3242,-252.88819999999998,-216.42520000000002,175,75
2026-05-09 16:02:33.951,5,1.91,0.89,0.25,64.0642,-252.88819999999998,-133.7552,175,75
2026-05-09 16:02:33.951,5,2.0,0.9,-0.02,64.4342,-252.88819999999998,-11.8252,175,75
2026-05-09 16:02:33.975,5,-0.23,0.45,0.35,5.164199999999999,-48.828199999999995,-12.1552,175,75
2026-05-09 16:02:33.987,5,-0.41,0.15,0.28,-10.0458,-32.5982,-52.5652,175,75
2026-05-09 16:02:33.988,5,-0.51,-0.08,0.12,-6.0358,-43.6382,-63.0052,175,75
2026-05-09 16:02:33.997,5,-0.57,-0.28,-0.12,13.764199999999999,-69.2582,-46.7552,175,75
2026-05-09 16:02:34.008,5,-0.56,-0.35,-0.26,43.8742,-109.0182,-14.545200000000001,175,75
2026-05-09 16:02:34.024,5,-0.59,-0.32,-0.58,76.9542,-164.0582,31.7848,175,75
2026-05-09 16:02:34.034,5,-0.56,-0.15,-0.59,103.8642,-221.1582,73.0548,175,75
2026-05-09 16:02:34.034,5,-0.36,-0.21,-0.97,148.3742,-252.88819999999998,109.1448,175,75
2026-05-09 16:02:34.045,5,0.04,0.13,-1.09,148.9242,-252.88819999999998,111.74480000000001,175,75
2026-05-09 16:02:34.057,5,-0.12,0.09,-0.77,117.0142,-233.3382,86.0948,175,75
2026-05-09 16:02:34.085,5,-0.42,-0.15,0.05,49.3142,-164.0982,58.4348,175,75
2026-05-09 16:02:34.096,5,0.08,-0.18,0.07,27.5142,-26.0782,93.90480000000001,175,75
2026-05-09 16:02:34.132,5,0.86,-0.09,-0.28,74.19420000000001,247.3818,155.3748,175,75
2026-05-09 16:02:34.154,5,1.89,-0.29,-0.66,64.7442,247.3818,100.63480000000001,175,75
2026-05-09 16:02:34.166,5,2.0,-0.56,0.23,57.714200000000005,247.3818,169.9648,175,75
2026-05-09 16:02:34.186,5,1.16,-2.0,2.0,-66.3558,247.3818,221.32479999999998,175,75
2026-05-09 16:02:34.194,5,-1.74,-2.0,2.0,50.0942,247.3818,176.7148,175,75
2026-05-09 16:02:34.216,5,-2.0,-0.65,1.22,140.3842,177.30180000000001,-113.6652,175,75
2026-05-09 16:02:34.216,5,-2.0,0.36,1.88,105.8642,11.0918,-250.2952,175,75
2026-05-09 16:02:34.246,5,-1.71,0.78,2.0,-119.44579999999999,-174.19819999999999,-250.2952,175,75
2026-05-09 16:02:34.246,5,-0.31,0.16,2.0,-65.2458,-252.88819999999998,-250.2952,175,75
2026-05-09 16:02:34.256,5,0.47,-0.17,2.0,20.8442,-252.88819999999998,-60.6252,175,75
2026-05-09 16:02:34.267,5,0.49,-0.11,1.88,60.3742,-252.88819999999998,143.4748,175,75
2026-05-09 16:02:34.282,5,0.42,0.15,1.51,52.0142,-252.88819999999998,249.9748,175,75
2026-05-09 16:02:34.290,5,0.51,0.31,1.2,7.824199999999999,-252.88819999999998,249.9748,175,75
2026-05-09 16:02:34.307,5,2.0,-0.49,0.3,-88.0658,-80.2782,170.6248,175,75
2026-05-09 16:02:34.324,5,2.0,-1.15,-0.19,-119.66579999999999,61.341800000000006,-96.6352,175,75
2026-05-09 16:02:34.335,5,0.95,-0.5,0.18,-127.19579999999999,99.40180000000001,-174.7452,175,75
2026-05-09 16:02:34.345,5,0.06,-0.08,0.39,-127.9958,106.9218,-208.98520000000002,175,75
2026-05-09 16:02:34.357,5,-0.35,0.3,0.54,-134.9258,106.5918,-250.2952,175,75
2026-05-09 16:02:34.357,5,-0.57,0.5,0.6,-149.3958,91.79180000000001,-250.2952,175,75
2026-05-09 16:02:34.368,5,-0.62,0.66,0.62,-150.4058,48.461800000000004,-250.2952,175,75
2026-05-09 16:02:34.381,5,-0.57,0.75,0.52,-121.9958,-55.728199999999994,-250.2952,175,75
2026-05-09 16:02:34.395,5,-0.43,0.76,0.53,-74.8258,-156.0082,-250.2952,175,75
2026-05-09 16:02:34.395,5,0.05,0.71,0.46,-35.2358,-202.66819999999998,-250.2952,175,75
2026-05-09 16:02:34.420,5,0.31,0.33,0.48,12.6442,-168.7482,-192.5552,175,75
2026-05-09 16:02:34.425,5,0.07,0.21,0.43,28.9542,-144.2982,-85.17519999999999,175,75
2026-05-09 16:02:34.455,5,-0.65,0.33,0.28,39.1942,-172.5082,80.90480000000001,175,75
2026-05-09 16:02:34.455,5,-0.89,0.44,0.18,31.5242,-218.5382,112.99480000000001,175,75
2026-05-09 16:02:34.466,5,-0.99,0.5,-0.1,23.5842,-252.88819999999998,115.26480000000001,175,75
2026-05-09 16:02:34.506,5,0.29,0.63,-0.93,132.0942,-208.9882,194.6948,175,75
2026-05-09 16:02:34.518,5,0.04,0.24,-0.2,155.8842,-80.0182,143.1148,175,75
2026-05-09 16:02:34.531,5,0.22,0.04,0.06,156.4242,-22.6782,157.1248,175,75
2026-05-09 16:02:34.545,5,0.95,-0.31,0.09,150.3242,148.6218,249.9748,175,75
2026-05-09 16:02:34.557,5,1.47,-0.33,0.13,160.1442,247.3818,249.9748,175,75
2026-05-09 16:02:34.608,5,0.52,0.63,2.0,-86.1258,247.3818,-0.49520000000000003,175,75
2026-05-09 16:02:34.608,5,-1.77,-2.0,1.89,-54.755799999999994,247.3818,-194.2552,175,75
2026-05-09 16:02:34.621,5,-2.0,-1.79,1.15,124.6042,247.3818,-192.9352,175,75
2026-05-09 16:02:34.636,5,-2.0,-0.73,1.65,162.1642,203.7018,-250.2952,175,75
2026-05-09 16:02:34.636,5,-2.0,-0.01,2.0,140.6042,-31.8982,-250.2952,175,75
2026-05-09 16:02:34.660,5,-1.63,0.55,2.0,95.27420000000001,-252.88819999999998,-250.2952,175,75
2026-05-09 16:02:34.683,5,-0.08,0.69,1.64,54.964200000000005,-252.88819999999998,-236.98520000000002,175,75
2026-05-09 16:02:34.697,5,-0.03,1.07,0.93,-50.0958,-252.88819999999998,-210.8552,175,75
2026-05-09 16:02:34.734,5,1.8,0.98,-0.35,-210.8158,-252.88819999999998,-241.98520000000002,175,75
2026-05-09 16:02:34.734,5,1.84,0.85,-0.63,-193.5358,-201.8582,-88.4352,175,75
2026-05-09 16:02:34.746,5,0.44,0.66,-0.43,-188.6058,-143.5382,-12.1752,175,75
2026-05-09 16:02:34.755,5,-0.47,0.42,-0.42,-188.8358,-138.2482,-26.0452,175,75
2026-05-09 16:02:34.770,5,-0.51,-0.08,-0.8,-150.73579999999998,-166.0982,-41.1552,175,75
2026-05-09 16:02:34.784,5,-0.19,-0.61,-1.57,-53.145799999999994,-205.8782,3.6848,175,75
2026-05-09 16:02:34.784,5,-0.07,-0.78,-1.93,70.0042,-241.9782,81.3348,175,75
2026-05-09 16:02:34.805,5,0.05,-0.48,-1.72,142.1342,-251.66819999999998,92.8948,175,75
2026-05-09 16:02:34.814,5,0.05,-0.49,-1.07,127.6742,-165.9782,15.024799999999999,175,75
2026-05-09 16:02:34.832,5,-0.24,-0.86,0.29,76.2542,-93.6982,37.824799999999996,175,75
2026-05-09 16:02:34.851,5,0.35,-0.13,0.88,-12.3758,97.9418,77.4248,175,75
2026-05-09 16:02:34.862,5,0.85,-0.04,0.82,-55.1658,247.3818,-15.6952,175,75
