Time,ID,Ax,Ay,Az,Gx,Gy,Gz,H,W
2026-05-07 18:27:57.831,4,-0.09,0.4,1.8,-16.2788,-90.4284,34.4964,175,75
2026-05-07 18:27:57.831,3,-0.9,-1.03,0.45,-11.5382,20.2834,0.3603999999999985,175,75
2026-05-07 18:27:57.831,5,0.11,-0.16,1.06,-9.2706,-11.8494,39.6102,175,75
2026-05-07 18:27:57.831,2,0.34,0.78,0.13,121.90979999999999,85.2402,-62.7218,175,75
2026-05-07 18:27:57.842,4,-0.07,0.41,1.72,-16.768800000000002,-80.1884,34.9864,175,75
2026-05-07 18:27:57.842,5,0.11,-0.17,1.06,-8.8406,-9.5994,32.7502,175,75
2026-05-07 18:27:57.842,3,-0.91,-1.05,0.47,-11.418200000000002,19.4934,-1.3496000000000006,175,75
2026-05-07 18:27:57.852,1,0.08,0.86,0.11,-29.3964,4.744400000000001,0.2699999999999996,175,75
2026-05-07 18:27:57.852,3,-0.94,-1.06,0.48,-13.368200000000002,19.2434,-2.079600000000001,175,75
2026-05-07 18:27:57.852,4,-0.07,0.4,1.66,-19.3288,-32.748400000000004,42.666399999999996,175,75
2026-05-07 18:27:57.869,5,0.08,-0.19,1.06,-7.0806000000000004,-7.729399999999999,20.6602,175,75
2026-05-07 18:27:57.869,1,0.2,0.81,0.11,-27.206400000000002,4.744400000000001,5.1499999999999995,175,75
2026-05-07 18:27:57.869,3,-0.9,-1.04,0.49,-14.4082,25.773400000000002,-1.159600000000001,175,75
2026-05-07 18:27:57.869,5,0.09,-0.2,1.06,-5.690600000000001,-8.589400000000001,20.690199999999997,175,75
2026-05-07 18:27:57.883,3,-0.9,-1.04,0.53,-19.1582,10.0434,1.2803999999999984,175,75
2026-05-07 18:27:57.883,1,0.27,0.79,0.12,-28.1164,0.9644000000000013,2.5299999999999994,175,75
2026-05-07 18:27:57.883,4,-0.09,0.4,1.72,-22.9888,0.12160000000000082,46.9964,175,75
2026-05-07 18:27:57.883,5,0.11,-0.22,1.07,-2.9006,-11.339400000000001,22.9802,175,75
2026-05-07 18:27:57.883,1,0.28,0.81,0.18,-28.726399999999998,-1.1755999999999993,2.4099999999999993,175,75
2026-05-07 18:27:57.883,3,-1.02,-1.0,0.36,-24.1582,-0.3265999999999991,-0.24960000000000093,175,75
2026-05-07 18:27:57.894,2,0.45,0.67,0.11,107.3398,-55.54979999999999,-48.2718,175,75
2026-05-07 18:27:57.905,2,0.39,0.63,0.02,105.19980000000001,-57.2598,-49.67179999999999,175,75
2026-05-07 18:27:57.905,5,0.09,-0.21,1.07,2.8094,-10.069399999999998,23.300199999999997,175,75
2026-05-07 18:27:57.905,1,0.24,0.86,0.09,-32.6364,-10.195599999999999,-1.4300000000000006,175,75
2026-05-07 18:27:57.922,5,0.09,-0.21,1.06,4.1094,-9.299399999999999,22.1402,175,75
2026-05-07 18:27:57.922,4,-0.03,0.36,1.77,-31.8288,4.811600000000002,37.7264,175,75
2026-05-07 18:27:57.922,1,0.35,0.84,0.12,-32.9364,-12.695599999999999,-1.0700000000000003,175,75
2026-05-07 18:27:57.922,3,-0.95,-1.04,0.36,-16.7882,7.543400000000001,-8.239600000000001,175,75
2026-05-07 18:27:57.922,2,0.24,0.68,-0.12,97.3998,-17.6898,-49.06179999999999,175,75
2026-05-07 18:27:57.922,4,-0.04,0.36,1.75,-34.6888,7.011600000000001,34.376400000000004,175,75
2026-05-07 18:27:57.939,5,0.04,-0.18,1.04,7.0694,-3.9794,6.8002,175,75
2026-05-07 18:27:57.939,2,0.27,0.68,-0.12,93.3698,6.830200000000001,-48.3918,175,75
2026-05-07 18:27:57.939,1,0.08,0.82,0.11,-32.7564,-7.6356,-2.960000000000001,175,75
2026-05-07 18:27:57.939,3,-0.94,-1.08,0.39,-19.0382,-3.9865999999999993,-12.569600000000001,175,75
2026-05-07 18:27:57.950,2,0.33,0.67,-0.09,91.1798,33.9602,-47.3518,175,75
2026-05-07 18:27:57.950,4,-0.04,0.36,1.73,-38.8988,18.2316,34.0664,175,75
2026-05-07 18:27:57.950,3,-0.94,-1.06,0.36,-18.4282,-2.4566,-11.829600000000001,175,75
2026-05-07 18:27:57.950,5,0.1,-0.14,1.06,8.9694,-2.2993999999999994,-4.9298,175,75
2026-05-07 18:27:57.960,2,0.39,0.67,-0.01,93.8598,48.050200000000004,-46.931799999999996,175,75
2026-05-07 18:27:57.960,1,0.04,0.79,0.1,-30.4364,-0.4955999999999996,0.20999999999999996,175,75
2026-05-07 18:27:57.960,4,-0.01,0.32,1.74,-41.8888,26.091600000000003,34.0064,175,75
2026-05-07 18:27:57.960,5,0.1,-0.12,1.04,9.019400000000001,-0.5594000000000001,-5.3598,175,75
2026-05-07 18:27:57.981,1,0.05,0.76,0.1,-29.3964,2.3644,2.9599999999999995,175,75
2026-05-07 18:27:57.981,5,0.09,-0.08,1.02,9.9694,2.5906000000000002,-5.479800000000001,175,75
2026-05-07 18:27:57.990,4,-0.0,0.26,1.76,-49.6288,22.131600000000002,22.726399999999998,175,75
2026-05-07 18:27:57.990,5,0.1,-0.06,1.02,10.189400000000001,2.4406,-3.9498,175,75
2026-05-07 18:27:57.996,3,-0.96,-1.01,0.3,-18.918200000000002,9.983400000000001,-6.409600000000001,175,75
2026-05-07 18:27:58.013,1,-0.01,0.73,0.21,-32.9964,-1.4155999999999977,6.069999999999999,175,75
2026-05-07 18:27:58.013,5,0.17,-0.06,1.03,10.2094,5.2606,6.5702,175,75
2026-05-07 18:27:58.025,2,0.36,0.7,0.13,91.90979999999999,-10.789800000000003,-23.761799999999994,175,75
2026-05-07 18:27:58.025,1,0.12,0.8,0.15,-35.9864,-2.695599999999999,4.6,175,75
2026-05-07 18:27:58.025,3,-0.89,-1.07,0.42,-17.6982,4.003400000000001,-2.989600000000001,175,75
2026-05-07 18:27:58.025,5,0.19,-0.06,1.04,9.7294,8.6806,16.030199999999997,175,75
2026-05-07 18:27:58.025,2,0.4,0.65,0.14,92.1498,-17.079800000000002,-21.741799999999998,175,75
2026-05-07 18:27:58.038,5,0.18,-0.07,1.04,8.919400000000001,15.040600000000001,24.7902,175,75
2026-05-07 18:27:58.038,3,-0.92,-1.06,0.33,-17.578200000000002,3.3934000000000006,-5.009600000000001,175,75
2026-05-07 18:27:58.038,4,-0.04,0.22,1.76,-49.3888,23.9616,6.3264,175,75
2026-05-07 18:27:58.038,1,0.2,0.82,0.13,-36.5364,-4.825599999999998,2.2899999999999996,175,75
2026-05-07 18:27:58.038,3,-0.86,-1.04,0.4,-13.308200000000001,4.313400000000001,-4.149600000000001,175,75
2026-05-07 18:27:58.038,5,0.14,-0.08,1.05,7.1693999999999996,19.1306,31.0302,175,75
2026-05-07 18:27:58.062,4,-0.05,0.18,1.75,-51.1588,22.801599999999997,1.2063999999999986,175,75
2026-05-07 18:27:58.062,1,0.18,0.82,0.11,-37.9964,-6.785599999999999,0.20999999999999996,175,75
2026-05-07 18:27:58.062,4,-0.08,0.15,1.73,-55.7288,18.7116,-6.1736,175,75
2026-05-07 18:27:58.062,5,0.08,-0.1,1.06,3.8494,23.4906,30.0302,175,75
2026-05-07 18:27:58.062,3,-0.88,-1.11,0.49,-16.598200000000002,-8.9866,-1.5296000000000003,175,75
2026-05-07 18:27:58.062,1,0.17,0.82,0.12,-38.9764,-7.0855999999999995,-1.37,175,75
2026-05-07 18:27:58.073,4,-0.07,0.15,1.72,-59.8788,14.9316,-12.273600000000002,175,75
2026-05-07 18:27:58.073,5,0.06,-0.11,1.07,3.5294000000000003,29.1506,23.780199999999997,175,75
2026-05-07 18:27:58.073,1,0.11,0.83,0.14,-40.0064,-8.855599999999999,-2.41,175,75
2026-05-07 18:27:58.073,3,-0.93,-1.08,0.41,-16.7882,-15.936599999999999,-4.579600000000001,175,75
2026-05-07 18:27:58.077,4,-0.07,0.15,1.69,-62.498799999999996,12.4316,-15.8036,175,75
2026-05-07 18:27:58.093,1,0.09,0.85,0.13,-41.7764,-12.755599999999998,-3.5100000000000007,175,75
2026-05-07 18:27:58.093,3,-0.9,-1.07,0.37,-13.7382,-15.816599999999998,-6.649600000000001,175,75
2026-05-07 18:27:58.093,2,0.11,0.83,0.05,98.3698,5.670200000000001,3.0682000000000045,175,75
2026-05-07 18:27:58.093,2,0.24,0.77,0.14,93.5498,23.1702,11.238200000000003,175,75
2026-05-07 18:27:58.104,1,0.07,0.9,0.15,-42.0864,-13.305599999999998,-4.300000000000001,175,75
2026-05-07 18:27:58.104,4,-0.11,0.18,1.67,-67.9888,13.101600000000001,-19.713600000000003,175,75
2026-05-07 18:27:58.104,5,0.04,-0.09,1.13,6.1594,41.340599999999995,6.690200000000001,175,75
2026-05-07 18:27:58.104,1,0.04,0.92,0.14,-43.8564,-10.255599999999998,-5.52,175,75
2026-05-07 18:27:58.117,5,0.02,-0.09,1.14,7.099399999999999,47.2806,3.8302,175,75
2026-05-07 18:27:58.117,1,-0.03,0.93,0.16,-44.0364,-4.645599999999998,-3.2,175,75
2026-05-07 18:27:58.128,5,-0.0,-0.09,1.15,7.009399999999999,46.660599999999995,8.3102,175,75
2026-05-07 18:27:58.128,4,-0.14,0.23,1.77,-72.1288,10.1216,-19.5236,175,75
2026-05-07 18:27:58.128,3,-0.92,-1.04,0.42,-3.068200000000001,1.3834000000000017,-7.749600000000001,175,75
2026-05-07 18:27:58.129,3,-0.91,-1.11,0.42,-7.2682,-13.5566,-10.979600000000001,175,75
2026-05-07 18:27:58.138,5,-0.03,-0.08,1.15,5.0893999999999995,38.3106,15.620199999999999,175,75
2026-05-07 18:27:58.138,2,0.55,0.38,0.29,89.28979999999999,-77.3798,9.348200000000002,175,75
2026-05-07 18:27:58.138,4,-0.09,0.19,1.79,-69.80879999999999,-8.238399999999999,-22.9436,175,75
2026-05-07 18:27:58.138,3,-0.98,-1.07,0.19,-13.798200000000001,-23.796599999999998,-16.099600000000002,175,75
2026-05-07 18:27:58.138,5,-0.06,-0.06,1.15,2.1794,29.0606,19.0602,175,75
2026-05-07 18:27:58.149,2,0.38,0.52,0.12,86.0498,-98.8398,2.218200000000003,175,75
2026-05-07 18:27:58.149,1,0.08,0.95,0.08,-42.1464,11.694400000000002,2.3499999999999996,175,75
2026-05-07 18:27:58.161,4,-0.01,0.12,1.67,-74.5088,-25.3084,-31.963600000000003,175,75
2026-05-07 18:27:58.172,5,0.05,-0.07,1.14,-1.4506000000000001,23.5406,17.5902,175,75
2026-05-07 18:27:58.172,2,0.07,0.68,-0.13,88.5498,-51.3398,0.08820000000000405,175,75
2026-05-07 18:27:58.172,5,0.11,-0.09,1.14,1.0493999999999999,29.070600000000002,19.9502,175,75
2026-05-07 18:27:58.186,4,-0.05,0.1,1.6,-79.2688,-18.7184,-32.753600000000006,175,75
2026-05-07 18:27:58.186,3,-0.9,-1.09,0.15,-17.8782,-19.656599999999997,-16.4096,175,75
2026-05-07 18:27:58.186,2,0.08,0.64,-0.15,88.06979999999999,1.8902,-0.46179999999999666,175,75
2026-05-07 18:27:58.197,5,0.11,-0.07,1.15,2.9194,34.9206,23.510199999999998,175,75
2026-05-07 18:27:58.197,4,-0.16,0.07,1.58,-83.58879999999999,-3.298399999999999,-29.3436,175,75
2026-05-07 18:27:58.197,2,0.12,0.6,-0.1,82.5198,49.450199999999995,0.26820000000000377,175,75
2026-05-07 18:27:58.197,3,-0.94,-1.08,0.02,-25.5682,-16.9666,-15.8596,175,75
2026-05-07 18:27:58.197,1,0.22,0.84,0.08,-43.7264,4.684400000000002,-4.24,175,75
2026-05-07 18:27:58.199,4,-0.16,0.04,1.62,-88.0488,16.401600000000002,-23.9736,175,75
2026-05-07 18:27:58.209,1,0.08,0.87,0.17,-43.7264,-6.7155999999999985,-8.08,175,75
2026-05-07 18:27:58.210,4,-0.13,0.0,1.67,-92.30879999999999,27.131600000000002,-22.213600000000003,175,75
2026-05-07 18:27:58.210,2,0.26,0.67,0.13,92.0898,70.9702,-0.28179999999999694,175,75
2026-05-07 18:27:58.221,5,0.02,-0.08,1.19,-1.0406000000000002,42.050599999999996,27.800199999999997,175,75
2026-05-07 18:27:58.221,1,0.11,0.9,0.14,-44.3964,-13.9756,-10.21,175,75
2026-05-07 18:27:58.221,4,-0.13,-0.04,1.72,-95.7888,26.6416,-22.393600000000003,175,75
2026-05-07 18:27:58.221,5,0.02,-0.11,1.21,-1.8506000000000002,38.9606,32.200199999999995,175,75
2026-05-07 18:27:58.221,1,0.07,0.98,0.1,-43.8564,-16.6556,-11.31,175,75
2026-05-07 18:27:58.231,2,0.28,0.64,0.27,97.69980000000001,47.9202,4.658200000000004,175,75
2026-05-07 18:27:58.231,3,-0.92,-0.99,0.46,-16.238200000000003,31.3234,-3.119600000000001,175,75
2026-05-07 18:27:58.249,5,-0.03,-0.15,1.18,0.7193999999999999,33.4306,36.200199999999995,175,75
2026-05-07 18:27:58.249,3,-0.72,-1.19,0.84,-7.3382000000000005,0.7134,-12.319600000000001,175,75
2026-05-07 18:27:58.249,1,0.02,1.04,0.15,-41.0464,-14.285599999999995,-10.88,175,75
2026-05-07 18:27:58.249,2,0.21,0.6,0.25,91.84979999999999,-25.3098,18.928200000000004,175,75
2026-05-07 18:27:58.249,4,-0.14,-0.04,1.68,-104.2688,-2.2584,-29.5236,175,75
2026-05-07 18:27:58.260,5,-0.04,-0.16,1.18,2.0594,30.090600000000002,33.3602,175,75
2026-05-07 18:27:58.260,1,0.02,1.12,0.16,-39.4664,-12.9356,-9.42,175,75
2026-05-07 18:27:58.260,4,-0.15,-0.06,1.62,-106.02879999999999,-1.5884,-29.6536,175,75
2026-05-07 18:27:58.276,2,0.11,0.43,0.13,88.3698,-31.829800000000002,24.0482,175,75
2026-05-07 18:27:58.276,4,-0.19,-0.12,1.57,-107.24879999999999,18.7816,-25.133599999999998,175,75
2026-05-07 18:27:58.286,3,-0.92,-1.04,0.2,-18.7982,7.173400000000001,-6.289600000000001,175,75
2026-05-07 18:27:58.286,2,0.09,0.39,0.11,89.5898,-21.219800000000003,24.6582,175,75
2026-05-07 18:27:58.286,5,-0.04,-0.14,1.19,-0.3506000000000001,30.5806,8.7502,175,75
2026-05-07 18:27:58.286,3,-0.84,-1.1,0.38,-16.2982,12.723400000000002,-8.969600000000002,175,75
2026-05-07 18:27:58.286,1,0.08,1.14,0.18,-37.266400000000004,-18.485599999999998,-5.58,175,75
2026-05-07 18:27:58.298,5,-0.06,-0.12,1.17,-1.2606000000000002,30.5506,1.0501999999999998,175,75
2026-05-07 18:27:58.298,4,-0.2,-0.14,1.62,-105.4888,40.30159999999999,-20.8636,175,75
2026-05-07 18:27:58.298,3,-0.89,-1.12,0.37,-19.7082,-11.0566,-15.4296,175,75
2026-05-07 18:27:58.298,1,0.11,1.17,0.06,-37.5764,-18.855599999999995,-7.960000000000001,175,75
2026-05-07 18:27:58.308,5,-0.06,-0.1,1.18,-3.9805999999999995,27.000600000000002,-2.6598,175,75
2026-05-07 18:27:58.308,4,-0.19,-0.18,1.69,-103.9588,50.001599999999996,-19.2236,175,75
2026-05-07 18:27:58.308,1,0.08,1.16,0.05,-33.9764,-11.785599999999999,-6.130000000000001,175,75
2026-05-07 18:27:58.319,5,-0.0,-0.09,1.2,-7.6306,21.4206,-1.7798000000000003,175,75
2026-05-07 18:27:58.319,4,-0.14,-0.25,1.75,-102.0088,42.6816,-23.433600000000002,175,75
2026-05-07 18:27:58.319,3,-0.89,-1.05,0.21,-15.868200000000002,13.573400000000001,-11.2896,175,75
2026-05-07 18:27:58.319,1,0.18,1.16,0.07,-32.266400000000004,-6.5955999999999975,-7.780000000000001,175,75
2026-05-07 18:27:58.319,5,0.03,-0.1,1.19,-10.730599999999999,19.0406,5.2202,175,75
2026-05-07 18:27:58.332,2,0.14,0.44,0.15,94.7698,-16.889799999999997,37.098200000000006,175,75
2026-05-07 18:27:58.332,3,-0.81,-1.1,0.34,-13.368200000000002,17.1734,-11.469600000000002,175,75
2026-05-07 18:27:58.332,4,-0.15,-0.3,1.74,-100.2988,25.0016,-30.383599999999998,175,75
2026-05-07 18:27:58.332,1,0.18,1.2,0.07,-32.3864,-2.025599999999997,-8.690000000000001,175,75
2026-05-07 18:27:58.332,5,0.03,-0.13,1.14,-11.6906,20.2606,14.840200000000001,175,75
2026-05-07 18:27:58.332,2,0.13,0.41,0.14,95.50980000000001,-21.219800000000003,40.87820000000001,175,75
2026-05-07 18:27:58.343,4,-0.17,-0.3,1.73,-97.4388,20.911600000000004,-33.7936,175,75
2026-05-07 18:27:58.343,3,-0.82,-1.1,0.37,-17.2682,4.853400000000001,-11.7696,175,75
2026-05-07 18:27:58.343,1,0.18,1.12,0.16,-32.1464,4.434400000000002,-8.63,175,75
2026-05-07 18:27:58.343,5,-0.01,-0.15,1.11,-10.7706,22.590600000000002,24.510199999999998,175,75
2026-05-07 18:27:58.343,2,0.14,0.37,0.15,94.5898,-24.639799999999997,43.37820000000001,175,75
2026-05-07 18:27:58.351,3,-0.88,-1.09,0.29,-19.648200000000003,1.8734000000000002,-10.979600000000001,175,75
2026-05-07 18:27:58.351,1,0.2,1.08,0.16,-32.266400000000004,-0.3155999999999999,-7.530000000000001,175,75
2026-05-07 18:27:58.351,5,-0.05,-0.16,1.1,-10.2606,23.390600000000003,28.8102,175,75
2026-05-07 18:27:58.360,1,0.21,1.12,0.05,-35.2564,-0.7455999999999996,-8.93,175,75
2026-05-07 18:27:58.360,4,-0.14,-0.28,1.6,-90.7888,41.821600000000004,-44.343599999999995,175,75
2026-05-07 18:27:58.372,3,-0.82,-1.13,0.3,-18.3082,-4.166599999999999,-10.799600000000002,175,75
2026-05-07 18:27:58.372,1,0.17,1.08,0.06,-31.8964,1.8744000000000014,-8.450000000000001,175,75
2026-05-07 18:27:58.372,5,-0.11,-0.17,1.09,-8.310599999999999,28.730600000000003,16.8102,175,75
2026-05-07 18:27:58.372,4,-0.21,-0.28,1.55,-84.6288,74.3916,-42.5736,175,75
2026-05-07 18:27:58.372,2,0.12,0.18,0.12,97.0298,-15.859800000000003,42.76820000000001,175,75
2026-05-07 18:27:58.389,1,0.16,1.0,0.11,-30.0764,-2.145599999999998,-7.470000000000001,175,75
2026-05-07 18:27:58.389,3,-0.86,-1.1,0.22,-16.9682,-5.016599999999999,-10.0096,175,75
2026-05-07 18:27:58.389,1,0.12,1.01,0.1,-30.0064,-5.3156,-7.35,175,75
2026-05-07 18:27:58.389,2,0.12,0.15,0.18,103.2498,7.310199999999998,41.178200000000004,175,75
2026-05-07 18:27:58.409,5,-0.1,-0.13,1.13,-7.240600000000001,32.5606,-11.0598,175,75
2026-05-07 18:27:58.409,2,0.14,0.18,0.23,103.97980000000001,8.8402,45.568200000000004,175,75
2026-05-07 18:27:58.409,4,-0.36,-0.24,1.75,-77.24879999999999,187.98160000000001,-14.223600000000001,175,75
2026-05-07 18:27:58.409,1,0.01,1.07,0.08,-25.4364,-5.255599999999998,-4.42,175,75
2026-05-07 18:27:58.409,5,-0.08,-0.12,1.12,-8.330599999999999,31.7006,-10.5998,175,75
2026-05-07 18:27:58.423,4,-0.33,-0.25,1.85,-74.5688,185.00160000000002,-13.003600000000002,175,75
2026-05-07 18:27:58.423,2,0.19,0.19,0.29,105.43979999999999,2.740199999999998,48.318200000000004,175,75
2026-05-07 18:27:58.423,1,-0.04,1.07,0.16,-22.7564,-0.07559999999999789,-1.37,175,75
2026-05-07 18:27:58.423,3,-0.81,-1.07,0.19,-9.648200000000001,-7.706599999999998,-15.549600000000002,175,75
2026-05-07 18:27:58.435,4,-0.26,-0.26,1.96,-69.07879999999999,164.26160000000002,-15.1936,175,75
2026-05-07 18:27:58.435,5,-0.07,-0.13,1.09,-8.310599999999999,30.7906,2.4001999999999994,175,75
2026-05-07 18:27:58.435,3,-0.75,-1.11,0.26,-9.2882,-9.596599999999999,-11.3496,175,75
2026-05-07 18:27:58.435,2,0.22,0.1,0.25,105.62979999999999,-35.4898,51.3082,175,75
2026-05-07 18:27:58.435,1,-0.08,1.15,0.26,-24.586399999999998,-15.6856,6.31,175,75
2026-05-07 18:27:58.441,5,-0.08,-0.13,1.09,-8.7606,30.7406,9.9602,175,75
2026-05-07 18:27:58.441,4,-0.19,-0.31,2.01,-63.8388,120.24159999999999,-24.3436,175,75
2026-05-07 18:27:58.460,5,-0.09,-0.13,1.1,-9.3706,31.070600000000002,12.7502,175,75
2026-05-07 18:27:58.460,1,-0.1,1.15,0.29,-26.166400000000003,-19.955599999999997,10.579999999999998,175,75
2026-05-07 18:27:58.460,3,-0.87,-1.12,0.25,-10.0782,4.673400000000001,-9.9396,175,75
2026-05-07 18:27:58.460,1,-0.07,1.17,0.28,-27.266400000000004,-25.135599999999997,11.739999999999998,175,75
2026-05-07 18:27:58.460,5,-0.1,-0.15,1.09,-10.1006,33.190599999999996,11.6202,175,75
2026-05-07 18:27:58.470,2,0.15,0.07,0.21,100.19980000000001,-36.769800000000004,47.458200000000005,175,75
2026-05-07 18:27:58.470,3,-0.78,-1.12,0.29,-8.4882,-3.0665999999999993,-9.9396,175,75
2026-05-07 18:27:58.470,5,-0.1,-0.16,1.1,-9.7806,35.6006,9.1102,175,75
2026-05-07 18:27:58.482,2,0.1,0.04,0.19,98.7398,-20.6698,48.068200000000004,175,75
2026-05-07 18:27:58.482,3,-0.83,-1.11,0.19,-10.568200000000001,-6.486599999999999,-7.379600000000001,175,75
2026-05-07 18:27:58.482,1,0.02,1.16,0.05,-26.5364,-23.605599999999995,14.36,175,75
2026-05-07 18:27:58.482,4,-0.29,-0.2,1.8,-50.1188,-11.0384,-48.063599999999994,175,75
2026-05-07 18:27:58.493,2,0.1,-0.02,0.17,97.5798,-6.039800000000003,50.1482,175,75
2026-05-07 18:27:58.493,5,-0.13,-0.16,1.14,-10.9506,36.130599999999994,-0.13980000000000015,175,75
2026-05-07 18:27:58.513,3,-0.85,-1.09,0.29,-6.478200000000001,8.9434,-5.429600000000001,175,75
2026-05-07 18:27:58.513,4,-0.25,-0.22,1.59,-49.1988,-1.9583999999999993,-45.623599999999996,175,75
2026-05-07 18:27:58.513,2,0.13,-0.01,0.13,97.5198,15.8502,48.318200000000004,175,75
2026-05-07 18:27:58.513,1,0.13,1.14,0.09,-18.4864,-19.285599999999995,12.04,175,75
2026-05-07 18:27:58.517,4,-0.22,-0.2,1.52,-49.3288,28.5316,-36.4136,175,75
2026-05-07 18:27:58.517,1,0.08,1.21,0.03,-17.5764,-13.605599999999995,11.309999999999999,175,75
2026-05-07 18:27:58.531,4,-0.25,-0.16,1.52,-48.4088,59.081599999999995,-27.3336,175,75
2026-05-07 18:27:58.531,2,0.18,0.02,0.15,97.3398,46.7702,52.098200000000006,175,75
2026-05-07 18:27:58.531,5,-0.11,-0.18,1.13,-16.0106,29.1506,0.1501999999999999,175,75
2026-05-07 18:27:58.531,1,0.13,1.19,0.17,-14.706400000000002,-10.435599999999997,9.3,175,75
2026-05-07 18:27:58.542,3,-0.83,-1.14,0.27,-6.1782,4.183400000000001,-7.929600000000001,175,75
2026-05-07 18:27:58.542,4,-0.28,-0.13,1.59,-46.5788,94.3216,-15.133599999999998,175,75
2026-05-07 18:27:58.542,5,-0.08,-0.2,1.14,-14.4706,29.5306,4.4902,175,75
2026-05-07 18:27:58.552,2,0.19,0.02,0.17,96.78979999999999,52.560199999999995,53.0082,175,75
2026-05-07 18:27:58.552,4,-0.31,-0.11,1.69,-47.0088,114.3916,-6.3536,175,75
2026-05-07 18:27:58.552,2,0.21,-0.01,0.18,94.40979999999999,52.5002,54.4782,175,75
2026-05-07 18:27:58.552,5,-0.09,-0.22,1.13,-12.400599999999999,33.0206,8.0202,175,75
2026-05-07 18:27:58.566,4,-0.36,-0.1,1.8,-46.2188,114.63159999999999,-1.2335999999999991,175,75
2026-05-07 18:27:58.567,2,0.22,-0.06,0.17,88.06979999999999,49.3902,55.9382,175,75
2026-05-07 18:27:58.567,4,-0.4,-0.11,1.89,-44.4488,94.5116,-2.273600000000002,175,75
2026-05-07 18:27:58.572,2,0.21,-0.09,0.18,82.69980000000001,48.9602,56.238200000000006,175,75
2026-05-07 18:27:58.572,3,-0.82,-1.11,0.29,-8.978200000000001,-1.0565999999999995,-5.799600000000001,175,75
2026-05-07 18:27:58.591,3,-0.73,-1.12,0.32,-7.638200000000001,5.043400000000001,-4.209600000000001,175,75
2026-05-07 18:27:58.591,1,0.08,1.18,0.14,-18.6664,-8.5456,4.239999999999999,175,75
2026-05-07 18:27:58.591,5,-0.2,-0.2,1.14,-5.6706,54.950599999999994,-7.9298,175,75
2026-05-07 18:27:58.591,3,-0.75,-1.14,0.28,-10.868200000000002,-6.7866,-0.5496000000000016,175,75
2026-05-07 18:27:58.603,2,0.21,-0.13,0.22,73.3098,61.1002,58.2582,175,75
2026-05-07 18:27:58.603,1,0.14,1.15,0.08,-17.026400000000002,-9.5856,2.4099999999999993,175,75
2026-05-07 18:27:58.618,5,-0.21,-0.16,1.19,-7.6006,65.5106,-29.669800000000002,175,75
2026-05-07 18:27:58.618,4,-0.4,-0.05,1.63,-45.1788,-11.0984,-14.713600000000003,175,75
2026-05-07 18:27:58.618,1,0.01,1.14,0.13,-10.686400000000003,-0.13560000000000016,0.6999999999999997,175,75
2026-05-07 18:27:58.618,5,-0.24,-0.15,1.2,-7.4806,67.8206,-36.2198,175,75
2026-05-07 18:27:58.635,3,-0.77,-1.09,0.2,-4.898200000000001,16.4434,-1.0396,175,75
2026-05-07 18:27:58.635,2,0.29,-0.22,0.27,53.009800000000006,53.9602,55.8782,175,75
2026-05-07 18:27:58.635,1,0.07,1.12,0.12,-8.186400000000003,1.9344000000000001,-1.9800000000000004,175,75
2026-05-07 18:27:58.635,5,-0.26,-0.13,1.2,-7.3306000000000004,67.3006,-37.5698,175,75
2026-05-07 18:27:58.635,3,-0.77,-1.13,0.31,-5.198200000000002,9.9234,-0.36960000000000015,175,75
2026-05-07 18:27:58.635,4,-0.45,-0.02,1.53,-51.3988,43.961600000000004,6.026399999999999,175,75
2026-05-07 18:27:58.645,1,-0.14,1.18,0.15,-8.366400000000002,7.734400000000001,-1.0100000000000007,175,75
2026-05-07 18:27:58.646,5,-0.28,-0.11,1.21,-7.280600000000001,63.5706,-33.9298,175,75
2026-05-07 18:27:58.646,3,-0.79,-1.14,0.29,-7.398200000000001,0.5334000000000003,-1.4696000000000016,175,75
2026-05-07 18:27:58.646,4,-0.48,-0.03,1.56,-52.6788,67.5616,15.046399999999998,175,75
2026-05-07 18:27:58.646,2,0.3,-0.19,0.21,47.6398,40.0002,51.488200000000006,175,75
2026-05-07 18:27:58.656,1,-0.03,1.14,0.3,-8.796400000000002,-4.035599999999999,-3.1400000000000006,175,75
2026-05-07 18:27:58.656,3,-0.81,-1.13,0.17,-8.308200000000001,-9.1066,-1.409600000000001,175,75
2026-05-07 18:27:58.656,4,-0.47,-0.04,1.6,-53.0488,77.9216,19.066399999999998,175,75
2026-05-07 18:27:58.666,1,0.02,1.13,0.16,-7.5764,-7.935599999999997,-3.0200000000000005,175,75
2026-05-07 18:27:58.666,5,-0.37,-0.11,1.21,-7.8706000000000005,49.3606,-16.7998,175,75
2026-05-07 18:27:58.666,3,-0.86,-1.11,0.06,-5.988200000000001,-7.456599999999998,-3.9696000000000007,175,75
2026-05-07 18:27:58.666,2,0.24,-0.13,0.13,40.6898,61.830200000000005,49.348200000000006,175,75
2026-05-07 18:27:58.679,5,-0.41,-0.11,1.19,-7.9806,39.1406,-8.2798,175,75
2026-05-07 18:27:58.679,1,-0.09,1.17,0.08,-7.266400000000001,-1.5355999999999987,-3.5700000000000003,175,75
2026-05-07 18:27:58.679,3,-0.8,-1.08,0.16,-2.7582000000000004,8.2134,-3.239600000000001,175,75
2026-05-07 18:27:58.679,4,-0.44,-0.09,1.74,-50.7888,56.9516,14.3764,175,75
2026-05-07 18:27:58.679,2,0.22,-0.1,0.12,38.129799999999996,77.0102,49.108200000000004,175,75
2026-05-07 18:27:58.679,5,-0.43,-0.12,1.19,-8.1306,26.4006,1.1801999999999997,175,75
2026-05-07 18:27:58.690,1,-0.08,1.19,0.19,-7.5764,-3.0656,-5.58,175,75
2026-05-07 18:27:58.690,3,-0.75,-1.13,0.32,-3.3682000000000016,4.793400000000001,2.0703999999999994,175,75
2026-05-07 18:27:58.690,4,-0.46,-0.12,1.75,-45.1788,25.731600000000004,5.596399999999999,175,75
2026-05-07 18:27:58.690,5,-0.42,-0.12,1.18,-9.4406,12.840599999999998,8.5002,175,75
2026-05-07 18:27:58.690,1,0.01,1.15,0.16,-6.596400000000003,-9.1556,-6.43,175,75
2026-05-07 18:27:58.701,2,0.21,-0.08,0.18,35.379799999999996,98.7202,49.2882,175,75
2026-05-07 18:27:58.701,3,-0.83,-1.17,0.28,-5.318200000000001,-12.456599999999998,-2.749600000000001,175,75
2026-05-07 18:27:58.701,5,-0.38,-0.14,1.17,-10.150599999999999,1.9506000000000001,13.960199999999999,175,75
2026-05-07 18:27:58.701,2,0.22,-0.09,0.24,32.0298,114.5702,51.608200000000004,175,75
2026-05-07 18:27:58.701,1,-0.02,1.15,0.13,-2.506400000000001,-5.625599999999999,-4.85,175,75
2026-05-07 18:27:58.715,3,-0.81,-1.12,0.16,-6.118200000000002,-8.5566,-1.829600000000001,175,75
2026-05-07 18:27:58.715,5,-0.32,-0.17,1.14,-10.480599999999999,-6.079400000000001,18.870199999999997,175,75
2026-05-07 18:27:58.715,1,0.09,1.12,0.24,1.6335999999999995,-14.955599999999997,-5.09,175,75
2026-05-07 18:27:58.715,4,-0.43,-0.09,1.47,-37.0688,-2.0784000000000002,-5.683600000000002,175,75
2026-05-07 18:27:58.715,2,0.26,-0.18,0.38,26.659799999999997,122.2502,54.7182,175,75
2026-05-07 18:27:58.720,3,-0.83,-1.16,0.15,-3.3682000000000016,-10.1466,-0.30960000000000143,175,75
2026-05-07 18:27:58.724,1,-0.01,1.22,0.04,-0.19640000000000057,-4.3455999999999975,-5.76,175,75
2026-05-07 18:27:58.738,5,-0.25,-0.17,1.08,-9.7906,-13.979399999999998,19.5002,175,75
2026-05-07 18:27:58.738,4,-0.42,-0.09,1.44,-40.1188,11.8216,-0.4436,175,75
2026-05-07 18:27:58.738,3,-0.85,-1.12,0.2,-3.4282000000000004,0.46340000000000003,-2.079600000000001,175,75
2026-05-07 18:27:58.738,2,0.24,-0.17,0.45,23.0098,110.8502,52.76820000000001,175,75
2026-05-07 18:27:58.738,4,-0.54,-0.07,1.54,-38.4088,42.501599999999996,8.4564,175,75
2026-05-07 18:27:58.738,2,0.23,-0.12,0.47,18.369799999999998,96.1602,50.4482,175,75
2026-05-07 18:27:58.749,1,-0.02,1.23,0.23,-3.2464000000000013,-6.7155999999999985,-6.49,175,75
2026-05-07 18:27:58.749,5,-0.24,-0.18,1.05,-9.9506,-13.119399999999999,14.5602,175,75
2026-05-07 18:27:58.749,3,-0.79,-1.11,0.31,-3.0082000000000004,5.103400000000001,-0.1296000000000017,175,75
2026-05-07 18:27:58.749,1,0.04,1.22,0.2,-3.426400000000001,-7.265599999999999,-5.950000000000001,175,75
2026-05-07 18:27:58.759,2,0.27,-0.06,0.48,12.639800000000001,79.0802,50.7582,175,75
2026-05-07 18:27:58.759,5,-0.13,-0.2,0.99,-8.980599999999999,-0.3193999999999999,5.9802,175,75
2026-05-07 18:27:58.769,4,-0.55,-0.07,1.93,-22.0688,31.8216,8.526399999999999,175,75
2026-05-07 18:27:58.769,1,0.04,1.2,0.19,-4.886400000000002,-2.395599999999998,-5.280000000000001,175,75
2026-05-07 18:27:58.769,5,-0.1,-0.2,1.0,-8.4206,9.8906,5.520200000000001,175,75
2026-05-07 18:27:58.785,3,-0.82,-1.14,0.18,-9.7682,-16.4266,1.2104,175,75
2026-05-07 18:27:58.785,1,0.03,1.21,0.2,-5.436400000000003,-2.8755999999999986,-4.42,175,75
2026-05-07 18:27:58.785,5,-0.11,-0.2,1.01,-8.0306,19.9506,4.090199999999999,175,75
2026-05-07 18:27:58.785,4,-0.58,-0.13,1.89,-12.128799999999998,-11.0984,-1.1736000000000004,175,75
2026-05-07 18:27:58.785,2,0.24,-0.03,0.51,9.7698,81.7702,57.458200000000005,175,75
2026-05-07 18:27:58.785,3,-0.89,-1.15,0.13,-9.468200000000001,-15.0166,-1.959600000000001,175,75
2026-05-07 18:27:58.789,1,-0.01,1.27,0.14,-5.0764,-1.0456000000000003,-3.99,175,75
2026-05-07 18:27:58.793,4,-0.56,-0.1,1.75,-7.8588,-13.6584,-1.0535999999999994,175,75
2026-05-07 18:27:58.793,2,0.18,-0.03,0.4,5.6297999999999995,68.4102,62.3382,175,75
2026-05-07 18:27:58.810,5,-0.19,-0.19,1.01,-6.9606,32.2406,-2.1698000000000004,175,75
2026-05-07 18:27:58.810,1,0.09,1.07,0.31,-2.5764000000000014,-4.2155999999999985,0.7599999999999998,175,75
2026-05-07 18:27:58.810,4,-0.55,-0.05,1.71,-1.5187999999999997,-3.5984,5.346399999999999,175,75
2026-05-07 18:27:58.810,3,-0.79,-1.12,0.27,-6.728200000000001,9.733400000000001,0.7303999999999995,175,75
2026-05-07 18:27:58.818,2,0.37,-0.12,-0.09,-38.7602,165.0002,22.158200000000004,175,75
2026-05-07 18:27:58.818,4,-0.5,-0.07,1.72,4.3911999999999995,6.3416,8.6464,175,75
2026-05-07 18:27:58.824,1,-0.03,1.19,0.36,-8.426400000000001,-2.515599999999999,-3.9299999999999997,175,75
2026-05-07 18:27:58.832,4,-0.49,-0.07,1.69,8.1112,5.6716000000000015,7.3664000000000005,175,75
2026-05-07 18:27:58.832,2,-0.02,-0.07,0.15,-2.7302,335.12019999999995,38.5582,175,75
2026-05-07 18:27:58.832,3,-0.79,-1.11,0.28,-11.1782,-2.6465999999999994,-0.1296000000000017,175,75
2026-05-07 18:27:58.832,5,-0.29,-0.13,1.06,-6.690600000000001,32.7206,-11.4698,175,75
2026-05-07 18:27:58.832,1,-0.04,1.16,0.15,-11.296400000000002,-8.485599999999998,-5.4,175,75
2026-05-07 18:27:58.850,5,-0.3,-0.13,1.07,-6.9806,29.7006,-13.8498,175,75
2026-05-07 18:27:58.850,3,-0.8,-1.11,0.19,-11.1782,-7.576599999999999,2.7403999999999993,175,75
2026-05-07 18:27:58.850,2,0.26,-0.15,0.56,34.2898,475.30019999999996,32.7682,175,75
2026-05-07 18:27:58.850,1,-0.02,1.16,0.27,-6.106400000000001,-8.365599999999997,-4.540000000000001,175,75
2026-05-07 18:27:58.850,4,-0.5,-0.01,1.53,11.6512,4.1416,6.2064,175,75
2026-05-07 18:27:58.850,5,-0.3,-0.12,1.08,-7.690600000000001,24.0506,-10.7998,175,75
2026-05-07 18:27:58.850,2,0.52,-0.07,1.11,48.0098,468.23019999999997,4.838200000000004,175,75
2026-05-07 18:27:58.853,1,0.06,1.12,0.07,-7.206400000000002,-10.4956,-5.950000000000001,175,75
2026-05-07 18:27:58.867,5,-0.32,-0.15,1.07,-8.2706,15.6906,-0.7998000000000003,175,75
2026-05-07 18:27:58.867,2,0.77,-0.02,1.53,43.2498,335.61019999999996,-20.711799999999997,175,75
2026-05-07 18:27:58.867,1,0.03,1.16,0.13,-7.026400000000002,-1.7855999999999987,-5.76,175,75
2026-05-07 18:27:58.878,4,-0.51,0.02,1.46,9.391200000000001,5.7316,11.3264,175,75
2026-05-07 18:27:58.878,5,-0.34,-0.17,1.04,-7.8706000000000005,6.5106,11.9402,175,75
2026-05-07 18:27:58.878,2,1.02,0.02,1.73,15.509799999999998,192.3102,-5.521799999999999,175,75
2026-05-07 18:27:58.878,1,0.02,1.12,0.17,-4.6464,-5.7456,-7.470000000000001,175,75
2026-05-07 18:27:58.878,4,-0.46,-0.01,1.45,5.1212,-0.6783999999999999,10.4164,175,75
2026-05-07 18:27:58.878,5,-0.36,-0.19,1.04,-6.8906,-1.5293999999999999,18.9702,175,75
2026-05-07 18:27:58.895,2,1.0,0.11,1.58,-3.4602000000000004,53.230199999999996,22.158200000000004,175,75
2026-05-07 18:27:58.895,4,-0.38,-0.05,1.44,2.6212,-13.8484,6.3864,175,75
2026-05-07 18:27:58.908,5,-0.29,-0.21,1.04,-5.7606,-14.279399999999999,19.370199999999997,175,75
2026-05-07 18:27:58.908,1,0.01,1.16,0.18,-2.506400000000001,-5.625599999999999,-7.710000000000001,175,75
2026-05-07 18:27:58.924,1,-0.0,1.17,0.16,-1.9664000000000001,-5.3156,-7.470000000000001,175,75
2026-05-07 18:27:58.924,4,-0.3,-0.08,1.36,-0.8487999999999998,-25.7384,-3.8536,175,75
2026-05-07 18:27:58.924,1,0.01,1.19,0.17,-0.4964000000000013,-6.235599999999998,-7.470000000000001,175,75
2026-05-07 18:27:58.934,4,-0.25,-0.26,1.29,-6.8288,20.6716,0.47639999999999816,175,75
2026-05-07 18:27:58.934,2,0.33,0.07,0.53,-9.9802,-30.429800000000004,-10.041799999999995,175,75
2026-05-07 18:27:58.934,1,-0.02,1.19,0.17,1.2735999999999983,-5.015599999999999,-6.130000000000001,175,75
2026-05-07 18:27:58.934,4,-0.33,-0.31,1.28,-10.418800000000001,36.6416,-4.2836,175,75
2026-05-07 18:27:58.957,3,-0.83,-1.14,0.18,-6.058200000000001,2.3534000000000006,-0.6796000000000006,175,75
2026-05-07 18:27:58.957,5,-0.16,-0.22,0.96,-2.5406,16.8106,1.4901999999999993,175,75
2026-05-07 18:27:58.957,2,0.34,0.12,0.54,8.3098,60.7902,-5.651799999999998,175,75
2026-05-07 18:27:58.957,4,-0.41,-0.23,1.32,-14.6888,63.8416,5.2864,175,75
2026-05-07 18:27:58.957,1,-0.04,1.21,0.2,-1.1064000000000007,-1.5955999999999975,-5.460000000000001,175,75
2026-05-07 18:27:58.957,3,-0.84,-1.13,0.19,-7.578200000000001,0.1634000000000011,-0.009600000000000719,175,75
2026-05-07 18:27:58.970,5,-0.2,-0.22,0.99,-3.6406,24.980600000000003,2.0201999999999996,175,75
2026-05-07 18:27:58.970,2,0.55,-0.04,0.86,16.2398,117.7402,-4.491799999999998,175,75
2026-05-07 18:27:58.970,4,-0.49,-0.19,1.35,-18.7788,68.6516,6.5664,175,75
2026-05-07 18:27:58.970,5,-0.22,-0.22,1.02,-4.4606,30.0406,1.2902,175,75
2026-05-07 18:27:58.980,3,-0.77,-1.13,0.26,-2.818200000000001,0.2234000000000016,-2.319600000000001,175,75
2026-05-07 18:27:58.980,1,-0.05,1.21,0.16,0.17359999999999864,-4.645599999999998,-2.9000000000000004,175,75
2026-05-07 18:27:58.980,5,-0.25,-0.22,1.05,-4.400600000000001,33.0206,-0.4298000000000002,175,75
2026-05-07 18:27:58.980,3,-0.79,-1.15,0.22,-7.2682,-9.046599999999998,0.9703999999999997,175,75
2026-05-07 18:27:58.992,1,-0.02,1.21,0.22,-0.19640000000000057,-6.8455999999999975,-2.4700000000000006,175,75
2026-05-07 18:27:58.992,4,-0.69,-0.27,1.77,-16.2788,84.7516,32.8464,175,75
2026-05-07 18:27:58.992,2,0.48,-0.01,1.1,-2.9102000000000015,-5.669799999999999,-16.1918,175,75
2026-05-07 18:27:59.006,5,-0.33,-0.2,1.08,-3.5906,31.7906,-6.7598,175,75
2026-05-07 18:27:59.006,3,-0.86,-1.12,0.04,-1.8482000000000003,-5.3866,-2.4396000000000004,175,75
2026-05-07 18:27:59.017,5,-0.35,-0.2,1.1,-3.6906,27.2606,-8.9898,175,75
2026-05-07 18:27:59.017,3,-0.85,-1.12,0.08,0.7118000000000002,7.723400000000001,-1.5896000000000008,175,75
2026-05-07 18:27:59.017,2,0.3,0.1,0.9,-27.1202,-96.21979999999999,-12.781799999999997,175,75
2026-05-07 18:27:59.017,1,-0.03,1.21,0.19,1.3335999999999988,-6.9056,-1.1300000000000008,175,75
2026-05-07 18:27:59.017,5,-0.35,-0.19,1.09,-4.400600000000001,22.0306,-8.8798,175,75
2026-05-07 18:27:59.029,4,-0.58,-0.57,1.82,21.2812,-92.4384,-8.433600000000002,175,75
2026-05-07 18:27:59.031,4,-0.32,-0.35,1.4,24.821199999999997,-88.78840000000001,-10.683600000000002,175,75
2026-05-07 18:27:59.048,5,-0.34,-0.2,1.09,-4.820600000000001,12.0806,-3.6698000000000004,175,75
2026-05-07 18:27:59.048,2,0.25,0.03,0.73,-26.3202,-92.0098,-15.3418,175,75
2026-05-07 18:27:59.048,1,0.1,1.18,0.11,2.0035999999999987,-20.6256,-0.8200000000000003,175,75
2026-05-07 18:27:59.048,2,0.32,0.0,0.71,-25.770200000000003,-84.4498,-18.511799999999994,175,75
2026-05-07 18:27:59.048,1,-0.08,1.21,0.18,4.1335999999999995,-0.6855999999999973,0.5199999999999996,175,75
2026-05-07 18:27:59.063,1,-0.06,1.22,0.2,2.913599999999999,-11.1756,0.8199999999999994,175,75
2026-05-07 18:27:59.063,5,-0.35,-0.2,1.09,-4.8806,5.4106000000000005,-5.3398,175,75
2026-05-07 18:27:59.063,4,-0.28,-0.3,1.28,14.581199999999999,-9.5184,15.5964,175,75
2026-05-07 18:27:59.063,2,0.5,-0.02,0.73,-26.5102,-85.3698,-26.8718,175,75
2026-05-07 18:27:59.077,5,-0.34,-0.21,1.07,-5.5506,3.7406,-7.049799999999999,175,75
2026-05-07 18:27:59.077,3,-0.83,-1.11,0.12,7.1218,4.123400000000001,-3.5996000000000006,175,75
2026-05-07 18:27:59.077,4,-0.22,-0.32,1.53,12.621200000000002,-10.548399999999999,11.9964,175,75
2026-05-07 18:27:59.081,5,-0.33,-0.22,1.06,-5.740600000000001,1.6706000000000003,-6.909800000000001,175,75
2026-05-07 18:27:59.081,1,-0.02,1.19,0.18,6.753599999999999,-3.1255999999999986,3.4399999999999995,175,75
2026-05-07 18:27:59.091,3,-0.78,-1.14,0.24,7.7318,6.873400000000001,-2.869600000000001,175,75
2026-05-07 18:27:59.091,4,-0.18,-0.35,1.65,15.731200000000001,-34.3284,3.3964,175,75
2026-05-07 18:27:59.091,5,-0.32,-0.23,1.06,-4.9706,-1.3094000000000001,-6.0798000000000005,175,75
2026-05-07 18:27:59.091,3,-0.76,-1.16,0.3,6.5718,-1.9665999999999997,-2.569600000000001,175,75
2026-05-07 18:27:59.111,1,-0.01,1.18,0.2,6.813599999999999,-3.485599999999998,3.6299999999999994,175,75
2026-05-07 18:27:59.112,4,-0.22,-0.32,1.52,12.011199999999999,-26.2884,-1.4736000000000011,175,75
2026-05-07 18:27:59.112,2,1.17,-0.03,0.47,-33.580200000000005,-143.53979999999999,-68.3318,175,75
2026-05-07 18:27:59.112,1,-0.02,1.19,0.18,8.1036,-4.4655999999999985,4.539999999999999,175,75
2026-05-07 18:27:59.112,2,1.41,-0.04,0.26,-32.7902,-133.8398,-86.6218,175,75
2026-05-07 18:27:59.121,4,-0.21,-0.27,1.49,16.0412,-4.5184,1.0864000000000011,175,75
2026-05-07 18:27:59.121,3,-0.86,-1.13,0.11,2.6617999999999995,-18.4966,0.3603999999999985,175,75
2026-05-07 18:27:59.121,2,1.34,-0.02,-0.0,-30.7102,-106.94980000000001,-95.8318,175,75
2026-05-07 18:27:59.121,5,-0.29,-0.25,1.03,-1.4206,-12.0794,-6.0998,175,75
2026-05-07 18:27:59.126,1,0.02,1.16,0.23,7.063599999999999,-5.5656,3.0199999999999996,175,75
2026-05-07 18:27:59.138,5,-0.27,-0.26,1.01,0.6694,-16.8494,-5.5398,175,75
2026-05-07 18:27:59.138,4,-0.3,-0.27,1.61,17.8712,14.7516,4.1364,175,75
2026-05-07 18:27:59.138,3,-0.81,-1.13,0.12,8.271799999999999,8.0934,-2.0196000000000005,175,75
2026-05-07 18:27:59.138,2,0.91,-0.09,-0.14,-34.2502,-63.04979999999999,-95.1618,175,75
2026-05-07 18:27:59.138,1,-0.02,1.17,0.18,7.973599999999999,-2.695599999999999,2.8999999999999995,175,75
2026-05-07 18:27:59.138,5,-0.26,-0.26,0.99,2.5494,-21.1694,-5.8398,175,75
2026-05-07 18:27:59.144,4,-0.35,-0.26,1.59,10.0612,9.4516,0.7763999999999989,175,75
2026-05-07 18:27:59.144,2,0.73,-0.35,-0.16,-46.6902,-15.369800000000001,-105.2218,175,75
2026-05-07 18:27:59.144,3,-0.79,-1.14,0.3,7.5417999999999985,6.8134000000000015,-2.629600000000001,175,75
2026-05-07 18:27:59.145,1,-0.01,1.16,0.2,7.183599999999999,-8.185599999999997,2.7099999999999995,175,75
2026-05-07 18:27:59.157,5,-0.23,-0.25,0.95,3.5994,-24.1394,-8.3398,175,75
2026-05-07 18:27:59.157,2,0.78,-0.7,-0.14,-69.9202,51.2202,-122.4118,175,75
2026-05-07 18:27:59.157,3,-0.8,-1.13,0.29,4.3718,-5.996600000000001,-3.7196000000000007,175,75
2026-05-07 18:27:59.169,5,-0.19,-0.23,0.93,3.2794000000000003,-24.9794,-13.6798,175,75
2026-05-07 18:27:59.169,2,0.85,-0.9,-0.08,-88.52019999999999,108.9002,-132.9618,175,75
2026-05-07 18:27:59.169,1,-0.0,1.16,0.18,7.793599999999999,-7.455599999999997,2.8299999999999996,175,75
2026-05-07 18:27:59.169,3,-0.85,-1.13,0.18,3.151799999999998,-11.1766,-4.459600000000001,175,75
2026-05-07 18:27:59.178,1,-0.0,1.16,0.18,8.343599999999999,-8.305599999999998,3.6899999999999995,175,75
2026-05-07 18:27:59.178,1,-0.01,1.17,0.16,9.863599999999998,-7.325599999999998,4.72,175,75
2026-05-07 18:27:59.180,3,-0.83,-1.14,0.14,4.681799999999999,-2.0965999999999987,-8.1796,175,75
2026-05-07 18:27:59.180,5,-0.1,-0.19,0.89,1.0193999999999999,-10.589400000000001,-26.1798,175,75
2026-05-07 18:27:59.192,4,-0.44,-0.12,1.54,-4.0188,-11.5884,-1.8435999999999986,175,75
2026-05-07 18:27:59.192,2,0.88,-0.8,0.2,-91.6302,223.8402,-160.1618,175,75
2026-05-07 18:27:59.192,1,-0.02,1.15,0.15,10.5336,-5.255599999999998,5.3999999999999995,175,75
2026-05-07 18:27:59.192,5,-0.07,-0.17,0.89,-1.4806000000000001,4.7006,-30.5498,175,75
2026-05-07 18:27:59.202,5,-0.06,-0.16,0.89,-3.0505999999999998,22.0506,-32.8098,175,75
2026-05-07 18:27:59.202,1,-0.0,1.15,0.19,11.6336,-4.1556,6.49,175,75
2026-05-07 18:27:59.202,3,-0.8,-1.16,0.28,3.7017999999999986,1.503400000000001,-8.7896,175,75
2026-05-07 18:27:59.219,5,-0.08,-0.15,0.91,-3.6206,38.2806,-31.739800000000002,175,75
2026-05-07 18:27:59.219,2,0.93,-0.56,0.61,-50.4702,276.5202,-185.2218,175,75
2026-05-07 18:27:59.219,2,1.03,-0.54,0.84,-31.630200000000002,268.5302,-193.6918,175,75
2026-05-07 18:27:59.219,1,-0.02,1.14,0.19,12.3036,-2.695599999999999,7.59,175,75
2026-05-07 18:27:59.219,5,-0.11,-0.14,0.94,-4.150600000000001,51.7906,-28.469800000000003,175,75
2026-05-07 18:27:59.230,2,1.0,-0.54,1.04,-13.8202,233.96020000000001,-198.6918,175,75
2026-05-07 18:27:59.230,3,-0.77,-1.11,0.23,1.1418,-3.7965999999999998,-5.129600000000001,175,75
2026-05-07 18:27:59.230,4,-0.39,-0.08,1.53,-13.5288,-15.308399999999999,0.5963999999999992,175,75
2026-05-07 18:27:59.230,1,-0.04,1.15,0.19,11.8136,-3.5456000000000003,7.039999999999999,175,75
2026-05-07 18:27:59.237,2,0.91,-0.55,1.2,3.489799999999999,188.7802,-203.9418,175,75
2026-05-07 18:27:59.237,3,-0.79,-1.11,0.2,0.9017999999999979,-2.5165999999999986,-4.819600000000001,175,75
2026-05-07 18:27:59.237,4,-0.4,-0.09,1.53,-13.2288,-7.868399999999999,2.846399999999999,175,75
2026-05-07 18:27:59.250,5,-0.24,-0.13,1.04,-4.690600000000001,67.7106,-21.0898,175,75
2026-05-07 18:27:59.250,1,-0.06,1.15,0.19,11.6336,-3.365599999999997,6.74,175,75
2026-05-07 18:27:59.250,4,-0.39,-0.11,1.57,-12.2488,-1.7083999999999993,6.756399999999999,175,75
2026-05-07 18:27:59.250,3,-0.76,-1.11,0.2,1.2617999999999974,-0.44659999999999833,-3.1796000000000006,175,75
2026-05-07 18:27:59.250,5,-0.3,-0.13,1.09,-4.5006,67.4606,-17.739800000000002,175,75
2026-05-07 18:27:59.260,2,0.74,-0.52,1.22,40.8098,101.89020000000001,-209.7318,175,75
2026-05-07 18:27:59.260,3,-0.75,-1.14,0.21,1.6317999999999984,2.783400000000001,-0.6796000000000006,175,75
2026-05-07 18:27:59.270,1,-0.07,1.13,0.21,9.3836,-2.9355999999999973,6.43,175,75
2026-05-07 18:27:59.270,2,0.6,-0.49,1.13,55.509800000000006,68.9602,-205.7118,175,75
2026-05-07 18:27:59.270,4,-0.41,-0.19,1.61,-10.668800000000001,-10.1284,9.3764,175,75
2026-05-07 18:27:59.270,3,-0.79,-1.13,0.2,1.811799999999998,3.5134000000000007,0.060399999999999565,175,75
2026-05-07 18:27:59.270,5,-0.44,-0.14,1.13,-3.9606,53.3106,-8.219800000000001,175,75
2026-05-07 18:27:59.284,2,0.48,-0.48,1.04,64.34979999999999,51.4002,-202.4118,175,75
2026-05-07 18:27:59.284,3,-0.77,-1.14,0.17,2.5417999999999985,7.603400000000001,0.7904,175,75
2026-05-07 18:27:59.284,5,-0.48,-0.15,1.15,-4.0206,44.5306,-7.7498000000000005,175,75
2026-05-07 18:27:59.284,2,0.34,-0.47,0.96,74.28979999999999,41.1602,-197.4818,175,75
2026-05-07 18:27:59.284,1,-0.09,1.13,0.2,7.303599999999999,-2.515599999999999,5.27,175,75
2026-05-07 18:27:59.295,4,-0.45,-0.24,1.52,-8.9588,-19.578400000000002,11.8764,175,75
2026-05-07 18:27:59.295,3,-0.77,-1.13,0.21,2.7318,7.423400000000001,3.840399999999999,175,75
2026-05-07 18:27:59.295,5,-0.52,-0.15,1.15,-5.4706,34.8606,-7.139800000000001,175,75
2026-05-07 18:27:59.295,2,0.27,-0.45,0.92,82.3398,39.2102,-195.52179999999998,175,75
2026-05-07 18:27:59.295,1,-0.09,1.13,0.19,6.753599999999999,-2.325599999999998,4.97,175,75
2026-05-07 18:27:59.306,3,-0.8,-1.15,0.21,3.401799999999998,0.2834000000000003,1.9503999999999984,175,75
2026-05-07 18:27:59.306,5,-0.53,-0.17,1.15,-5.0206,22.3006,-4.9698,175,75
2026-05-07 18:27:59.306,4,-0.44,-0.27,1.44,-5.1788,-16.348399999999998,16.3264,175,75
2026-05-07 18:27:59.309,3,-0.81,-1.15,0.19,3.521799999999999,-2.2165999999999997,1.4604,175,75
2026-05-07 18:27:59.309,5,-0.54,-0.17,1.13,-4.190600000000001,8.6406,-1.6298000000000004,175,75
2026-05-07 18:27:59.316,1,-0.07,1.12,0.18,6.753599999999999,-1.5955999999999975,3.51,175,75
2026-05-07 18:27:59.328,5,-0.53,-0.17,1.12,-4.0606,-3.5094000000000003,-0.3498000000000001,175,75
2026-05-07 18:27:59.328,3,-0.8,-1.15,0.2,4.251799999999999,-0.3265999999999991,1.5803999999999991,175,75
2026-05-07 18:27:59.328,4,-0.42,-0.3,1.44,-1.8887999999999998,-15.738399999999999,17.3064,175,75
2026-05-07 18:27:59.328,2,0.19,-0.3,0.93,108.6798,52.0102,-188.6318,175,75
2026-05-07 18:27:59.339,5,-0.49,-0.17,1.11,-3.5305999999999997,-15.5594,0.7901999999999996,175,75
2026-05-07 18:27:59.339,2,0.2,-0.22,0.95,119.8998,51.8902,-183.9418,175,75
2026-05-07 18:27:59.339,3,-0.78,-1.15,0.25,4.8018,-2.8865999999999996,1.7603999999999989,175,75
2026-05-07 18:27:59.339,1,-0.05,1.13,0.19,6.883599999999999,-0.4355999999999973,2.59,175,75
2026-05-07 18:27:59.339,5,-0.42,-0.17,1.1,-3.1606,-24.109399999999997,2.3002,175,75
2026-05-07 18:27:59.351,3,-0.78,-1.15,0.24,4.431799999999999,-5.8766,1.7603999999999989,175,75
2026-05-07 18:27:59.351,4,-0.37,-0.3,1.45,2.0812,-20.3684,15.9564,175,75
2026-05-07 18:27:59.351,1,-0.05,1.14,0.21,5.413599999999999,-0.9255999999999993,1.9799999999999995,175,75
2026-05-07 18:27:59.351,3,-0.85,-1.11,0.15,3.8217999999999996,-11.7866,1.9503999999999984,175,75
2026-05-07 18:27:59.351,4,-0.37,-0.3,1.46,3.3612,-20.1884,15.3464,175,75
2026-05-07 18:27:59.363,1,-0.06,1.15,0.21,4.6236,-1.235599999999998,2.0999999999999996,175,75
2026-05-07 18:27:59.364,5,-0.29,-0.17,1.05,-2.4206,-29.939399999999996,7.440200000000001,175,75
2026-05-07 18:27:59.364,3,-0.88,-1.14,0.04,5.901799999999998,-12.3966,-2.5096000000000007,175,75
2026-05-07 18:27:59.364,4,-0.37,-0.29,1.46,5.1212,-21.0384,14.676400000000001,175,75
2026-05-07 18:27:59.374,2,0.22,-0.04,1.03,150.19979999999998,18.5302,-160.2218,175,75
2026-05-07 18:27:59.374,5,-0.25,-0.17,1.03,-1.5106000000000002,-27.179399999999998,10.100200000000001,175,75
2026-05-07 18:27:59.374,4,-0.39,-0.28,1.46,6.9512,-23.7184,13.1564,175,75
2026-05-07 18:27:59.385,1,-0.05,1.14,0.18,2.913599999999999,-1.7155999999999985,1.5499999999999994,175,75
2026-05-07 18:27:59.385,5,-0.22,-0.18,1.01,0.25939999999999996,-20.2094,10.430200000000001,175,75
2026-05-07 18:27:59.385,2,0.23,0.01,1.03,153.5498,4.6301999999999985,-155.5818,175,75
2026-05-07 18:27:59.385,3,-0.77,-1.17,0.3,9.681799999999999,7.173400000000001,-1.959600000000001,175,75
2026-05-07 18:27:59.385,4,-0.44,-0.24,1.45,7.0112000000000005,-22.6284,12.116399999999999,175,75
2026-05-07 18:27:59.385,1,-0.05,1.15,0.18,3.583599999999999,0.8444000000000003,1.6799999999999997,175,75
2026-05-07 18:27:59.397,5,-0.19,-0.18,0.99,0.41939999999999994,-14.619399999999999,13.300199999999998,175,75
2026-05-07 18:27:59.398,3,-0.73,-1.15,0.33,6.441800000000001,-4.656599999999999,-2.5096000000000007,175,75
2026-05-07 18:27:59.398,4,-0.42,-0.2,1.47,6.591200000000001,-18.5384,11.7564,175,75
2026-05-07 18:27:59.414,4,-0.43,-0.2,1.49,6.2812,-19.9984,12.2464,175,75
2026-05-07 18:27:59.414,5,-0.21,-0.19,0.97,-2.0806,-2.1794000000000002,12.5902,175,75
2026-05-07 18:27:59.414,2,0.26,0.16,1.01,160.8698,-40.4298,-140.7118,175,75
2026-05-07 18:27:59.414,4,-0.44,-0.2,1.49,5.8012,-22.8084,12.426400000000001,175,75
2026-05-07 18:27:59.425,3,-0.82,-1.12,0.19,4.431799999999999,-3.7365999999999993,-0.48960000000000115,175,75
2026-05-07 18:27:59.425,5,-0.21,-0.2,0.96,-1.8006,3.9806,11.1402,175,75
2026-05-07 18:27:59.425,1,-0.04,1.15,0.21,0.6035999999999984,2.0644000000000027,0.8799999999999994,175,75
2026-05-07 18:27:59.425,4,-0.46,-0.19,1.48,3.4812000000000003,-25.6784,12.0564,175,75
2026-05-07 18:27:59.436,1,-0.04,1.14,0.23,-1.8364000000000011,-0.07559999999999789,0.39999999999999947,175,75
2026-05-07 18:27:59.436,5,-0.21,-0.22,0.95,-1.2706000000000002,8.7106,11.5902,175,75
2026-05-07 18:27:59.436,2,0.25,0.29,0.96,156.78979999999999,-61.46979999999999,-133.5118,175,75
2026-05-07 18:27:59.436,4,-0.44,-0.18,1.49,-0.9687999999999999,-28.1084,12.2464,175,75
2026-05-07 18:27:59.441,5,-0.23,-0.23,0.97,-0.5206000000000002,11.070599999999999,13.1302,175,75
2026-05-07 18:27:59.441,3,-0.79,-1.16,0.24,3.6418,-1.3565999999999985,-2.2596000000000007,175,75
2026-05-07 18:27:59.457,3,-0.76,-1.14,0.26,2.6617999999999995,1.6834000000000007,0.7904,175,75
2026-05-07 18:27:59.457,5,-0.26,-0.24,0.97,0.14939999999999992,12.700600000000001,11.3002,175,75
2026-05-07 18:27:59.457,2,0.28,0.32,0.9,156.2398,-64.93979999999999,-130.8318,175,75
2026-05-07 18:27:59.457,4,-0.43,-0.2,1.48,-3.8388,-31.7084,13.276399999999999,175,75
2026-05-07 18:27:59.457,4,-0.43,-0.22,1.47,-7.1888,-35.8584,14.1364,175,75
2026-05-07 18:27:59.461,5,-0.28,-0.25,0.98,0.8293999999999999,12.7406,6.8802,175,75
2026-05-07 18:27:59.461,2,0.29,0.35,0.84,155.6298,-59.93979999999999,-129.1218,175,75
2026-05-07 18:27:59.461,3,-0.77,-1.14,0.27,1.1418,0.6534000000000013,0.7904,175,75
2026-05-07 18:27:59.473,1,-0.03,1.14,0.2,-3.546400000000002,0.7844000000000015,-0.09000000000000075,175,75
2026-05-07 18:27:59.473,4,-0.44,-0.22,1.44,-9.9988,-39.8184,14.9864,175,75
2026-05-07 18:27:59.473,5,-0.29,-0.25,0.99,1.4693999999999998,13.6006,0.9101999999999997,175,75
2026-05-07 18:27:59.473,2,0.28,0.4,0.75,152.3998,-49.0898,-127.8418,175,75
2026-05-07 18:27:59.473,3,-0.78,-1.11,0.27,-0.37819999999999965,-0.7565999999999988,1.340399999999999,175,75
2026-05-07 18:27:59.486,1,-0.05,1.14,0.2,-4.336400000000001,-0.8055999999999983,0.14999999999999947,175,75
2026-05-07 18:27:59.486,5,-0.29,-0.24,1.0,2.3794,15.320599999999999,-6.2198,175,75
2026-05-07 18:27:59.486,4,-0.47,-0.23,1.42,-13.5988,-37.6284,17.7864,175,75
2026-05-07 18:27:59.486,3,-0.76,-1.12,0.25,-1.8482000000000003,-1.5465999999999998,3.9604,175,75
2026-05-07 18:27:59.486,1,-0.05,1.15,0.19,-4.586400000000001,-0.7455999999999996,0.3299999999999996,175,75
2026-05-07 18:27:59.498,5,-0.3,-0.24,1.0,3.9194,16.4806,-12.3398,175,75
2026-05-07 18:27:59.498,2,0.23,0.57,0.67,145.19979999999998,-3.8998000000000026,-125.40180000000001,175,75
2026-05-07 18:27:59.498,3,-0.78,-1.13,0.24,-2.6982000000000017,0.7734000000000005,4.1404,175,75
2026-05-07 18:27:59.498,1,-0.04,1.15,0.17,-4.276400000000002,0.4744000000000028,0.8799999999999994,175,75
2026-05-07 18:27:59.509,4,-0.46,-0.24,1.45,-19.9988,-32.8084,21.3264,175,75
2026-05-07 18:27:59.509,5,-0.31,-0.22,1.01,4.4193999999999996,16.4606,-15.5498,175,75
2026-05-07 18:27:59.509,1,-0.04,1.15,0.17,-3.2464000000000013,2.484400000000001,1.3699999999999997,175,75
2026-05-07 18:27:59.520,4,-0.45,-0.25,1.46,-21.1588,-33.3584,22.8464,175,75
2026-05-07 18:27:59.520,5,-0.32,-0.21,1.02,2.9194,14.730599999999999,-14.3298,175,75
2026-05-07 18:27:59.520,4,-0.44,-0.27,1.47,-21.2788,-33.5984,23.9464,175,75
2026-05-07 18:27:59.532,1,-0.04,1.15,0.19,-2.636400000000002,3.5844000000000023,1.6199999999999997,175,75
2026-05-07 18:27:59.532,2,0.2,0.65,0.82,159.8998,82.3102,-115.1018,175,75
2026-05-07 18:27:59.532,3,-0.78,-1.14,0.23,-4.408200000000001,0.3434000000000008,6.820399999999998,175,75
2026-05-07 18:27:59.532,5,-0.32,-0.2,1.04,1.3594,11.540600000000001,-12.5498,175,75
2026-05-07 18:27:59.532,4,-0.42,-0.28,1.44,-20.7288,-32.9884,24.6764,175,75
2026-05-07 18:27:59.532,1,-0.04,1.16,0.2,-3.3664000000000023,2.9144000000000005,2.0999999999999996,175,75
2026-05-07 18:27:59.535,3,-0.79,-1.12,0.21,-5.0182,1.9334000000000007,8.100399999999999,175,75
2026-05-07 18:27:59.549,5,-0.32,-0.2,1.04,0.5893999999999999,8.820599999999999,-10.719800000000001,175,75
2026-05-07 18:27:59.549,1,-0.05,1.15,0.21,-3.4863999999999997,2.424400000000002,2.59,175,75
2026-05-07 18:27:59.549,4,-0.41,-0.29,1.41,-18.5288,-32.928399999999996,25.7164,175,75
2026-05-07 18:27:59.549,3,-0.79,-1.14,0.21,-4.5882000000000005,4.433400000000001,7.5604,175,75
2026-05-07 18:27:59.549,2,0.3,0.78,0.98,166.78979999999999,76.1002,-102.7818,175,75
2026-05-07 18:27:59.549,5,-0.31,-0.2,1.04,0.4393999999999999,5.4706,-8.6498,175,75
2026-05-07 18:27:59.560,1,-0.05,1.16,0.21,-4.156400000000001,1.634400000000003,3.0199999999999996,175,75
2026-05-07 18:27:59.560,4,-0.4,-0.3,1.38,-16.518800000000002,-29.8784,24.6164,175,75
2026-05-07 18:27:59.560,5,-0.31,-0.22,1.02,0.8694,3.2406,-5.1698,175,75
2026-05-07 18:27:59.570,1,-0.06,1.17,0.2,-5.136400000000002,0.7844000000000015,4.119999999999999,175,75
2026-05-07 18:27:59.570,2,0.32,0.88,1.02,161.9698,42.3802,-90.6518,175,75
2026-05-07 18:27:59.570,3,-0.8,-1.15,0.23,-4.898200000000001,1.3234000000000012,6.340400000000001,175,75
2026-05-07 18:27:59.570,5,-0.31,-0.23,1.01,1.2993999999999999,2.0106,-2.6398,175,75
2026-05-07 18:27:59.586,2,0.34,0.9,0.98,158.1898,21.400199999999998,-86.5018,175,75
2026-05-07 18:27:59.586,5,-0.31,-0.22,1.0,1.1294,2.0206,-2.9398000000000004,175,75
2026-05-07 18:27:59.586,1,-0.06,1.15,0.19,-3.796400000000002,3.0944000000000003,5.27,175,75
2026-05-07 18:27:59.593,5,-0.31,-0.23,0.98,0.36939999999999995,2.2406,-4.6898,175,75
2026-05-07 18:27:59.593,2,0.33,0.93,0.89,151.78979999999999,-11.529799999999998,-79.4918,175,75
2026-05-07 18:27:59.593,3,-0.81,-1.15,0.13,-2.818200000000001,1.0734000000000012,6.2704,175,75
2026-05-07 18:27:59.609,1,-0.06,1.16,0.19,-3.546400000000002,4.074400000000001,6.01,175,75
2026-05-07 18:27:59.610,2,0.29,0.96,0.79,144.9598,-34.639799999999994,-77.48179999999999,175,75
2026-05-07 18:27:59.610,4,-0.4,-0.32,1.41,-6.8288,-24.2684,23.0964,175,75
2026-05-07 18:27:59.610,3,-0.8,-1.15,0.18,-1.0582000000000011,8.393400000000002,7.070399999999998,175,75
2026-05-07 18:27:59.610,5,-0.28,-0.22,0.95,0.22939999999999994,6.3606,-10.1598,175,75
2026-05-07 18:27:59.620,1,-0.05,1.16,0.19,-3.6064000000000007,3.1544000000000008,5.88,175,75
2026-05-07 18:27:59.620,4,-0.4,-0.32,1.41,-6.0988,-24.328400000000002,22.3664,175,75
2026-05-07 18:27:59.620,2,0.19,0.99,0.7,138.2498,-48.8998,-73.2718,175,75
2026-05-07 18:27:59.620,3,-0.78,-1.15,0.27,-0.9282000000000004,4.123400000000001,5.670399999999999,175,75
2026-05-07 18:27:59.620,1,-0.05,1.16,0.17,-3.2464000000000013,3.4044000000000008,6.01,175,75
2026-05-07 18:27:59.620,5,-0.24,-0.23,0.96,0.13939999999999994,10.6106,-10.6598,175,75
2026-05-07 18:27:59.624,4,-0.37,-0.3,1.41,-5.4188,-20.4884,22.8464,175,75
2026-05-07 18:27:59.634,5,-0.21,-0.23,0.97,0.019399999999999917,16.1906,-7.739800000000001,175,75
2026-05-07 18:27:59.635,1,-0.05,1.14,0.15,-1.4764000000000017,4.374400000000001,5.209999999999999,175,75
2026-05-07 18:27:59.647,5,-0.22,-0.22,0.99,-0.15060000000000007,22.9206,-6.0498,175,75
2026-05-07 18:27:59.648,3,-0.8,-1.13,0.19,-1.6582000000000008,-3.6165999999999983,8.170399999999999,175,75
2026-05-07 18:27:59.648,2,0.11,1.08,0.6,129.28979999999999,6.100200000000001,-47.6018,175,75
2026-05-07 18:27:59.648,1,-0.05,1.14,0.15,-0.4364000000000008,5.044400000000001,4.789999999999999,175,75
2026-05-07 18:27:59.648,5,-0.24,-0.23,1.0,0.13939999999999994,29.390600000000003,-7.489800000000001,175,75
2026-05-07 18:27:59.661,4,-0.39,-0.26,1.43,-1.2787999999999995,-8.968399999999999,26.6964,175,75
2026-05-07 18:27:59.662,2,0.18,1.09,0.66,125.68979999999999,18.4102,-36.1918,175,75
2026-05-07 18:27:59.662,5,-0.28,-0.24,1.01,1.0794,33.2706,-9.6998,175,75
2026-05-07 18:27:59.662,1,-0.05,1.14,0.15,1.2035999999999998,6.934400000000002,3.9299999999999997,175,75
2026-05-07 18:27:59.662,3,-0.83,-1.11,0.17,-0.5682000000000009,0.1034000000000006,9.140399999999998,175,75
2026-05-07 18:27:59.673,4,-0.4,-0.24,1.43,-0.8487999999999998,-8.4784,27.6064,175,75
2026-05-07 18:27:59.673,5,-0.33,-0.24,1.02,1.9693999999999998,34.8806,-11.9498,175,75
2026-05-07 18:27:59.673,1,-0.05,1.14,0.15,2.493599999999999,7.9144000000000005,3.1399999999999997,175,75
2026-05-07 18:27:59.673,3,-0.81,-1.12,0.19,0.23179999999999978,2.9034000000000013,9.510399999999999,175,75
2026-05-07 18:27:59.684,2,0.27,1.08,0.72,121.84979999999999,10.1202,-29.851799999999997,175,75
2026-05-07 18:27:59.684,4,-0.42,-0.24,1.42,-1.3388,-8.1784,28.0964,175,75
2026-05-07 18:27:59.696,2,0.36,1.11,0.71,114.28979999999999,-21.1598,-25.7718,175,75
2026-05-07 18:27:59.696,5,-0.35,-0.23,1.03,2.7794000000000003,33.3406,-15.1698,175,75
2026-05-07 18:27:59.697,4,-0.42,-0.23,1.42,-1.7687999999999997,-7.8084,28.0964,175,75
2026-05-07 18:27:59.697,5,-0.37,-0.23,1.04,2.7594000000000003,30.410600000000002,-17.6098,175,75
2026-05-07 18:27:59.697,3,-0.81,-1.13,0.25,0.2917999999999985,1.3834000000000017,11.4004,175,75
2026-05-07 18:27:59.697,2,0.29,1.14,0.68,102.63980000000001,-61.15979999999999,-19.851799999999997,175,75
2026-05-07 18:27:59.709,4,-0.43,-0.23,1.42,-1.4588,-7.5684,27.1764,175,75
2026-05-07 18:27:59.709,5,-0.37,-0.22,1.04,2.8894,26.3606,-19.1798,175,75
2026-05-07 18:27:59.709,2,0.2,1.11,0.62,93.06979999999999,-80.6698,-15.101799999999997,175,75
2026-05-07 18:27:59.709,1,-0.03,1.16,0.2,4.993599999999999,11.7544,2.7099999999999995,175,75
2026-05-07 18:27:59.709,3,-0.86,-1.11,0.16,0.3517999999999972,-9.7166,6.340400000000001,175,75
2026-05-07 18:27:59.723,1,-0.05,1.17,0.26,2.9735999999999994,8.524400000000002,2.4099999999999993,175,75
2026-05-07 18:27:59.723,4,-0.44,-0.24,1.4,-3.0488,-8.9084,25.2864,175,75
2026-05-07 18:27:59.723,2,0.18,1.09,0.53,87.0298,-91.5298,-10.771799999999999,175,75
2026-05-07 18:27:59.723,5,-0.35,-0.19,1.08,2.5994,16.4106,-20.0898,175,75
2026-05-07 18:27:59.723,1,-0.04,1.19,0.22,0.9035999999999991,4.744400000000001,2.7699999999999996,175,75
2026-05-07 18:27:59.730,3,-0.87,-1.11,0.15,2.1218000000000004,6.383400000000001,9.8104,175,75
2026-05-07 18:27:59.730,2,0.15,1.1,0.48,82.0298,-92.9298,-4.6717999999999975,175,75
2026-05-07 18:27:59.730,5,-0.35,-0.19,1.06,2.1994,11.8506,-20.7298,175,75
2026-05-07 18:27:59.746,4,-0.4,-0.28,1.36,-3.8388,-11.1584,20.226399999999998,175,75
2026-05-07 18:27:59.746,2,0.13,1.1,0.45,78.97980000000001,-83.04979999999999,0.3282000000000025,175,75
2026-05-07 18:27:59.746,1,-0.02,1.18,0.17,0.053599999999999426,4.984400000000001,4.659999999999999,175,75
2026-05-07 18:27:59.746,3,-0.83,-1.14,0.24,2.0518,0.1634000000000011,5.600399999999999,175,75
2026-05-07 18:27:59.763,4,-0.38,-0.29,1.36,-2.6788,-8.7884,17.0564,175,75
2026-05-07 18:27:59.763,2,0.19,1.09,0.39,75.56979999999999,-64.3898,6.118200000000002,175,75
2026-05-07 18:27:59.764,1,-0.01,1.17,0.17,0.7235999999999994,6.144400000000001,5.27,175,75
2026-05-07 18:27:59.764,5,-0.27,-0.18,1.0,2.9194,3.5806,-15.7898,175,75
2026-05-07 18:27:59.764,2,0.26,1.11,0.37,71.72980000000001,-52.68979999999999,9.838200000000002,175,75
2026-05-07 18:27:59.764,4,-0.39,-0.28,1.36,-1.8288000000000002,-6.7684,13.706399999999999,175,75
2026-05-07 18:27:59.773,3,-0.86,-1.13,0.21,1.5717999999999996,-3.496599999999999,4.750399999999999,175,75
2026-05-07 18:27:59.773,2,0.31,1.15,0.33,66.84979999999999,-42.139799999999994,12.038200000000003,175,75
2026-05-07 18:27:59.778,4,-0.4,-0.3,1.35,-1.0287999999999995,-2.9284,12.546399999999998,175,75
2026-05-07 18:27:59.778,3,-0.87,-1.12,0.16,0.4717999999999982,-5.016599999999999,2.9803999999999995,175,75
2026-05-07 18:27:59.790,5,-0.22,-0.19,0.97,2.0194,6.9706,-7.0198,175,75
2026-05-07 18:27:59.790,1,-0.02,1.16,0.17,1.2035999999999998,9.254400000000002,6.25,175,75
2026-05-07 18:27:59.790,1,0.01,1.16,0.18,-0.5564000000000018,5.904400000000001,6.069999999999999,175,75
2026-05-07 18:27:59.801,3,-0.81,-1.13,0.23,4.131799999999998,-0.3865999999999996,3.1003999999999987,175,75
2026-05-07 18:27:59.801,5,-0.24,-0.21,0.93,1.4094,16.4006,-7.649800000000001,175,75
2026-05-07 18:27:59.814,1,0.01,1.15,0.17,0.47359999999999935,8.284400000000002,6.859999999999999,175,75
2026-05-07 18:27:59.814,4,-0.43,-0.29,1.37,2.5612,0.30160000000000053,11.2064,175,75
2026-05-07 18:27:59.814,5,-0.24,-0.2,0.92,2.4294000000000002,21.8606,-12.1398,175,75
2026-05-07 18:27:59.814,2,0.36,1.16,0.39,51.6598,43.4702,22.278200000000002,175,75
2026-05-07 18:27:59.814,4,-0.45,-0.28,1.36,4.2112,0.36160000000000103,11.3264,175,75
2026-05-07 18:27:59.827,5,-0.26,-0.21,0.91,3.5894,28.3806,-17.3598,175,75
2026-05-07 18:27:59.828,1,0.01,1.15,0.2,0.29359999999999964,9.504400000000002,7.77,175,75
2026-05-07 18:27:59.828,3,-0.82,-1.13,0.18,6.261799999999997,-2.7066,0.3603999999999985,175,75
2026-05-07 18:27:59.828,4,-0.47,-0.28,1.38,4.6411999999999995,-0.06840000000000046,11.4464,175,75
2026-05-07 18:27:59.838,5,-0.26,-0.21,0.9,5.8194,35.3506,-21.0898,175,75
2026-05-07 18:27:59.838,2,0.44,1.14,0.48,49.0398,45.0002,22.158200000000004,175,75
2026-05-07 18:27:59.838,1,0.0,1.17,0.2,-0.6164000000000005,7.604400000000002,8.14,175,75
2026-05-07 18:27:59.838,3,-0.83,-1.12,0.19,4.3718,-0.5665999999999993,3.1003999999999987,175,75
2026-05-07 18:27:59.838,4,-0.47,-0.28,1.37,5.0012,-1.7683999999999997,10.2264,175,75
2026-05-07 18:27:59.838,5,-0.28,-0.22,0.92,7.3393999999999995,40.7906,-21.4298,175,75
2026-05-07 18:27:59.845,2,0.54,1.15,0.53,46.3598,20.0002,19.168200000000002,175,75
2026-05-07 18:27:59.845,2,0.62,1.18,0.53,42.4598,-20.0598,15.998200000000002,175,75
2026-05-07 18:27:59.858,4,-0.45,-0.29,1.37,4.9412,-1.4084000000000003,9.0064,175,75
2026-05-07 18:27:59.858,5,-0.3,-0.21,0.95,8.519400000000001,44.0406,-19.8898,175,75
2026-05-07 18:27:59.858,3,-0.87,-1.11,0.19,5.101799999999997,5.653400000000001,1.4003999999999994,175,75
2026-05-07 18:27:59.858,1,0.0,1.17,0.18,-0.9864000000000015,4.254400000000002,8.08,175,75
2026-05-07 18:27:59.858,4,-0.44,-0.29,1.34,5.9812,-0.5483999999999991,8.3964,175,75
2026-05-07 18:27:59.858,2,0.61,1.2,0.48,38.3098,-54.8198,13.008200000000002,175,75
2026-05-07 18:27:59.861,3,-0.81,-1.13,0.27,7.7917999999999985,5.833400000000001,-0.009600000000000719,175,75
2026-05-07 18:27:59.861,5,-0.34,-0.18,0.99,8.8194,44.050599999999996,-19.9598,175,75
2026-05-07 18:27:59.879,5,-0.37,-0.17,1.03,7.9594,41.300599999999996,-23.7798,175,75
2026-05-07 18:27:59.879,4,-0.43,-0.32,1.33,10.4312,2.191600000000001,6.3864,175,75
2026-05-07 18:27:59.879,3,-0.87,-1.12,0.19,1.8718000000000004,-9.2866,1.7603999999999989,175,75
2026-05-07 18:27:59.879,2,0.58,1.17,0.38,33.3698,-75.4898,7.708200000000003,175,75
2026-05-07 18:27:59.879,5,-0.4,-0.16,1.03,7.3994,36.840599999999995,-27.989800000000002,175,75
2026-05-07 18:27:59.889,4,-0.42,-0.35,1.34,13.301200000000001,4.7516,4.436399999999999,175,75
2026-05-07 18:27:59.889,2,0.58,1.15,0.27,29.7098,-67.1398,3.1982000000000035,175,75
2026-05-07 18:27:59.891,1,-0.01,1.14,0.16,1.3335999999999988,3.4044000000000008,8.989999999999998,175,75
2026-05-07 18:27:59.908,5,-0.46,-0.15,1.03,3.9794,24.480600000000003,-30.9998,175,75
2026-05-07 18:27:59.908,2,0.58,1.19,0.2,28.0098,-4.149800000000003,-3.2117999999999967,175,75
2026-05-07 18:27:59.908,4,-0.42,-0.38,1.31,17.7512,6.581600000000002,-0.9936000000000007,175,75
2026-05-07 18:27:59.908,1,-0.01,1.14,0.15,2.6735999999999986,4.134400000000001,8.809999999999999,175,75
2026-05-07 18:27:59.918,5,-0.45,-0.15,1.04,2.0094,16.9606,-26.329800000000002,175,75
2026-05-07 18:27:59.918,3,-0.86,-1.15,0.26,7.361799999999999,4.183400000000001,-5.009600000000001,175,75
2026-05-07 18:27:59.918,4,-0.43,-0.37,1.29,21.4012,7.2516,-2.8836000000000013,175,75
2026-05-07 18:27:59.918,1,-0.01,1.14,0.15,3.8935999999999993,4.864400000000002,8.51,175,75
2026-05-07 18:27:59.918,5,-0.41,-0.15,1.04,0.9494,9.730599999999999,-18.2498,175,75
2026-05-07 18:27:59.929,2,0.69,1.24,0.24,25.809800000000003,27.9202,-9.491799999999998,175,75
2026-05-07 18:27:59.929,4,-0.45,-0.37,1.32,25.121199999999998,9.511600000000001,-3.063600000000001,175,75
2026-05-07 18:27:59.929,1,-0.0,1.15,0.15,5.233599999999999,6.934400000000002,7.41,175,75
2026-05-07 18:27:59.929,5,-0.38,-0.14,1.05,0.42939999999999995,3.5406,-9.1598,175,75
2026-05-07 18:27:59.941,3,-0.81,-1.1,0.26,5.4117999999999995,-1.9065999999999992,-3.5996000000000006,175,75
2026-05-07 18:27:59.941,4,-0.46,-0.35,1.36,26.3412,10.9116,-2.9436,175,75
2026-05-07 18:27:59.941,5,-0.36,-0.13,1.05,-0.4106,1.1406,-4.5598,175,75
2026-05-07 18:27:59.941,1,-0.01,1.15,0.16,5.113599999999999,7.364400000000002,6.31,175,75
2026-05-07 18:27:59.947,3,-0.83,-1.11,0.24,6.021799999999999,-1.4865999999999993,-4.5196000000000005,175,75
2026-05-07 18:27:59.947,4,-0.48,-0.32,1.38,27.2012,10.851600000000001,-2.6936,175,75
2026-05-07 18:27:59.958,5,-0.31,-0.14,1.03,-0.5306,1.8406000000000002,-1.6998000000000002,175,75
2026-05-07 18:27:59.958,1,-0.02,1.16,0.18,4.743599999999999,7.9144000000000005,5.33,175,75
2026-05-07 18:27:59.958,3,-0.81,-1.12,0.22,5.771799999999999,-4.4666,-5.619600000000001,175,75
2026-05-07 18:27:59.969,2,0.7,1.29,0.29,14.959799999999998,5.3002,-15.1618,175,75
2026-05-07 18:27:59.969,3,-0.83,-1.12,0.17,4.191800000000001,-1.666599999999999,-4.399600000000001,175,75
2026-05-07 18:27:59.969,5,-0.24,-0.17,0.99,1.5293999999999999,11.0006,5.3702000000000005,175,75
2026-05-07 18:27:59.979,4,-0.51,-0.29,1.43,26.9512,8.171600000000002,-1.7835999999999999,175,75
2026-05-07 18:27:59.979,1,-0.01,1.17,0.2,1.8835999999999995,3.344400000000002,3.1399999999999997,175,75
2026-05-07 18:27:59.979,3,-0.84,-1.14,0.2,6.201799999999999,3.5134000000000007,-3.7196000000000007,175,75
2026-05-07 18:27:59.979,5,-0.24,-0.18,0.99,0.6294,19.1306,8.0102,175,75
2026-05-07 18:27:59.991,4,-0.52,-0.26,1.46,21.6512,3.4116,-2.7535999999999987,175,75
2026-05-07 18:27:59.991,2,0.78,1.26,0.23,10.689799999999998,12.5602,-18.511799999999994,175,75
2026-05-07 18:27:59.991,1,-0.01,1.18,0.16,1.0235999999999983,2.3644,2.3499999999999996,175,75
2026-05-07 18:27:59.991,3,-0.83,-1.13,0.23,4.9818,6.993400000000001,-5.129600000000001,175,75
2026-05-07 18:28:00.004,3,-0.79,-1.11,0.31,6.201799999999999,7.1134,-4.209600000000001,175,75
2026-05-07 18:28:00.004,2,0.79,1.26,0.23,8.549799999999998,17.8602,-19.7318,175,75
2026-05-07 18:28:00.004,5,-0.29,-0.2,0.99,-1.8806,37.7606,6.180200000000001,175,75
2026-05-07 18:28:00.004,2,0.8,1.24,0.27,3.6798,23.5302,-18.8818,175,75
2026-05-07 18:28:00.014,3,-0.79,-1.1,0.31,3.4618,-0.44659999999999833,-3.789600000000001,175,75
2026-05-07 18:28:00.014,1,0.0,1.19,0.16,1.4535999999999998,0.4744000000000028,1.1899999999999995,175,75
2026-05-07 18:28:00.014,5,-0.31,-0.2,1.03,-2.1806,44.1006,3.9901999999999993,175,75
2026-05-07 18:28:00.014,4,-0.47,-0.22,1.44,12.5612,-0.6783999999999999,-1.0535999999999994,175,75
2026-05-07 18:28:00.014,2,0.82,1.28,0.22,-10.2902,-10.0598,-16.071799999999996,175,75
2026-05-07 18:28:00.014,3,-0.8,-1.11,0.28,1.8718000000000004,-1.3565999999999985,-2.319600000000001,175,75
2026-05-07 18:28:00.028,5,-0.35,-0.2,1.06,-1.8706000000000003,46.7906,1.4801999999999995,175,75
2026-05-07 18:28:00.029,4,-0.47,-0.21,1.45,10.2512,0.24160000000000004,-0.6235999999999997,175,75
2026-05-07 18:28:00.029,2,0.7,1.32,0.19,-25.9602,-59.57979999999999,-15.041799999999995,175,75
2026-05-07 18:28:00.029,3,-0.79,-1.11,0.26,2.241799999999998,0.9534000000000002,-2.5096000000000007,175,75
2026-05-07 18:28:00.029,5,-0.39,-0.2,1.08,-1.6006,46.9706,-0.6898000000000004,175,75
2026-05-07 18:28:00.040,1,-0.0,1.2,0.16,2.913599999999999,-0.2555999999999976,-0.21000000000000085,175,75
2026-05-07 18:28:00.040,4,-0.46,-0.22,1.47,6.6512,1.8216,-0.323599999999999,175,75
2026-05-07 18:28:00.040,2,0.53,1.34,0.14,-30.2302,-73.7798,-7.661799999999996,175,75
2026-05-07 18:28:00.040,3,-0.79,-1.09,0.29,1.4418000000000006,0.7734000000000005,-0.9796000000000014,175,75
2026-05-07 18:28:00.050,4,-0.47,-0.21,1.47,4.6411999999999995,3.4716000000000005,0.7763999999999989,175,75
2026-05-07 18:28:00.050,2,0.48,1.33,0.12,-28.2702,-54.8798,-2.0517999999999965,175,75
2026-05-07 18:28:00.050,5,-0.46,-0.2,1.1,-0.6206,40.590599999999995,-4.2598,175,75
2026-05-07 18:28:00.061,1,0.01,1.2,0.15,5.173599999999999,-0.3155999999999999,-1.3100000000000005,175,75
2026-05-07 18:28:00.061,4,-0.45,-0.23,1.46,4.5812,5.9116,0.9563999999999986,175,75
2026-05-07 18:28:00.061,3,-0.8,-1.09,0.24,0.6517999999999979,2.843400000000001,-0.42960000000000065,175,75
2026-05-07 18:28:00.061,5,-0.49,-0.2,1.11,-0.8206000000000002,34.8906,-5.9398,175,75
2026-05-07 18:28:00.061,2,0.57,1.28,0.13,-30.8402,-14.639799999999997,3.1982000000000035,175,75
2026-05-07 18:28:00.072,1,0.01,1.21,0.15,6.273599999999999,-1.1755999999999993,-1.62,175,75
2026-05-07 18:28:00.072,3,-0.8,-1.11,0.24,0.23179999999999978,5.653400000000001,1.8203999999999994,175,75
2026-05-07 18:28:00.072,5,-0.51,-0.2,1.11,-0.9006000000000001,27.7106,-7.809800000000001,175,75
2026-05-07 18:28:00.072,2,0.67,1.26,0.18,-33.090199999999996,19.510199999999998,6.308200000000003,175,75
2026-05-07 18:28:00.079,1,0.0,1.19,0.15,6.883599999999999,-1.235599999999998,-1.9200000000000008,175,75
2026-05-07 18:28:00.079,5,-0.53,-0.21,1.11,-0.20060000000000006,20.1506,-7.5998,175,75
2026-05-07 18:28:00.080,3,-0.78,-1.14,0.29,0.041799999999998505,7.843400000000001,2.8004,175,75
2026-05-07 18:28:00.083,4,-0.52,-0.26,1.44,1.5312000000000001,8.901600000000002,3.0364000000000004,175,75
2026-05-07 18:28:00.083,2,0.75,1.24,0.25,-29.7402,40.6702,6.548200000000003,175,75
2026-05-07 18:28:00.096,5,-0.54,-0.21,1.09,0.3293999999999999,10.6406,-5.1998,175,75
2026-05-07 18:28:00.096,1,0.0,1.2,0.17,7.183599999999999,-2.395599999999998,-1.8000000000000007,175,75
2026-05-07 18:28:00.096,4,-0.53,-0.27,1.45,-0.29879999999999995,6.211600000000001,2.976399999999998,175,75
2026-05-07 18:28:00.096,3,-0.75,-1.14,0.38,-1.7882000000000016,1.8734000000000002,4.020399999999999,175,75
2026-05-07 18:28:00.096,2,0.73,1.22,0.3,-27.790200000000002,50.7902,5.2082000000000015,175,75
2026-05-07 18:28:00.100,5,-0.55,-0.21,1.09,0.7293999999999999,0.21060000000000034,-2.5998,175,75
2026-05-07 18:28:00.107,1,0.0,1.19,0.18,7.553599999999999,-4.2155999999999985,-1.9800000000000004,175,75
2026-05-07 18:28:00.107,4,-0.53,-0.26,1.45,-1.0987999999999998,1.031600000000001,2.2464000000000013,175,75
2026-05-07 18:28:00.107,2,0.74,1.17,0.37,-31.2602,60.300200000000004,2.4582000000000015,175,75
2026-05-07 18:28:00.118,5,-0.54,-0.21,1.07,0.5493999999999999,-10.549399999999999,-1.5398000000000003,175,75
2026-05-07 18:28:00.118,1,0.0,1.19,0.17,7.733599999999999,-4.3455999999999975,-1.7400000000000002,175,75
2026-05-07 18:28:00.118,4,-0.52,-0.27,1.45,-0.9088000000000003,0.06160000000000032,2.2464000000000013,175,75
2026-05-07 18:28:00.118,3,-0.86,-1.13,0.18,-8.4882,-16.0566,7.680400000000001,175,75
2026-05-07 18:28:00.118,2,0.73,1.15,0.42,-33.2102,64.6902,-0.34179999999999566,175,75
2026-05-07 18:28:00.122,5,-0.51,-0.22,1.04,1.0393999999999999,-19.9794,-1.9998000000000002,175,75
2026-05-07 18:28:00.122,4,-0.53,-0.29,1.45,-0.6688000000000001,-1.468399999999999,2.9163999999999994,175,75
2026-05-07 18:28:00.122,1,-0.0,1.17,0.17,8.2836,-4.765599999999999,-1.1900000000000004,175,75
2026-05-07 18:28:00.127,3,-0.94,-1.12,-0.02,-4.468200000000001,-7.396599999999999,1.8203999999999994,175,75
2026-05-07 18:28:00.140,2,0.75,1.14,0.49,-32.8502,65.7902,-2.661799999999996,175,75
2026-05-07 18:28:00.140,1,-0.0,1.15,0.17,8.163599999999999,-5.015599999999999,-0.5800000000000001,175,75
2026-05-07 18:28:00.140,4,-0.52,-0.31,1.43,-1.5788000000000002,-2.808399999999999,2.1163999999999987,175,75
2026-05-07 18:28:00.140,5,-0.4,-0.22,0.97,2.7494,-30.069399999999998,-1.8298000000000003,175,75
2026-05-07 18:28:00.140,3,-0.86,-1.1,0.06,0.9618000000000002,18.5134,2.0703999999999994,175,75
2026-05-07 18:28:00.151,2,0.74,1.14,0.53,-32.8502,54.940200000000004,-3.821799999999996,175,75
2026-05-07 18:28:00.151,5,-0.35,-0.22,0.93,3.3794,-29.7694,-1.4398000000000002,175,75
2026-05-07 18:28:00.162,2,0.73,1.15,0.56,-34.0702,37.0102,-5.771799999999999,175,75
2026-05-07 18:28:00.162,1,-0.01,1.13,0.17,8.343599999999999,-3.7956000000000003,0.3299999999999996,175,75
2026-05-07 18:28:00.162,3,-0.81,-1.14,0.29,1.9917999999999978,14.613400000000002,0.3003999999999998,175,75
2026-05-07 18:28:00.162,4,-0.47,-0.28,1.39,-0.17879999999999985,-3.5984,1.936399999999999,175,75
2026-05-07 18:28:00.162,5,-0.31,-0.22,0.91,3.4794,-25.5494,-2.1498000000000004,175,75
2026-05-07 18:28:00.172,3,-0.83,-1.14,0.25,0.2917999999999985,-9.8966,-7.1996,175,75
2026-05-07 18:28:00.172,5,-0.28,-0.2,0.88,3.6594,-18.2894,-4.6298,175,75
2026-05-07 18:28:00.172,2,0.66,1.21,0.49,-37.4202,-13.479800000000001,-8.151799999999998,175,75
2026-05-07 18:28:00.172,1,-0.0,1.13,0.18,8.163599999999999,-3.1255999999999986,1.3099999999999996,175,75
2026-05-07 18:28:00.184,3,-0.81,-1.12,0.13,-1.1182000000000016,-5.076599999999999,0.9703999999999997,175,75
2026-05-07 18:28:00.184,5,-0.25,-0.19,0.87,3.7094,-7.8694,-7.6698,175,75
2026-05-07 18:28:00.184,2,0.58,1.22,0.47,-36.0202,-10.489799999999999,-6.381799999999998,175,75
2026-05-07 18:28:00.184,4,-0.47,-0.33,1.44,1.1612,-0.5483999999999991,1.3263999999999996,175,75
2026-05-07 18:28:00.184,1,-0.01,1.12,0.19,8.0336,-3.2455999999999996,1.7999999999999994,175,75
2026-05-07 18:28:00.197,4,-0.48,-0.31,1.42,-0.1187999999999998,-0.6083999999999996,-0.2535999999999987,175,75
2026-05-07 18:28:00.197,1,-0.01,1.12,0.19,7.363599999999999,-3.605599999999999,2.6499999999999995,175,75
2026-05-07 18:28:00.208,5,-0.24,-0.18,0.88,2.2694,16.6606,-10.059800000000001,175,75
2026-05-07 18:28:00.208,2,0.54,1.19,0.44,-31.0802,21.0302,-2.1717999999999975,175,75
2026-05-07 18:28:00.208,1,-0.01,1.11,0.19,6.813599999999999,-3.1855999999999973,2.59,175,75
2026-05-07 18:28:00.208,3,-0.75,-1.12,0.31,-1.2982000000000014,-5.6266,-5.739600000000001,175,75
2026-05-07 18:28:00.208,5,-0.27,-0.17,0.89,1.1794,25.660600000000002,-9.1898,175,75
2026-05-07 18:28:00.221,2,0.53,1.17,0.49,-31.5102,31.2202,1.6082000000000036,175,75
2026-05-07 18:28:00.221,4,-0.5,-0.29,1.4,2.2012,-0.7983999999999991,0.22639999999999816,175,75
2026-05-07 18:28:00.221,1,-0.02,1.12,0.18,5.723599999999999,-2.8755999999999986,2.4699999999999998,175,75
2026-05-07 18:28:00.221,5,-0.32,-0.18,0.91,0.7593999999999999,30.9706,-8.2798,175,75
2026-05-07 18:28:00.221,3,-0.79,-1.1,0.26,-3.6182000000000016,-9.166599999999999,2.4903999999999993,175,75
2026-05-07 18:28:00.221,2,0.5,1.17,0.55,-30.470200000000002,38.5302,3.498200000000004,175,75
2026-05-07 18:28:00.237,5,-0.36,-0.18,0.94,0.7593999999999999,34.0206,-7.889800000000001,175,75
2026-05-07 18:28:00.237,3,-0.85,-1.11,0.2,-2.148200000000001,-4.656599999999999,-1.7696000000000005,175,75
2026-05-07 18:28:00.237,4,-0.51,-0.28,1.43,0.9812000000000003,-3.4783999999999997,0.7164000000000001,175,75
2026-05-07 18:28:00.237,1,-0.02,1.12,0.17,5.663599999999999,-2.7555999999999976,1.7999999999999994,175,75
2026-05-07 18:28:00.237,4,-0.51,-0.26,1.41,0.0011999999999998678,-5.4284,1.2664000000000009,175,75
2026-05-07 18:28:00.248,2,0.56,1.17,0.57,-30.2302,30.8502,5.388200000000001,175,75
2026-05-07 18:28:00.248,1,-0.01,1.13,0.19,5.173599999999999,-2.265599999999999,1.6799999999999997,175,75
2026-05-07 18:28:00.248,3,-0.8,-1.07,0.21,-2.3382000000000005,2.663400000000001,1.6403999999999996,175,75
2026-05-07 18:28:00.248,4,-0.5,-0.26,1.41,-0.29879999999999995,-5.128399999999999,1.816399999999998,175,75
2026-05-07 18:28:00.248,2,0.6,1.19,0.55,-32.3602,0.9701999999999984,5.998200000000004,175,75
2026-05-07 18:28:00.248,5,-0.43,-0.18,1.02,0.8193999999999999,32.550599999999996,-8.0398,175,75
2026-05-07 18:28:00.256,3,-0.83,-1.1,0.21,-3.308200000000001,6.8134000000000015,4.080399999999999,175,75
2026-05-07 18:28:00.256,4,-0.47,-0.26,1.42,0.12119999999999997,-3.298399999999999,2.3663999999999987,175,75
2026-05-07 18:28:00.268,5,-0.47,-0.17,1.05,0.9594,27.390600000000003,-7.809800000000001,175,75
2026-05-07 18:28:00.268,1,-0.01,1.13,0.17,3.6435999999999993,-3.365599999999997,0.4599999999999995,175,75
2026-05-07 18:28:00.268,3,-0.82,-1.13,0.21,-1.9082000000000008,9.6734,0.6003999999999987,175,75
2026-05-07 18:28:00.268,4,-0.44,-0.26,1.42,0.6112000000000002,-1.7083999999999993,2.176400000000001,175,75
2026-05-07 18:28:00.268,5,-0.5,-0.18,1.05,2.1594,19.5206,-6.9998000000000005,175,75
2026-05-07 18:28:00.279,2,0.53,1.17,0.41,-31.0202,-2.009800000000002,5.388200000000001,175,75
2026-05-07 18:28:00.279,5,-0.54,-0.19,1.02,3.7394000000000003,9.380600000000001,-4.569800000000001,175,75
2026-05-07 18:28:00.279,2,0.53,1.18,0.35,-29.2502,17.310200000000002,4.718200000000003,175,75
2026-05-07 18:28:00.299,5,-0.56,-0.2,0.98,4.7394,-1.2694,-2.5798,175,75
2026-05-07 18:28:00.299,4,-0.43,-0.29,1.38,2.9912,5.121600000000001,0.47639999999999816,175,75
2026-05-07 18:28:00.299,1,-0.03,1.11,0.16,4.1335999999999995,-1.4756,-0.5800000000000001,175,75
2026-05-07 18:28:00.299,2,0.56,1.19,0.39,-28.0302,62.190200000000004,4.108200000000004,175,75
2026-05-07 18:28:00.309,3,-0.82,-1.15,0.24,-2.638200000000001,7.053400000000001,2.3103999999999996,175,75
2026-05-07 18:28:00.309,5,-0.54,-0.21,0.97,4.7894,-12.6494,1.4001999999999994,175,75
2026-05-07 18:28:00.309,4,-0.44,-0.29,1.4,5.0012,8.471599999999999,0.22639999999999816,175,75
2026-05-07 18:28:00.309,1,-0.04,1.11,0.16,4.683599999999998,0.23440000000000083,-0.21000000000000085,175,75
2026-05-07 18:28:00.309,2,0.62,1.16,0.48,-26.5102,91.5202,3.3182000000000045,175,75
2026-05-07 18:28:00.309,5,-0.47,-0.21,0.96,4.2993999999999994,-21.2994,7.0402000000000005,175,75
2026-05-07 18:28:00.324,1,-0.04,1.12,0.17,5.173599999999999,1.9344000000000001,-0.03000000000000025,175,75
2026-05-07 18:28:00.324,2,0.66,1.15,0.59,-25.160200000000003,96.4602,2.888200000000001,175,75
2026-05-07 18:28:00.324,4,-0.49,-0.3,1.46,10.4312,13.471599999999999,-1.1736000000000004,175,75
2026-05-07 18:28:00.339,3,-0.81,-1.13,0.21,-2.818200000000001,3.5734000000000012,4.690399999999999,175,75
2026-05-07 18:28:00.340,2,0.72,1.15,0.64,-24.6802,77.0102,0.6282000000000032,175,75
2026-05-07 18:28:00.340,1,-0.04,1.15,0.2,3.8935999999999993,2.974400000000003,0.02999999999999936,175,75
2026-05-07 18:28:00.340,5,-0.3,-0.17,0.94,0.9793999999999998,-20.589399999999998,8.1302,175,75
2026-05-07 18:28:00.340,2,0.71,1.16,0.66,-25.3502,46.580200000000005,-0.9517999999999986,175,75
2026-05-07 18:28:00.352,4,-0.48,-0.26,1.47,16.2812,19.2616,-2.273600000000002,175,75
2026-05-07 18:28:00.352,3,-0.83,-1.12,0.18,-2.0882000000000005,2.3534000000000006,4.930399999999999,175,75
2026-05-07 18:28:00.352,1,-0.04,1.15,0.18,3.403599999999999,2.484400000000001,0.08999999999999986,175,75
2026-05-07 18:28:00.352,5,-0.24,-0.18,0.91,-0.7706000000000002,-13.1694,5.2402,175,75
2026-05-07 18:28:00.352,2,0.68,1.18,0.64,-24.6802,16.0302,-3.6317999999999984,175,75
2026-05-07 18:28:00.363,3,-0.83,-1.13,0.17,-1.2382000000000009,2.963400000000001,4.1404,175,75
2026-05-07 18:28:00.363,5,-0.19,-0.2,0.89,-1.7306000000000001,-2.6593999999999998,6.100200000000001,175,75
2026-05-07 18:28:00.363,1,-0.03,1.15,0.19,3.6435999999999993,2.794400000000003,0.02999999999999936,175,75
2026-05-07 18:28:00.365,4,-0.45,-0.25,1.46,19.1512,30.9716,-2.0836000000000006,175,75
2026-05-07 18:28:00.380,1,-0.03,1.15,0.17,2.913599999999999,2.3644,-0.40000000000000036,175,75
2026-05-07 18:28:00.380,4,-0.42,-0.26,1.47,21.1612,38.351600000000005,-1.7835999999999999,175,75
2026-05-07 18:28:00.380,3,-0.81,-1.11,0.18,2.3018,5.223400000000001,3.3503999999999987,175,75
2026-05-07 18:28:00.380,5,-0.19,-0.25,0.87,-2.0206,30.2006,10.5302,175,75
2026-05-07 18:28:00.391,4,-0.39,-0.26,1.49,24.2712,48.1716,-2.023600000000002,175,75
2026-05-07 18:28:00.392,1,-0.03,1.15,0.17,2.9735999999999994,2.424400000000002,0.08999999999999986,175,75
2026-05-07 18:28:00.392,5,-0.23,-0.26,0.88,-0.21060000000000006,45.5806,9.6402,175,75
2026-05-07 18:28:00.392,2,0.57,1.22,0.45,-18.950200000000002,25.7902,-11.8718,175,75
2026-05-07 18:28:00.402,1,-0.03,1.16,0.15,3.8935999999999993,2.424400000000002,0.6999999999999997,175,75
2026-05-07 18:28:00.402,4,-0.38,-0.29,1.49,27.0812,59.1416,-2.6336000000000013,175,75
2026-05-07 18:28:00.402,3,-0.85,-1.14,0.15,3.271799999999999,4.553400000000001,4.320399999999999,175,75
2026-05-07 18:28:00.402,5,-0.28,-0.26,0.91,1.5293999999999999,58.550599999999996,5.260199999999999,175,75
2026-05-07 18:28:00.402,2,0.57,1.22,0.46,-16.450200000000002,46.580200000000005,-13.761799999999994,175,75
2026-05-07 18:28:00.402,1,-0.03,1.15,0.15,5.533599999999999,3.5844000000000023,0.6399999999999997,175,75
2026-05-07 18:28:00.405,3,-0.84,-1.14,0.18,5.5318000000000005,7.1134,2.6203999999999983,175,75
2026-05-07 18:28:00.419,5,-0.33,-0.25,0.95,2.2694,69.6106,-2.7298000000000004,175,75
2026-05-07 18:28:00.419,2,0.64,1.23,0.51,-14.3702,52.1302,-17.4818,175,75
2026-05-07 18:28:00.419,4,-0.36,-0.32,1.51,33.0512,80.3016,-5.1936,175,75
2026-05-07 18:28:00.419,1,-0.02,1.15,0.16,6.573599999999999,3.5844000000000023,1.3699999999999997,175,75
2026-05-07 18:28:00.419,5,-0.38,-0.23,1.0,2.5194,77.3906,-13.0998,175,75
2026-05-07 18:28:00.423,2,0.65,1.28,0.56,-13.090200000000001,37.800200000000004,-20.3418,175,75
2026-05-07 18:28:00.430,5,-0.45,-0.2,1.05,1.5293999999999999,80.1306,-25.219800000000003,175,75
2026-05-07 18:28:00.447,4,-0.39,-0.29,1.52,38.0512,85.24159999999999,-5.803599999999999,175,75
2026-05-07 18:28:00.447,4,-0.46,-0.27,1.52,39.3912,85.1216,-5.133600000000001,175,75
2026-05-07 18:28:00.447,3,-0.83,-1.15,0.27,5.841799999999999,4.7334000000000005,-0.1296000000000017,175,75
2026-05-07 18:28:00.447,2,0.63,1.33,0.56,-12.3002,15.9702,-24.611799999999995,175,75
2026-05-07 18:28:00.456,5,-0.59,-0.15,1.1,-2.5406,69.1806,-47.1698,175,75
2026-05-07 18:28:00.456,2,0.63,1.33,0.53,-13.4602,9.450199999999999,-26.4418,175,75
2026-05-07 18:28:00.462,1,-0.0,1.13,0.16,10.5336,6.084400000000002,1.3099999999999996,175,75
2026-05-07 18:28:00.465,3,-0.86,-1.11,0.21,4.8018,0.043400000000000105,-0.9796000000000014,175,75
2026-05-07 18:28:00.474,5,-0.69,-0.17,1.09,-3.7605999999999997,42.5606,-42.8598,175,75
2026-05-07 18:28:00.474,2,0.62,1.34,0.49,-12.6602,12.0702,-27.601799999999997,175,75
2026-05-07 18:28:00.488,5,-0.71,-0.16,1.09,-2.9506,25.0806,-37.5098,175,75
2026-05-07 18:28:00.488,3,-0.85,-1.12,0.22,4.251799999999999,-0.5065999999999988,-1.959600000000001,175,75
2026-05-07 18:28:00.488,2,0.59,1.34,0.5,-10.2902,25.4902,-26.501799999999996,175,75
2026-05-07 18:28:00.488,4,-0.56,-0.29,1.65,29.821199999999997,71.3416,-0.073599999999999,175,75
2026-05-07 18:28:00.488,1,0.01,1.1,0.16,9.0136,2.734400000000001,-1.0100000000000007,175,75
2026-05-07 18:28:00.488,3,-0.84,-1.12,0.23,4.491799999999998,-0.2665999999999986,-2.8096000000000005,175,75
2026-05-07 18:28:00.499,5,-0.74,-0.17,1.08,-1.9806000000000001,1.4006000000000003,-20.2698,175,75
2026-05-07 18:28:00.500,1,0.01,1.1,0.17,9.073599999999999,1.7544000000000004,-1.3100000000000005,175,75
2026-05-07 18:28:00.500,4,-0.52,-0.24,1.72,29.211199999999998,79.0816,6.086399999999999,175,75
2026-05-07 18:28:00.500,3,-0.83,-1.12,0.22,4.5518,-0.8765999999999998,-3.9696000000000007,175,75
2026-05-07 18:28:00.500,5,-0.73,-0.18,1.06,0.13939999999999994,-21.819399999999998,-4.2598,175,75
2026-05-07 18:28:00.514,1,0.01,1.1,0.17,7.243599999999999,1.144400000000001,-1.8000000000000007,175,75
2026-05-07 18:28:00.514,5,-0.69,-0.17,1.04,2.7194000000000003,-42.6694,9.6602,175,75
2026-05-07 18:28:00.514,4,-0.61,-0.12,1.84,34.7612,94.5116,19.3764,175,75
2026-05-07 18:28:00.514,3,-0.85,-1.1,0.21,4.431799999999999,2.423400000000001,-5.369600000000001,175,75
2026-05-07 18:28:00.514,2,0.67,1.36,0.58,-5.7102,38.3502,-19.851799999999997,175,75
2026-05-07 18:28:00.528,5,-0.6,-0.17,1.01,3.6594,-59.7894,21.690199999999997,175,75
2026-05-07 18:28:00.528,3,-0.84,-1.09,0.23,4.0718,4.313400000000001,-4.819600000000001,175,75
2026-05-07 18:28:00.528,4,-0.62,-0.13,1.97,45.3112,95.5416,29.0664,175,75
2026-05-07 18:28:00.528,1,0.01,1.09,0.15,5.603599999999999,0.8444000000000003,-2.170000000000001,175,75
2026-05-07 18:28:00.528,2,0.66,1.35,0.6,-4.1302,33.1702,-15.401799999999994,175,75
2026-05-07 18:28:00.538,5,-0.49,-0.17,0.97,3.4494000000000002,-71.4994,30.6802,175,75
2026-05-07 18:28:00.538,4,-0.72,-0.13,2.01,48.721199999999996,99.1416,41.2064,175,75
2026-05-07 18:28:00.538,5,-0.41,-0.16,0.95,2.8994,-76.6794,34.0602,175,75
2026-05-07 18:28:00.549,2,0.64,1.32,0.61,-3.520200000000001,30.0602,-11.681799999999996,175,75
2026-05-07 18:28:00.549,3,-0.85,-1.15,0.21,2.6017999999999972,-0.8765999999999998,-4.2696000000000005,175,75
2026-05-07 18:28:00.549,4,-0.76,-0.1,1.99,48.4812,110.7316,51.996399999999994,175,75
2026-05-07 18:28:00.549,1,-0.01,1.09,0.18,4.313599999999999,1.9344000000000001,-1.4300000000000006,175,75
2026-05-07 18:28:00.563,3,-0.82,-1.14,0.23,2.6017999999999972,3.883400000000001,-5.3096000000000005,175,75
2026-05-07 18:28:00.563,4,-0.74,-0.11,1.95,48.3612,114.2616,61.386399999999995,175,75
2026-05-07 18:28:00.563,5,-0.21,-0.15,0.88,0.14939999999999992,-69.34939999999999,29.620199999999997,175,75
2026-05-07 18:28:00.563,2,0.66,1.31,0.63,-2.2402000000000015,33.2902,-4.061799999999998,175,75
2026-05-07 18:28:00.569,3,-0.78,-1.15,0.32,-0.3182000000000009,0.46340000000000003,-2.319600000000001,175,75
2026-05-07 18:28:00.569,1,-0.01,1.08,0.18,1.9435999999999982,0.7844000000000015,-1.25,175,75
2026-05-07 18:28:00.579,4,-0.81,-0.04,1.87,40.6712,111.3416,66.8764,175,75
2026-05-07 18:28:00.579,2,0.68,1.29,0.64,-0.7702000000000009,32.0102,-1.441799999999997,175,75
2026-05-07 18:28:00.579,1,-0.02,1.09,0.17,1.6935999999999982,1.264400000000002,-1.4300000000000006,175,75
2026-05-07 18:28:00.584,3,-0.81,-1.11,0.25,-2.2082000000000015,-9.226599999999998,-2.749600000000001,175,75
2026-05-07 18:28:00.584,4,-0.97,0.1,1.86,41.7712,104.5116,77.5464,175,75
2026-05-07 18:28:00.597,5,-0.05,-0.17,0.81,-3.0806,-13.869399999999999,16.400199999999998,175,75
2026-05-07 18:28:00.597,1,-0.02,1.09,0.18,1.2735999999999983,2.1844,-1.25,175,75
2026-05-07 18:28:00.597,3,-0.81,-1.11,0.18,-2.8782000000000014,-5.566599999999999,-0.7996000000000016,175,75
2026-05-07 18:28:00.597,2,0.7,1.28,0.65,0.19979999999999976,21.0302,-0.22179999999999822,175,75
2026-05-07 18:28:00.597,4,-1.01,0.16,2.07,45.1912,91.5816,97.2364,175,75
2026-05-07 18:28:00.611,1,-0.01,1.09,0.17,0.9035999999999991,1.7544000000000004,-1.1300000000000008,175,75
2026-05-07 18:28:00.612,4,-0.99,0.07,2.11,52.2012,46.461600000000004,100.16640000000001,175,75
2026-05-07 18:28:00.624,1,-0.02,1.09,0.18,0.17359999999999864,1.634400000000003,-1.5600000000000005,175,75
2026-05-07 18:28:00.624,2,0.71,1.27,0.62,-0.5902000000000012,12.5002,-0.28179999999999694,175,75
2026-05-07 18:28:00.624,4,-0.92,-0.04,2.15,59.5812,-0.5483999999999991,89.6764,175,75
2026-05-07 18:28:00.627,1,-0.02,1.1,0.16,-0.4364000000000008,0.3544000000000018,-1.8600000000000003,175,75
2026-05-07 18:28:00.643,1,-0.01,1.11,0.14,-0.07640000000000136,1.3244000000000007,-2.41,175,75
2026-05-07 18:28:00.643,5,-0.35,-0.19,0.96,-2.1906,89.34060000000001,-15.0198,175,75
2026-05-07 18:28:00.643,3,-0.81,-1.12,0.24,-7.4582000000000015,-3.3165999999999993,1.9503999999999984,175,75
2026-05-07 18:28:00.643,2,0.7,1.25,0.59,0.13979999999999926,18.7802,0.08820000000000405,175,75
2026-05-07 18:28:00.655,1,-0.01,1.11,0.15,0.29359999999999964,1.9344000000000001,-2.6500000000000004,175,75
2026-05-07 18:28:00.655,3,-0.82,-1.13,0.17,-6.5982,1.1434000000000015,1.5803999999999991,175,75
2026-05-07 18:28:00.655,5,-0.44,-0.18,1.03,-3.1006,88.6306,-16.7298,175,75
2026-05-07 18:28:00.655,2,0.71,1.24,0.58,-0.5902000000000012,20.1202,0.5682000000000045,175,75
2026-05-07 18:28:00.655,4,-0.53,-0.2,2.41,105.00120000000001,-177.86839999999998,48.3964,175,75
2026-05-07 18:28:00.662,5,-0.53,-0.18,1.08,-3.5305999999999997,80.7506,-17.099800000000002,175,75
2026-05-07 18:28:00.662,3,-0.8,-1.11,0.2,-7.028200000000002,5.653400000000001,2.8603999999999985,175,75
2026-05-07 18:28:00.676,1,-0.01,1.12,0.16,1.3335999999999988,1.8744000000000014,-4.85,175,75
2026-05-07 18:28:00.676,3,-0.8,-1.12,0.26,-6.238200000000001,4.793400000000001,3.4703999999999997,175,75
2026-05-07 18:28:00.676,2,0.69,1.23,0.58,-2.600200000000001,24.330199999999998,3.438200000000002,175,75
2026-05-07 18:28:00.676,4,-0.36,-0.55,2.07,133.5412,-306.76840000000004,-22.3336,175,75
2026-05-07 18:28:00.688,5,-0.71,-0.22,1.1,-2.3706,52.0106,-18.4298,175,75
2026-05-07 18:28:00.688,1,-0.02,1.12,0.15,1.6935999999999982,2.3644,-5.09,175,75
2026-05-07 18:28:00.688,3,-0.82,-1.14,0.27,-7.948200000000002,1.6834000000000007,1.8803999999999998,175,75
2026-05-07 18:28:00.688,4,-0.45,-0.51,1.85,131.0412,-360.9784,-44.7736,175,75
2026-05-07 18:28:00.688,2,0.7,1.23,0.57,-3.8202000000000007,28.6002,6.238200000000003,175,75
2026-05-07 18:28:00.698,5,-0.78,-0.24,1.09,-0.7606000000000002,31.320600000000002,-14.5998,175,75
2026-05-07 18:28:00.698,1,-0.02,1.13,0.16,2.0035999999999987,2.0644000000000027,-5.210000000000001,175,75
2026-05-07 18:28:00.698,3,-0.78,-1.14,0.26,-7.818200000000001,0.7734000000000005,2.1304,175,75
2026-05-07 18:28:00.701,4,-0.6,-0.4,1.63,131.1612,-343.71840000000003,-55.9936,175,75
2026-05-07 18:28:00.714,2,0.72,1.23,0.57,-4.9202,27.9202,8.008200000000002,175,75
2026-05-07 18:28:00.714,2,0.74,1.23,0.56,-5.9602,26.400199999999998,10.328200000000002,175,75
2026-05-07 18:28:00.714,3,-0.84,-1.12,0.2,-9.5882,-2.2165999999999997,3.3503999999999987,175,75
2026-05-07 18:28:00.714,5,-0.78,-0.22,1.06,4.2294,-20.1294,-0.4498000000000002,175,75
2026-05-07 18:28:00.714,4,-0.52,-0.33,1.48,119.64120000000001,-282.4384,-55.2636,175,75
2026-05-07 18:28:00.725,1,-0.01,1.12,0.15,3.3435999999999986,5.174400000000002,-4.48,175,75
2026-05-07 18:28:00.725,2,0.72,1.23,0.58,-6.6302,29.5102,13.008200000000002,175,75
2026-05-07 18:28:00.725,3,-0.84,-1.11,0.15,-7.2682,5.7734000000000005,2.1903999999999986,175,75
2026-05-07 18:28:00.725,4,-0.24,-0.36,1.29,95.3112,-227.6284,-58.7936,175,75
2026-05-07 18:28:00.733,5,-0.59,-0.19,1.02,2.9994,-56.479400000000005,9.9102,175,75
2026-05-07 18:28:00.733,3,-0.78,-1.15,0.22,-5.748200000000001,5.403400000000001,2.4903999999999993,175,75
2026-05-07 18:28:00.733,2,0.74,1.23,0.6,-7.4202,31.580199999999998,14.838200000000004,175,75
2026-05-07 18:28:00.746,5,-0.46,-0.19,0.99,1.8194,-62.5294,14.500200000000001,175,75
2026-05-07 18:28:00.746,2,0.76,1.25,0.62,-8.760200000000001,26.3402,16.308200000000003,175,75
2026-05-07 18:28:00.746,3,-0.82,-1.16,0.21,-5.868200000000002,2.543400000000001,3.3503999999999987,175,75
2026-05-07 18:28:00.746,1,-0.02,1.13,0.19,3.2235999999999994,5.964400000000001,-3.380000000000001,175,75
2026-05-07 18:28:00.746,4,0.01,-0.45,1.05,73.6012,-196.1584,-87.1536,175,75
2026-05-07 18:28:00.758,5,-0.35,-0.19,0.95,0.6894,-60.42940000000001,20.080199999999998,175,75
2026-05-07 18:28:00.758,2,0.76,1.24,0.63,-10.2902,14.7502,16.308200000000003,175,75
2026-05-07 18:28:00.772,2,0.72,1.22,0.61,-11.6302,5.240199999999998,14.288200000000003,175,75
2026-05-07 18:28:00.772,3,-0.82,-1.13,0.18,-3.9182000000000006,0.5934000000000008,1.1503999999999994,175,75
2026-05-07 18:28:00.772,4,0.18,-0.45,1.08,50.3712,-116.28840000000001,-111.7836,175,75
2026-05-07 18:28:00.772,1,-0.02,1.12,0.17,2.063599999999999,4.564400000000001,-2.8400000000000007,175,75
2026-05-07 18:28:00.781,3,-0.83,-1.11,0.17,-4.038200000000002,1.5634000000000015,1.5803999999999991,175,75
2026-05-07 18:28:00.781,5,-0.19,-0.22,0.88,0.07939999999999994,-17.4694,28.3902,175,75
2026-05-07 18:28:00.781,4,0.21,-0.45,1.16,24.5112,-92.6284,-128.1236,175,75
2026-05-07 18:28:00.796,3,-0.84,-1.11,0.18,-2.638200000000001,3.2734000000000005,1.6403999999999996,175,75
2026-05-07 18:28:00.796,2,0.65,1.22,0.54,-11.260200000000001,5.670200000000001,10.388200000000003,175,75
2026-05-07 18:28:00.796,1,-0.01,1.1,0.17,1.7535999999999987,4.374400000000001,-2.9000000000000004,175,75
2026-05-07 18:28:00.808,5,-0.27,-0.23,0.87,-1.3906,25.9906,5.8802,175,75
2026-05-07 18:28:00.808,3,-0.8,-1.12,0.19,-2.2082000000000015,-1.8465999999999987,2.010399999999999,175,75
2026-05-07 18:28:00.808,5,-0.33,-0.26,0.87,0.38939999999999997,43.730599999999995,-7.719800000000001,175,75
2026-05-07 18:28:00.826,1,-0.0,1.1,0.15,1.8135999999999992,1.8144000000000027,-2.4700000000000006,175,75
2026-05-07 18:28:00.826,2,0.63,1.21,0.52,-14.3702,17.560200000000002,5.3282000000000025,175,75
2026-05-07 18:28:00.826,5,-0.39,-0.25,0.91,3.2494,54.8306,-20.2098,175,75
2026-05-07 18:28:00.826,2,0.63,1.24,0.54,-15.350200000000001,18.0502,2.8282000000000025,175,75
2026-05-07 18:28:00.826,1,0.0,1.09,0.14,2.243599999999999,2.604400000000002,-2.29,175,75
2026-05-07 18:28:00.826,4,0.15,-0.37,1.33,-35.9688,-106.5284,-186.5436,175,75
2026-05-07 18:28:00.839,3,-0.84,-1.13,0.19,0.5917999999999992,0.8934000000000015,1.8803999999999998,175,75
2026-05-07 18:28:00.839,2,0.63,1.27,0.55,-16.1402,18.5302,0.5082000000000022,175,75
2026-05-07 18:28:00.839,1,-0.01,1.1,0.15,3.3435999999999986,3.5244000000000018,-1.25,175,75
2026-05-07 18:28:00.852,2,0.65,1.28,0.56,-16.7502,14.7502,-2.721799999999998,175,75
2026-05-07 18:28:00.852,5,-0.53,-0.18,1.04,5.969399999999999,48.4906,-40.5098,175,75
2026-05-07 18:28:00.852,4,0.04,-0.34,1.26,-67.7388,-90.9184,-194.71359999999999,175,75
2026-05-07 18:28:00.863,1,0.0,1.1,0.13,4.923599999999999,5.044400000000001,-1.3100000000000005,175,75
2026-05-07 18:28:00.863,2,0.64,1.27,0.56,-18.1502,4.020199999999999,-5.161799999999996,175,75
2026-05-07 18:28:00.863,1,0.03,1.09,0.15,4.923599999999999,4.744400000000001,-0.7600000000000007,175,75
2026-05-07 18:28:00.863,4,0.02,-0.29,1.29,-80.66879999999999,-69.8784,-191.3536,175,75
2026-05-07 18:28:00.863,2,0.62,1.27,0.56,-17.7302,0.5502000000000002,-6.441799999999997,175,75
2026-05-07 18:28:00.875,1,0.02,1.08,0.15,4.683599999999998,5.044400000000001,-1.0100000000000007,175,75
2026-05-07 18:28:00.875,5,-0.61,-0.15,1.06,4.9094,24.3706,-41.3798,175,75
2026-05-07 18:28:00.875,3,-0.86,-1.13,0.14,-0.5682000000000009,-0.5065999999999988,4.320399999999999,175,75
2026-05-07 18:28:00.875,4,0.01,-0.24,1.35,-92.91879999999999,-46.7084,-184.7736,175,75
2026-05-07 18:28:00.875,2,0.62,1.3,0.53,-16.8702,1.8302000000000014,-7.601799999999997,175,75
2026-05-07 18:28:00.898,5,-0.62,-0.15,1.01,7.429399999999999,-7.7594,-27.899800000000003,175,75
2026-05-07 18:28:00.898,1,0.01,1.08,0.18,3.1035999999999984,2.604400000000002,-0.34000000000000075,175,75
2026-05-07 18:28:00.898,3,-0.83,-1.1,0.23,0.4717999999999982,-0.5665999999999993,2.4903999999999993,175,75
2026-05-07 18:28:00.898,4,-0.02,-0.24,1.43,-106.21879999999999,-20.2484,-172.15359999999998,175,75
2026-05-07 18:28:00.898,5,-0.59,-0.14,1.0,8.3694,-22.7894,-16.829800000000002,175,75
2026-05-07 18:28:00.911,3,-0.84,-1.1,0.2,-0.37819999999999965,-3.256599999999999,3.0404,175,75
2026-05-07 18:28:00.911,2,0.64,1.29,0.55,-10.590200000000001,23.5302,-6.321799999999996,175,75
2026-05-07 18:28:00.911,4,-0.05,-0.23,1.45,-112.24879999999999,-5.128399999999999,-163.2436,175,75
2026-05-07 18:28:00.923,1,0.01,1.07,0.17,1.6335999999999995,2.304400000000001,0.20999999999999996,175,75
2026-05-07 18:28:00.923,2,0.65,1.28,0.57,-9.0702,23.2302,-4.061799999999998,175,75
2026-05-07 18:28:00.923,3,-0.86,-1.11,0.17,-0.07820000000000249,-3.006599999999999,2.1304,175,75
2026-05-07 18:28:00.923,5,-0.47,-0.12,0.97,6.6994,-43.159400000000005,1.9602,175,75
2026-05-07 18:28:00.923,4,-0.05,-0.21,1.52,-114.0188,14.631599999999999,-154.1036,175,75
2026-05-07 18:28:00.923,2,0.66,1.28,0.6,-9.010200000000001,19.1402,-2.9617999999999967,175,75
2026-05-07 18:28:00.932,1,0.02,1.07,0.15,1.3335999999999988,2.484400000000001,1.1299999999999994,175,75
2026-05-07 18:28:00.932,4,-0.01,-0.21,1.59,-114.0188,18.9616,-148.0036,175,75
2026-05-07 18:28:00.944,1,0.02,1.06,0.17,0.7235999999999994,2.734400000000001,1.9799999999999995,175,75
2026-05-07 18:28:00.944,4,-0.05,-0.21,1.63,-110.96879999999999,11.401600000000002,-143.8536,175,75
2026-05-07 18:28:00.959,5,-0.25,-0.14,0.9,3.3394,-34.559400000000004,17.150199999999998,175,75
2026-05-07 18:28:00.959,1,0.02,1.07,0.17,-0.19640000000000057,2.794400000000003,2.7099999999999995,175,75
2026-05-07 18:28:00.959,3,-0.84,-1.13,0.23,-0.7482000000000006,-3.9265999999999988,-0.18960000000000043,175,75
2026-05-07 18:28:00.959,2,0.66,1.23,0.58,-10.2902,7.5001999999999995,0.5682000000000045,175,75
2026-05-07 18:28:00.959,4,-0.06,-0.19,1.64,-105.9088,8.101600000000001,-140.0736,175,75
2026-05-07 18:28:00.959,2,0.64,1.22,0.55,-10.6502,5.5502,2.888200000000001,175,75
2026-05-07 18:28:00.971,1,0.01,1.08,0.17,-0.8064000000000018,2.1244000000000014,3.26,175,75
2026-05-07 18:28:00.971,4,-0.12,-0.15,1.62,-100.8488,5.4816,-131.96359999999999,175,75
2026-05-07 18:28:00.971,3,-0.8,-1.13,0.22,1.4418000000000006,4.493400000000001,-0.6796000000000006,175,75
2026-05-07 18:28:00.982,4,-0.15,-0.13,1.56,-95.96879999999999,8.101600000000001,-126.2936,175,75
2026-05-07 18:28:00.982,3,-0.79,-1.12,0.24,1.0817999999999977,-0.5065999999999988,0.060399999999999565,175,75
2026-05-07 18:28:01.000,1,0.01,1.08,0.16,-0.6864000000000008,2.0644000000000027,4.239999999999999,175,75
2026-05-07 18:28:01.000,2,0.62,1.18,0.58,-10.6502,25.4202,7.458200000000003,175,75
2026-05-07 18:28:01.000,1,0.01,1.09,0.15,-0.6164000000000005,2.0644000000000027,4.4799999999999995,175,75
2026-05-07 18:28:01.000,5,-0.32,-0.19,0.92,-1.7306000000000001,43.0706,-6.729800000000001,175,75
2026-05-07 18:28:01.000,4,-0.21,-0.12,1.47,-85.35879999999999,35.1216,-108.1836,175,75
2026-05-07 18:28:01.020,1,-0.01,1.09,0.15,-0.0064000000000010715,2.304400000000001,4.359999999999999,175,75
2026-05-07 18:28:01.020,4,-0.22,-0.12,1.47,-82.24879999999999,49.2016,-101.9636,175,75
2026-05-07 18:28:01.020,2,0.67,1.19,0.64,-6.810200000000001,25.6102,6.238200000000003,175,75
2026-05-07 18:28:01.020,5,-0.4,-0.19,1.01,-2.7306,55.2806,-15.4598,175,75
2026-05-07 18:28:01.020,1,-0.01,1.1,0.15,0.11359999999999815,2.484400000000001,4.18,175,75
2026-05-07 18:28:01.031,2,0.68,1.19,0.66,-5.230200000000001,21.9502,4.348200000000002,175,75
2026-05-07 18:28:01.031,5,-0.47,-0.19,1.05,-3.0206,53.550599999999996,-16.4598,175,75
2026-05-07 18:28:01.031,4,-0.2,-0.1,1.59,-72.3788,62.6216,-91.3536,175,75
2026-05-07 18:28:01.042,5,-0.53,-0.19,1.08,-2.8005999999999998,48.340599999999995,-17.2298,175,75
2026-05-07 18:28:01.042,1,-0.0,1.1,0.15,0.5335999999999999,2.484400000000001,4.3,175,75
2026-05-07 18:28:01.051,3,-0.81,-1.12,0.25,6.201799999999999,2.293400000000001,-0.6796000000000006,175,75
2026-05-07 18:28:01.053,3,-0.82,-1.14,0.24,4.6218,-4.406599999999999,-0.9196000000000009,175,75
2026-05-07 18:28:01.063,4,-0.18,-0.06,1.62,-50.4888,30.301599999999997,-86.47359999999999,175,75
2026-05-07 18:28:01.063,2,0.71,1.24,0.68,-1.7502000000000013,-5.669799999999999,-3.021799999999999,175,75
2026-05-07 18:28:01.073,5,-0.69,-0.2,1.06,1.4893999999999998,11.8706,-20.2698,175,75
2026-05-07 18:28:01.086,3,-0.84,-1.13,0.13,4.9217999999999975,-2.826599999999999,0.060399999999999565,175,75
2026-05-07 18:28:01.086,5,-0.68,-0.18,1.04,2.4994,-5.059399999999999,-19.239800000000002,175,75
2026-05-07 18:28:01.086,2,0.71,1.28,0.6,3.309799999999999,-33.2898,-9.851799999999997,175,75
2026-05-07 18:28:01.086,4,-0.28,-0.05,1.49,-33.2888,33.0416,-78.8536,175,75
2026-05-07 18:28:01.086,1,-0.0,1.11,0.16,1.3935999999999993,-0.01559999999999917,2.9599999999999995,175,75
2026-05-07 18:28:01.088,3,-0.85,-1.12,0.11,5.5318000000000005,-0.2665999999999986,1.4003999999999994,175,75
2026-05-07 18:28:01.094,4,-0.32,-0.01,1.49,-25.9088,47.4316,-73.36359999999999,175,75
2026-05-07 18:28:01.104,3,-0.86,-1.1,0.13,6.511799999999997,2.2334000000000005,2.250399999999999,175,75
2026-05-07 18:28:01.104,5,-0.54,-0.17,1.03,2.0194,-31.569399999999998,-12.2498,175,75
2026-05-07 18:28:01.104,1,-0.0,1.1,0.15,1.2735999999999983,-0.13560000000000016,2.8999999999999995,175,75
2026-05-07 18:28:01.104,4,-0.32,0.04,1.53,-19.5688,54.5116,-65.9336,175,75
2026-05-07 18:28:01.111,3,-0.84,-1.11,0.2,7.181799999999999,-0.8765999999999998,1.5203999999999986,175,75
2026-05-07 18:28:01.111,5,-0.46,-0.17,1.0,1.7793999999999999,-37.7894,-6.2198,175,75
2026-05-07 18:28:01.114,1,0.0,1.11,0.16,1.8135999999999992,-0.3755999999999986,2.8999999999999995,175,75
2026-05-07 18:28:01.125,5,-0.38,-0.17,0.98,1.7793999999999999,-38.979400000000005,-2.2198,175,75
2026-05-07 18:28:01.125,2,0.64,1.25,0.43,11.599799999999998,-21.649800000000003,-15.581799999999994,175,75
2026-05-07 18:28:01.125,1,0.01,1.1,0.14,1.3335999999999988,-0.19559999999999889,3.3799999999999994,175,75
2026-05-07 18:28:01.133,2,0.63,1.24,0.42,13.799799999999998,-2.809799999999999,-15.101799999999997,175,75
2026-05-07 18:28:01.133,4,-0.25,0.13,1.55,-9.018799999999999,52.9816,-55.623599999999996,175,75
2026-05-07 18:28:01.133,1,0.01,1.09,0.14,1.8835999999999995,0.8444000000000003,3.9899999999999993,175,75
2026-05-07 18:28:01.148,5,-0.3,-0.16,0.94,-0.5006000000000002,-29.079399999999996,-0.6998000000000002,175,75
2026-05-07 18:28:01.148,4,-0.27,0.2,1.56,-6.2787999999999995,49.02160000000001,-48.4936,175,75
2026-05-07 18:28:01.148,1,0.01,1.09,0.15,2.063599999999999,1.6944000000000017,4.4799999999999995,175,75
2026-05-07 18:28:01.148,3,-0.86,-1.11,0.21,7.7917999999999985,3.2734000000000005,1.8803999999999998,175,75
2026-05-07 18:28:01.148,5,-0.29,-0.15,0.92,-2.3406,-20.4694,-3.6798,175,75
2026-05-07 18:28:01.159,2,0.62,1.2,0.42,14.709799999999998,4.450199999999999,-14.431799999999996,175,75
2026-05-07 18:28:01.159,4,-0.24,0.3,1.58,-1.5788000000000002,42.4316,-38.5536,175,75
2026-05-07 18:28:01.159,1,0.02,1.09,0.16,2.063599999999999,1.634400000000003,5.3999999999999995,175,75
2026-05-07 18:28:01.159,5,-0.29,-0.15,0.9,-3.4705999999999997,-9.9194,-9.9998,175,75
2026-05-07 18:28:01.159,2,0.6,1.19,0.43,14.229800000000001,4.270199999999999,-13.881799999999998,175,75
2026-05-07 18:28:01.174,1,0.02,1.09,0.16,2.1235999999999997,1.514400000000002,5.3999999999999995,175,75
2026-05-07 18:28:01.174,3,-0.81,-1.14,0.28,6.381799999999998,-10.2666,0.8503999999999987,175,75
2026-05-07 18:28:01.174,4,-0.23,0.36,1.57,4.8212,27.131600000000002,-30.743599999999997,175,75
2026-05-07 18:28:01.174,1,0.02,1.09,0.16,2.243599999999999,1.5744000000000007,5.699999999999999,175,75
2026-05-07 18:28:01.185,3,-0.88,-1.1,0.19,5.841799999999999,-6.116599999999998,0.4803999999999995,175,75
2026-05-07 18:28:01.185,4,-0.24,0.38,1.55,10.6112,21.091600000000003,-24.2236,175,75
2026-05-07 18:28:01.185,5,-0.3,-0.14,0.91,-5.150600000000001,9.730599999999999,-20.3198,175,75
2026-05-07 18:28:01.185,1,0.02,1.08,0.16,1.573599999999999,1.144400000000001,5.76,175,75
2026-05-07 18:28:01.195,4,-0.24,0.39,1.51,15.4912,19.5716,-18.1236,175,75
2026-05-07 18:28:01.195,5,-0.32,-0.13,0.93,-5.5606,16.0206,-20.469800000000003,175,75
2026-05-07 18:28:01.195,2,0.63,1.18,0.42,8.0698,13.2302,-11.4418,175,75
2026-05-07 18:28:01.199,3,-0.83,-1.12,0.24,6.201799999999999,-3.0665999999999993,1.2104,175,75
2026-05-07 18:28:01.199,5,-0.35,-0.12,0.95,-6.150600000000001,19.6506,-17.7298,175,75
2026-05-07 18:28:01.214,2,0.63,1.17,0.43,6.659800000000001,25.9702,-11.681799999999996,175,75
2026-05-07 18:28:01.214,1,0.02,1.08,0.16,0.5335999999999999,1.2043999999999997,5.64,175,75
2026-05-07 18:28:01.214,3,-0.88,-1.12,0.18,6.441800000000001,-2.7665999999999986,-0.24960000000000093,175,75
2026-05-07 18:28:01.214,5,-0.37,-0.13,0.99,-6.8106,19.9106,-13.4998,175,75
2026-05-07 18:28:01.214,4,-0.25,0.46,1.45,19.1512,39.5116,-4.403600000000001,175,75
2026-05-07 18:28:01.228,5,-0.41,-0.12,1.0,-7.150600000000001,17.8006,-8.4998,175,75
2026-05-07 18:28:01.228,3,-0.85,-1.11,0.2,7.241799999999998,0.5334000000000003,-1.8996000000000013,175,75
2026-05-07 18:28:01.228,1,0.02,1.07,0.16,0.47359999999999935,1.2043999999999997,6.13,175,75
2026-05-07 18:28:01.228,4,-0.25,0.53,1.51,19.5812,49.321600000000004,6.756399999999999,175,75
2026-05-07 18:28:01.228,5,-0.43,-0.13,1.01,-7.110600000000001,14.3706,-4.819800000000001,175,75
2026-05-07 18:28:01.240,2,0.66,1.16,0.54,4.409799999999999,45.0002,-14.3018,175,75
2026-05-07 18:28:01.240,1,0.02,1.06,0.16,-0.07640000000000136,0.7144000000000013,5.52,175,75
2026-05-07 18:28:01.240,3,-0.83,-1.13,0.23,6.991799999999998,-1.4265999999999988,-1.2196000000000016,175,75
2026-05-07 18:28:01.240,4,-0.24,0.56,1.6,19.821199999999997,47.6816,15.1664,175,75
2026-05-07 18:28:01.248,3,-0.84,-1.13,0.24,5.9618,-3.7965999999999998,-2.079600000000001,175,75
2026-05-07 18:28:01.248,2,0.67,1.18,0.56,3.489799999999999,44.5102,-16.3818,175,75
2026-05-07 18:28:01.248,1,0.02,1.06,0.17,-0.926400000000001,-0.13560000000000016,5.09,175,75
2026-05-07 18:28:01.256,1,0.01,1.06,0.17,-2.5764000000000014,-1.5955999999999975,4.05,175,75
2026-05-07 18:28:01.270,2,0.68,1.2,0.63,2.399799999999999,28.4102,-20.281799999999997,175,75
2026-05-07 18:28:01.270,3,-0.86,-1.15,0.18,3.341799999999999,-17.2166,-6.829600000000001,175,75
2026-05-07 18:28:01.270,5,-0.43,-0.15,0.99,-6.530600000000001,-5.3394,2.6801999999999997,175,75
2026-05-07 18:28:01.280,1,0.02,1.07,0.15,-4.096400000000003,-2.0855999999999995,2.7699999999999996,175,75
2026-05-07 18:28:01.291,4,-0.06,0.54,1.58,17.5612,-31.7084,18.6464,175,75
2026-05-07 18:28:01.291,2,0.67,1.21,0.62,1.5998,9.810199999999998,-23.571799999999996,175,75
2026-05-07 18:28:01.291,3,-0.87,-1.09,0.14,5.841799999999999,-12.5166,-7.809600000000001,175,75
2026-05-07 18:28:01.291,5,-0.39,-0.17,0.98,-4.8906,-5.819399999999999,6.9602,175,75
2026-05-07 18:28:01.302,4,-0.08,0.57,1.52,16.8312,-20.5484,20.4164,175,75
2026-05-07 18:28:01.302,2,0.65,1.21,0.6,1.1798000000000002,4.510200000000001,-24.3018,175,75
2026-05-07 18:28:01.302,5,-0.38,-0.17,0.97,-4.4706,-4.909400000000001,8.430200000000001,175,75
2026-05-07 18:28:01.302,3,-0.84,-1.07,0.15,4.491799999999998,-8.066599999999998,-5.1896,175,75
2026-05-07 18:28:01.318,5,-0.37,-0.17,0.96,-3.9206,-3.4494,8.5702,175,75
2026-05-07 18:28:01.318,3,-0.84,-1.07,0.18,4.9217999999999975,-4.346599999999999,-0.6796000000000006,175,75
2026-05-07 18:28:01.318,1,0.02,1.07,0.16,-6.296400000000002,-1.355599999999999,0.6399999999999997,175,75
2026-05-07 18:28:01.318,2,0.62,1.25,0.56,-0.23019999999999996,4.3902,-24.611799999999995,175,75
2026-05-07 18:28:01.318,4,-0.13,0.61,1.56,15.801200000000001,16.3416,29.8664,175,75
2026-05-07 18:28:01.328,5,-0.37,-0.18,0.95,-3.6206,-1.8194,8.930200000000001,175,75
2026-05-07 18:28:01.328,3,-0.85,-1.13,0.26,6.081799999999998,2.663400000000001,-3.3596000000000013,175,75
2026-05-07 18:28:01.328,4,-0.14,0.59,1.65,15.801200000000001,23.411600000000004,32.916399999999996,175,75
2026-05-07 18:28:01.328,5,-0.35,-0.19,0.95,-3.3406,0.38060000000000027,9.5402,175,75
2026-05-07 18:28:01.340,2,0.59,1.27,0.53,-0.35020000000000095,12.3802,-23.331799999999994,175,75
2026-05-07 18:28:01.340,3,-0.8,-1.15,0.32,5.4117999999999995,-0.1465999999999994,-5.249600000000001,175,75
2026-05-07 18:28:01.340,4,-0.13,0.55,1.74,15.801200000000001,19.1416,32.6064,175,75
2026-05-07 18:28:01.340,5,-0.35,-0.2,0.95,-3.1106,3.3306,10.9502,175,75
2026-05-07 18:28:01.340,1,-0.0,1.11,0.16,-8.4864,-3.9155999999999977,0.3299999999999996,175,75
2026-05-07 18:28:01.350,2,0.6,1.28,0.53,-0.10020000000000095,20.3602,-22.291799999999995,175,75
2026-05-07 18:28:01.350,4,-0.1,0.49,1.78,16.5912,-2.808399999999999,27.4864,175,75
2026-05-07 18:28:01.350,2,0.61,1.29,0.54,-0.7102000000000004,23.4102,-21.6218,175,75
2026-05-07 18:28:01.350,5,-0.34,-0.22,0.95,-2.6006,7.8106,12.430200000000001,175,75
2026-05-07 18:28:01.361,1,-0.0,1.12,0.16,-8.9164,-4.895599999999998,0.8799999999999994,175,75
2026-05-07 18:28:01.361,2,0.6,1.31,0.54,-1.1402,26.2802,-20.581799999999994,175,75
2026-05-07 18:28:01.361,5,-0.36,-0.23,0.97,-1.6306,11.4106,13.5402,175,75
2026-05-07 18:28:01.361,4,-0.12,0.44,1.75,17.5612,-31.0384,17.8464,175,75
2026-05-07 18:28:01.361,1,0.0,1.12,0.15,-9.0364,-3.6755999999999993,1.3099999999999996,175,75
2026-05-07 18:28:01.371,3,-0.79,-1.15,0.32,2.181799999999999,-3.7365999999999993,-3.1796000000000006,175,75
2026-05-07 18:28:01.371,5,-0.38,-0.23,0.96,-1.1106,13.430600000000002,13.820200000000002,175,75
2026-05-07 18:28:01.387,5,-0.41,-0.24,0.97,-1.0306000000000002,13.730599999999999,12.3102,175,75
2026-05-07 18:28:01.387,2,0.59,1.31,0.56,-0.9602000000000004,30.3602,-17.6618,175,75
2026-05-07 18:28:01.387,1,-0.01,1.12,0.18,-8.6664,-3.4255999999999993,1.9799999999999995,175,75
2026-05-07 18:28:01.402,3,-0.78,-1.12,0.21,1.811799999999998,-7.096599999999999,-0.6196000000000002,175,75
2026-05-07 18:28:01.402,1,-0.01,1.13,0.17,-8.4864,-4.525599999999997,2.2199999999999998,175,75
2026-05-07 18:28:01.403,3,-0.81,-1.14,0.18,2.971799999999998,-1.6065999999999985,1.5203999999999986,175,75
2026-05-07 18:28:01.412,2,0.69,1.31,0.58,0.07979999999999876,14.690199999999999,-16.931799999999996,175,75
2026-05-07 18:28:01.421,3,-0.84,-1.13,0.17,4.8018,1.4434000000000005,-0.9196000000000009,175,75
2026-05-07 18:28:01.421,1,-0.01,1.12,0.15,-7.086400000000001,-3.7956000000000003,4.18,175,75
2026-05-07 18:28:01.438,5,-0.43,-0.23,0.96,0.5893999999999999,5.9706,-10.2698,175,75
2026-05-07 18:28:01.438,3,-0.81,-1.1,0.22,6.201799999999999,5.533400000000001,-1.3496000000000006,175,75
2026-05-07 18:28:01.438,1,-0.01,1.12,0.14,-5.8064,-2.575599999999998,4.85,175,75
2026-05-07 18:28:01.448,5,-0.42,-0.22,0.96,1.4893999999999998,5.0206,-11.0498,175,75
2026-05-07 18:28:01.448,1,-0.0,1.1,0.15,-4.6464,-1.235599999999998,5.209999999999999,175,75
2026-05-07 18:28:01.448,4,0.09,0.33,1.58,4.2712,2.621600000000001,20.226399999999998,175,75
2026-05-07 18:28:01.448,5,-0.41,-0.2,0.96,1.6893999999999998,3.7906,-10.2798,175,75
2026-05-07 18:28:01.460,2,0.63,1.37,0.52,0.01980000000000004,19.3902,-11.1918,175,75
2026-05-07 18:28:01.460,3,-0.82,-1.15,0.24,5.2318,-1.3565999999999985,-0.30960000000000143,175,75
2026-05-07 18:28:01.460,1,-0.0,1.11,0.16,-4.156400000000001,-1.7155999999999985,5.209999999999999,175,75
2026-05-07 18:28:01.460,5,-0.39,-0.19,0.96,0.5893999999999999,4.1206000000000005,-9.1798,175,75
2026-05-07 18:28:01.460,3,-0.81,-1.15,0.25,5.7118,0.3434000000000008,0.18039999999999878,175,75
2026-05-07 18:28:01.470,2,0.63,1.37,0.51,0.6898,28.8402,-8.331799999999998,175,75
2026-05-07 18:28:01.470,4,0.06,0.44,1.68,-0.2387999999999999,10.851600000000001,16.6364,175,75
2026-05-07 18:28:01.470,5,-0.38,-0.18,0.97,-1.4806000000000001,6.2106,-6.8298000000000005,175,75
2026-05-07 18:28:01.470,3,-0.82,-1.15,0.27,4.741799999999998,1.0134000000000007,0.060399999999999565,175,75
2026-05-07 18:28:01.482,2,0.65,1.36,0.53,1.7297999999999991,33.9602,-6.621799999999997,175,75
2026-05-07 18:28:01.482,5,-0.36,-0.18,0.98,-3.4806,9.5606,-2.8898,175,75
2026-05-07 18:28:01.482,1,-0.02,1.11,0.15,-1.9664000000000001,1.394400000000001,5.76,175,75
2026-05-07 18:28:01.494,2,0.66,1.36,0.57,2.149799999999999,34.6902,-5.401799999999998,175,75
2026-05-07 18:28:01.494,4,0.01,0.48,1.64,0.25119999999999987,5.1815999999999995,17.4264,175,75
2026-05-07 18:28:01.494,5,-0.35,-0.2,0.98,-4.8706000000000005,12.980599999999999,2.8501999999999996,175,75
2026-05-07 18:28:01.494,2,0.67,1.36,0.58,2.2698,29.5702,-4.611799999999999,175,75
2026-05-07 18:28:01.494,1,-0.02,1.11,0.16,-2.0264000000000006,3.2144000000000013,5.88,175,75
2026-05-07 18:28:01.504,4,-0.05,0.48,1.58,-0.9088000000000003,12.921600000000002,19.4964,175,75
2026-05-07 18:28:01.504,1,-0.02,1.11,0.17,-2.386400000000002,3.764400000000002,5.76,175,75
2026-05-07 18:28:01.504,3,-0.84,-1.13,0.11,3.6418,-13.1266,-6.899600000000001,175,75
2026-05-07 18:28:01.512,4,-0.02,0.46,1.59,-1.7687999999999997,33.351600000000005,22.4864,175,75
2026-05-07 18:28:01.512,5,-0.41,-0.22,0.98,-4.6306,14.470600000000001,7.680200000000001,175,75
2026-05-07 18:28:01.512,1,-0.02,1.11,0.18,-2.3264000000000014,3.344400000000002,5.459999999999999,175,75
2026-05-07 18:28:01.528,5,-0.44,-0.22,0.97,-4.0506,12.1006,4.6302,175,75
2026-05-07 18:28:01.528,4,0.07,0.4,1.68,-2.2488,43.961600000000004,21.6364,175,75
2026-05-07 18:28:01.537,5,-0.43,-0.22,0.97,-3.5806,10.5006,0.1801999999999997,175,75
2026-05-07 18:28:01.537,1,-0.02,1.13,0.17,-4.2164,2.1844,4.6,175,75
2026-05-07 18:28:01.537,2,0.63,1.33,0.55,0.9897999999999989,14.690199999999999,-5.771799999999999,175,75
2026-05-07 18:28:01.553,1,-0.01,1.14,0.16,-4.6464,2.544400000000003,3.7499999999999996,175,75
2026-05-07 18:28:01.553,2,0.63,1.32,0.56,0.8697999999999997,20.4202,-6.071799999999996,175,75
2026-05-07 18:28:01.553,4,0.0,0.35,1.73,-4.808800000000001,28.231600000000004,6.9963999999999995,175,75
2026-05-07 18:28:01.553,1,-0.01,1.14,0.15,-4.706400000000002,3.1544000000000008,3.3199999999999994,175,75
2026-05-07 18:28:01.564,2,0.64,1.31,0.58,0.6297999999999995,23.6002,-6.8017999999999965,175,75
2026-05-07 18:28:01.564,3,-0.82,-1.1,0.23,1.6317999999999984,-0.6265999999999998,0.24039999999999928,175,75
2026-05-07 18:28:01.564,1,-0.01,1.13,0.17,-4.586400000000001,3.4644000000000013,2.1599999999999997,175,75
2026-05-07 18:28:01.575,2,0.66,1.31,0.59,0.5097999999999985,21.580199999999998,-8.211799999999997,175,75
2026-05-07 18:28:01.575,4,-0.05,0.37,1.72,-4.878799999999999,27.0716,3.276399999999999,175,75
2026-05-07 18:28:01.575,3,-0.81,-1.07,0.26,-0.19819999999999993,4.063400000000001,3.7104,175,75
2026-05-07 18:28:01.575,2,0.65,1.3,0.59,1.1197999999999997,16.2802,-9.241799999999998,175,75
2026-05-07 18:28:01.575,1,-0.0,1.14,0.17,-5.746400000000001,3.2844000000000015,1.5499999999999994,175,75
2026-05-07 18:28:01.590,4,-0.03,0.33,1.78,-3.2888,19.8716,0.8963999999999999,175,75
2026-05-07 18:28:01.590,3,-0.76,-1.11,0.37,2.7318,3.3934000000000006,2.680399999999999,175,75
2026-05-07 18:28:01.590,2,0.67,1.3,0.6,1.4197999999999986,9.080200000000001,-10.651799999999994,175,75
2026-05-07 18:28:01.601,4,-0.02,0.3,1.79,-3.8388,6.701599999999999,-3.2436000000000007,175,75
2026-05-07 18:28:01.601,3,-0.76,-1.12,0.33,-0.3182000000000009,-7.396599999999999,2.8004,175,75
2026-05-07 18:28:01.601,5,-0.38,-0.2,0.98,-4.690600000000001,20.250600000000002,4.0502,175,75
2026-05-07 18:28:01.601,2,0.64,1.29,0.58,0.319799999999999,1.770199999999999,-11.8718,175,75
2026-05-07 18:28:01.612,3,-0.81,-1.1,0.23,-0.7482000000000006,-3.496599999999999,5.180399999999999,175,75
2026-05-07 18:28:01.612,5,-0.4,-0.2,0.99,-5.240600000000001,21.820600000000002,3.7601999999999998,175,75
2026-05-07 18:28:01.612,2,0.62,1.29,0.54,-0.4702000000000002,1.770199999999999,-12.6618,175,75
2026-05-07 18:28:01.612,1,-0.01,1.15,0.16,-5.436400000000003,4.504400000000002,-0.34000000000000075,175,75
2026-05-07 18:28:01.628,5,-0.43,-0.2,1.0,-5.6006,21.6106,2.8302,175,75
2026-05-07 18:28:01.628,2,0.6,1.3,0.52,-0.5302000000000007,4.2102,-12.291799999999995,175,75
2026-05-07 18:28:01.628,4,-0.02,0.31,1.65,-3.9588,-1.1584000000000003,-11.723600000000001,175,75
2026-05-07 18:28:01.628,1,-0.01,1.15,0.16,-5.256399999999999,5.104400000000002,-1.4300000000000006,175,75
2026-05-07 18:28:01.639,2,0.57,1.3,0.51,-0.9602000000000004,13.8402,-11.6218,175,75
2026-05-07 18:28:01.639,1,-0.01,1.14,0.15,-5.136400000000002,5.964400000000001,-1.9800000000000004,175,75
2026-05-07 18:28:01.639,3,-0.79,-1.14,0.32,-1.0582000000000011,2.783400000000001,7.920399999999999,175,75
2026-05-07 18:28:01.639,5,-0.45,-0.21,1.0,-5.8906,16.6306,-0.019800000000000484,175,75
2026-05-07 18:28:01.639,2,0.58,1.3,0.51,-1.0802000000000014,20.7302,-10.3418,175,75
2026-05-07 18:28:01.656,1,-0.01,1.15,0.18,-4.6464,5.354400000000002,-2.04,175,75
2026-05-07 18:28:01.656,5,-0.45,-0.21,0.99,-5.6306,13.0106,-0.24980000000000047,175,75
2026-05-07 18:28:01.656,4,-0.09,0.34,1.62,1.5312000000000001,19.1416,-11.2336,175,75
2026-05-07 18:28:01.656,2,0.58,1.29,0.52,-1.4502000000000006,25.8502,-9.001799999999996,175,75
2026-05-07 18:28:01.656,4,-0.13,0.35,1.66,2.2012,29.511599999999998,-8.8536,175,75
2026-05-07 18:28:01.667,5,-0.44,-0.22,0.98,-5.2506,9.8306,0.6701999999999999,175,75
2026-05-07 18:28:01.667,1,-0.01,1.14,0.15,-3.4863999999999997,6.4544000000000015,-2.6500000000000004,175,75
2026-05-07 18:28:01.675,2,0.62,1.29,0.54,-3.0302000000000007,23.1702,-8.631799999999998,175,75
2026-05-07 18:28:01.687,5,-0.43,-0.22,0.97,-5.2706,8.0806,1.5301999999999993,175,75
2026-05-07 18:28:01.687,4,-0.14,0.36,1.75,1.8312000000000002,21.8916,-5.6236,175,75
2026-05-07 18:28:01.687,2,0.62,1.3,0.55,-3.5802000000000005,17.8602,-8.391799999999996,175,75
2026-05-07 18:28:01.687,1,-0.0,1.14,0.17,-3.2464000000000013,6.324400000000001,-2.9000000000000004,175,75
2026-05-07 18:28:01.698,3,-0.96,-1.12,0.05,3.9418000000000006,-6.236599999999999,-8.8496,175,75
2026-05-07 18:28:01.698,1,-0.01,1.14,0.16,-3.4863999999999997,3.7044000000000015,-3.380000000000001,175,75
2026-05-07 18:28:01.698,5,-0.41,-0.22,0.97,-5.440600000000001,8.1906,0.9301999999999997,175,75
2026-05-07 18:28:01.698,5,-0.4,-0.22,0.96,-5.6306,8.950600000000001,0.9101999999999997,175,75
2026-05-07 18:28:01.716,4,-0.06,0.31,1.73,6.0412,11.3416,-4.2836,175,75
2026-05-07 18:28:01.716,3,-0.8,-1.14,0.35,3.271799999999999,-4.166599999999999,-1.959600000000001,175,75
2026-05-07 18:28:01.716,4,-0.07,0.32,1.74,7.1411999999999995,12.3716,-4.893599999999999,175,75
2026-05-07 18:28:01.728,5,-0.41,-0.22,0.96,-4.3406,12.860600000000002,-0.5098000000000003,175,75
2026-05-07 18:28:01.728,2,0.58,1.34,0.53,-4.010200000000001,25.1202,-6.8017999999999965,175,75
2026-05-07 18:28:01.728,3,-0.81,-1.15,0.31,1.3817999999999984,-9.046599999999998,-4.579600000000001,175,75
2026-05-07 18:28:01.728,4,-0.08,0.34,1.75,7.3812,13.041599999999999,-4.893599999999999,175,75
2026-05-07 18:28:01.728,1,0.02,1.15,0.15,-2.6964000000000006,2.1244000000000014,-3.2,175,75
2026-05-07 18:28:01.739,5,-0.42,-0.21,0.96,-3.9705999999999997,13.660599999999999,-1.8698000000000001,175,75
2026-05-07 18:28:01.739,2,0.56,1.36,0.52,-3.340200000000001,33.9002,-5.281799999999997,175,75
2026-05-07 18:28:01.739,4,-0.11,0.36,1.76,7.8712,10.9116,-5.133600000000001,175,75
2026-05-07 18:28:01.739,5,-0.42,-0.21,0.96,-3.6106,13.630600000000001,-3.1198,175,75
2026-05-07 18:28:01.749,1,0.02,1.15,0.14,-2.3264000000000014,2.544400000000003,-3.08,175,75
2026-05-07 18:28:01.749,2,0.55,1.38,0.53,-2.0602,40.6102,-3.5117999999999974,175,75
2026-05-07 18:28:01.749,3,-0.9,-1.16,0.15,0.1617999999999995,-18.0066,-15.1896,175,75
2026-05-07 18:28:01.749,1,0.03,1.14,0.16,-2.086400000000001,2.854400000000002,-2.7800000000000002,175,75
2026-05-07 18:28:01.749,4,-0.13,0.38,1.77,8.0512,8.471599999999999,-3.433600000000002,175,75
2026-05-07 18:28:01.749,5,-0.43,-0.21,0.96,-2.7706,13.3106,-3.7298,175,75
2026-05-07 18:28:01.758,2,0.49,1.4,0.54,0.13979999999999926,47.9902,-0.7117999999999967,175,75
2026-05-07 18:28:01.758,1,0.03,1.13,0.16,-2.086400000000001,2.544400000000003,-2.5900000000000007,175,75
2026-05-07 18:28:01.758,4,-0.17,0.42,1.74,6.1012,3.5915999999999997,-0.933600000000002,175,75
2026-05-07 18:28:01.762,2,0.44,1.41,0.55,3.4298,60.060199999999995,2.1582000000000043,175,75
2026-05-07 18:28:01.776,4,-0.19,0.45,1.69,0.7312000000000003,3.1016000000000012,1.0263999999999989,175,75
2026-05-07 18:28:01.776,5,-0.44,-0.2,0.96,-1.7706000000000002,11.7106,-4.0898,175,75
2026-05-07 18:28:01.776,1,0.02,1.13,0.16,-2.086400000000001,1.264400000000002,-2.3500000000000005,175,75
2026-05-07 18:28:01.776,3,-0.77,-1.16,0.38,-0.8682000000000016,-2.9465999999999983,-6.7696000000000005,175,75
2026-05-07 18:28:01.776,2,0.42,1.42,0.58,11.419799999999999,80.4902,4.228200000000001,175,75
2026-05-07 18:28:01.776,1,0.03,1.14,0.15,-2.1464000000000016,1.144400000000001,-2.29,175,75
2026-05-07 18:28:01.784,4,-0.15,0.48,1.61,-5.1788,3.2316000000000003,3.766399999999999,175,75
2026-05-07 18:28:01.784,2,0.6,1.43,0.56,12.8198,81.1602,6.238200000000003,175,75
2026-05-07 18:28:01.784,3,-0.74,-1.12,0.33,-3.6182000000000016,-11.4266,-6.649600000000001,175,75
2026-05-07 18:28:01.796,5,-0.42,-0.18,0.99,-2.5406,9.380600000000001,-4.3398,175,75
2026-05-07 18:28:01.796,1,0.02,1.14,0.15,-1.2964000000000002,1.4543999999999997,-2.170000000000001,175,75
2026-05-07 18:28:01.813,3,-0.86,-1.09,0.09,-5.198200000000002,-2.6465999999999994,-5.739600000000001,175,75
2026-05-07 18:28:01.813,4,-0.14,0.45,1.55,-11.698799999999999,10.0016,9.9264,175,75
2026-05-07 18:28:01.813,2,0.38,1.43,0.6,18.549799999999998,107.8602,8.738200000000003,175,75
2026-05-07 18:28:01.813,5,-0.41,-0.18,0.98,-2.7605999999999997,8.0806,-1.1198000000000004,175,75
2026-05-07 18:28:01.828,5,-0.4,-0.18,0.97,-2.3205999999999998,8.6706,1.5601999999999996,175,75
2026-05-07 18:28:01.828,2,0.36,1.45,0.66,28.979799999999997,146.6402,16.3682,175,75
2026-05-07 18:28:01.828,1,0.02,1.14,0.16,-1.2964000000000002,-0.865599999999997,-2.6500000000000004,175,75
2026-05-07 18:28:01.838,5,-0.4,-0.19,0.96,-2.5206,9.6606,4.6202000000000005,175,75
2026-05-07 18:28:01.838,2,0.57,1.44,0.74,36.1798,168.3502,22.278200000000002,175,75
2026-05-07 18:28:01.838,1,0.02,1.13,0.13,-0.6864000000000008,-0.8055999999999983,-2.8400000000000007,175,75
2026-05-07 18:28:01.848,5,-0.4,-0.19,0.97,-2.8606,10.2106,7.0602,175,75
2026-05-07 18:28:01.848,2,0.6,1.41,0.83,36.4198,162.9202,25.268200000000004,175,75
2026-05-07 18:28:01.848,4,-0.02,0.35,1.75,-26.768800000000002,-41.4084,-6.233599999999999,175,75
2026-05-07 18:28:01.848,5,-0.41,-0.2,0.97,-3.2706,10.1406,8.5702,175,75
2026-05-07 18:28:01.854,1,0.01,1.15,0.15,0.17359999999999864,-0.865599999999997,-3.380000000000001,175,75
2026-05-07 18:28:01.854,2,0.66,1.38,0.87,36.7298,153.2902,27.1582,175,75
2026-05-07 18:28:01.854,3,-0.74,-1.12,0.32,-9.528200000000002,-9.5366,0.9103999999999992,175,75
2026-05-07 18:28:01.855,4,-0.08,0.33,1.7,-27.7388,-47.3784,-9.343599999999999,175,75
2026-05-07 18:28:01.860,5,-0.41,-0.21,0.97,-3.2405999999999997,9.9206,8.5602,175,75
2026-05-07 18:28:01.861,1,0.01,1.15,0.15,0.5335999999999999,-1.7155999999999985,-3.9299999999999997,175,75
2026-05-07 18:28:01.874,2,0.77,1.31,0.86,40.0798,123.84020000000001,21.3682,175,75
2026-05-07 18:28:01.874,4,-0.07,0.31,1.7,-28.6588,-40.248400000000004,-11.113600000000002,175,75
2026-05-07 18:28:01.874,5,-0.42,-0.22,0.96,-2.6606,10.290600000000001,6.3802,175,75
2026-05-07 18:28:01.874,1,0.01,1.15,0.15,0.8435999999999986,-1.9655999999999985,-4.300000000000001,175,75
2026-05-07 18:28:01.874,3,-0.79,-1.06,0.25,-7.7582,10.3434,5.420399999999999,175,75
2026-05-07 18:28:01.874,4,-0.0,0.29,1.73,-27.9188,-43.1084,-13.853600000000004,175,75
2026-05-07 18:28:01.885,2,0.88,1.27,0.77,36.2998,83.6002,16.5482,175,75
2026-05-07 18:28:01.885,5,-0.43,-0.22,0.97,-2.1506,10.630600000000001,3.7701999999999996,175,75
2026-05-07 18:28:01.885,1,0.01,1.15,0.16,1.2735999999999983,-2.325599999999998,-4.91,175,75
2026-05-07 18:28:01.885,3,-0.79,-1.11,0.3,-7.948200000000002,10.653400000000001,6.150399999999999,175,75
2026-05-07 18:28:01.885,2,0.68,1.25,0.69,30.9298,63.470200000000006,13.378200000000003,175,75
2026-05-07 18:28:01.896,4,0.01,0.26,1.73,-27.4988,-50.4884,-17.883599999999998,175,75
2026-05-07 18:28:01.896,5,-0.42,-0.21,0.96,-1.8706000000000003,11.3306,0.5401999999999996,175,75
2026-05-07 18:28:01.896,1,-0.01,1.16,0.17,1.5135999999999985,-2.8755999999999986,-5.58,175,75
2026-05-07 18:28:01.896,3,-0.78,-1.13,0.31,-8.2482,8.2734,6.400399999999999,175,75
2026-05-07 18:28:01.896,2,0.61,1.24,0.66,31.599800000000002,79.2702,15.758200000000002,175,75
2026-05-07 18:28:01.909,4,-0.03,0.24,1.67,-25.7288,-44.5784,-18.1236,175,75
2026-05-07 18:28:01.909,2,0.62,1.25,0.66,33.7398,103.6002,19.538200000000003,175,75
2026-05-07 18:28:01.909,1,-0.0,1.16,0.16,1.8835999999999995,-2.6356,-5.58,175,75
2026-05-07 18:28:01.909,3,-0.76,-1.14,0.31,-9.528200000000002,7.903400000000001,10.300399999999998,175,75
2026-05-07 18:28:01.921,5,-0.42,-0.2,0.96,-2.5305999999999997,13.5306,-1.4398000000000002,175,75
2026-05-07 18:28:01.921,4,-0.07,0.25,1.66,-21.2188,-31.4084,-17.3336,175,75
2026-05-07 18:28:01.921,2,0.66,1.23,0.72,32.5798,128.1702,21.608200000000004,175,75
2026-05-07 18:28:01.921,5,-0.43,-0.2,0.95,-3.6306,14.3906,-0.6098000000000003,175,75
