Time,ID,Ax,Ay,Az,Gx,Gy,Gz,H,W
2026-05-09 16:14:52.669,5,0.11,-0.06,1.09,-4.3358,-20.7256,-9.2972,175,75
2026-05-09 16:14:52.669,1,-0.0,0.04,1.12,-14.235,24.9326,11.0318,175,75
2026-05-09 16:14:52.669,5,0.11,-0.06,1.09,-4.985799999999999,-23.5856,-11.9372,175,75
2026-05-09 16:14:52.669,1,0.02,0.05,1.18,-20.025,26.9526,15.241800000000001,175,75
2026-05-09 16:14:52.669,3,0.08,0.17,1.3,-0.4369999999999976,-7.1424,0.18159999999999954,175,75
2026-05-09 16:14:52.679,4,-0.46,-0.12,1.25,7.1892,17.214599999999997,29.3352,175,75
2026-05-09 16:14:52.679,5,0.1,-0.06,1.08,-5.6258,-27.6756,-15.4272,175,75
2026-05-09 16:14:52.679,4,-0.43,-0.1,1.22,6.5792,21.424599999999998,28.9052,175,75
2026-05-09 16:14:52.679,5,0.1,-0.06,1.08,-7.7258,-33.0256,-19.0772,175,75
2026-05-09 16:14:52.689,3,0.11,0.14,1.37,5.903000000000002,3.2776,-0.8583999999999996,175,75
2026-05-09 16:14:52.689,2,-0.21,-0.07,0.87,-8.9874,-12.608,0.6364,175,75
2026-05-09 16:14:52.689,4,-0.34,-0.03,1.13,2.8591999999999995,46.7346,28.8452,175,75
2026-05-09 16:14:52.689,5,0.1,-0.07,1.09,-9.6158,-39.355599999999995,-22.5872,175,75
2026-05-09 16:14:52.689,2,-0.22,-0.05,0.85,-9.5974,-14.558000000000003,1.9164,175,75
2026-05-09 16:14:52.689,1,0.04,-0.09,1.22,-48.135,36.8226,22.9218,175,75
2026-05-09 16:14:52.703,5,0.12,-0.07,1.1,-10.9458,-45.925599999999996,-25.5072,175,75
2026-05-09 16:14:52.703,2,-0.22,-0.03,0.84,-10.2674,-14.068000000000001,3.8064,175,75
2026-05-09 16:14:52.703,1,0.08,-0.13,1.23,-58.375,43.9026,30.0518,175,75
2026-05-09 16:14:52.703,4,-0.29,-0.0,1.09,2.0692000000000004,72.8246,29.5152,175,75
2026-05-09 16:14:52.714,5,0.14,-0.08,1.1,-12.9158,-53.9056,-27.0672,175,75
2026-05-09 16:14:52.714,2,-0.23,-0.02,0.83,-10.6374,-13.278000000000002,5.3864,175,75
2026-05-09 16:14:52.714,1,0.09,-0.17,1.26,-72.705,52.7426,35.1218,175,75
2026-05-09 16:14:52.714,3,0.15,0.18,1.42,3.213000000000001,-24.162399999999998,6.581600000000002,175,75
2026-05-09 16:14:52.714,5,0.15,-0.08,1.08,-15.1758,-62.3856,-27.4772,175,75
2026-05-09 16:14:52.726,4,-0.28,-0.02,1.1,3.2891999999999992,83.3746,29.635199999999998,175,75
2026-05-09 16:14:52.726,2,-0.24,-0.02,0.82,-11.1874,-15.288,7.1564,175,75
2026-05-09 16:14:52.726,3,0.09,0.15,1.24,4.313000000000002,-9.7724,8.891599999999997,175,75
2026-05-09 16:14:52.726,1,0.15,-0.19,1.33,-93.555,67.2526,45.721799999999995,175,75
2026-05-09 16:14:52.726,4,-0.27,-0.05,1.13,1.4591999999999992,89.6546,27.5652,175,75
2026-05-09 16:14:52.737,1,0.17,-0.23,1.41,-106.915,73.29260000000001,55.2418,175,75
2026-05-09 16:14:52.737,2,-0.23,0.02,0.84,-11.917399999999999,-18.398,8.8064,175,75
2026-05-09 16:14:52.737,5,0.12,-0.09,0.99,-21.7758,-82.3456,-32.0672,175,75
2026-05-09 16:14:52.737,3,0.11,0.1,1.16,12.793,13.0376,5.851599999999998,175,75
2026-05-09 16:14:52.762,5,0.08,-0.08,0.9,-26.8658,-90.60560000000001,-39.517199999999995,175,75
2026-05-09 16:14:52.762,5,0.04,-0.05,0.78,-32.0158,-95.99560000000001,-53.3872,175,75
2026-05-09 16:14:52.762,2,-0.18,0.06,0.84,-13.3774,-22.238000000000003,10.636399999999998,175,75
2026-05-09 16:14:52.762,2,-0.16,0.09,0.84,-14.967400000000001,-20.838000000000005,11.4864,175,75
2026-05-09 16:14:52.762,4,-0.28,0.02,1.26,-5.6708,80.2046,20.8552,175,75
2026-05-09 16:14:52.772,1,0.22,-0.52,1.39,-128.135,55.7326,74.57180000000001,175,75
2026-05-09 16:14:52.772,2,-0.15,0.13,0.83,-15.3274,-16.088000000000005,11.6664,175,75
2026-05-09 16:14:52.772,5,0.0,-0.01,0.66,-37.315799999999996,-95.9056,-72.8772,175,75
2026-05-09 16:14:52.772,3,0.39,0.23,1.44,38.643,15.597599999999998,13.221600000000002,175,75
2026-05-09 16:14:52.772,4,-0.25,0.04,1.29,-7.2008,75.6346,18.4152,175,75
2026-05-09 16:14:52.772,1,0.07,-0.33,0.97,-128.805,1.5825999999999993,60.3018,175,75
2026-05-09 16:14:52.783,5,0.01,0.0,0.51,-39.5058,-91.38560000000001,-87.9772,175,75
2026-05-09 16:14:52.783,2,-0.13,0.17,0.84,-13.747399999999999,-9.318000000000001,12.1564,175,75
2026-05-09 16:14:52.783,4,-0.22,0.08,1.3,-12.1408,70.3246,15.3052,175,75
2026-05-09 16:14:52.783,3,0.5,0.29,1.27,40.783,-7.8824000000000005,18.711599999999997,175,75
2026-05-09 16:14:52.783,1,-0.32,0.02,0.38,-135.325,-6.5874,49.9918,175,75
2026-05-09 16:14:52.793,5,0.06,-0.0,0.39,-38.425799999999995,-81.6956,-95.7072,175,75
2026-05-09 16:14:52.793,2,-0.09,0.24,0.85,-9.657399999999999,2.821999999999999,12.956399999999999,175,75
2026-05-09 16:14:52.793,4,-0.25,0.13,1.34,-17.500799999999998,66.6046,11.9552,175,75
2026-05-09 16:14:52.793,3,0.51,0.2,1.11,51.573,-11.0524,28.711599999999997,175,75
2026-05-09 16:14:52.793,1,-0.2,0.08,0.38,-133.195,44.7526,54.2018,175,75
2026-05-09 16:14:52.796,5,0.09,0.02,0.33,-34.6158,-65.4856,-96.6172,175,75
2026-05-09 16:14:52.807,2,-0.05,0.26,0.89,-4.8474,19.342,12.5864,175,75
2026-05-09 16:14:52.807,4,-0.3,0.22,1.44,-22.930799999999998,62.0946,8.415199999999999,175,75
2026-05-09 16:14:52.807,3,0.54,-0.1,1.08,67.18299999999999,-7.942400000000001,32.681599999999996,175,75
2026-05-09 16:14:52.807,1,0.15,0.42,1.01,-121.855,5.422599999999999,38.831799999999994,175,75
2026-05-09 16:14:52.814,4,-0.33,0.31,1.53,-25.2408,53.9846,8.6052,175,75
2026-05-09 16:14:52.827,5,0.06,0.12,0.33,-31.6858,-20.1956,-88.6472,175,75
2026-05-09 16:14:52.827,4,-0.37,0.39,1.6,-26.1008,29.474600000000002,12.0152,175,75
2026-05-09 16:14:52.827,2,0.11,0.2,1.07,12.1126,53.432,8.2564,175,75
2026-05-09 16:14:52.827,5,-0.0,0.16,0.39,-35.2858,1.8344,-89.13719999999999,175,75
2026-05-09 16:14:52.840,3,0.43,-0.99,1.0,94.62299999999999,-32.0824,44.6316,175,75
2026-05-09 16:14:52.840,1,-0.35,1.18,0.36,-95.085,-120.7374,21.0318,175,75
2026-05-09 16:14:52.840,2,0.1,-0.03,1.29,24.9726,64.892,-0.5836000000000001,175,75
2026-05-09 16:14:52.848,5,0.22,0.18,0.68,-45.7258,90.42439999999999,-111.82719999999999,175,75
2026-05-09 16:14:52.848,1,-0.28,1.13,0.39,-70.875,-105.6774,26.701800000000002,175,75
2026-05-09 16:14:52.866,3,0.52,-1.2,0.79,109.863,-51.412400000000005,59.7516,175,75
2026-05-09 16:14:52.866,4,-0.59,-0.23,1.25,12.799199999999999,58.9246,35.0052,175,75
2026-05-09 16:14:52.872,1,-0.76,0.52,0.5,-33.745,-84.5774,47.1918,175,75
2026-05-09 16:14:52.885,2,0.2,-0.24,1.6,34.182599999999994,63.182,-7.783600000000001,175,75
2026-05-09 16:14:52.885,1,-0.49,0.04,0.46,-19.295,-33.5974,49.8118,175,75
2026-05-09 16:14:52.885,5,0.65,0.52,1.63,-9.5358,176.3244,195.2228,175,75
2026-05-09 16:14:52.896,4,-0.54,-0.65,1.23,31.0992,79.8446,23.6052,175,75
2026-05-09 16:14:52.896,5,0.31,0.48,1.84,6.0642,147.2244,246.3528,175,75
2026-05-09 16:14:52.896,1,-0.44,-0.07,0.57,-18.015,-8.177399999999999,51.7618,175,75
2026-05-09 16:14:52.906,4,-0.57,-0.79,1.24,37.00919999999999,86.8546,12.2552,175,75
2026-05-09 16:14:52.906,2,0.49,-0.04,1.78,44.672599999999996,54.342,-15.8936,175,75
2026-05-09 16:14:52.906,3,-0.08,-0.84,0.76,186.263,76.99759999999999,63.8316,175,75
2026-05-09 16:14:52.918,4,-0.62,-0.75,1.37,37.1292,93.5646,0.12519999999999998,175,75
2026-05-09 16:14:52.918,5,-0.4,-0.14,1.6,31.5642,125.7744,241.9228,175,75
2026-05-09 16:14:52.918,1,0.06,-0.31,0.71,-23.075,-11.587399999999999,44.3818,175,75
2026-05-09 16:14:52.918,2,0.73,0.1,2.02,48.0826,16.601999999999997,-30.823600000000003,175,75
2026-05-09 16:14:52.928,3,-0.42,-0.32,1.89,200.173,136.3276,54.4416,175,75
2026-05-09 16:14:52.928,4,-0.72,-0.46,1.51,28.8392,90.6946,-7.5548,175,75
2026-05-09 16:14:52.928,5,-0.73,-0.19,1.68,38.7742,44.8744,215.0028,175,75
2026-05-09 16:14:52.928,1,-0.04,-0.42,0.81,-36.245,-20.3074,34.8118,175,75
2026-05-09 16:14:52.928,2,0.75,0.1,2.1,46.6226,-8.528000000000002,-39.913599999999995,175,75
2026-05-09 16:14:52.928,3,-0.45,-0.31,2.17,193.033,134.8676,55.48159999999999,175,75
2026-05-09 16:14:52.940,4,-0.74,-0.26,1.58,23.899199999999997,75.8746,-9.0848,175,75
2026-05-09 16:14:52.940,5,-0.84,-0.38,1.68,31.824200000000005,-46.7156,158.99280000000002,175,75
2026-05-09 16:14:52.940,3,-0.57,-0.22,2.2,180.653,126.14760000000001,61.5816,175,75
2026-05-09 16:14:52.953,5,-0.65,-0.4,1.56,18.9842,-100.7356,91.6628,175,75
2026-05-09 16:14:52.953,4,-0.87,-0.13,1.65,24.6292,32.8846,3.1752,175,75
2026-05-09 16:14:52.953,3,-0.64,-0.07,2.19,172.543,116.99759999999999,49.5016,175,75
2026-05-09 16:14:52.966,1,-0.38,0.24,0.66,-52.645,-35.1274,13.1618,175,75
2026-05-09 16:14:52.966,2,0.32,-0.25,1.97,60.3426,-109.198,-47.9636,175,75
2026-05-09 16:14:52.966,3,-0.6,-0.07,2.13,155.043,95.4776,43.2216,175,75
2026-05-09 16:14:52.966,4,-0.92,-0.33,1.66,28.109199999999998,21.3046,10.9752,175,75
2026-05-09 16:14:52.977,1,-0.43,0.37,0.46,-47.095,-27.3174,11.2118,175,75
2026-05-09 16:14:52.977,3,-0.49,0.0,1.83,109.07300000000001,63.4076,23.221600000000002,175,75
2026-05-09 16:14:52.977,5,0.06,-0.32,1.23,-6.415800000000001,-55.6456,-39.9572,175,75
2026-05-09 16:14:52.979,1,-0.34,0.38,0.41,-42.825,-13.537399999999998,14.3218,175,75
2026-05-09 16:14:52.982,2,0.11,-0.45,1.69,56.3726,-120.348,-49.303599999999996,175,75
2026-05-09 16:14:52.985,5,0.18,-0.22,1.23,-9.0858,-15.405600000000002,-74.8772,175,75
2026-05-09 16:14:52.985,4,-0.8,-0.69,1.62,33.229200000000006,-28.6954,9.9452,175,75
2026-05-09 16:14:52.987,1,-0.42,0.27,0.42,-29.595,1.2825999999999995,10.6618,175,75
2026-05-09 16:14:52.996,5,0.29,-0.1,1.33,-13.6958,34.3344,-110.1672,175,75
2026-05-09 16:14:52.996,3,0.37,0.47,1.5,46.323,47.9176,-12.3184,175,75
2026-05-09 16:14:53.009,2,0.04,-0.46,1.47,57.352599999999995,-101.508,-50.6436,175,75
2026-05-09 16:14:53.009,4,-0.76,-0.82,1.54,39.0792,-68.2054,2.8051999999999997,175,75
2026-05-09 16:14:53.009,3,0.07,0.88,1.56,34.253,55.657599999999995,10.361599999999996,175,75
2026-05-09 16:14:53.009,2,-0.03,-0.47,1.3,58.752599999999994,-64.128,-51.0136,175,75
2026-05-09 16:14:53.024,5,0.25,0.09,1.56,-38.5958,119.72439999999999,-140.3372,175,75
2026-05-09 16:14:53.024,1,-0.43,0.14,0.43,-15.145,14.752600000000001,-1.4082,175,75
2026-05-09 16:14:53.024,3,-0.3,0.78,1.55,24.372999999999998,49.0776,25.791599999999995,175,75
2026-05-09 16:14:53.024,2,-0.11,-0.47,1.15,58.0826,1.9619999999999962,-47.2936,175,75
2026-05-09 16:14:53.024,4,-0.78,-1.1,1.19,45.849199999999996,-104.3054,-8.2848,175,75
2026-05-09 16:14:53.024,5,0.09,0.12,1.68,-44.9658,114.9644,-113.5672,175,75
2026-05-09 16:14:53.035,1,-0.45,0.03,0.48,-9.845,20.302599999999998,-6.4082,175,75
2026-05-09 16:14:53.035,3,-0.02,0.25,1.47,-9.466999999999999,-8.362400000000001,-12.3184,175,75
2026-05-09 16:14:53.035,2,-0.09,-0.43,1.12,61.252599999999994,54.102,-43.873599999999996,175,75
2026-05-09 16:14:53.035,4,-0.8,-1.18,1.06,45.179199999999994,-94.7954,-13.4148,175,75
2026-05-09 16:14:53.035,5,-0.13,0.23,1.79,-51.0758,98.7644,-78.5672,175,75
2026-05-09 16:14:53.046,3,-0.04,0.4,1.04,-48.247,-1.2324000000000002,-55.678399999999996,175,75
2026-05-09 16:14:53.046,4,-0.74,-1.18,0.99,37.1292,-69.4854,-22.5548,175,75
2026-05-09 16:14:53.059,2,0.07,-0.35,1.3,69.4226,96.842,-33.453599999999994,175,75
2026-05-09 16:14:53.059,4,-0.65,-1.08,0.98,28.9592,-51.6254,-27.8648,175,75
2026-05-09 16:14:53.059,3,0.05,0.64,0.99,-76.357,70.77759999999999,-68.2984,175,75
2026-05-09 16:14:53.072,5,-0.5,0.01,1.85,-83.4358,92.9844,-9.3772,175,75
2026-05-09 16:14:53.072,2,0.05,-0.31,1.34,64.6726,93.302,-28.0836,175,75
2026-05-09 16:14:53.072,3,0.01,0.5,1.21,-89.707,78.8276,-85.7384,175,75
2026-05-09 16:14:53.072,1,-0.29,-0.12,0.19,21.445,32.4326,-29.0282,175,75
2026-05-09 16:14:53.085,4,-0.5,-0.81,1.04,18.5992,-28.145400000000002,-28.6548,175,75
2026-05-09 16:14:53.085,3,0.05,0.45,1.38,-106.90700000000001,69.49759999999999,-103.9684,175,75
2026-05-09 16:14:53.085,1,-0.26,-0.19,0.19,32.845,37.6826,-27.8082,175,75
2026-05-09 16:14:53.085,5,-0.7,-0.11,1.88,-84.1658,64.0944,70.7028,175,75
2026-05-09 16:14:53.095,4,-0.48,-0.75,1.07,14.0792,-21.6854,-31.2748,175,75
2026-05-09 16:14:53.095,3,0.11,0.45,1.48,-127.327,48.6476,-114.33840000000001,175,75
2026-05-09 16:14:53.095,5,-0.78,-0.16,1.94,-77.72579999999999,41.3644,97.86280000000001,175,75
2026-05-09 16:14:53.095,1,-0.22,-0.47,0.22,43.455,52.132600000000004,-22.0782,175,75
2026-05-09 16:14:53.108,4,-0.42,-0.67,1.11,7.559200000000001,-16.2554,-35.4848,175,75
2026-05-09 16:14:53.108,2,-0.45,-0.12,1.0,51.6226,103.732,-14.123600000000001,175,75
2026-05-09 16:14:53.108,3,0.18,0.43,1.5,-151.657,22.727600000000002,-121.5284,175,75
2026-05-09 16:14:53.108,5,-0.85,-0.18,2.0,-69.5158,4.9744,106.9928,175,75
2026-05-09 16:14:53.108,1,-0.24,-0.76,0.38,50.285,69.8126,-21.6482,175,75
2026-05-09 16:14:53.108,2,-0.49,-0.09,0.97,47.9026,112.882,-10.4036,175,75
2026-05-09 16:14:53.120,3,0.21,0.41,1.43,-173.487,-0.31240000000000023,-126.16839999999999,175,75
2026-05-09 16:14:53.120,5,-0.87,-0.2,2.0,-67.6058,-44.6856,97.9928,175,75
2026-05-09 16:14:53.120,1,-0.18,-0.88,0.54,52.535,84.6926,-20.978199999999998,175,75
2026-05-09 16:14:53.120,4,-0.3,-0.43,1.18,-0.06080000000000041,-11.9854,-45.0548,175,75
2026-05-09 16:14:53.120,2,-0.5,-0.1,0.98,37.782599999999995,113.552,-4.6735999999999995,175,75
2026-05-09 16:14:53.132,5,-0.8,-0.28,1.89,-71.4258,-93.2256,70.5428,175,75
2026-05-09 16:14:53.132,1,-0.09,-0.9,0.79,54.005,98.2326,-17.9282,175,75
2026-05-09 16:14:53.132,4,-0.24,-0.26,1.22,0.9092000000000002,-13.0854,-48.2248,175,75
2026-05-09 16:14:53.143,5,-0.55,-0.33,1.68,-74.7858,-129.0256,45.192800000000005,175,75
2026-05-09 16:14:53.143,2,-0.48,-0.1,0.98,26.5626,102.94200000000001,0.02639999999999998,175,75
2026-05-09 16:14:53.143,1,0.02,-0.89,1.01,55.095,103.9026,-13.238199999999999,175,75
2026-05-09 16:14:53.143,3,0.11,0.42,1.16,-216.047,-6.4724,-137.5684,175,75
2026-05-09 16:14:53.143,5,-0.38,-0.39,1.43,-72.5558,-144.6456,30.9528,175,75
2026-05-09 16:14:53.156,2,-0.43,-0.09,0.97,19.9126,79.282,3.8064,175,75
2026-05-09 16:14:53.156,3,0.13,0.41,1.19,-230.687,-5.9224,-147.2584,175,75
2026-05-09 16:14:53.156,4,-0.15,0.0,1.31,5.969199999999999,-29.2454,-48.9548,175,75
2026-05-09 16:14:53.156,5,-0.24,-0.37,1.21,-65.6058,-145.3756,24.462799999999998,175,75
2026-05-09 16:14:53.171,1,0.07,-0.93,1.5,47.475,105.79260000000001,-7.6282000000000005,175,75
2026-05-09 16:14:53.171,3,0.15,0.43,1.17,-244.767,-5.3824000000000005,-153.1784,175,75
2026-05-09 16:14:53.171,4,-0.16,0.12,1.37,5.6692,-60.2154,-51.8848,175,75
2026-05-09 16:14:53.182,5,-0.04,-0.27,0.9,-40.565799999999996,-122.24560000000001,18.1428,175,75
2026-05-09 16:14:53.182,4,-0.19,0.2,1.37,6.039199999999999,-85.4054,-57.1348,175,75
2026-05-09 16:14:53.182,2,-0.29,-0.02,0.74,-2.4674,9.341999999999997,3.0164,175,75
2026-05-09 16:14:53.182,1,0.18,-0.68,1.87,45.345,110.3626,-11.958200000000001,175,75
2026-05-09 16:14:53.182,4,-0.19,0.28,1.35,5.9092,-100.9554,-57.5548,175,75
2026-05-09 16:14:53.187,5,0.05,-0.2,0.8,-27.6158,-107.3756,15.912799999999999,175,75
2026-05-09 16:14:53.187,3,0.03,0.4,1.06,-250.317,35.3576,-165.79840000000002,175,75
2026-05-09 16:14:53.204,3,0.0,0.33,1.05,-245.747,56.5776,-177.5084,175,75
2026-05-09 16:14:53.204,1,0.38,-0.33,1.93,46.625,109.0826,-15.3082,175,75
2026-05-09 16:14:53.204,2,-0.33,0.06,0.64,-5.3873999999999995,9.951999999999998,-0.15360000000000001,175,75
2026-05-09 16:14:53.204,4,-0.21,0.42,1.29,5.3591999999999995,-108.9354,-55.5448,175,75
2026-05-09 16:14:53.204,5,0.23,-0.09,0.61,-4.7258,-77.8656,15.7328,175,75
2026-05-09 16:14:53.216,2,-0.36,0.13,0.6,-3.3774,19.581999999999997,-2.2936,175,75
2026-05-09 16:14:53.216,4,-0.19,0.56,1.25,5.4292,-107.3554,-51.5248,175,75
2026-05-09 16:14:53.216,4,-0.14,0.7,1.22,3.959199999999999,-98.7554,-45.3048,175,75
2026-05-09 16:14:53.218,1,0.21,0.29,1.55,7.415,51.7626,2.4318,175,75
2026-05-09 16:14:53.230,3,-0.2,0.11,1.21,-182.207,156.0276,-222.6884,175,75
2026-05-09 16:14:53.230,4,-0.11,0.84,1.17,0.9092000000000002,-81.1954,-35.9148,175,75
2026-05-09 16:14:53.230,1,-0.05,0.16,1.27,-35.145,28.2926,28.9618,175,75
2026-05-09 16:14:53.242,5,0.35,-0.02,0.3,34.3442,-37.9656,48.5728,175,75
2026-05-09 16:14:53.242,3,-0.13,0.13,1.59,-151.477,179.4376,-232.07840000000002,175,75
2026-05-09 16:14:53.242,1,-0.17,0.03,1.19,-79.355,19.5726,45.1218,175,75
2026-05-09 16:14:53.242,4,-0.08,0.96,1.11,-2.3808000000000007,-55.1554,-26.3948,175,75
2026-05-09 16:14:53.242,5,0.35,-0.01,0.21,51.184200000000004,-38.105599999999995,62.7828,175,75
2026-05-09 16:14:53.255,2,-0.17,0.6,0.75,-3.0774000000000004,-25.478000000000005,-14.793600000000001,175,75
2026-05-09 16:14:53.255,5,0.34,-0.02,0.12,68.4842,-45.4156,76.1228,175,75
2026-05-09 16:14:53.271,1,0.21,0.03,1.15,-142.155,12.0726,77.2518,175,75
2026-05-09 16:14:53.271,5,0.32,-0.02,-0.01,86.9542,-58.3256,90.78280000000001,175,75
2026-05-09 16:14:53.271,3,-0.25,0.31,2.1,-128.007,142.4876,-188.7884,175,75
2026-05-09 16:14:53.271,2,-0.17,0.81,0.68,1.5625999999999998,-76.818,-18.2636,175,75
2026-05-09 16:14:53.271,1,0.21,-0.15,1.02,-163.805,-9.697400000000002,81.2718,175,75
2026-05-09 16:14:53.283,5,0.29,-0.04,-0.11,100.2442,-77.2556,94.06280000000001,175,75
2026-05-09 16:14:53.283,4,-0.01,1.08,1.17,-11.0408,52.464600000000004,-9.0248,175,75
2026-05-09 16:14:53.283,3,-0.25,0.39,1.8,-119.827,106.38759999999999,-164.2084,175,75
2026-05-09 16:14:53.283,2,-0.2,0.89,0.59,2.0425999999999997,-88.278,-15.4036,175,75
2026-05-09 16:14:53.296,1,0.24,-0.19,0.71,-192.825,6.582599999999999,84.7518,175,75
2026-05-09 16:14:53.296,4,-0.0,1.05,1.26,-12.930800000000001,76.9746,-6.3948,175,75
2026-05-09 16:14:53.296,3,-0.2,0.52,1.41,-89.21700000000001,109.13759999999999,-135.2484,175,75
2026-05-09 16:14:53.296,2,-0.22,0.96,0.52,2.9626,-90.288,-12.5936,175,75
2026-05-09 16:14:53.296,5,0.44,-0.1,-0.45,122.8242,-116.43560000000001,100.0828,175,75
2026-05-09 16:14:53.296,1,0.3,-0.08,0.59,-207.095,44.9326,90.85180000000001,175,75
2026-05-09 16:14:53.309,3,-0.18,0.63,1.21,-56.787,127.9176,-109.94839999999999,175,75
2026-05-09 16:14:53.309,2,-0.19,1.07,0.48,6.1926000000000005,-80.958,-10.223600000000001,175,75
2026-05-09 16:14:53.309,5,0.51,-0.17,-0.57,136.0142,-119.1456,102.0928,175,75
2026-05-09 16:14:53.309,1,0.36,-0.01,0.65,-199.775,78.4726,100.2418,175,75
2026-05-09 16:14:53.309,4,-0.08,0.97,1.39,-18.7208,81.4846,-7.3748000000000005,175,75
2026-05-09 16:14:53.319,3,-0.07,0.85,1.25,-23.977,145.9676,-84.14840000000001,175,75
2026-05-09 16:14:53.319,2,-0.06,1.2,0.49,11.502600000000001,-63.528000000000006,-6.6836,175,75
2026-05-09 16:14:53.319,1,0.4,0.05,0.9,-184.475,102.6226,107.7418,175,75
2026-05-09 16:14:53.319,3,0.12,1.02,1.46,-3.6769999999999996,141.9376,-57.8684,175,75
2026-05-09 16:14:53.324,5,0.3,-0.34,-0.7,171.7242,-105.41560000000001,64.0428,175,75
2026-05-09 16:14:53.329,2,0.11,1.34,0.57,15.092600000000001,-50.348,-3.4536,175,75
2026-05-09 16:14:53.329,1,0.36,0.02,1.01,-177.215,22.5626,114.7518,175,75
2026-05-09 16:14:53.339,3,0.25,0.97,1.68,8.213000000000001,103.7076,-32.998400000000004,175,75
2026-05-09 16:14:53.339,5,0.13,-0.44,-0.59,180.2942,-100.6256,35.162800000000004,175,75
2026-05-09 16:14:53.339,4,-0.13,0.9,1.45,-14.3908,93.8646,-5.114800000000001,175,75
2026-05-09 16:14:53.339,2,0.35,1.44,0.66,14.912600000000001,-54.068,0.14639999999999997,175,75
2026-05-09 16:14:53.339,1,-0.13,0.12,0.85,-182.215,29.872600000000002,120.0518,175,75
2026-05-09 16:14:53.341,3,-0.5,0.83,1.27,2.9730000000000025,62.307599999999994,19.0216,175,75
2026-05-09 16:14:53.356,2,0.64,1.45,0.74,14.1826,-83.528,-3.1436,175,75
2026-05-09 16:14:53.356,4,-0.19,0.87,1.5,-13.3508,89.1046,-2.8048,175,75
2026-05-09 16:14:53.356,1,0.21,0.05,0.96,-154.235,89.9926,124.6918,175,75
2026-05-09 16:14:53.356,5,0.16,-0.36,-0.44,168.43419999999998,-90.5356,-10.7972,175,75
2026-05-09 16:14:53.369,4,-0.34,0.79,1.54,-15.180800000000001,70.8146,3.1752,175,75
2026-05-09 16:14:53.377,5,0.18,-0.36,-0.11,98.91420000000001,-7.695600000000001,-73.49719999999999,175,75
2026-05-09 16:14:53.377,2,0.57,0.79,0.91,3.3326,-71.878,-27.843600000000002,175,75
2026-05-09 16:14:53.378,4,-0.59,0.67,1.52,-16.6508,42.0946,13.1152,175,75
2026-05-09 16:14:53.393,5,0.22,-0.41,0.11,69.2642,33.644400000000005,-79.24719999999999,175,75
2026-05-09 16:14:53.393,1,0.41,0.22,1.52,-91.055,-52.4374,98.5318,175,75
2026-05-09 16:14:53.393,2,0.4,0.37,1.07,-6.1874,-30.418000000000003,-41.983599999999996,175,75
2026-05-09 16:14:53.403,5,0.35,-0.3,0.32,40.2742,82.5244,-73.2772,175,75
2026-05-09 16:14:53.403,4,-1.05,0.15,1.2,-11.5908,27.154600000000002,45.1852,175,75
2026-05-09 16:14:53.403,2,0.3,-0.06,1.35,-20.2074,-4.928000000000001,-58.693599999999996,175,75
2026-05-09 16:14:53.403,1,0.14,0.42,1.13,-58.255,-120.7974,69.6918,175,75
2026-05-09 16:14:53.415,5,0.47,-0.08,0.67,2.0642,157.0944,-87.7872,175,75
2026-05-09 16:14:53.415,4,-1.21,-0.31,0.97,-1.0408,35.3846,63.8452,175,75
2026-05-09 16:14:53.415,1,-0.0,0.58,0.55,-23.135,-114.20739999999999,44.8718,175,75
2026-05-09 16:14:53.415,3,0.19,3.19,1.09,89.493,15.297600000000001,2.8615999999999993,175,75
2026-05-09 16:14:53.415,2,0.07,-0.53,1.62,-46.857400000000005,26.662,-66.0136,175,75
2026-05-09 16:14:53.415,5,0.64,0.01,1.08,-26.7258,251.5044,-147.56719999999999,175,75
2026-05-09 16:14:53.415,4,-1.31,-1.04,0.75,14.6892,70.6346,90.55520000000001,175,75
2026-05-09 16:14:53.429,3,-0.97,1.72,0.44,226.38299999999998,12.1176,181.70159999999998,175,75
2026-05-09 16:14:53.429,4,-1.23,-2.04,0.69,48.959199999999996,213.0146,143.6052,175,75
2026-05-09 16:14:53.429,3,-1.15,0.83,0.7,154.073,263.9476,96.39160000000001,175,75
2026-05-09 16:14:53.440,2,-0.0,-1.22,1.91,-89.6574,33.181999999999995,-58.453599999999994,175,75
2026-05-09 16:14:53.440,1,0.11,1.06,0.37,106.195,12.7426,38.5918,175,75
2026-05-09 16:14:53.440,4,-1.07,-2.61,0.86,68.0492,292.28459999999995,194.8852,175,75
2026-05-09 16:14:53.453,5,-0.43,-0.28,2.0,-191.4658,251.5044,-248.25719999999998,175,75
2026-05-09 16:14:53.453,3,-0.12,0.25,2.68,177.85299999999998,133.8276,77.4916,175,75
2026-05-09 16:14:53.475,2,0.32,-0.75,1.68,-44.4174,146.962,-81.1336,175,75
2026-05-09 16:14:53.475,5,-0.96,-0.7,2.0,-207.2058,251.5044,-248.25719999999998,175,75
2026-05-09 16:14:53.475,4,-2.67,-1.06,0.86,-30.1208,130.2646,14.825199999999999,175,75
2026-05-09 16:14:53.488,1,-0.05,1.06,0.56,240.035,31.9526,11.0918,175,75
2026-05-09 16:14:53.488,3,-0.79,-0.17,1.95,43.093,-78.9124,67.0016,175,75
2026-05-09 16:14:53.488,5,-2.0,-1.14,1.99,-137.6158,251.5044,-248.25719999999998,175,75
2026-05-09 16:14:53.488,4,-1.83,-0.89,0.83,-27.5608,229.9646,-33.0448,175,75
2026-05-09 16:14:53.503,5,-2.0,-1.44,1.73,-37.8458,209.6544,-245.5172,175,75
2026-05-09 16:14:53.503,3,-0.63,0.27,1.4,35.473,-71.7824,23.7716,175,75
2026-05-09 16:14:53.503,4,-0.54,-0.67,1.14,6.709199999999999,284.8446,52.2552,175,75
2026-05-09 16:14:53.503,2,-0.21,-0.44,2.12,9.4226,161.66199999999998,-58.5136,175,75
2026-05-09 16:14:53.503,1,0.02,0.82,0.67,294.125,36.8826,-5.2482,175,75
2026-05-09 16:14:53.503,5,-2.0,-1.43,1.84,57.2442,1.4244,-126.0872,175,75
2026-05-09 16:14:53.514,3,-0.43,0.13,1.5,44.193,-11.2324,37.431599999999996,175,75
2026-05-09 16:14:53.514,2,-0.03,-0.32,2.11,5.7026,98.612,-34.3636,175,75
2026-05-09 16:14:53.514,1,0.08,0.67,0.67,309.365,48.7126,-14.8782,175,75
2026-05-09 16:14:53.514,5,-2.0,-0.85,2.0,124.3542,-175.5256,-41.6772,175,75
2026-05-09 16:14:53.526,3,-0.71,-0.18,1.72,26.993000000000002,-33.062400000000004,10.851599999999998,175,75
2026-05-09 16:14:53.526,2,0.07,-0.27,2.05,3.6925999999999997,43.55199999999999,-6.1336,175,75
2026-05-09 16:14:53.526,4,-0.87,-0.93,1.28,48.289199999999994,208.3146,175.36520000000002,175,75
2026-05-09 16:14:53.526,5,-2.0,-0.35,2.0,150.74419999999998,-248.76559999999998,-9.917200000000001,175,75
2026-05-09 16:14:53.526,1,0.08,0.67,0.54,326.745,65.9126,-34.5782,175,75
2026-05-09 16:14:53.538,3,-0.46,-0.18,1.69,19.803000000000004,-32.882400000000004,-16.168400000000002,175,75
2026-05-09 16:14:53.538,5,-2.0,0.09,2.0,155.5042,-248.76559999999998,-41.2172,175,75
2026-05-09 16:14:53.538,1,0.47,0.74,0.65,342.115,128.3526,-36.0382,175,75
2026-05-09 16:14:53.538,2,-0.03,-0.35,1.81,12.2926,4.2819999999999965,10.876399999999999,175,75
2026-05-09 16:14:53.553,5,-1.64,0.22,2.0,172.46419999999998,-248.76559999999998,-77.4172,175,75
2026-05-09 16:14:53.553,3,-0.41,-0.36,1.61,8.883000000000003,-43.1824,-18.2984,175,75
2026-05-09 16:14:53.553,1,0.34,0.64,1.0,352.055,161.8226,-43.358200000000004,175,75
2026-05-09 16:14:53.553,2,-0.05,-0.36,1.69,20.0926,11.411999999999997,4.3564,175,75
2026-05-09 16:14:53.563,4,-0.4,-1.38,1.3,73.4692,26.674599999999998,-0.7847999999999999,175,75
2026-05-09 16:14:53.563,3,-0.43,-0.69,1.56,12.673000000000002,-28.612399999999997,-25.558400000000002,175,75
2026-05-09 16:14:53.563,1,0.58,0.58,1.16,381.865,149.87259999999998,-71.70819999999999,175,75
2026-05-09 16:14:53.563,2,-0.07,-0.27,1.59,27.5926,16.291999999999998,3.8064,175,75
2026-05-09 16:14:53.575,1,0.87,0.66,1.08,401.315,101.1526,-83.78819999999999,175,75
2026-05-09 16:14:53.575,2,-0.05,-0.17,1.54,30.5226,12.511999999999997,5.5164,175,75
2026-05-09 16:14:53.575,1,-1.18,1.1,-0.23,384.615,-167.68740000000003,-105.8582,175,75
2026-05-09 16:14:53.575,4,-0.18,-0.46,1.2,34.0792,-34.3054,1.8951999999999996,175,75
2026-05-09 16:14:53.577,3,0.22,-1.67,1.7,10.783000000000001,-27.5724,-28.358400000000003,175,75
2026-05-09 16:14:53.594,2,-0.01,-0.02,1.46,28.5726,4.341999999999999,7.2164,175,75
2026-05-09 16:14:53.594,1,-9.99,1.33,-3.64,348.455,-1176.7674000000002,-395.7382,175,75
2026-05-09 16:14:53.594,4,-0.46,-0.21,1.1,38.839200000000005,-47.535399999999996,-3.2248,175,75
2026-05-09 16:14:53.594,3,0.32,-2.04,1.39,-6.356999999999999,-43.1824,-14.698400000000001,175,75
2026-05-09 16:14:53.594,5,0.1,0.73,1.05,76.8042,-248.76559999999998,-122.8472,175,75
2026-05-09 16:14:53.594,2,-0.03,0.11,1.38,25.7026,5.501999999999999,6.9164,175,75
2026-05-09 16:14:53.606,4,-0.47,-0.15,1.11,40.429199999999994,-41.3754,-16.2748,175,75
2026-05-09 16:14:53.606,3,0.76,-2.04,0.92,6.513000000000002,-52.882400000000004,-34.3984,175,75
2026-05-09 16:14:53.606,5,0.18,0.72,0.74,40.1342,-220.82559999999998,-170.8272,175,75
2026-05-09 16:14:53.606,2,-0.07,0.28,1.31,24.7926,20.261999999999997,4.7164,175,75
2026-05-09 16:14:53.617,1,-4.56,-4.86,-5.85,18.085,376.5226,-342.5682,175,75
2026-05-09 16:14:53.617,3,0.72,-1.43,0.17,-6.966999999999999,-52.812400000000004,-27.1384,175,75
2026-05-09 16:14:53.617,5,0.33,0.7,0.25,37.9742,-232.4256,-164.53719999999998,175,75
2026-05-09 16:14:53.617,2,-0.15,0.43,1.29,25.8926,47.452,2.8264,175,75
2026-05-09 16:14:53.617,4,-0.36,-0.05,1.19,-14.210799999999999,-2.2954000000000008,-31.7048,175,75
2026-05-09 16:14:53.629,1,-0.92,2.93,-1.02,-157.215,787.6826000000001,-85.3682,175,75
2026-05-09 16:14:53.629,5,0.87,0.73,0.17,59.794200000000004,-248.76559999999998,-100.9872,175,75
2026-05-09 16:14:53.629,2,-0.2,0.49,1.31,24.3026,76.602,2.9564,175,75
2026-05-09 16:14:53.629,4,-0.37,0.0,1.26,-33.900800000000004,-1.5054000000000016,-48.0448,175,75
2026-05-09 16:14:53.643,5,1.38,1.25,0.52,47.0142,-234.1856,-49.557199999999995,175,75
2026-05-09 16:14:53.643,3,0.52,-0.85,-0.24,32.483000000000004,34.8076,-3.0584000000000024,175,75
2026-05-09 16:14:53.643,2,-0.18,0.42,1.4,12.7226,79.892,5.8164,175,75
2026-05-09 16:14:53.643,4,-0.36,-0.03,1.37,-32.2008,-5.2154000000000025,-54.5648,175,75
2026-05-09 16:14:53.653,5,1.62,0.98,0.61,6.3142,-132.7556,21.7528,175,75
2026-05-09 16:14:53.653,3,0.66,-0.49,0.01,40.233000000000004,57.6676,-15.618400000000001,175,75
2026-05-09 16:14:53.653,2,-0.15,0.31,1.48,-0.7574000000000001,55.562,9.8464,175,75
2026-05-09 16:14:53.653,1,0.18,-1.57,4.24,-37.885,302.3126,7.4318,175,75
2026-05-09 16:14:53.653,3,0.35,0.19,0.38,45.103,99.8676,-6.038400000000003,175,75
2026-05-09 16:14:53.653,5,1.0,0.51,0.59,-20.2058,-38.4656,72.5928,175,75
2026-05-09 16:14:53.665,4,-0.36,-0.05,1.5,-22.870800000000003,-16.075400000000002,-60.6648,175,75
2026-05-09 16:14:53.665,2,-0.05,0.3,1.48,-11.3674,3.911999999999999,15.266399999999999,175,75
2026-05-09 16:14:53.665,5,0.62,0.25,0.6,-37.455799999999996,30.7744,101.4628,175,75
2026-05-09 16:14:53.665,4,-0.36,0.01,1.61,-15.0608,-41.3754,-71.8248,175,75
2026-05-09 16:14:53.677,3,-0.01,0.65,0.88,77.303,126.7576,37.7416,175,75
2026-05-09 16:14:53.677,3,0.06,0.21,1.13,95.713,63.6476,78.9616,175,75
2026-05-09 16:14:53.691,1,-0.69,1.13,-0.78,35.345,-323.7174,-38.7882,175,75
2026-05-09 16:14:53.691,5,0.27,-0.03,0.39,-34.6658,88.20439999999999,172.1028,175,75
2026-05-09 16:14:53.691,4,-0.42,0.32,1.68,-9.5108,-115.1554,-93.89479999999999,175,75
2026-05-09 16:14:53.691,3,0.65,-0.63,0.89,43.883,-59.772400000000005,29.6316,175,75
2026-05-09 16:14:53.691,2,-0.05,0.53,1.06,22.8426,-104.198,4.5364,175,75
2026-05-09 16:14:53.701,1,-0.47,0.09,-1.49,33.575,-105.1874,51.641799999999996,175,75
2026-05-09 16:14:53.701,5,0.07,-0.02,0.32,-20.2458,75.1644,207.3428,175,75
2026-05-09 16:14:53.701,2,-0.13,0.61,0.93,30.0926,-107.54799999999999,2.3464,175,75
2026-05-09 16:14:53.701,3,1.19,-0.36,-0.17,-20.017,-79.2824,-36.0384,175,75
2026-05-09 16:14:53.713,5,-0.08,0.03,0.34,-3.7858,40.4844,223.93280000000001,175,75
2026-05-09 16:14:53.713,1,-0.38,-0.68,-0.77,29.795,151.6426,-32.0782,175,75
2026-05-09 16:14:53.713,4,-0.54,0.68,1.54,-8.7208,-152.2354,-105.84479999999999,175,75
2026-05-09 16:14:53.713,2,-0.22,0.7,0.8,35.892599999999995,-95.658,1.1264,175,75
2026-05-09 16:14:53.713,5,-0.18,0.06,0.38,9.4042,-2.4455999999999998,212.18280000000001,175,75
2026-05-09 16:14:53.725,4,-0.56,0.81,1.46,-7.4408,-140.4654,-102.67479999999999,175,75
2026-05-09 16:14:53.725,2,-0.27,0.77,0.72,40.892599999999995,-74.988,-0.03360000000000002,175,75
2026-05-09 16:14:53.725,3,0.79,0.71,-0.31,-40.807,31.5076,-44.0884,175,75
2026-05-09 16:14:53.725,5,-0.06,0.01,0.46,18.9642,-45.0856,191.0328,175,75
2026-05-09 16:14:53.737,2,-0.29,0.81,0.68,45.0926,-49.738,-1.9836,175,75
2026-05-09 16:14:53.737,4,-0.49,0.93,1.39,-1.0408,-117.1754,-95.9148,175,75
2026-05-09 16:14:53.737,1,0.18,0.24,2.11,32.785,103.5326,-13.418199999999999,175,75
2026-05-09 16:14:53.737,2,-0.28,0.85,0.67,48.572599999999994,-25.288,-3.1436,175,75
2026-05-09 16:14:53.737,4,-0.41,0.96,1.35,7.799199999999999,-97.2954,-88.6548,175,75
2026-05-09 16:14:53.753,5,0.23,-0.15,0.56,19.764200000000002,-88.2056,178.5328,175,75
2026-05-09 16:14:53.753,1,0.24,0.15,1.94,21.315,-5.3074,-21.7782,175,75
2026-05-09 16:14:53.753,2,-0.23,0.85,0.68,49.61259999999999,-10.418000000000003,-3.7535999999999996,175,75
2026-05-09 16:14:53.753,4,-0.36,0.91,1.34,15.729199999999999,-76.3754,-82.1348,175,75
2026-05-09 16:14:53.753,3,0.52,0.13,-0.36,-125.507,69.3176,-105.0084,175,75
2026-05-09 16:14:53.763,5,0.22,-0.2,0.5,16.334200000000003,-95.1256,177.5228,175,75
2026-05-09 16:14:53.763,1,0.17,0.19,1.23,2.355,-60.487399999999994,-26.408199999999997,175,75
2026-05-09 16:14:53.763,2,-0.18,0.83,0.7,46.8026,-9.618000000000006,-5.4636,175,75
2026-05-09 16:14:53.763,4,-0.33,0.86,1.35,20.6692,-61.9854,-78.7148,175,75
2026-05-09 16:14:53.763,3,0.58,-0.13,-0.16,-124.287,103.4076,-113.7884,175,75
2026-05-09 16:14:53.774,5,0.14,-0.27,0.37,11.3742,-99.2556,170.0628,175,75
2026-05-09 16:14:53.774,1,0.15,0.31,0.57,-7.645,-49.3274,-19.5182,175,75
2026-05-09 16:14:53.774,5,0.11,-0.2,0.38,7.7242,-99.0956,155.2028,175,75
2026-05-09 16:14:53.777,4,-0.29,0.81,1.36,23.839199999999998,-56.745400000000004,-76.94479999999999,175,75
2026-05-09 16:14:53.792,5,0.06,-0.18,0.29,4.4442,-97.91560000000001,127.0128,175,75
2026-05-09 16:14:53.792,2,-0.18,0.77,0.67,34.1226,-28.768000000000004,-9.0036,175,75
2026-05-09 16:14:53.792,1,0.34,0.38,0.66,-22.095,36.5226,-0.6181999999999999,175,75
2026-05-09 16:14:53.804,4,-0.28,0.79,1.29,25.789199999999997,-58.0254,-76.7648,175,75
2026-05-09 16:14:53.804,1,0.33,0.31,0.86,-27.275,40.8526,4.441800000000001,175,75
2026-05-09 16:14:53.804,3,0.53,-0.31,0.58,-113.18700000000001,108.4676,-133.9084,175,75
2026-05-09 16:14:53.804,2,-0.3,0.71,0.55,29.6126,-16.388,-13.203600000000002,175,75
2026-05-09 16:14:53.804,4,-0.28,0.8,1.23,25.8492,-43.5754,-73.7148,175,75
2026-05-09 16:14:53.818,1,0.21,0.24,1.02,-40.265,21.7626,5.7918,175,75
2026-05-09 16:14:53.818,5,0.21,-0.04,0.13,-12.9558,-73.57560000000001,12.5128,175,75
2026-05-09 16:14:53.818,2,-0.35,0.69,0.52,26.7426,-0.8980000000000032,-12.043600000000001,175,75
2026-05-09 16:14:53.818,4,-0.26,0.79,1.19,26.0992,-23.145400000000002,-70.42479999999999,175,75
2026-05-09 16:14:53.818,1,0.07,0.24,0.96,-53.195,7.012599999999999,9.511800000000001,175,75
2026-05-09 16:14:53.821,3,0.49,-0.15,0.93,-122.267,58.8876,-128.1184,175,75
2026-05-09 16:14:53.831,5,0.34,-0.0,0.12,-21.395799999999998,-55.6956,-13.1272,175,75
2026-05-09 16:14:53.831,2,-0.36,0.68,0.51,22.962600000000002,13.431999999999997,-11.373600000000001,175,75
2026-05-09 16:14:53.831,4,-0.23,0.77,1.19,27.189200000000003,-2.535399999999999,-68.28479999999999,175,75
2026-05-09 16:14:53.831,1,-0.02,0.29,0.82,-68.015,-0.48740000000000006,15.1218,175,75
2026-05-09 16:14:53.833,3,0.52,-0.2,1.08,-131.117,25.4176,-133.6684,175,75
2026-05-09 16:14:53.845,5,0.38,0.06,0.13,-29.0258,-32.1856,-27.3472,175,75
2026-05-09 16:14:53.845,2,-0.35,0.64,0.52,15.5226,30.261999999999997,-8.6936,175,75
2026-05-09 16:14:53.845,4,-0.19,0.73,1.2,28.109199999999998,13.744599999999998,-64.9348,175,75
2026-05-09 16:14:53.845,1,-0.11,0.35,0.71,-84.655,3.9625999999999997,26.7618,175,75
2026-05-09 16:14:53.845,5,0.35,0.08,0.18,-34.0058,-6.3256,-35.3172,175,75
2026-05-09 16:14:53.845,3,0.58,-0.2,1.0,-155.86700000000002,-16.7224,-117.9984,175,75
2026-05-09 16:14:53.856,4,-0.19,0.7,1.26,27.799200000000003,17.644599999999997,-60.7848,175,75
2026-05-09 16:14:53.856,2,-0.32,0.57,0.56,7.412599999999999,43.122,-5.9536,175,75
2026-05-09 16:14:53.856,5,0.24,0.11,0.26,-36.9758,22.8644,-46.517199999999995,175,75
2026-05-09 16:14:53.856,1,-0.2,0.36,0.72,-104.655,30.3026,43.7118,175,75
2026-05-09 16:14:53.866,3,0.42,-0.18,0.78,-168.797,-27.8124,-108.7884,175,75
2026-05-09 16:14:53.866,4,-0.19,0.66,1.31,25.909200000000002,11.674599999999998,-58.0448,175,75
2026-05-09 16:14:53.866,2,-0.3,0.49,0.61,-0.3273999999999999,58.792,-4.1236,175,75
2026-05-09 16:14:53.866,5,0.15,0.12,0.32,-38.8758,53.0444,-64.6172,175,75
2026-05-09 16:14:53.866,1,-0.2,0.36,0.83,-113.925,53.6526,56.581799999999994,175,75
2026-05-09 16:14:53.868,3,0.28,-0.02,0.61,-167.577,24.9276,-118.5384,175,75
2026-05-09 16:14:53.879,4,-0.19,0.63,1.35,22.679199999999998,1.3046000000000006,-54.9948,175,75
2026-05-09 16:14:53.879,3,-2.06,1.11,1.11,-135.077,190.0476,-40.248400000000004,175,75
2026-05-09 16:14:53.880,4,-0.21,0.53,1.34,18.9592,-14.5454,-52.2548,175,75
2026-05-09 16:14:53.893,5,0.07,-0.01,0.39,-37.4858,111.5144,-105.4572,175,75
2026-05-09 16:14:53.893,2,-0.19,0.36,0.77,-15.267399999999999,95.132,-0.6436,175,75
2026-05-09 16:14:53.893,1,-0.05,0.08,1.38,-139.235,63.5326,89.0818,175,75
2026-05-09 16:14:53.893,3,-0.74,0.83,2.39,-56.357,228.8876,16.7616,175,75
2026-05-09 16:14:53.893,5,0.05,0.0,0.43,-34.315799999999996,134.98440000000002,-117.3072,175,75
2026-05-09 16:14:53.903,1,0.05,-0.47,1.48,-142.035,58.2326,94.32180000000001,175,75
2026-05-09 16:14:53.903,4,-0.19,0.4,1.29,13.049199999999999,-18.8154,-50.3048,175,75
2026-05-09 16:14:53.903,3,-0.43,-0.09,3.73,56.383,19.747600000000002,-128.1184,175,75
2026-05-09 16:14:53.904,5,0.14,-0.05,0.46,-28.1058,149.3244,-111.13719999999999,175,75
2026-05-09 16:14:53.915,2,-0.07,0.07,1.17,-29.7774,98.062,-6.8636,175,75
2026-05-09 16:14:53.915,4,-0.24,0.23,1.26,8.109200000000001,-16.3154,-47.8648,175,75
2026-05-09 16:14:53.915,1,0.15,-1.27,1.1,-136.915,9.3826,94.32180000000001,175,75
2026-05-09 16:14:53.915,3,-3.66,1.74,3.85,61.513,274.2576,96.76159999999999,175,75
2026-05-09 16:14:53.915,5,0.34,0.01,0.61,-24.0158,154.05440000000002,-78.74719999999999,175,75
2026-05-09 16:14:53.925,4,-0.34,0.05,1.26,4.0192,-16.9854,-46.7048,175,75
2026-05-09 16:14:53.925,2,0.11,-0.12,1.49,-43.077400000000004,61.111999999999995,-16.503600000000002,175,75
2026-05-09 16:14:53.925,1,0.06,-1.32,0.7,-138.375,35.9726,81.5818,175,75
2026-05-09 16:14:53.925,5,0.77,0.17,0.88,-28.7258,142.3144,-8.0572,175,75
2026-05-09 16:14:53.927,4,-0.46,-0.17,1.24,-2.5008,-15.1554,-46.214800000000004,175,75
2026-05-09 16:14:53.927,3,-7.11,3.46,5.53,290.173,413.5276,502.6116,175,75
2026-05-09 16:14:53.927,2,0.2,-0.29,1.74,-56.7374,17.691999999999997,-15.283600000000002,175,75
2026-05-09 16:14:53.929,1,-0.34,-1.59,0.8,-141.305,86.7026,100.3018,175,75
2026-05-09 16:14:53.945,4,-0.59,-0.46,1.23,-12.7408,-8.8154,-41.2748,175,75
2026-05-09 16:14:53.945,3,1.34,-4.46,6.83,551.6329999999999,-420.0124,-13.668400000000002,175,75
2026-05-09 16:14:53.945,2,0.11,-0.57,1.9,-63.3774,-10.898,-6.3136,175,75
2026-05-09 16:14:53.945,1,-0.49,-1.99,1.14,-177.525,102.9226,111.40180000000001,175,75
2026-05-09 16:14:53.945,4,-0.68,-0.79,1.15,-15.7308,-3.575400000000002,-30.1148,175,75
2026-05-09 16:14:53.954,3,-0.3,-1.18,0.74,-130.197,-320.5624,79.63159999999999,175,75
2026-05-09 16:14:53.954,2,0.05,-0.82,1.89,-60.2074,-17.978000000000005,1.0664,175,75
2026-05-09 16:14:53.954,1,-0.34,-1.6,0.94,-222.465,36.0326,112.1918,175,75
2026-05-09 16:14:53.954,5,1.01,0.47,1.91,-58.2258,71.9344,59.1328,175,75
2026-05-09 16:14:53.954,4,-0.63,-1.2,1.03,-6.7708,8.194600000000001,-16.8248,175,75
2026-05-09 16:14:53.968,2,0.04,-1.04,1.81,-48.3774,-15.778000000000002,1.6664,175,75
2026-05-09 16:14:53.968,1,-0.44,-1.6,-0.0,-275.265,-14.6374,125.3018,175,75
2026-05-09 16:14:53.968,3,0.22,2.26,0.82,-249.52700000000002,253.7676,149.3816,175,75
2026-05-09 16:14:53.968,5,1.08,0.15,1.88,-78.4158,161.0344,60.0628,175,75
2026-05-09 16:14:53.968,4,-0.52,-1.7,0.93,14.449200000000001,39.5346,4.4552,175,75
2026-05-09 16:14:53.974,1,-0.77,-1.56,-0.62,-318.435,-29.577399999999997,127.3118,175,75
2026-05-09 16:14:53.974,3,0.7,1.53,0.2,105.713,-297.6924,149.14159999999998,175,75
2026-05-09 16:14:53.974,2,0.09,-1.11,1.73,-28.4374,16.291999999999998,-14.483600000000001,175,75
2026-05-09 16:14:53.988,2,0.19,-0.93,1.76,-9.7774,47.94199999999999,-31.073600000000003,175,75
2026-05-09 16:14:53.988,5,0.1,-0.52,1.68,-63.4358,248.2144,123.2228,175,75
2026-05-09 16:14:53.988,3,-1.29,0.39,-0.11,178.703,45.5376,122.2516,175,75
2026-05-09 16:14:53.995,4,-0.72,-1.93,1.2,33.4092,93.3146,-3.7748,175,75
2026-05-09 16:14:53.995,5,-0.56,-0.67,1.7,-43.5958,186.05440000000002,150.7628,175,75
2026-05-09 16:14:53.995,1,-0.52,-0.62,-0.32,-290.695,56.4026,141.09179999999998,175,75
2026-05-09 16:14:53.999,2,0.39,-0.52,1.96,21.4426,69.042,-44.6136,175,75
2026-05-09 16:14:53.999,3,-0.32,0.3,1.37,112.423,184.9876,77.61160000000001,175,75
2026-05-09 16:14:54.010,5,-0.86,-0.89,1.74,-15.9558,109.94439999999999,154.1428,175,75
2026-05-09 16:14:54.010,4,-0.85,-1.55,1.34,16.4592,81.7946,-41.2748,175,75
2026-05-09 16:14:54.010,1,0.67,-0.44,-0.31,-262.585,50.6026,114.9918,175,75
2026-05-09 16:14:54.010,2,0.42,-0.32,2.13,39.002599999999994,58.732,-49.6736,175,75
2026-05-09 16:14:54.010,3,-0.12,-0.24,1.75,108.34299999999999,20.9676,59.141600000000004,175,75
2026-05-09 16:14:54.021,4,-0.8,-1.17,1.42,-5.370800000000001,58.9246,-62.9248,175,75
2026-05-09 16:14:54.021,5,-0.99,-0.94,1.92,15.2442,38.0244,131.8028,175,75
2026-05-09 16:14:54.021,2,0.33,-0.28,2.19,41.8026,35.321999999999996,-50.7636,175,75
2026-05-09 16:14:54.021,1,-1.91,-0.15,-1.3,-301.605,-239.93740000000003,77.9218,175,75
2026-05-09 16:14:54.021,4,-0.69,-0.75,1.45,-26.3408,39.8446,-42.8648,175,75
2026-05-09 16:14:54.033,5,-1.01,-0.84,2.0,38.1242,-21.3556,80.3328,175,75
2026-05-09 16:14:54.033,1,-1.85,0.03,-2.25,-333.375,-84.3274,159.6918,175,75
2026-05-09 16:14:54.033,2,0.22,-0.31,2.11,40.892599999999995,-12.118000000000006,-45.5836,175,75
2026-05-09 16:14:54.033,3,-0.24,-0.84,1.97,79.983,-23.8524,72.3716,175,75
2026-05-09 16:14:54.044,5,-0.86,-0.61,2.0,46.3142,-65.99560000000001,-6.0771999999999995,175,75
2026-05-09 16:14:54.044,4,-0.8,-0.49,1.39,-32.070800000000006,41.974599999999995,-9.2648,175,75
2026-05-09 16:14:54.044,4,-0.9,-0.43,1.35,-17.8108,74.4146,12.565199999999999,175,75
2026-05-09 16:14:54.044,5,-0.59,-0.32,2.0,40.114200000000004,-96.54560000000001,-105.0572,175,75
2026-05-09 16:14:54.055,3,-0.48,-0.3,1.57,56.693000000000005,-57.3924,30.4816,175,75
2026-05-09 16:14:54.055,1,-1.01,0.02,-0.42,-311.365,114.8726,166.6418,175,75
2026-05-09 16:14:54.055,2,0.08,-0.17,1.72,38.0226,-93.038,-35.6436,175,75
2026-05-09 16:14:54.055,5,-0.24,-0.2,1.79,35.1442,-112.7256,-165.5172,175,75
2026-05-09 16:14:54.067,3,-0.26,0.1,1.22,53.463,-47.5724,23.041599999999995,175,75
2026-05-09 16:14:54.067,1,-0.53,0.32,0.51,-259.235,141.15259999999998,152.1318,175,75
2026-05-09 16:14:54.067,5,0.17,-0.11,1.56,38.3342,-112.54560000000001,-183.3272,175,75
2026-05-09 16:14:54.067,4,-0.55,-0.76,1.56,-9.700800000000001,101.1246,34.6952,175,75
2026-05-09 16:14:54.077,2,0.07,-0.08,1.49,28.2626,-89.928,-36.133599999999994,175,75
2026-05-09 16:14:54.077,1,0.03,0.34,1.12,-235.205,131.4026,153.8318,175,75
2026-05-09 16:14:54.077,3,-0.36,0.1,1.3,60.532999999999994,-15.5024,27.251599999999996,175,75
2026-05-09 16:14:54.077,5,0.5,-0.04,1.44,44.9442,-97.38560000000001,-160.4572,175,75
2026-05-09 16:14:54.077,4,-0.48,-0.94,1.62,-9.030800000000001,58.6246,31.1652,175,75
2026-05-09 16:14:54.087,1,0.48,0.29,1.62,-217.705,26.4026,107.43180000000001,175,75
2026-05-09 16:14:54.099,4,-0.48,-1.06,1.59,-2.7408,2.9545999999999992,17.0152,175,75
2026-05-09 16:14:54.099,2,0.08,-0.05,1.34,0.7025999999999999,-23.648,-43.1436,175,75
2026-05-09 16:14:54.099,3,-0.27,-0.28,1.64,42.733000000000004,-23.7324,0.791599999999999,175,75
2026-05-09 16:14:54.099,1,0.53,0.39,1.49,-217.585,-46.7074,67.1918,175,75
2026-05-09 16:14:54.116,5,0.56,0.04,1.34,44.3042,16.2444,-52.3272,175,75
2026-05-09 16:14:54.116,1,0.49,0.58,1.35,-204.475,-61.287400000000005,45.6618,175,75
2026-05-09 16:14:54.116,3,-0.28,-0.38,1.62,31.573,-49.0324,-2.1384000000000007,175,75
2026-05-09 16:14:54.116,4,-0.54,-0.94,1.28,-0.3708,-40.8954,0.005199999999999871,175,75
2026-05-09 16:14:54.116,2,0.23,0.04,1.47,-2.8274000000000004,-21.508,-50.8236,175,75
2026-05-09 16:14:54.116,5,0.43,-0.01,1.33,38.794200000000004,55.5444,-27.5972,175,75
2026-05-09 16:14:54.126,3,-0.22,-0.57,1.52,21.573,-67.6324,-2.1983999999999995,175,75
2026-05-09 16:14:54.126,1,0.49,0.78,1.28,-186.665,-86.8974,34.141799999999996,175,75
2026-05-09 16:14:54.126,4,-0.54,-0.74,1.13,-1.5908000000000007,-30.5254,0.3652000000000002,175,75
2026-05-09 16:14:54.126,5,0.26,-0.05,1.35,34.4842,82.1344,-8.6472,175,75
2026-05-09 16:14:54.126,1,0.28,1.05,1.17,-158.985,-114.6374,28.1618,175,75
2026-05-09 16:14:54.136,2,0.13,0.17,1.45,-2.1574,-32.428,-52.1736,175,75
2026-05-09 16:14:54.136,3,-0.15,-0.74,1.33,9.193000000000001,-83.0624,-2.5084000000000017,175,75
2026-05-09 16:14:54.136,4,-0.53,-0.57,0.99,0.4892000000000003,-2.7154000000000025,7.995199999999999,175,75
2026-05-09 16:14:54.136,5,0.03,-0.07,1.39,30.8442,93.5944,-2.4671999999999996,175,75
2026-05-09 16:14:54.147,1,0.16,1.22,1.19,-118.555,-109.6974,29.3218,175,75
2026-05-09 16:14:54.147,4,-0.49,-0.49,0.95,1.8292000000000002,31.184599999999996,18.4752,175,75
2026-05-09 16:14:54.147,3,-0.09,-0.63,1.2,5.593,-84.89240000000001,-12.998400000000002,175,75
2026-05-09 16:14:54.147,5,-0.24,-0.08,1.39,28.584200000000003,86.5244,-13.1272,175,75
2026-05-09 16:14:54.147,1,0.43,1.23,1.3,-60.815,-68.5974,19.2618,175,75
2026-05-09 16:14:54.147,2,-0.11,0.39,1.33,-12.4674,-53.888000000000005,-46.373599999999996,175,75
2026-05-09 16:14:54.159,3,0.06,-0.47,1.13,4.623000000000001,-78.00240000000001,-19.9484,175,75
2026-05-09 16:14:54.159,4,-0.45,-0.45,0.97,0.6692,80.0846,32.0752,175,75
2026-05-09 16:14:54.159,1,0.68,1.1,1.41,2.6550000000000002,-31.287399999999998,-5.7382,175,75
2026-05-09 16:14:54.159,3,0.09,-0.33,1.16,0.7830000000000013,-59.8924,-14.758400000000002,175,75
2026-05-09 16:14:54.159,4,-0.39,-0.45,1.03,-1.9508,110.81460000000001,37.6252,175,75
2026-05-09 16:14:54.170,1,0.76,0.96,1.46,50.955,2.9225999999999996,-27.2582,175,75
2026-05-09 16:14:54.170,4,-0.35,-0.46,1.16,-7.010800000000001,122.6446,37.1952,175,75
2026-05-09 16:14:54.170,2,-0.26,0.52,1.22,-32.88740000000001,-57.548,-27.9036,175,75
2026-05-09 16:14:54.183,5,-0.46,-0.12,1.33,28.8242,19.6844,-87.9072,175,75
2026-05-09 16:14:54.183,1,0.8,0.82,1.56,97.785,46.5226,-48.0582,175,75
2026-05-09 16:14:54.183,3,0.18,-0.57,1.19,-9.826999999999998,-47.022400000000005,-13.9084,175,75
2026-05-09 16:14:54.183,2,-0.34,0.51,1.13,-45.757400000000004,-45.048,-14.6736,175,75
2026-05-09 16:14:54.183,4,-0.32,-0.45,1.28,-13.4808,118.56460000000001,32.2552,175,75
2026-05-09 16:14:54.199,4,-0.3,-0.44,1.36,-17.1408,103.25460000000001,25.9152,175,75
2026-05-09 16:14:54.199,1,0.84,0.79,2.02,177.905,107.9226,-82.92819999999999,175,75
2026-05-09 16:14:54.209,4,-0.27,-0.42,1.43,-18.480800000000002,79.6546,19.455199999999998,175,75
2026-05-09 16:14:54.209,3,0.36,-0.59,1.11,-21.657,-43.8524,-24.5184,175,75
2026-05-09 16:14:54.209,5,-0.18,0.02,1.22,48.3942,-29.6956,-110.10719999999999,175,75
2026-05-09 16:14:54.209,2,-0.4,0.4,1.02,-64.7174,-8.528000000000002,-1.6835999999999998,175,75
2026-05-09 16:14:54.209,1,0.84,0.82,2.26,215.225,93.7826,-93.59819999999999,175,75
2026-05-09 16:14:54.209,4,-0.24,-0.35,1.46,-18.8408,49.8446,12.4452,175,75
2026-05-09 16:14:54.237,2,-0.36,0.37,1.01,-70.0274,9.831999999999997,-1.5635999999999999,175,75
2026-05-09 16:14:54.237,1,0.78,0.77,2.35,244.485,58.5926,-107.2582,175,75
2026-05-09 16:14:54.237,4,-0.22,-0.28,1.46,-17.3208,17.8846,5.975199999999999,175,75
2026-05-09 16:14:54.237,5,-0.11,0.11,1.13,58.5642,-33.6356,-114.43719999999999,175,75
2026-05-09 16:14:54.237,2,-0.29,0.36,1.01,-71.5474,18.791999999999998,-3.9336,175,75
2026-05-09 16:14:54.237,3,0.55,-0.42,0.89,-39.957,-55.9924,-24.0884,175,75
2026-05-09 16:14:54.248,1,0.75,0.68,2.32,268.455,15.1826,-121.4082,175,75
2026-05-09 16:14:54.248,4,-0.23,-0.14,1.43,-12.0708,-22.8454,0.005199999999999871,175,75
2026-05-09 16:14:54.248,5,-0.07,0.13,1.08,58.5342,-32.4756,-109.5872,175,75
2026-05-09 16:14:54.248,3,0.71,-0.42,0.89,-38.187,-71.5924,-13.4784,175,75
2026-05-09 16:14:54.258,1,0.62,0.58,2.12,289.005,-21.5274,-134.0882,175,75
2026-05-09 16:14:54.259,4,-0.24,-0.04,1.38,-4.210800000000001,-45.3454,-4.2048000000000005,175,75
2026-05-09 16:14:54.259,5,-0.04,0.14,1.03,54.7042,-34.0256,-97.2772,175,75
2026-05-09 16:14:54.259,3,0.7,-0.38,0.85,-36.117,-89.5824,-15.7384,175,75
2026-05-09 16:14:54.259,1,0.56,0.46,1.92,307.415,-38.5974,-148.4182,175,75
2026-05-09 16:14:54.259,2,-0.24,0.42,1.05,-64.4774,18.001999999999995,-13.9336,175,75
2026-05-09 16:14:54.259,5,-0.02,0.15,0.94,50.254200000000004,-39.2556,-82.0072,175,75
2026-05-09 16:14:54.271,4,-0.25,0.08,1.33,4.879199999999999,-59.3654,-6.5847999999999995,175,75
2026-05-09 16:14:54.271,3,0.69,-0.16,0.77,-29.767,-83.00240000000001,-17.078400000000002,175,75
2026-05-09 16:14:54.271,1,0.59,0.4,1.82,324.675,-33.9674,-159.4582,175,75
2026-05-09 16:14:54.271,5,-0.0,0.17,0.87,46.0142,-47.9356,-67.46719999999999,175,75
2026-05-09 16:14:54.271,2,-0.26,0.48,1.02,-59.2974,4.891999999999996,-22.0436,175,75
2026-05-09 16:14:54.271,4,-0.25,0.19,1.31,10.729199999999999,-62.7154,-8.9548,175,75
2026-05-09 16:14:54.271,1,0.55,0.39,1.82,338.395,-26.647399999999998,-164.2082,175,75
2026-05-09 16:14:54.284,5,0.03,0.2,0.78,42.7842,-61.5256,-55.767199999999995,175,75
2026-05-09 16:14:54.284,4,-0.25,0.28,1.29,13.659199999999998,-63.0254,-12.1948,175,75
2026-05-09 16:14:54.284,2,-0.36,0.56,0.97,-52.827400000000004,-13.528000000000002,-26.9836,175,75
2026-05-09 16:14:54.284,1,0.48,0.42,1.85,353.145,-32.3174,-156.5882,175,75
2026-05-09 16:14:54.284,5,0.06,0.22,0.69,40.7142,-78.05560000000001,-48.1872,175,75
2026-05-09 16:14:54.295,4,-0.27,0.39,1.29,14.9392,-62.3554,-15.9148,175,75
2026-05-09 16:14:54.295,2,-0.45,0.66,0.89,-47.1574,-20.778000000000002,-26.3136,175,75
2026-05-09 16:14:54.305,3,0.47,0.19,0.32,45.293,-32.5124,-1.2884000000000029,175,75
2026-05-09 16:14:54.305,4,-0.31,0.57,1.31,14.7592,-56.1954,-17.8648,175,75
2026-05-09 16:14:54.305,5,0.15,0.26,0.49,41.3542,-111.96560000000001,-45.1372,175,75
2026-05-09 16:14:54.311,2,-0.47,0.92,0.7,-32.88740000000001,-16.328,-16.3736,175,75
2026-05-09 16:14:54.317,1,0.25,0.54,1.66,392.965,-120.0074,-158.72820000000002,175,75
2026-05-09 16:14:54.317,5,0.22,0.29,0.38,40.754200000000004,-125.7356,-44.267199999999995,175,75
2026-05-09 16:14:54.317,3,0.34,0.28,0.41,144.803,105.9076,27.001599999999996,175,75
2026-05-09 16:14:54.331,2,-0.44,1.06,0.62,-22.4674,2.821999999999999,-12.473600000000001,175,75
2026-05-09 16:14:54.331,5,0.26,0.28,0.25,40.3842,-137.1856,-37.4572,175,75
2026-05-09 16:14:54.331,4,-0.41,1.02,1.38,2.6792,-37.2954,-16.0948,175,75
2026-05-09 16:14:54.331,3,0.55,-0.0,0.79,192.063,147.9176,46.151599999999995,175,75
2026-05-09 16:14:54.331,1,-0.05,0.64,1.25,415.405,-163.0474,-167.0782,175,75
2026-05-09 16:14:54.338,4,-0.46,1.23,1.44,-0.4908000000000001,-29.9154,-11.0348,175,75
2026-05-09 16:14:54.339,2,-0.39,1.1,0.58,-11.667399999999999,53.912,-15.033600000000002,175,75
2026-05-09 16:14:54.352,5,0.52,0.33,0.03,31.1142,-133.3456,-2.1872000000000003,175,75
2026-05-09 16:14:54.352,3,0.61,-0.11,0.9,223.283,161.8176,52.2516,175,75
2026-05-09 16:14:54.352,1,-0.05,0.49,1.13,415.705,-172.50740000000002,-175.12820000000002,175,75
2026-05-09 16:14:54.352,4,-0.58,1.35,1.53,3.2891999999999992,-21.5654,-2.5548,175,75
2026-05-09 16:14:54.352,2,-0.35,1.02,0.59,-4.7174,89.892,-19.183600000000002,175,75
2026-05-09 16:14:54.363,5,0.66,0.35,-0.1,19.2142,-112.7656,30.7728,175,75
2026-05-09 16:14:54.363,1,-0.21,0.11,0.92,408.515,-190.7974,-190.18820000000002,175,75
2026-05-09 16:14:54.363,4,-0.65,1.37,1.61,12.069199999999999,-13.205400000000001,6.715199999999999,175,75
2026-05-09 16:14:54.363,5,0.73,0.33,-0.23,8.0442,-86.93560000000001,67.4928,175,75
2026-05-09 16:14:54.374,3,0.57,-0.03,0.68,231.203,164.5576,80.05160000000001,175,75
2026-05-09 16:14:54.374,2,-0.31,0.93,0.66,6.922599999999999,106.472,-22.4736,175,75
2026-05-09 16:14:54.374,1,-0.47,-0.2,0.61,396.315,-200.5474,-222.9882,175,75
2026-05-09 16:14:54.374,4,-0.69,1.31,1.65,19.2092,-18.8154,11.8352,175,75
2026-05-09 16:14:54.374,5,0.65,0.23,-0.37,3.7541999999999995,-54.5456,105.3228,175,75
2026-05-09 16:14:54.386,1,-0.82,-0.37,0.17,387.535,-176.7074,-247.1382,175,75
2026-05-09 16:14:54.386,3,0.34,0.07,0.73,228.523,180.7776,98.04159999999999,175,75
2026-05-09 16:14:54.386,2,-0.26,0.9,0.73,16.4426,104.952,-25.5836,175,75
2026-05-09 16:14:54.386,5,0.44,0.23,-0.44,16.034200000000002,-32.2556,127.64280000000001,175,75
2026-05-09 16:14:54.389,3,0.31,0.09,0.88,220.783,188.0976,106.76159999999999,175,75
2026-05-09 16:14:54.390,2,-0.17,0.89,0.8,21.8626,94.402,-27.7836,175,75
2026-05-09 16:14:54.403,5,0.11,0.16,-0.33,16.1442,-20.455599999999997,129.1628,175,75
2026-05-09 16:14:54.403,1,-1.36,-0.88,-0.97,353.695,-48.1074,-202.7482,175,75
2026-05-09 16:14:54.403,2,-0.1,0.92,0.84,24.9726,79.342,-29.9736,175,75
2026-05-09 16:14:54.403,4,-0.84,1.11,1.7,21.7092,-30.1554,14.145199999999999,175,75
2026-05-09 16:14:54.403,5,-0.12,0.12,-0.29,18.014200000000002,-18.1356,112.1228,175,75
2026-05-09 16:14:54.409,1,-1.06,-0.98,-1.16,320.155,8.5926,-157.1982,175,75
2026-05-09 16:14:54.409,3,0.06,0.15,1.58,230.783,164.0176,165.7916,175,75
2026-05-09 16:14:54.409,4,-0.93,1.21,1.76,22.7992,-18.9354,18.8452,175,75
2026-05-09 16:14:54.422,5,-0.3,0.08,-0.27,20.8842,-28.0356,84.1928,175,75
2026-05-09 16:14:54.422,3,0.43,-0.53,2.0,219.923,-1.9024,170.6616,175,75
2026-05-09 16:14:54.422,1,-1.09,-0.18,-0.6,279.795,102.2526,-123.7282,175,75
2026-05-09 16:14:54.422,4,-0.95,1.35,1.84,30.119200000000003,-11.8054,28.0552,175,75
2026-05-09 16:14:54.423,2,0.05,1.06,0.96,36.8026,73.372,-33.203599999999994,175,75
2026-05-09 16:14:54.435,1,-0.75,0.12,-0.01,217.295,100.6026,-88.6682,175,75
2026-05-09 16:14:54.435,3,0.49,-0.79,1.9,177.303,-113.61240000000001,136.0316,175,75
2026-05-09 16:14:54.435,4,-0.91,1.39,1.92,42.1892,-25.1554,39.3952,175,75
2026-05-09 16:14:54.435,5,-0.36,0.04,-0.33,23.4742,-67.0856,25.2228,175,75
2026-05-09 16:14:54.435,2,0.12,1.16,1.08,46.4426,80.012,-31.503600000000002,175,75
2026-05-09 16:14:54.438,1,-4.81,0.53,-0.53,122.415,-385.67740000000003,-85.3082,175,75
2026-05-09 16:14:54.454,5,-0.21,-0.07,-0.41,29.244200000000003,-86.96560000000001,18.8328,175,75
2026-05-09 16:14:54.454,3,0.54,-0.33,1.37,134.073,-143.2424,176.7616,175,75
2026-05-09 16:14:54.454,4,-0.92,1.19,1.92,48.7792,-52.785399999999996,46.6552,175,75
2026-05-09 16:14:54.454,2,0.21,1.19,1.27,53.572599999999994,91.662,-32.2936,175,75
2026-05-09 16:14:54.454,1,-15.73,-1.37,-0.06,-53.745,-461.7074,-206.7782,175,75
2026-05-09 16:14:54.454,5,-0.01,-0.27,-0.6,45.3342,-107.0156,38.22280000000001,175,75
2026-05-09 16:14:54.466,3,0.03,-0.29,1.05,122.06299999999999,-145.07240000000002,193.3516,175,75
2026-05-09 16:14:54.466,4,-0.92,0.75,1.84,53.7792,-81.1354,52.3852,175,75
2026-05-09 16:14:54.466,2,0.33,1.02,1.63,56.6226,91.292,-37.593599999999995,175,75
2026-05-09 16:14:54.466,1,16.27,-2.27,-0.77,-380.935,328.5926,1714.0818000000002,175,75
2026-05-09 16:14:54.466,5,1.49,-0.47,-1.17,75.8342,-63.805600000000005,60.0628,175,75
2026-05-09 16:14:54.466,3,-0.36,-0.38,0.95,121.263,-112.0824,181.33159999999998,175,75
2026-05-09 16:14:54.476,4,-0.94,0.23,1.67,61.33919999999999,-104.6154,51.1652,175,75
2026-05-09 16:14:54.476,2,0.38,0.48,2.08,44.3026,57.331999999999994,-45.0336,175,75
2026-05-09 16:14:54.476,1,-5.43,-3.95,-4.66,-88.745,-526.5274,-297.7482,175,75
2026-05-09 16:14:54.476,5,2.0,-0.87,-1.87,120.6042,179.4744,54.662800000000004,175,75
2026-05-09 16:14:54.476,3,-0.75,-0.58,1.02,121.513,-69.4624,153.5316,175,75
2026-05-09 16:14:54.487,2,0.3,-0.09,2.34,21.7426,22.631999999999998,-44.2436,175,75
2026-05-09 16:14:54.487,4,-1.08,-0.63,1.45,71.0992,-121.0154,50.3052,175,75
2026-05-09 16:14:54.487,5,1.6,-1.28,-0.76,196.92419999999998,251.5044,72.9928,175,75
2026-05-09 16:14:54.487,1,-0.9,2.31,-1.67,-293.495,483.9626,189.6318,175,75
2026-05-09 16:14:54.487,3,-0.7,-0.86,1.12,105.59299999999999,-56.9024,83.29159999999999,175,75
2026-05-09 16:14:54.499,2,0.12,-0.89,2.57,-19.9674,-17.978000000000005,-32.9636,175,75
2026-05-09 16:14:54.499,5,0.51,-0.17,0.28,235.24419999999998,251.5044,95.0528,175,75
2026-05-09 16:14:54.499,1,-1.85,1.64,2.65,-425.085,86.6426,140.5418,175,75
2026-05-09 16:14:54.515,4,-0.85,-2.7,1.19,87.1292,-41.805400000000006,120.6752,175,75
2026-05-09 16:14:54.515,5,0.35,0.55,0.54,180.9442,251.5044,85.7328,175,75
2026-05-09 16:14:54.515,2,-0.17,-1.52,2.6,-67.4674,-49.068,-6.6236,175,75
2026-05-09 16:14:54.530,4,-0.67,-3.88,1.23,97.8592,-10.955400000000001,203.23520000000002,175,75
2026-05-09 16:14:54.530,5,0.22,0.64,1.83,101.7142,251.5044,2.5628,175,75
2026-05-09 16:14:54.530,2,-0.39,-1.47,2.26,-69.1674,-48.098,6.3064,175,75
2026-05-09 16:14:54.545,1,-1.48,1.46,-0.08,5.645,-281.9574,3.9018,175,75
2026-05-09 16:14:54.545,5,-1.51,0.35,2.0,54.5542,251.5044,-248.25719999999998,175,75
2026-05-09 16:14:54.545,3,-0.33,0.96,1.22,-36.047,60.5376,-31.288400000000003,175,75
2026-05-09 16:14:54.545,2,-0.2,-0.49,1.79,-6.737399999999999,12.821999999999997,-59.4236,175,75
2026-05-09 16:14:54.557,4,-1.98,-3.29,1.59,87.6792,-68.4554,140.1852,175,75
2026-05-09 16:14:54.557,3,-0.48,1.26,1.48,-61.717,62.1876,-51.8984,175,75
2026-05-09 16:14:54.557,5,-1.44,1.67,2.0,32.7442,251.5044,-248.25719999999998,175,75
2026-05-09 16:14:54.557,2,0.85,-0.01,2.04,31.5026,71.842,-39.7936,175,75
2026-05-09 16:14:54.557,1,-0.73,-1.29,-0.81,-82.275,15.302599999999998,86.40180000000001,175,75
2026-05-09 16:14:54.557,4,-2.28,-2.2,1.61,39.9992,-108.9354,-116.2148,175,75
2026-05-09 16:14:54.570,5,-1.67,2.0,2.0,-146.4958,251.5044,-248.25719999999998,175,75
2026-05-09 16:14:54.570,3,-0.47,1.17,1.67,-106.65700000000001,50.7176,-97.5684,175,75
2026-05-09 16:14:54.570,2,0.67,0.2,2.48,33.2026,156.72199999999998,17.0364,175,75
2026-05-09 16:14:54.570,5,-2.0,2.0,2.0,-207.22580000000002,251.5044,-248.25719999999998,175,75
2026-05-09 16:14:54.570,4,-1.02,-1.93,1.56,-43.660799999999995,-99.2454,-264.3248,175,75
2026-05-09 16:14:54.570,3,-0.25,1.06,1.7,-170.197,7.6676,-138.9084,175,75
2026-05-09 16:14:54.583,2,0.23,-0.33,2.87,-19.3574,153.672,-30.343600000000002,175,75
2026-05-09 16:14:54.583,4,1.41,-1.35,1.78,-104.8208,-77.1754,-121.94479999999999,175,75
2026-05-09 16:14:54.583,5,-2.0,0.09,2.0,-219.32580000000002,-25.0856,-248.25719999999998,175,75
2026-05-09 16:14:54.583,3,-0.15,1.18,1.66,-217.937,-15.862400000000001,-167.6284,175,75
2026-05-09 16:14:54.583,1,-0.82,0.28,0.39,-8.625,75.1226,40.1218,175,75
2026-05-09 16:14:54.583,5,-2.0,-1.03,2.0,-190.44580000000002,-183.9756,-248.25719999999998,175,75
2026-05-09 16:14:54.594,3,-0.05,1.37,1.64,-250.137,-31.2324,-178.8484,175,75
2026-05-09 16:14:54.594,1,-0.89,-0.72,0.11,25.285,100.4826,2.7418,175,75
2026-05-09 16:14:54.594,4,-0.73,-1.15,1.05,-31.8308,-32.9654,69.21520000000001,175,75
2026-05-09 16:14:54.594,3,0.06,1.51,1.58,-276.11699999999996,-71.9624,-182.8684,175,75
2026-05-09 16:14:54.594,5,-2.0,-0.63,2.0,-86.4458,-170.5356,252.0128,175,75
2026-05-09 16:14:54.599,4,-0.4,-1.67,1.14,14.819199999999999,-33.2054,4.635199999999999,175,75
2026-05-09 16:14:54.599,3,-0.05,1.51,1.5,-281.787,-90.4424,-185.3684,175,75
2026-05-09 16:14:54.621,2,-0.1,-0.19,2.03,-36.3674,-163.39800000000002,18.566399999999998,175,75
2026-05-09 16:14:54.621,1,-0.41,-0.7,0.18,32.905,70.4826,-24.5782,175,75
2026-05-09 16:14:54.621,3,-0.11,1.32,1.34,-292.697,-79.64240000000001,-187.5684,175,75
2026-05-09 16:14:54.621,5,-1.78,0.4,2.0,-82.6458,84.94439999999999,252.0128,175,75
2026-05-09 16:14:54.621,2,-0.12,-0.34,1.73,-48.687400000000004,-154.49800000000002,26.1864,175,75
2026-05-09 16:14:54.621,4,-0.21,-1.37,1.49,-20.7908,-34.6754,-4.3848,175,75
2026-05-09 16:14:54.621,1,-0.18,-1.16,0.43,48.085,102.1926,-13.3582,175,75
2026-05-09 16:14:54.630,5,-1.58,0.53,2.0,-89.7058,-98.5856,252.0128,175,75
2026-05-09 16:14:54.630,2,-0.24,-0.51,1.45,-78.0174,-108.948,17.7064,175,75
2026-05-09 16:14:54.630,1,-0.05,-1.84,0.7,58.335,98.1026,-10.368199999999998,175,75
2026-05-09 16:14:54.645,5,-2.0,0.93,2.0,-193.1158,-248.76559999999998,252.0128,175,75
2026-05-09 16:14:54.645,2,-0.31,-0.56,1.22,-95.20739999999999,-28.458000000000002,-0.2836,175,75
2026-05-09 16:14:54.645,4,-0.3,-0.62,1.32,-26.3408,-67.5954,-37.0648,175,75
2026-05-09 16:14:54.645,3,-0.78,0.85,1.7,-306.597,19.2576,-212.44840000000002,175,75
2026-05-09 16:14:54.645,5,-0.31,-0.4,2.0,-250.6558,-248.76559999999998,252.0128,175,75
2026-05-09 16:14:54.649,4,-0.19,-0.29,1.28,-6.460800000000001,-63.0254,-19.7548,175,75
2026-05-09 16:14:54.660,2,-0.19,-0.47,1.14,-80.6974,39.402,-8.393600000000001,175,75
2026-05-09 16:14:54.660,1,0.25,-2.14,1.48,41.375,146.7626,-11.4682,175,75
2026-05-09 16:14:54.660,3,-3.71,1.78,2.66,-212.08700000000002,308.5276,-121.0384,175,75
2026-05-09 16:14:54.660,5,0.82,-1.33,1.02,-250.6558,-248.76559999999998,252.0128,175,75
2026-05-09 16:14:54.660,2,-0.11,-0.35,1.2,-54.5974,54.952,-8.633600000000001,175,75
2026-05-09 16:14:54.660,4,-0.21,-0.09,1.26,3.2292000000000005,-34.7354,-0.11480000000000024,175,75
2026-05-09 16:14:54.665,1,0.33,-1.61,2.11,52.175,192.49259999999998,-5.7982000000000005,175,75
2026-05-09 16:14:54.665,3,-4.52,2.0,4.74,82.423,480.3576,51.3316,175,75
2026-05-09 16:14:54.666,5,0.68,-1.49,0.61,-250.6558,-248.76559999999998,252.0128,175,75
2026-05-09 16:14:54.680,2,-0.05,-0.24,1.27,-42.5874,41.902,-14.363600000000002,175,75
2026-05-09 16:14:54.680,5,0.06,-1.21,0.54,-250.6558,-248.76559999999998,252.0128,175,75
2026-05-09 16:14:54.680,1,0.61,-0.78,2.77,51.805,200.06259999999997,6.5818,175,75
2026-05-09 16:14:54.680,2,-0.05,-0.16,1.25,-43.13740000000001,24.162,-18.573600000000003,175,75
2026-05-09 16:14:54.682,4,-0.05,0.03,1.37,4.6892,-10.095400000000001,7.745199999999999,175,75
2026-05-09 16:14:54.695,5,-0.69,-0.91,0.57,-250.6558,-248.76559999999998,163.5728,175,75
2026-05-09 16:14:54.695,1,0.41,0.02,2.78,52.965,185.6726,7.6818,175,75
2026-05-09 16:14:54.695,3,-0.79,-1.56,7.92,277.543,-478.8524,-358.7284,175,75
2026-05-09 16:14:54.695,4,-0.05,0.1,1.41,8.409199999999998,-29.0054,10.6752,175,75
2026-05-09 16:14:54.695,5,-0.91,-0.75,0.6,-226.53580000000002,-244.8756,-82.35719999999999,175,75
2026-05-09 16:14:54.706,2,-0.15,-0.03,1.12,-40.38740000000001,3.1219999999999963,-20.1536,175,75
2026-05-09 16:14:54.706,1,0.18,0.3,2.54,48.265,122.8626,16.5218,175,75
2026-05-09 16:14:54.706,3,3.18,1.75,1.39,-481.35699999999997,-911.3524,236.33159999999998,175,75
2026-05-09 16:14:54.706,5,-0.84,-0.67,0.51,-179.6158,-169.4356,-248.25719999999998,175,75
2026-05-09 16:14:54.706,2,-0.3,0.1,0.92,-27.7674,-9.438000000000006,-19.8536,175,75
2026-05-09 16:14:54.719,3,-2.48,2.14,-1.21,-715.3770000000001,-718.7324,30.721600000000002,175,75
2026-05-09 16:14:54.719,2,-0.42,0.19,0.79,-15.5774,-11.388000000000002,-19.3636,175,75
2026-05-09 16:14:54.719,4,-0.11,0.26,1.35,4.1492,-35.6454,15.5552,175,75
2026-05-09 16:14:54.732,2,-0.5,0.29,0.69,-4.167400000000001,-3.5280000000000022,-17.843600000000002,175,75
2026-05-09 16:14:54.732,5,-0.71,-0.28,0.03,-50.5158,-103.0356,-248.25719999999998,175,75
2026-05-09 16:14:54.732,3,-0.18,2.61,-4.71,-380.507,22.727600000000002,-297.0184,175,75
2026-05-09 16:14:54.732,4,-0.11,0.35,1.32,-0.1208000000000009,-20.5854,20.9752,175,75
2026-05-09 16:14:54.744,5,-0.55,-0.02,-0.15,-1.8158,-96.88560000000001,-248.25719999999998,175,75
2026-05-09 16:14:54.744,2,-0.43,0.43,0.61,6.0725999999999996,10.801999999999998,-15.4036,175,75
2026-05-09 16:14:54.744,3,1.13,2.47,-1.56,188.343,273.5276,3.961599999999997,175,75
2026-05-09 16:14:54.744,4,-0.13,0.45,1.32,-1.1008000000000004,-6.985400000000002,24.8852,175,75
2026-05-09 16:14:54.744,1,-0.42,0.56,0.56,-108.865,78.1026,68.96180000000001,175,75
2026-05-09 16:14:54.757,3,-0.43,0.95,-0.36,179.493,353.7076,36.1516,175,75
2026-05-09 16:14:54.757,2,-0.15,0.59,0.56,9.0026,14.461999999999998,-13.143600000000001,175,75
2026-05-09 16:14:54.757,4,-0.1,0.59,1.33,0.969199999999999,13.924599999999998,30.6152,175,75
2026-05-09 16:14:54.757,5,-0.19,0.7,-0.69,23.8042,-118.3356,-248.25719999999998,175,75
2026-05-09 16:14:54.757,1,0.37,0.72,1.33,-52.275,165.12259999999998,74.3818,175,75
2026-05-09 16:14:54.759,2,-0.04,0.69,0.54,9.1226,11.171999999999997,-18.5136,175,75
2026-05-09 16:14:54.774,5,0.0,0.87,-1.34,36.3742,-166.5356,-248.25719999999998,175,75
2026-05-09 16:14:54.774,3,-0.55,-0.56,2.99,266.45300000000003,543.1576,-55.498400000000004,175,75
2026-05-09 16:14:54.774,1,0.6,0.63,2.1,8.395,86.2126,50.9118,175,75
2026-05-09 16:14:54.774,2,-0.08,0.75,0.52,15.2826,18.912,-28.5136,175,75
2026-05-09 16:14:54.784,5,0.95,0.22,-1.52,81.3042,-206.6856,-248.25719999999998,175,75
2026-05-09 16:14:54.784,4,-0.07,0.77,1.38,6.2791999999999994,63.4346,38.4152,175,75
2026-05-09 16:14:54.784,1,0.57,0.62,2.12,34.675,89.1426,45.3018,175,75
2026-05-09 16:14:54.784,3,-0.03,-1.1,4.33,241.93300000000002,215.4776,-71.4084,175,75
2026-05-09 16:14:54.784,2,-0.13,0.72,0.49,24.8526,20.871999999999996,-34.3636,175,75
2026-05-09 16:14:54.791,5,1.02,0.84,-1.98,134.40419999999997,-201.0656,-248.25719999999998,175,75
2026-05-09 16:14:54.791,1,0.74,0.71,2.21,39.735,77.9226,30.791800000000002,175,75
2026-05-09 16:14:54.791,4,-0.01,0.83,1.4,6.3392,88.0146,38.1752,175,75
2026-05-09 16:14:54.791,3,0.99,-0.03,3.44,-49.346999999999994,10.1076,-87.1384,175,75
2026-05-09 16:14:54.803,5,-0.09,0.93,-1.04,117.8942,-221.8356,-196.6472,175,75
2026-05-09 16:14:54.803,1,0.69,0.99,2.24,60.585,49.9926,16.1518,175,75
2026-05-09 16:14:54.803,4,-0.02,0.87,1.42,6.5192,103.8646,35.9752,175,75
2026-05-09 16:14:54.803,3,0.91,0.98,1.44,-87.457,-212.7524,-23.058400000000002,175,75
2026-05-09 16:14:54.803,2,-0.37,0.61,0.44,33.0826,9.711999999999998,-43.2636,175,75
2026-05-09 16:14:54.814,5,-0.63,0.66,-0.32,62.3442,-248.76559999999998,-150.3972,175,75
2026-05-09 16:14:54.814,4,-0.05,0.88,1.46,6.889199999999999,118.74459999999999,31.465200000000003,175,75
2026-05-09 16:14:54.814,1,0.62,1.13,2.04,90.895,33.9026,9.1418,175,75
2026-05-09 16:14:54.814,3,0.53,0.54,0.47,-43.917,-175.07240000000002,17.001599999999996,175,75
2026-05-09 16:14:54.814,2,-0.46,0.6,0.4,28.3926,10.381999999999998,-46.623599999999996,175,75
2026-05-09 16:14:54.814,5,-0.59,0.51,-0.07,13.2142,-248.76559999999998,-115.13719999999999,175,75
2026-05-09 16:14:54.822,4,-0.09,0.89,1.53,8.8992,135.8146,26.1052,175,75
2026-05-09 16:14:54.822,3,0.47,-0.12,0.01,-11.477,-54.342400000000005,32.3116,175,75
2026-05-09 16:14:54.834,1,0.53,1.24,1.82,126.685,24.4526,-3.4782,175,75
2026-05-09 16:14:54.834,5,-0.13,0.21,0.18,-21.7858,-248.76559999999998,-63.477199999999996,175,75
2026-05-09 16:14:54.834,4,-0.09,0.88,1.59,13.289200000000001,139.4146,21.2252,175,75
2026-05-09 16:14:54.834,1,0.44,1.28,1.63,155.035,8.352599999999999,-10.618199999999998,175,75
2026-05-09 16:14:54.834,2,-0.5,0.62,0.36,22.2326,19.281999999999996,-48.0836,175,75
2026-05-09 16:14:54.834,5,0.12,0.19,0.38,-55.4458,-236.5256,-26.8372,175,75
2026-05-09 16:14:54.846,3,0.61,-0.4,0.18,41.693,34.3776,21.7016,175,75
2026-05-09 16:14:54.846,4,-0.13,0.88,1.65,19.0192,129.5346,16.4652,175,75
2026-05-09 16:14:54.846,1,0.38,1.22,1.44,176.625,-7.3174,-16.958199999999998,175,75
2026-05-09 16:14:54.846,5,0.24,0.19,0.42,-85.8958,-142.26559999999998,-7.6172,175,75
2026-05-09 16:14:54.846,3,0.88,-0.34,0.79,88.88300000000001,84.8076,15.971600000000002,175,75
2026-05-09 16:14:54.858,4,-0.17,0.88,1.69,26.0992,114.0446,11.2852,175,75
2026-05-09 16:14:54.858,2,-0.51,0.56,0.34,13.6326,71.842,-44.1836,175,75
2026-05-09 16:14:54.858,5,0.2,0.08,0.27,-97.5358,-36.2056,-12.1572,175,75
2026-05-09 16:14:54.858,1,0.39,1.01,1.23,194.735,-25.5474,-30.558199999999996,175,75
2026-05-09 16:14:54.858,3,1.22,-0.11,1.37,103.40299999999999,74.13759999999999,34.751599999999996,175,75
2026-05-09 16:14:54.869,4,-0.19,0.88,1.7,36.709199999999996,90.7546,5.2452000000000005,175,75
2026-05-09 16:14:54.869,2,-0.51,0.53,0.36,14.8526,97.822,-42.4736,175,75
2026-05-09 16:14:54.869,5,0.24,0.11,0.02,-99.1758,70.1644,-37.167199999999994,175,75
2026-05-09 16:14:54.869,1,0.32,0.83,1.01,206.565,-40.547399999999996,-48.7882,175,75
2026-05-09 16:14:54.869,2,-0.49,0.52,0.4,16.1926,111.412,-39.9736,175,75
2026-05-09 16:14:54.875,5,0.31,0.26,-0.14,-95.2058,169.11440000000002,-53.0672,175,75
2026-05-09 16:14:54.887,1,0.3,0.71,0.87,210.095,-27.3774,-65.12819999999999,175,75
2026-05-09 16:14:54.887,3,1.21,-0.2,1.41,121.38299999999998,-46.592400000000005,78.7716,175,75
2026-05-09 16:14:54.887,2,-0.48,0.52,0.46,15.2826,118.492,-35.8236,175,75
2026-05-09 16:14:54.887,4,-0.21,0.76,1.58,54.9392,40.754599999999996,-9.0248,175,75
2026-05-09 16:14:54.887,5,0.49,0.44,-0.24,-96.0758,251.5044,-34.8872,175,75
2026-05-09 16:14:54.887,1,0.31,0.66,0.83,213.635,-16.7674,-78.4782,175,75
2026-05-09 16:14:54.893,3,1.01,-0.2,1.1,141.38299999999998,-56.1124,87.3116,175,75
2026-05-09 16:14:54.893,4,-0.25,0.73,1.52,58.6592,30.6346,-16.0348,175,75
2026-05-09 16:14:54.893,2,-0.47,0.54,0.51,13.3926,118.792,-31.253600000000002,175,75
2026-05-09 16:14:54.894,5,0.54,0.45,-0.24,-97.2058,251.5044,1.4328,175,75
2026-05-09 16:14:54.909,3,0.88,-0.23,0.95,167.363,-40.132400000000004,96.76159999999999,175,75
2026-05-09 16:14:54.909,5,0.44,0.55,-0.25,-104.3858,251.5044,32.2428,175,75
2026-05-09 16:14:54.909,4,-0.3,0.73,1.44,61.459199999999996,29.904600000000002,-23.7748,175,75
2026-05-09 16:14:54.909,2,-0.41,0.6,0.56,11.3726,114.58200000000001,-26.1336,175,75
2026-05-09 16:14:54.921,4,-0.35,0.75,1.42,62.929199999999994,32.8846,-28.5348,175,75
2026-05-09 16:14:54.921,5,0.28,0.55,-0.26,-111.4458,251.5044,50.7428,175,75
2026-05-09 16:14:54.921,1,1.01,0.27,1.03,206.195,79.0226,-84.2782,175,75
2026-05-09 16:14:54.921,2,-0.4,0.71,0.63,9.5426,115.502,-18.2636,175,75
2026-05-09 16:14:54.921,4,-0.4,0.75,1.43,64.75919999999999,35.934599999999996,-32.7448,175,75
2026-05-09 16:14:54.933,5,0.29,0.47,-0.3,-116.0758,251.5044,60.622800000000005,175,75
2026-05-09 16:14:54.933,1,-0.33,0.43,0.69,171.505,-126.8274,-62.19820000000001,175,75
2026-05-09 16:14:54.933,2,-0.4,0.81,0.7,8.7526,123.062,-9.303600000000001,175,75
2026-05-09 16:14:54.933,3,0.51,-0.34,0.72,189.683,-4.2824,115.54159999999999,175,75
2026-05-09 16:14:54.933,5,0.45,0.32,-0.41,-111.5958,251.5044,84.03280000000001,175,75
2026-05-09 16:14:54.940,1,-6.55,0.71,-0.45,45.585,-899.5774,-125.48819999999999,175,75
2026-05-09 16:14:54.940,4,-0.47,0.73,1.48,67.61919999999999,32.8846,-35.7248,175,75
2026-05-09 16:14:54.940,2,-0.3,0.92,0.86,9.6726,133.00199999999998,0.6963999999999999,175,75
2026-05-09 16:14:54.953,5,0.56,0.16,-0.42,-93.3058,251.5044,130.0828,175,75
2026-05-09 16:14:54.953,1,-10.63,-0.14,-3.82,-15.265,-392.1974,-10.188199999999998,175,75
2026-05-09 16:14:54.953,3,-0.06,-0.53,0.66,192.97299999999998,90.1676,130.2416,175,75
2026-05-09 16:14:54.953,2,-0.16,1.01,1.14,16.072599999999998,135.682,9.356399999999999,175,75
2026-05-09 16:14:54.966,5,0.6,0.09,-0.45,-62.5358,251.5044,187.2528,175,75
2026-05-09 16:14:54.966,1,7.14,0.71,-6.31,-194.905,-373.7174,1219.3218000000002,175,75
2026-05-09 16:14:54.966,4,-0.7,0.51,1.54,64.8792,-2.6554,-35.5448,175,75
2026-05-09 16:14:54.966,5,0.59,0.34,-0.44,-37.2758,251.5044,233.5728,175,75
2026-05-09 16:14:54.966,4,-0.87,0.34,1.56,63.599199999999996,-15.5854,-32.9248,175,75
2026-05-09 16:14:54.977,3,-0.44,-0.9,0.79,189.803,205.8376,120.91159999999999,175,75
2026-05-09 16:14:54.977,5,0.76,0.26,0.25,-16.9058,251.5044,252.0128,175,75
2026-05-09 16:14:54.988,4,-1.04,-0.02,1.51,60.9692,-25.895400000000002,-28.5948,175,75
2026-05-09 16:14:54.988,2,0.05,0.59,1.9,-6.3674,80.682,-6.3736,175,75
2026-05-09 16:14:54.988,1,2.68,0.25,0.69,-234.045,190.3626,254.5118,175,75
2026-05-09 16:14:54.988,4,-1.18,-0.5,1.45,57.61919999999999,-36.3754,-25.974800000000002,175,75
2026-05-09 16:14:54.990,3,-0.93,-1.16,1.15,183.213,242.9176,72.55160000000001,175,75
2026-05-09 16:14:55.008,5,1.01,-1.16,2.0,-49.1458,-248.76559999999998,252.0128,175,75
2026-05-09 16:14:55.008,1,-0.87,-4.42,1.72,-75.205,105.1226,57.0118,175,75
2026-05-09 16:14:55.008,4,-1.31,-1.12,1.39,50.4892,-48.5754,-14.4448,175,75
2026-05-09 16:14:55.008,3,-1.26,-0.86,1.59,193.823,234.8076,-5.618400000000001,175,75
2026-05-09 16:14:55.018,4,-1.42,-1.94,1.37,46.949200000000005,-47.175399999999996,24.3952,175,75
2026-05-09 16:14:55.018,5,0.46,-0.7,1.75,-34.3358,-105.77560000000001,252.0128,175,75
2026-05-09 16:14:55.018,3,-0.43,-0.9,1.96,144.743,155.7776,-71.58840000000001,175,75
2026-05-09 16:14:55.028,4,-1.46,-2.66,1.4,49.6292,-40.6454,73.60520000000001,175,75
2026-05-09 16:14:55.028,1,-0.3,0.64,-1.14,-89.655,-179.5774,-17.4482,175,75
2026-05-09 16:14:55.028,5,-0.13,-0.65,1.74,-28.8158,51.6744,193.0328,175,75
2026-05-09 16:14:55.028,1,-1.1,0.84,-1.38,-92.585,-10.737400000000001,84.4418,175,75
2026-05-09 16:14:55.039,2,-0.69,-0.64,2.33,-96.9174,-39.068,8.7464,175,75
2026-05-09 16:14:55.039,4,-1.75,-3.1,1.53,44.819199999999995,-58.2654,104.0852,175,75
2026-05-09 16:14:55.039,5,-0.34,-0.75,2.0,-19.8558,227.7844,31.212799999999998,175,75
2026-05-09 16:14:55.039,3,-0.28,0.13,1.31,8.213000000000001,60.9676,-48.6084,175,75
2026-05-09 16:14:55.050,2,-0.48,-0.51,2.23,-79.2374,3.1819999999999986,13.376399999999999,175,75
2026-05-09 16:14:55.050,4,-2.22,-2.66,1.59,14.569199999999999,-99.4854,33.4152,175,75
2026-05-09 16:14:55.050,5,-0.26,-1.01,2.0,-7.005800000000001,251.5044,-180.5872,175,75
2026-05-09 16:14:55.050,1,-1.23,0.21,-0.4,-0.7549999999999999,160.5426,38.1018,175,75
2026-05-09 16:14:55.064,5,-0.71,-1.05,2.0,0.01419999999999999,251.5044,-248.25719999999998,175,75
2026-05-09 16:14:55.064,3,-0.69,0.15,0.99,-65.507,35.047599999999996,-121.89840000000001,175,75
2026-05-09 16:14:55.064,4,-1.59,-1.66,1.41,-72.0108,-93.4554,-166.2148,175,75
2026-05-09 16:14:55.074,5,-1.53,-1.4,2.0,13.754199999999999,251.5044,-248.25719999999998,175,75
2026-05-09 16:14:55.075,2,-0.38,-0.81,2.3,-88.1374,122.392,12.886399999999998,175,75
2026-05-09 16:14:55.075,1,-1.11,-0.36,0.39,55.835,98.3526,-8.728200000000001,175,75
2026-05-09 16:14:55.075,4,-0.46,-1.21,1.39,-88.9008,-65.0954,-145.3048,175,75
2026-05-09 16:14:55.075,3,-0.52,0.36,1.07,-108.06700000000001,25.1676,-167.2584,175,75
2026-05-09 16:14:55.084,5,-2.0,-1.68,2.0,91.6742,251.5044,-248.25719999999998,175,75
2026-05-09 16:14:55.084,2,-0.38,-0.89,2.39,-91.36739999999999,143.612,2.5264,175,75
2026-05-09 16:14:55.084,1,-1.32,-0.44,0.3,64.485,53.2926,-43.2982,175,75
2026-05-09 16:14:55.084,4,-0.16,-0.59,1.39,-92.5608,-50.8254,23.2952,175,75
2026-05-09 16:14:55.084,5,-2.0,-0.88,2.0,169.18419999999998,251.5044,-248.25719999999998,175,75
2026-05-09 16:14:55.095,2,-0.39,-0.84,2.38,-78.5574,134.402,-2.4736,175,75
2026-05-09 16:14:55.095,3,-0.29,0.59,1.15,-167.14700000000002,-12.692400000000001,-174.1484,175,75
2026-05-09 16:14:55.095,4,-0.77,-0.44,1.22,-60.1208,-19.6154,97.8652,175,75
2026-05-09 16:14:55.095,5,-2.0,0.18,2.0,186.0742,56.0244,-238.6472,175,75
2026-05-09 16:14:55.108,2,-0.44,-0.64,2.22,-64.1074,110.012,-10.5236,175,75
2026-05-09 16:14:55.108,3,-0.27,0.53,1.11,-204.767,-64.4024,-176.10840000000002,175,75
2026-05-09 16:14:55.108,1,-1.24,-1.24,0.4,114.005,82.2526,-65.73819999999999,175,75
2026-05-09 16:14:55.108,4,-0.81,-0.73,1.13,-9.0908,34.1746,35.2452,175,75
2026-05-09 16:14:55.108,2,-0.47,-0.47,2.04,-64.7174,101.412,-15.823600000000003,175,75
2026-05-09 16:14:55.119,3,-0.13,0.35,1.08,-238.977,-97.5724,-193.7884,175,75
2026-05-09 16:14:55.119,5,-2.0,0.65,2.0,95.3642,-248.76559999999998,-158.5572,175,75
2026-05-09 16:14:55.119,4,-0.48,-0.82,1.31,-5.9808,65.4546,6.5852,175,75
2026-05-09 16:14:55.119,1,-0.47,-1.27,0.96,131.505,162.0726,-56.0382,175,75
2026-05-09 16:14:55.119,2,-0.48,-0.27,1.81,-71.7374,91.412,-18.8136,175,75
2026-05-09 16:14:55.126,4,-0.26,-0.57,1.42,-29.3908,105.02459999999999,19.6952,175,75
2026-05-09 16:14:55.126,5,-2.0,0.37,1.84,67.2642,-248.76559999999998,-65.4272,175,75
2026-05-09 16:14:55.144,5,-0.78,0.14,1.29,72.1842,-248.76559999999998,48.122800000000005,175,75
2026-05-09 16:14:55.144,4,-0.29,-0.21,1.44,-45.3708,126.24459999999999,26.4052,175,75
2026-05-09 16:14:55.144,1,0.45,-1.0,3.17,106.075,349.8126,19.0818,175,75
2026-05-09 16:14:55.144,2,-0.34,-0.15,1.53,-91.7374,39.162,-18.0836,175,75
2026-05-09 16:14:55.144,5,0.44,0.12,1.03,83.7942,-248.76559999999998,135.1928,175,75
2026-05-09 16:14:55.156,4,-0.3,0.25,1.5,-39.4508,131.6746,13.725200000000001,175,75
2026-05-09 16:14:55.156,3,0.17,0.24,0.9,-324.037,-158.1824,-199.94840000000002,175,75
2026-05-09 16:14:55.156,1,0.18,-0.63,3.33,22.655,315.1226,45.2418,175,75
2026-05-09 16:14:55.156,2,-0.16,-0.09,1.43,-97.64739999999999,1.4719999999999978,-24.1236,175,75
2026-05-09 16:14:55.156,5,0.94,0.25,0.79,81.2842,-248.76559999999998,221.1528,175,75
2026-05-09 16:14:55.156,3,0.3,0.22,0.88,-333.54699999999997,-146.29240000000001,-204.88840000000002,175,75
2026-05-09 16:14:55.166,1,-0.51,0.01,2.3,-70.445,222.9826,42.251799999999996,175,75
2026-05-09 16:14:55.166,2,0.07,0.1,1.28,-95.5774,-49.988,-39.6136,175,75
2026-05-09 16:14:55.166,5,1.25,0.21,0.22,78.0942,-248.76559999999998,252.0128,175,75
2026-05-09 16:14:55.166,3,0.46,0.14,0.86,-349.287,-125.25240000000001,-200.4284,175,75
2026-05-09 16:14:55.178,1,-0.98,0.12,0.55,-184.715,165.9726,87.1318,175,75
2026-05-09 16:14:55.178,4,-0.24,1.21,1.78,-18.050800000000002,139.9046,33.4152,175,75
2026-05-09 16:14:55.178,5,1.99,0.2,-0.51,75.0942,-248.76559999999998,252.0128,175,75
2026-05-09 16:14:55.178,3,0.55,0.02,0.83,-362.027,-113.4224,-191.8384,175,75
2026-05-09 16:14:55.178,1,-1.59,-0.53,-1.11,-331.915,152.31259999999997,176.3318,175,75
2026-05-09 16:14:55.185,2,0.01,0.53,0.99,-72.3474,-113.64800000000001,-50.8236,175,75
2026-05-09 16:14:55.185,4,-0.15,1.38,1.86,-13.5408,135.8746,37.6852,175,75
2026-05-09 16:14:55.185,5,2.0,0.37,-1.72,71.2542,-248.76559999999998,252.0128,175,75
2026-05-09 16:14:55.199,1,-1.61,-2.18,-1.59,-435.445,283.4126,265.2418,175,75
2026-05-09 16:14:55.199,5,1.75,-0.13,-2.0,81.5642,-218.1856,252.0128,175,75
2026-05-09 16:14:55.199,2,-0.16,0.74,0.85,-53.8074,-134.37800000000001,-53.7536,175,75
2026-05-09 16:14:55.210,4,0.02,1.24,1.86,-2.5608000000000004,114.53460000000001,42.8052,175,75
2026-05-09 16:14:55.210,1,-0.61,-3.18,0.35,-456.425,345.7326,290.97180000000003,175,75
2026-05-09 16:14:55.210,5,-0.18,-0.33,-1.72,71.02420000000001,-161.1556,137.3828,175,75
2026-05-09 16:14:55.210,3,0.93,-0.25,1.25,-324.647,-64.8924,-211.3484,175,75
2026-05-09 16:14:55.210,4,0.05,1.11,1.81,3.1692,111.12459999999999,39.7552,175,75
2026-05-09 16:14:55.221,1,-0.69,-2.32,0.51,-473.625,47.7426,186.09179999999998,175,75
2026-05-09 16:14:55.221,3,0.78,-0.12,1.27,-333.85699999999997,-53.062400000000004,-205.85840000000002,175,75
2026-05-09 16:14:55.221,2,-0.24,0.64,0.68,-48.9874,-144.068,-45.0336,175,75
2026-05-09 16:14:55.221,4,0.04,1.01,1.78,4.2692,120.2046,31.8352,175,75
2026-05-09 16:14:55.229,5,-1.35,-0.71,-1.04,81.7842,-248.76559999999998,-34.7872,175,75
2026-05-09 16:14:55.229,1,-0.61,-1.43,-0.57,-542.275,179.75259999999997,168.2918,175,75
2026-05-09 16:14:55.229,3,-0.26,0.19,1.18,-306.17699999999996,27.0576,-190.97840000000002,175,75
2026-05-09 16:14:55.235,5,-1.43,-0.46,-1.0,85.1942,-248.76559999999998,-64.9072,175,75
2026-05-09 16:14:55.248,1,0.02,-1.03,0.29,-551.795,220.3626,211.52179999999998,175,75
2026-05-09 16:14:55.248,4,-0.0,1.03,1.8,-0.4908000000000001,136.9146,25.615199999999998,175,75
2026-05-09 16:14:55.248,2,-0.18,0.32,0.5,-32.217400000000005,-114.98799999999999,-50.2836,175,75
2026-05-09 16:14:55.248,5,-1.54,-0.11,-0.91,48.5142,-248.76559999999998,-83.3072,175,75
2026-05-09 16:14:55.248,4,-0.06,1.04,1.84,-3.5408,140.5146,20.4952,175,75
2026-05-09 16:14:55.248,1,0.21,-0.87,1.13,-500.875,129.08259999999999,188.96179999999998,175,75
2026-05-09 16:14:55.251,2,-0.1,0.26,0.39,-1.4874,-69.068,-62.0436,175,75
2026-05-09 16:14:55.264,5,-1.57,0.22,-0.85,-29.7058,-248.76559999999998,-104.1972,175,75
2026-05-09 16:14:55.264,4,-0.1,0.96,1.83,-1.8908000000000005,132.7046,16.525199999999998,175,75
2026-05-09 16:14:55.264,1,0.2,-0.61,1.49,-472.405,80.7326,165.12179999999998,175,75
2026-05-09 16:14:55.264,3,0.18,-0.44,5.02,76.38300000000001,-72.6924,-229.4584,175,75
2026-05-09 16:14:55.277,5,-1.1,0.37,-0.71,-127.0358,-248.76559999999998,-110.4872,175,75
2026-05-09 16:14:55.277,1,0.28,-0.53,1.72,-463.985,58.8426,157.2518,175,75
2026-05-09 16:14:55.277,4,-0.16,0.81,1.79,3.6592000000000002,124.78460000000001,13.1752,175,75
2026-05-09 16:14:55.277,5,-0.63,0.4,-0.41,-207.9558,-248.76559999999998,-112.0472,175,75
2026-05-09 16:14:55.277,4,-0.26,0.58,1.73,14.7592,115.69460000000001,8.6052,175,75
2026-05-09 16:14:55.288,3,-2.96,2.79,4.45,103.15299999999999,187.1176,118.83159999999998,175,75
2026-05-09 16:14:55.288,2,-0.28,0.31,0.6,46.0126,101.472,-63.3236,175,75
2026-05-09 16:14:55.288,5,-0.43,0.45,-0.08,-250.6558,-248.76559999999998,-130.9372,175,75
2026-05-09 16:14:55.288,1,0.42,-0.08,2.05,-443.865,-1.3474000000000004,126.6418,175,75
2026-05-09 16:14:55.288,4,-0.4,0.33,1.72,25.729200000000002,110.02459999999999,2.1351999999999998,175,75
2026-05-09 16:14:55.301,2,-0.18,0.25,0.92,62.11259999999999,143.00199999999998,-63.5136,175,75
2026-05-09 16:14:55.301,5,-0.28,0.58,0.2,-250.6558,-248.76559999999998,-169.3572,175,75
2026-05-09 16:14:55.301,1,0.49,0.37,2.12,-422.765,-31.157400000000003,125.4818,175,75
2026-05-09 16:14:55.301,3,-0.33,-0.36,4.15,297.603,-126.1724,189.3216,175,75
2026-05-09 16:14:55.301,2,-0.13,0.13,1.21,70.8926,130.992,-62.4736,175,75
2026-05-09 16:14:55.308,5,-0.09,0.68,0.14,-250.6558,-248.76559999999998,-230.6772,175,75
2026-05-09 16:14:55.308,1,0.47,0.52,2.24,-388.865,-44.7574,131.52179999999998,175,75
2026-05-09 16:14:55.308,4,-0.69,-0.38,1.74,46.459199999999996,74.4146,-18.9548,175,75
2026-05-09 16:14:55.312,3,2.47,-2.88,0.62,4.373000000000001,-711.5324,200.30159999999998,175,75
2026-05-09 16:14:55.312,2,-0.12,-0.02,1.41,69.6726,83.30199999999999,-57.5336,175,75
2026-05-09 16:14:55.315,5,0.85,0.47,-0.31,-250.6558,-135.4356,-248.25719999999998,175,75
2026-05-09 16:14:55.327,1,0.57,0.42,2.5,-322.885,-34.2074,130.5418,175,75
2026-05-09 16:14:55.327,4,-0.83,-0.79,1.72,61.2192,18.3146,-29.2048,175,75
2026-05-09 16:14:55.327,2,-0.13,-0.17,1.5,58.0226,23.971999999999998,-50.4636,175,75
2026-05-09 16:14:55.327,5,2.0,0.65,-1.77,-250.6558,172.5144,-215.3972,175,75
2026-05-09 16:14:55.327,1,0.9,0.55,2.5,-289.655,-53.3574,122.01180000000001,175,75
2026-05-09 16:14:55.341,2,-0.15,-0.3,1.47,41.922599999999996,-21.328,-41.623599999999996,175,75
2026-05-09 16:14:55.341,3,1.39,-0.08,-0.78,153.583,164.2576,15.4816,175,75
2026-05-09 16:14:55.341,5,2.0,1.42,-1.78,-245.0558,251.5044,90.8728,175,75
2026-05-09 16:14:55.341,4,-0.95,-1.13,1.66,75.2992,-40.2154,-33.5348,175,75
2026-05-09 16:14:55.341,1,0.98,0.79,2.2,-252.885,-111.3474,114.1418,175,75
2026-05-09 16:14:55.351,2,-0.21,-0.41,1.33,29.3026,-31.268000000000004,-37.4736,175,75
2026-05-09 16:14:55.351,5,1.71,0.93,-1.44,-250.6558,251.5044,130.8128,175,75
2026-05-09 16:14:55.351,4,-1.06,-1.38,1.57,78.3492,-80.8954,-32.1948,175,75
2026-05-09 16:14:55.351,3,-0.11,-0.81,0.53,412.18300000000005,-162.0824,-174.69840000000002,175,75
2026-05-09 16:14:55.351,1,0.75,0.88,1.85,-203.685,-141.34740000000002,100.9718,175,75
2026-05-09 16:14:55.364,5,0.55,0.65,-1.9,-250.6558,251.5044,73.8428,175,75
2026-05-09 16:14:55.364,2,-0.23,-0.43,1.18,20.0926,-4.318000000000001,-42.0436,175,75
2026-05-09 16:14:55.364,4,-1.25,-1.5,1.45,65.6092,-113.2654,-37.8048,175,75
2026-05-09 16:14:55.364,3,1.57,0.14,1.46,112.543,352.3676,170.6016,175,75
2026-05-09 16:14:55.364,1,0.55,0.92,1.42,-144.775,-98.4774,64.3818,175,75
2026-05-09 16:14:55.375,2,-0.15,-0.31,1.2,21.3126,42.081999999999994,-45.1536,175,75
2026-05-09 16:14:55.375,5,0.11,-0.16,-2.0,-250.6558,251.5044,27.712799999999998,175,75
2026-05-09 16:14:55.389,4,-1.11,-0.79,1.17,4.9992,-112.2954,-71.64479999999999,175,75
2026-05-09 16:14:55.389,3,-1.02,-0.84,2.05,137.793,38.7076,47.7416,175,75
2026-05-09 16:14:55.389,1,0.68,0.98,1.52,-19.235,5.0626,29.4418,175,75
2026-05-09 16:14:55.389,5,-0.36,-0.15,-2.0,-250.6558,251.5044,59.902800000000006,175,75
2026-05-09 16:14:55.389,2,-0.21,-0.22,1.55,14.672600000000001,86.41199999999999,-50.2236,175,75
2026-05-09 16:14:55.389,3,-0.33,-0.4,1.77,87.18299999999999,53.767599999999995,0.541599999999999,175,75
2026-05-09 16:14:55.402,4,-1.03,-0.43,1.03,-3.9608,-70.4654,-21.7048,175,75
2026-05-09 16:14:55.402,5,2.0,2.0,1.76,-250.6558,251.5044,252.0128,175,75
2026-05-09 16:14:55.402,1,0.74,1.08,1.73,40.955,14.9926,9.261800000000001,175,75
2026-05-09 16:14:55.402,2,-0.33,-0.33,1.68,-0.45740000000000025,65.192,-52.593599999999995,175,75
2026-05-09 16:14:55.412,3,-0.27,0.27,1.73,90.713,-5.3824000000000005,39.5716,175,75
2026-05-09 16:14:55.412,5,-2.0,1.84,2.0,-250.6558,251.5044,252.0128,175,75
2026-05-09 16:14:55.412,4,-1.2,-0.45,0.93,12.2592,-4.735400000000002,11.7152,175,75
2026-05-09 16:14:55.412,1,0.73,1.11,1.78,103.455,0.7325999999999997,-10.488199999999999,175,75
2026-05-09 16:14:55.412,3,-0.61,0.2,1.67,64.31299999999999,-15.3124,46.2716,175,75
2026-05-09 16:14:55.412,2,-0.4,-0.43,1.71,-16.4874,30.931999999999995,-52.413599999999995,175,75
2026-05-09 16:14:55.419,5,-2.0,0.29,2.0,-221.85580000000002,251.5044,252.0128,175,75
2026-05-09 16:14:55.419,1,0.69,1.05,1.7,141.565,-5.0674,-24.0282,175,75
2026-05-09 16:14:55.419,4,-1.17,-0.78,1.04,32.929199999999994,64.2946,22.7452,175,75
2026-05-09 16:14:55.433,5,-2.0,-0.61,2.0,-215.44580000000002,94.6544,252.0128,175,75
2026-05-09 16:14:55.434,3,-0.62,-0.06,1.67,44.313,-13.422400000000001,10.6616,175,75
2026-05-09 16:14:55.434,2,-0.39,-0.47,1.63,-28.5574,-0.5980000000000025,-53.0836,175,75
2026-05-09 16:14:55.434,1,0.57,0.9,1.41,197.295,0.6725999999999992,-52.3782,175,75
2026-05-09 16:14:55.434,5,-2.0,-1.58,2.0,-191.06580000000002,16.7044,-45.3572,175,75
2026-05-09 16:14:55.437,2,-0.4,-0.46,1.52,-33.497400000000006,-3.1580000000000013,-53.0836,175,75
2026-05-09 16:14:55.448,4,-1.11,-1.0,1.32,25.119200000000003,92.0946,24.7552,175,75
2026-05-09 16:14:55.448,1,0.5,0.85,1.28,251.315,23.2326,-71.4082,175,75
2026-05-09 16:14:55.465,5,-2.0,-2.0,2.0,-129.63580000000002,-83.5656,-248.25719999999998,175,75
2026-05-09 16:14:55.465,1,0.45,0.8,1.26,283.265,31.7626,-75.48819999999999,175,75
2026-05-09 16:14:55.465,5,-2.0,-2.0,2.0,-0.5158,-84.7256,-248.25719999999998,175,75
2026-05-09 16:14:55.465,3,-0.06,-0.34,1.48,-12.206999999999999,-83.0624,-2.5084000000000017,175,75
2026-05-09 16:14:55.465,4,-0.91,-0.71,1.41,25.0592,57.3446,-5.6648,175,75
2026-05-09 16:14:55.465,2,-0.35,-0.35,1.34,-33.1974,38.062,-51.5036,175,75
2026-05-09 16:14:55.476,5,-1.18,-2.0,2.0,122.77420000000001,-28.9456,-197.0972,175,75
2026-05-09 16:14:55.476,3,-0.06,-0.56,1.29,-16.477,-77.75240000000001,-6.708400000000001,175,75
2026-05-09 16:14:55.476,2,-0.27,-0.25,1.38,-28.4974,55.501999999999995,-49.5436,175,75
2026-05-09 16:14:55.476,5,-2.0,-1.4,2.0,201.0442,-111.38560000000001,-239.8572,175,75
2026-05-09 16:14:55.487,1,0.34,0.59,1.27,346.505,20.7926,-88.23819999999999,175,75
2026-05-09 16:14:55.487,3,0.03,-0.84,1.15,-13.006999999999998,-71.72240000000001,-25.2484,175,75
2026-05-09 16:14:55.487,2,-0.2,-0.17,1.44,-25.3274,56.962,-49.8536,175,75
2026-05-09 16:14:55.487,5,-1.89,-0.12,1.96,232.46419999999998,-248.76559999999998,-248.25719999999998,175,75
2026-05-09 16:14:55.487,3,0.14,-0.92,1.04,-11.846999999999998,-54.0324,-30.4984,175,75
2026-05-09 16:14:55.500,2,-0.18,-0.1,1.47,-24.6574,48.432,-50.343599999999995,175,75
2026-05-09 16:14:55.500,4,-0.71,-0.25,1.4,27.7392,54.8446,6.645199999999999,175,75
2026-05-09 16:14:55.500,5,-0.71,0.51,1.72,227.9542,-248.76559999999998,-248.25719999999998,175,75
2026-05-09 16:14:55.500,3,0.38,-0.92,0.89,-4.706999999999999,-35.0124,-35.0684,175,75
2026-05-09 16:14:55.511,2,-0.23,-0.02,1.45,-24.537399999999998,32.211999999999996,-49.6136,175,75
2026-05-09 16:14:55.511,5,-0.0,0.83,1.45,210.46419999999998,-248.76559999999998,-248.25719999999998,175,75
2026-05-09 16:14:55.511,4,-0.59,-0.17,1.44,28.1692,54.964600000000004,5.915199999999999,175,75
2026-05-09 16:14:55.511,1,0.11,0.21,1.26,406.565,-31.9574,-111.09819999999999,175,75
2026-05-09 16:14:55.511,3,0.62,-0.85,0.82,11.263000000000002,-17.4524,-37.5684,175,75
2026-05-09 16:14:55.511,2,-0.31,0.06,1.39,-23.0174,18.971999999999998,-47.1736,175,75
2026-05-09 16:14:55.524,5,0.17,0.94,1.25,174.6342,-248.76559999999998,-248.25719999999998,175,75
2026-05-09 16:14:55.524,4,-0.54,-0.11,1.44,26.7092,49.2346,-0.3048000000000002,175,75
2026-05-09 16:14:55.524,2,-0.37,0.12,1.32,-21.9774,12.331999999999997,-45.343599999999995,175,75
2026-05-09 16:14:55.536,3,1.02,-0.88,0.82,19.012999999999998,-8.6724,-38.0584,175,75
2026-05-09 16:14:55.536,1,0.05,0.03,1.2,432.655,-63.4174,-129.2782,175,75
2026-05-09 16:14:55.536,4,-0.46,-0.02,1.42,23.4092,44.41459999999999,-9.6948,175,75
2026-05-09 16:14:55.536,2,-0.38,0.18,1.24,-20.8174,10.321999999999997,-43.633599999999994,175,75
2026-05-09 16:14:55.536,5,0.51,0.74,0.71,116.41420000000001,-248.76559999999998,-248.25719999999998,175,75
2026-05-09 16:14:55.536,1,0.04,-0.08,1.19,442.595,-71.5274,-136.8982,175,75
2026-05-09 16:14:55.539,3,1.1,-0.88,0.67,21.083,-32.5724,-16.7784,175,75
2026-05-09 16:14:55.548,5,0.62,0.65,0.49,110.4942,-233.1156,-248.25719999999998,175,75
2026-05-09 16:14:55.564,5,0.66,0.8,0.43,109.7142,-230.44559999999998,-244.3572,175,75
2026-05-09 16:14:55.564,4,-0.33,0.31,1.34,15.9692,58.9846,-26.3948,175,75
2026-05-09 16:14:55.564,1,0.04,-0.44,1.17,454.485,-112.2574,-155.3082,175,75
2026-05-09 16:14:55.564,3,1.07,-0.61,0.03,34.253,-60.0124,-10.0684,175,75
2026-05-09 16:14:55.564,5,0.74,0.93,0.46,91.91420000000001,-205.07559999999998,-168.6272,175,75
2026-05-09 16:14:55.575,1,-0.06,-0.62,1.11,457.965,-135.8574,-163.1782,175,75
2026-05-09 16:14:55.575,4,-0.24,0.47,1.31,16.1592,71.3646,-26.884800000000002,175,75
2026-05-09 16:14:55.575,2,-0.33,0.34,1.06,-18.3174,27.331999999999997,-40.0336,175,75
2026-05-09 16:14:55.575,3,0.78,-0.34,-0.23,50.842999999999996,-45.0724,3.5915999999999997,175,75
2026-05-09 16:14:55.575,5,0.78,0.99,0.4,61.2842,-166.2856,-98.6972,175,75
2026-05-09 16:14:55.585,4,-0.19,0.58,1.27,15.2392,75.4546,-29.4448,175,75
2026-05-09 16:14:55.585,2,-0.39,0.46,1.03,-14.967400000000001,27.451999999999998,-38.1436,175,75
2026-05-09 16:14:55.585,3,0.63,-0.09,-0.21,84.62299999999999,3.4076,5.421599999999998,175,75
2026-05-09 16:14:55.585,5,0.75,0.78,0.27,37.9542,-121.77560000000001,-30.4372,175,75
2026-05-09 16:14:55.597,4,-0.24,0.69,1.25,11.7092,83.5646,-34.5648,175,75
2026-05-09 16:14:55.597,1,-0.44,-1.03,0.64,447.595,-174.3274,-237.31820000000002,175,75
2026-05-09 16:14:55.597,2,-0.38,0.63,0.99,-8.5574,26.412,-33.633599999999994,175,75
2026-05-09 16:14:55.597,5,0.68,0.57,0.11,31.284200000000002,-80.54560000000001,37.6728,175,75
2026-05-09 16:14:55.608,4,-0.28,0.8,1.28,9.7592,104.78460000000001,-33.4148,175,75
2026-05-09 16:14:55.608,1,0.03,-0.97,0.37,450.155,-159.6374,-241.1682,175,75
2026-05-09 16:14:55.608,5,0.56,0.45,0.04,33.2442,-41.7356,97.9328,175,75
2026-05-09 16:14:55.608,4,-0.28,0.88,1.29,10.609200000000001,122.21459999999999,-36.0348,175,75
2026-05-09 16:14:55.620,2,-0.3,0.95,1.07,6.922599999999999,9.521999999999997,-31.3136,175,75
2026-05-09 16:14:55.620,1,-0.22,-0.75,0.24,443.635,-200.97740000000002,-230.6182,175,75
2026-05-09 16:14:55.620,5,0.42,0.43,0.01,37.8842,-11.175600000000001,145.3328,175,75
2026-05-09 16:14:55.620,4,-0.25,0.97,1.32,10.789200000000001,127.5846,-34.3848,175,75
2026-05-09 16:14:55.630,2,-0.23,1.13,1.09,17.7826,-18.888,-26.6236,175,75
2026-05-09 16:14:55.630,3,0.14,-0.15,0.99,202.363,173.4676,42.431599999999996,175,75
2026-05-09 16:14:55.630,5,0.32,0.38,-0.11,44.1642,10.3744,181.5928,175,75
2026-05-09 16:14:55.630,4,-0.31,1.05,1.4,9.7592,125.3246,-33.2848,175,75
2026-05-09 16:14:55.642,2,-0.19,1.25,1.1,19.7926,-58.218,-17.6536,175,75
2026-05-09 16:14:55.642,5,0.26,0.38,-0.23,54.2242,24.0544,213.2228,175,75
2026-05-09 16:14:55.642,1,-0.55,-1.22,-0.52,412.235,-66.5274,-235.4282,175,75
2026-05-09 16:14:55.642,3,0.03,-0.03,1.27,239.56300000000002,194.8076,43.3516,175,75
2026-05-09 16:14:55.642,4,-0.39,1.13,1.58,12.069199999999999,115.02459999999999,-32.9248,175,75
2026-05-09 16:14:55.642,2,-0.19,1.27,1.06,14.672600000000001,-93.038,-10.1536,175,75
2026-05-09 16:14:55.654,5,0.12,0.43,-0.45,61.6342,15.984399999999999,235.2028,175,75
2026-05-09 16:14:55.654,1,-0.22,-1.35,-0.38,395.645,-20.6774,-218.72820000000002,175,75
2026-05-09 16:14:55.664,1,-0.46,-1.2,0.38,358.755,-8.787400000000002,-170.06820000000002,175,75
2026-05-09 16:14:55.664,3,0.48,0.16,1.69,235.713,161.2676,54.7516,175,75
2026-05-09 16:14:55.664,4,-0.35,1.18,1.86,21.9492,29.8446,-38.5348,175,75
2026-05-09 16:14:55.666,5,-0.04,0.23,-0.6,105.0142,-35.3356,252.0128,175,75
2026-05-09 16:14:55.669,3,0.56,0.17,1.64,215.233,120.2276,68.10159999999999,175,75
2026-05-09 16:14:55.677,5,-0.0,0.04,-0.74,122.8242,-69.74560000000001,252.0128,175,75
2026-05-09 16:14:55.677,2,-0.25,0.95,0.88,25.2226,-89.928,-10.5836,175,75
2026-05-09 16:14:55.681,1,-6.82,0.84,-1.8,91.375,-441.2874,-51.168200000000006,175,75
2026-05-09 16:14:55.693,5,0.11,-0.25,-0.89,145.30419999999998,-102.4556,252.0128,175,75
2026-05-09 16:14:55.693,4,-0.51,1.01,1.7,22.0092,-87.1754,-44.0848,175,75
2026-05-09 16:14:55.693,2,-0.2,0.84,0.89,36.252599999999994,-61.388000000000005,-13.813600000000001,175,75
2026-05-09 16:14:55.693,3,0.4,0.04,1.12,174.683,42.117599999999996,83.83160000000001,175,75
2026-05-09 16:14:55.694,1,-2.78,1.36,-5.41,-88.015,-373.4174,258.22180000000003,175,75
2026-05-09 16:14:55.704,5,0.47,-0.5,-1.11,173.1942,-114.18560000000001,252.0128,175,75
2026-05-09 16:14:55.704,4,-0.6,0.79,1.47,24.6292,-96.0154,-36.3348,175,75
2026-05-09 16:14:55.704,2,-0.12,0.6,1.0,41.4426,-32.72800000000001,-24.7936,175,75
2026-05-09 16:14:55.704,3,-0.1,0.23,1.08,171.323,78.9476,89.8116,175,75
2026-05-09 16:14:55.704,5,0.71,-0.75,-1.22,196.11419999999998,-88.1456,252.0128,175,75
2026-05-09 16:14:55.711,4,-0.67,0.51,1.32,27.3792,-88.3954,-28.8348,175,75
2026-05-09 16:14:55.711,3,-0.05,0.2,1.12,143.523,53.5276,98.4716,175,75
2026-05-09 16:14:55.723,5,0.34,-0.77,-0.81,221.2542,-55.4456,252.0128,175,75
2026-05-09 16:14:55.723,2,-0.09,0.22,1.22,38.9426,-17.428,-36.803599999999996,175,75
2026-05-09 16:14:55.723,1,-0.8,-1.12,0.52,-90.385,525.3626,62.251799999999996,175,75
2026-05-09 16:14:55.734,5,-0.01,-0.15,-0.16,235.8542,-34.6356,243.1928,175,75
2026-05-09 16:14:55.734,3,-0.07,0.01,0.91,106.32300000000001,-17.6924,72.07159999999999,175,75
2026-05-09 16:14:55.734,1,-1.38,-0.58,2.95,-127.88499999999999,433.9626,157.2518,175,75
2026-05-09 16:14:55.734,4,-0.86,-0.51,1.08,30.2392,-40.8254,-16.8248,175,75
2026-05-09 16:14:55.745,5,-0.12,-0.59,0.23,246.83419999999998,-2.2256,226.2028,175,75
2026-05-09 16:14:55.745,2,-0.3,-0.78,1.57,6.0725999999999996,-25.958000000000002,-31.923600000000004,175,75
2026-05-09 16:14:55.745,3,-0.2,0.18,0.51,58.583000000000006,-10.862400000000001,38.7716,175,75
2026-05-09 16:14:55.745,4,-0.82,-1.05,1.05,31.0992,-10.1554,-6.764799999999999,175,75
2026-05-09 16:14:55.745,5,-0.12,-0.46,0.74,249.61419999999998,78.2444,170.8928,175,75
2026-05-09 16:14:55.757,1,-0.27,-4.07,3.52,-80.935,-76.0374,30.791800000000002,175,75
2026-05-09 16:14:55.757,4,-0.77,-1.58,1.08,33.1092,3.8645999999999994,13.1752,175,75
2026-05-09 16:14:55.757,5,-0.19,-0.28,1.05,228.30419999999998,216.1544,39.012800000000006,175,75
2026-05-09 16:14:55.768,1,0.97,-0.28,1.07,-110.325,-292.6274,-26.5282,175,75
2026-05-09 16:14:55.769,4,-0.8,-2.0,1.13,35.9692,1.9146,30.7352,175,75
2026-05-09 16:14:55.769,5,-0.24,0.25,1.41,172.21419999999998,251.5044,-139.53719999999998,175,75
2026-05-09 16:14:55.769,3,-0.27,0.81,0.82,-31.656999999999996,67.4876,-33.2384,175,75
2026-05-09 16:14:55.779,1,-1.03,1.02,-0.56,-93.985,-212.1374,-1.1681999999999997,175,75
2026-05-09 16:14:55.779,4,-0.91,-2.44,1.19,38.4692,-7.8454000000000015,37.9352,175,75
2026-05-09 16:14:55.779,5,-0.28,0.65,2.0,82.27420000000001,251.5044,-248.25719999999998,175,75
2026-05-09 16:14:55.779,2,-0.21,-1.11,1.2,-10.8774,70.682,-35.8236,175,75
2026-05-09 16:14:55.779,3,0.03,0.81,1.11,-64.407,-3.2424,-95.85839999999999,175,75
2026-05-09 16:14:55.792,4,-1.23,-2.44,1.29,18.3492,-21.0154,14.0852,175,75
2026-05-09 16:14:55.792,5,-0.17,0.92,2.0,-72.6458,251.5044,-248.25719999999998,175,75
2026-05-09 16:14:55.792,1,-0.75,0.36,-0.48,-68.805,38.9026,92.01180000000001,175,75
2026-05-09 16:14:55.792,2,0.2,-0.78,1.36,-4.7774,113.122,-33.203599999999994,175,75
2026-05-09 16:14:55.804,3,0.07,1.03,1.04,-124.52699999999999,-27.8124,-134.0284,175,75
2026-05-09 16:14:55.804,4,-1.48,-2.08,1.28,-28.5408,-17.715400000000002,-45.1148,175,75
2026-05-09 16:14:55.804,2,0.35,-0.62,1.64,-1.3074,132.512,-15.5236,175,75
2026-05-09 16:14:55.804,1,-0.98,-0.4,-0.2,-20.145,133.90259999999998,69.32180000000001,175,75
2026-05-09 16:14:55.804,3,0.36,1.19,0.89,-180.377,-45.382400000000004,-146.9584,175,75
2026-05-09 16:14:55.809,5,-0.25,0.81,2.0,-176.3058,251.5044,-248.25719999999998,175,75
2026-05-09 16:14:55.809,2,0.14,-0.66,1.87,-8.5574,126.472,-6.9836,175,75
2026-05-09 16:14:55.809,4,-1.17,-1.66,1.28,-71.9508,10.694600000000001,-93.34479999999999,175,75
2026-05-09 16:14:55.809,1,-0.75,0.09,0.57,-1.245,145.7926,20.9118,175,75
2026-05-09 16:14:55.821,3,0.49,1.14,0.73,-215.927,-125.50240000000001,-168.47840000000002,175,75
2026-05-09 16:14:55.821,5,-0.67,0.27,2.0,-140.2458,251.5044,-248.25719999999998,175,75
2026-05-09 16:14:55.821,2,-0.08,-0.78,2.02,-25.8174,93.182,-14.973600000000001,175,75
2026-05-09 16:14:55.821,1,-0.72,-0.0,0.88,7.115,119.0226,19.631800000000002,175,75
2026-05-09 16:14:55.821,4,-0.42,-1.13,1.41,-90.9208,37.3446,-25.8548,175,75
2026-05-09 16:14:55.836,3,0.01,0.9,0.56,-264.707,-177.57240000000002,-197.8084,175,75
2026-05-09 16:14:55.836,1,-0.82,-0.38,0.79,26.445,80.8526,-5.4882,175,75
2026-05-09 16:14:55.836,4,-0.71,-0.76,1.42,-85.0608,58.4346,45.2452,175,75
2026-05-09 16:14:55.836,5,-2.0,-0.9,2.0,57.9842,13.6944,-248.25719999999998,175,75
2026-05-09 16:14:55.836,2,-0.26,-0.74,2.02,-51.7374,37.452,-29.2436,175,75
2026-05-09 16:14:55.848,1,-0.83,-0.59,0.69,38.455,91.2126,-25.068199999999997,175,75
2026-05-09 16:14:55.848,4,-0.8,-0.75,1.47,-63.60080000000001,75.02459999999999,33.4152,175,75
2026-05-09 16:14:55.848,2,-0.23,-0.52,1.84,-71.6074,6.721999999999998,-29.5436,175,75
2026-05-09 16:14:55.848,5,-2.0,-0.53,2.0,113.2242,-247.9856,-105.5572,175,75
2026-05-09 16:14:55.848,3,-1.72,1.42,1.07,-287.93699999999995,141.5776,-224.5184,175,75
2026-05-09 16:14:55.858,1,-0.51,-0.7,0.78,35.225,111.2126,-27.138199999999998,175,75
2026-05-09 16:14:55.858,2,-0.19,-0.37,1.63,-76.2474,4.101999999999997,-22.6536,175,75
2026-05-09 16:14:55.858,5,-2.0,0.02,2.0,106.2542,-248.76559999999998,44.3528,175,75
2026-05-09 16:14:55.858,3,-5.24,2.39,2.93,-168.857,603.8276,-68.17840000000001,175,75
2026-05-09 16:14:55.871,1,-0.15,-0.81,1.03,41.745,121.1526,-25.618199999999998,175,75
2026-05-09 16:14:55.871,4,-0.3,-0.75,1.67,-51.830799999999996,72.52459999999999,10.7952,175,75
2026-05-09 16:14:55.871,3,-11.35,4.79,11.25,363.093,1248.8876,441.5216,175,75
2026-05-09 16:14:55.871,1,-0.33,-0.91,1.09,39.795,97.4926,-24.5782,175,75
2026-05-09 16:14:55.881,4,-0.36,-0.52,1.64,-50.49080000000001,57.3446,-3.1648,175,75
2026-05-09 16:14:55.881,5,-0.46,0.33,1.81,87.2942,-248.76559999999998,252.0128,175,75
2026-05-09 16:14:55.881,3,-0.96,-5.22,12.22,966.0229999999999,-1048.1824,-218.47840000000002,175,75
2026-05-09 16:14:55.883,1,0.31,-0.93,1.67,27.475,145.6726,-23.4182,175,75
2026-05-09 16:14:55.885,5,0.54,0.38,1.46,143.83419999999998,-248.76559999999998,252.0128,175,75
2026-05-09 16:14:55.896,4,-0.37,-0.27,1.64,-40.24080000000001,53.6246,-17.064799999999998,175,75
2026-05-09 16:14:55.896,1,-0.01,-0.77,1.81,32.355000000000004,105.6726,-19.1482,175,75
2026-05-09 16:14:55.896,5,0.92,0.77,1.69,132.8242,-248.76559999999998,252.0128,175,75
2026-05-09 16:14:55.896,4,-0.35,-0.08,1.64,-30.9808,55.384600000000006,-18.9548,175,75
2026-05-09 16:14:55.907,2,-0.21,-0.12,1.44,-41.857400000000005,109.952,-26.503600000000002,175,75
2026-05-09 16:14:55.907,3,-2.54,2.88,1.99,-928.0070000000001,-718.2424,268.0416,175,75
2026-05-09 16:14:55.907,1,0.26,-0.82,1.74,21.375,117.2526,-8.118199999999998,175,75
2026-05-09 16:14:55.907,5,0.86,0.6,1.32,75.8542,-248.76559999999998,252.0128,175,75
2026-05-09 16:14:55.907,2,-0.17,-0.11,1.59,-31.737399999999997,96.782,-24.9736,175,75
2026-05-09 16:14:55.917,4,-0.34,0.08,1.59,-16.7108,50.9346,-19.6948,175,75
2026-05-09 16:14:55.917,3,-5.68,5.29,-1.15,-1044.467,230.2276,-189.7584,175,75
2026-05-09 16:14:55.917,1,0.15,-0.73,1.78,16.505000000000003,129.3926,1.4018000000000002,175,75
2026-05-09 16:14:55.917,5,0.35,0.2,1.01,4.0542,-248.76559999999998,252.0128,175,75
2026-05-09 16:14:55.917,2,-0.15,-0.08,1.61,-30.3274,65.992,-18.6336,175,75
2026-05-09 16:14:55.928,4,-0.34,0.1,1.55,-0.4908000000000001,42.3446,-21.8248,175,75
2026-05-09 16:14:55.928,5,0.25,0.23,0.71,-61.6158,-248.76559999999998,252.0128,175,75
2026-05-09 16:14:55.928,1,0.2,-0.28,1.81,16.375,154.1426,11.151800000000001,175,75
2026-05-09 16:14:55.928,3,2.39,1.78,-0.86,143.093,-125.3824,80.11160000000001,175,75
2026-05-09 16:14:55.939,2,-0.12,0.04,1.51,-28.7474,9.401999999999997,-14.363600000000002,175,75
2026-05-09 16:14:55.939,4,-0.32,0.08,1.54,9.569199999999999,44.2346,-20.2448,175,75
2026-05-09 16:14:55.939,5,0.48,-0.36,0.25,-137.85580000000002,-248.76559999999998,252.0128,175,75
2026-05-09 16:14:55.939,1,-0.05,0.14,1.89,14.615,170.9126,22.5518,175,75
2026-05-09 16:14:55.939,3,-1.45,-0.32,-1.01,184.623,112.7976,79.0216,175,75
2026-05-09 16:14:55.950,2,-0.07,0.22,1.32,-18.8674,-45.41799999999999,-12.533600000000002,175,75
2026-05-09 16:14:55.950,5,0.84,-0.71,-0.1,-181.7058,-248.76559999999998,252.0128,175,75
2026-05-09 16:14:55.950,4,-0.25,0.12,1.53,10.359200000000001,45.2046,-20.724800000000002,175,75
2026-05-09 16:14:55.950,1,0.01,0.51,1.83,4.795,191.7026,42.1918,175,75
2026-05-09 16:14:55.950,3,-1.48,-1.64,0.32,156.143,451.0876,3.6515999999999984,175,75
2026-05-09 16:14:55.962,2,-0.06,0.38,1.1,-9.3574,-90.958,-13.203600000000002,175,75
2026-05-09 16:14:55.962,5,0.47,-0.69,-0.16,-201.41580000000002,-248.76559999999998,252.0128,175,75
2026-05-09 16:14:55.962,1,-0.06,0.72,1.67,-22.465,118.04260000000001,38.3518,175,75
2026-05-09 16:14:55.962,4,-0.18,0.22,1.53,8.9592,34.5946,-25.3048,175,75
2026-05-09 16:14:55.980,5,-0.28,-0.45,0.04,-207.2758,-215.6856,149.5728,175,75
2026-05-09 16:14:55.980,4,-0.14,0.32,1.52,7.3192,26.1246,-28.4148,175,75
2026-05-09 16:14:55.980,1,-0.08,0.73,1.39,-39.965,56.8226,54.2018,175,75
2026-05-09 16:14:55.980,2,-0.06,0.48,0.97,-8.0174,-112.788,-14.123600000000001,175,75
2026-05-09 16:14:55.980,3,-0.63,-1.57,3.65,153.463,227.0576,-113.9684,175,75
2026-05-09 16:14:55.980,2,-0.12,0.56,0.83,-9.417399999999999,-120.16799999999999,-14.063600000000001,175,75
2026-05-09 16:14:55.980,5,-0.71,-0.29,0.14,-206.9558,-167.8656,-4.4572,175,75
2026-05-09 16:14:55.989,3,0.75,-0.06,4.0,-57.637,-12.2024,-200.2484,175,75
2026-05-09 16:14:55.990,1,-0.05,0.57,1.22,-41.185,32.8626,55.721799999999995,175,75
2026-05-09 16:14:55.990,2,-0.21,0.61,0.76,-9.3574,-104.318,-18.0836,175,75
2026-05-09 16:14:55.992,3,1.87,1.36,2.32,-201.537,-283.0024,23.101599999999998,175,75
2026-05-09 16:14:55.997,5,-0.71,-0.02,0.07,-198.07580000000002,-142.57559999999998,-248.25719999999998,175,75
2026-05-09 16:14:55.997,2,-0.17,0.6,0.73,-3.6274,-76.508,-26.0136,175,75
2026-05-09 16:14:56.008,3,0.09,0.67,1.03,-161.417,-319.5824,52.0716,175,75
2026-05-09 16:14:56.008,4,-0.17,0.6,1.73,-0.24080000000000013,18.1946,-37.6148,175,75
2026-05-09 16:14:56.008,5,-0.62,0.16,-0.03,-197.66580000000002,-144.13559999999998,-248.25719999999998,175,75
2026-05-09 16:14:56.008,2,-0.18,0.61,0.75,4.3626000000000005,-56.087999999999994,-31.1336,175,75
2026-05-09 16:14:56.018,4,-0.17,0.72,1.85,0.549199999999999,-1.7454,-41.7048,175,75
2026-05-09 16:14:56.018,3,0.25,-0.54,-0.37,-108.30699999999999,-176.7224,2.9816000000000003,175,75
2026-05-09 16:14:56.018,1,0.53,0.93,1.45,36.135,21.7026,4.8718,175,75
2026-05-09 16:14:56.018,5,-0.33,0.24,-0.11,-192.7658,-140.8956,-248.25719999999998,175,75
2026-05-09 16:14:56.018,2,-0.25,0.64,0.74,13.8126,-36.757999999999996,-35.523599999999995,175,75
2026-05-09 16:14:56.018,4,-0.22,0.8,1.91,4.0192,-34.8554,-47.0048,175,75
2026-05-09 16:14:56.030,3,0.65,-0.46,-0.74,-23.006999999999998,-20.0124,-3.668400000000002,175,75
2026-05-09 16:14:56.030,5,0.04,0.46,-0.32,-192.3058,-132.07559999999998,-248.25719999999998,175,75
2026-05-09 16:14:56.030,1,0.67,0.95,1.52,62.725,-5.4874,-16.958199999999998,175,75
2026-05-09 16:14:56.030,2,-0.31,0.69,0.69,18.5726,-28.218,-37.9036,175,75
2026-05-09 16:14:56.030,4,-0.26,0.86,1.91,8.4692,-70.6454,-51.0948,175,75
2026-05-09 16:14:56.041,3,0.79,-0.04,-0.19,61.14300000000001,113.7076,1.3315999999999981,175,75
2026-05-09 16:14:56.041,5,0.44,0.78,-0.52,-209.59580000000003,-105.43560000000001,-248.25719999999998,175,75
2026-05-09 16:14:56.041,1,0.62,0.92,1.52,75.835,-43.3574,-30.918200000000002,175,75
2026-05-09 16:14:56.041,2,-0.43,0.75,0.64,18.7526,-16.818,-38.813599999999994,175,75
2026-05-09 16:14:56.054,5,0.78,0.98,-0.71,-206.07580000000002,-73.2656,-248.25719999999998,175,75
2026-05-09 16:14:56.054,1,0.59,0.75,1.5,86.865,-79.6374,-48.7882,175,75
2026-05-09 16:14:56.054,2,-0.51,0.77,0.6,13.9426,0.011999999999996902,-40.2836,175,75
2026-05-09 16:14:56.054,4,-0.34,0.91,1.72,21.4592,-114.6754,-61.394800000000004,175,75
2026-05-09 16:14:56.054,3,1.22,-0.01,1.13,104.493,79.74759999999999,44.811600000000006,175,75
2026-05-09 16:14:56.054,5,0.82,0.72,-0.61,-201.6758,-37.9556,-248.25719999999998,175,75
2026-05-09 16:14:56.065,1,0.54,0.69,1.51,90.225,-115.9174,-60.7982,175,75
2026-05-09 16:14:56.065,2,-0.55,0.76,0.58,6.3726,22.081999999999997,-41.373599999999996,175,75
2026-05-09 16:14:56.065,4,-0.38,0.9,1.64,26.649199999999997,-117.8454,-62.7448,175,75
2026-05-09 16:14:56.065,3,1.14,-0.21,1.2,98.953,7.797599999999999,57.0016,175,75
2026-05-09 16:14:56.076,1,0.47,0.71,1.52,91.195,-137.9274,-63.2382,175,75
2026-05-09 16:14:56.076,4,-0.43,0.87,1.56,33.1092,-114.2454,-64.0248,175,75
2026-05-09 16:14:56.076,2,-0.53,0.75,0.58,2.4726,42.391999999999996,-40.953599999999994,175,75
2026-05-09 16:14:56.076,3,0.99,-0.29,0.86,107.733,-29.522399999999998,71.88159999999999,175,75
2026-05-09 16:14:56.076,5,0.6,0.78,-0.48,-185.91580000000002,42.3144,-222.9872,175,75
2026-05-09 16:14:56.087,4,-0.47,0.82,1.51,39.8792,-109.1854,-65.17479999999999,175,75
2026-05-09 16:14:56.087,3,0.81,-0.34,0.6,132.123,-33.1224,81.70159999999998,175,75
2026-05-09 16:14:56.087,5,0.29,0.59,-0.28,-168.78580000000002,66.78439999999999,-167.6672,175,75
2026-05-09 16:14:56.087,2,-0.54,0.73,0.63,8.1426,78.372,-36.6836,175,75
2026-05-09 16:14:56.099,1,0.41,0.49,1.93,105.345,-137.8674,-72.31819999999999,175,75
2026-05-09 16:14:56.099,3,0.71,-0.4,0.47,144.373,-23.612399999999997,89.8716,175,75
2026-05-09 16:14:56.099,5,0.19,0.45,-0.13,-144.0558,93.36439999999999,-127.68719999999999,175,75
2026-05-09 16:14:56.099,4,-0.48,0.72,1.45,45.789199999999994,-106.0154,-67.00479999999999,175,75
2026-05-09 16:14:56.099,1,0.01,0.49,1.34,88.145,-271.7074,-63.05820000000001,175,75
2026-05-09 16:14:56.109,2,-0.56,0.73,0.69,11.8626,96.662,-33.1436,175,75
2026-05-09 16:14:56.109,5,0.22,0.26,-0.13,-110.4558,120.19439999999999,-83.96719999999999,175,75
2026-05-09 16:14:56.109,3,0.46,-0.44,0.32,158.703,12.1876,93.10159999999999,175,75
2026-05-09 16:14:56.109,4,-0.55,0.63,1.34,43.6592,-105.5254,-65.84479999999999,175,75
2026-05-09 16:14:56.109,1,-4.02,0.99,-1.03,-11.305,-989.0874,-103.4782,175,75
2026-05-09 16:14:56.121,2,-0.52,0.74,0.79,11.6226,118.972,-23.573600000000003,175,75
2026-05-09 16:14:56.121,5,0.28,0.12,-0.12,-66.8858,148.39440000000002,-21.7072,175,75
2026-05-09 16:14:56.121,4,-0.63,0.56,1.25,39.9392,-81.6254,-62.9848,175,75
2026-05-09 16:14:56.121,1,-5.85,1.93,-5.11,-50.515,-252.0174,292.5518,175,75
2026-05-09 16:14:56.132,2,-0.5,0.72,0.89,10.4026,132.822,-12.3536,175,75
2026-05-09 16:14:56.132,5,0.24,-0.01,-0.01,-21.3358,166.55440000000002,57.8928,175,75
2026-05-09 16:14:56.132,3,-0.12,-0.6,0.74,199.563,140.3576,120.42159999999998,175,75
2026-05-09 16:14:56.132,4,-0.75,0.45,1.2,39.6892,-18.2054,-50.0548,175,75
2026-05-09 16:14:56.132,1,2.96,-2.75,-2.12,-313.985,64.26259999999999,128.2218,175,75
2026-05-09 16:14:56.138,5,0.31,-0.09,0.13,11.7442,176.7844,150.0828,175,75
2026-05-09 16:14:56.138,2,-0.46,0.63,1.02,8.6326,141.052,-3.6336,175,75
2026-05-09 16:14:56.138,3,-0.35,-0.83,1.15,211.453,178.2176,119.08159999999998,175,75
2026-05-09 16:14:56.145,4,-0.86,0.22,1.28,41.7692,43.0146,-34.9948,175,75
2026-05-09 16:14:56.145,5,0.34,0.0,0.07,42.504200000000004,187.36440000000002,242.0028,175,75
2026-05-09 16:14:56.145,1,-1.28,0.34,0.65,-130.325,412.07259999999997,-3.8481999999999994,175,75
2026-05-09 16:14:56.149,2,-0.46,0.38,1.23,3.5726,144.402,2.5264,175,75
2026-05-09 16:14:56.152,4,-0.89,-0.09,1.49,43.0492,81.7346,-23.224800000000002,175,75
2026-05-09 16:14:56.164,5,0.46,0.1,0.13,55.9842,204.3544,252.0128,175,75
2026-05-09 16:14:56.164,1,0.97,1.05,1.8,-100.635,363.1726,112.9218,175,75
2026-05-09 16:14:56.164,3,-0.46,-0.78,1.45,207.483,192.5476,71.33160000000001,175,75
2026-05-09 16:14:56.164,2,-0.57,0.02,1.41,-5.6373999999999995,152.392,8.1364,175,75
2026-05-09 16:14:56.164,5,0.71,0.46,0.42,62.3442,237.1644,252.0128,175,75
2026-05-09 16:14:56.176,4,-0.87,-0.52,1.77,47.679199999999994,65.6946,-21.7648,175,75
2026-05-09 16:14:56.176,1,-0.27,-1.01,2.13,-55.205,269.9326,153.59179999999998,175,75
2026-05-09 16:14:56.176,3,-0.53,-0.59,1.55,202.85299999999998,192.9176,44.6916,175,75
2026-05-09 16:14:56.176,2,-0.74,-0.22,1.44,-11.8574,166.232,17.6464,175,75
2026-05-09 16:14:56.189,5,0.86,-0.03,0.28,77.5542,251.5044,252.0128,175,75
2026-05-09 16:14:56.189,4,-0.91,-1.08,1.97,56.039199999999994,-14.7354,-20.0548,175,75
2026-05-09 16:14:56.189,2,-0.93,-0.44,1.45,-12.5274,184.522,26.7964,175,75
2026-05-09 16:14:56.189,1,0.12,-2.15,2.75,-39.235,-33.1074,40.0518,175,75
2026-05-09 16:14:56.189,3,-0.54,-0.34,1.58,192.543,187.7976,24.571599999999997,175,75
2026-05-09 16:14:56.189,5,1.24,0.16,0.47,90.6342,251.5044,252.0128,175,75
2026-05-09 16:14:56.199,3,-0.51,-0.14,1.6,177.363,167.7976,8.221600000000002,175,75
2026-05-09 16:14:56.199,5,1.76,0.29,0.93,101.3042,251.5044,252.0128,175,75
2026-05-09 16:14:56.210,2,-1.17,-0.6,1.49,-6.8574,218.362,37.8864,175,75
2026-05-09 16:14:56.210,5,2.0,-0.66,2.0,38.9242,251.5044,252.0128,175,75
2026-05-09 16:14:56.210,1,-0.59,-0.02,-0.99,-35.875,-66.1574,35.1218,175,75
2026-05-09 16:14:56.220,3,-0.45,0.19,1.37,102.483,119.3776,-17.6284,175,75
2026-05-09 16:14:56.220,4,-1.18,-2.11,1.66,51.5192,-148.6354,-7.3748000000000005,175,75
2026-05-09 16:14:56.235,1,-0.74,-0.33,-0.55,-5.995,67.01259999999999,20.4818,175,75
2026-05-09 16:14:56.235,2,-1.02,-0.57,1.89,-0.6374,240.682,37.3464,175,75
2026-05-09 16:14:56.235,4,-1.14,-1.95,1.52,36.1592,-164.1254,-26.3948,175,75
2026-05-09 16:14:56.235,5,-2.0,-0.62,2.0,-22.235799999999998,251.5044,252.0128,175,75
2026-05-09 16:14:56.235,3,-0.72,0.45,1.15,75.47300000000001,128.5876,-30.6184,175,75
2026-05-09 16:14:56.235,1,-1.12,-0.27,0.05,26.375,97.9826,7.0718000000000005,175,75
2026-05-09 16:14:56.235,2,-0.9,-0.62,2.05,-11.9774,210.50199999999998,39.046400000000006,175,75
2026-05-09 16:14:56.245,4,-0.91,-1.69,1.41,26.399199999999997,-165.4654,-29.4448,175,75
2026-05-09 16:14:56.245,5,-2.0,-0.64,1.97,-23.2058,251.5044,-20.9472,175,75
2026-05-09 16:14:56.245,4,-0.7,-1.49,1.29,25.0592,-163.4554,-12.1348,175,75
2026-05-09 16:14:56.246,1,-0.8,-0.53,0.35,63.945,73.4726,-2.5682,175,75
2026-05-09 16:14:56.246,3,-0.24,0.38,0.95,-20.137,-16.8424,-103.7284,175,75
2026-05-09 16:14:56.246,5,-2.0,-0.8,1.93,-3.6458,251.5044,-248.25719999999998,175,75
2026-05-09 16:14:56.256,2,-0.88,-0.77,1.93,-32.88740000000001,147.392,35.2064,175,75
2026-05-09 16:14:56.256,4,-0.63,-1.38,1.11,34.75919999999999,-139.9154,14.145199999999999,175,75
2026-05-09 16:14:56.256,1,-0.86,-1.04,0.27,82.055,50.7926,-34.7582,175,75
2026-05-09 16:14:56.256,5,-2.0,-1.2,1.89,50.7242,235.1644,-248.25719999999998,175,75
2026-05-09 16:14:56.256,2,-0.85,-0.93,1.62,-58.13740000000001,103.612,7.9564,175,75
2026-05-09 16:14:56.274,5,-2.0,-1.66,2.0,137.7842,168.0044,-248.25719999999998,175,75
2026-05-09 16:14:56.274,4,-0.53,-1.38,1.09,40.5492,-85.7054,25.4952,175,75
2026-05-09 16:14:56.274,2,-0.86,-0.87,1.45,-68.8074,113.552,1.7364,175,75
2026-05-09 16:14:56.274,1,-1.1,-1.13,0.19,105.955,65.9126,-58.5382,175,75
2026-05-09 16:14:56.274,3,0.21,1.02,0.46,-116.59700000000001,30.6576,-140.3084,175,75
2026-05-09 16:14:56.286,5,-2.0,-1.66,2.0,223.7942,160.2844,-248.25719999999998,175,75
2026-05-09 16:14:56.286,1,-0.81,-1.14,0.48,133.695,128.5326,-57.0182,175,75
2026-05-09 16:14:56.298,4,-0.24,-1.2,1.2,29.8792,-28.2654,33.5452,175,75
2026-05-09 16:14:56.298,2,-1.01,-0.64,1.36,-69.2374,155.802,4.6564,175,75
2026-05-09 16:14:56.298,5,-2.0,-0.99,2.0,249.61419999999998,147.9144,-248.25719999999998,175,75
2026-05-09 16:14:56.308,3,0.34,0.59,0.93,-141.417,31.027600000000003,-146.0384,175,75
2026-05-09 16:14:56.308,4,-0.07,-0.93,1.32,16.8292,-15.035400000000001,34.8852,175,75
2026-05-09 16:14:56.308,1,-0.27,-0.85,1.23,157.595,192.31259999999997,-44.638200000000005,175,75
2026-05-09 16:14:56.308,5,-2.0,0.1,2.0,230.7542,-70.9556,-248.25719999999998,175,75
2026-05-09 16:14:56.308,2,-0.71,-0.37,1.61,-83.4974,156.84199999999998,-9.363600000000002,175,75
2026-05-09 16:14:56.308,3,0.42,0.39,1.16,-171.597,-3.3624,-164.3984,175,75
2026-05-09 16:14:56.319,4,0.07,-0.43,1.44,1.4591999999999992,-20.9554,30.9752,175,75
2026-05-09 16:14:56.319,5,-0.93,1.4,2.0,206.64419999999998,-248.76559999999998,-86.71719999999999,175,75
2026-05-09 16:14:56.319,3,0.47,0.36,1.21,-201.787,-35.7424,-170.3684,175,75
2026-05-09 16:14:56.319,2,-0.54,-0.16,1.8,-105.20739999999999,69.042,-12.963600000000001,175,75
2026-05-09 16:14:56.319,4,0.16,0.13,1.48,-8.5408,-26.0154,24.275199999999998,175,75
2026-05-09 16:14:56.319,5,-0.48,1.34,2.0,174.02419999999998,-248.76559999999998,-19.0072,175,75
2026-05-09 16:14:56.330,1,-0.33,0.42,2.72,-6.605,285.3626,29.9918,175,75
2026-05-09 16:14:56.330,2,-0.37,0.08,1.86,-118.4374,-3.338000000000001,-12.1736,175,75
2026-05-09 16:14:56.330,5,0.16,1.35,1.18,150.83419999999998,-248.76559999999998,-34.5672,175,75
2026-05-09 16:14:56.330,4,0.25,0.55,1.48,-14.5708,-32.5954,23.2352,175,75
2026-05-09 16:14:56.330,1,-0.92,1.12,1.56,-109.165,258.9026,55.721799999999995,175,75
2026-05-09 16:14:56.336,5,0.92,1.08,0.72,114.9442,-248.76559999999998,-37.3872,175,75
2026-05-09 16:14:56.336,4,0.27,1.11,1.46,-17.9908,-44.8554,21.3452,175,75
2026-05-09 16:14:56.337,3,0.48,0.19,1.03,-272.877,-91.2324,-170.0684,175,75
2026-05-09 16:14:56.353,5,1.57,0.86,0.28,78.1442,-248.76559999999998,-15.3872,175,75
2026-05-09 16:14:56.353,4,0.18,1.41,1.39,-15.180800000000001,-44.425399999999996,20.0652,175,75
2026-05-09 16:14:56.353,1,-0.95,0.22,-0.36,-253.015,243.78259999999997,132.0718,175,75
2026-05-09 16:14:56.353,2,-0.06,0.59,1.55,-93.0774,-133.64800000000002,-10.033600000000002,175,75
2026-05-09 16:14:56.353,3,0.85,0.04,1.11,-294.827,-119.1624,-163.2384,175,75
2026-05-09 16:14:56.354,5,1.09,0.62,0.02,56.0542,-248.76559999999998,38.5728,175,75
2026-05-09 16:14:56.365,4,0.1,1.47,1.29,-7.9308000000000005,-23.0254,19.6352,175,75
2026-05-09 16:14:56.365,2,-0.11,0.73,1.3,-69.6574,-167.05800000000002,-6.7436,175,75
2026-05-09 16:14:56.365,3,1.19,-0.16,1.21,-308.79699999999997,-135.1924,-164.88840000000002,175,75
2026-05-09 16:14:56.365,5,0.6,0.24,-0.28,47.4642,-248.76559999999998,82.1028,175,75
2026-05-09 16:14:56.374,1,-1.46,-1.76,-1.53,-426.855,349.0826,250.9718,175,75
2026-05-09 16:14:56.374,4,0.05,1.33,1.18,4.449199999999999,24.904600000000002,23.6652,175,75
2026-05-09 16:14:56.374,2,-0.22,0.8,1.06,-49.967400000000005,-166.02800000000002,-2.2336,175,75
2026-05-09 16:14:56.374,4,0.07,1.19,1.15,11.5792,68.6246,28.2352,175,75
2026-05-09 16:14:56.386,3,1.27,-0.2,1.33,-323.12699999999995,-171.29240000000001,-152.3884,175,75
2026-05-09 16:14:56.386,2,-0.38,0.87,0.85,-23.2574,-131.328,4.1764,175,75
2026-05-09 16:14:56.386,5,0.16,-0.2,-1.84,135.92419999999998,-248.76559999999998,169.4228,175,75
2026-05-09 16:14:56.396,1,0.44,-3.06,0.96,-411.665,261.0326,216.8818,175,75
2026-05-09 16:14:56.396,3,1.21,-0.16,1.29,-324.467,-171.4124,-152.9984,175,75
2026-05-09 16:14:56.396,4,0.14,1.12,1.22,12.7392,116.18459999999999,31.2252,175,75
2026-05-09 16:14:56.396,2,-0.33,0.91,0.81,-2.5274000000000005,-82.91799999999999,9.716399999999998,175,75
2026-05-09 16:14:56.396,5,0.6,-0.79,-2.0,209.6642,-248.76559999999998,210.0528,175,75
2026-05-09 16:14:56.408,1,-0.69,-1.96,0.45,-507.705,87.2526,158.3518,175,75
2026-05-09 16:14:56.408,3,0.62,0.14,1.12,-309.647,-105.8024,-150.8584,175,75
2026-05-09 16:14:56.408,4,0.17,1.16,1.32,10.729199999999999,135.3246,31.775199999999998,175,75
2026-05-09 16:14:56.408,5,0.8,-0.54,-2.0,249.61419999999998,-248.76559999999998,158.4428,175,75
2026-05-09 16:14:56.408,2,-0.13,0.85,0.87,24.2426,-2.8480000000000025,15.696399999999999,175,75
2026-05-09 16:14:56.418,4,0.15,1.19,1.5,12.6192,142.9546,32.0752,175,75
2026-05-09 16:14:56.418,1,0.45,-0.98,0.31,-528.805,210.6726,172.49179999999998,175,75
2026-05-09 16:14:56.418,3,-6.68,2.51,2.43,-165.317,523.3376,72.86160000000001,175,75
2026-05-09 16:14:56.418,5,-1.03,-0.17,-1.99,201.05419999999998,-248.76559999999998,96.1028,175,75
2026-05-09 16:14:56.418,2,0.07,0.65,1.01,44.672599999999996,52.632,13.4964,175,75
2026-05-09 16:14:56.418,1,0.51,-0.99,0.92,-489.965,149.93259999999998,169.02179999999998,175,75
2026-05-09 16:14:56.422,4,0.12,1.06,1.63,16.9492,127.03460000000001,30.435200000000002,175,75
2026-05-09 16:14:56.422,3,2.74,-1.66,3.59,244.013,102.85759999999999,-50.7984,175,75
2026-05-09 16:14:56.436,5,-1.46,0.14,-0.65,123.0642,-248.76559999999998,94.1528,175,75
2026-05-09 16:14:56.436,2,0.07,0.38,1.21,65.0926,59.581999999999994,6.5464,175,75
2026-05-09 16:14:56.436,1,0.7,-0.8,1.41,-449.775,105.0626,149.7518,175,75
2026-05-09 16:14:56.436,4,0.05,0.84,1.7,18.4692,98.3746,26.1652,175,75
2026-05-09 16:14:56.436,5,-1.33,0.2,0.0,36.6342,-248.76559999999998,94.2128,175,75
2026-05-09 16:14:56.446,2,-0.02,0.22,1.29,75.5226,42.272,5.3864,175,75
2026-05-09 16:14:56.446,1,0.75,-0.58,1.54,-439.595,36.5826,133.65179999999998,175,75
2026-05-09 16:14:56.446,4,-0.04,0.58,1.65,15.2392,70.8746,18.7252,175,75
2026-05-09 16:14:56.446,5,-1.15,0.37,0.48,-43.5058,-248.76559999999998,59.6428,175,75
2026-05-09 16:14:56.446,3,0.27,0.76,4.12,272.483,379.2576,186.52159999999998,175,75
2026-05-09 16:14:56.446,2,-0.14,0.11,1.34,80.0326,18.182,3.5664000000000002,175,75
2026-05-09 16:14:56.459,4,-0.12,0.3,1.51,15.299199999999999,66.0646,9.8852,175,75
2026-05-09 16:14:56.459,1,0.53,-0.34,1.47,-415.085,1.4625999999999992,122.8618,175,75
2026-05-09 16:14:56.459,5,-1.06,0.45,0.5,-122.0258,-248.76559999999998,4.4228000000000005,175,75
2026-05-09 16:14:56.459,2,-0.25,0.0,1.39,77.8426,-6.568000000000001,1.3664,175,75
2026-05-09 16:14:56.459,3,3.46,-1.46,1.59,31.262999999999998,-640.7424,70.79159999999999,175,75
2026-05-09 16:14:56.472,5,-0.64,0.42,0.21,-185.69580000000002,-248.76559999999998,-57.337199999999996,175,75
2026-05-09 16:14:56.472,1,0.44,-0.16,1.63,-397.945,-21.037399999999998,104.57180000000001,175,75
2026-05-09 16:14:56.472,4,-0.1,-0.13,1.29,24.8192,106.6046,5.8552,175,75
2026-05-09 16:14:56.472,2,-0.29,-0.16,1.49,66.3126,-42.178,-1.0735999999999999,175,75
2026-05-09 16:14:56.472,3,-4.34,-0.44,-1.13,-243.067,-360.68240000000003,273.0416,175,75
2026-05-09 16:14:56.479,5,0.15,0.24,-0.35,-222.59580000000003,-248.76559999999998,-134.6772,175,75
2026-05-09 16:14:56.479,1,0.45,0.26,1.79,-371.245,-63.657399999999996,105.9718,175,75
2026-05-09 16:14:56.479,3,-4.39,1.16,-1.18,-187.457,469.6176,302.9816,175,75
2026-05-09 16:14:56.493,5,1.4,0.04,-1.15,-241.2958,-149.3156,-209.9572,175,75
2026-05-09 16:14:56.493,1,0.44,0.56,1.8,-340.695,-103.8474,114.0218,175,75
2026-05-09 16:14:56.493,4,-0.23,-0.98,1.18,35.2392,155.6946,21.5852,175,75
2026-05-09 16:14:56.507,3,2.02,-0.9,0.29,265.173,-105.6224,-43.4784,175,75
2026-05-09 16:14:56.507,5,2.0,-0.46,-1.82,-208.34580000000003,228.5044,-238.8872,175,75
2026-05-09 16:14:56.507,1,0.36,0.7,1.7,-303.255,-131.8974,122.01180000000001,175,75
2026-05-09 16:14:56.519,4,-0.49,-1.38,1.34,31.7092,150.3846,20.6752,175,75
2026-05-09 16:14:56.519,5,2.0,0.1,-1.33,-180.59580000000003,251.5044,-226.7972,175,75
2026-05-09 16:14:56.519,4,-0.79,-1.77,1.58,30.969199999999997,141.3046,15.615199999999998,175,75
2026-05-09 16:14:56.519,3,1.43,-0.34,2.14,66.143,312.6676,51.9416,175,75
2026-05-09 16:14:56.529,5,1.33,0.46,-0.5,-214.16580000000002,251.5044,-216.6472,175,75
2026-05-09 16:14:56.529,2,-0.27,-0.65,1.33,12.4726,-113.58800000000001,-16.8036,175,75
2026-05-09 16:14:56.529,3,0.61,-0.33,2.47,77.673,-46.232400000000005,82.61160000000001,175,75
2026-05-09 16:14:56.529,1,0.48,0.73,1.29,-169.965,-88.7174,80.12180000000001,175,75
2026-05-09 16:14:56.541,3,-0.59,-0.76,1.6,65.293,-30.1924,48.9616,175,75
2026-05-09 16:14:56.541,5,0.43,0.47,-0.85,-250.6558,251.5044,-248.25719999999998,175,75
2026-05-09 16:14:56.541,2,-0.22,-0.44,1.38,9.6726,-46.998000000000005,-29.183600000000002,175,75
2026-05-09 16:14:56.541,1,0.41,0.9,1.34,-130.875,-76.4674,58.901799999999994,175,75
2026-05-09 16:14:56.541,4,-1.04,-1.19,2.05,-7.2008,10.084600000000002,-56.1548,175,75
2026-05-09 16:14:56.554,5,0.25,0.21,-1.07,-250.6558,251.5044,-248.25719999999998,175,75
2026-05-09 16:14:56.554,3,-0.39,-0.57,1.05,57.973000000000006,25.837600000000002,10.0516,175,75
2026-05-09 16:14:56.554,2,-0.27,-0.49,1.44,9.0026,-30.598000000000003,-31.253600000000002,175,75
2026-05-09 16:14:56.554,1,0.45,1.11,1.4,-83.195,-58.537400000000005,32.0118,175,75
2026-05-09 16:14:56.554,4,-0.91,-0.85,1.82,-41.770799999999994,-52.2954,-42.9248,175,75
2026-05-09 16:14:56.554,5,0.06,-0.1,-1.16,-250.6558,251.5044,-248.25719999999998,175,75
2026-05-09 16:14:56.566,3,-0.39,-0.36,1.36,80.233,53.6476,5.361599999999999,175,75
2026-05-09 16:14:56.566,1,0.54,1.29,1.42,-39.355,-55.9774,10.3618,175,75
2026-05-09 16:14:56.566,5,2.0,2.0,2.0,-250.6558,251.5044,252.0128,175,75
2026-05-09 16:14:56.576,3,-0.23,-0.3,1.71,71.32300000000001,34.9276,-9.6384,175,75
2026-05-09 16:14:56.576,2,-0.46,-0.72,1.53,-3.6874,-16.088000000000005,-42.6536,175,75
2026-05-09 16:14:56.576,1,0.55,1.42,1.38,13.875,-57.5074,-8.9682,175,75
2026-05-09 16:14:56.576,5,-2.0,2.0,1.56,-250.6558,251.5044,252.0128,175,75
2026-05-09 16:14:56.576,3,-0.25,-0.19,1.86,51.023,26.087600000000002,-9.578400000000002,175,75
2026-05-09 16:14:56.580,4,-1.09,-0.81,1.25,-25.7308,-19.0054,0.4952000000000001,175,75
