Time,ID,Ax,Ay,Az,Gx,Gy,Gz,H,W
2026-05-09 16:13:16.676,5,-0.13,0.18,0.52,18.1522,-109.719,48.7992,175,75
2026-05-09 16:13:16.676,4,-0.02,0.9,1.36,9.235199999999999,77.5762,3.7493999999999996,175,75
2026-05-09 16:13:16.676,1,0.3,0.63,1.08,127.6236,-104.59140000000001,-80.06899999999999,175,75
2026-05-09 16:13:16.676,3,0.37,-0.5,1.09,183.13240000000002,75.80879999999999,66.504,175,75
2026-05-09 16:13:16.688,2,-0.46,0.64,0.53,5.041600000000001,45.022600000000004,9.9246,175,75
2026-05-09 16:13:16.688,4,0.03,1.02,1.46,3.315200000000001,59.9562,-3.8706,175,75
2026-05-09 16:13:16.688,3,0.14,-0.3,1.2,180.57240000000002,97.08879999999999,64.79400000000001,175,75
2026-05-09 16:13:16.688,2,-0.44,0.67,0.56,1.4416000000000007,47.4626,11.3346,175,75
2026-05-09 16:13:16.688,5,-0.01,0.15,0.31,15.6722,-131.769,39.4692,175,75
2026-05-09 16:13:16.701,3,0.07,-0.13,1.33,188.5624,111.72879999999999,61.994,175,75
2026-05-09 16:13:16.701,1,0.26,0.68,1.11,126.34360000000001,-102.8814,-81.899,175,75
2026-05-09 16:13:16.701,4,0.06,1.11,1.52,-1.4947999999999997,35.6862,-11.3706,175,75
2026-05-09 16:13:16.701,5,0.05,0.13,0.23,11.0422,-134.639,41.5392,175,75
2026-05-09 16:13:16.701,2,-0.43,0.69,0.61,-5.9284,44.9626,13.2846,175,75
2026-05-09 16:13:16.701,1,0.24,0.66,1.14,121.7136,-107.82140000000001,-80.12899999999999,175,75
2026-05-09 16:13:16.716,5,0.04,0.07,0.15,8.6922,-135.59900000000002,43.2992,175,75
2026-05-09 16:13:16.716,4,0.07,1.15,1.53,-2.5947999999999993,14.8262,-16.9806,175,75
2026-05-09 16:13:16.716,2,-0.43,0.69,0.66,-11.728399999999999,33.1926,13.5846,175,75
2026-05-09 16:13:16.716,1,0.22,0.63,1.15,113.23360000000001,-115.3814,-77.01899999999999,175,75
2026-05-09 16:13:16.716,3,0.32,0.07,1.53,172.2824,107.1588,54.12400000000001,175,75
2026-05-09 16:13:16.716,4,0.08,1.16,1.54,-2.104799999999999,-1.453800000000001,-21.680600000000002,175,75
2026-05-09 16:13:16.727,5,0.02,-0.05,-0.02,13.892199999999999,-139.389,46.1092,175,75
2026-05-09 16:13:16.727,2,-0.39,0.69,0.69,-11.9684,13.192600000000002,10.9646,175,75
2026-05-09 16:13:16.727,3,0.34,0.35,1.37,158.38240000000002,89.22879999999999,45.224000000000004,175,75
2026-05-09 16:13:16.737,5,0.01,-0.11,-0.17,26.6722,-149.18900000000002,66.6292,175,75
2026-05-09 16:13:16.737,1,0.29,0.69,1.15,100.5536,-132.76139999999998,-73.359,175,75
2026-05-09 16:13:16.737,3,0.19,0.76,1.28,150.0224,110.74879999999999,38.45400000000001,175,75
2026-05-09 16:13:16.737,5,0.1,-0.19,-0.29,41.4422,-159.799,84.9992,175,75
2026-05-09 16:13:16.749,1,0.39,0.71,1.15,90.8536,-131.60139999999998,-66.76899999999999,175,75
2026-05-09 16:13:16.749,3,0.31,1.0,1.34,135.0824,119.71879999999999,45.95400000000001,175,75
2026-05-09 16:13:16.749,2,-0.43,0.67,0.7,-8.488399999999999,-21.447399999999995,10.1746,175,75
2026-05-09 16:13:16.749,4,0.04,1.08,1.52,5.9452,-51.2038,-34.7806,175,75
2026-05-09 16:13:16.749,5,0.15,-0.18,-0.31,62.3022,-171.15900000000002,104.9692,175,75
2026-05-09 16:13:16.760,1,0.42,0.71,1.1,87.8636,-101.8514,-71.09899999999999,175,75
2026-05-09 16:13:16.760,2,-0.43,0.64,0.7,-6.238399999999999,-28.2774,8.8346,175,75
2026-05-09 16:13:16.760,5,0.14,-0.23,-0.46,87.1222,-184.809,119.9892,175,75
2026-05-09 16:13:16.760,4,0.01,1.02,1.5,12.5852,-68.2738,-38.3806,175,75
2026-05-09 16:13:16.760,3,-0.01,1.35,1.55,133.5624,114.9588,68.21400000000001,175,75
2026-05-09 16:13:16.771,1,0.12,0.79,0.68,75.12360000000001,-186.7214,-61.839000000000006,175,75
2026-05-09 16:13:16.771,2,-0.46,0.64,0.69,-1.4783999999999997,-22.477399999999996,9.0746,175,75
2026-05-09 16:13:16.771,5,0.1,-0.12,-0.53,93.5622,-203.049,126.9992,175,75
2026-05-09 16:13:16.771,3,0.01,1.14,1.58,123.9324,86.35879999999999,96.384,175,75
2026-05-09 16:13:16.771,4,-0.04,0.89,1.48,23.8052,-95.2338,-43.7506,175,75
2026-05-09 16:13:16.781,1,-3.95,0.9,-0.03,-5.7864,-736.4214,-91.40899999999999,175,75
2026-05-09 16:13:16.781,2,-0.45,0.69,0.73,2.0516000000000005,-6.567399999999999,11.3946,175,75
2026-05-09 16:13:16.781,3,0.37,0.57,1.6,100.88239999999999,11.1188,84.004,175,75
2026-05-09 16:13:16.781,4,-0.15,0.74,1.43,32.3452,-126.69380000000001,-52.7106,175,75
2026-05-09 16:13:16.781,1,-9.64,1.25,-1.33,-78.65639999999999,-448.6814,18.041,175,75
2026-05-09 16:13:16.796,5,0.5,-0.17,-0.7,70.4022,-207.299,121.7992,175,75
2026-05-09 16:13:16.796,2,-0.3,0.74,0.88,5.411600000000001,28.372600000000002,15.7246,175,75
2026-05-09 16:13:16.796,3,0.34,0.44,1.35,65.63239999999999,-51.8112,42.604,175,75
2026-05-09 16:13:16.796,4,-0.35,0.61,1.31,38.0152,-152.4838,-59.7206,175,75
2026-05-09 16:13:16.796,1,8.1,-3.49,-1.22,-260.7864,-26.6614,589.261,175,75
2026-05-09 16:13:16.796,5,1.09,-0.31,-0.73,58.7022,-140.299,117.3692,175,75
2026-05-09 16:13:16.800,2,-0.17,0.65,1.11,5.6516,58.3126,16.4546,175,75
2026-05-09 16:13:16.816,5,1.02,-0.33,-0.51,52.6722,-33.599,108.3492,175,75
2026-05-09 16:13:16.816,4,-0.64,0.44,1.21,51.425200000000004,-172.18380000000002,-55.9406,175,75
2026-05-09 16:13:16.816,3,0.23,0.79,0.97,26.3624,-74.4912,25.534000000000002,175,75
2026-05-09 16:13:16.817,1,-0.62,-2.96,-0.02,34.7636,36.0186,-110.619,175,75
2026-05-09 16:13:16.817,2,0.13,0.24,1.56,5.831600000000001,67.1526,10.4746,175,75
2026-05-09 16:13:16.827,5,1.11,-0.6,-0.1,59.0522,85.921,105.9892,175,75
2026-05-09 16:13:16.827,3,0.08,0.78,0.85,13.0124,-39.4912,10.834,175,75
2026-05-09 16:13:16.827,1,2.73,-1.73,-1.18,-123.7764,203.0286,152.191,175,75
2026-05-09 16:13:16.827,4,-1.04,0.01,1.0,69.0552,-171.93380000000002,-45.8806,175,75
2026-05-09 16:13:16.827,2,0.1,-0.39,1.88,1.3216000000000006,17.092600000000004,7.3046,175,75
2026-05-09 16:13:16.827,5,1.12,-0.39,0.6,80.4722,248.101,104.1292,175,75
2026-05-09 16:13:16.838,3,-0.14,0.75,0.84,-1.5576000000000008,10.2688,-6.9659999999999975,175,75
2026-05-09 16:13:16.838,4,-1.13,-0.63,0.66,83.8652,-130.2338,-36.6106,175,75
2026-05-09 16:13:16.838,2,-0.29,-0.8,1.86,8.8216,-22.787399999999998,21.6346,175,75
2026-05-09 16:13:16.838,5,0.76,-0.67,1.1,36.852199999999996,251.21099999999998,59.1992,175,75
2026-05-09 16:13:16.838,3,-0.33,0.7,0.95,-18.1476,42.7688,-27.766,175,75
2026-05-09 16:13:16.849,4,-0.98,-1.53,0.27,94.5952,-50.293800000000005,-23.8106,175,75
2026-05-09 16:13:16.849,1,1.14,1.26,1.46,-181.21640000000002,-68.7414,49.571,175,75
2026-05-09 16:13:16.849,2,-0.55,-1.16,1.71,21.8716,-22.537399999999998,44.9946,175,75
2026-05-09 16:13:16.849,5,0.45,-0.04,0.76,11.1322,251.21099999999998,-30.1108,175,75
2026-05-09 16:13:16.861,1,-1.27,1.08,-0.15,-99.26639999999999,-134.1614,52.981,175,75
2026-05-09 16:13:16.861,4,-0.91,-2.53,0.26,87.8952,55.746199999999995,5.5794,175,75
2026-05-09 16:13:16.861,5,0.51,-0.22,0.84,-19.5278,251.21099999999998,-139.3408,175,75
2026-05-09 16:13:16.861,2,-0.63,-1.24,1.61,14.191600000000001,0.992600000000003,36.6946,175,75
2026-05-09 16:13:16.872,3,-0.12,0.88,1.32,-80.76759999999999,-0.34119999999999995,-116.056,175,75
2026-05-09 16:13:16.872,1,-1.17,0.67,-0.07,-102.8664,-26.2414,73.471,175,75
2026-05-09 16:13:16.872,5,-1.7,-1.6,2.0,1.6922000000000001,251.21099999999998,-249.8108,175,75
2026-05-09 16:13:16.872,4,-1.29,-2.95,0.66,59.4752,130.56619999999998,34.2994,175,75
2026-05-09 16:13:16.872,3,-0.01,1.09,1.34,-119.48759999999999,0.7487999999999999,-110.87599999999999,175,75
2026-05-09 16:13:16.872,2,-0.15,-0.82,1.76,-9.408399999999999,109.5326,-3.9154,175,75
2026-05-09 16:13:16.889,4,-2.01,-2.45,1.22,-7.5348,170.68619999999999,15.5794,175,75
2026-05-09 16:13:16.889,3,0.06,1.29,1.38,-153.9976,-23.6412,-102.636,175,75
2026-05-09 16:13:16.901,5,-0.95,0.86,2.0,-3.7678,251.21099999999998,-249.8108,175,75
2026-05-09 16:13:16.901,3,0.11,1.33,1.45,-176.80759999999998,-69.3712,-106.356,175,75
2026-05-09 16:13:16.901,1,-0.74,-0.03,0.06,-8.0464,63.028600000000004,45.791,175,75
2026-05-09 16:13:16.901,4,-2.4,-1.59,1.58,-93.7548,208.2462,-80.7006,175,75
2026-05-09 16:13:16.901,2,0.11,-0.49,2.5,-9.408399999999999,132.8226,44.1946,175,75
2026-05-09 16:13:16.901,5,-1.99,0.75,2.0,-105.1078,251.21099999999998,-249.8108,175,75
2026-05-09 16:13:16.912,3,0.17,1.33,1.43,-205.7676,-110.5912,-110.01599999999999,175,75
2026-05-09 16:13:16.912,4,-1.71,-1.2,1.92,-146.9248,255.1362,-146.1306,175,75
2026-05-09 16:13:16.912,2,-0.06,-0.58,2.72,-4.958399999999999,83.43260000000001,20.9046,175,75
2026-05-09 16:13:16.912,5,-2.0,0.23,2.0,-132.1778,251.21099999999998,-249.8108,175,75
2026-05-09 16:13:16.912,3,0.33,1.27,1.31,-240.8876,-139.9812,-105.506,175,75
2026-05-09 16:13:16.912,1,-0.59,-0.11,0.44,-13.8364,40.528600000000004,-24.339000000000002,175,75
2026-05-09 16:13:16.912,4,-0.62,-0.71,2.37,-187.3548,273.8562,6.0094,175,75
2026-05-09 16:13:16.926,5,-2.0,-0.48,1.93,-124.4978,227.191,-240.0808,175,75
2026-05-09 16:13:16.926,2,-0.1,-0.6,2.87,-26.358399999999996,29.102600000000002,1.8845999999999998,175,75
2026-05-09 16:13:16.926,1,-0.71,-0.06,0.42,6.223599999999999,37.2986,-26.469,175,75
2026-05-09 16:13:16.926,3,0.78,0.9,1.06,-271.43760000000003,-169.0012,-110.076,175,75
2026-05-09 16:13:16.926,2,-0.1,-0.4,2.72,-42.3984,-26.687399999999997,-1.4754000000000003,175,75
2026-05-09 16:13:16.937,5,-2.0,-0.71,1.79,-106.4478,12.860999999999999,56.0192,175,75
2026-05-09 16:13:16.937,3,0.03,0.58,0.87,-286.9276,-183.0312,-137.276,175,75
2026-05-09 16:13:16.937,2,-0.07,-0.23,2.53,-46.2984,-75.3474,6.6946,175,75
2026-05-09 16:13:16.937,5,-2.0,-0.39,2.0,-104.7178,-137.809,250.45919999999998,175,75
2026-05-09 16:13:16.948,4,-1.0,-1.17,2.51,-74.0548,1.8461999999999996,-26.3706,175,75
2026-05-09 16:13:16.948,3,-0.17,0.45,0.89,-300.7676,-117.6012,-181.966,175,75
2026-05-09 16:13:16.948,2,-0.09,-0.17,2.28,-44.2884,-104.3074,20.5946,175,75
2026-05-09 16:13:16.948,5,-2.0,0.02,2.0,-120.4278,-232.199,250.45919999999998,175,75
2026-05-09 16:13:16.971,5,-2.0,0.37,2.0,-134.5478,-249.059,250.45919999999998,175,75
2026-05-09 16:13:16.971,1,-0.12,-1.22,0.83,16.0436,80.03859999999999,-38.179,175,75
2026-05-09 16:13:16.971,4,-1.24,-0.89,2.34,-86.0748,-194.62380000000002,-77.89059999999999,175,75
2026-05-09 16:13:16.971,2,-0.13,-0.28,1.98,-46.4184,-121.7474,23.6446,175,75
2026-05-09 16:13:16.971,5,-1.69,0.51,2.0,-173.02779999999998,-249.059,250.45919999999998,175,75
2026-05-09 16:13:16.971,4,-1.22,-0.52,2.01,-92.6548,-215.90380000000002,-87.77059999999999,175,75
2026-05-09 16:13:16.988,5,-1.72,-0.37,2.0,-249.19779999999997,-249.059,250.45919999999998,175,75
2026-05-09 16:13:16.988,2,-0.23,-0.36,1.64,-46.2384,-76.7474,8.3446,175,75
2026-05-09 16:13:16.988,1,0.4,-1.33,1.11,17.9936,106.8686,-13.539,175,75
2026-05-09 16:13:16.988,4,-1.1,-0.16,1.61,-75.6448,-217.18380000000002,-89.11059999999999,175,75
2026-05-09 16:13:16.988,5,-1.6,-1.12,1.81,-249.19779999999997,-249.059,250.45919999999998,175,75
2026-05-09 16:13:16.988,3,-4.33,-2.21,6.8,278.2524,-149.5512,-175.996,175,75
2026-05-09 16:13:17.001,1,0.27,-1.23,1.43,21.2836,99.2486,-22.019000000000002,175,75
2026-05-09 16:13:17.001,2,-0.23,-0.3,1.52,-32.8784,-55.587399999999995,5.9046,175,75
2026-05-09 16:13:17.001,2,-0.17,-0.21,1.42,-15.318399999999999,-45.9574,5.5346,175,75
2026-05-09 16:13:17.011,4,-1.1,0.07,1.09,-24.544800000000002,-77.0638,-47.7106,175,75
2026-05-09 16:13:17.011,1,0.36,-0.97,1.71,18.5436,103.5786,-19.339000000000002,175,75
2026-05-09 16:13:17.011,3,6.84,0.81,2.45,-374.4276,-779.1912,-48.066,175,75
2026-05-09 16:13:17.011,5,0.32,-1.91,-0.06,-249.19779999999997,-249.059,250.45919999999998,175,75
2026-05-09 16:13:17.011,2,-0.13,-0.14,1.35,-7.208399999999999,-45.227399999999996,5.7846,175,75
2026-05-09 16:13:17.022,4,-1.06,-0.1,1.03,-6.7448,38.9762,-29.7906,175,75
2026-05-09 16:13:17.022,3,-3.32,1.36,0.15,-617.7176,-638.2112000000001,110.34400000000001,175,75
2026-05-09 16:13:17.022,1,0.13,-0.44,1.9,24.3336,93.45859999999999,-18.789,175,75
2026-05-09 16:13:17.022,5,1.17,-1.74,-0.23,-229.3978,-249.059,250.45919999999998,175,75
2026-05-09 16:13:17.022,2,-0.05,-0.05,1.27,-8.9184,-45.77739999999999,3.4646,175,75
2026-05-09 16:13:17.022,4,-0.93,-0.32,1.19,3.805200000000001,139.28619999999998,-16.1906,175,75
2026-05-09 16:13:17.034,3,-2.0,1.75,-2.19,-461.7476,61.5488,-50.07599999999999,175,75
2026-05-09 16:13:17.034,5,2.0,-1.17,-0.72,-175.1678,-249.059,192.6892,175,75
2026-05-09 16:13:17.034,1,0.07,0.05,1.87,33.3536,89.73859999999999,-17.139000000000003,175,75
2026-05-09 16:13:17.034,2,-0.02,0.08,1.14,-14.9584,-33.5774,-1.1054000000000002,175,75
2026-05-09 16:13:17.046,5,1.38,-1.17,-1.09,-135.4578,-129.139,-64.8708,175,75
2026-05-09 16:13:17.046,1,-0.07,0.54,1.73,38.9036,87.59859999999999,-4.269,175,75
2026-05-09 16:13:17.046,4,-0.68,-0.3,1.73,15.5152,178.7362,-14.110600000000002,175,75
2026-05-09 16:13:17.046,3,0.08,-0.56,-0.52,144.9024,9.168800000000001,-30.205999999999996,175,75
2026-05-09 16:13:17.046,5,-0.12,-1.01,-0.61,-76.3478,-13.249,-230.38080000000002,175,75
2026-05-09 16:13:17.063,2,-0.12,0.35,0.96,-5.5084,5.572600000000001,-7.0854,175,75
2026-05-09 16:13:17.063,5,-0.45,-0.8,-0.28,-3.1577999999999995,21.730999999999998,-249.8108,175,75
2026-05-09 16:13:17.063,4,-0.49,-0.11,1.98,11.8552,126.84619999999998,-20.6406,175,75
2026-05-09 16:13:17.063,1,-0.32,0.58,0.84,4.083600000000001,-33.7414,-0.18900000000000006,175,75
2026-05-09 16:13:17.075,4,-0.41,0.08,2.07,4.1752,56.236200000000004,-24.3006,175,75
2026-05-09 16:13:17.075,3,0.06,-0.26,2.47,41.1224,167.0288,-86.786,175,75
2026-05-09 16:13:17.075,2,-0.22,0.45,0.93,10.1616,33.982600000000005,-9.2754,175,75
2026-05-09 16:13:17.085,4,-0.41,0.29,2.05,-1.5548000000000002,-7.3637999999999995,-27.6506,175,75
2026-05-09 16:13:17.085,1,-0.54,0.42,0.41,-27.066399999999998,-12.091399999999998,18.041,175,75
2026-05-09 16:13:17.085,3,0.67,-0.35,2.57,-47.7776,-40.3412,-110.136,175,75
2026-05-09 16:13:17.085,1,-0.55,0.43,0.66,-29.816399999999998,63.5186,19.141,175,75
2026-05-09 16:13:17.099,3,0.47,0.35,1.43,-112.83760000000001,-125.89120000000001,-46.416,175,75
2026-05-09 16:13:17.099,2,-0.28,0.5,0.92,10.4116,15.992600000000003,-11.5954,175,75
2026-05-09 16:13:17.099,1,0.35,0.57,1.57,13.4136,123.0886,17.621,175,75
2026-05-09 16:13:17.099,5,-0.01,0.35,-0.0,138.68220000000002,194.231,-249.8108,175,75
2026-05-09 16:13:17.099,4,-0.38,0.62,1.76,-1.9247999999999994,-75.8438,-28.8106,175,75
2026-05-09 16:13:17.116,5,0.3,0.72,-0.02,100.5422,219.911,-249.8108,175,75
2026-05-09 16:13:17.116,1,0.71,0.68,2.12,58.1136,85.2286,4.021,175,75
2026-05-09 16:13:17.116,2,-0.27,0.55,0.86,12.1816,-7.417399999999997,-9.0354,175,75
2026-05-09 16:13:17.116,4,-0.36,0.68,1.65,1.7352000000000007,-81.7538,-28.8106,175,75
2026-05-09 16:13:17.116,3,0.28,0.02,0.11,-56.3776,-21.9312,-40.806,175,75
2026-05-09 16:13:17.116,1,0.62,0.73,2.02,74.2736,13.5186,-6.588999999999999,175,75
2026-05-09 16:13:17.116,5,0.29,1.23,-0.27,70.2522,235.331,-249.8108,175,75
2026-05-09 16:13:17.128,2,-0.26,0.57,0.78,13.1516,-30.837399999999995,-8.4854,175,75
2026-05-09 16:13:17.129,3,0.41,-0.09,0.07,-23.5676,63.0088,-32.576,175,75
2026-05-09 16:13:17.129,4,-0.35,0.71,1.57,6.6152000000000015,-79.2538,-29.6006,175,75
2026-05-09 16:13:17.129,5,0.82,0.76,-0.3,33.4222,218.701,-249.8108,175,75
2026-05-09 16:13:17.143,2,-0.32,0.58,0.68,11.1416,-38.7574,-9.2154,175,75
2026-05-09 16:13:17.143,5,0.75,0.93,-0.46,7.3122,151.231,-120.8108,175,75
2026-05-09 16:13:17.143,4,-0.36,0.74,1.5,11.1252,-72.4238,-33.8106,175,75
2026-05-09 16:13:17.143,2,-0.36,0.58,0.62,9.6816,-34.0674,-12.1454,175,75
2026-05-09 16:13:17.156,5,-0.01,0.92,-0.28,-12.2278,39.931000000000004,0.6792,175,75
2026-05-09 16:13:17.156,1,0.36,0.72,1.39,115.2436,-5.4414,-28.479,175,75
2026-05-09 16:13:17.156,5,-0.16,0.65,-0.05,-32.9278,-25.349,23.1092,175,75
2026-05-09 16:13:17.180,1,0.34,0.67,1.41,126.1036,-6.791399999999999,-33.299,175,75
2026-05-09 16:13:17.180,5,0.1,0.38,0.05,-41.0178,-28.929000000000002,14.459200000000001,175,75
2026-05-09 16:13:17.180,3,0.89,0.18,1.2,32.1024,-2.1112,12.114,175,75
2026-05-09 16:13:17.180,1,0.33,0.59,1.42,136.46359999999999,-16.6614,-36.649,175,75
2026-05-09 16:13:17.180,3,0.83,0.16,0.94,47.4024,-28.0912,24.924000000000003,175,75
2026-05-09 16:13:17.180,5,0.33,0.21,0.18,-38.8178,5.771000000000001,9.0892,175,75
2026-05-09 16:13:17.190,2,-0.47,0.58,0.45,21.5116,15.442600000000002,-16.4754,175,75
2026-05-09 16:13:17.190,1,0.36,0.52,1.4,143.90359999999998,-23.9814,-42.379,175,75
2026-05-09 16:13:17.190,3,0.78,0.07,0.62,73.6824,-35.4112,35.34400000000001,175,75
2026-05-09 16:13:17.203,1,0.43,0.52,1.37,146.65359999999998,-31.181399999999996,-43.909,175,75
2026-05-09 16:13:17.203,4,-0.39,0.88,1.34,13.1952,-73.5238,-43.3806,175,75
2026-05-09 16:13:17.203,5,0.54,0.24,0.26,-39.147800000000004,91.681,41.6492,175,75
2026-05-09 16:13:17.203,3,0.69,0.07,0.42,102.6524,-1.1412,41.444,175,75
2026-05-09 16:13:17.215,2,-0.52,0.62,0.46,28.401600000000002,58.552600000000005,-13.2454,175,75
2026-05-09 16:13:17.215,1,0.34,0.56,1.39,146.71359999999999,-24.1614,-45.129,175,75
2026-05-09 16:13:17.215,5,0.34,0.49,0.12,-26.2078,99.681,74.3492,175,75
2026-05-09 16:13:17.215,4,-0.39,0.83,1.29,15.9452,-64.19380000000001,-46.2506,175,75
2026-05-09 16:13:17.215,3,0.66,0.12,0.43,136.6724,55.8088,49.43400000000001,175,75
2026-05-09 16:13:17.215,4,-0.38,0.77,1.28,18.0152,-55.4138,-50.0306,175,75
2026-05-09 16:13:17.226,5,0.3,0.28,0.48,-15.297799999999999,83.881,117.1792,175,75
2026-05-09 16:13:17.226,2,-0.53,0.65,0.53,30.901600000000002,75.26259999999999,-4.5254,175,75
2026-05-09 16:13:17.226,4,-0.37,0.7,1.3,20.0852,-51.9338,-55.8806,175,75
2026-05-09 16:13:17.226,3,0.55,0.12,0.75,190.2124,106.66879999999999,74.494,175,75
2026-05-09 16:13:17.240,1,0.66,0.53,1.36,149.4536,-79.8314,-50.129,175,75
2026-05-09 16:13:17.240,3,0.41,0.09,0.79,194.4724,111.2388,85.34400000000001,175,75
2026-05-09 16:13:17.240,2,-0.51,0.69,0.58,30.901600000000002,87.0926,0.5945999999999999,175,75
2026-05-09 16:13:17.240,5,0.13,0.14,0.46,-4.037800000000001,58.92100000000001,154.11919999999998,175,75
2026-05-09 16:13:17.240,4,-0.35,0.63,1.36,19.5352,-55.4738,-64.9106,175,75
2026-05-09 16:13:17.249,3,0.45,0.05,0.84,197.16240000000002,114.46879999999999,90.40400000000001,175,75
2026-05-09 16:13:17.249,1,-3.32,1.19,-1.65,57.2636,-536.3014,-33.059000000000005,175,75
2026-05-09 16:13:17.249,5,0.06,-0.01,0.39,-0.7878,47.001000000000005,162.74919999999997,175,75
2026-05-09 16:13:17.263,3,0.35,-0.04,1.04,194.41240000000002,108.3788,106.754,175,75
2026-05-09 16:13:17.263,2,-0.42,0.85,0.7,32.4216,116.8526,14.1346,175,75
2026-05-09 16:13:17.263,4,-0.35,0.55,1.48,11.1252,-105.65379999999999,-90.27059999999999,175,75
2026-05-09 16:13:17.278,5,0.18,-0.22,0.33,18.0522,30.451,181.0992,175,75
2026-05-09 16:13:17.278,2,-0.38,0.95,0.79,33.0916,130.14260000000002,21.9446,175,75
2026-05-09 16:13:17.278,3,0.16,-0.3,1.24,184.1724,103.6188,127.604,175,75
2026-05-09 16:13:17.278,1,-1.5,-1.19,-4.58,-286.82640000000004,97.2986,374.021,175,75
2026-05-09 16:13:17.278,4,-0.37,0.45,1.46,4.5352,-157.7938,-105.4606,175,75
2026-05-09 16:13:17.278,5,0.26,-0.32,0.31,26.8422,24.931,188.23919999999998,175,75
2026-05-09 16:13:17.289,2,-0.34,1.05,0.93,32.4216,147.5826,29.1346,175,75
2026-05-09 16:13:17.289,3,0.11,-0.54,1.46,182.3424,80.8788,127.90400000000001,175,75
2026-05-09 16:13:17.289,4,-0.43,0.3,1.42,-0.524799999999999,-199.62380000000002,-116.3706,175,75
2026-05-09 16:13:17.289,2,-0.26,1.12,1.14,30.101599999999998,161.1726,32.974599999999995,175,75
2026-05-09 16:13:17.289,1,-0.18,0.52,0.77,-127.8664,436.1386,72.551,175,75
2026-05-09 16:13:17.301,3,-0.06,-0.7,1.6,169.7824,30.808799999999998,110.044,175,75
2026-05-09 16:13:17.301,4,-0.59,0.11,1.37,-7.9048,-238.15380000000002,-123.8106,175,75
2026-05-09 16:13:17.301,2,-0.11,1.01,1.52,21.2016,147.39260000000002,27.7946,175,75
2026-05-09 16:13:17.301,5,0.26,-0.4,0.51,26.8922,27.091,192.30919999999998,175,75
2026-05-09 16:13:17.301,1,0.15,0.1,2.48,-129.3264,343.0886,97.37100000000001,175,75
2026-05-09 16:13:17.301,3,-0.2,-0.57,1.49,149.66240000000002,-4.5512,91.87400000000001,175,75
2026-05-09 16:13:17.312,2,-0.16,0.67,1.93,-1.5383999999999993,87.70259999999999,23.4646,175,75
2026-05-09 16:13:17.312,5,0.34,-0.51,0.69,22.7622,36.401,182.6392,175,75
2026-05-09 16:13:17.312,1,-0.07,-0.91,2.78,-55.7864,109.3086,118.90100000000001,175,75
2026-05-09 16:13:17.312,3,-0.29,-0.35,1.29,143.0124,-2.9712,88.584,175,75
2026-05-09 16:13:17.312,2,-0.19,0.45,2.19,-27.0884,16.242600000000003,23.2246,175,75
2026-05-09 16:13:17.318,5,0.35,-0.68,1.01,22.8222,42.201,149.76919999999998,175,75
2026-05-09 16:13:17.329,3,-0.39,-0.32,1.13,145.4524,29.4088,104.254,175,75
2026-05-09 16:13:17.329,2,-0.11,0.09,2.67,-68.0684,-87.9074,14.9246,175,75
2026-05-09 16:13:17.329,5,0.43,-0.94,1.46,31.3622,49.811,92.2392,175,75
2026-05-09 16:13:17.340,4,-0.89,-0.48,1.27,-38.324799999999996,-261.3838,-84.97059999999999,175,75
2026-05-09 16:13:17.340,1,-0.15,-0.5,0.78,-76.3964,-250.5114,-26.469,175,75
2026-05-09 16:13:17.340,5,0.56,-1.25,2.0,40.6322,61.331,30.3592,175,75
2026-05-09 16:13:17.340,2,-0.22,-0.35,2.86,-95.44839999999999,-146.7474,-3.0553999999999997,175,75
2026-05-09 16:13:17.351,4,-0.85,-0.83,1.15,-39.794799999999995,-220.90380000000002,-54.5406,175,75
2026-05-09 16:13:17.351,1,0.01,-0.15,-0.45,-81.7064,-161.79139999999998,43.830999999999996,175,75
2026-05-09 16:13:17.351,3,-0.73,-0.62,1.12,134.29240000000001,68.7388,85.284,175,75
2026-05-09 16:13:17.351,5,0.79,-1.41,2.0,47.3722,112.331,-40.6308,175,75
2026-05-09 16:13:17.351,2,-0.44,-0.79,2.7,-99.4084,-171.1374,-21.3554,175,75
2026-05-09 16:13:17.351,4,-0.68,-1.22,0.96,-32.3548,-151.5138,-37.8906,175,75
2026-05-09 16:13:17.363,1,-0.57,-0.57,-0.52,-53.8964,-18.5514,46.580999999999996,175,75
2026-05-09 16:13:17.363,3,-0.68,-0.61,1.07,115.3324,80.38879999999999,28.644000000000002,175,75
2026-05-09 16:13:17.363,2,-0.6,-1.03,2.19,-71.96839999999999,-175.7174,-30.3754,175,75
2026-05-09 16:13:17.363,4,-0.45,-1.81,0.93,-11.3148,-41.0238,-18.570600000000002,175,75
2026-05-09 16:13:17.380,2,-0.72,-0.9,1.82,-20.6284,-95.03739999999999,-19.4054,175,75
2026-05-09 16:13:17.380,4,-0.75,-2.29,1.27,3.385200000000001,77.2062,11.429400000000001,175,75
2026-05-09 16:13:17.380,5,-0.67,-0.03,1.58,30.2522,251.21099999999998,-249.8108,175,75
2026-05-09 16:13:17.391,3,0.04,-0.05,1.02,40.5724,80.74879999999999,-28.676,175,75
2026-05-09 16:13:17.391,4,-1.2,-2.41,1.76,3.385200000000001,166.9662,33.8694,175,75
2026-05-09 16:13:17.391,2,-0.51,-0.61,1.8,24.4916,33.3126,6.3946000000000005,175,75
2026-05-09 16:13:17.391,5,-0.88,-0.19,1.74,-9.6778,251.21099999999998,-249.8108,175,75
2026-05-09 16:13:17.391,1,-0.39,-0.44,0.38,1.2836000000000003,68.8886,18.591,175,75
2026-05-09 16:13:17.392,3,-0.08,0.09,1.09,16.0624,86.35879999999999,-36.176,175,75
2026-05-09 16:13:17.406,5,-0.48,0.69,2.0,-57.9178,251.21099999999998,-249.8108,175,75
2026-05-09 16:13:17.406,4,-1.6,-2.18,2.36,-6.2547999999999995,213.9762,30.889400000000002,175,75
2026-05-09 16:13:17.406,2,-0.2,-0.66,2.04,41.3816,149.9626,33.9546,175,75
2026-05-09 16:13:17.408,5,-2.0,0.28,2.0,-77.8178,177.15099999999998,-217.0508,175,75
2026-05-09 16:13:17.408,4,-1.57,-1.84,2.72,-11.8048,176.53619999999998,6.2494,175,75
2026-05-09 16:13:17.415,1,-0.66,-0.11,-0.11,36.6536,65.40859999999999,-5.129,175,75
2026-05-09 16:13:17.415,3,-0.18,-0.01,1.3,-34.8476,68.7388,-76.486,175,75
2026-05-09 16:13:17.415,2,-0.27,-0.73,1.99,36.4416,155.4426,35.4746,175,75
2026-05-09 16:13:17.422,5,-2.0,0.18,2.0,-98.0378,150.97099999999998,-249.8108,175,75
2026-05-09 16:13:17.422,4,-1.07,-1.31,3.01,-19.4848,75.80619999999999,6.7993999999999994,175,75
2026-05-09 16:13:17.422,3,-0.05,0.01,1.26,-79.2476,21.3588,-108.856,175,75
2026-05-09 16:13:17.427,5,-2.0,0.29,2.0,-123.5678,93.62100000000001,-245.91080000000002,175,75
2026-05-09 16:13:17.438,4,-0.8,-0.76,2.91,-18.2648,-27.8538,63.869400000000006,175,75
2026-05-09 16:13:17.438,1,-0.87,-0.51,0.1,91.5236,104.3086,-32.629,175,75
2026-05-09 16:13:17.438,3,-0.01,0.11,1.07,-114.05760000000001,16.9688,-116.966,175,75
2026-05-09 16:13:17.438,2,-0.2,-0.55,1.69,22.2416,102.9426,17.3046,175,75
2026-05-09 16:13:17.438,5,-2.0,0.16,2.0,-127.0178,-21.989,-127.0608,175,75
2026-05-09 16:13:17.448,3,-0.0,0.08,0.97,-143.6976,12.828800000000001,-127.576,175,75
2026-05-09 16:13:17.448,5,-2.0,-0.07,2.0,-99.8778,-133.989,0.2792,175,75
2026-05-09 16:13:17.463,2,-0.17,-0.28,1.33,-14.588399999999998,67.5826,1.2746,175,75
2026-05-09 16:13:17.463,4,-0.58,-0.59,2.26,51.675200000000004,-131.3838,70.7594,175,75
2026-05-09 16:13:17.463,3,-0.03,0.05,0.95,-168.14759999999998,10.3888,-145.506,175,75
2026-05-09 16:13:17.463,5,-2.0,-0.27,2.0,-48.0178,-203.46900000000002,78.8292,175,75
2026-05-09 16:13:17.463,1,-0.63,-0.99,0.98,136.5236,139.73860000000002,-44.269,175,75
2026-05-09 16:13:17.473,2,-0.2,-0.26,1.14,-32.7584,59.772600000000004,-7.9354,175,75
2026-05-09 16:13:17.473,4,-0.55,-0.53,1.89,57.095200000000006,-127.3038,75.21940000000001,175,75
2026-05-09 16:13:17.473,5,-2.0,-0.21,2.0,-9.7178,-249.059,128.0892,175,75
2026-05-09 16:13:17.473,1,0.04,-0.89,1.27,144.21359999999999,127.23859999999999,-50.429,175,75
2026-05-09 16:13:17.486,5,-1.91,-0.2,1.73,-3.5078,-249.059,151.3592,175,75
2026-05-09 16:13:17.487,1,0.2,-0.54,1.62,145.7336,148.8886,-48.479,175,75
2026-05-09 16:13:17.487,5,-1.42,-0.24,1.34,-8.0078,-249.059,128.1592,175,75
2026-05-09 16:13:17.499,2,-0.47,-0.23,0.96,-57.9484,82.0326,-23.4854,175,75
2026-05-09 16:13:17.499,4,-0.49,0.1,1.3,55.205200000000005,0.19620000000000104,60.9494,175,75
2026-05-09 16:13:17.499,2,-0.48,-0.15,0.98,-64.8384,109.5926,-29.0954,175,75
2026-05-09 16:13:17.499,5,-0.84,-0.34,0.91,-15.0478,-249.059,100.1192,175,75
2026-05-09 16:13:17.499,1,-0.1,-0.24,2.77,93.0536,249.36860000000001,-10.619,175,75
2026-05-09 16:13:17.510,3,0.38,0.1,0.93,-235.33759999999998,-16.0812,-167.156,175,75
2026-05-09 16:13:17.510,4,-0.33,0.61,1.18,57.465199999999996,69.34620000000001,69.35940000000001,175,75
2026-05-09 16:13:17.510,5,-0.45,-0.11,0.62,-13.9178,-249.059,97.5692,175,75
2026-05-09 16:13:17.510,3,0.38,0.06,0.86,-243.9376,-10.5312,-163.246,175,75
2026-05-09 16:13:17.521,2,-0.45,-0.04,1.03,-68.0684,121.48259999999999,-30.3154,175,75
2026-05-09 16:13:17.521,4,-0.31,0.98,1.18,58.2552,130.43619999999999,74.1794,175,75
2026-05-09 16:13:17.521,2,-0.4,0.08,1.11,-65.3184,117.64260000000002,-28.5454,175,75
2026-05-09 16:13:17.534,4,-0.31,1.16,1.29,60.0852,193.0062,79.7894,175,75
2026-05-09 16:13:17.534,5,0.67,-0.77,-0.31,63.3422,-249.059,169.1392,175,75
2026-05-09 16:13:17.534,3,0.44,-0.13,0.74,-257.1676,6.9688,-149.89600000000002,175,75
2026-05-09 16:13:17.534,2,-0.29,0.21,1.19,-51.5384,91.11260000000001,-26.9654,175,75
2026-05-09 16:13:17.534,1,-0.75,0.26,-0.81,-289.1464,149.48860000000002,104.51100000000001,175,75
2026-05-09 16:13:17.548,4,-0.27,1.17,1.48,63.565200000000004,238.61620000000002,86.7994,175,75
2026-05-09 16:13:17.548,2,-0.32,0.3,1.19,-29.778399999999998,48.9226,-22.6954,175,75
2026-05-09 16:13:17.548,1,-1.22,-0.69,-1.59,-425.6664,209.2486,168.77100000000002,175,75
2026-05-09 16:13:17.548,4,-0.19,1.12,1.63,65.8852,248.30620000000002,90.02940000000001,175,75
2026-05-09 16:13:17.548,5,2.0,0.01,-2.0,108.9522,-107.429,84.9892,175,75
2026-05-09 16:13:17.554,2,-0.33,0.36,1.11,-3.798399999999999,-0.0373999999999981,-18.665399999999998,175,75
2026-05-09 16:13:17.554,1,-0.64,-1.6,-0.96,-438.8364,309.1286,213.531,175,75
2026-05-09 16:13:17.567,5,1.24,-0.76,-2.0,142.21220000000002,124.811,-41.5608,175,75
2026-05-09 16:13:17.567,4,-0.11,1.06,1.82,63.565200000000004,222.5162,91.0094,175,75
2026-05-09 16:13:17.567,1,-0.39,-2.83,0.42,-428.8364,313.6986,210.421,175,75
2026-05-09 16:13:17.567,3,0.8,-0.04,0.75,-243.6376,-1.2612,-139.836,175,75
2026-05-09 16:13:17.567,5,-0.91,-0.82,-1.22,168.7322,53.581,-35.5608,175,75
2026-05-09 16:13:17.577,4,-0.07,1.05,1.92,54.4752,179.34619999999998,86.49940000000001,175,75
2026-05-09 16:13:17.577,1,1.06,-2.57,1.07,-497.0064,101.1986,155.971,175,75
2026-05-09 16:13:17.589,3,-2.56,1.74,1.7,-178.9976,213.9888,-58.736000000000004,175,75
2026-05-09 16:13:17.589,5,-1.31,-0.26,-0.36,216.46220000000002,-188.18900000000002,-2.1708,175,75
2026-05-09 16:13:17.600,4,0.02,1.1,1.79,33.6252,73.36619999999999,69.1794,175,75
2026-05-09 16:13:17.600,3,-5.63,3.53,2.47,-99.9176,535.7488,117.234,175,75
2026-05-09 16:13:17.600,5,-1.39,0.03,-0.28,196.43220000000002,-249.059,-29.3908,175,75
2026-05-09 16:13:17.600,1,-0.12,-0.51,-0.49,-541.2764,190.1686,141.27100000000002,175,75
2026-05-09 16:13:17.617,5,-1.36,0.3,-0.34,146.34220000000002,-249.059,-81.9408,175,75
2026-05-09 16:13:17.617,1,0.22,-0.67,0.9,-466.88640000000004,189.0086,142.681,175,75
2026-05-09 16:13:17.617,2,-0.24,0.58,0.97,85.1016,-64.97739999999999,-3.9753999999999996,175,75
2026-05-09 16:13:17.617,4,-0.07,0.79,1.42,35.6952,32.0262,62.959399999999995,175,75
2026-05-09 16:13:17.617,5,-0.94,0.62,-0.65,69.8122,-249.059,-154.2408,175,75
2026-05-09 16:13:17.629,1,0.32,-0.66,1.87,-440.9164,139.9786,107.43100000000001,175,75
2026-05-09 16:13:17.629,2,-0.28,0.52,0.94,88.5216,-68.0274,-5.1954,175,75
2026-05-09 16:13:17.629,3,-4.86,2.87,4.76,112.7124,-26.7512,314.37399999999997,175,75
2026-05-09 16:13:17.629,4,-0.14,0.53,1.23,36.3652,50.016200000000005,60.3994,175,75
2026-05-09 16:13:17.629,5,0.96,0.5,-1.49,-42.4678,-249.059,-249.8108,175,75
2026-05-09 16:13:17.629,1,0.54,-0.34,2.23,-440.1764,69.7386,83.771,175,75
2026-05-09 16:13:17.642,2,-0.34,0.45,0.95,87.8516,-57.35739999999999,-7.2654,175,75
2026-05-09 16:13:17.642,4,-0.19,0.26,1.11,35.9452,86.65620000000001,61.6194,175,75
2026-05-09 16:13:17.642,5,0.44,0.35,-1.01,-122.0478,-145.96900000000002,-249.8108,175,75
2026-05-09 16:13:17.642,3,1.96,-1.68,3.24,257.7724,-247.2312,49.98400000000001,175,75
2026-05-09 16:13:17.642,1,0.49,0.07,2.29,-421.70640000000003,-26.601399999999998,67.311,175,75
2026-05-09 16:13:17.652,4,-0.24,0.01,1.03,39.3552,125.9862,63.1394,175,75
2026-05-09 16:13:17.652,2,-0.38,0.32,1.0,82.1816,-30.3474,-7.2654,175,75
2026-05-09 16:13:17.652,5,0.07,0.41,-0.41,-167.7378,-85.15899999999999,-249.8108,175,75
2026-05-09 16:13:17.652,3,1.28,-2.92,-0.73,-114.60759999999999,-806.8712,233.824,175,75
2026-05-09 16:13:17.652,1,0.44,0.39,1.95,-392.13640000000004,-78.8614,72.131,175,75
2026-05-09 16:13:17.666,5,0.36,0.52,-0.08,-188.19779999999997,-11.149000000000001,-249.8108,175,75
2026-05-09 16:13:17.666,4,-0.21,-0.33,1.0,49.7852,180.31619999999998,62.839400000000005,175,75
2026-05-09 16:13:17.666,2,-0.43,0.17,1.07,73.4016,-15.227399999999996,-5.6854,175,75
2026-05-09 16:13:17.666,3,-4.5,-0.2,-2.17,-244.42759999999998,279.52880000000005,375.404,175,75
2026-05-09 16:13:17.666,1,0.49,0.41,1.76,-361.70640000000003,-96.9114,81.15100000000001,175,75
2026-05-09 16:13:17.678,5,1.25,0.65,0.17,-211.9878,112.611,-249.8108,175,75
2026-05-09 16:13:17.678,4,-0.18,-0.62,1.04,59.7852,214.28619999999998,56.4294,175,75
2026-05-09 16:13:17.678,2,-0.45,0.07,1.12,66.9316,-11.257399999999997,-5.0154,175,75
2026-05-09 16:13:17.678,5,2.0,0.82,0.18,-232.21779999999998,251.21099999999998,-151.8108,175,75
2026-05-09 16:13:17.691,4,-0.29,-0.94,1.22,65.3352,228.8562,44.239399999999996,175,75
2026-05-09 16:13:17.691,1,0.41,0.36,1.41,-288.5964,-113.0014,86.76100000000001,175,75
2026-05-09 16:13:17.691,3,0.24,-1.51,0.6,398.99240000000003,22.2788,-182.886,175,75
2026-05-09 16:13:17.702,1,0.29,0.35,1.31,-244.4464,-90.57140000000001,79.26100000000001,175,75
2026-05-09 16:13:17.708,1,0.24,0.31,1.34,-179.2664,-40.5014,57.311,175,75
2026-05-09 16:13:17.708,5,1.31,0.39,-0.19,-249.19779999999997,251.21099999999998,41.4092,175,75
2026-05-09 16:13:17.727,5,2.0,2.0,2.0,-249.19779999999997,251.21099999999998,250.45919999999998,175,75
2026-05-09 16:13:17.727,5,-0.16,0.6,2.0,-249.19779999999997,251.21099999999998,250.45919999999998,175,75
2026-05-09 16:13:17.739,3,-0.21,-0.09,2.1,75.0224,33.5588,12.974,175,75
2026-05-09 16:13:17.739,1,0.23,0.57,1.67,-78.7764,-12.091399999999998,14.751000000000001,175,75
2026-05-09 16:13:17.739,2,-0.36,-0.4,1.45,6.2616000000000005,22.3926,-8.7954,175,75
2026-05-09 16:13:17.739,4,-1.01,-0.85,1.81,-28.8748,-83.40379999999999,-91.0706,175,75
2026-05-09 16:13:17.739,5,-0.69,-0.87,2.0,-180.2378,187.861,250.45919999999998,175,75
2026-05-09 16:13:17.739,3,-0.32,0.47,1.94,64.35239999999999,-22.6012,45.65400000000001,175,75
2026-05-09 16:13:17.739,1,0.3,0.68,1.73,-26.3964,-9.3514,-6.408999999999999,175,75
2026-05-09 16:13:17.752,2,-0.46,-0.47,1.51,-3.7383999999999986,9.592600000000003,-10.375399999999999,175,75
2026-05-09 16:13:17.752,4,-1.1,-0.63,1.54,-54.9748,-79.9238,-72.83059999999999,175,75
2026-05-09 16:13:17.752,3,-0.71,0.42,1.77,55.6324,-40.4712,57.42400000000001,175,75
2026-05-09 16:13:17.752,5,-1.05,-1.21,2.0,-120.6378,251.21099999999998,250.45919999999998,175,75
2026-05-09 16:13:17.752,1,0.35,0.78,1.63,33.7236,-13.071399999999999,-27.629,175,75
2026-05-09 16:13:17.763,2,-0.47,-0.5,1.57,-13.0084,2.3926000000000016,-13.9154,175,75
2026-05-09 16:13:17.763,5,-2.0,-1.19,2.0,-86.8978,251.21099999999998,250.45919999999998,175,75
2026-05-09 16:13:17.763,4,-1.22,-0.58,1.44,-49.1148,-13.643799999999999,-46.7406,175,75
2026-05-09 16:13:17.763,3,-0.76,0.08,1.54,27.4024,-38.2112,18.214000000000002,175,75
2026-05-09 16:13:17.763,1,0.37,0.85,1.47,76.7136,-9.7114,-40.799,175,75
2026-05-09 16:13:17.774,2,-0.39,-0.48,1.61,-23.3084,-7.967399999999998,-15.985399999999998,175,75
2026-05-09 16:13:17.774,4,-1.2,-0.7,1.68,-27.224800000000002,35.9262,-27.8306,175,75
2026-05-09 16:13:17.774,3,-0.68,0.01,1.61,21.242399999999996,-20.0412,-5.075999999999997,175,75
2026-05-09 16:13:17.774,1,0.34,0.88,1.28,134.5136,-0.021399999999999864,-57.509,175,75
2026-05-09 16:13:17.788,5,-2.0,-1.91,1.59,-29.0978,220.951,-133.3108,175,75
2026-05-09 16:13:17.788,2,-0.36,-0.45,1.55,-27.5184,-21.507399999999997,-13.4854,175,75
2026-05-09 16:13:17.788,4,-1.17,-0.78,1.95,-17.9048,-8.0938,-29.2406,175,75
2026-05-09 16:13:17.799,2,-0.34,-0.44,1.45,-31.2984,-25.037399999999998,-12.3854,175,75
2026-05-09 16:13:17.799,1,0.22,0.72,1.13,226.8336,21.6286,-89.45899999999999,175,75
2026-05-09 16:13:17.817,5,-2.0,-1.49,1.89,203.6322,-78.809,-249.8108,175,75
2026-05-09 16:13:17.817,2,-0.28,-0.2,1.28,-32.9484,16.722600000000003,-10.4954,175,75
2026-05-09 16:13:17.817,1,0.14,0.64,1.15,269.0236,26.4486,-106.529,175,75
2026-05-09 16:13:17.817,5,-1.99,-0.58,2.0,251.0722,-179.559,-249.8108,175,75
2026-05-09 16:13:17.828,4,-1.31,-0.47,1.68,-10.944799999999999,-189.2538,-45.4606,175,75
2026-05-09 16:13:17.828,2,-0.28,-0.08,1.29,-26.788400000000003,45.872600000000006,-11.5954,175,75
2026-05-09 16:13:17.828,1,0.11,0.58,1.21,303.6036,24.7986,-117.869,175,75
2026-05-09 16:13:17.828,3,0.1,-0.84,1.02,-16.6776,-51.3812,-39.775999999999996,175,75
2026-05-09 16:13:17.828,4,-1.23,-0.38,1.4,-5.8248,-160.7738,-40.8806,175,75
2026-05-09 16:13:17.838,2,-0.29,-0.0,1.34,-24.4084,61.9726,-13.4254,175,75
2026-05-09 16:13:17.838,5,0.05,0.96,1.98,251.0722,-249.059,-249.8108,175,75
2026-05-09 16:13:17.838,3,0.29,-0.87,0.94,-16.3176,-36.4412,-35.686,175,75
2026-05-09 16:13:17.855,1,0.09,0.48,1.26,348.9036,-2.4613999999999994,-128.35899999999998,175,75
2026-05-09 16:13:17.855,4,-1.19,-0.2,1.24,3.385200000000001,-44.0138,-35.2106,175,75
2026-05-09 16:13:17.855,5,0.05,1.11,1.43,221.96220000000002,-249.059,-249.8108,175,75
2026-05-09 16:13:17.855,3,0.5,-0.85,0.92,-12.9576,-24.371199999999998,-30.505999999999997,175,75
2026-05-09 16:13:17.855,1,0.08,0.4,1.23,364.5136,-16.4214,-131.529,175,75
2026-05-09 16:13:17.865,4,-1.17,-0.08,1.39,2.3452,18.9762,-29.7206,175,75
2026-05-09 16:13:17.865,5,0.18,0.99,1.05,183.93220000000002,-249.059,-249.8108,175,75
2026-05-09 16:13:17.865,3,0.75,-0.84,0.93,-5.707599999999999,-33.391200000000005,-23.305999999999997,175,75
2026-05-09 16:13:17.865,2,-0.5,0.12,1.33,-35.318400000000004,36.5426,-20.2554,175,75
2026-05-09 16:13:17.865,1,0.07,0.27,1.18,379.1536,-34.901399999999995,-137.689,175,75
2026-05-09 16:13:17.871,5,0.35,0.8,0.83,151.74220000000003,-249.059,-249.8108,175,75
2026-05-09 16:13:17.871,2,-0.45,0.2,1.29,-37.818400000000004,20.7526,-18.4854,175,75
2026-05-09 16:13:17.887,5,0.59,0.66,0.59,128.7322,-249.059,-226.20080000000002,175,75
2026-05-09 16:13:17.887,4,-1.01,0.23,1.9,-6.1948,55.136199999999995,-25.6406,175,75
2026-05-09 16:13:17.899,1,0.04,-0.12,1.16,399.9436,-77.46140000000001,-156.22899999999998,175,75
2026-05-09 16:13:17.899,3,0.95,-0.52,0.47,1.3023999999999987,-104.92120000000001,11.564000000000004,175,75
2026-05-09 16:13:17.899,5,1.12,0.75,0.24,120.5622,-228.06900000000002,-57.3708,175,75
2026-05-09 16:13:17.911,1,-0.01,-0.24,1.15,407.2636,-108.5514,-164.519,175,75
2026-05-09 16:13:17.911,5,1.34,0.79,0.13,106.1022,-160.43900000000002,20.6192,175,75
2026-05-09 16:13:17.921,3,0.51,-0.24,-0.11,30.632399999999997,-92.78120000000001,25.284000000000002,175,75
2026-05-09 16:13:17.921,4,-0.93,0.7,2.3,-8.8748,-81.7538,-33.1406,175,75
2026-05-09 16:13:17.921,2,-0.41,0.32,0.82,-30.5084,-20.467399999999998,-11.6554,175,75
2026-05-09 16:13:17.921,5,1.38,0.76,-0.04,87.1722,-76.969,93.5992,175,75
2026-05-09 16:13:17.921,3,0.47,-0.08,-0.13,68.32239999999999,-45.9512,27.294,175,75
2026-05-09 16:13:17.932,1,-0.3,-0.6,1.09,411.1036,-157.70139999999998,-203.66899999999998,175,75
2026-05-09 16:13:17.947,2,-0.38,0.5,0.62,-29.468400000000003,-31.447399999999995,-11.1054,175,75
2026-05-09 16:13:17.947,1,0.13,-0.55,1.03,403.4736,-207.4014,-216.289,175,75
2026-05-09 16:13:17.947,4,-0.9,1.19,1.7,10.5152,-242.8538,-21.4906,175,75
2026-05-09 16:13:17.947,2,-0.4,0.65,0.62,-31.178400000000003,-27.057399999999994,-10.6854,175,75
2026-05-09 16:13:17.947,5,0.23,0.22,-0.03,61.602199999999996,88.48100000000001,162.70919999999998,175,75
2026-05-09 16:13:17.951,3,0.34,0.05,0.49,167.8324,107.02879999999999,50.224000000000004,175,75
2026-05-09 16:13:17.951,1,0.06,-0.54,0.85,390.9136,-249.7714,-210.559,175,75
2026-05-09 16:13:17.954,4,-0.89,1.13,1.46,20.4552,-229.4938,-12.8906,175,75
2026-05-09 16:13:17.961,5,0.05,0.21,0.02,56.4422,112.771,153.6392,175,75
2026-05-09 16:13:17.961,1,-0.25,-0.7,0.47,373.7836,-271.2414,-217.19899999999998,175,75
2026-05-09 16:13:17.976,5,-0.07,0.16,-0.0,52.352199999999996,125.20100000000001,140.6992,175,75
2026-05-09 16:13:17.976,4,-0.85,1.07,1.26,26.7352,-187.12380000000002,-5.8206,175,75
2026-05-09 16:13:17.976,3,0.09,-0.04,1.14,224.9624,175.62879999999998,81.56400000000001,175,75
2026-05-09 16:13:17.976,2,-0.15,1.22,0.85,-37.638400000000004,-9.9174,-0.8054000000000001,175,75
2026-05-09 16:13:17.989,4,-0.82,1.13,1.2,29.4152,-134.6238,3.4494,175,75
2026-05-09 16:13:17.989,1,-0.03,-1.34,-0.0,350.79359999999997,-135.9914,-229.879,175,75
2026-05-09 16:13:17.989,5,-0.27,0.14,-0.23,40.9722,94.961,115.8892,175,75
2026-05-09 16:13:18.002,1,-0.17,-1.24,0.62,321.4636,-127.58140000000002,-217.629,175,75
2026-05-09 16:13:18.002,5,-0.18,-0.02,-0.19,48.3822,57.061,115.7092,175,75
2026-05-09 16:13:18.017,5,0.04,-0.03,-0.64,53.0322,15.600999999999999,135.4192,175,75
2026-05-09 16:13:18.017,2,0.03,1.05,1.42,-41.4784,-93.1474,-23.915399999999998,175,75
2026-05-09 16:13:18.017,4,-0.72,1.03,1.48,53.2552,-49.7438,44.4794,175,75
2026-05-09 16:13:18.017,1,-4.61,0.15,-0.33,146.1036,-675.3814,-155.97899999999998,175,75
2026-05-09 16:13:18.017,3,0.56,0.17,1.55,164.66240000000002,-31.4412,114.06400000000001,175,75
2026-05-09 16:13:18.017,5,0.28,-0.17,-0.8,60.5722,-18.309,168.5792,175,75
2026-05-09 16:13:18.028,2,-0.25,0.66,1.32,-35.568400000000004,-130.7174,-29.4054,175,75
2026-05-09 16:13:18.028,4,-0.63,0.79,1.52,50.1452,-61.1438,51.4294,175,75
2026-05-09 16:13:18.028,1,-3.88,1.48,-3.44,96.95360000000001,-320.8714,100.911,175,75
2026-05-09 16:13:18.028,5,0.51,-0.38,-0.91,71.3622,-39.049,215.51919999999998,175,75
2026-05-09 16:13:18.028,2,-0.47,0.49,1.26,-20.0184,-126.6874,-35.7454,175,75
2026-05-09 16:13:18.041,4,-0.6,0.61,1.49,48.4452,-62.7938,56.2494,175,75
2026-05-09 16:13:18.041,3,0.13,0.28,1.07,137.04240000000001,-48.1512,126.264,175,75
2026-05-09 16:13:18.041,1,-3.53,0.57,-5.91,-50.6064,-555.3814,141.761,175,75
2026-05-09 16:13:18.041,5,0.64,-0.46,-0.91,80.2922,-44.339,250.45919999999998,175,75
2026-05-09 16:13:18.041,2,-0.57,0.33,1.28,-2.5183999999999997,-93.0874,-40.8054,175,75
2026-05-09 16:13:18.041,4,-0.59,0.43,1.45,51.3052,-59.1338,63.0794,175,75
2026-05-09 16:13:18.053,3,-0.01,0.18,0.95,121.4324,-26.3212,133.76399999999998,175,75
2026-05-09 16:13:18.053,5,0.67,-0.51,-0.74,88.4122,-32.439,250.45919999999998,175,75
2026-05-09 16:13:18.053,4,-0.56,0.15,1.37,55.9452,-52.8538,65.21940000000001,175,75
2026-05-09 16:13:18.064,2,-0.53,-0.14,1.46,17.361600000000003,-2.1773999999999987,-40.7454,175,75
2026-05-09 16:13:18.064,5,0.47,-0.45,-0.37,90.1222,-4.529,250.45919999999998,175,75
2026-05-09 16:13:18.064,1,1.47,-1.21,-1.14,-152.2564,868.2786,149.991,175,75
2026-05-09 16:13:18.064,3,-0.08,-0.02,0.7,93.2524,-40.9512,95.894,175,75
2026-05-09 16:13:18.064,2,-0.58,-0.43,1.49,21.8116,40.9926,-35.1954,175,75
2026-05-09 16:13:18.077,5,0.19,-0.32,0.12,86.8322,41.381,250.45919999999998,175,75
2026-05-09 16:13:18.077,4,-0.55,-0.73,1.21,53.7452,-16.2038,61.6794,175,75
2026-05-09 16:13:18.077,3,-0.09,0.16,0.5,46.6124,-12.5412,63.51400000000001,175,75
2026-05-09 16:13:18.077,1,0.3,1.18,2.23,-48.836400000000005,466.6286,142.80100000000002,175,75
2026-05-09 16:13:18.077,5,0.11,-0.36,0.52,77.1322,118.851,250.45919999999998,175,75
2026-05-09 16:13:18.088,2,-0.62,-0.74,1.52,25.101599999999998,94.4726,-26.7154,175,75
2026-05-09 16:13:18.088,4,-0.6,-1.23,1.19,46.1852,26.9062,59.9694,175,75
2026-05-09 16:13:18.088,5,0.24,0.57,0.47,52.5522,243.611,197.6392,175,75
2026-05-09 16:13:18.098,2,-0.65,-0.86,1.59,23.151600000000002,131.9126,-18.665399999999998,175,75
2026-05-09 16:13:18.098,4,-0.63,-1.66,1.26,33.7452,71.96619999999999,62.2294,175,75
2026-05-09 16:13:18.098,5,0.15,0.36,0.93,2.8222,251.21099999999998,50.0892,175,75
2026-05-09 16:13:18.110,2,-0.61,-0.89,1.72,16.9916,163.8626,-11.2254,175,75
2026-05-09 16:13:18.110,4,-0.68,-1.93,1.39,20.2752,104.58619999999999,62.839400000000005,175,75
2026-05-09 16:13:18.110,5,0.14,0.5,1.22,-53.2678,251.21099999999998,-144.1508,175,75
2026-05-09 16:13:18.110,2,-0.55,-0.89,1.86,8.6416,168.1926,-7.445399999999999,175,75
2026-05-09 16:13:18.134,2,-0.61,-0.85,2.12,-9.468399999999999,122.58260000000001,-8.0554,175,75
2026-05-09 16:13:18.134,4,-0.63,-1.69,1.98,-33.3848,107.2062,22.409399999999998,175,75
2026-05-09 16:13:18.146,5,0.8,-0.07,2.0,-178.72779999999997,251.21099999999998,-249.8108,175,75
2026-05-09 16:13:18.146,1,-0.71,-0.33,-0.13,-5.3664000000000005,96.4486,20.121,175,75
2026-05-09 16:13:18.146,3,0.47,0.84,1.07,-235.5276,-92.11120000000001,-112.026,175,75
2026-05-09 16:13:18.146,4,-0.42,-1.48,2.08,-57.0448,86.53620000000001,28.1994,175,75
2026-05-09 16:13:18.157,5,-1.41,-0.54,2.0,-183.5878,251.21099999999998,-191.41080000000002,175,75
2026-05-09 16:13:18.157,1,-0.49,-0.82,0.71,14.4536,150.89860000000002,10.181000000000001,175,75
2026-05-09 16:13:18.157,2,-0.52,-0.84,2.1,-42.3384,53.982600000000005,-21.4754,175,75
2026-05-09 16:13:18.157,3,0.42,0.69,1.06,-281.4376,-164.9812,-146.726,175,75
2026-05-09 16:13:18.157,4,-0.44,-1.23,2.05,-72.4148,56.356199999999994,27.0394,175,75
2026-05-09 16:13:18.157,5,-2.0,-1.07,2.0,-81.73780000000001,251.21099999999998,-44.5508,175,75
2026-05-09 16:13:18.168,1,-0.44,-1.0,1.32,9.3336,106.62859999999999,-10.979,175,75
2026-05-09 16:13:18.168,3,0.48,0.61,0.78,-327.5376,-153.5812,-167.216,175,75
2026-05-09 16:13:18.168,2,-0.4,-0.57,1.84,-43.4284,46.0526,-26.5954,175,75
2026-05-09 16:13:18.168,4,-0.55,-1.03,2.02,-69.4848,47.8162,16.1894,175,75
2026-05-09 16:13:18.172,3,0.01,0.67,0.81,-343.75759999999997,-112.6012,-183.556,175,75
2026-05-09 16:13:18.172,2,-0.37,-0.36,1.62,-28.6184,71.1126,-25.6854,175,75
2026-05-09 16:13:18.186,5,-2.0,-0.43,2.0,35.3422,-18.439,76.4292,175,75
2026-05-09 16:13:18.186,4,-0.6,-0.79,2.03,-63.8748,55.986200000000004,7.229399999999999,175,75
2026-05-09 16:13:18.186,3,-2.26,1.13,1.24,-307.1076,94.71879999999999,-170.506,175,75
2026-05-09 16:13:18.186,1,0.0,-0.8,1.2,17.7436,95.40859999999999,-13.909,175,75
2026-05-09 16:13:18.186,2,-0.42,-0.23,1.61,-17.818399999999997,121.11260000000001,-22.8754,175,75
2026-05-09 16:13:18.198,5,-2.0,0.06,2.0,-13.8478,-249.059,59.4392,175,75
2026-05-09 16:13:18.198,4,-0.62,-0.58,2.09,-61.7448,60.986200000000004,3.4494,175,75
2026-05-09 16:13:18.198,3,-2.58,1.15,2.0,-261.8076,240.8088,-116.23599999999999,175,75
2026-05-09 16:13:18.198,1,0.16,-0.83,1.36,18.6036,126.56859999999999,-12.508999999999999,175,75
2026-05-09 16:13:18.198,5,-2.0,0.03,2.0,-63.5878,-249.059,86.0292,175,75
2026-05-09 16:13:18.208,3,-6.9,2.4,4.28,-110.76759999999999,495.0788,108.454,175,75
2026-05-09 16:13:18.208,4,-0.58,-0.38,2.15,-58.574799999999996,59.46619999999999,-0.09060000000000001,175,75
2026-05-09 16:13:18.208,5,-1.88,-0.43,1.51,-67.0778,-249.059,147.14919999999998,175,75
2026-05-09 16:13:18.224,1,0.26,-0.69,1.56,10.733600000000001,141.1386,-5.248999999999999,175,75
2026-05-09 16:13:18.224,4,-0.52,-0.14,2.22,-48.8748,48.736200000000004,-4.3006,175,75
2026-05-09 16:13:18.224,3,0.06,-3.37,8.21,376.24240000000003,354.16880000000003,145.474,175,75
2026-05-09 16:13:18.224,5,-0.58,-0.79,0.68,-45.6178,-249.059,202.2892,175,75
2026-05-09 16:13:18.224,1,0.43,-0.69,2.14,5.6136,167.8486,-0.008999999999999897,175,75
2026-05-09 16:13:18.237,2,-0.17,-0.03,2.13,-26.2384,21.6626,-34.7054,175,75
2026-05-09 16:13:18.238,3,-3.76,-0.79,7.34,205.1524,-130.0412,-299.656,175,75
2026-05-09 16:13:18.238,5,0.01,-0.62,0.15,-33.2378,-249.059,250.45919999999998,175,75
2026-05-09 16:13:18.238,1,0.42,-0.51,2.57,0.6135999999999999,144.9186,9.511000000000001,175,75
2026-05-09 16:13:18.238,4,-0.4,0.12,2.21,-19.3048,0.13619999999999877,-11.250599999999999,175,75
2026-05-09 16:13:18.238,3,4.89,2.29,5.17,-233.8176,-217.5412,-118.916,175,75
2026-05-09 16:13:18.245,1,0.41,-0.16,2.84,-23.1064,131.3886,9.631,175,75
2026-05-09 16:13:18.245,2,-0.27,0.07,1.61,-18.428399999999996,-115.5874,-29.3354,175,75
2026-05-09 16:13:18.245,3,0.17,2.6,2.68,-357.6576,-927.6012000000001,69.194,175,75
2026-05-09 16:13:18.259,5,1.56,-0.71,-0.56,-32.5678,-249.059,250.45919999999998,175,75
2026-05-09 16:13:18.259,4,-0.42,0.04,2.05,3.1952,-51.693799999999996,-25.1506,175,75
2026-05-09 16:13:18.259,1,0.43,0.38,2.3,-57.6764,47.058600000000006,8.771,175,75
2026-05-09 16:13:18.259,2,-0.35,0.14,1.26,-19.098399999999998,-144.00740000000002,-28.0554,175,75
2026-05-09 16:13:18.259,3,-1.72,1.97,-1.3,-429.2476,-390.65119999999996,-80.326,175,75
2026-05-09 16:13:18.266,5,2.0,-1.13,-1.85,-0.44779999999999986,-249.059,243.5692,175,75
2026-05-09 16:13:18.266,1,0.19,0.52,1.57,-87.73639999999999,-28.3714,20.660999999999998,175,75
2026-05-09 16:13:18.266,4,-0.5,0.09,1.91,8.8052,-71.8138,-30.4606,175,75
2026-05-09 16:13:18.266,2,-0.42,0.25,1.05,-16.0584,-127.47740000000002,-25.4354,175,75
2026-05-09 16:13:18.266,5,2.0,-0.37,-2.0,-12.2078,-249.059,118.2492,175,75
2026-05-09 16:13:18.278,3,0.74,1.39,-2.63,-116.98759999999999,-111.69120000000001,-79.40599999999999,175,75
2026-05-09 16:13:18.278,4,-0.54,0.21,1.83,10.6952,-69.9238,-32.1606,175,75
2026-05-09 16:13:18.278,5,0.15,-0.31,-0.74,13.2722,-175.96900000000002,46.7892,175,75
2026-05-09 16:13:18.285,3,-0.42,0.02,-1.17,43.8624,140.0788,-29.165999999999997,175,75
2026-05-09 16:13:18.285,1,-0.39,0.61,0.8,-67.43639999999999,-39.041399999999996,35.661,175,75
2026-05-09 16:13:18.296,5,-0.44,-0.54,-0.21,44.852199999999996,-169.15900000000002,12.1992,175,75
2026-05-09 16:13:18.296,3,-0.09,-0.95,0.18,53.682399999999994,294.46880000000004,-37.946,175,75
2026-05-09 16:13:18.296,4,-0.45,0.58,1.68,15.145199999999999,-24.683799999999998,-22.0406,175,75
2026-05-09 16:13:18.306,5,-0.46,-0.44,0.08,63.3922,-159.31900000000002,-18.5508,175,75
2026-05-09 16:13:18.306,1,-0.3,0.89,1.05,-22.2564,56.9286,40.181,175,75
2026-05-09 16:13:18.306,3,-0.22,-1.18,1.39,95.57239999999999,261.60880000000003,-22.455999999999996,175,75
2026-05-09 16:13:18.311,1,0.62,0.79,1.51,48.5436,79.9786,16.271,175,75
2026-05-09 16:13:18.322,3,-0.09,-1.08,2.07,65.51240000000001,168.12879999999998,-57.025999999999996,175,75
2026-05-09 16:13:18.322,5,-0.54,0.03,0.28,49.7322,-116.04899999999999,-119.2508,175,75
2026-05-09 16:13:18.322,2,-0.48,0.48,0.88,32.7916,-47.477399999999996,-12.2654,175,75
2026-05-09 16:13:18.322,1,0.67,0.75,1.65,99.8236,74.4986,-14.699,175,75
2026-05-09 16:13:18.334,5,-0.69,0.27,0.34,17.0422,-94.209,-193.69080000000002,175,75
2026-05-09 16:13:18.334,3,0.93,-0.15,2.17,-42.227599999999995,-15.2812,-79.106,175,75
2026-05-09 16:13:18.338,4,-0.42,0.77,1.65,38.1952,3.546199999999999,-20.4606,175,75
2026-05-09 16:13:18.344,4,-0.47,0.73,1.61,38.5052,-7.543799999999999,-23.6306,175,75
2026-05-09 16:13:18.359,3,0.27,0.11,0.19,-17.1676,-152.6612,38.644000000000005,175,75
2026-05-09 16:13:18.359,4,-0.5,0.69,1.51,35.2752,-24.9838,-28.320600000000002,175,75
2026-05-09 16:13:18.359,1,0.42,0.41,1.85,141.34359999999998,6.6886,-47.259,175,75
2026-05-09 16:13:18.359,2,-0.49,0.42,0.62,38.2716,-75.16739999999999,-15.685400000000001,175,75
2026-05-09 16:13:18.359,5,-0.53,0.71,0.16,-110.4478,-78.389,-249.8108,175,75
2026-05-09 16:13:18.359,3,0.44,-0.05,-0.08,25.572400000000002,-85.3412,27.294,175,75
2026-05-09 16:13:18.371,1,0.49,0.19,1.91,142.1336,-23.611399999999996,-53.119,175,75
2026-05-09 16:13:18.371,4,-0.55,0.67,1.41,30.5152,-36.3838,-30.2706,175,75
2026-05-09 16:13:18.371,2,-0.55,0.42,0.54,40.1616,-71.9974,-16.0454,175,75
2026-05-09 16:13:18.371,5,-0.14,0.59,-0.19,-140.68779999999998,-84.819,-249.8108,175,75
2026-05-09 16:13:18.371,3,0.72,-0.01,0.03,75.63239999999999,-26.2012,44.98400000000001,175,75
2026-05-09 16:13:18.372,1,0.58,0.13,1.98,137.8636,-74.1014,-48.669000000000004,175,75
2026-05-09 16:13:18.383,4,-0.65,0.7,1.32,27.705199999999998,-30.1738,-27.1006,175,75
2026-05-09 16:13:18.383,5,1.82,0.16,-0.91,-126.3378,-28.459,-249.8108,175,75
2026-05-09 16:13:18.383,3,0.57,-0.01,0.16,103.8024,-1.8712,57.42400000000001,175,75
2026-05-09 16:13:18.383,1,0.5,0.18,1.81,123.6636,-137.76139999999998,-47.379,175,75
2026-05-09 16:13:18.383,2,-0.63,0.48,0.48,39.0116,-35.837399999999995,-15.1954,175,75
2026-05-09 16:13:18.394,4,-0.71,0.75,1.27,35.1452,3.066200000000002,-14.540600000000001,175,75
2026-05-09 16:13:18.394,5,2.0,0.25,-1.44,-81.8378,144.25099999999998,-141.9208,175,75
2026-05-09 16:13:18.394,3,0.45,0.06,0.26,136.2424,36.0588,63.09400000000001,175,75
2026-05-09 16:13:18.394,1,0.37,0.27,1.54,106.5836,-175.57139999999998,-49.759,175,75
2026-05-09 16:13:18.395,4,-0.66,0.75,1.28,42.9552,28.916200000000003,-3.8106,175,75
2026-05-09 16:13:18.407,5,0.51,0.51,-0.56,-73.0078,215.601,-46.6608,175,75
2026-05-09 16:13:18.407,2,-0.64,0.51,0.47,35.9616,2.032600000000002,-8.7254,175,75
2026-05-09 16:13:18.407,3,0.5,0.08,0.5,171.4924,77.82879999999999,77.23400000000001,175,75
2026-05-09 16:13:18.407,1,-1.08,0.63,0.71,64.0836,-325.57140000000004,-43.419000000000004,175,75
2026-05-09 16:13:18.407,5,-0.12,0.35,-0.24,-80.0478,224.611,-30.9708,175,75
2026-05-09 16:13:18.421,3,0.55,-0.05,0.78,195.69240000000002,111.05879999999999,88.334,175,75
2026-05-09 16:13:18.421,5,-0.15,0.14,-0.16,-75.2978,219.391,-26.1908,175,75
2026-05-09 16:13:18.421,1,-2.2,1.17,-0.75,15.973600000000001,-483.4314,0.661,175,75
2026-05-09 16:13:18.425,4,-0.62,0.58,1.53,33.3152,27.7562,-0.6406,175,75
2026-05-09 16:13:18.425,1,-2.77,1.12,-2.39,-38.3464,-491.7914,47.981,175,75
2026-05-09 16:13:18.436,5,0.1,-0.08,-0.13,-55.2278,220.72099999999998,4.2292,175,75
2026-05-09 16:13:18.436,2,-0.5,0.71,0.76,24.3116,80.2026,0.9645999999999999,175,75
2026-05-09 16:13:18.436,3,0.42,-0.48,1.17,221.91240000000002,136.2388,108.884,175,75
2026-05-09 16:13:18.436,5,0.25,-0.07,-0.06,-33.8178,232.78099999999998,40.9892,175,75
2026-05-09 16:13:18.443,4,-0.66,0.62,1.58,26.495199999999997,8.3062,-1.3106,175,75
2026-05-09 16:13:18.443,2,-0.43,0.78,0.91,19.921599999999998,79.5326,1.8845999999999998,175,75
2026-05-09 16:13:18.447,5,0.28,0.01,0.09,-14.8778,251.21099999999998,79.7292,175,75
2026-05-09 16:13:18.451,4,-0.75,0.62,1.53,18.3852,-17.8538,4.2394,175,75
2026-05-09 16:13:18.462,2,-0.38,0.76,1.09,14.861600000000001,67.6426,0.05459999999999976,175,75
2026-05-09 16:13:18.462,1,0.51,0.29,1.1,-154.6964,521.8086000000001,106.09100000000001,175,75
2026-05-09 16:13:18.462,2,-0.4,0.57,1.36,5.9016,30.692600000000002,-0.01540000000000008,175,75
2026-05-09 16:13:18.464,4,-0.79,0.49,1.43,13.9252,-11.5738,16.6194,175,75
2026-05-09 16:13:18.477,5,0.44,0.25,0.04,-14.5878,251.21099999999998,134.99919999999997,175,75
2026-05-09 16:13:18.477,3,0.01,-0.23,1.58,192.4624,126.6688,98.584,175,75
2026-05-09 16:13:18.477,1,-1.55,-0.5,3.66,-193.71640000000002,375.5286,72.01100000000001,175,75
2026-05-09 16:13:18.477,4,-0.8,0.28,1.4,11.4252,28.2462,30.2794,175,75
2026-05-09 16:13:18.477,5,0.52,0.16,0.24,-14.2378,251.21099999999998,169.3492,175,75
2026-05-09 16:13:18.489,3,-0.08,-0.13,1.66,178.6824,110.0188,106.08400000000002,175,75
2026-05-09 16:13:18.489,1,-0.23,0.24,2.76,-85.4264,61.6286,133.961,175,75
2026-05-09 16:13:18.489,2,-0.49,-0.02,1.67,-6.538399999999999,-46.13739999999999,-3.1853999999999996,175,75
2026-05-09 16:13:18.525,5,0.64,0.23,0.39,-20.3578,251.21099999999998,216.21919999999997,175,75
2026-05-09 16:13:18.525,5,1.01,0.48,0.8,-41.1078,251.21099999999998,250.45919999999998,175,75
2026-05-09 16:13:18.525,5,0.89,0.85,2.0,-75.6278,251.21099999999998,250.45919999999998,175,75
2026-05-09 16:13:18.525,3,-0.28,-0.17,1.63,155.1524,76.41879999999999,122.36400000000002,175,75
2026-05-09 16:13:18.526,4,-0.77,-0.19,1.53,17.9552,81.84620000000001,37.9594,175,75
2026-05-09 16:13:18.537,3,-0.55,-0.35,1.51,138.8024,61.2388,125.954,175,75
2026-05-09 16:13:18.537,5,-1.12,-1.26,2.0,-1.6978,-142.62900000000002,250.45919999999998,175,75
2026-05-09 16:13:18.537,1,0.21,-0.23,0.76,-107.2564,-231.0514,-0.48899999999999944,175,75
2026-05-09 16:13:18.537,3,-0.67,-0.5,1.43,131.3024,54.3488,112.90400000000001,175,75
2026-05-09 16:13:18.537,2,-0.57,-0.23,1.67,-5.7484,-52.477399999999996,-6.0454,175,75
2026-05-09 16:13:18.537,4,-0.86,-0.63,1.64,20.815199999999997,80.1962,31.9794,175,75
2026-05-09 16:13:18.549,4,-1.13,-1.04,1.76,19.2952,70.68620000000001,28.319399999999998,175,75
2026-05-09 16:13:18.549,5,0.57,-0.41,1.82,-37.1178,-177.34900000000002,131.0392,175,75
2026-05-09 16:13:18.549,2,-0.64,-0.45,1.68,-1.0583999999999998,10.692600000000002,-5.0154,175,75
2026-05-09 16:13:18.549,1,-0.04,0.27,-0.65,-77.9264,-171.0514,22.491,175,75
2026-05-09 16:13:18.549,1,-0.08,-0.59,-0.97,-83.1064,-47.761399999999995,55.971,175,75
2026-05-09 16:13:18.561,1,-0.49,-0.52,-0.17,-56.5264,59.2486,25.541,175,75
2026-05-09 16:13:18.561,2,-0.48,-0.35,2.01,8.701600000000001,101.6026,11.0246,175,75
2026-05-09 16:13:18.561,4,-1.7,-1.4,2.0,12.225200000000001,62.516200000000005,35.9494,175,75
2026-05-09 16:13:18.561,2,-0.44,-0.34,2.21,13.5816,112.1526,13.7046,175,75
2026-05-09 16:13:18.561,4,-1.72,-1.34,2.01,4.7852,43.246199999999995,26.429399999999998,175,75
2026-05-09 16:13:18.561,5,-0.18,-0.91,1.97,-45.0078,251.21099999999998,-70.9508,175,75
2026-05-09 16:13:18.571,1,-0.31,-0.5,0.15,-7.7364,51.3186,30.730999999999998,175,75
2026-05-09 16:13:18.571,4,-1.44,-1.28,1.98,-3.1448,33.6762,14.8494,175,75
2026-05-09 16:13:18.571,5,-0.66,-1.21,2.0,-37.0778,251.21099999999998,-177.23080000000002,175,75
2026-05-09 16:13:18.571,2,-0.42,-0.32,2.41,10.101600000000001,95.02260000000001,13.5846,175,75
2026-05-09 16:13:18.571,1,-0.44,-0.41,-0.21,2.2636000000000003,59.918600000000005,6.521000000000001,175,75
2026-05-09 16:13:18.571,4,-1.12,-1.22,1.95,-10.5848,48.126200000000004,29.1194,175,75
2026-05-09 16:13:18.582,5,-1.06,-1.72,2.0,-12.4978,251.21099999999998,-249.8108,175,75
2026-05-09 16:13:18.582,3,-0.26,0.19,1.16,-25.0976,39.7788,-22.455999999999996,175,75
2026-05-09 16:13:18.582,4,-1.01,-1.23,1.9,-13.8748,76.7262,51.7994,175,75
2026-05-09 16:13:18.597,5,-2.0,-1.5,2.0,8.6722,251.21099999999998,-249.8108,175,75
2026-05-09 16:13:18.597,3,-0.13,0.06,1.28,-63.3876,11.9688,-43.676,175,75
2026-05-09 16:13:18.597,2,-0.36,-0.38,2.12,-2.3983999999999996,35.9926,11.8146,175,75
2026-05-09 16:13:18.597,1,-0.68,-0.48,0.07,37.3236,75.95859999999999,-18.419,175,75
2026-05-09 16:13:18.608,5,-1.97,-0.99,2.0,34.8322,211.90099999999998,-249.8108,175,75
2026-05-09 16:13:18.608,3,-0.06,0.02,1.24,-106.98759999999999,-32.3012,-73.43599999999999,175,75
2026-05-09 16:13:18.608,1,-0.78,-0.61,0.37,53.1736,73.0886,-30.859,175,75
2026-05-09 16:13:18.608,5,-2.0,-0.47,2.0,77.7222,77.09100000000001,-249.8108,175,75
2026-05-09 16:13:18.614,3,-0.02,0.1,1.07,-137.8976,-33.1512,-85.386,175,75
2026-05-09 16:13:18.614,2,-0.42,-0.35,1.5,-12.3984,68.55260000000001,-0.01540000000000008,175,75
2026-05-09 16:13:18.614,1,-0.94,-0.77,0.55,70.12360000000001,62.9686,-40.009,175,75
2026-05-09 16:13:18.628,4,-1.01,-0.96,2.23,-6.134799999999999,115.31619999999998,27.589399999999998,175,75
2026-05-09 16:13:18.628,5,-2.0,-0.0,2.0,116.6622,-52.759,-179.63080000000002,175,75
2026-05-09 16:13:18.628,4,-0.9,-0.65,2.37,-10.704799999999999,89.9562,35.0294,175,75
2026-05-09 16:13:18.628,1,-0.94,-1.01,0.72,81.8336,67.8486,-43.299,175,75
2026-05-09 16:13:18.628,2,-0.44,-0.22,1.32,-13.678399999999998,121.17259999999999,-2.5054,175,75
2026-05-09 16:13:18.639,5,-2.0,0.48,2.0,121.01219999999999,-217.27900000000002,-117.4808,175,75
2026-05-09 16:13:18.639,1,-0.52,-1.03,1.01,86.8936,88.45859999999999,-46.169000000000004,175,75
2026-05-09 16:13:18.639,5,-2.0,0.62,1.98,89.2022,-249.059,-67.7208,175,75
2026-05-09 16:13:18.649,2,-0.46,-0.12,1.29,-18.9184,164.7126,-5.8654,175,75
2026-05-09 16:13:18.649,3,0.19,0.03,0.9,-208.5676,-36.5612,-127.09599999999999,175,75
2026-05-09 16:13:18.649,4,-0.67,-0.13,2.33,-13.024799999999999,-14.9238,7.1694,175,75
2026-05-09 16:13:18.649,5,-1.63,0.6,1.62,55.3622,-249.059,-27.5808,175,75
2026-05-09 16:13:18.649,2,-0.45,-0.11,1.33,-25.5084,179.4726,-10.5554,175,75
2026-05-09 16:13:18.662,1,-0.02,-0.56,2.04,101.95360000000001,146.1386,-36.529,175,75
2026-05-09 16:13:18.662,4,-0.52,0.1,2.16,-20.2148,-43.5838,-0.39060000000000006,175,75
2026-05-09 16:13:18.662,3,0.34,0.01,0.9,-233.0276,-39.3112,-140.266,175,75
2026-05-09 16:13:18.662,2,-0.42,-0.12,1.36,-30.928400000000003,169.9626,-15.865400000000001,175,75
2026-05-09 16:13:18.662,5,-0.7,0.46,1.27,30.8322,-249.059,21.1892,175,75
2026-05-09 16:13:18.672,4,-0.46,0.36,1.93,-20.4048,-46.6338,-5.0306,175,75
2026-05-09 16:13:18.672,3,0.45,-0.03,0.9,-249.9176,-41.2012,-143.856,175,75
2026-05-09 16:13:18.672,5,-0.06,0.28,0.87,25.8322,-249.059,79.6192,175,75
2026-05-09 16:13:18.672,4,-0.41,0.61,1.8,-13.5048,-40.293800000000005,-6.4306,175,75
2026-05-09 16:13:18.683,2,-0.45,-0.06,1.26,-33.7384,100.20259999999999,-26.8354,175,75
2026-05-09 16:13:18.683,1,0.08,-0.03,2.54,-12.7364,182.23860000000002,24.201,175,75
2026-05-09 16:13:18.683,5,0.67,0.08,0.41,39.5322,-249.059,129.7592,175,75
2026-05-09 16:13:18.683,3,0.5,-0.07,0.93,-262.2876,-39.3112,-147.516,175,75
2026-05-09 16:13:18.683,4,-0.32,0.87,1.74,-0.944799999999999,-25.6538,-1.6106,175,75
2026-05-09 16:13:18.683,2,-0.45,0.07,1.15,-31.7284,71.4826,-28.4854,175,75
2026-05-09 16:13:18.693,1,-0.3,0.37,1.67,-78.8364,146.6286,43.101,175,75
2026-05-09 16:13:18.693,5,1.35,0.08,0.06,70.6922,-249.059,232.2892,175,75
2026-05-09 16:13:18.693,3,0.56,-0.05,0.95,-270.3376,-40.041199999999996,-153.556,175,75
2026-05-09 16:13:18.712,3,0.69,-0.0,0.94,-276.25759999999997,-36.2612,-152.216,175,75
2026-05-09 16:13:18.712,1,-0.73,0.23,-0.15,-204.3864,82.0586,84.811,175,75
2026-05-09 16:13:18.712,4,-0.18,1.16,1.67,17.5252,13.0062,7.899400000000001,175,75
2026-05-09 16:13:18.712,5,2.0,0.42,-1.32,107.26219999999999,-249.059,250.45919999999998,175,75
2026-05-09 16:13:18.712,3,0.77,0.04,0.96,-281.9876,-30.6512,-148.006,175,75
2026-05-09 16:13:18.723,2,-0.38,0.53,0.85,-20.8684,-6.507399999999997,-21.1054,175,75
2026-05-09 16:13:18.723,4,-0.1,1.18,1.66,22.465200000000003,32.4562,13.319400000000002,175,75
2026-05-09 16:13:18.723,5,1.73,0.42,-1.82,111.6122,-70.779,250.45919999999998,175,75
2026-05-09 16:13:18.723,2,-0.4,0.68,0.82,-13.3084,-12.537399999999998,-13.0554,175,75
2026-05-09 16:13:18.723,1,-0.99,-1.36,-1.7,-400.0564,189.3086,197.311,175,75
2026-05-09 16:13:18.736,5,0.1,-0.18,-1.22,92.9422,-11.839,238.98919999999998,175,75
2026-05-09 16:13:18.736,4,0.03,1.14,1.67,23.4452,36.4762,13.569400000000002,175,75
2026-05-09 16:13:18.736,1,-0.13,-2.43,0.07,-413.4164,316.86859999999996,212.131,175,75
2026-05-09 16:13:18.736,2,-0.45,0.71,0.84,-1.0583999999999998,-2.907399999999999,-1.1654000000000002,175,75
2026-05-09 16:13:18.747,5,-0.85,-0.59,-0.72,107.9322,-54.538999999999994,165.2292,175,75
2026-05-09 16:13:18.747,4,0.01,1.11,1.71,15.575199999999999,21.416200000000003,13.929400000000001,175,75
2026-05-09 16:13:18.747,3,1.22,0.2,1.26,-269.1776,-99.31120000000001,-154.776,175,75
2026-05-09 16:13:18.747,2,-0.39,0.68,0.9,12.241600000000002,1.362600000000004,8.464599999999999,175,75
2026-05-09 16:13:18.758,4,-0.08,1.1,1.82,10.755200000000002,12.3962,12.779399999999999,175,75
2026-05-09 16:13:18.758,3,0.43,0.5,1.44,-271.37760000000003,-54.5512,-159.226,175,75
2026-05-09 16:13:18.758,1,-0.92,-0.98,-0.32,-511.1564,114.3086,117.251,175,75
2026-05-09 16:13:18.758,5,-1.21,-0.47,-0.31,154.8822,-191.18900000000002,9.8192,175,75
2026-05-09 16:13:18.768,2,-0.22,0.63,1.03,31.3816,-37.8474,11.0846,175,75
2026-05-09 16:13:18.768,4,-0.08,1.06,1.9,8.8052,-5.293800000000001,11.979399999999998,175,75
2026-05-09 16:13:18.768,3,-3.36,2.04,1.79,-212.4776,208.3088,-59.226,175,75
2026-05-09 16:13:18.768,2,-0.27,0.61,1.08,46.2016,-93.82740000000001,13.4646,175,75
2026-05-09 16:13:18.768,5,-1.13,-0.39,-0.44,158.09220000000002,-249.059,-47.2208,175,75
2026-05-09 16:13:18.779,1,0.59,-0.5,0.38,-491.3964,148.8886,133.531,175,75
2026-05-09 16:13:18.779,4,-0.08,0.95,1.9,7.5852,-35.4738,7.2894,175,75
2026-05-09 16:13:18.779,2,-0.29,0.61,1.04,54.1916,-130.5874,18.2846,175,75
2026-05-09 16:13:18.779,5,-1.11,-0.11,-0.6,137.06220000000002,-249.059,-87.8108,175,75
2026-05-09 16:13:18.788,4,-0.12,0.78,1.79,7.225200000000001,-68.0338,0.6394000000000002,175,75
2026-05-09 16:13:18.788,1,0.34,-0.35,1.2,-441.0964,99.8586,125.301,175,75
2026-05-09 16:13:18.788,3,1.71,0.79,3.67,163.19240000000002,-10.5912,-157.336,175,75
2026-05-09 16:13:18.788,5,-0.76,0.12,-0.88,77.7122,-249.059,-139.29080000000002,175,75
2026-05-09 16:13:18.799,2,-0.31,0.6,0.93,60.2216,-149.4974,17.6746,175,75
2026-05-09 16:13:18.799,4,-0.21,0.54,1.55,10.025200000000002,-75.0438,-5.7006,175,75
2026-05-09 16:13:18.799,3,-2.99,1.85,3.79,84.29239999999999,103.7388,64.06400000000001,175,75
2026-05-09 16:13:18.799,5,-0.12,0.16,-1.19,0.2822,-249.059,-191.9208,175,75
2026-05-09 16:13:18.799,2,-0.32,0.55,0.86,62.4816,-147.2974,15.1146,175,75
2026-05-09 16:13:18.814,1,0.54,-0.01,1.8,-417.0664,20.2286,76.40100000000001,175,75
2026-05-09 16:13:18.814,5,0.31,0.17,-0.97,-65.6878,-249.059,-215.75080000000003,175,75
2026-05-09 16:13:18.814,3,-3.47,1.99,4.17,241.43240000000003,298.7988,285.654,175,75
2026-05-09 16:13:18.814,2,-0.35,0.39,0.86,60.5316,-106.44740000000002,11.7546,175,75
2026-05-09 16:13:18.814,4,-0.3,0.04,1.15,27.775199999999998,8.1862,-10.090599999999998,175,75
2026-05-09 16:13:18.825,1,0.48,0.33,1.88,-397.0064,-25.571399999999997,68.351,175,75
2026-05-09 16:13:18.825,5,0.31,0.28,-0.53,-112.3678,-154.859,-226.45080000000002,175,75
2026-05-09 16:13:18.825,3,1.79,-1.79,2.97,290.6924,-251.0112,42.974000000000004,175,75
2026-05-09 16:13:18.825,2,-0.44,0.18,0.92,58.2116,-48.4574,15.2946,175,75
2026-05-09 16:13:18.825,4,-0.31,-0.16,1.14,38.3152,58.546200000000006,-11.000599999999999,175,75
2026-05-09 16:13:18.825,1,0.42,0.53,1.97,-369.9964,-63.0014,70.48100000000001,175,75
2026-05-09 16:13:18.834,5,0.46,0.39,-0.25,-140.3678,-39.419,-238.20080000000002,175,75
2026-05-09 16:13:18.834,3,-1.08,-2.28,-0.62,-174.7276,-504.9212,177.844,175,75
2026-05-09 16:13:18.834,4,-0.29,-0.35,1.22,48.0152,94.28620000000001,-14.8506,175,75
2026-05-09 16:13:18.834,2,-0.39,-0.04,0.99,53.2116,-16.3874,15.9046,175,75
2026-05-09 16:13:18.846,5,0.73,0.43,0.05,-161.37779999999998,90.021,-249.8108,175,75
2026-05-09 16:13:18.846,4,-0.38,-0.56,1.4,52.8952,88.5462,-21.8006,175,75
2026-05-09 16:13:18.846,1,0.43,0.55,2.13,-322.0664,-93.5514,66.761,175,75
2026-05-09 16:13:18.846,3,-2.92,0.85,-0.65,-165.33759999999998,417.5188,239.67399999999998,175,75
2026-05-09 16:13:18.856,5,1.67,0.42,0.21,-172.28779999999998,251.21099999999998,-230.3308,175,75
2026-05-09 16:13:18.856,1,0.6,0.58,2.16,-283.4164,-116.8514,60.731,175,75
2026-05-09 16:13:18.856,2,-0.4,-0.39,1.22,31.8716,-12.117399999999996,15.4146,175,75
2026-05-09 16:13:18.856,4,-0.77,-0.86,1.67,50.7552,32.2662,-40.0906,175,75
2026-05-09 16:13:18.856,5,2.0,0.55,0.35,-180.3278,251.21099999999998,-112.5408,175,75
2026-05-09 16:13:18.870,1,0.71,0.63,1.81,-230.6664,-160.57139999999998,50.181,175,75
2026-05-09 16:13:18.870,5,2.0,1.03,-0.49,-235.7678,251.21099999999998,18.6692,175,75
2026-05-09 16:13:18.870,4,-1.24,-1.03,1.79,31.9152,-28.1538,-56.9206,175,75
2026-05-09 16:13:18.870,3,0.27,-1.33,1.95,172.2824,204.9588,52.604,175,75
2026-05-09 16:13:18.881,1,0.48,0.67,1.5,-188.34640000000002,-174.29139999999998,35.911,175,75
2026-05-09 16:13:18.881,2,-0.37,-0.35,1.34,9.4316,-12.967399999999998,6.6346,175,75
2026-05-09 16:13:18.881,5,1.48,0.54,-0.27,-249.19779999999997,251.21099999999998,39.8792,175,75
2026-05-09 16:13:18.881,4,-1.52,-1.08,1.71,0.02519999999999989,-61.4538,-76.19059999999999,175,75
2026-05-09 16:13:18.881,3,0.77,-0.14,2.26,59.90239999999999,104.6588,92.364,175,75
2026-05-09 16:13:18.895,1,0.31,0.67,1.22,-132.06640000000002,-121.2414,5.971,175,75
2026-05-09 16:13:18.895,5,1.23,0.35,-0.44,-249.19779999999997,251.21099999999998,77.1792,175,75
2026-05-09 16:13:18.895,4,-1.46,-0.96,1.61,-29.3648,-73.5238,-84.4806,175,75
2026-05-09 16:13:18.895,2,-0.31,-0.28,1.42,-3.558399999999999,3.002600000000001,-1.0454,175,75
2026-05-09 16:13:18.907,5,2.0,2.0,2.0,-249.19779999999997,251.21099999999998,250.45919999999998,175,75
2026-05-09 16:13:18.907,1,0.3,0.83,1.23,-68.2864,-63.49139999999999,-25.309,175,75
2026-05-09 16:13:18.907,4,-1.28,-0.74,1.49,-50.6448,-65.8438,-74.78059999999999,175,75
2026-05-09 16:13:18.907,2,-0.3,-0.38,1.53,-19.038400000000003,8.862600000000002,-8.3054,175,75
2026-05-09 16:13:18.912,5,-1.95,0.95,2.0,-189.3678,251.21099999999998,250.45919999999998,175,75
2026-05-09 16:13:18.912,3,-0.24,0.16,1.53,68.86240000000001,0.018799999999999928,35.653999999999996,175,75
2026-05-09 16:13:18.912,2,-0.38,-0.48,1.57,-30.8084,12.582600000000003,-14.1554,175,75
2026-05-09 16:13:18.912,1,0.39,0.94,1.4,-4.6364,-31.3014,-44.089,175,75
2026-05-09 16:13:18.918,4,-1.18,-0.62,1.41,-47.1048,-12.303799999999999,-47.830600000000004,175,75
2026-05-09 16:13:18.918,2,-0.44,-0.57,1.57,-39.5884,13.072600000000003,-19.2154,175,75
2026-05-09 16:13:18.930,1,0.43,1.01,1.48,58.3536,-14.221400000000001,-59.399,175,75
2026-05-09 16:13:18.930,5,-2.0,-0.77,1.92,-129.78779999999998,251.21099999999998,87.0892,175,75
2026-05-09 16:13:18.930,3,-0.69,-0.09,1.6,34.2324,-32.1712,22.904,175,75
2026-05-09 16:13:18.941,1,0.42,1.01,1.36,104.8236,-2.7013999999999996,-71.589,175,75
2026-05-09 16:13:18.941,2,-0.45,-0.6,1.58,-48.1884,16.4826,-26.9654,175,75
2026-05-09 16:13:18.941,5,-2.0,-1.61,2.0,-107.6478,251.21099999999998,-125.1408,175,75
2026-05-09 16:13:18.941,3,-0.57,-0.11,1.65,16.6124,-34.0012,-3.1859999999999964,175,75
2026-05-09 16:13:18.953,2,-0.42,-0.51,1.55,-51.8484,23.4326,-31.2954,175,75
2026-05-09 16:13:18.953,4,-1.13,-0.77,2.11,-32.4148,41.6562,-33.5006,175,75
2026-05-09 16:13:18.953,5,-2.0,-2.0,1.8,-47.8778,217.641,-249.8108,175,75
2026-05-09 16:13:18.953,1,0.36,0.94,1.19,154.6336,12.418600000000001,-86.529,175,75
2026-05-09 16:13:18.953,3,-0.32,-0.02,1.77,1.2424,-56.0812,-11.545999999999998,175,75
2026-05-09 16:13:18.953,4,-1.19,-0.65,2.15,-36.5548,-3.2738000000000014,-39.4206,175,75
2026-05-09 16:13:18.960,2,-0.39,-0.36,1.55,-50.3784,35.5726,-30.1954,175,75
2026-05-09 16:13:18.960,5,-2.0,-2.0,1.7,40.2022,89.901,-249.8108,175,75
2026-05-09 16:13:18.960,1,0.3,0.89,1.11,189.3936,28.638600000000004,-95.42899999999999,175,75
2026-05-09 16:13:18.969,1,0.26,0.83,1.08,219.21359999999999,40.4086,-102.449,175,75
2026-05-09 16:13:18.969,5,-2.0,-1.97,1.75,154.7322,-51.759,-249.8108,175,75
2026-05-09 16:13:18.970,2,-0.36,-0.23,1.53,-45.9284,48.1926,-25.7454,175,75
2026-05-09 16:13:18.976,3,-0.13,-0.4,1.38,-31.3776,-104.19120000000001,-5.935999999999996,175,75
2026-05-09 16:13:18.976,4,-1.28,-0.43,2.01,-38.144800000000004,-36.4538,-35.6406,175,75
2026-05-09 16:13:18.977,5,-2.0,-0.92,1.95,241.9122,-188.239,-249.8108,175,75
2026-05-09 16:13:18.988,4,-1.35,-0.3,1.89,-34.6648,-30.7738,-26.8006,175,75
2026-05-09 16:13:18.988,1,0.19,0.77,1.09,255.0636,47.418600000000005,-110.309,175,75
2026-05-09 16:13:18.988,2,-0.37,-0.15,1.51,-38.7984,55.872600000000006,-21.3554,175,75
2026-05-09 16:13:18.988,5,-1.61,0.26,2.0,251.0722,-249.059,-249.8108,175,75
2026-05-09 16:13:18.999,4,-1.34,-0.19,1.78,-26.744799999999998,-4.1937999999999995,-17.7706,175,75
2026-05-09 16:13:18.999,3,-0.01,-0.71,0.91,-24.3676,-74.4912,-22.825999999999997,175,75
2026-05-09 16:13:18.999,1,0.11,0.7,1.15,288.11359999999996,50.778600000000004,-117.749,175,75
2026-05-09 16:13:18.999,2,-0.42,-0.1,1.47,-28.0084,60.1426,-15.3154,175,75
2026-05-09 16:13:19.009,3,0.09,-0.78,0.84,-14.9776,-49.9212,-27.516,175,75
2026-05-09 16:13:19.009,1,0.09,0.61,1.17,315.1836,51.5686,-121.70899999999999,175,75
2026-05-09 16:13:19.009,2,-0.46,-0.05,1.46,-20.2584,53.372600000000006,-9.7054,175,75
2026-05-09 16:13:19.009,5,0.19,1.16,1.48,251.0722,-249.059,-249.8108,175,75
2026-05-09 16:13:19.013,4,-1.05,-0.08,1.74,-12.8348,43.3662,-3.8706,175,75
2026-05-09 16:13:19.013,3,0.28,-0.63,0.83,-8.0276,-29.0612,-36.726,175,75
2026-05-09 16:13:19.026,1,0.06,0.5,1.2,336.5236,40.778600000000004,-125.12899999999999,175,75
2026-05-09 16:13:19.026,2,-0.44,0.02,1.45,-16.788400000000003,40.3226,-5.9254,175,75
2026-05-09 16:13:19.026,5,0.49,1.24,1.13,241.99220000000003,-249.059,-249.8108,175,75
2026-05-09 16:13:19.026,4,-0.99,-0.02,1.75,-10.4048,40.0162,-5.1506,175,75
2026-05-09 16:13:19.026,3,0.5,-0.57,0.9,-3.5076,-16.011200000000002,-32.096,175,75
2026-05-09 16:13:19.026,2,-0.39,0.11,1.42,-15.448399999999998,23.922600000000003,-5.0754,175,75
2026-05-09 16:13:19.039,5,0.71,1.15,0.85,196.43220000000002,-249.059,-249.8108,175,75
2026-05-09 16:13:19.039,4,-1.01,0.1,1.79,-8.204799999999999,37.4562,-7.2806,175,75
2026-05-09 16:13:19.039,5,1.06,0.89,0.5,163.9222,-249.059,-226.4208,175,75
2026-05-09 16:13:19.050,4,-0.98,0.28,1.81,-2.8347999999999995,37.9362,-8.1406,175,75
2026-05-09 16:13:19.050,2,-0.36,0.2,1.34,-13.128400000000001,3.9226000000000028,-4.7054,175,75
2026-05-09 16:13:19.050,1,0.06,0.24,1.18,381.1636,-1.9714,-127.929,175,75
2026-05-09 16:13:19.050,5,1.88,0.76,0.16,158.3322,-249.059,-97.0408,175,75
2026-05-09 16:13:19.064,3,0.88,-0.36,0.79,1.5523999999999987,-62.0512,-16.785999999999998,175,75
2026-05-09 16:13:19.064,5,1.65,0.78,0.12,141.5422,-165.90900000000002,21.1392,175,75
2026-05-09 16:13:19.064,1,0.09,0.05,1.17,394.5736,-22.761400000000002,-132.19899999999998,175,75
2026-05-09 16:13:19.076,5,1.04,0.79,0.15,100.8822,-75.589,84.4592,175,75
2026-05-09 16:13:19.076,2,-0.51,0.34,1.03,-10.568399999999999,-18.947399999999995,-8.2454,175,75
2026-05-09 16:13:19.076,1,0.05,-0.23,1.17,403.6036,-52.8214,-138.969,175,75
2026-05-09 16:13:19.076,4,-0.66,0.82,1.62,3.7452000000000005,-2.7337999999999987,-9.0506,175,75
2026-05-09 16:13:19.076,5,0.63,0.55,0.12,64.68220000000001,-9.869,113.2692,175,75
2026-05-09 16:13:19.089,2,-0.53,0.41,0.99,-11.5984,-9.677399999999999,-7.875399999999999,175,75
2026-05-09 16:13:19.089,3,0.6,-0.1,0.1,27.5824,-69.55120000000001,18.824,175,75
2026-05-09 16:13:19.089,1,-0.0,-0.41,1.16,407.0136,-76.6614,-154.519,175,75
2026-05-09 16:13:19.089,4,-0.58,0.96,1.47,5.635200000000001,-12.1838,-7.5306,175,75
2026-05-09 16:13:19.089,5,0.35,0.33,0.1,38.9922,40.741,130.39919999999998,175,75
2026-05-09 16:13:19.099,3,0.45,-0.02,-0.08,56.0024,-29.8012,18.454000000000004,175,75
2026-05-09 16:13:19.099,2,-0.52,0.5,0.96,-15.138399999999999,0.5726000000000013,-7.0854,175,75
2026-05-09 16:13:19.099,1,0.0,-0.6,1.16,406.3436,-97.9414,-170.85899999999998,175,75
2026-05-09 16:13:19.099,4,-0.53,0.98,1.34,6.555199999999999,-0.23379999999999868,-3.3205999999999998,175,75
2026-05-09 16:13:19.099,5,0.11,0.15,0.09,22.9422,73.031,138.98919999999998,175,75
2026-05-09 16:13:19.103,3,0.51,0.21,0.08,109.41239999999999,38.9188,21.144000000000002,175,75
2026-05-09 16:13:19.103,1,0.03,-0.73,1.15,403.29359999999997,-128.6814,-179.579,175,75
2026-05-09 16:13:19.121,4,-0.46,0.87,1.23,4.7852,46.906200000000005,-5.1506,175,75
2026-05-09 16:13:19.121,3,0.56,0.29,0.44,156.9724,90.2688,41.56400000000001,175,75
2026-05-09 16:13:19.121,2,-0.36,0.64,0.99,-19.8384,-5.8973999999999975,-6.9054,175,75
2026-05-09 16:13:19.121,4,-0.42,0.8,1.22,-5.8248,84.9562,-4.1806,175,75
2026-05-09 16:13:19.121,3,0.4,0.29,0.71,185.69240000000002,123.91879999999999,61.144000000000005,175,75
2026-05-09 16:13:19.123,2,-0.32,0.72,1.01,-17.6984,-18.4574,-7.875399999999999,175,75
2026-05-09 16:13:19.136,5,-0.21,-0.04,-0.13,17.0822,83.061,113.5992,175,75
2026-05-09 16:13:19.136,3,0.34,0.22,0.93,211.79240000000001,153.4388,74.73400000000001,175,75
2026-05-09 16:13:19.136,4,-0.44,0.88,1.47,-19.974800000000002,107.3962,-1.7406,175,75
2026-05-09 16:13:19.136,1,-0.02,-0.91,1.18,371.7736,-232.82139999999998,-195.069,175,75
2026-05-09 16:13:19.136,2,-0.32,0.82,1.04,-11.9684,-32.057399999999994,-10.7454,175,75
2026-05-09 16:13:19.150,3,0.17,0.26,1.24,235.3324,177.8888,101.754,175,75
2026-05-09 16:13:19.150,2,-0.31,0.92,1.06,-5.0184,-43.21739999999999,-12.4454,175,75
2026-05-09 16:13:19.150,5,-0.24,-0.23,-0.2,25.2122,48.901,77.7092,175,75
2026-05-09 16:13:19.150,3,0.18,0.21,1.49,244.2924,170.2688,116.694,175,75
2026-05-09 16:13:19.166,5,-0.07,-0.0,-0.63,22.432199999999998,26.980999999999998,44.0892,175,75
2026-05-09 16:13:19.166,1,-0.12,-1.04,0.31,346.9536,-124.65140000000001,-207.509,175,75
2026-05-09 16:13:19.166,4,-0.41,1.16,2.03,4.3552,43.0662,9.179400000000001,175,75
2026-05-09 16:13:19.166,2,-0.29,1.08,1.14,1.6916000000000007,-53.1474,-13.6054,175,75
2026-05-09 16:13:19.166,3,0.19,0.18,1.63,246.55240000000003,145.4488,127.784,175,75
2026-05-09 16:13:19.172,5,-0.04,0.03,-0.74,13.8222,8.161,6.6992,175,75
2026-05-09 16:13:19.173,4,-0.35,1.08,2.06,13.255200000000002,-33.403800000000004,7.5894,175,75
2026-05-09 16:13:19.187,5,-0.11,-0.03,-0.71,7.7222,-19.579,-17.8908,175,75
2026-05-09 16:13:19.187,1,-6.03,0.24,-0.42,158.78359999999998,-667.6414,-59.519,175,75
2026-05-09 16:13:19.187,2,-0.18,1.26,1.46,13.4016,-62.5374,-18.8554,175,75
2026-05-09 16:13:19.187,4,-0.44,0.93,1.91,11.185200000000002,-98.15379999999999,7.1094,175,75
2026-05-09 16:13:19.187,3,0.18,-0.01,1.73,207.16240000000002,34.1688,143.034,175,75
2026-05-09 16:13:19.187,5,-0.02,-0.25,-0.78,14.6022,-51.449,-16.9708,175,75
2026-05-09 16:13:19.197,4,-0.55,0.84,1.74,10.6952,-120.59379999999999,6.739400000000001,175,75
2026-05-09 16:13:19.197,1,-2.09,-0.18,-4.13,82.9936,-439.6514,76.40100000000001,175,75
2026-05-09 16:13:19.197,2,-0.23,0.88,1.64,14.9216,-79.6174,-20.3154,175,75
2026-05-09 16:13:19.197,5,0.34,-0.33,-0.71,25.9522,-67.039,10.5692,175,75
2026-05-09 16:13:19.197,3,0.14,-0.21,1.42,167.4624,-38.2112,133.944,175,75
2026-05-09 16:13:19.209,4,-0.63,0.7,1.54,15.9452,-128.8238,11.0094,175,75
2026-05-09 16:13:19.209,2,-0.33,0.34,1.72,19.1916,-106.7474,-21.3554,175,75
2026-05-09 16:13:19.209,5,0.68,-0.25,-0.39,30.9122,-42.718999999999994,42.7892,175,75
2026-05-09 16:13:19.209,3,-0.08,-0.19,1.14,153.07240000000002,-39.4912,126.324,175,75
2026-05-09 16:13:19.219,4,-0.71,0.35,1.3,27.955199999999998,-120.2338,20.0294,175,75
2026-05-09 16:13:19.219,1,1.54,1.62,-5.22,-213.8364,380.8986,478.411,175,75
2026-05-09 16:13:19.219,2,-0.38,-0.07,1.77,27.361600000000003,-119.97740000000002,-21.2254,175,75
2026-05-09 16:13:19.219,5,0.71,-0.35,-0.13,28.6022,9.261,67.2592,175,75
2026-05-09 16:13:19.219,4,-0.73,-0.07,1.13,34.4152,-86.9938,21.8594,175,75
2026-05-09 16:13:19.222,1,-0.81,-1.35,-0.53,-3.0463999999999998,716.9286000000001,-16.959,175,75
2026-05-09 16:13:19.237,5,0.78,-0.36,0.11,27.5722,78.661,94.3692,175,75
2026-05-09 16:13:19.237,2,-0.47,-0.67,1.7,43.4016,-122.9674,-19.7054,175,75
2026-05-09 16:13:19.237,1,-3.12,-1.51,3.42,-106.0364,425.7786,1.7610000000000001,175,75
2026-05-09 16:13:19.237,4,-0.7,-0.74,0.92,36.2452,-13.4038,11.1894,175,75
2026-05-09 16:13:19.237,3,-0.23,-0.48,0.76,134.1724,-16.3212,96.084,175,75
2026-05-09 16:13:19.237,5,1.18,-0.46,0.45,41.1422,187.90099999999998,119.2692,175,75
2026-05-09 16:13:19.248,2,-0.66,-1.11,1.48,53.2716,-102.9074,-14.5854,175,75
2026-05-09 16:13:19.248,3,-0.28,-0.46,0.54,98.01240000000001,-0.5912,37.903999999999996,175,75
2026-05-09 16:13:19.248,1,1.99,-1.89,1.96,-41.2764,299.42859999999996,217.981,175,75
2026-05-09 16:13:19.266,5,1.38,0.44,1.29,1.7722,251.21099999999998,60.2792,175,75
2026-05-09 16:13:19.266,4,-1.15,-1.97,1.19,17.0352,113.8562,41.0694,175,75
2026-05-09 16:13:19.266,3,-0.14,0.27,0.52,12.892399999999999,82.08879999999999,-23.855999999999998,175,75
2026-05-09 16:13:19.266,5,0.0,-0.16,2.0,-13.937800000000001,251.21099999999998,-176.8008,175,75
2026-05-09 16:13:19.272,1,-0.58,-0.01,1.3,-67.37639999999999,-240.51139999999998,-13.539,175,75
2026-05-09 16:13:19.279,5,2.0,0.84,2.0,-81.8078,251.21099999999998,-249.8108,175,75
2026-05-09 16:13:19.279,2,-0.62,-0.81,1.19,13.6416,108.0026,-13.1854,175,75
2026-05-09 16:13:19.294,1,-1.41,0.12,-0.17,-42.376400000000004,-27.461399999999998,19.631,175,75
2026-05-09 16:13:19.294,3,0.24,0.62,0.83,-107.3476,-20.5912,-112.216,175,75
2026-05-09 16:13:19.306,5,-1.08,0.0,2.0,-248.3278,251.21099999999998,-249.8108,175,75
2026-05-09 16:13:19.307,4,-1.99,-1.55,2.03,-31.3748,86.90620000000001,-121.4306,175,75
2026-05-09 16:13:19.307,1,-0.81,-0.69,0.45,23.843600000000002,141.5686,2.491,175,75
2026-05-09 16:13:19.316,5,-2.0,-0.71,2.0,-200.78779999999998,251.21099999999998,-249.8108,175,75
2026-05-09 16:13:19.317,4,-0.7,-1.29,2.51,-64.3648,115.43619999999999,-132.7706,175,75
2026-05-09 16:13:19.317,3,0.6,0.6,1.03,-245.64759999999998,-172.7812,-151.546,175,75
2026-05-09 16:13:19.317,1,-0.24,-0.91,0.9,14.2736,136.5086,3.351,175,75
2026-05-09 16:13:19.317,2,-0.5,-0.8,1.96,-26.178399999999996,65.5026,-0.43540000000000023,175,75
2026-05-09 16:13:19.325,4,-0.3,-0.58,2.77,-129.97480000000002,67.4562,44.7894,175,75
2026-05-09 16:13:19.325,3,0.39,0.2,1.03,-312.9576,-233.7012,-190.876,175,75
2026-05-09 16:13:19.325,1,-0.16,-0.87,1.05,20.7336,117.4786,-10.799,175,75
2026-05-09 16:13:19.336,5,-2.0,-0.54,2.0,-22.6578,61.301,91.2692,175,75
2026-05-09 16:13:19.336,4,-1.03,-0.4,2.54,-87.0448,-76.63380000000001,26.429399999999998,175,75
2026-05-09 16:13:19.336,2,-0.55,-0.43,1.78,-63.4284,17.942600000000002,-26.4754,175,75
2026-05-09 16:13:19.336,1,0.04,-0.76,1.26,22.6236,115.34859999999999,-14.699,175,75
2026-05-09 16:13:19.338,5,-2.0,-0.08,2.0,-12.8078,-147.459,170.01919999999998,175,75
2026-05-09 16:13:19.354,4,-0.92,-0.53,2.39,-42.904799999999994,-178.2738,-28.570600000000002,175,75
2026-05-09 16:13:19.354,1,0.12,-0.84,1.37,22.3236,110.2286,-10.488999999999999,175,75
2026-05-09 16:13:19.354,5,-2.0,0.15,2.0,-55.7078,-249.059,168.8892,175,75
2026-05-09 16:13:19.354,3,-1.94,0.79,1.56,-347.1676,76.9088,-131.296,175,75
2026-05-09 16:13:19.367,5,-2.0,-0.27,2.0,-82.6278,-249.059,177.49919999999997,175,75
2026-05-09 16:13:19.367,2,-0.55,-0.15,1.19,-51.4184,43.0726,-7.205399999999999,175,75
2026-05-09 16:13:19.367,4,-0.7,-0.33,2.03,-54.7248,-183.5238,-13.570599999999999,175,75
2026-05-09 16:13:19.367,2,-0.61,-0.13,1.0,-37.6984,83.3726,-4.3354,175,75
2026-05-09 16:13:19.367,5,-0.95,-0.61,1.55,-76.73780000000001,-249.059,202.08919999999998,175,75
2026-05-09 16:13:19.378,3,-0.9,-2.66,6.7,239.29240000000001,302.8888,262.364,175,75
2026-05-09 16:13:19.378,4,-0.87,-0.06,1.64,-61.6148,-139.9238,-8.0806,175,75
2026-05-09 16:13:19.378,1,0.21,-0.76,1.44,16.2836,111.56859999999999,-5.488999999999999,175,75
2026-05-09 16:13:19.378,3,-3.1,-3.19,7.08,304.6624,-333.7612,-208.916,175,75
2026-05-09 16:13:19.378,5,0.2,-0.32,1.1,-57.4378,-249.059,243.58919999999998,175,75
2026-05-09 16:13:19.388,1,0.57,-0.78,1.8,11.043600000000001,154.67860000000002,-0.9789999999999996,175,75
2026-05-09 16:13:19.388,4,-0.88,0.24,1.32,-44.3648,-54.6238,-17.9606,175,75
2026-05-09 16:13:19.388,5,0.62,-0.67,0.56,-35.397800000000004,-249.059,250.45919999999998,175,75
2026-05-09 16:13:19.401,2,-0.61,0.12,1.0,9.0716,240.99259999999998,11.3346,175,75
2026-05-09 16:13:19.401,4,-0.73,0.54,1.2,-3.9947999999999997,61.5962,6.8594,175,75
2026-05-09 16:13:19.401,5,0.96,-0.56,-0.0,-20.3678,-249.059,238.64919999999998,175,75
2026-05-09 16:13:19.401,3,6.3,3.12,3.83,-186.7476,-264.5512,-53.126,175,75
2026-05-09 16:13:19.411,2,-0.39,0.22,1.14,17.541600000000003,284.3526,13.5246,175,75
2026-05-09 16:13:19.411,4,-0.73,0.55,1.23,24.965200000000003,131.3562,24.7294,175,75
2026-05-09 16:13:19.411,1,0.43,-0.29,2.35,-8.8364,172.8486,13.591000000000001,175,75
2026-05-09 16:13:19.411,3,1.0,2.87,2.48,-240.58759999999998,-792.3012,90.224,175,75
2026-05-09 16:13:19.411,5,2.0,-0.66,-0.68,4.962199999999999,-249.059,221.21919999999997,175,75
2026-05-09 16:13:19.420,1,0.21,0.18,2.32,-30.3064,132.6686,34.261,175,75
2026-05-09 16:13:19.420,4,-0.69,0.34,1.42,48.1352,194.9562,30.5794,175,75
2026-05-09 16:13:19.420,5,2.0,-0.62,-1.36,38.4322,-249.059,173.54919999999998,175,75
2026-05-09 16:13:19.420,3,-2.0,1.99,0.32,-357.1676,-432.4812,-51.416,175,75
2026-05-09 16:13:19.428,3,0.21,1.78,-1.47,-241.0676,-114.3712,-84.896,175,75
2026-05-09 16:13:19.428,5,1.17,-0.26,-0.79,48.6922,-94.449,108.4392,175,75
2026-05-09 16:13:19.432,2,-0.28,0.44,1.45,4.0716,73.3726,4.0746,175,75
2026-05-09 16:13:19.436,1,-0.17,0.62,1.36,-82.98639999999999,18.5186,44.751,175,75
2026-05-09 16:13:19.436,4,-0.62,0.25,1.84,40.6352,203.3662,28.6294,175,75
2026-05-09 16:13:19.446,3,0.12,1.07,-0.78,23.382399999999997,41.9088,-37.57599999999999,175,75
2026-05-09 16:13:19.446,1,-0.18,0.57,1.03,-98.2264,16.5686,68.65100000000001,175,75
2026-05-09 16:13:19.446,4,-0.5,0.4,1.98,37.4652,170.9262,26.9794,175,75
2026-05-09 16:13:19.457,5,-0.47,-0.3,0.09,87.0422,-3.2689999999999997,2.6392,175,75
2026-05-09 16:13:19.457,3,0.04,0.06,0.15,41.1824,179.5288,-23.735999999999997,175,75
2026-05-09 16:13:19.457,1,-0.2,0.53,1.01,-85.8464,12.848600000000001,64.751,175,75
2026-05-09 16:13:19.457,2,-0.35,0.48,1.02,4.131600000000001,-36.9974,4.0146,175,75
2026-05-09 16:13:19.457,5,-0.64,-0.25,0.15,96.4022,1.9409999999999998,-46.8608,175,75
2026-05-09 16:13:19.474,4,-0.25,0.73,2.04,29.4152,75.62620000000001,24.7894,175,75
2026-05-09 16:13:19.474,2,-0.38,0.49,0.89,8.0916,-58.88739999999999,3.7046,175,75
2026-05-09 16:13:19.474,3,0.1,-1.04,1.3,60.6924,167.0288,-21.355999999999998,175,75
2026-05-09 16:13:19.474,5,-0.74,-0.16,0.19,96.8622,-2.019,-102.9408,175,75
2026-05-09 16:13:19.474,2,-0.42,0.53,0.74,17.6616,-66.50739999999999,5.5346,175,75
2026-05-09 16:13:19.484,1,0.51,1.12,1.41,-8.4164,71.62859999999999,23.961,175,75
2026-05-09 16:13:19.484,4,-0.23,0.91,1.98,30.635199999999998,30.5062,25.1494,175,75
2026-05-09 16:13:19.484,5,-0.75,-0.03,0.21,89.9922,-8.689,-158.44080000000002,175,75
2026-05-09 16:13:19.484,3,-0.18,-0.68,1.73,43.5024,113.0688,-52.705999999999996,175,75
2026-05-09 16:13:19.494,1,0.66,1.33,1.58,38.7836,64.12859999999999,13.101,175,75
2026-05-09 16:13:19.494,5,-0.69,0.13,0.19,73.2822,-15.568999999999999,-210.00080000000003,175,75
2026-05-09 16:13:19.494,4,-0.18,0.99,1.87,37.0952,13.3662,27.7794,175,75
2026-05-09 16:13:19.500,5,-0.59,0.29,0.12,47.6922,-22.319,-249.8108,175,75
2026-05-09 16:13:19.500,1,0.79,1.46,1.64,101.95360000000001,52.7886,-13.789,175,75
2026-05-09 16:13:19.515,3,0.48,0.57,0.45,6.6724,-53.2112,30.164000000000005,175,75
2026-05-09 16:13:19.515,4,-0.18,0.87,1.61,51.8552,-16.6938,21.069399999999998,175,75
2026-05-09 16:13:19.515,2,-0.41,0.7,0.59,33.0916,-32.5374,16.0846,175,75
2026-05-09 16:13:19.515,1,0.61,1.34,1.59,131.1636,14.3086,-30.799,175,75
2026-05-09 16:13:19.515,3,0.26,0.14,0.25,41.6724,-7.7812,33.45400000000001,175,75
2026-05-09 16:13:19.524,5,-0.52,0.36,0.03,-21.8778,-52.259,-249.8108,175,75
2026-05-09 16:13:19.524,4,-0.26,0.75,1.51,54.4752,-26.1438,12.1094,175,75
2026-05-09 16:13:19.524,2,-0.37,0.67,0.57,32.7916,-15.897399999999998,15.2346,175,75
2026-05-09 16:13:19.537,5,-0.28,0.88,-0.37,-71.8278,-80.309,-249.8108,175,75
2026-05-09 16:13:19.537,3,0.49,0.09,0.48,88.8024,14.6588,31.934,175,75
2026-05-09 16:13:19.537,4,-0.33,0.67,1.43,53.62520000000001,-28.5238,2.4094,175,75
2026-05-09 16:13:19.537,1,0.44,0.53,1.61,160.3636,-22.2714,-51.409,175,75
2026-05-09 16:13:19.537,2,-0.39,0.62,0.57,29.9816,-5.5273999999999965,12.4846,175,75
2026-05-09 16:13:19.543,4,-0.39,0.66,1.39,53.1952,-28.0338,-4.5405999999999995,175,75
2026-05-09 16:13:19.543,3,0.67,0.2,0.74,113.7424,31.178800000000003,52.42400000000001,175,75
2026-05-09 16:13:19.543,2,-0.41,0.63,0.59,26.6316,-1.8073999999999977,10.1146,175,75
2026-05-09 16:13:19.559,5,1.58,0.78,-0.98,-113.6678,-37.218999999999994,-223.1808,175,75
2026-05-09 16:13:19.559,4,-0.45,0.68,1.37,54.4152,-23.343799999999998,-10.3906,175,75
2026-05-09 16:13:19.559,1,0.37,0.18,1.72,152.1336,-97.21140000000001,-52.629,175,75
2026-05-09 16:13:19.559,5,1.31,0.75,-0.81,-105.8378,28.741,-73.4008,175,75
2026-05-09 16:13:19.577,5,0.43,0.56,-0.45,-101.5078,70.401,3.9792,175,75
2026-05-09 16:13:19.577,4,-0.54,0.66,1.33,60.0252,-15.1038,-11.980599999999999,175,75
2026-05-09 16:13:19.577,5,0.22,0.23,-0.26,-86.73780000000001,100.431,36.0192,175,75
2026-05-09 16:13:19.590,3,0.55,-0.29,0.82,167.7124,-11.2612,118.09400000000001,175,75
2026-05-09 16:13:19.590,2,-0.42,0.92,0.94,-10.9284,67.27260000000001,10.9646,175,75
2026-05-09 16:13:19.590,4,-0.62,0.57,1.35,63.3852,-6.873799999999999,-10.7606,175,75
2026-05-09 16:13:19.590,1,-3.07,0.2,-3.25,-50.726400000000005,-420.32140000000004,61.580999999999996,175,75
2026-05-09 16:13:19.590,5,0.33,-0.1,-0.09,-59.1378,137.72099999999998,64.7092,175,75
2026-05-09 16:13:19.606,3,0.17,-0.67,0.69,180.82240000000002,25.9988,144.254,175,75
2026-05-09 16:13:19.606,5,0.55,-0.29,0.06,-25.6078,189.101,108.3192,175,75
2026-05-09 16:13:19.606,1,-1.88,-0.55,-4.48,-312.1964,-243.3714,241.761,175,75
2026-05-09 16:13:19.606,3,-0.09,-1.16,0.7,191.91240000000002,72.02879999999999,160.224,175,75
2026-05-09 16:13:19.618,5,0.86,0.16,-0.37,-10.4078,244.101,156.70919999999998,175,75
2026-05-09 16:13:19.618,4,-0.77,0.26,1.36,51.0652,-11.8738,-11.070599999999999,175,75
2026-05-09 16:13:19.628,5,0.93,-0.12,0.12,7.0922,251.21099999999998,221.23919999999998,175,75
2026-05-09 16:13:19.628,3,-0.49,-1.36,0.76,206.5524,121.60879999999999,147.23399999999998,175,75
2026-05-09 16:13:19.628,2,-0.47,0.17,1.46,-38.3684,46.4226,-16.9654,175,75
2026-05-09 16:13:19.628,4,-0.93,0.09,1.36,41.425200000000004,-14.6838,-8.2006,175,75
2026-05-09 16:13:19.642,2,-0.71,-0.16,1.53,-42.458400000000005,77.9426,-21.5954,175,75
2026-05-09 16:13:19.642,3,-0.83,-1.02,1.08,218.9924,178.2488,94.31400000000001,175,75
2026-05-09 16:13:19.642,4,-1.06,-0.15,1.3,32.2852,12.026200000000003,-2.8306,175,75
2026-05-09 16:13:19.642,1,1.0,0.03,1.72,-66.0364,238.51860000000002,198.291,175,75
2026-05-09 16:13:19.642,5,1.02,-0.13,0.28,34.2522,251.21099999999998,250.45919999999998,175,75
2026-05-09 16:13:19.642,3,-0.7,-0.72,1.47,224.7824,191.9688,61.93400000000001,175,75
2026-05-09 16:13:19.646,1,-0.12,-2.1,2.21,-85.7264,111.8686,95.971,175,75
2026-05-09 16:13:19.659,2,-0.96,-0.48,1.51,-36.9684,133.4926,-15.9254,175,75
2026-05-09 16:13:19.659,5,-0.09,0.14,2.0,23.7322,251.21099999999998,250.45919999999998,175,75
2026-05-09 16:13:19.659,2,-1.07,-0.65,1.47,-25.078400000000002,174.77259999999998,-9.4054,175,75
2026-05-09 16:13:19.659,5,-0.25,-1.01,2.0,3.7922000000000002,-144.15900000000002,250.45919999999998,175,75
2026-05-09 16:13:19.674,3,-0.53,-0.39,1.82,170.2724,103.49879999999999,78.584,175,75
2026-05-09 16:13:19.674,5,0.91,-1.19,2.0,50.1422,-91.449,96.8592,175,75
2026-05-09 16:13:19.674,4,-1.52,-1.3,1.79,-3.5047999999999995,67.87620000000001,2.6494,175,75
2026-05-09 16:13:19.684,5,-0.37,0.2,1.95,27.8322,-44.619,-119.1008,175,75
2026-05-09 16:13:19.684,1,-0.67,-0.28,-0.93,-71.8864,-16.791400000000003,42.071,175,75
2026-05-09 16:13:19.684,2,-1.15,-0.67,1.35,19.6216,340.0226,12.9746,175,75
2026-05-09 16:13:19.684,4,-1.85,-1.35,1.99,-14.1848,14.226199999999999,2.2894,175,75
2026-05-09 16:13:19.697,5,-0.21,0.28,1.58,-26.9578,118.301,-249.8108,175,75
2026-05-09 16:13:19.697,2,-1.2,-0.67,1.47,7.3016000000000005,405.44259999999997,25.1746,175,75
2026-05-09 16:13:19.697,4,-2.04,-1.29,2.07,-24.9148,-47.2438,-6.2506,175,75
2026-05-09 16:13:19.697,5,-0.48,0.25,1.74,-79.0678,251.21099999999998,-249.8108,175,75
2026-05-09 16:13:19.709,1,-0.89,-0.19,0.29,-13.8964,84.0086,13.411000000000001,175,75
2026-05-09 16:13:19.709,4,-1.99,-1.21,2.03,-39.8548,-104.68379999999999,-25.090600000000002,175,75
2026-05-09 16:13:19.709,3,-0.32,0.04,1.05,23.6824,38.4988,-36.546,175,75
2026-05-09 16:13:19.709,2,-1.48,-0.76,1.65,-3.6784,509.3526,46.0846,175,75
2026-05-09 16:13:19.713,1,-0.79,-0.14,0.36,9.6936,65.0986,-1.4090000000000003,175,75
2026-05-09 16:13:19.730,3,-0.16,0.29,0.99,-18.6376,42.6388,-34.775999999999996,175,75
2026-05-09 16:13:19.730,4,-1.2,-1.04,1.7,-69.6648,-160.4738,-25.7006,175,75
2026-05-09 16:13:19.730,1,-0.72,-0.27,0.14,32.3236,30.2286,-21.959,175,75
2026-05-09 16:13:19.730,5,-0.11,-0.44,2.0,-199.5878,251.21099999999998,-249.8108,175,75
2026-05-09 16:13:19.730,3,-0.04,0.22,0.91,-47.4176,5.7488,-54.715999999999994,175,75
2026-05-09 16:13:19.740,4,-1.08,-0.98,1.49,-67.9048,-142.8538,8.929400000000001,175,75
2026-05-09 16:13:19.741,1,-0.7,-0.42,-0.12,57.6836,27.968600000000002,-43.419000000000004,175,75
2026-05-09 16:13:19.741,2,-1.44,-0.81,1.86,51.751599999999996,366.4826,-14.0354,175,75
2026-05-09 16:13:19.741,5,-0.71,-0.27,2.0,-117.7778,251.21099999999998,-21.5508,175,75
2026-05-09 16:13:19.751,3,-0.06,0.24,0.69,-91.55760000000001,2.3388,-92.576,175,75
2026-05-09 16:13:19.751,2,-1.24,-0.71,2.1,33.5816,223.1926,-53.4254,175,75
2026-05-09 16:13:19.751,5,-2.0,-0.25,2.0,-52.9978,195.541,114.6392,175,75
2026-05-09 16:13:19.751,1,-0.73,-0.78,0.06,88.6036,48.458600000000004,-52.079,175,75
2026-05-09 16:13:19.751,4,-1.03,-0.95,1.33,-37.2248,-39.0138,6.8594,175,75
2026-05-09 16:13:19.762,3,0.08,0.33,0.65,-122.5376,22.2188,-107.216,175,75
2026-05-09 16:13:19.762,5,-2.0,-0.33,2.0,-20.3878,80.671,88.5392,175,75
2026-05-09 16:13:19.762,1,-0.67,-1.17,0.42,110.2436,62.2986,-53.909,175,75
2026-05-09 16:13:19.772,4,-0.75,-0.71,1.43,-36.3748,13.916200000000003,0.14939999999999998,175,75
2026-05-09 16:13:19.772,3,0.22,0.29,0.79,-152.4776,8.3088,-117.76599999999999,175,75
2026-05-09 16:13:19.772,5,-2.0,-0.26,2.0,-13.0678,-61.648999999999994,19.4292,175,75
2026-05-09 16:13:19.772,1,-0.29,-1.21,0.77,125.73360000000001,88.0286,-53.909,175,75
2026-05-09 16:13:19.772,2,-0.99,-0.21,1.72,-29.708400000000005,-90.5874,-97.3854,175,75
2026-05-09 16:13:19.787,5,-2.0,-0.27,2.0,-20.0378,-249.059,-1.3808,175,75
2026-05-09 16:13:19.787,1,0.28,-0.76,1.33,141.34359999999998,118.6986,-46.409,175,75
2026-05-09 16:13:19.787,2,-0.88,-0.21,1.34,-35.9284,-192.8474,-113.0554,175,75
2026-05-09 16:13:19.787,3,0.39,0.19,0.79,-207.7176,-26.5012,-150.206,175,75
2026-05-09 16:13:19.787,4,-0.58,0.04,1.58,-40.0948,67.2662,3.5094000000000003,175,75
2026-05-09 16:13:19.787,5,-2.0,-0.29,1.82,-10.3278,-249.059,-3.3108,175,75
2026-05-09 16:13:19.805,2,-0.9,-0.18,1.11,-47.9484,-234.00740000000002,-114.5254,175,75
2026-05-09 16:13:19.805,5,-1.23,-0.27,1.29,10.4622,-249.059,9.8192,175,75
2026-05-09 16:13:19.805,3,0.55,0.18,0.67,-235.5276,-34.8012,-153.79600000000002,175,75
2026-05-09 16:13:19.805,1,0.36,-0.3,2.96,89.9436,228.3386,1.7610000000000001,175,75
2026-05-09 16:13:19.819,3,0.57,0.19,0.6,-251.3176,-28.5112,-153.126,175,75
2026-05-09 16:13:19.819,4,-0.54,0.73,1.79,-36.684799999999996,91.53620000000001,7.469399999999999,175,75
2026-05-09 16:13:19.819,1,-0.13,0.53,2.34,-23.476399999999998,154.36860000000001,13.351,175,75
2026-05-09 16:13:19.819,5,0.06,-0.05,0.41,45.0722,-249.059,67.3092,175,75
2026-05-09 16:13:19.819,3,0.54,0.2,0.54,-263.3276,-11.6912,-152.886,175,75
2026-05-09 16:13:19.831,2,-0.88,0.37,0.88,-63.4284,-196.19740000000002,-93.3054,175,75
2026-05-09 16:13:19.831,1,-0.87,1.03,0.96,-150.6664,84.8586,50.661,175,75
2026-05-09 16:13:19.831,4,-0.51,0.96,1.89,-35.2148,87.7562,10.889399999999998,175,75
2026-05-09 16:13:19.831,5,0.81,-0.19,-0.19,79.8322,-249.059,115.8892,175,75
2026-05-09 16:13:19.841,3,0.48,0.15,0.52,-270.6476,6.1188,-158.67600000000002,175,75
2026-05-09 16:13:19.841,2,-0.75,0.66,0.87,-51.1184,-166.9974,-79.2754,175,75
2026-05-09 16:13:19.841,1,-1.01,0.48,-0.32,-277.8664,84.73859999999999,125.12100000000001,175,75
2026-05-09 16:13:19.841,4,-0.43,1.09,1.95,-28.6348,72.5762,15.279399999999999,175,75
2026-05-09 16:13:19.841,3,0.59,0.08,0.7,-275.0376,31.848799999999997,-167.82600000000002,175,75
2026-05-09 16:13:19.844,4,-0.31,1.15,1.95,-21.0048,54.7062,19.909399999999998,175,75
2026-05-09 16:13:19.858,5,2.0,0.22,-1.71,142.4222,-249.059,250.45919999999998,175,75
2026-05-09 16:13:19.858,3,0.65,-0.01,0.87,-280.0376,28.128800000000002,-168.616,175,75
2026-05-09 16:13:19.858,2,-0.68,1.01,0.94,-18.5584,-146.19740000000002,-52.6354,175,75
2026-05-09 16:13:19.858,4,-0.1,1.16,1.92,-11.0048,35.3762,22.8994,175,75
2026-05-09 16:13:19.858,1,-0.81,-1.65,-0.6,-396.88640000000004,201.3886,233.351,175,75
2026-05-09 16:13:19.858,5,2.0,0.87,-2.0,142.65220000000002,-175.99900000000002,250.45919999999998,175,75
2026-05-09 16:13:19.869,3,0.85,-0.13,0.96,-287.4176,1.4187999999999998,-171.54600000000002,175,75
2026-05-09 16:13:19.869,2,-0.65,0.94,0.91,-12.1484,-166.3874,-37.9354,175,75
2026-05-09 16:13:19.869,1,-0.49,-2.17,0.53,-404.8164,223.8886,209.631,175,75
2026-05-09 16:13:19.869,4,0.08,1.16,1.82,-7.0447999999999995,26.9662,20.089399999999998,175,75
2026-05-09 16:13:19.884,2,-0.72,0.79,0.87,-14.0984,-173.8274,-28.5454,175,75
2026-05-09 16:13:19.884,5,-0.47,-0.36,-0.72,93.0722,-46.939,107.9892,175,75
2026-05-09 16:13:19.884,1,0.35,-1.19,0.48,-460.5464,5.2286,190.601,175,75
2026-05-09 16:13:19.884,4,0.12,1.2,1.74,-7.4148,23.6762,15.1494,175,75
2026-05-09 16:13:19.896,4,0.02,1.27,1.7,-7.2947999999999995,33.8562,11.679400000000001,175,75
2026-05-09 16:13:19.896,5,-1.05,-0.82,-0.41,132.8322,-109.649,98.0392,175,75
2026-05-09 16:13:19.896,1,-0.93,-0.43,-0.4,-481.76640000000003,40.2286,170.241,175,75
2026-05-09 16:13:19.896,3,-1.62,1.08,2.14,-243.8776,147.2788,-122.15599999999999,175,75
2026-05-09 16:13:19.905,4,-0.05,1.28,1.7,-3.8148,56.416199999999996,13.139399999999998,175,75
2026-05-09 16:13:19.905,2,-0.73,0.64,0.74,12.1816,-111.8074,-2.3853999999999997,175,75
2026-05-09 16:13:19.905,1,0.26,-0.28,-0.16,-440.3064,207.3586,199.02100000000002,175,75
2026-05-09 16:13:19.905,4,-0.07,1.22,1.68,1.7952000000000012,70.1962,17.2294,175,75
2026-05-09 16:13:19.917,5,-1.33,-0.52,-0.24,192.84220000000002,-249.059,22.3792,175,75
2026-05-09 16:13:19.917,3,-3.83,2.73,3.33,-87.4776,487.02880000000005,140.10399999999998,175,75
2026-05-09 16:13:19.917,1,0.62,-0.18,0.84,-386.3364,162.5986,187.55100000000002,175,75
2026-05-09 16:13:19.917,4,-0.06,1.06,1.65,8.1952,74.7662,19.2994,175,75
2026-05-09 16:13:19.919,5,-1.45,-0.13,-0.18,182.05220000000003,-249.059,-20.3808,175,75
2026-05-09 16:13:19.923,2,-0.6,0.58,0.94,47.541599999999995,3.492600000000003,20.3546,175,75
2026-05-09 16:13:19.923,3,0.58,-0.79,5.18,196.7324,-171.8112,-207.156,175,75
2026-05-09 16:13:19.923,1,0.47,-0.21,1.27,-373.4164,131.1386,166.761,175,75
2026-05-09 16:13:19.932,4,-0.08,0.79,1.57,17.5852,74.28620000000001,19.6094,175,75
2026-05-09 16:13:19.932,5,-1.29,0.48,-0.24,110.3622,-249.059,-80.7008,175,75
2026-05-09 16:13:19.932,2,-0.5,0.39,1.15,53.9416,59.6526,28.6446,175,75
2026-05-09 16:13:19.933,3,-5.07,2.67,4.69,105.3324,260.0188,184.004,175,75
2026-05-09 16:13:19.937,4,-0.16,0.5,1.5,27.955199999999998,83.12620000000001,13.749400000000001,175,75
2026-05-09 16:13:19.938,1,0.5,-0.15,1.51,-371.5864,114.12859999999999,131.701,175,75
2026-05-09 16:13:19.938,5,-0.61,0.6,-0.99,-13.1678,-249.059,-150.07080000000002,175,75
2026-05-09 16:13:19.943,2,-0.35,0.13,1.36,56.3816,53.8626,20.9646,175,75
2026-05-09 16:13:19.949,4,-0.28,0.06,1.43,40.7552,110.74619999999999,3.8094,175,75
2026-05-09 16:13:19.949,3,-1.47,1.21,5.37,343.1324,272.4588,192.784,175,75
2026-05-09 16:13:19.949,1,0.49,-0.06,1.68,-352.1964,78.0286,111.581,175,75
2026-05-09 16:13:19.949,5,-0.01,0.38,-1.05,-138.9278,-249.059,-216.0908,175,75
2026-05-09 16:13:19.951,2,-0.48,-0.14,1.53,59.861599999999996,-14.367399999999996,15.7846,175,75
2026-05-09 16:13:19.955,4,-0.35,-0.4,1.43,54.355199999999996,138.4262,-11.070599999999999,175,75
2026-05-09 16:13:19.961,3,4.83,-2.72,3.09,78.01240000000001,-552.0512,36.013999999999996,175,75
2026-05-09 16:13:19.961,1,0.47,0.11,1.81,-332.6164,43.888600000000004,107.131,175,75
2026-05-09 16:13:19.961,5,0.01,0.34,-0.5,-203.8078,-233.649,-244.6708,175,75
2026-05-09 16:13:19.975,1,0.38,0.37,1.9,-309.7564,-2.9414,107.01100000000001,175,75
2026-05-09 16:13:19.975,5,0.27,0.29,-0.17,-222.99779999999998,-130.449,-249.8108,175,75
2026-05-09 16:13:19.975,2,-0.86,-0.5,1.58,53.2116,-95.16739999999999,12.4846,175,75
2026-05-09 16:13:19.975,4,-0.46,-0.92,1.54,69.3552,133.06619999999998,-24.180600000000002,175,75
2026-05-09 16:13:19.987,2,-0.9,-0.65,1.52,38.2116,-106.6274,2.3646,175,75
2026-05-09 16:13:19.987,5,0.62,0.34,0.28,-226.59779999999998,12.030999999999999,-249.8108,175,75
2026-05-09 16:13:19.987,4,-0.72,-1.24,1.69,77.2252,92.4562,-26.430600000000002,175,75
2026-05-09 16:13:19.999,3,0.79,-0.18,-1.05,34.2924,186.4188,65.774,175,75
2026-05-09 16:13:19.999,2,-0.85,-0.72,1.43,22.1216,-109.1274,-2.7554,175,75
2026-05-09 16:13:19.999,1,0.47,0.56,1.74,-235.1764,-73.1314,116.031,175,75
2026-05-09 16:13:19.999,5,1.16,0.39,0.35,-224.4278,179.00099999999998,-249.8108,175,75
2026-05-09 16:13:19.999,3,-0.42,-1.27,0.25,320.8824,-203.8212,-49.596,175,75
2026-05-09 16:13:19.999,1,0.4,0.51,1.47,-205.84640000000002,-109.1614,105.48100000000001,175,75
2026-05-09 16:13:19.999,5,1.66,0.26,0.5,-237.81779999999998,251.21099999999998,-249.8108,175,75
2026-05-09 16:13:20.009,4,-1.29,-1.61,1.78,81.6152,-39.9838,-53.3206,175,75
2026-05-09 16:13:20.009,1,0.3,0.51,1.1,-174.4464,-113.5514,86.641,175,75
2026-05-09 16:13:20.009,3,-0.36,-0.87,1.23,170.63240000000002,282.6988,-2.455999999999996,175,75
2026-05-09 16:13:20.009,5,2.0,0.68,0.46,-249.19779999999997,251.21099999999998,-225.5508,175,75
2026-05-09 16:13:20.019,2,-0.77,-0.51,1.36,2.7916000000000007,-64.85739999999998,-10.4354,175,75
2026-05-09 16:13:20.019,4,-1.54,-1.55,1.73,56.3652,-106.9938,-78.02059999999999,175,75
2026-05-09 16:13:20.019,1,0.17,0.48,0.83,-140.4264,-87.5814,63.411,175,75
2026-05-09 16:13:20.019,5,2.0,1.13,0.39,-249.19779999999997,251.21099999999998,-88.4408,175,75
2026-05-09 16:13:20.030,3,0.82,-0.15,2.57,122.2224,160.9988,45.95400000000001,175,75
2026-05-09 16:13:20.030,4,-1.66,-1.13,1.58,-10.944799999999999,-139.5638,-102.47059999999999,175,75
2026-05-09 16:13:20.030,2,-0.69,-0.38,1.52,0.22160000000000046,-9.857399999999998,-11.8354,175,75
2026-05-09 16:13:20.030,1,0.14,0.47,0.75,-101.76639999999999,-43.3114,37.741,175,75
2026-05-09 16:13:20.030,3,-0.13,-0.18,2.81,112.4024,-22.7212,54.554,175,75
2026-05-09 16:13:20.041,5,2.0,0.82,-0.36,-249.19779999999997,251.21099999999998,-43.4408,175,75
2026-05-09 16:13:20.041,4,-1.6,-0.79,1.49,-47.1648,-110.3538,-90.03059999999999,175,75
2026-05-09 16:13:20.041,2,-0.63,-0.43,1.69,-2.4583999999999993,0.6926000000000023,-14.1554,175,75
2026-05-09 16:13:20.041,1,0.12,0.57,0.96,-52.556400000000004,-9.901399999999999,7.981,175,75
2026-05-09 16:13:20.041,5,2.0,0.84,-0.44,-249.19779999999997,251.21099999999998,25.0892,175,75
2026-05-09 16:13:20.048,2,-0.69,-0.55,1.82,-5.318399999999999,-22.3574,-20.1354,175,75
2026-05-09 16:13:20.048,3,-0.07,-0.25,1.76,31.492399999999996,-84.9812,46.01400000000001,175,75
2026-05-09 16:13:20.048,4,-1.64,-0.59,1.41,-49.4248,-35.7138,-46.4306,175,75
2026-05-09 16:13:20.048,1,0.16,0.69,1.22,-9.936399999999999,6.9886,-7.508999999999999,175,75
2026-05-09 16:13:20.061,2,-0.82,-0.63,1.85,-6.238399999999999,-58.337399999999995,-26.5954,175,75
2026-05-09 16:13:20.061,3,-0.64,-0.23,1.32,37.1624,-62.9712,48.82400000000001,175,75
2026-05-09 16:13:20.061,4,-1.62,-0.67,1.53,-18.2048,16.2962,-21.070600000000002,175,75
2026-05-09 16:13:20.061,5,-2.0,0.17,2.0,-191.21779999999998,251.21099999999998,250.45919999999998,175,75
2026-05-09 16:13:20.063,2,-0.83,-0.63,1.77,-3.9184,-70.8374,-32.8154,175,75
2026-05-09 16:13:20.078,5,-2.0,-0.89,2.0,-118.1778,251.21099999999998,250.45919999999998,175,75
2026-05-09 16:13:20.078,1,0.24,0.75,1.47,96.8936,-5.811399999999999,-40.129,175,75
2026-05-09 16:13:20.078,2,-0.77,-0.58,1.63,-0.5083999999999991,-67.8474,-33.6054,175,75
2026-05-09 16:13:20.078,3,-0.45,-0.13,1.5,41.1224,5.5688,-24.165999999999997,175,75
2026-05-09 16:13:20.078,4,-1.63,-0.77,1.91,-2.2248,-27.183799999999998,-16.6106,175,75
2026-05-09 16:13:20.078,5,-2.0,-1.07,2.0,-91.2578,251.21099999999998,160.08919999999998,175,75
2026-05-09 16:13:20.091,1,0.21,0.71,1.38,127.38360000000002,-19.221400000000003,-52.569,175,75
2026-05-09 16:13:20.091,3,-0.24,0.05,1.73,14.782399999999999,-22.4812,-22.215999999999998,175,75
2026-05-09 16:13:20.091,4,-1.59,-0.63,1.93,-1.0047999999999995,-68.40379999999999,-24.5406,175,75
2026-05-09 16:13:20.091,5,-2.0,-1.5,2.0,-69.2478,251.21099999999998,-96.6508,175,75
2026-05-09 16:13:20.091,2,-0.71,-0.49,1.48,4.0716,-49.4274,-27.9954,175,75
2026-05-09 16:13:20.093,1,0.2,0.66,1.28,152.8636,-23.011400000000002,-63.239,175,75
2026-05-09 16:13:20.108,5,-2.0,-1.75,1.67,-20.6178,98.301,-249.8108,175,75
2026-05-09 16:13:20.108,2,-0.7,-0.43,1.39,9.9816,-17.297399999999996,-19.6454,175,75
2026-05-09 16:13:20.108,3,-0.25,-0.1,1.54,-12.7776,-69.4912,-22.455999999999996,175,75
2026-05-09 16:13:20.108,4,-1.55,-0.4,1.86,9.595200000000002,-79.9238,-17.590600000000002,175,75
2026-05-09 16:13:20.108,1,0.21,0.6,1.12,187.3236,-24.471400000000003,-79.089,175,75
2026-05-09 16:13:20.108,5,-2.0,-1.8,1.3,68.5422,-151.389,-249.8108,175,75
2026-05-09 16:13:20.116,2,-0.69,-0.37,1.37,15.9616,11.302600000000002,-11.6554,175,75
2026-05-09 16:13:20.116,1,0.16,0.58,1.04,209.9436,-24.711399999999998,-90.979,175,75
2026-05-09 16:13:20.116,4,-1.55,-0.21,1.74,24.0552,-46.2638,-0.15060000000000007,175,75
2026-05-09 16:13:20.126,5,-2.0,-1.53,1.3,167.12220000000002,-249.059,-249.8108,175,75
2026-05-09 16:13:20.126,1,0.1,0.55,0.97,232.4436,-14.6514,-104.51899999999999,175,75
2026-05-09 16:13:20.126,3,-0.15,-0.55,0.96,-23.087600000000002,-57.4212,-34.166,175,75
2026-05-09 16:13:20.138,5,-1.66,-0.89,1.49,237.15220000000002,-249.059,-249.8108,175,75
2026-05-09 16:13:20.138,1,0.07,0.51,0.99,258.6636,4.0686,-118.90899999999999,175,75
2026-05-09 16:13:20.138,2,-0.51,-0.16,1.5,25.901600000000002,12.582600000000003,-3.7954,175,75
2026-05-09 16:13:20.138,3,0.02,-0.65,0.92,-14.0576,-35.6512,-45.385999999999996,175,75
2026-05-09 16:13:20.138,4,-1.44,-0.08,1.74,37.5852,37.7562,21.679399999999998,175,75
2026-05-09 16:13:20.149,5,-0.85,0.13,1.6,251.0722,-249.059,-249.8108,175,75
2026-05-09 16:13:20.149,2,-0.5,-0.09,1.48,25.5916,-17.297399999999996,-3.7954,175,75
2026-05-09 16:13:20.149,3,0.27,-0.69,0.92,-10.2776,-24.2512,-52.396,175,75
2026-05-09 16:13:20.149,1,0.07,0.48,1.06,287.0136,20.648600000000002,-129.69899999999998,175,75
2026-05-09 16:13:20.149,4,-1.27,-0.07,1.8,40.6352,55.986200000000004,25.9494,175,75
2026-05-09 16:13:20.149,5,-0.18,0.56,1.32,251.0722,-249.059,-249.8108,175,75
2026-05-09 16:13:20.166,2,-0.5,-0.0,1.38,22.421599999999998,-54.7374,-8.1154,175,75
2026-05-09 16:13:20.166,1,0.06,0.43,1.15,311.1036,22.538600000000002,-135.85899999999998,175,75
2026-05-09 16:13:20.166,3,0.53,-0.64,0.96,-7.9576,-10.4012,-45.135999999999996,175,75
2026-05-09 16:13:20.166,5,0.37,1.03,0.89,248.12220000000002,-249.059,-249.8108,175,75
2026-05-09 16:13:20.166,4,-1.12,-0.05,1.85,43.9952,51.1762,25.7594,175,75
2026-05-09 16:13:20.176,4,-0.94,0.02,1.87,46.675200000000004,28.3662,23.999399999999998,175,75
2026-05-09 16:13:20.176,5,0.49,1.15,0.59,225.03220000000002,-249.059,-249.8108,175,75
2026-05-09 16:13:20.176,2,-0.53,0.05,1.24,18.8216,-83.0274,-12.3854,175,75
2026-05-09 16:13:20.176,1,0.08,0.37,1.22,334.2736,21.0186,-140.85899999999998,175,75
2026-05-09 16:13:20.182,5,0.82,1.14,0.38,189.50220000000002,-249.059,-249.8108,175,75
2026-05-09 16:13:20.182,3,0.79,-0.56,0.89,-8.447600000000001,-21.2012,-32.946,175,75
2026-05-09 16:13:20.198,5,1.63,0.95,0.1,164.6722,-249.059,-238.29080000000002,175,75
2026-05-09 16:13:20.198,4,-0.85,0.21,1.81,42.6452,-17.9138,17.3494,175,75
2026-05-09 16:13:20.198,2,-0.61,0.18,1.01,6.2616000000000005,-104.91739999999999,-18.7254,175,75
2026-05-09 16:13:20.198,1,0.13,0.21,1.21,366.3436,7.0586,-142.319,175,75
2026-05-09 16:13:20.208,5,2.0,0.91,-0.15,159.7322,-249.059,-108.6908,175,75
2026-05-09 16:13:20.208,1,0.13,0.12,1.17,375.9736,-3.311399999999999,-143.41899999999998,175,75
2026-05-09 16:13:20.208,4,-0.71,0.39,1.69,39.9052,-39.0738,6.8594,175,75
2026-05-09 16:13:20.208,3,0.8,-0.14,0.42,10.212399999999999,-19.8012,-11.355999999999998,175,75
2026-05-09 16:13:20.208,2,-0.64,0.28,0.9,-2.2083999999999993,-104.1274,-19.5854,175,75
2026-05-09 16:13:20.208,5,1.89,0.93,-0.11,138.6422,-154.31900000000002,-5.9108,175,75
2026-05-09 16:13:20.215,4,-0.55,0.59,1.57,38.925200000000004,-55.2938,6.1894,175,75
2026-05-09 16:13:20.215,2,-0.59,0.36,0.78,-6.3584,-104.4274,-17.9954,175,75
2026-05-09 16:13:20.228,5,1.0,0.71,0.05,103.6022,-42.888999999999996,35.3092,175,75
2026-05-09 16:13:20.228,1,0.04,-0.13,1.06,389.5736,-28.431399999999996,-145.249,175,75
2026-05-09 16:13:20.228,3,0.58,0.1,0.45,60.0824,4.4688,-0.20599999999999596,175,75
2026-05-09 16:13:20.228,4,-0.47,0.79,1.41,40.2052,-65.5938,6.4994000000000005,175,75
2026-05-09 16:13:20.228,5,0.47,0.51,0.09,77.4422,26.841,41.9692,175,75
2026-05-09 16:13:20.241,1,-0.04,-0.29,1.14,396.6536,-41.541399999999996,-151.589,175,75
2026-05-09 16:13:20.241,5,0.18,0.33,0.14,59.5422,73.541,35.9892,175,75
2026-05-09 16:13:20.254,4,-0.32,1.0,1.25,44.4752,-38.7038,11.1294,175,75
2026-05-09 16:13:20.254,5,0.05,0.17,0.12,50.9922,103.381,32.7992,175,75
2026-05-09 16:13:20.254,2,-0.6,0.57,0.59,-1.5383999999999993,-71.56739999999999,-13.3654,175,75
2026-05-09 16:13:20.254,3,0.39,0.3,0.55,166.85240000000002,96.2988,48.76400000000001,175,75
2026-05-09 16:13:20.268,5,-0.09,0.03,0.02,49.2522,115.171,38.8192,175,75
2026-05-09 16:13:20.268,2,-0.6,0.67,0.55,7.851600000000001,-45.6474,-8.4254,175,75
2026-05-09 16:13:20.268,4,-0.14,1.04,1.16,48.3852,-12.0638,17.1094,175,75
2026-05-09 16:13:20.268,5,-0.05,0.0,-0.04,55.8622,114.721,50.6392,175,75
2026-05-09 16:13:20.279,2,-0.58,0.74,0.53,17.721600000000002,-24.0674,-2.3853999999999997,175,75
2026-05-09 16:13:20.279,3,0.14,0.15,1.25,241.43240000000003,202.9488,78.15400000000001,175,75
2026-05-09 16:13:20.279,4,-0.08,1.02,1.13,47.3452,-5.5938,17.0394,175,75
2026-05-09 16:13:20.279,1,0.17,-0.98,1.49,410.4936,-155.0814,-159.209,175,75
2026-05-09 16:13:20.279,5,-0.07,0.01,-0.08,63.5422,113.271,74.4392,175,75
2026-05-09 16:13:20.292,3,-0.06,0.24,1.66,259.05240000000003,211.1188,99.43400000000001,175,75
2026-05-09 16:13:20.292,2,-0.54,0.79,0.53,25.8316,-3.3973999999999975,3.7046,175,75
2026-05-09 16:13:20.292,1,0.08,-1.11,1.55,395.1236,-187.0914,-165.559,175,75
2026-05-09 16:13:20.292,3,-0.12,0.2,1.85,261.6724,175.9388,113.764,175,75
2026-05-09 16:13:20.295,2,-0.53,0.81,0.57,30.4116,10.502600000000003,6.8146,175,75
2026-05-09 16:13:20.313,4,-0.05,1.06,1.15,42.5852,13.3662,19.4794,175,75
2026-05-09 16:13:20.313,3,0.09,0.38,1.97,261.49240000000003,113.7388,119.12400000000001,175,75
2026-05-09 16:13:20.313,2,-0.52,0.82,0.63,35.1616,20.382600000000004,8.464599999999999,175,75
2026-05-09 16:13:20.313,5,-0.11,-0.11,-0.16,75.8922,56.291000000000004,124.9692,175,75
2026-05-09 16:13:20.313,4,-0.06,1.13,1.22,45.4552,19.6462,25.339399999999998,175,75
2026-05-09 16:13:20.313,1,-0.11,-1.06,1.32,339.9436,-195.38139999999999,-172.569,175,75
2026-05-09 16:13:20.322,2,-0.47,0.8,0.7,41.3216,20.082600000000003,10.9046,175,75
2026-05-09 16:13:20.322,3,0.18,0.45,1.92,228.5624,59.3488,136.934,175,75
2026-05-09 16:13:20.322,5,-0.1,0.05,-0.4,77.9222,23.551,139.4492,175,75
2026-05-09 16:13:20.322,1,0.34,-0.83,0.72,317.2636,-179.9014,-161.959,175,75
2026-05-09 16:13:20.337,3,0.38,0.52,1.85,207.2824,-18.1512,135.164,175,75
2026-05-09 16:13:20.337,5,-0.03,-0.02,-0.56,79.4522,-13.339,154.8192,175,75
2026-05-09 16:13:20.337,2,-0.46,0.76,0.79,42.1216,-2.1173999999999964,9.624600000000001,175,75
2026-05-09 16:13:20.337,4,-0.05,0.93,1.31,56.2452,7.3962,33.5094,175,75
2026-05-09 16:13:20.337,1,-4.27,-0.02,-0.76,211.8936,-655.7514,-124.089,175,75
2026-05-09 16:13:20.347,3,0.27,0.71,1.73,203.7424,-71.2012,136.934,175,75
2026-05-09 16:13:20.347,5,0.05,-0.16,-0.76,83.6922,-52.778999999999996,171.5092,175,75
2026-05-09 16:13:20.347,2,-0.53,0.72,0.88,36.7516,-19.8574,11.6346,175,75
2026-05-09 16:13:20.347,1,-4.05,0.25,-2.83,164.9436,-395.9914,57.921,175,75
2026-05-09 16:13:20.347,4,-0.11,0.68,1.31,50.5752,-2.0638000000000005,28.0794,175,75
2026-05-09 16:13:20.359,5,0.36,-0.3,-0.92,90.5022,-77.289,183.70919999999998,175,75
2026-05-09 16:13:20.359,2,-0.53,0.66,0.96,32.9116,-16.867399999999996,16.3346,175,75
2026-05-09 16:13:20.359,3,-0.08,0.61,1.5,181.4924,-78.2112,171.01399999999998,175,75
2026-05-09 16:13:20.359,1,-4.03,-0.7,-5.93,20.3036,-483.8614,71.70100000000001,175,75
2026-05-09 16:13:20.359,4,-0.14,0.51,1.23,39.6652,4.3462,23.8694,175,75
2026-05-09 16:13:20.369,5,0.95,-0.45,-1.12,93.0422,-57.159,182.5992,175,75
2026-05-09 16:13:20.369,1,-8.75,-0.3,-8.28,-225.4864,-622.5813999999999,98.531,175,75
2026-05-09 16:13:20.369,2,-0.46,0.4,1.09,31.571600000000004,1.1726000000000028,16.944599999999998,175,75
2026-05-09 16:13:20.369,3,-0.12,0.08,1.3,154.7224,-115.1012,164.554,175,75
2026-05-09 16:13:20.369,5,1.12,-0.54,-0.95,95.4422,10.850999999999999,165.04919999999998,175,75
2026-05-09 16:13:20.380,4,-0.21,0.26,1.12,37.3452,22.516199999999998,19.7894,175,75
2026-05-09 16:13:20.380,1,3.34,0.19,-2.62,-238.1064,910.9586,492.13100000000003,175,75
2026-05-09 16:13:20.380,2,-0.49,-0.03,1.25,33.0916,21.4826,12.6746,175,75
2026-05-09 16:13:20.380,3,-0.37,-0.17,0.93,129.0524,-126.2612,139.004,175,75
2026-05-09 16:13:20.380,5,0.81,-0.56,-0.39,95.2722,88.031,157.6092,175,75
2026-05-09 16:13:20.380,4,-0.31,-0.23,0.99,41.4952,74.03620000000001,8.5094,175,75
2026-05-09 16:13:20.386,3,-0.36,-0.37,0.64,105.82239999999999,-117.6012,108.704,175,75
2026-05-09 16:13:20.386,1,-2.47,-3.13,2.27,-163.53640000000001,331.86859999999996,-95.619,175,75
2026-05-09 16:13:20.402,5,0.65,-0.71,0.13,98.7122,166.421,165.48919999999998,175,75
2026-05-09 16:13:20.402,3,-0.28,-0.44,0.31,77.5224,-95.53120000000001,74.98400000000001,175,75
2026-05-09 16:13:20.402,1,3.43,-0.17,1.97,-123.9564,508.2086,247.071,175,75
2026-05-09 16:13:20.402,5,0.76,-0.16,0.78,108.7122,251.21099999999998,151.79919999999998,175,75
2026-05-09 16:13:20.415,4,-0.56,-1.45,1.11,33.925200000000004,175.0762,-25.7606,175,75
2026-05-09 16:13:20.415,3,-0.18,-0.04,-0.04,37.1624,-15.9512,35.104,175,75
2026-05-09 16:13:20.415,5,0.34,0.7,0.57,44.3722,251.21099999999998,54.7792,175,75
2026-05-09 16:13:20.415,1,0.16,-1.7,2.81,-49.1464,96.01859999999999,10.051,175,75
2026-05-09 16:13:20.415,2,-0.91,-1.59,1.4,12.5416,-9.617399999999996,39.1346,175,75
2026-05-09 16:13:20.415,4,-0.83,-2.08,1.44,10.9452,185.0162,-29.6006,175,75
2026-05-09 16:13:20.427,3,-0.27,0.38,0.0,2.0424000000000007,93.85879999999999,22.974,175,75
2026-05-09 16:13:20.427,5,-0.05,0.4,1.32,8.6622,251.21099999999998,-115.8808,175,75
2026-05-09 16:13:20.427,1,0.05,0.25,1.68,-73.65639999999999,-221.54139999999998,5.971,175,75
2026-05-09 16:13:20.427,2,-0.98,-1.64,1.38,-2.878399999999999,-5.6473999999999975,34.5646,175,75
2026-05-09 16:13:20.427,4,-1.4,-2.34,1.84,-8.7548,139.8262,-23.0206,175,75
2026-05-09 16:13:20.427,3,-0.35,0.48,0.25,-36.9876,137.2188,-1.235999999999997,175,75
2026-05-09 16:13:20.439,5,-1.24,-0.15,2.0,35.8322,251.21099999999998,-249.8108,175,75
2026-05-09 16:13:20.439,1,-0.81,0.61,-0.21,-61.766400000000004,-181.85139999999998,-3.119,175,75
2026-05-09 16:13:20.439,2,-0.99,-1.27,1.42,-24.038400000000003,30.262600000000003,12.9146,175,75
2026-05-09 16:13:20.439,4,-2.26,-2.06,2.17,-26.4348,39.8962,-59.6006,175,75
2026-05-09 16:13:20.445,5,2.0,1.84,2.0,-42.3778,251.21099999999998,-249.8108,175,75
2026-05-09 16:13:20.445,3,0.05,0.32,0.99,-65.6476,61.6688,-111.54599999999999,175,75
2026-05-09 16:13:20.445,1,-1.55,0.3,-0.56,-33.836400000000005,-95.57140000000001,22.371,175,75
2026-05-09 16:13:20.445,2,-0.61,-0.93,1.59,-42.458400000000005,69.1626,7.5546,175,75
2026-05-09 16:13:20.453,5,0.22,1.65,2.0,-217.03779999999998,251.21099999999998,-249.8108,175,75
2026-05-09 16:13:20.453,4,-2.76,-1.41,2.3,-70.2148,-37.913799999999995,-164.1106,175,75
2026-05-09 16:13:20.453,3,0.53,0.54,1.26,-151.2576,48.3088,-148.736,175,75
2026-05-09 16:13:20.454,2,-0.33,-0.84,1.85,-66.8484,57.4626,32.794599999999996,175,75
2026-05-09 16:13:20.460,1,-0.87,-0.36,-0.37,3.1736,46.5086,15.241000000000001,175,75
2026-05-09 16:13:20.460,5,-0.52,0.91,2.0,-249.19779999999997,251.21099999999998,-249.8108,175,75
2026-05-09 16:13:20.471,4,-2.13,-1.0,2.54,-129.4248,-19.2538,-229.1806,175,75
2026-05-09 16:13:20.471,1,-0.86,-0.75,0.16,34.7636,123.45859999999999,-13.598999999999998,175,75
2026-05-09 16:13:20.471,3,0.65,0.75,1.25,-240.1576,-31.2612,-139.046,175,75
2026-05-09 16:13:20.471,2,-0.64,-1.01,2.09,-89.4084,0.2026000000000039,33.0346,175,75
2026-05-09 16:13:20.471,5,-1.9,-0.33,2.0,-247.0778,251.21099999999998,-249.8108,175,75
2026-05-09 16:13:20.471,4,-0.86,-0.61,2.85,-175.82479999999998,-5.8438,-116.61059999999999,175,75
2026-05-09 16:13:20.471,3,0.63,0.54,1.05,-289.6676,-106.6212,-150.686,175,75
2026-05-09 16:13:20.476,2,-0.85,-1.1,2.19,-93.4884,-21.687399999999997,5.9046,175,75
2026-05-09 16:13:20.476,1,-0.31,-0.66,0.76,36.2236,111.62859999999999,-20.489,175,75
2026-05-09 16:13:20.478,5,-2.0,-1.06,2.0,-129.1078,179.391,-117.7608,175,75
2026-05-09 16:13:20.485,4,-1.19,-0.5,2.67,-159.5448,-116.0238,-31.3106,175,75
2026-05-09 16:13:20.496,1,-0.34,-0.53,0.94,47.0136,109.12859999999999,-37.019,175,75
2026-05-09 16:13:20.496,3,-0.01,0.16,0.67,-359.5476,-174.6112,-182.57600000000002,175,75
2026-05-09 16:13:20.496,2,-0.96,-0.92,2.14,-92.5184,-32.8474,-17.1454,175,75
2026-05-09 16:13:20.496,5,-2.0,-0.95,2.0,-30.8278,29.241,192.6092,175,75
2026-05-09 16:13:20.496,1,-0.17,-0.58,1.16,49.2136,94.4986,-34.339,175,75
2026-05-09 16:13:20.496,3,0.16,0.11,0.53,-419.6076,-146.62120000000002,-200.136,175,75
2026-05-09 16:13:20.503,5,-2.0,-0.22,2.0,1.9622000000000002,-92.419,250.45919999999998,175,75
2026-05-09 16:13:20.503,4,-1.48,-0.89,2.33,-95.4648,-335.2338,-109.4806,175,75
2026-05-09 16:13:20.503,2,-0.86,-0.58,1.97,-80.5084,-31.017399999999995,-32.2054,175,75
2026-05-09 16:13:20.519,5,-2.0,0.31,2.0,-2.3977999999999997,-198.559,250.45919999999998,175,75
2026-05-09 16:13:20.519,1,-0.06,-0.74,1.36,50.6136,89.4986,-34.029,175,75
2026-05-09 16:13:20.519,3,-1.99,0.69,1.4,-388.69759999999997,108.7988,-147.946,175,75
2026-05-09 16:13:20.519,4,-1.64,-0.58,2.05,-104.5448,-299.68379999999996,-97.9606,175,75
2026-05-09 16:13:20.519,2,-0.59,-0.31,1.66,-61.1784,-21.5674,-9.7654,175,75
2026-05-09 16:13:20.529,5,-2.0,0.51,2.0,-9.767800000000001,-249.059,250.45919999999998,175,75
2026-05-09 16:13:20.529,3,-3.43,0.8,2.64,-295.3376,335.6888,-14.165999999999997,175,75
2026-05-09 16:13:20.529,4,-1.68,-0.1,1.7,-114.1848,-178.7038,-63.5006,175,75
2026-05-09 16:13:20.529,2,-0.59,-0.16,1.37,-43.7384,9.832600000000003,12.6746,175,75
2026-05-09 16:13:20.529,5,-1.61,0.44,2.0,-68.2778,-249.059,250.45919999999998,175,75
2026-05-09 16:13:20.540,3,-6.84,1.4,6.09,18.742399999999996,589.9588,330.654,175,75
2026-05-09 16:13:20.540,4,-1.4,0.44,1.44,-96.8648,-29.0738,-37.7706,175,75
2026-05-09 16:13:20.540,1,0.21,-0.54,1.6,41.953599999999994,90.95859999999999,-33.299,175,75
2026-05-09 16:13:20.540,2,-0.65,-0.07,1.19,-27.818400000000004,58.0726,15.4146,175,75
2026-05-09 16:13:20.541,5,-0.98,0.34,1.49,-163.93779999999998,-249.059,250.45919999999998,175,75
2026-05-09 16:13:20.547,3,-1.39,-5.42,8.24,278.8624,-644.0012,-237.39600000000002,175,75
2026-05-09 16:13:20.547,4,-1.01,0.82,1.53,-39.1148,87.2662,-0.7605999999999999,175,75
2026-05-09 16:13:20.558,5,0.25,-0.56,0.53,-231.24779999999998,-249.059,250.45919999999998,175,75
2026-05-09 16:13:20.558,1,0.22,-0.65,2.25,25.003600000000002,89.4986,-24.149,175,75
2026-05-09 16:13:20.558,3,-0.83,0.5,4.14,-256.1976,-20.4012,-345.93600000000004,175,75
2026-05-09 16:13:20.558,2,-0.47,0.23,1.18,20.221600000000002,170.3226,35.5946,175,75
2026-05-09 16:13:20.568,5,1.49,-0.76,-0.03,-225.28779999999998,-249.059,250.45919999999998,175,75
2026-05-09 16:13:20.568,4,-0.96,0.73,1.86,14.295200000000001,158.6762,23.749399999999998,175,75
2026-05-09 16:13:20.568,2,-0.33,0.32,1.31,31.6316,169.77259999999998,39.1346,175,75
2026-05-09 16:13:20.568,1,0.12,-0.31,2.33,3.4736,95.34859999999999,-8.849,175,75
2026-05-09 16:13:20.568,3,3.71,3.0,2.93,-272.8376,-357.0512,106.87400000000001,175,75
2026-05-09 16:13:20.578,5,2.0,-1.08,-0.93,-181.2978,-249.059,250.45919999999998,175,75
2026-05-09 16:13:20.578,4,-0.8,0.42,2.19,32.5852,157.93619999999999,18.3894,175,75
2026-05-09 16:13:20.578,1,-0.01,0.24,1.99,-16.0364,81.56859999999999,20.121,175,75
2026-05-09 16:13:20.578,5,2.0,-0.72,-1.88,-150.4578,-249.059,250.45919999999998,175,75
2026-05-09 16:13:20.592,4,-0.66,0.25,2.36,25.755200000000002,107.81619999999998,8.749400000000001,175,75
2026-05-09 16:13:20.592,2,-0.24,0.53,1.48,22.851599999999998,59.8926,34.1946,175,75
2026-05-09 16:13:20.592,3,-0.93,1.76,-1.02,-292.8376,-243.3312,-8.375999999999998,175,75
2026-05-09 16:13:20.592,4,-0.56,0.26,2.38,15.145199999999999,20.806199999999997,-6.4306,175,75
2026-05-09 16:13:20.603,1,-0.46,0.61,1.05,-60.4264,92.7286,44.510999999999996,175,75
2026-05-09 16:13:20.603,3,1.14,1.46,-1.48,-110.2776,55.1388,-54.226,175,75
2026-05-09 16:13:20.614,1,0.01,0.47,0.99,-100.3064,95.4686,66.941,175,75
2026-05-09 16:13:20.614,3,0.45,0.75,-0.12,49.7824,160.62879999999998,-57.946,175,75
2026-05-09 16:13:20.614,4,-0.32,0.6,1.92,12.225200000000001,-115.41380000000001,-25.820600000000002,175,75
2026-05-09 16:13:20.625,2,-0.35,0.85,0.96,13.761600000000001,-74.3074,29.3846,175,75
2026-05-09 16:13:20.625,1,0.11,0.39,1.29,-101.5864,51.4486,40.421,175,75
2026-05-09 16:13:20.625,5,-0.88,-0.2,0.08,-53.1778,-57.159,-204.53080000000003,175,75
2026-05-09 16:13:20.625,3,0.28,0.13,0.83,61.182399999999994,266.41880000000003,-47.766,175,75
2026-05-09 16:13:20.625,4,-0.3,0.71,1.7,14.665199999999999,-124.13380000000001,-25.2106,175,75
2026-05-09 16:13:20.637,5,-0.75,-0.19,-0.12,-25.1978,-72.079,-249.8108,175,75
2026-05-09 16:13:20.637,2,-0.34,0.99,0.84,21.6916,-76.50739999999999,27.7946,175,75
2026-05-09 16:13:20.637,3,0.33,-0.23,1.41,69.35239999999999,238.06879999999998,-50.93599999999999,175,75
2026-05-09 16:13:20.648,5,-0.58,-0.11,0.01,-3.6378,-78.54899999999999,-249.8108,175,75
2026-05-09 16:13:20.649,1,0.82,1.4,1.54,-28.0464,-31.3014,0.2410000000000001,175,75
2026-05-09 16:13:20.649,3,0.16,-0.34,1.81,64.11240000000001,190.8088,-38.306,175,75
2026-05-09 16:13:20.649,4,-0.27,0.89,1.4,16.1252,-64.4938,-13.8706,175,75
2026-05-09 16:13:20.660,5,-0.39,-0.03,-0.06,13.5822,-84.259,-249.8108,175,75
2026-05-09 16:13:20.660,2,-0.36,0.97,0.82,22.9116,-38.2774,32.0646,175,75
2026-05-09 16:13:20.660,3,0.14,-0.15,1.89,40.9424,136.78879999999998,-43.79599999999999,175,75
2026-05-09 16:13:20.660,1,1.1,1.61,1.58,13.293600000000001,-77.8814,-21.649,175,75
2026-05-09 16:13:20.660,5,-0.36,0.16,-0.13,20.9222,-89.699,-249.8108,175,75
2026-05-09 16:13:20.666,4,-0.23,0.88,1.38,17.095200000000002,-35.2938,-8.1406,175,75
2026-05-09 16:13:20.666,1,0.91,1.62,1.54,37.443599999999996,-180.20139999999998,-50.189,175,75
2026-05-09 16:13:20.666,3,0.33,0.37,1.42,21.4324,36.1188,-41.236,175,75
2026-05-09 16:13:20.676,5,-0.26,0.4,-0.26,11.0722,-98.369,-249.8108,175,75
2026-05-09 16:13:20.676,4,-0.18,0.79,1.42,18.5652,-28.8238,-5.3906,175,75
