Time,ID,Ax,Ay,Az,Gx,Gy,Gz,H,W
2026-05-07 18:24:24.595,4,-0.28,-0.01,1.16,6.9414,13.073200000000002,39.702799999999996,175,75
2026-05-07 18:24:24.595,1,0.1,-0.04,0.97,-3.588599999999998,1.9651999999999994,0.021199999999999886,175,75
2026-05-07 18:24:24.595,2,0.23,0.17,0.65,-39.7278,33.7596,32.2814,175,75
2026-05-07 18:24:24.595,5,-0.15,-0.07,1.06,7.9798,-2.6612,-18.5216,175,75
2026-05-07 18:24:24.607,3,-0.46,-1.16,0.33,9.605999999999998,-1.4114000000000004,-1.4948000000000015,175,75
2026-05-07 18:24:24.607,5,-0.13,-0.07,1.06,8.3098,-2.1612,-18.711599999999997,175,75
2026-05-07 18:24:24.607,2,0.24,0.16,0.65,-39.787800000000004,37.9096,34.1714,175,75
2026-05-07 18:24:24.607,4,-0.18,-0.09,1.12,6.4514,19.2932,44.4628,175,75
2026-05-07 18:24:24.617,2,0.23,0.15,0.65,-41.0078,42.839600000000004,35.2114,175,75
2026-05-07 18:24:24.617,5,-0.13,-0.07,1.06,8.4098,-1.4811999999999999,-19.351599999999998,175,75
2026-05-07 18:24:24.617,4,-0.17,-0.12,1.11,5.8414,22.883200000000002,45.6128,175,75
2026-05-07 18:24:24.634,5,-0.14,-0.06,1.06,8.5498,-0.45120000000000005,-20.1616,175,75
2026-05-07 18:24:24.634,1,0.09,-0.02,0.93,-1.7585999999999977,3.735199999999999,-0.16880000000000006,175,75
2026-05-07 18:24:24.634,2,0.24,0.16,0.67,-39.297799999999995,48.449600000000004,36.9214,175,75
2026-05-07 18:24:24.654,2,0.26,0.16,0.69,-36.437799999999996,47.5396,39.0514,175,75
2026-05-07 18:24:24.654,4,-0.11,-0.11,1.17,1.7013999999999996,39.2932,47.5728,175,75
2026-05-07 18:24:24.654,3,-0.49,-1.26,0.37,10.585999999999999,4.0786,0.02519999999999989,175,75
2026-05-07 18:24:24.654,5,-0.17,-0.0,1.09,8.319799999999999,1.9988000000000006,-21.441599999999998,175,75
2026-05-07 18:24:24.654,2,0.29,0.14,0.7,-36.8678,40.8896,41.981399999999994,175,75
2026-05-07 18:24:24.666,4,-0.1,-0.12,1.21,2.0013999999999994,41.1832,48.7228,175,75
2026-05-07 18:24:24.666,5,-0.18,0.02,1.1,7.2298,0.7088000000000001,-20.531599999999997,175,75
2026-05-07 18:24:24.666,3,-0.5,-1.22,0.39,6.985999999999997,2.1286000000000005,0.4551999999999996,175,75
2026-05-07 18:24:24.666,2,0.3,0.14,0.7,-38.567800000000005,36.3196,43.6914,175,75
2026-05-07 18:24:24.666,4,-0.11,-0.17,1.27,4.811399999999999,35.2632,48.4828,175,75
2026-05-07 18:24:24.666,5,-0.19,0.02,1.12,5.8598,-1.1611999999999998,-19.351599999999998,175,75
2026-05-07 18:24:24.677,3,-0.46,-1.19,0.37,4.785999999999998,-1.1714000000000002,0.5751999999999988,175,75
2026-05-07 18:24:24.677,2,0.32,0.13,0.68,-39.427800000000005,33.089600000000004,45.3914,175,75
2026-05-07 18:24:24.677,4,-0.1,-0.22,1.32,6.211399999999999,21.5432,45.8628,175,75
2026-05-07 18:24:24.677,5,-0.18,0.01,1.12,4.8798,-3.1712,-17.831599999999998,175,75
2026-05-07 18:24:24.686,2,0.35,0.11,0.67,-38.567800000000005,30.5896,47.2814,175,75
2026-05-07 18:24:24.686,4,-0.11,-0.24,1.34,4.9914,9.6532,43.782799999999995,175,75
2026-05-07 18:24:24.686,5,-0.17,0.0,1.11,5.1498,-3.4412,-16.4316,175,75
2026-05-07 18:24:24.699,1,0.1,-0.03,0.95,4.031400000000001,10.865199999999998,0.3812,175,75
2026-05-07 18:24:24.699,5,-0.17,-0.02,1.1,6.2798,-3.5711999999999997,-14.3916,175,75
2026-05-07 18:24:24.699,4,-0.11,-0.24,1.33,4.2614,-1.806799999999999,40.25279999999999,175,75
2026-05-07 18:24:24.699,2,0.37,0.09,0.67,-38.9978,29.9796,47.651399999999995,175,75
2026-05-07 18:24:24.699,3,-0.5,-1.19,0.31,5.035999999999998,9.1986,-0.0948000000000011,175,75
2026-05-07 18:24:24.714,5,-0.17,-0.03,1.1,7.0698,-3.2412,-13.5516,175,75
2026-05-07 18:24:24.714,1,0.1,-0.02,0.96,4.761400000000002,11.7152,-0.22880000000000011,175,75
2026-05-07 18:24:24.714,4,-0.08,-0.22,1.29,3.8313999999999995,-14.976799999999999,36.1028,175,75
2026-05-07 18:24:24.714,3,-0.52,-1.19,0.33,4.605999999999998,9.5686,-0.21480000000000032,175,75
2026-05-07 18:24:24.725,4,-0.08,-0.2,1.25,3.5913999999999997,-17.5368,34.9428,175,75
2026-05-07 18:24:24.725,2,0.41,0.07,0.65,-38.6278,27.9696,43.4414,175,75
2026-05-07 18:24:24.725,3,-0.52,-1.19,0.35,4.485999999999997,8.7686,-0.8248000000000015,175,75
2026-05-07 18:24:24.725,1,0.11,-0.03,0.97,4.521400000000002,11.655199999999999,-0.7188000000000001,175,75
2026-05-07 18:24:24.725,5,-0.18,-0.03,1.09,8.4098,-6.2912,-13.8916,175,75
2026-05-07 18:24:24.737,2,0.4,0.1,0.62,-38.2678,28.3296,41.4914,175,75
2026-05-07 18:24:24.737,4,-0.08,-0.2,1.21,2.8613999999999997,-9.246799999999999,34.5828,175,75
2026-05-07 18:24:24.737,5,-0.17,-0.01,1.08,8.719800000000001,-8.1512,-14.5416,175,75
2026-05-07 18:24:24.737,2,0.4,0.13,0.62,-38.2078,31.619600000000002,40.4514,175,75
2026-05-07 18:24:24.748,4,-0.08,-0.2,1.19,1.7013999999999996,3.3132,34.6428,175,75
2026-05-07 18:24:24.748,3,-0.51,-1.19,0.35,1.186,4.0786,0.6951999999999998,175,75
2026-05-07 18:24:24.748,1,0.14,-0.05,0.96,3.8514000000000017,9.7652,-1.2588000000000001,175,75
2026-05-07 18:24:24.748,5,-0.15,0.01,1.09,7.7898000000000005,-9.9512,-14.6916,175,75
2026-05-07 18:24:24.759,3,-0.52,-1.19,0.33,-0.2740000000000009,3.1586,1.4951999999999988,175,75
2026-05-07 18:24:24.759,4,-0.08,-0.19,1.19,-0.6186000000000003,14.533199999999999,35.312799999999996,175,75
2026-05-07 18:24:24.759,2,0.36,0.16,0.62,-37.6578,47.1696,39.231399999999994,175,75
2026-05-07 18:24:24.769,4,-0.09,-0.17,1.2,-2.6286,21.053200000000004,34.5828,175,75
2026-05-07 18:24:24.769,1,0.14,-0.06,0.97,3.671400000000002,9.095199999999998,-1.9988,175,75
2026-05-07 18:24:24.769,5,-0.12,0.01,1.1,3.3598,-9.5412,-14.7616,175,75
2026-05-07 18:24:24.769,2,0.35,0.16,0.65,-38.6278,49.8596,39.231399999999994,175,75
2026-05-07 18:24:24.783,3,-0.53,-1.2,0.3,-1.0640000000000018,5.9686,1.6751999999999985,175,75
2026-05-07 18:24:24.783,5,-0.12,-0.01,1.09,1.4898,-8.3212,-14.9316,175,75
2026-05-07 18:24:24.783,1,0.15,-0.06,0.95,2.631400000000001,7.2652,-1.9988,175,75
2026-05-07 18:24:24.783,4,-0.09,-0.13,1.21,-5.3186,18.193199999999997,34.2728,175,75
2026-05-07 18:24:24.783,2,0.35,0.16,0.66,-39.787800000000004,51.3196,39.721399999999996,175,75
2026-05-07 18:24:24.786,5,-0.12,-0.04,1.1,0.8198000000000001,-6.7512,-15.1316,175,75
2026-05-07 18:24:24.800,4,-0.07,-0.1,1.16,-9.0386,16.303200000000004,34.1528,175,75
2026-05-07 18:24:24.800,2,0.35,0.16,0.66,-41.797799999999995,51.8696,39.481399999999994,175,75
2026-05-07 18:24:24.800,3,-0.52,-1.19,0.21,0.21599999999999753,25.598599999999998,2.7151999999999994,175,75
2026-05-07 18:24:24.800,5,-0.13,-0.06,1.12,0.25980000000000003,-7.401199999999999,-15.301599999999999,175,75
2026-05-07 18:24:24.800,1,0.11,-0.05,0.99,0.5014000000000021,10.1352,-3.9488000000000003,175,75
2026-05-07 18:24:24.800,4,-0.07,-0.08,1.12,-11.7786,17.943199999999997,34.6428,175,75
2026-05-07 18:24:24.807,2,0.34,0.17,0.67,-44.4278,55.8896,39.3014,175,75
2026-05-07 18:24:24.807,5,-0.15,-0.1,1.13,1.1398000000000001,-10.5412,-16.321599999999997,175,75
2026-05-07 18:24:24.821,3,-0.46,-1.17,0.32,9.296,18.038600000000002,2.0451999999999995,175,75
2026-05-07 18:24:24.821,5,-0.15,-0.12,1.13,3.1197999999999997,-15.001199999999999,-17.6316,175,75
2026-05-07 18:24:24.821,1,0.11,-0.06,1.03,-4.558599999999998,5.745199999999999,-3.9488000000000003,175,75
2026-05-07 18:24:24.833,2,0.27,0.15,0.72,-45.5878,65.03960000000001,39.84139999999999,175,75
2026-05-07 18:24:24.833,5,-0.13,-0.13,1.13,5.2498000000000005,-19.581200000000003,-19.9516,175,75
2026-05-07 18:24:24.833,3,-0.48,-1.17,0.2,13.875999999999998,17.3686,3.7451999999999988,175,75
2026-05-07 18:24:24.833,1,0.11,-0.05,1.03,-8.278599999999997,4.215199999999999,-5.5888,175,75
2026-05-07 18:24:24.833,2,0.25,0.12,0.75,-45.2778,67.6596,39.971399999999996,175,75
2026-05-07 18:24:24.842,3,-0.49,-1.17,0.12,21.375999999999998,24.4386,5.7552,175,75
2026-05-07 18:24:24.842,1,0.13,-0.03,1.0,-9.628599999999999,2.8751999999999995,-5.5288,175,75
2026-05-07 18:24:24.855,5,-0.09,-0.12,1.11,7.409800000000001,-28.0412,-23.6816,175,75
2026-05-07 18:24:24.855,4,-0.03,0.01,0.97,-20.9286,54.2232,42.6928,175,75
2026-05-07 18:24:24.855,5,-0.05,-0.1,1.08,6.5598,-30.8212,-25.481599999999997,175,75
2026-05-07 18:24:24.866,2,0.14,0.12,0.8,-49.2978,71.0796,41.4314,175,75
2026-05-07 18:24:24.866,4,-0.04,0.05,0.95,-23.5486,60.75319999999999,43.422799999999995,175,75
2026-05-07 18:24:24.866,1,0.13,-0.03,0.93,-10.3586,3.3051999999999992,-6.7488,175,75
2026-05-07 18:24:24.866,3,-0.52,-1.24,0.05,44.236,53.528600000000004,6.1852,175,75
2026-05-07 18:24:24.866,5,-0.0,-0.11,1.05,4.6798,-28.421200000000002,-26.641599999999997,175,75
2026-05-07 18:24:24.866,2,0.11,0.11,0.79,-49.5478,71.86959999999999,44.0514,175,75
2026-05-07 18:24:24.876,4,-0.05,0.1,0.94,-24.7686,63.193200000000004,44.4628,175,75
2026-05-07 18:24:24.876,1,0.12,-0.05,0.93,-9.1386,5.315199999999999,-5.2888,175,75
2026-05-07 18:24:24.876,5,0.02,-0.12,1.05,3.3297999999999996,-22.0012,-27.801599999999997,175,75
2026-05-07 18:24:24.876,2,0.09,0.1,0.79,-47.4078,69.6096,47.041399999999996,175,75
2026-05-07 18:24:24.889,3,-0.49,-1.28,0.2,53.876,61.6986,4.905199999999999,175,75
2026-05-07 18:24:24.889,4,-0.09,0.13,0.92,-25.2486,60.3832,46.1628,175,75
2026-05-07 18:24:24.889,5,0.01,-0.15,1.04,2.5898000000000003,-15.4512,-30.9016,175,75
2026-05-07 18:24:24.889,3,-0.48,-1.26,0.34,54.546,57.2486,9.8452,175,75
2026-05-07 18:24:24.900,2,0.03,0.11,0.77,-42.1078,69.0596,50.09139999999999,175,75
2026-05-07 18:24:24.900,5,-0.01,-0.19,1.04,3.1997999999999998,-11.4412,-36.3816,175,75
2026-05-07 18:24:24.900,3,-0.5,-1.23,0.47,54.785999999999994,44.3186,13.445199999999998,175,75
2026-05-07 18:24:24.900,4,-0.15,0.16,0.87,-23.6086,55.75319999999999,49.3328,175,75
2026-05-07 18:24:24.910,1,0.09,-0.07,0.95,-8.038599999999999,8.485199999999999,-8.8188,175,75
2026-05-07 18:24:24.910,2,-0.05,0.11,0.76,-37.3478,74.11959999999999,55.0314,175,75
2026-05-07 18:24:24.910,5,-0.01,-0.23,1.03,5.2698,-8.2912,-42.3516,175,75
2026-05-07 18:24:24.910,3,-0.48,-1.18,0.5,51.126,22.5486,17.6552,175,75
2026-05-07 18:24:24.912,2,-0.09,0.11,0.77,-33.7578,73.9996,58.9314,175,75
2026-05-07 18:24:24.923,5,-0.03,-0.25,1.03,7.5698,-5.4712,-48.3016,175,75
2026-05-07 18:24:24.923,2,-0.08,0.08,0.79,-31.2578,67.3596,62.221399999999996,175,75
2026-05-07 18:24:24.934,5,-0.06,-0.26,1.02,9.719800000000001,-3.4212,-54.721599999999995,175,75
2026-05-07 18:24:24.934,3,-0.53,-1.18,0.32,48.50599999999999,-3.3613999999999997,24.475199999999994,175,75
2026-05-07 18:24:24.934,5,-0.09,-0.28,0.99,11.3298,-3.4812,-60.2616,175,75
2026-05-07 18:24:24.946,2,-0.09,0.03,0.78,-31.067800000000002,51.1396,63.9314,175,75
2026-05-07 18:24:24.946,4,0.05,0.12,0.75,-31.4086,76.5432,51.532799999999995,175,75
2026-05-07 18:24:24.946,3,-0.56,-1.17,0.2,48.876,3.7085999999999997,24.8452,175,75
2026-05-07 18:24:24.946,2,-0.15,0.0,0.73,-32.287800000000004,43.9396,63.3814,175,75
2026-05-07 18:24:24.958,4,0.07,0.11,0.72,-35.6186,78.8032,50.4928,175,75
2026-05-07 18:24:24.958,3,-0.63,-1.16,0.19,51.126,17.5486,23.685199999999995,175,75
2026-05-07 18:24:24.958,2,-0.26,-0.02,0.66,-34.297799999999995,43.0296,63.9914,175,75
2026-05-07 18:24:24.958,4,0.05,0.1,0.67,-40.7986,79.3532,50.5528,175,75
2026-05-07 18:24:24.974,5,-0.1,-0.22,0.94,10.559800000000001,1.2288000000000001,-76.7916,175,75
2026-05-07 18:24:24.974,3,-0.64,-1.07,0.27,52.046,30.418599999999998,21.3052,175,75
2026-05-07 18:24:24.974,5,-0.09,-0.23,0.94,10.1598,4.4488,-83.2616,175,75
2026-05-07 18:24:24.987,3,-0.63,-1.03,0.43,52.535999999999994,43.0386,20.6952,175,75
2026-05-07 18:24:24.987,4,0.02,0.01,0.58,-49.5786,90.0232,52.442800000000005,175,75
2026-05-07 18:24:24.987,5,-0.07,-0.26,0.97,13.1998,8.1988,-88.3816,175,75
2026-05-07 18:24:24.988,1,0.08,-0.04,0.94,-4.688599999999997,20.6852,-10.778799999999999,175,75
2026-05-07 18:24:24.998,2,-0.59,-0.1,0.46,-40.827799999999996,75.9496,74.97139999999999,175,75
2026-05-07 18:24:24.998,3,-0.59,-1.08,0.63,50.58599999999999,40.8486,17.5852,175,75
2026-05-07 18:24:24.998,1,0.07,-0.04,0.94,-4.808599999999998,21.6552,-11.5688,175,75
2026-05-07 18:24:24.998,4,0.0,-0.06,0.53,-52.748599999999996,93.4332,52.442800000000005,175,75
2026-05-07 18:24:24.998,5,-0.08,-0.28,1.0,19.619799999999998,13.638800000000002,-92.2916,175,75
2026-05-07 18:24:25.012,2,-0.6,-0.14,0.45,-41.797799999999995,87.5996,76.4914,175,75
2026-05-07 18:24:25.012,3,-0.49,-1.14,0.8,41.376,18.5886,15.945199999999998,175,75
2026-05-07 18:24:25.012,5,-0.13,-0.26,1.05,26.7398,17.0388,-96.39160000000001,175,75
2026-05-07 18:24:25.012,3,-0.46,-1.17,0.78,28.686,-3.3013999999999992,18.0152,175,75
2026-05-07 18:24:25.012,2,-0.57,-0.2,0.5,-44.3678,99.2496,78.56139999999999,175,75
2026-05-07 18:24:25.016,5,-0.18,-0.23,1.1,31.549799999999998,17.758799999999997,-99.3516,175,75
2026-05-07 18:24:25.030,1,0.15,-0.07,0.88,-2.5485999999999986,22.205199999999998,-13.3988,175,75
2026-05-07 18:24:25.030,4,-0.01,-0.14,0.47,-60.3786,107.9432,52.2628,175,75
2026-05-07 18:24:25.030,2,-0.57,-0.25,0.48,-48.8778,94.3696,84.0514,175,75
2026-05-07 18:24:25.030,3,-0.53,-1.19,0.55,18.875999999999998,-18.851399999999998,19.4752,175,75
2026-05-07 18:24:25.030,5,-0.23,-0.19,1.14,35.8998,17.648799999999998,-102.5116,175,75
2026-05-07 18:24:25.030,1,0.16,-0.06,0.88,0.7414000000000023,22.5752,-13.948799999999999,175,75
2026-05-07 18:24:25.030,4,0.04,-0.18,0.44,-66.1686,121.7932,51.4728,175,75
2026-05-07 18:24:25.032,3,-0.64,-1.14,0.36,16.495999999999995,-11.9614,19.2952,175,75
2026-05-07 18:24:25.040,5,-0.28,-0.14,1.21,37.9798,15.138800000000002,-104.0116,175,75
2026-05-07 18:24:25.045,1,0.16,-0.05,0.87,4.091400000000002,21.9652,-14.678799999999999,175,75
2026-05-07 18:24:25.045,4,0.07,-0.25,0.42,-68.2386,131.66320000000002,50.25279999999999,175,75
2026-05-07 18:24:25.049,3,-0.67,-1.13,0.28,18.506,-0.1313999999999993,20.755200000000002,175,75
2026-05-07 18:24:25.049,2,-0.69,-0.29,0.36,-62.0478,76.1396,96.73140000000001,175,75
2026-05-07 18:24:25.049,4,0.09,-0.33,0.42,-68.1786,140.75320000000002,47.0828,175,75
2026-05-07 18:24:25.067,3,-0.59,-1.21,0.25,20.336,-1.5313999999999997,16.7952,175,75
2026-05-07 18:24:25.067,5,-0.35,-0.07,1.3,39.169799999999995,-0.33119999999999994,-104.08160000000001,175,75
2026-05-07 18:24:25.067,2,-0.74,-0.37,0.3,-70.2178,76.9296,104.66139999999999,175,75
2026-05-07 18:24:25.067,2,-0.78,-0.47,0.26,-78.8178,94.7296,115.1514,175,75
2026-05-07 18:24:25.067,5,-0.35,-0.05,1.29,38.949799999999996,-11.3612,-102.1216,175,75
2026-05-07 18:24:25.079,3,-0.63,-1.12,0.28,22.046,21.9386,16.435200000000002,175,75
2026-05-07 18:24:25.079,4,0.05,-0.53,0.47,-75.9286,160.81320000000002,30.372799999999998,175,75
2026-05-07 18:24:25.094,5,-0.34,-0.0,1.27,37.0698,-29.0212,-95.53160000000001,175,75
2026-05-07 18:24:25.094,2,-0.75,-0.72,0.29,-90.2178,145.4696,136.7314,175,75
2026-05-07 18:24:25.094,4,0.04,-0.69,0.44,-81.40859999999999,164.7132,12.8128,175,75
2026-05-07 18:24:25.104,5,-0.32,0.02,1.29,35.169799999999995,-38.321200000000005,-92.7616,175,75
2026-05-07 18:24:25.104,3,-0.53,-1.12,0.71,17.656,16.6386,15.2752,175,75
2026-05-07 18:24:25.104,2,-0.73,-0.79,0.35,-95.1578,153.5796,146.1914,175,75
2026-05-07 18:24:25.104,4,0.08,-0.85,0.4,-83.8486,155.5732,-0.7271999999999998,175,75
2026-05-07 18:24:25.104,1,0.12,0.02,0.89,38.6114,-3.7048000000000023,-11.258799999999999,175,75
2026-05-07 18:24:25.117,4,0.1,-0.93,0.37,-91.3486,151.85320000000002,-8.897200000000002,175,75
2026-05-07 18:24:25.117,3,-0.54,-1.1,0.68,4.295999999999999,12.7986,12.9552,175,75
2026-05-07 18:24:25.123,2,-0.5,-0.87,0.43,-106.1878,107.53960000000001,144.4214,175,75
2026-05-07 18:24:25.125,5,-0.27,0.01,1.11,44.2998,-58.431200000000004,-75.7916,175,75
2026-05-07 18:24:25.136,1,0.17,-0.09,0.71,54.2214,-0.4748000000000019,-21.3188,175,75
2026-05-07 18:24:25.136,4,0.08,-1.05,0.31,-115.7986,164.47320000000002,-37.3672,175,75
2026-05-07 18:24:25.136,3,-0.64,-1.07,0.66,-2.0440000000000023,10.8486,17.955199999999998,175,75
2026-05-07 18:24:25.136,5,-0.23,0.06,1.13,48.9398,-61.3812,-76.0616,175,75
2026-05-07 18:24:25.148,2,-0.39,-0.9,0.36,-115.0978,69.4896,140.7614,175,75
2026-05-07 18:24:25.148,3,-0.71,-1.12,0.56,-6.854000000000001,-0.9814000000000007,14.905199999999999,175,75
2026-05-07 18:24:25.148,2,-0.39,-0.87,0.26,-123.6278,56.0796,142.8914,175,75
2026-05-07 18:24:25.148,5,-0.19,0.12,1.15,49.7198,-60.611200000000004,-77.28160000000001,175,75
2026-05-07 18:24:25.160,1,0.23,-0.1,0.7,75.9214,25.495199999999997,-31.3288,175,75
2026-05-07 18:24:25.160,2,-0.47,-0.82,0.14,-134.7278,57.5996,147.1614,175,75
2026-05-07 18:24:25.160,5,-0.13,0.15,1.14,47.629799999999996,-58.1212,-75.5216,175,75
2026-05-07 18:24:25.178,2,-0.5,-0.86,0.01,-152.0478,114.0596,152.5314,175,75
2026-05-07 18:24:25.178,5,-0.09,0.2,1.12,43.129799999999996,-57.2712,-62.721599999999995,175,75
2026-05-07 18:24:25.178,1,0.29,-0.15,0.71,96.04140000000001,55.5652,-40.6488,175,75
2026-05-07 18:24:25.191,3,-0.79,-1.18,0.51,-9.724000000000002,27.1286,4.1751999999999985,175,75
2026-05-07 18:24:25.191,2,-0.49,-0.93,0.04,-158.81779999999998,173.5096,157.8914,175,75
2026-05-07 18:24:25.191,5,-0.08,0.23,1.08,40.169799999999995,-58.1912,-59.1616,175,75
2026-05-07 18:24:25.191,1,0.33,-0.17,0.69,95.9214,64.0352,-39.2488,175,75
2026-05-07 18:24:25.202,3,-0.74,-1.18,0.54,-13.994000000000002,17.6786,-2.2248,175,75
2026-05-07 18:24:25.202,5,-0.09,0.27,1.06,35.9798,-59.0412,-60.791599999999995,175,75
2026-05-07 18:24:25.203,4,-0.3,-1.25,0.41,-212.5686,234.8332,-99.25720000000001,175,75
2026-05-07 18:24:25.203,2,-0.46,-0.97,0.14,-163.62779999999998,222.9696,159.3614,175,75
2026-05-07 18:24:25.203,3,-0.68,-1.1,0.48,-18.814,13.5286,3.4452,175,75
2026-05-07 18:24:25.208,5,-0.08,0.36,1.06,30.2598,-61.8912,-66.2416,175,75
2026-05-07 18:24:25.208,4,-0.43,-1.31,0.37,-233.9686,241.5432,-99.25720000000001,175,75
2026-05-07 18:24:25.221,1,0.11,-0.17,0.53,72.0814,124.4052,-41.6288,175,75
2026-05-07 18:24:25.221,5,-0.02,0.36,1.01,22.2698,-66.0712,-70.58160000000001,175,75
2026-05-07 18:24:25.221,3,-0.71,-1.16,0.35,-16.984,15.9086,2.895199999999999,175,75
2026-05-07 18:24:25.221,4,-0.5,-1.43,0.35,-245.6786,259.3532,-95.7872,175,75
2026-05-07 18:24:25.221,2,-0.31,-0.96,0.42,-172.95780000000002,261.68960000000004,150.3314,175,75
2026-05-07 18:24:25.234,5,0.07,0.37,0.96,15.8798,-68.9312,-69.1616,175,75
2026-05-07 18:24:25.234,1,0.1,-0.16,0.67,51.1114,159.21519999999998,-33.8288,175,75
2026-05-07 18:24:25.234,4,-0.6,-1.54,0.29,-255.4386,265.9332,-88.4672,175,75
2026-05-07 18:24:25.234,2,-0.2,-0.92,0.6,-187.1078,226.4996,142.7714,175,75
2026-05-07 18:24:25.246,5,0.13,0.35,0.9,8.319799999999999,-66.60119999999999,-64.00160000000001,175,75
2026-05-07 18:24:25.247,1,0.03,-0.12,0.86,36.9014,161.04520000000002,-23.3388,175,75
2026-05-07 18:24:25.247,4,-0.78,-1.67,0.25,-258.4286,291.7232,-79.50720000000001,175,75
2026-05-07 18:24:25.247,5,0.21,0.31,0.86,2.2498,-56.5912,-59.3516,175,75
2026-05-07 18:24:25.247,2,-0.09,-0.93,0.63,-198.87779999999998,203.5796,140.5114,175,75
2026-05-07 18:24:25.257,1,-0.32,-0.04,0.03,-20.7786,113.6752,-14.428799999999999,175,75
2026-05-07 18:24:25.257,3,-0.76,-1.2,0.24,8.206,51.5786,-9.174800000000001,175,75
2026-05-07 18:24:25.257,4,-0.67,-1.87,0.29,-252.6286,338.0732,-82.55720000000001,175,75
2026-05-07 18:24:25.268,2,0.0,-0.92,0.6,-204.1778,194.0596,137.0414,175,75
2026-05-07 18:24:25.268,4,-0.56,-2.04,0.4,-249.8286,343.8632,-85.41720000000001,175,75
2026-05-07 18:24:25.268,5,0.32,0.21,0.8,6.2498000000000005,-20.101200000000002,-46.971599999999995,175,75
2026-05-07 18:24:25.268,1,-0.76,-0.31,-0.97,-109.98859999999999,225.8052,20.2012,175,75
2026-05-07 18:24:25.279,2,0.08,-0.87,0.62,-202.2278,197.1696,130.3914,175,75
2026-05-07 18:24:25.279,3,-0.56,-1.17,0.6,15.215999999999998,70.2986,-14.174800000000001,175,75
2026-05-07 18:24:25.279,5,0.35,0.19,0.86,9.979800000000001,4.168800000000001,-36.221599999999995,175,75
2026-05-07 18:24:25.279,4,-0.58,-2.16,0.51,-252.1386,317.64320000000004,-79.50720000000001,175,75
2026-05-07 18:24:25.290,1,-0.48,-0.58,-0.55,-120.29860000000001,288.3052,34.8312,175,75
2026-05-07 18:24:25.290,2,0.09,-0.8,0.62,-198.32780000000002,199.9796,122.7114,175,75
2026-05-07 18:24:25.290,4,-0.7,-2.13,0.56,-255.79860000000002,278.8632,-75.2372,175,75
2026-05-07 18:24:25.290,1,-0.21,-0.64,-0.34,-142.9186,313.4852,33.611200000000004,175,75
2026-05-07 18:24:25.305,5,0.16,0.14,0.92,3.1197999999999997,47.3288,-29.941599999999998,175,75
2026-05-07 18:24:25.305,3,-0.55,-1.12,0.65,1.6759999999999984,55.5386,-10.584800000000001,175,75
2026-05-07 18:24:25.305,2,0.09,-0.74,0.64,-197.83780000000002,199.4896,114.23140000000001,175,75
2026-05-07 18:24:25.305,4,-1.01,-1.93,0.54,-254.5786,232.03320000000002,-84.1372,175,75
2026-05-07 18:24:25.305,2,0.07,-0.65,0.65,-197.83780000000002,199.3096,108.32140000000001,175,75
2026-05-07 18:24:25.305,5,0.05,0.11,0.94,-0.49019999999999997,63.5188,-37.541599999999995,175,75
2026-05-07 18:24:25.315,4,-1.28,-1.72,0.48,-245.8586,202.7032,-110.6072,175,75
2026-05-07 18:24:25.315,2,0.09,-0.56,0.64,-194.9078,196.8096,103.50139999999999,175,75
2026-05-07 18:24:25.315,5,-0.05,0.1,0.97,-3.8902,74.8088,-45.471599999999995,175,75
2026-05-07 18:24:25.326,1,-0.26,-1.3,-0.5,-200.5386,403.6752,26.851200000000002,175,75
2026-05-07 18:24:25.326,3,-0.56,-1.11,0.42,-1.854000000000001,42.2486,-5.394800000000001,175,75
2026-05-07 18:24:25.326,4,-1.36,-1.56,0.38,-230.0686,191.85320000000002,-156.0272,175,75
2026-05-07 18:24:25.326,1,-0.43,-1.69,-0.16,-231.3886,427.6352,26.2412,175,75
2026-05-07 18:24:25.326,5,-0.13,0.1,0.99,-8.280199999999999,81.47879999999999,-50.3116,175,75
2026-05-07 18:24:25.336,3,-0.73,-1.12,0.14,3.8759999999999977,57.1886,-4.724800000000001,175,75
2026-05-07 18:24:25.336,4,-1.22,-1.44,0.37,-217.0186,198.0732,-189.8672,175,75
2026-05-07 18:24:25.336,1,-0.19,-2.05,0.52,-267.30859999999996,425.0752,26.2412,175,75
2026-05-07 18:24:25.336,5,-0.2,0.1,0.99,-12.9902,84.5488,-52.9616,175,75
2026-05-07 18:24:25.348,3,-0.69,-1.17,0.06,18.756,82.6186,-4.174800000000001,175,75
2026-05-07 18:24:25.348,5,-0.36,0.1,0.97,-17.610200000000003,81.83879999999999,-55.3716,175,75
2026-05-07 18:24:25.348,4,-0.8,-1.23,0.5,-216.7786,204.10320000000002,-183.5872,175,75
2026-05-07 18:24:25.348,2,0.07,-0.5,0.64,-168.62779999999998,229.6696,94.23140000000001,175,75
2026-05-07 18:24:25.348,3,-0.71,-1.19,0.19,28.016,96.93860000000001,-2.774800000000001,175,75
2026-05-07 18:24:25.367,5,-0.52,0.13,0.99,-21.430200000000003,70.5788,-68.33160000000001,175,75
2026-05-07 18:24:25.367,4,-0.48,-0.73,0.57,-240.1886,176.1832,-65.8472,175,75
2026-05-07 18:24:25.367,5,-0.56,0.16,1.04,-19.9902,53.2888,-85.0216,175,75
2026-05-07 18:24:25.367,2,-0.01,-0.55,0.72,-159.4278,266.6196,89.8414,175,75
2026-05-07 18:24:25.373,1,0.82,-2.01,0.54,-382.24859999999995,122.0252,-10.0388,175,75
2026-05-07 18:24:25.373,4,-0.83,-0.56,0.4,-219.2786,178.6132,-38.227199999999996,175,75
2026-05-07 18:24:25.373,3,-0.63,-1.18,0.55,36.556,77.0086,1.9151999999999987,175,75
2026-05-07 18:24:25.388,2,-0.04,-0.48,0.88,-145.2178,282.2996,83.69139999999999,175,75
2026-05-07 18:24:25.388,1,0.7,-1.81,0.17,-390.9686,66.65520000000001,-15.4088,175,75
2026-05-07 18:24:25.388,5,-0.36,0.27,1.26,-3.7001999999999997,14.4288,-88.05160000000001,175,75
2026-05-07 18:24:25.388,1,0.68,-1.75,0.15,-384.86859999999996,68.5452,-19.1288,175,75
2026-05-07 18:24:25.401,4,-0.66,-0.53,0.39,-149.7686,208.5532,-35.66720000000001,175,75
2026-05-07 18:24:25.401,3,-0.7,-1.11,0.61,24.906,35.7886,7.9552,175,75
2026-05-07 18:24:25.401,5,-0.3,0.29,1.31,-1.3002,4.9588,-68.8416,175,75
2026-05-07 18:24:25.401,1,0.56,-1.56,0.51,-374.6886,71.4752,-17.1188,175,75
2026-05-07 18:24:25.401,2,0.38,-0.35,1.29,-119.2978,204.3696,51.731399999999994,175,75
2026-05-07 18:24:25.403,4,-0.71,-0.42,0.47,-145.1886,239.9632,-10.9072,175,75
2026-05-07 18:24:25.416,2,0.56,-0.26,1.39,-125.3378,123.0896,50.3314,175,75
2026-05-07 18:24:25.416,3,-0.77,-1.12,0.59,15.885999999999996,19.3186,3.1351999999999993,175,75
2026-05-07 18:24:25.416,5,-0.34,0.19,1.29,-4.4502,-4.3512,-30.2516,175,75
2026-05-07 18:24:25.429,1,0.31,-0.89,1.08,-371.5786,19.7652,-22.6688,175,75
2026-05-07 18:24:25.429,2,0.53,-0.06,1.3,-147.1678,-11.9104,58.691399999999994,175,75
2026-05-07 18:24:25.429,5,-0.33,0.12,1.29,-2.6902,-10.9312,-18.2916,175,75
2026-05-07 18:24:25.429,4,-0.73,-0.18,0.69,-127.5086,256.8532,-7.557200000000002,175,75
2026-05-07 18:24:25.442,2,0.43,0.05,1.13,-161.7978,-95.0804,62.041399999999996,175,75
2026-05-07 18:24:25.442,1,0.17,-0.61,1.02,-365.9686,-21.934800000000003,-17.968799999999998,175,75
2026-05-07 18:24:25.442,3,-0.78,-1.14,0.42,11.555999999999997,26.5786,-2.774800000000001,175,75
2026-05-07 18:24:25.442,2,0.31,0.12,0.81,-172.3478,-156.3604,59.7814,175,75
2026-05-07 18:24:25.454,5,-0.26,0.06,1.29,9.3298,-20.3712,-11.6516,175,75
2026-05-07 18:24:25.454,1,0.1,-0.47,0.66,-360.35859999999997,-16.5148,-16.6288,175,75
2026-05-07 18:24:25.454,2,0.22,0.14,0.62,-175.33780000000002,-161.6104,55.761399999999995,175,75
2026-05-07 18:24:25.454,5,-0.22,0.07,1.26,16.3898,-23.281200000000002,-12.6016,175,75
2026-05-07 18:24:25.466,1,0.1,-0.37,0.44,-350.7786,18.0652,-14.558799999999998,175,75
2026-05-07 18:24:25.466,4,-0.78,0.14,0.8,-74.3986,203.9832,17.6928,175,75
2026-05-07 18:24:25.466,2,0.17,0.16,0.44,-172.3478,-124.59039999999999,47.4114,175,75
2026-05-07 18:24:25.476,1,0.1,-0.28,0.4,-329.80859999999996,71.0452,-14.428799999999999,175,75
2026-05-07 18:24:25.476,4,-0.71,0.15,0.81,-63.968599999999995,185.50320000000002,20.552799999999998,175,75
2026-05-07 18:24:25.476,2,0.11,0.25,0.3,-153.68779999999998,-33.6204,42.041399999999996,175,75
2026-05-07 18:24:25.476,5,-0.16,0.14,1.2,16.8798,-29.4312,-20.511599999999998,175,75
2026-05-07 18:24:25.476,1,0.14,-0.22,0.59,-300.35859999999997,129.46519999999998,-15.2288,175,75
2026-05-07 18:24:25.482,4,-0.7,0.13,0.81,-59.3386,175.63320000000002,18.8528,175,75
2026-05-07 18:24:25.483,2,0.09,0.32,0.27,-134.7878,42.7196,38.8114,175,75
2026-05-07 18:24:25.483,3,-0.64,-1.2,0.47,11.555999999999997,17.3086,-5.274800000000001,175,75
2026-05-07 18:24:25.494,5,-0.11,0.16,1.17,13.059800000000001,-31.1612,-24.7016,175,75
2026-05-07 18:24:25.494,2,0.12,0.36,0.34,-120.3378,111.6896,35.2714,175,75
2026-05-07 18:24:25.494,1,0.25,-0.17,0.89,-270.7186,160.8052,-20.3488,175,75
2026-05-07 18:24:25.494,5,-0.08,0.14,1.12,8.4098,-28.0412,-27.691599999999998,175,75
2026-05-07 18:24:25.508,3,-0.76,-1.1,0.28,9.845999999999997,14.688600000000001,-2.8348000000000013,175,75
2026-05-07 18:24:25.508,1,0.32,-0.1,0.99,-254.9286,165.6252,-26.5088,175,75
2026-05-07 18:24:25.508,4,-0.71,0.18,0.92,-50.318599999999996,158.9232,12.572799999999999,175,75
2026-05-07 18:24:25.508,2,0.15,0.43,0.49,-108.3878,179.3096,28.441399999999998,175,75
2026-05-07 18:24:25.508,5,-0.12,0.11,1.04,5.2598,-23.831200000000003,-31.971599999999995,175,75
2026-05-07 18:24:25.508,3,-0.8,-1.04,0.38,14.605999999999998,31.2686,-5.274800000000001,175,75
2026-05-07 18:24:25.517,1,0.38,-0.03,0.98,-237.42860000000002,171.29520000000002,-34.6188,175,75
2026-05-07 18:24:25.517,4,-0.77,0.27,0.99,-48.5486,142.15320000000003,11.352799999999998,175,75
2026-05-07 18:24:25.517,2,0.18,0.48,0.61,-99.6678,206.2596,22.771399999999996,175,75
2026-05-07 18:24:25.517,5,-0.17,0.09,0.97,6.3998,-25.6412,-37.8516,175,75
2026-05-07 18:24:25.523,1,0.37,0.08,0.99,-214.4386,176.78519999999997,-40.7188,175,75
2026-05-07 18:24:25.528,4,-0.75,0.38,1.03,-46.2286,131.1832,12.872799999999998,175,75
2026-05-07 18:24:25.528,5,-0.17,0.11,0.95,8.1698,-31.7712,-43.9216,175,75
2026-05-07 18:24:25.538,5,-0.14,0.13,0.96,6.5298,-37.3312,-45.9116,175,75
2026-05-07 18:24:25.538,3,-0.71,-1.12,0.54,6.315999999999999,4.6886,-5.214800000000001,175,75
2026-05-07 18:24:25.538,2,0.24,0.49,0.82,-77.5378,202.4196,15.211399999999998,175,75
2026-05-07 18:24:25.545,2,0.22,0.46,0.86,-70.2178,191.9296,12.161399999999997,175,75
2026-05-07 18:24:25.560,2,0.22,0.45,0.89,-62.897800000000004,178.4496,8.081399999999999,175,75
2026-05-07 18:24:25.560,1,0.31,0.37,1.39,-155.23860000000002,162.1452,-53.1488,175,75
2026-05-07 18:24:25.560,3,-0.69,-1.15,0.43,4.905999999999999,-0.011400000000000077,-6.134800000000001,175,75
2026-05-07 18:24:25.560,4,-0.61,0.37,0.96,-19.7686,97.2132,9.762799999999999,175,75
2026-05-07 18:24:25.580,1,0.24,0.47,1.4,-125.90859999999999,121.5952,-58.0888,175,75
2026-05-07 18:24:25.580,5,0.07,0.19,0.93,2.8498,-40.001200000000004,-53.6916,175,75
2026-05-07 18:24:25.580,2,0.28,0.52,0.96,-47.9578,127.1096,1.9213999999999984,175,75
2026-05-07 18:24:25.580,4,-0.55,0.23,0.94,-14.338600000000001,104.7132,-2.4272000000000027,175,75
2026-05-07 18:24:25.596,5,0.11,0.21,0.93,3.9798,-31.8412,-52.3516,175,75
2026-05-07 18:24:25.596,3,-0.56,-1.21,0.34,14.665999999999997,-8.0614,-1.0048000000000012,175,75
2026-05-07 18:24:25.596,1,0.18,0.54,1.37,-110.1686,108.7952,-61.2588,175,75
2026-05-07 18:24:25.597,4,-0.64,0.26,0.99,-15.1286,100.3832,-7.737200000000001,175,75
2026-05-07 18:24:25.597,2,0.32,0.62,0.96,-39.9778,86.6896,2.531399999999998,175,75
2026-05-07 18:24:25.597,5,0.08,0.19,0.88,5.949800000000001,-18.9712,-53.611599999999996,175,75
2026-05-07 18:24:25.605,1,0.14,0.59,1.44,-92.3086,102.0252,-61.7488,175,75
2026-05-07 18:24:25.605,3,-0.84,-1.06,0.2,17.595999999999997,2.9786,2.3451999999999984,175,75
2026-05-07 18:24:25.605,4,-0.69,0.33,1.07,-17.508599999999998,99.4132,-6.5172000000000025,175,75
2026-05-07 18:24:25.606,2,0.39,0.68,0.91,-31.4378,39.4296,3.9913999999999987,175,75
2026-05-07 18:24:25.606,5,0.0,0.18,0.82,9.7898,-7.3512,-57.7816,175,75
2026-05-07 18:24:25.611,3,-0.78,-1.02,0.36,25.586,19.1386,1.9151999999999987,175,75
2026-05-07 18:24:25.611,1,0.1,0.6,1.55,-76.7586,90.62519999999999,-60.9588,175,75
2026-05-07 18:24:25.621,4,-0.63,0.38,1.2,-18.668599999999998,73.25319999999999,-0.7872000000000021,175,75
2026-05-07 18:24:25.621,3,-0.66,-1.06,0.58,22.836,7.4286,0.5151999999999983,175,75
2026-05-07 18:24:25.634,5,-0.07,0.26,0.86,16.7698,-1.6411999999999998,-63.8816,175,75
2026-05-07 18:24:25.635,1,0.05,0.65,1.68,-44.9286,51.0452,-57.6688,175,75
2026-05-07 18:24:25.635,3,-0.64,-1.1,0.57,15.155999999999999,-10.0114,3.2651999999999983,175,75
2026-05-07 18:24:25.635,4,-0.57,0.33,1.22,-16.8386,45.6332,-0.1772000000000027,175,75
2026-05-07 18:24:25.635,2,0.35,0.68,0.64,-11.6178,-36.4904,-2.048600000000004,175,75
2026-05-07 18:24:25.635,5,-0.04,0.31,0.91,12.9098,-1.7611999999999999,-62.9416,175,75
2026-05-07 18:24:25.652,2,0.31,0.69,0.55,-7.7178,-37.6404,-4.358600000000003,175,75
2026-05-07 18:24:25.652,5,-0.02,0.35,0.96,7.0098,-0.7611999999999997,-59.4516,175,75
2026-05-07 18:24:25.652,4,-0.48,0.25,1.12,-19.2186,-1.6867999999999999,-12.427200000000003,175,75
2026-05-07 18:24:25.665,5,-0.01,0.36,0.98,2.3898,0.6488,-52.9216,175,75
2026-05-07 18:24:25.665,3,-0.66,-1.18,0.44,19.606,-17.571399999999997,7.835199999999999,175,75
2026-05-07 18:24:25.665,2,0.31,0.69,0.49,-2.4078,-32.0304,-6.498600000000003,175,75
2026-05-07 18:24:25.665,4,-0.46,0.27,1.07,-19.5186,-0.8967999999999989,-13.5872,175,75
2026-05-07 18:24:25.676,3,-0.59,-1.2,0.38,23.756,-22.9914,9.2952,175,75
2026-05-07 18:24:25.676,1,-0.08,0.78,1.76,19.9514,-4.434799999999999,-43.0288,175,75
2026-05-07 18:24:25.676,2,0.33,0.69,0.41,2.3422,-28.3804,-9.5486,175,75
2026-05-07 18:24:25.676,1,-0.13,0.81,1.78,43.1814,-15.294800000000002,-38.7588,175,75
2026-05-07 18:24:25.680,4,-0.44,0.28,1.04,-18.6086,13.3132,-9.5672,175,75
2026-05-07 18:24:25.680,3,-0.75,-1.09,0.24,29.485999999999997,-22.2014,13.5052,175,75
2026-05-07 18:24:25.694,5,-0.07,0.3,0.93,2.6898,-6.0312,-15.8316,175,75
2026-05-07 18:24:25.694,4,-0.39,0.26,1.04,-16.1086,32.9432,-4.197200000000002,175,75
2026-05-07 18:24:25.694,2,0.32,0.64,0.29,14.232199999999999,6.0796,-16.558600000000006,175,75
2026-05-07 18:24:25.694,1,-0.24,0.79,1.95,93.48140000000001,-38.7048,-22.1188,175,75
2026-05-07 18:24:25.704,5,-0.12,0.27,0.88,3.9598000000000004,-13.101199999999999,1.9184,175,75
2026-05-07 18:24:25.704,4,-0.34,0.23,1.08,-13.4886,43.3132,1.8327999999999989,175,75
2026-05-07 18:24:25.704,3,-0.65,-1.02,0.52,41.495999999999995,4.6886,6.975199999999999,175,75
2026-05-07 18:24:25.704,5,-0.12,0.28,0.87,4.949800000000001,-21.3012,13.6084,175,75
2026-05-07 18:24:25.716,2,0.31,0.62,0.28,17.772199999999998,34.979600000000005,-19.358600000000003,175,75
2026-05-07 18:24:25.716,3,-0.63,-1.04,0.63,37.955999999999996,-3.3613999999999997,9.905199999999999,175,75
2026-05-07 18:24:25.716,2,0.32,0.62,0.29,19.3522,59.7996,-22.108600000000003,175,75
2026-05-07 18:24:25.716,1,-0.36,0.75,2.16,131.7214,-72.9748,-2.7288000000000006,175,75
2026-05-07 18:24:25.728,4,-0.3,0.19,1.21,-14.0386,52.093199999999996,9.822799999999999,175,75
2026-05-07 18:24:25.728,1,-0.38,0.7,2.24,150.3714,-96.7548,6.0512,175,75
2026-05-07 18:24:25.728,5,-0.01,0.29,0.87,1.6298000000000001,-20.8712,24.1584,175,75
2026-05-07 18:24:25.728,2,0.33,0.65,0.36,21.9122,87.1696,-23.0786,175,75
2026-05-07 18:24:25.743,2,0.35,0.65,0.42,25.882199999999997,95.2796,-25.028600000000004,175,75
2026-05-07 18:24:25.743,3,-0.58,-1.16,0.68,32.226,-24.7014,16.6152,175,75
2026-05-07 18:24:25.743,1,-0.36,0.65,2.22,178.2414,-123.95479999999999,15.7512,175,75
2026-05-07 18:24:25.743,3,-0.55,-1.17,0.67,30.586,-35.4914,21.065199999999997,175,75
2026-05-07 18:24:25.752,2,0.36,0.62,0.49,30.212200000000003,88.8796,-27.348600000000005,175,75
2026-05-07 18:24:25.752,5,0.02,0.31,0.88,-2.3701999999999996,-3.3411999999999997,22.108400000000003,175,75
2026-05-07 18:24:25.752,4,-0.27,0.17,1.33,-9.3986,30.5732,7.992799999999999,175,75
2026-05-07 18:24:25.752,1,-0.36,0.58,2.21,206.29139999999998,-138.40480000000002,24.531200000000002,175,75
2026-05-07 18:24:25.752,3,-0.51,-1.25,0.61,31.616,-62.45139999999999,25.635199999999998,175,75
2026-05-07 18:24:25.754,4,-0.23,0.15,1.36,-5.858600000000001,12.7032,5.982799999999999,175,75
2026-05-07 18:24:25.771,3,-0.65,-1.16,0.41,33.506,-75.8014,30.1552,175,75
2026-05-07 18:24:25.771,5,-0.08,0.23,0.84,-8.0002,13.4188,15.3584,175,75
2026-05-07 18:24:25.771,4,-0.23,0.11,1.37,-2.4486000000000003,-13.6368,4.702799999999998,175,75
2026-05-07 18:24:25.771,2,0.42,0.58,0.57,32.102199999999996,42.1696,-31.738600000000005,175,75
2026-05-07 18:24:25.771,1,-0.38,0.52,2.11,250.1914,-164.1948,40.8112,175,75
2026-05-07 18:24:25.784,5,-0.12,0.19,0.81,-8.7502,13.748800000000001,17.198400000000003,175,75
2026-05-07 18:24:25.784,1,-0.45,0.52,2.06,278.00140000000005,-173.03480000000002,53.0012,175,75
2026-05-07 18:24:25.784,5,-0.15,0.2,0.81,-8.4302,6.678800000000001,20.428400000000003,175,75
2026-05-07 18:24:25.795,4,-0.33,0.08,1.27,6.0314,-55.4668,11.4728,175,75
2026-05-07 18:24:25.795,3,-0.88,-0.93,0.26,42.775999999999996,-56.17139999999999,27.285199999999996,175,75
2026-05-07 18:24:25.795,2,0.53,0.49,0.45,37.5922,-3.1304,-48.9386,175,75
2026-05-07 18:24:25.795,1,-0.52,0.53,2.17,311.2914,-170.2948,63.4912,175,75
2026-05-07 18:24:25.795,5,-0.15,0.21,0.82,-10.0802,-2.9911999999999996,22.418400000000002,175,75
2026-05-07 18:24:25.805,3,-0.61,-0.93,0.31,50.455999999999996,-36.041399999999996,23.995199999999997,175,75
2026-05-07 18:24:25.805,5,-0.17,0.23,0.8,-13.440199999999999,-10.4012,18.018400000000003,175,75
2026-05-07 18:24:25.824,5,-0.13,0.23,0.81,-13.6602,-16.0712,10.1384,175,75
2026-05-07 18:24:25.824,1,-0.62,0.38,2.14,363.4214,-198.70479999999998,76.8512,175,75
2026-05-07 18:24:25.824,3,-0.51,-1.08,0.64,51.376,-22.3814,30.1552,175,75
2026-05-07 18:24:25.824,4,-0.31,-0.06,1.09,30.6014,-13.3368,21.892799999999998,175,75
2026-05-07 18:24:25.824,2,0.17,0.62,0.22,46.7922,88.1496,-78.93860000000001,175,75
2026-05-07 18:24:25.836,1,-0.67,0.13,2.04,384.70140000000004,-209.13479999999998,76.3012,175,75
2026-05-07 18:24:25.836,4,-0.27,-0.14,1.12,37.0614,22.583199999999998,25.1928,175,75
2026-05-07 18:24:25.836,3,-0.66,-1.05,0.72,52.166000000000004,-9.5814,36.615199999999994,175,75
2026-05-07 18:24:25.836,5,0.05,0.25,0.9,-26.1202,-10.1512,16.1084,175,75
2026-05-07 18:24:25.836,4,-0.25,-0.2,1.18,44.4414,52.8232,27.7528,175,75
2026-05-07 18:24:25.847,2,0.02,0.79,0.32,50.0222,170.2796,-67.95859999999999,175,75
2026-05-07 18:24:25.847,1,-0.7,-0.1,1.93,404.3414,-209.1948,71.6612,175,75
2026-05-07 18:24:25.847,3,-0.67,-1.1,0.69,48.266,-26.2314,32.3452,175,75
2026-05-07 18:24:25.847,5,0.05,0.18,0.89,-35.0402,2.2887999999999997,30.0484,175,75
2026-05-07 18:24:25.847,4,-0.21,-0.25,1.3,54.2014,77.1532,29.462799999999998,175,75
2026-05-07 18:24:25.860,5,-0.0,0.13,0.87,-38.8902,13.6488,46.4184,175,75
2026-05-07 18:24:25.860,4,-0.16,-0.3,1.41,64.6214,82.0332,29.3928,175,75
2026-05-07 18:24:25.860,2,0.51,0.62,0.76,51.9822,241.8096,-47.168600000000005,175,75
2026-05-07 18:24:25.875,5,-0.07,0.11,0.88,-39.3402,21.6888,58.4184,175,75
2026-05-07 18:24:25.876,4,-0.14,-0.33,1.48,75.1114,68.1332,25.372799999999998,175,75
2026-05-07 18:24:25.876,1,-0.75,-0.67,1.45,448.6714,-188.34480000000002,48.9812,175,75
2026-05-07 18:24:25.876,2,0.74,0.44,0.92,63.9922,180.9496,-51.558600000000006,175,75
2026-05-07 18:24:25.876,3,-0.83,-0.94,0.52,65.58599999999998,-5.1914,23.685199999999995,175,75
2026-05-07 18:24:25.883,5,-0.13,0.14,0.97,-38.9302,25.6288,61.4484,175,75
2026-05-07 18:24:25.883,4,-0.13,-0.39,1.5,87.4314,43.6132,20.9228,175,75
2026-05-07 18:24:25.883,2,0.77,0.34,0.94,77.0422,114.7996,-58.388600000000004,175,75
2026-05-07 18:24:25.883,3,-0.75,-1.01,0.65,66.436,-0.9814000000000007,20.9452,175,75
2026-05-07 18:24:25.898,1,-0.84,-0.93,1.03,466.5914,-145.0448,35.9912,175,75
2026-05-07 18:24:25.898,5,-0.15,0.19,1.07,-40.0002,23.738799999999998,56.5784,175,75
2026-05-07 18:24:25.898,4,-0.17,-0.44,1.46,101.5114,16.7232,20.4928,175,75
2026-05-07 18:24:25.909,5,-0.14,0.23,1.19,-42.5402,16.6588,49.1184,175,75
2026-05-07 18:24:25.909,3,-0.79,-1.04,0.69,60.705999999999996,-9.1514,21.1252,175,75
2026-05-07 18:24:25.909,1,-0.95,-1.0,0.71,473.8514,-112.9148,36.4812,175,75
2026-05-07 18:24:25.909,2,0.62,0.26,0.75,83.9922,74.6696,-72.4086,175,75
2026-05-07 18:24:25.909,2,0.47,0.3,0.59,79.6622,91.3796,-80.39860000000002,175,75
2026-05-07 18:24:25.909,4,-0.21,-0.46,1.44,109.6814,9.1032,22.2028,175,75
2026-05-07 18:24:25.909,5,-0.18,0.23,1.24,-46.6102,10.578800000000001,35.318400000000004,175,75
2026-05-07 18:24:25.919,4,-0.23,-0.46,1.42,118.0414,-0.3468,28.7228,175,75
2026-05-07 18:24:25.919,5,-0.29,0.18,1.18,-47.4202,8.998800000000001,11.8684,175,75
2026-05-07 18:24:25.919,1,-0.6,-1.26,-0.4,456.9014,-13.8248,39.5312,175,75
2026-05-07 18:24:25.931,3,-0.65,-0.99,0.82,54.666000000000004,-14.951400000000001,21.675199999999997,175,75
2026-05-07 18:24:25.931,2,0.17,0.51,0.43,70.76219999999999,245.8296,-77.71860000000001,175,75
2026-05-07 18:24:25.931,4,-0.23,-0.44,1.44,125.23140000000001,-5.646799999999999,35.9828,175,75
2026-05-07 18:24:25.931,5,-0.51,0.19,1.04,-43.1402,4.838800000000001,-24.2716,175,75
2026-05-07 18:24:25.944,2,0.18,0.52,0.58,78.9322,340.4696,-68.3886,175,75
2026-05-07 18:24:25.944,3,-0.57,-0.92,0.75,39.666,-27.261399999999995,37.465199999999996,175,75
2026-05-07 18:24:25.944,5,-0.66,0.29,0.95,-34.6702,-8.3512,-76.5916,175,75
2026-05-07 18:24:25.944,4,-0.11,-0.45,1.43,134.8114,-15.5268,45.6828,175,75
2026-05-07 18:24:25.944,1,-0.36,-1.56,-1.28,407.57140000000004,84.4652,22.4612,175,75
2026-05-07 18:24:25.944,4,0.01,-0.51,1.4,145.9014,-26.3868,49.1528,175,75
2026-05-07 18:24:25.954,5,-0.62,0.4,0.92,-22.090200000000003,-37.5312,-123.5716,175,75
2026-05-07 18:24:25.954,3,-0.66,-0.93,0.78,37.716,-20.681399999999996,42.7752,175,75
2026-05-07 18:24:25.954,5,-0.49,0.6,0.92,-15.2002,-74.0812,-138.48160000000001,175,75
2026-05-07 18:24:25.968,2,0.49,0.46,1.19,99.2322,421.9296,-54.2386,175,75
2026-05-07 18:24:25.968,3,-0.58,-0.95,0.84,31.555999999999997,-24.031399999999998,50.6352,175,75
2026-05-07 18:24:25.968,1,-1.51,-1.22,-1.4,315.19140000000004,114.7052,45.0212,175,75
2026-05-07 18:24:25.968,5,-0.1,0.55,1.03,-6.5702,-119.4512,-118.17160000000001,175,75
2026-05-07 18:24:25.968,4,0.18,-0.72,1.27,177.1814,-35.0968,49.8828,175,75
2026-05-07 18:24:25.978,2,0.65,0.49,1.51,103.9922,395.5296,-45.08860000000001,175,75
2026-05-07 18:24:25.979,3,-0.74,-0.91,0.87,31.125999999999998,-35.6214,49.2352,175,75
2026-05-07 18:24:25.979,1,6.94,-15.05,-5.75,-365.41859999999997,-698.8948,374.8312,175,75
2026-05-07 18:24:25.979,5,1.26,0.64,1.6,-22.000200000000003,-221.8012,83.8384,175,75
2026-05-07 18:24:25.994,4,0.09,-0.77,1.21,189.0114,-25.586799999999997,51.282799999999995,175,75
2026-05-07 18:24:25.994,5,1.18,0.19,1.23,-46.3402,-221.0312,250.8884,175,75
2026-05-07 18:24:25.994,2,0.77,0.53,1.87,91.0022,267.2996,-22.958600000000004,175,75
2026-05-07 18:24:25.994,4,-0.12,-0.79,1.23,192.6714,-13.396799999999999,47.9928,175,75
2026-05-07 18:24:25.994,3,-1.13,-1.11,0.65,19.976,-35.2514,24.115199999999994,175,75
2026-05-07 18:24:25.994,5,1.14,-0.19,0.98,-43.050200000000004,-115.1112,250.8884,175,75
2026-05-07 18:24:26.007,2,0.88,0.53,1.97,83.6822,174.9196,-8.568600000000004,175,75
2026-05-07 18:24:26.007,4,-0.33,-0.68,1.36,185.7214,-5.2867999999999995,62.142799999999994,175,75
2026-05-07 18:24:26.007,3,-1.05,-0.75,0.35,25.216,-28.0614,35.755199999999995,175,75
2026-05-07 18:24:26.007,1,4.94,11.07,3.79,-217.1886,264.3452,-104.0088,175,75
2026-05-07 18:24:26.007,5,1.05,0.61,0.94,-34.6402,-4.2412,250.8884,175,75
2026-05-07 18:24:26.016,2,1.07,0.6,2.02,95.6322,47.4796,8.561399999999999,175,75
2026-05-07 18:24:26.016,4,-0.35,-0.47,1.5,175.9614,-10.896799999999999,71.9628,175,75
2026-05-07 18:24:26.016,3,-0.69,-0.84,0.6,35.216,-8.1214,35.755199999999995,175,75
2026-05-07 18:24:26.016,5,0.56,-0.26,0.56,-16.1702,71.5688,250.8884,175,75
2026-05-07 18:24:26.016,1,1.05,2.09,6.73,-439.1986,-64.5048,109.2812,175,75
2026-05-07 18:24:26.027,2,1.15,0.41,1.96,114.6022,-49.9604,18.8114,175,75
2026-05-07 18:24:26.027,4,-0.05,-0.23,1.59,172.9814,-59.6768,71.2828,175,75
2026-05-07 18:24:26.027,5,-0.24,0.07,0.58,-4.2501999999999995,127.3888,250.8884,175,75
2026-05-07 18:24:26.027,3,-0.46,-0.8,1.06,34.236,5.538600000000001,51.365199999999994,175,75
2026-05-07 18:24:26.027,1,-0.78,-2.35,2.84,-169.1986,-718.1548,-161.74880000000002,175,75
2026-05-07 18:24:26.041,2,1.15,0.09,1.78,128.0122,-134.5304,24.231399999999997,175,75
2026-05-07 18:24:26.041,3,-0.26,-1.04,1.44,12.405999999999999,-14.951400000000001,67.10520000000001,175,75
2026-05-07 18:24:26.041,4,0.17,-0.32,1.51,195.9614,-121.8668,62.442800000000005,175,75
2026-05-07 18:24:26.041,1,-3.1,0.32,-1.06,-108.6486,-782.7948,-200.1088,175,75
2026-05-07 18:24:26.054,5,-1.45,0.36,0.93,8.4598,182.5288,88.9084,175,75
2026-05-07 18:24:26.054,2,1.08,-0.16,1.52,140.9422,-199.9604,22.221399999999996,175,75
2026-05-07 18:24:26.054,3,-0.36,-1.06,1.4,-17.164,-54.0314,81.9752,175,75
2026-05-07 18:24:26.054,4,0.23,-0.72,1.3,217.3714,-136.2568,56.22279999999999,175,75
2026-05-07 18:24:26.054,5,-1.07,0.28,1.43,34.4698,129.7188,-160.6316,175,75
2026-05-07 18:24:26.065,1,-1.59,-0.34,-3.44,-165.5386,-40.0448,58.5512,175,75
2026-05-07 18:24:26.065,2,0.99,-0.23,1.27,153.0722,-221.7904,11.251399999999997,175,75
2026-05-07 18:24:26.065,3,-0.72,-0.77,1.03,-33.684,-61.1014,88.07520000000001,175,75
2026-05-07 18:24:26.065,1,-0.02,0.95,-2.2,-12.9786,215.6252,72.2112,175,75
2026-05-07 18:24:26.065,5,-0.12,0.34,1.75,26.5598,108.5188,-249.3816,175,75
2026-05-07 18:24:26.065,2,0.99,-0.21,1.01,167.3422,-207.3404,-8.568600000000004,175,75
2026-05-07 18:24:26.076,3,-0.78,-0.79,0.85,-32.404,-59.5214,83.2552,175,75
2026-05-07 18:24:26.076,4,0.17,-1.06,1.1,196.0314,-51.3868,57.9328,175,75
2026-05-07 18:24:26.076,5,0.43,0.4,1.97,-5.3302,61.0088,-175.2216,175,75
2026-05-07 18:24:26.076,1,0.71,-0.23,-0.39,65.4414,398.1252,112.1512,175,75
2026-05-07 18:24:26.088,2,1.02,-0.17,0.79,176.85219999999998,-173.6804,-24.608600000000003,175,75
2026-05-07 18:24:26.088,3,-0.93,-0.95,0.65,-29.354,-54.7014,76.5552,175,75
2026-05-07 18:24:26.088,5,0.3,0.28,1.68,-24.720200000000002,23.6588,-37.541599999999995,175,75
2026-05-07 18:24:26.088,2,0.96,-0.18,0.68,181.37220000000002,-142.0304,-34.848600000000005,175,75
2026-05-07 18:24:26.088,1,0.84,-0.75,1.78,35.501400000000004,330.3752,74.5312,175,75
2026-05-07 18:24:26.100,3,-1.07,-1.06,0.46,-25.764000000000003,-33.9114,71.9752,175,75
2026-05-07 18:24:26.100,4,0.02,-0.89,1.25,154.5614,56.6032,76.3528,175,75
2026-05-07 18:24:26.100,5,-0.03,0.11,1.39,-24.2802,46.9388,44.2384,175,75
2026-05-07 18:24:26.100,1,0.17,-0.61,3.01,-2.248599999999998,170.4952,34.1012,175,75
2026-05-07 18:24:26.106,3,-1.19,-0.99,0.48,-19.904000000000003,-11.1014,67.9552,175,75
2026-05-07 18:24:26.106,4,0.0,-0.75,1.41,145.66140000000001,68.86319999999999,85.2528,175,75
2026-05-07 18:24:26.106,5,-0.22,0.09,1.3,-23.310200000000002,67.1288,110.2984,175,75
2026-05-07 18:24:26.122,1,-0.1,-0.13,2.02,-131.20860000000002,-89.2548,-11.508799999999999,175,75
2026-05-07 18:24:26.122,5,-0.47,0.16,1.28,-37.2802,51.248799999999996,193.7784,175,75
2026-05-07 18:24:26.122,3,-1.08,-0.98,0.69,-16.314,-11.841399999999998,62.895199999999996,175,75
2026-05-07 18:24:26.122,4,0.0,-0.63,1.54,142.2514,50.9332,88.1128,175,75
2026-05-07 18:24:26.122,2,0.95,-0.3,0.63,192.16219999999998,-70.3904,-56.678599999999996,175,75
2026-05-07 18:24:26.133,2,0.99,-0.26,0.71,193.3822,-58.620400000000004,-63.0186,175,75
2026-05-07 18:24:26.133,4,0.02,-0.59,1.57,146.9414,28.313200000000002,85.6728,175,75
2026-05-07 18:24:26.133,3,-1.14,-0.8,0.76,-30.154000000000003,-32.4514,67.65520000000001,175,75
2026-05-07 18:24:26.133,5,-0.71,0.14,1.22,-58.1102,11.2888,250.8884,175,75
2026-05-07 18:24:26.133,1,0.1,0.07,0.47,-150.3586,-103.2848,-30.4688,175,75
2026-05-07 18:24:26.133,4,0.02,-0.57,1.57,156.6414,1.3632000000000009,80.4328,175,75
2026-05-07 18:24:26.144,5,-0.69,-0.03,1.14,-73.8502,-27.581200000000003,250.8884,175,75
2026-05-07 18:24:26.144,4,-0.03,-0.55,1.53,165.8414,-23.1468,73.4828,175,75
2026-05-07 18:24:26.144,3,-1.18,-0.61,0.75,-58.814,-77.5114,89.90520000000001,175,75
2026-05-07 18:24:26.144,2,0.99,-0.3,0.74,188.74220000000003,-107.2204,-65.8886,175,75
2026-05-07 18:24:26.154,5,-0.53,-0.18,1.13,-80.0702,-59.251200000000004,250.8884,175,75
2026-05-07 18:24:26.154,1,0.06,0.1,0.56,-134.3186,-54.8048,-38.888799999999996,175,75
2026-05-07 18:24:26.154,3,-1.29,-0.72,0.65,-75.274,-104.5214,96.9752,175,75
2026-05-07 18:24:26.154,4,-0.09,-0.51,1.47,172.6114,-42.7868,66.3528,175,75
2026-05-07 18:24:26.155,5,-0.45,-0.28,1.22,-77.9602,-94.7512,250.8884,175,75
2026-05-07 18:24:26.166,2,0.93,-0.3,0.7,174.9022,-140.6904,-69.7886,175,75
2026-05-07 18:24:26.166,1,-0.07,0.26,0.65,-138.5886,-73.2848,-43.3988,175,75
2026-05-07 18:24:26.166,3,-1.19,-0.9,0.58,-74.23400000000001,-113.4814,93.74520000000001,175,75
2026-05-07 18:24:26.166,5,-0.55,-0.37,1.4,-75.5002,-150.2712,250.8884,175,75
2026-05-07 18:24:26.166,2,0.88,-0.22,0.63,165.7022,-150.2704,-74.7886,175,75
2026-05-07 18:24:26.169,4,-0.1,-0.41,1.42,174.7514,-53.9468,61.532799999999995,175,75
2026-05-07 18:24:26.182,3,-0.97,-0.89,0.68,-75.57400000000001,-105.6814,94.4752,175,75
2026-05-07 18:24:26.182,5,-0.39,-0.5,1.44,-74.3002,-191.1312,250.8884,175,75
2026-05-07 18:24:26.182,2,0.85,-0.15,0.59,159.60219999999998,-149.8404,-80.45859999999999,175,75
2026-05-07 18:24:26.182,1,-0.1,0.2,0.58,-134.5686,-68.0348,-40.4088,175,75
2026-05-07 18:24:26.194,1,-0.1,0.19,0.34,-123.4686,-52.424800000000005,-46.7488,175,75
2026-05-07 18:24:26.194,5,-0.14,-0.63,1.29,-64.3702,-177.6112,250.8884,175,75
2026-05-07 18:24:26.194,3,-0.89,-0.94,0.84,-77.594,-115.8614,92.04520000000001,175,75
2026-05-07 18:24:26.194,2,0.86,-0.14,0.55,156.12220000000002,-145.5104,-86.55860000000001,175,75
2026-05-07 18:24:26.194,4,-0.1,-0.26,1.38,176.4514,-75.7768,56.47279999999999,175,75
2026-05-07 18:24:26.204,5,-0.09,-0.66,1.1,-42.6502,-128.9312,206.23839999999998,175,75
2026-05-07 18:24:26.204,1,0.18,0.12,0.27,-95.2986,-17.424799999999998,-39.7388,175,75
2026-05-07 18:24:26.204,3,-0.76,-1.01,0.78,-78.874,-122.87140000000001,80.3952,175,75
2026-05-07 18:24:26.204,4,-0.12,-0.22,1.38,175.5414,-83.0868,55.4928,175,75
2026-05-07 18:24:26.204,5,-0.12,-0.59,0.94,-16.5102,-81.3812,109.27839999999999,175,75
2026-05-07 18:24:26.216,2,0.84,-0.2,0.51,155.7622,-135.1404,-95.9486,175,75
2026-05-07 18:24:26.216,2,0.77,-0.22,0.47,157.5222,-121.4904,-103.5686,175,75
2026-05-07 18:24:26.227,1,0.4,0.12,0.61,-79.8086,-15.2348,-47.9688,175,75
2026-05-07 18:24:26.227,3,-0.61,-0.88,0.74,-65.154,-91.7814,68.4452,175,75
2026-05-07 18:24:26.227,2,0.7,-0.2,0.41,162.10219999999998,-101.2404,-111.3786,175,75
2026-05-07 18:24:26.227,5,0.06,-0.26,0.87,17.3798,-16.9612,-53.901599999999995,175,75
2026-05-07 18:24:26.238,4,-0.15,-0.14,1.36,170.6014,-79.3068,62.142799999999994,175,75
2026-05-07 18:24:26.238,1,0.39,0.11,0.42,-82.9786,-20.6548,-63.5188,175,75
2026-05-07 18:24:26.238,3,-0.5,-0.95,0.82,-55.454,-72.9914,57.16519999999999,175,75
2026-05-07 18:24:26.238,2,0.58,-0.18,0.38,167.16219999999998,-76.5504,-116.0086,175,75
2026-05-07 18:24:26.238,4,-0.11,-0.11,1.33,167.6114,-70.2268,66.9628,175,75
2026-05-07 18:24:26.238,5,0.18,-0.09,0.9,22.9898,9.418800000000001,-101.22160000000001,175,75
2026-05-07 18:24:26.238,1,0.45,-0.01,0.45,-79.92859999999999,-19.9848,-68.2188,175,75
2026-05-07 18:24:26.251,4,-0.07,-0.1,1.29,167.2514,-56.8668,70.7428,175,75
2026-05-07 18:24:26.251,2,0.53,-0.18,0.38,171.12220000000002,-47.8304,-119.48859999999999,175,75
2026-05-07 18:24:26.251,3,-0.48,-0.93,0.86,-52.404,-60.981399999999994,53.6252,175,75
2026-05-07 18:24:26.251,5,0.27,0.02,0.93,23.589799999999997,34.0288,-122.8816,175,75
2026-05-07 18:24:26.251,1,0.5,-0.05,0.61,-80.7786,-30.9048,-76.0788,175,75
2026-05-07 18:24:26.251,2,0.55,-0.18,0.41,174.29219999999998,-23.2504,-121.18860000000001,175,75
2026-05-07 18:24:26.262,4,-0.05,-0.1,1.25,169.2614,-36.196799999999996,74.5228,175,75
2026-05-07 18:24:26.262,3,-0.49,-0.99,0.82,-47.834,-48.1814,48.9952,175,75
2026-05-07 18:24:26.262,5,0.34,0.08,0.97,20.7598,53.6288,-116.28160000000001,175,75
2026-05-07 18:24:26.262,1,0.46,-0.18,0.7,-82.48859999999999,-42.7948,-80.22879999999999,175,75
2026-05-07 18:24:26.262,2,0.55,-0.19,0.49,178.93220000000002,-8.0104,-121.7986,175,75
2026-05-07 18:24:26.262,3,-0.59,-0.96,0.83,-43.134,-32.9314,45.0852,175,75
2026-05-07 18:24:26.273,4,-0.06,-0.1,1.23,169.8714,-10.406799999999999,79.2128,175,75
2026-05-07 18:24:26.273,5,0.37,0.11,1.02,15.6798,64.8488,-80.58160000000001,175,75
2026-05-07 18:24:26.273,1,0.47,-0.12,0.7,-90.59859999999999,-61.264799999999994,-87.4188,175,75
2026-05-07 18:24:26.273,3,-0.7,-0.96,0.8,-43.624,-24.281399999999998,45.6352,175,75
2026-05-07 18:24:26.273,2,0.65,-0.19,0.62,185.4522,-9.3504,-120.6386,175,75
2026-05-07 18:24:26.273,4,-0.1,-0.09,1.28,166.7614,21.3632,86.83279999999999,175,75
2026-05-07 18:24:26.286,5,0.35,0.14,1.1,8.1098,64.2788,-18.8416,175,75
2026-05-07 18:24:26.286,1,0.28,-0.15,0.64,-98.95859999999999,-86.0848,-91.4488,175,75
2026-05-07 18:24:26.286,3,-0.8,-0.93,0.69,-44.17400000000001,-20.9214,42.895199999999996,175,75
2026-05-07 18:24:26.286,5,0.28,0.19,1.18,-3.3701999999999996,56.6088,58.2884,175,75
2026-05-07 18:24:26.297,4,-0.11,-0.06,1.35,161.3314,33.9232,94.8228,175,75
2026-05-07 18:24:26.297,1,0.22,-0.15,0.62,-106.20859999999999,-96.0848,-96.5688,175,75
2026-05-07 18:24:26.297,2,0.68,-0.16,0.63,188.0722,-59.900400000000005,-116.73859999999999,175,75
2026-05-07 18:24:26.297,3,-0.96,-0.84,0.65,-45.394000000000005,-18.3014,44.0552,175,75
2026-05-07 18:24:26.297,4,-0.12,-0.05,1.43,157.4914,32.0332,98.5428,175,75
2026-05-07 18:24:26.297,5,0.12,0.18,1.2,-20.770200000000003,60.4788,124.0384,175,75
2026-05-07 18:24:26.297,2,0.62,-0.13,0.56,186.37220000000002,-73.8604,-116.30859999999998,175,75
2026-05-07 18:24:26.310,1,0.18,-0.02,0.61,-112.9786,-109.37480000000001,-99.4988,175,75
2026-05-07 18:24:26.310,5,-0.04,0.09,1.15,-32.8102,70.7388,168.6984,175,75
2026-05-07 18:24:26.310,3,-1.0,-0.86,0.67,-48.134,-21.5914,48.075199999999995,175,75
2026-05-07 18:24:26.310,4,-0.12,-0.03,1.51,152.8614,10.753200000000001,99.88279999999999,175,75
2026-05-07 18:24:26.320,1,0.06,0.08,0.55,-115.59859999999999,-117.0648,-97.5388,175,75
2026-05-07 18:24:26.320,3,-1.07,-0.86,0.71,-54.294000000000004,-31.291399999999996,52.3452,175,75
2026-05-07 18:24:26.320,2,0.55,-0.1,0.44,185.2722,-73.5604,-116.3786,175,75
2026-05-07 18:24:26.320,5,-0.19,0.0,1.13,-36.9102,71.2788,206.42839999999998,175,75
2026-05-07 18:24:26.320,2,0.49,-0.1,0.37,184.7222,-61.180400000000006,-115.51859999999999,175,75
2026-05-07 18:24:26.320,4,-0.13,-0.02,1.56,149.8114,-12.7868,95.80279999999999,175,75
2026-05-07 18:24:26.331,3,-1.01,-0.87,0.74,-62.224000000000004,-44.761399999999995,57.285199999999996,175,75
2026-05-07 18:24:26.331,5,-0.34,-0.03,1.2,-36.7102,54.0588,232.0084,175,75
2026-05-07 18:24:26.331,2,0.51,-0.13,0.35,183.99220000000003,-32.7704,-116.8586,175,75
2026-05-07 18:24:26.331,1,-0.04,0.26,0.23,-104.62859999999999,-94.2548,-92.72879999999999,175,75
2026-05-07 18:24:26.334,5,-0.49,-0.06,1.32,-37.0402,20.7688,233.5384,175,75
2026-05-07 18:24:26.335,3,-0.96,-0.91,0.78,-70.024,-63.481399999999994,61.975199999999994,175,75
2026-05-07 18:24:26.341,4,-0.09,-0.01,1.54,145.7214,-47.5368,88.8528,175,75
2026-05-07 18:24:26.341,2,0.58,-0.15,0.38,183.3822,-12.950399999999998,-118.6286,175,75
2026-05-07 18:24:26.341,1,0.01,0.24,0.32,-95.2986,-81.4548,-87.6088,175,75
2026-05-07 18:24:26.347,5,-0.55,-0.15,1.34,-36.8402,-13.251199999999999,208.8184,175,75
2026-05-07 18:24:26.347,3,-0.92,-0.92,0.73,-75.884,-79.95139999999999,61.005199999999995,175,75
2026-05-07 18:24:26.362,1,0.02,0.22,0.35,-91.0286,-74.5648,-82.9688,175,75
2026-05-07 18:24:26.362,5,-0.52,-0.27,1.26,-31.6702,-32.9612,169.9684,175,75
2026-05-07 18:24:26.362,4,-0.05,-0.0,1.48,144.6214,-56.0168,85.0028,175,75
2026-05-07 18:24:26.362,2,0.59,-0.15,0.43,182.9522,-8.6204,-119.4186,175,75
2026-05-07 18:24:26.362,3,-0.89,-0.87,0.67,-77.95400000000001,-83.9714,61.615199999999994,175,75
2026-05-07 18:24:26.362,4,-0.03,-0.0,1.42,143.9514,-52.8468,82.08279999999999,175,75
2026-05-07 18:24:26.374,5,-0.46,-0.34,1.14,-20.8302,-44.071200000000005,133.0684,175,75
2026-05-07 18:24:26.374,2,0.6,-0.12,0.45,183.56220000000002,-10.5104,-119.6686,175,75
2026-05-07 18:24:26.374,1,0.04,0.22,0.41,-87.6086,-69.9248,-80.0388,175,75
2026-05-07 18:24:26.374,3,-0.79,-0.88,0.67,-73.32400000000001,-75.1914,61.495200000000004,175,75
2026-05-07 18:24:26.374,5,-0.32,-0.31,1.09,-9.2002,-51.7412,105.4084,175,75
2026-05-07 18:24:26.385,2,0.58,-0.07,0.47,184.23219999999998,-14.7804,-119.2986,175,75
2026-05-07 18:24:26.385,1,0.07,0.28,0.4,-87.6686,-68.4648,-79.1288,175,75
2026-05-07 18:24:26.385,3,-0.68,-0.93,0.74,-70.45400000000001,-63.42139999999999,57.7152,175,75
2026-05-07 18:24:26.385,5,-0.15,-0.23,1.08,-2.8602,-54.111200000000004,87.9084,175,75
2026-05-07 18:24:26.398,3,-0.65,-0.97,0.76,-66.854,-56.651399999999995,53.1952,175,75
2026-05-07 18:24:26.398,5,-0.0,-0.14,1.07,-0.9101999999999999,-49.4512,76.2084,175,75
2026-05-07 18:24:26.398,4,-0.08,0.11,1.48,137.7914,-27.056800000000003,88.72279999999999,175,75
2026-05-07 18:24:26.398,2,0.57,-0.0,0.45,184.7222,-20.1404,-117.2886,175,75
2026-05-07 18:24:26.409,1,0.05,0.33,0.36,-84.1386,-63.034800000000004,-78.2788,175,75
2026-05-07 18:24:26.409,3,-0.69,-0.99,0.71,-63.564,-47.2014,47.5852,175,75
2026-05-07 18:24:26.409,4,-0.09,0.14,1.52,134.2014,-32.4768,90.0028,175,75
2026-05-07 18:24:26.409,2,0.62,-0.01,0.46,186.06220000000002,-21.730400000000003,-115.5786,175,75
2026-05-07 18:24:26.425,5,0.15,-0.06,1.02,-0.2902,-22.2912,74.8684,175,75
2026-05-07 18:24:26.425,1,0.04,0.33,0.37,-82.6686,-64.62480000000001,-77.6088,175,75
2026-05-07 18:24:26.425,3,-0.75,-0.99,0.65,-57.284,-30.681399999999996,41.7352,175,75
2026-05-07 18:24:26.425,4,-0.11,0.16,1.52,132.4314,-40.4668,92.69279999999999,175,75
2026-05-07 18:24:26.425,2,0.62,-0.04,0.46,186.91219999999998,-29.900399999999998,-114.9086,175,75
2026-05-07 18:24:26.425,1,0.03,0.36,0.33,-81.7586,-64.5648,-77.6088,175,75
2026-05-07 18:24:26.436,3,-0.82,-0.96,0.63,-54.054,-24.7014,37.1652,175,75
2026-05-07 18:24:26.436,4,-0.15,0.12,1.5,132.4914,-43.6368,96.22279999999999,175,75
2026-05-07 18:24:26.436,3,-0.88,-0.93,0.58,-52.654,-17.081400000000002,35.825199999999995,175,75
2026-05-07 18:24:26.436,2,0.52,-0.02,0.42,186.61219999999997,-35.5104,-115.6386,175,75
2026-05-07 18:24:26.436,5,0.1,-0.01,1.04,-5.090199999999999,8.5588,96.4884,175,75
2026-05-07 18:24:26.453,3,-0.92,-0.91,0.62,-51.794000000000004,-16.781399999999998,37.5252,175,75
2026-05-07 18:24:26.453,5,0.05,-0.02,1.09,-9.9502,16.7788,109.19839999999999,175,75
2026-05-07 18:24:26.453,2,0.56,0.01,0.36,185.8222,-39.4104,-114.48859999999999,175,75
2026-05-07 18:24:26.453,1,0.03,0.4,0.32,-79.4986,-57.9148,-75.7788,175,75
2026-05-07 18:24:26.453,4,-0.15,0.16,1.52,115.7814,-26.9268,102.2028,175,75
2026-05-07 18:24:26.465,5,-0.02,-0.05,1.12,-15.0402,19.9788,121.02839999999999,175,75
2026-05-07 18:24:26.465,2,0.48,-0.03,0.33,182.7722,-34.5304,-113.74859999999998,175,75
2026-05-07 18:24:26.465,5,-0.1,-0.1,1.14,-18.540200000000002,21.848799999999997,127.1184,175,75
2026-05-07 18:24:26.476,1,0.04,0.42,0.27,-75.4786,-48.404799999999994,-71.8688,175,75
2026-05-07 18:24:26.476,5,-0.18,-0.14,1.14,-20.310200000000002,19.4788,127.6184,175,75
2026-05-07 18:24:26.488,2,0.52,0.1,0.31,180.0922,-13.250399999999999,-112.95859999999999,175,75
2026-05-07 18:24:26.488,4,-0.09,0.17,1.45,118.8914,-16.5068,114.0928,175,75
2026-05-07 18:24:26.488,5,-0.24,-0.18,1.15,-20.9202,13.278800000000002,124.1784,175,75
2026-05-07 18:24:26.488,3,-0.94,-0.92,0.65,-64.604,-59.761399999999995,34.545199999999994,175,75
2026-05-07 18:24:26.500,1,0.08,0.52,0.23,-69.1986,-36.9348,-64.0688,175,75
2026-05-07 18:24:26.500,4,-0.13,0.16,1.47,112.5514,-0.8967999999999989,114.94279999999999,175,75
2026-05-07 18:24:26.506,2,0.59,0.18,0.36,178.2022,-9.9604,-111.8586,175,75
2026-05-07 18:24:26.506,2,0.63,0.19,0.41,174.66219999999998,-12.090399999999999,-109.48859999999999,175,75
2026-05-07 18:24:26.522,4,-0.13,0.18,1.51,107.9214,6.7232,115.8628,175,75
2026-05-07 18:24:26.522,1,0.08,0.51,0.24,-61.578599999999994,-28.464800000000004,-56.0188,175,75
2026-05-07 18:24:26.522,2,0.64,0.16,0.42,172.5922,-23.9204,-108.6286,175,75
2026-05-07 18:24:26.534,5,-0.27,-0.22,1.12,-15.7602,-11.181199999999999,90.07839999999999,175,75
2026-05-07 18:24:26.534,3,-0.85,-0.95,0.68,-63.684000000000005,-64.3414,37.465199999999996,175,75
2026-05-07 18:24:26.534,4,-0.14,0.21,1.58,107.73140000000001,1.4232000000000014,119.6428,175,75
2026-05-07 18:24:26.534,3,-0.8,-0.94,0.67,-61.854,-64.5814,36.005199999999995,175,75
2026-05-07 18:24:26.544,1,0.09,0.51,0.24,-59.8686,-25.8448,-51.8688,175,75
2026-05-07 18:24:26.544,4,-0.13,0.23,1.64,108.0414,-10.9568,120.0728,175,75
2026-05-07 18:24:26.544,5,-0.16,-0.16,1.09,-9.3802,-15.9412,72.0684,175,75
2026-05-07 18:24:26.544,1,0.07,0.53,0.23,-57.73859999999999,-22.424799999999998,-47.7888,175,75
2026-05-07 18:24:26.555,4,-0.11,0.22,1.67,105.4214,-28.336799999999997,119.7628,175,75
2026-05-07 18:24:26.555,3,-0.79,-1.02,0.65,-59.234,-58.3014,35.395199999999996,175,75
2026-05-07 18:24:26.555,5,-0.11,-0.13,1.07,-8.440199999999999,-14.6612,71.02839999999999,175,75
2026-05-07 18:24:26.555,2,0.49,0.2,0.3,169.41219999999998,-28.440399999999997,-109.3586,175,75
2026-05-07 18:24:26.555,1,0.08,0.54,0.18,-55.108599999999996,-17.7348,-46.388799999999996,175,75
2026-05-07 18:24:26.555,3,-0.87,-1.0,0.56,-57.834,-53.7314,33.685199999999995,175,75
2026-05-07 18:24:26.567,5,-0.07,-0.12,1.05,-8.4902,-11.021199999999999,76.3184,175,75
2026-05-07 18:24:26.567,2,0.48,0.27,0.28,168.81220000000002,-13.0704,-108.74859999999998,175,75
2026-05-07 18:24:26.567,5,-0.05,-0.12,1.04,-9.6402,-6.6712,85.4384,175,75
2026-05-07 18:24:26.567,3,-0.93,-0.95,0.5,-54.234,-48.541399999999996,31.675199999999997,175,75
2026-05-07 18:24:26.569,2,0.56,0.3,0.33,168.4422,-6.1204,-107.1086,175,75
2026-05-07 18:24:26.579,1,0.2,0.44,0.2,-45.65859999999999,-2.2448000000000015,-40.4688,175,75
2026-05-07 18:24:26.589,4,-0.07,0.2,1.55,100.6614,-52.3568,113.24279999999999,175,75
2026-05-07 18:24:26.589,3,-0.9,-0.91,0.51,-49.114000000000004,-39.0914,32.6552,175,75
2026-05-07 18:24:26.589,5,-0.09,-0.12,1.04,-13.8102,2.2388,98.1784,175,75
2026-05-07 18:24:26.589,1,0.23,0.43,0.2,-44.9286,-1.634800000000002,-38.5788,175,75
2026-05-07 18:24:26.605,5,-0.12,-0.15,1.02,-14.6002,7.6088000000000005,99.02839999999999,175,75
2026-05-07 18:24:26.605,1,0.23,0.45,0.2,-44.1986,-4.8648000000000025,-36.4488,175,75
2026-05-07 18:24:26.613,3,-0.82,-0.97,0.74,-48.994,-52.9314,35.3352,175,75
2026-05-07 18:24:26.613,5,-0.15,-0.18,1.03,-13.9902,11.148800000000001,98.8684,175,75
2026-05-07 18:24:26.613,4,-0.08,0.25,1.5,95.4214,-28.7568,114.94279999999999,175,75
2026-05-07 18:24:26.625,3,-0.81,-0.98,0.75,-52.774,-74.3414,36.1252,175,75
2026-05-07 18:24:26.625,2,0.53,0.29,0.25,169.23219999999998,-13.130399999999998,-105.02859999999998,175,75
2026-05-07 18:24:26.625,5,-0.19,-0.23,1.07,-12.4802,11.238800000000001,93.9084,175,75
2026-05-07 18:24:26.630,3,-0.92,-0.94,0.56,-53.384,-76.4714,37.225199999999994,175,75
2026-05-07 18:24:26.645,5,-0.21,-0.24,1.08,-11.9902,10.2588,87.1484,175,75
2026-05-07 18:24:26.659,4,-0.06,0.28,1.63,88.1614,-35.8368,119.27279999999999,175,75
2026-05-07 18:24:26.659,1,0.36,0.5,0.23,-39.8086,-15.5948,-34.2488,175,75
2026-05-07 18:24:26.659,5,-0.24,-0.24,1.08,-10.530199999999999,9.478800000000001,75.2584,175,75
2026-05-07 18:24:26.660,2,0.52,0.29,0.22,167.4622,-11.6704,-103.74859999999998,175,75
2026-05-07 18:24:26.670,4,-0.06,0.27,1.61,87.6714,-38.7568,118.91279999999999,175,75
2026-05-07 18:24:26.670,1,0.37,0.51,0.23,-40.7786,-21.0848,-32.7288,175,75
2026-05-07 18:24:26.670,5,-0.25,-0.22,1.08,-7.9702,8.6088,61.0184,175,75
2026-05-07 18:24:26.685,5,-0.25,-0.2,1.08,-5.9302,7.578800000000001,48.6984,175,75
2026-05-07 18:24:26.685,4,-0.06,0.28,1.58,83.1614,-24.1268,116.41279999999999,175,75
2026-05-07 18:24:26.685,5,-0.23,-0.16,1.09,-4.6602,5.8688,39.4384,175,75
2026-05-07 18:24:26.685,3,-0.83,-1.01,0.57,-52.594,-98.9114,39.295199999999994,175,75
2026-05-07 18:24:26.696,1,0.34,0.55,0.18,-42.3086,-29.0148,-34.6188,175,75
2026-05-07 18:24:26.696,3,-0.91,-1.03,0.44,-50.334,-81.4114,36.855199999999996,175,75
2026-05-07 18:24:26.696,1,0.34,0.53,0.18,-41.6386,-29.684800000000003,-35.5288,175,75
2026-05-07 18:24:26.702,2,0.52,0.33,0.33,166.91219999999998,-7.520399999999999,-98.5686,175,75
2026-05-07 18:24:26.710,3,-0.85,-0.96,0.54,-36.184,-39.2814,33.7452,175,75
2026-05-07 18:24:26.723,5,-0.13,-0.08,1.07,-5.0602,-8.501199999999999,49.7384,175,75
2026-05-07 18:24:26.724,2,0.44,0.4,0.24,174.41219999999998,-18.4404,-96.3786,175,75
2026-05-07 18:24:26.724,1,0.23,0.55,0.17,-42.3086,-36.2648,-35.7788,175,75
2026-05-07 18:24:26.741,4,-0.05,0.31,1.69,81.5114,-23.2068,111.41279999999999,175,75
2026-05-07 18:24:26.741,3,-0.82,-1.02,0.53,-35.334,-41.5314,27.715199999999996,175,75
2026-05-07 18:24:26.741,1,0.19,0.52,0.19,-41.6986,-35.2348,-34.4288,175,75
2026-05-07 18:24:26.741,5,-0.1,-0.06,1.09,-4.760199999999999,-9.2112,64.0484,175,75
2026-05-07 18:24:26.741,4,-0.07,0.34,1.7,80.6014,-34.4968,108.4828,175,75
2026-05-07 18:24:26.754,5,-0.12,-0.05,1.1,-6.6802,-9.2212,65.7884,175,75
2026-05-07 18:24:26.754,1,0.15,0.51,0.2,-42.608599999999996,-36.6348,-34.4988,175,75
2026-05-07 18:24:26.754,2,0.45,0.55,0.18,167.4022,-21.8504,-92.4086,175,75
2026-05-07 18:24:26.765,1,0.1,0.52,0.19,-43.218599999999995,-36.5748,-34.0088,175,75
2026-05-07 18:24:26.765,3,-0.9,-1.02,0.47,-25.024,3.6486,25.455199999999998,175,75
2026-05-07 18:24:26.765,5,-0.13,-0.05,1.07,-7.510199999999999,-8.9212,65.0084,175,75
2026-05-07 18:24:26.765,2,0.5,0.48,0.2,163.4422,-33.1304,-92.2886,175,75
2026-05-07 18:24:26.765,5,-0.13,-0.07,1.06,-7.510199999999999,-9.8012,64.77839999999999,175,75
2026-05-07 18:24:26.768,2,0.51,0.42,0.21,158.2022,-44.5904,-93.01859999999999,175,75
2026-05-07 18:24:26.784,5,-0.12,-0.08,1.05,-6.510199999999999,-10.6112,66.4084,175,75
2026-05-07 18:24:26.784,3,-0.87,-0.96,0.64,-21.794,-3.4214,21.435200000000002,175,75
2026-05-07 18:24:26.787,5,-0.1,-0.09,1.05,-6.1102,-9.7112,69.24839999999999,175,75
2026-05-07 18:24:26.804,1,0.06,0.6,0.15,-41.87859999999999,-22.544800000000002,-27.058799999999998,175,75
2026-05-07 18:24:26.804,4,-0.03,0.33,1.52,78.2214,-31.5068,105.0028,175,75
2026-05-07 18:24:26.804,5,-0.09,-0.1,1.04,-5.340199999999999,-7.8712,72.21839999999999,175,75
2026-05-07 18:24:26.804,3,-0.9,-1.01,0.62,-25.094,-39.5214,16.855199999999996,175,75
2026-05-07 18:24:26.804,1,0.08,0.6,0.15,-41.328599999999994,-19.3748,-25.7788,175,75
2026-05-07 18:24:26.806,5,-0.1,-0.1,1.05,-4.630199999999999,-5.4712,73.1184,175,75
2026-05-07 18:24:26.820,2,0.48,0.61,0.17,152.7122,-37.5804,-97.1086,175,75
2026-05-07 18:24:26.820,3,-0.86,-1.07,0.46,-26.794000000000004,-30.9814,14.2952,175,75
2026-05-07 18:24:26.820,4,-0.01,0.29,1.53,74.3814,-15.0368,104.2128,175,75
2026-05-07 18:24:26.820,1,0.11,0.59,0.15,-40.04859999999999,-15.044800000000002,-23.5788,175,75
2026-05-07 18:24:26.820,2,0.48,0.64,0.15,147.16219999999998,-39.2304,-94.2986,175,75
2026-05-07 18:24:26.834,5,-0.14,-0.1,1.05,-5.0602,-0.3712,65.6784,175,75
2026-05-07 18:24:26.834,1,0.13,0.58,0.17,-40.598600000000005,-13.3448,-23.9488,175,75
2026-05-07 18:24:26.834,2,0.52,0.64,0.12,139.54219999999998,-42.2204,-90.51859999999999,175,75
2026-05-07 18:24:26.844,4,-0.0,0.31,1.57,68.4714,-13.3368,103.30279999999999,175,75
2026-05-07 18:24:26.844,5,-0.15,-0.09,1.06,-5.9402,1.0288,59.6284,175,75
2026-05-07 18:24:26.844,3,-0.79,-1.03,0.44,-9.664000000000001,17.4286,9.785199999999998,175,75
2026-05-07 18:24:26.844,1,0.16,0.59,0.17,-41.3886,-14.314800000000002,-24.6788,175,75
2026-05-07 18:24:26.844,2,0.51,0.6,0.12,133.0122,-40.6304,-88.80860000000001,175,75
2026-05-07 18:24:26.844,5,-0.15,-0.09,1.07,-7.510199999999999,0.8588,56.0884,175,75
2026-05-07 18:24:26.859,3,-0.89,-1.05,0.32,-12.104000000000003,16.0886,9.5452,175,75
2026-05-07 18:24:26.859,1,0.17,0.59,0.16,-41.998599999999996,-14.864800000000002,-25.5888,175,75
2026-05-07 18:24:26.859,5,-0.15,-0.08,1.07,-8.4602,-0.26119999999999965,53.9384,175,75
2026-05-07 18:24:26.859,2,0.54,0.6,0.16,130.7622,-36.9704,-89.11860000000001,175,75
2026-05-07 18:24:26.859,4,-0.04,0.26,1.57,61.1514,-32.2368,97.99279999999999,175,75
2026-05-07 18:24:26.861,1,0.19,0.59,0.17,-42.4286,-17.1248,-26.0788,175,75
2026-05-07 18:24:26.872,2,0.54,0.6,0.21,130.1522,-41.1204,-90.33860000000001,175,75
2026-05-07 18:24:26.872,5,-0.15,-0.08,1.08,-8.9502,-2.2112,54.1984,175,75
2026-05-07 18:24:26.872,1,0.18,0.59,0.18,-42.9786,-18.894800000000004,-27.7888,175,75
2026-05-07 18:24:26.883,3,-1.15,-0.84,0.63,-0.9440000000000026,54.9286,7.9552,175,75
2026-05-07 18:24:26.883,5,-0.14,-0.09,1.07,-8.5702,-5.0512,56.9084,175,75
2026-05-07 18:24:26.883,2,0.5,0.62,0.23,127.1022,-53.130399999999995,-91.55860000000001,175,75
2026-05-07 18:24:26.883,4,-0.02,0.31,1.53,48.6514,-36.446799999999996,92.44279999999999,175,75
2026-05-07 18:24:26.883,1,0.13,0.58,0.2,-43.958600000000004,-20.354799999999997,-28.7588,175,75
2026-05-07 18:24:26.894,5,-0.15,-0.09,1.06,-6.8302,-6.901199999999999,58.9084,175,75
2026-05-07 18:24:26.894,4,-0.01,0.3,1.51,45.3614,-35.4668,91.1028,175,75
2026-05-07 18:24:26.894,2,0.52,0.64,0.22,122.3422,-65.4504,-91.55860000000001,175,75
2026-05-07 18:24:26.894,5,-0.16,-0.08,1.07,-5.1802,-8.3212,58.5784,175,75
2026-05-07 18:24:26.913,1,0.16,0.58,0.2,-46.1486,-24.074800000000003,-30.4688,175,75
2026-05-07 18:24:26.913,5,-0.16,-0.06,1.07,-3.5602,-11.251199999999999,57.1184,175,75
2026-05-07 18:24:26.913,3,-0.91,-0.96,0.6,-23.324,-27.571399999999997,8.1352,175,75
2026-05-07 18:24:26.923,2,0.44,0.62,0.07,115.6322,-67.5204,-94.7286,175,75
2026-05-07 18:24:26.935,1,0.12,0.6,0.13,-47.6686,-19.8048,-30.6488,175,75
2026-05-07 18:24:26.935,5,-0.16,-0.06,1.06,-2.2802,-12.7312,54.8384,175,75
2026-05-07 18:24:26.935,3,-0.95,-1.02,0.55,-22.714000000000002,-33.2414,0.5751999999999988,175,75
2026-05-07 18:24:26.935,2,0.44,0.62,0.01,116.2422,-59.5904,-97.71860000000001,175,75
2026-05-07 18:24:26.935,4,-0.03,0.28,1.49,34.2614,-22.726799999999997,87.2028,175,75
2026-05-07 18:24:26.935,5,-0.14,-0.05,1.05,-2.3802000000000003,-14.421199999999999,54.7284,175,75
2026-05-07 18:24:26.945,3,-0.93,-1.0,0.45,-24.414,-37.0214,1.0051999999999985,175,75
2026-05-07 18:24:26.945,4,-0.04,0.3,1.51,29.6214,-19.8568,87.7528,175,75
2026-05-07 18:24:26.945,5,-0.11,-0.07,1.03,-3.0702,-15.2012,59.458400000000005,175,75
2026-05-07 18:24:26.945,3,-0.98,-0.95,0.36,-26.064,-26.291399999999996,7.585199999999999,175,75
2026-05-07 18:24:26.957,2,0.41,0.71,-0.0,119.7822,-18.5604,-104.48859999999999,175,75
2026-05-07 18:24:26.957,4,-0.04,0.32,1.53,26.5714,-14.6768,88.7828,175,75
2026-05-07 18:24:26.957,5,-0.08,-0.09,1.02,-4.3102,-15.8012,67.9084,175,75
2026-05-07 18:24:26.957,1,0.13,0.74,0.15,-45.108599999999996,-18.9548,-25.1088,175,75
2026-05-07 18:24:26.957,3,-0.93,-0.9,0.4,-21.494,-15.131400000000001,7.1652000000000005,175,75
2026-05-07 18:24:26.957,2,0.41,0.7,0.04,119.7822,-1.1204,-107.2886,175,75
2026-05-07 18:24:26.976,1,0.13,0.79,0.12,-42.9786,-14.564800000000002,-21.0188,175,75
2026-05-07 18:24:26.976,4,-0.05,0.31,1.57,22.311400000000003,-11.256799999999998,87.8728,175,75
2026-05-07 18:24:26.976,3,-0.8,-0.89,0.56,-20.094,-0.8013999999999992,13.9352,175,75
2026-05-07 18:24:26.976,2,0.37,0.68,0.08,119.05220000000001,1.1395999999999997,-106.9186,175,75
2026-05-07 18:24:26.976,5,-0.1,-0.11,1.06,-11.8302,-11.5412,80.6184,175,75
2026-05-07 18:24:26.976,3,-0.74,-0.94,0.58,-23.324,14.0786,18.935200000000002,175,75
2026-05-07 18:24:26.990,4,-0.05,0.3,1.59,21.3914,-8.0868,87.08279999999999,175,75
2026-05-07 18:24:26.990,3,-0.82,-0.98,0.63,-22.284000000000002,5.788600000000001,16.1252,175,75
2026-05-07 18:24:26.990,2,0.33,0.71,0.08,114.8422,-10.630399999999998,-104.48859999999999,175,75
2026-05-07 18:24:26.990,1,0.13,0.8,0.09,-38.40859999999999,-4.684799999999999,-16.808799999999998,175,75
2026-05-07 18:24:27.000,4,-0.05,0.28,1.63,19.561400000000003,-7.056799999999999,85.13279999999999,175,75
2026-05-07 18:24:27.000,5,-0.15,-0.14,1.07,-14.8202,-10.5112,70.30839999999999,175,75
2026-05-07 18:24:27.000,3,-0.84,-1.03,0.56,-22.344,0.7186000000000003,13.3252,175,75
2026-05-07 18:24:27.000,4,-0.04,0.27,1.67,18.2814,-10.5868,83.3028,175,75
2026-05-07 18:24:27.014,5,-0.17,-0.15,1.05,-15.0502,-10.8812,63.7684,175,75
2026-05-07 18:24:27.014,3,-0.91,-1.05,0.46,-21.734,5.788600000000001,13.995199999999999,175,75
2026-05-07 18:24:27.014,4,-0.03,0.28,1.71,17.4914,-16.686799999999998,80.8028,175,75
2026-05-07 18:24:27.018,5,-0.16,-0.15,1.05,-15.4202,-12.7412,60.5784,175,75
2026-05-07 18:24:27.033,5,-0.14,-0.15,1.06,-15.3002,-14.3212,62.3384,175,75
2026-05-07 18:24:27.033,3,-0.86,-1.0,0.43,-13.134000000000002,25.4786,5.635199999999999,175,75
2026-05-07 18:24:27.033,2,0.37,0.68,-0.04,103.01219999999999,-15.3904,-99.23859999999999,175,75
2026-05-07 18:24:27.045,4,-0.02,0.32,1.72,15.901399999999999,-32.2368,78.2428,175,75
2026-05-07 18:24:27.045,3,-0.73,-0.94,0.56,-9.414000000000001,25.358600000000003,8.2552,175,75
2026-05-07 18:24:27.045,2,0.33,0.69,-0.07,102.6522,-4.720399999999998,-99.2986,175,75
2026-05-07 18:24:27.045,1,-0.02,0.77,0.1,-27.8586,12.025199999999998,5.3812,175,75
2026-05-07 18:24:27.056,4,-0.02,0.32,1.69,15.901399999999999,-33.5768,76.83279999999999,175,75
2026-05-07 18:24:27.056,1,-0.02,0.79,0.11,-27.4886,14.095199999999998,5.9312,175,75
2026-05-07 18:24:27.056,2,0.35,0.75,-0.05,102.2822,10.6496,-98.6286,175,75
2026-05-07 18:24:27.064,4,-0.05,0.34,1.67,15.231399999999999,-32.5368,76.7128,175,75
2026-05-07 18:24:27.064,3,-0.83,-1.0,0.55,-12.104000000000003,19.2586,12.715199999999998,175,75
2026-05-07 18:24:27.064,1,-0.02,0.81,0.13,-26.2086,15.1952,7.0912,175,75
2026-05-07 18:24:27.064,2,0.34,0.77,-0.03,100.0222,14.7996,-97.0486,175,75
2026-05-07 18:24:27.064,5,-0.1,-0.21,1.08,-11.7602,-17.5812,63.1284,175,75
2026-05-07 18:24:27.073,4,-0.08,0.35,1.65,14.2614,-26.7468,76.2828,175,75
2026-05-07 18:24:27.073,3,-0.91,-1.02,0.48,-13.014000000000001,22.738599999999998,10.695199999999998,175,75
2026-05-07 18:24:27.073,1,0.06,0.77,0.13,-26.2086,15.6852,9.2812,175,75
2026-05-07 18:24:27.087,5,-0.07,-0.25,1.09,-7.8202,-16.5212,62.318400000000004,175,75
2026-05-07 18:24:27.087,2,0.32,0.76,-0.03,97.5222,13.0296,-95.02860000000001,175,75
2026-05-07 18:24:27.087,4,-0.05,0.36,1.67,11.091399999999998,-18.4568,76.7728,175,75
2026-05-07 18:24:27.102,5,-0.06,-0.28,1.09,-3.8102,-13.5412,63.9484,175,75
2026-05-07 18:24:27.102,1,0.16,0.7,0.13,-27.9186,15.315199999999999,7.0312,175,75
2026-05-07 18:24:27.102,4,-0.04,0.37,1.67,9.321399999999999,-17.2368,75.7428,175,75
2026-05-07 18:24:27.102,2,0.32,0.74,0.0,94.1122,11.499600000000001,-93.01859999999999,175,75
2026-05-07 18:24:27.115,1,0.31,0.67,0.09,-29.808600000000002,10.685199999999998,-2.1788,175,75
2026-05-07 18:24:27.115,5,-0.16,-0.27,1.13,-0.36019999999999996,-12.1912,61.7384,175,75
2026-05-07 18:24:27.115,2,0.29,0.74,0.03,92.4022,8.7596,-91.49860000000001,175,75
2026-05-07 18:24:27.115,1,0.31,0.67,0.12,-30.9686,5.985199999999999,-6.448799999999999,175,75
2026-05-07 18:24:27.115,5,-0.22,-0.24,1.13,-2.3802000000000003,-16.781200000000002,48.9384,175,75
2026-05-07 18:24:27.125,3,-1.02,-1.07,0.48,-14.054000000000002,4.6886,2.405199999999999,175,75
2026-05-07 18:24:27.125,4,-0.04,0.41,1.66,5.291399999999999,-26.1368,71.22279999999999,175,75
2026-05-07 18:24:27.125,2,0.29,0.75,0.04,93.4422,7.2296000000000005,-90.21860000000001,175,75
2026-05-07 18:24:27.125,3,-1.03,-1.07,0.43,-14.484000000000002,1.0286000000000008,-0.45480000000000054,175,75
2026-05-07 18:24:27.135,5,-0.22,-0.22,1.13,-4.3602,-22.6612,30.7584,175,75
2026-05-07 18:24:27.135,1,0.25,0.72,0.11,-31.938599999999997,-1.2048000000000023,-12.2388,175,75
2026-05-07 18:24:27.135,2,0.26,0.75,0.05,95.2722,9.4896,-88.93860000000001,175,75
2026-05-07 18:24:27.135,4,-0.02,0.42,1.62,1.5713999999999997,-30.0968,68.97279999999999,175,75
2026-05-07 18:24:27.135,5,-0.18,-0.19,1.11,-3.1502,-26.3812,11.5384,175,75
2026-05-07 18:24:27.139,1,0.19,0.74,0.1,-33.098600000000005,-7.0047999999999995,-14.7988,175,75
2026-05-07 18:24:27.155,5,-0.11,-0.15,1.12,-0.3802,-27.8712,-1.9716,175,75
2026-05-07 18:24:27.155,2,0.23,0.76,0.05,99.1122,15.5296,-86.73859999999999,175,75
2026-05-07 18:24:27.155,4,-0.0,0.41,1.58,-1.1686000000000005,-29.0068,67.7528,175,75
2026-05-07 18:24:27.165,4,-0.0,0.4,1.55,-3.1786000000000008,-28.1468,66.22279999999999,175,75
2026-05-07 18:24:27.165,2,0.23,0.81,0.04,101.9822,19.4896,-82.83860000000001,175,75
2026-05-07 18:24:27.165,5,-0.05,-0.1,1.1,2.7298,-28.781200000000002,-8.8216,175,75
2026-05-07 18:24:27.165,1,0.11,0.82,0.1,-33.2786,-10.654800000000002,-19.4288,175,75
2026-05-07 18:24:27.165,3,-0.91,-1.01,0.56,-18.444000000000003,-5.9214,-1.3148000000000017,175,75
2026-05-07 18:24:27.165,4,0.0,0.39,1.53,-7.018600000000001,-27.056800000000003,63.422799999999995,175,75
2026-05-07 18:24:27.165,5,-0.0,-0.06,1.1,4.0698,-27.401200000000003,-8.1516,175,75
2026-05-07 18:24:27.173,1,0.14,0.85,0.09,-33.098600000000005,-10.5348,-20.718799999999998,175,75
2026-05-07 18:24:27.184,5,0.03,-0.05,1.1,3.2698,-26.151200000000003,1.5084,175,75
2026-05-07 18:24:27.184,4,0.01,0.38,1.49,-12.998600000000001,-28.7568,60.4328,175,75
2026-05-07 18:24:27.184,2,0.25,0.89,0.07,103.4422,22.3596,-73.8786,175,75
2026-05-07 18:24:27.184,3,-0.91,-0.99,0.46,-19.604000000000003,-7.021400000000002,-2.2248,175,75
2026-05-07 18:24:27.184,1,0.13,0.83,0.08,-31.758599999999998,-7.794800000000002,-20.898799999999998,175,75
2026-05-07 18:24:27.184,5,0.05,-0.04,1.1,2.1298000000000004,-25.6212,16.8684,175,75
2026-05-07 18:24:27.199,3,-0.91,-0.95,0.44,-19.234,-1.9014000000000006,-1.434800000000001,175,75
2026-05-07 18:24:27.199,2,0.26,0.84,0.13,103.2022,18.209600000000002,-71.30860000000001,175,75
2026-05-07 18:24:27.199,5,0.05,-0.04,1.09,-0.3802,-24.6412,33.9684,175,75
2026-05-07 18:24:27.199,4,0.03,0.37,1.42,-22.2686,-31.016799999999996,53.36279999999999,175,75
2026-05-07 18:24:27.210,3,-0.84,-0.95,0.44,-17.464000000000002,11.698599999999999,0.3351999999999986,175,75
2026-05-07 18:24:27.210,1,0.05,0.84,0.08,-28.2186,-3.7048000000000023,-20.648799999999998,175,75
2026-05-07 18:24:27.210,5,0.03,-0.06,1.08,-2.9302,-24.0712,46.2884,175,75
2026-05-07 18:24:27.210,2,0.31,0.77,0.24,102.1622,-10.810400000000001,-68.8786,175,75
2026-05-07 18:24:27.210,4,0.03,0.34,1.39,-27.5686,-28.516799999999996,50.4928,175,75
2026-05-07 18:24:27.210,3,-0.85,-1.01,0.49,-17.654000000000003,11.938600000000001,2.1651999999999987,175,75
2026-05-07 18:24:27.212,1,0.08,0.83,0.1,-27.8586,0.19519999999999982,-19.1888,175,75
2026-05-07 18:24:27.223,5,-0.01,-0.08,1.05,-4.9302,-22.6612,53.3784,175,75
2026-05-07 18:24:27.223,2,0.28,0.79,0.22,102.5222,-32.6404,-68.26859999999999,175,75
2026-05-07 18:24:27.223,1,0.08,0.87,0.15,-27.368599999999997,2.9951999999999988,-18.0288,175,75
2026-05-07 18:24:27.237,5,-0.03,-0.12,1.04,-5.3702,-21.5712,56.7584,175,75
2026-05-07 18:24:27.237,3,-0.89,-1.03,0.45,-16.064,15.538599999999999,2.0451999999999995,175,75
2026-05-07 18:24:27.237,4,0.01,0.34,1.39,-37.0786,-16.0168,43.3028,175,75
2026-05-07 18:24:27.237,5,-0.05,-0.15,1.03,-5.8502,-24.2212,59.6284,175,75
2026-05-07 18:24:27.237,1,0.07,0.88,0.14,-28.0386,3.065199999999999,-16.0788,175,75
2026-05-07 18:24:27.239,4,0.01,0.35,1.41,-42.1386,-10.7068,40.312799999999996,175,75
2026-05-07 18:24:27.249,2,0.08,0.83,-0.02,99.2322,-31.4904,-60.028600000000004,175,75
2026-05-07 18:24:27.249,1,0.13,0.91,0.12,-27.8586,2.9951999999999988,-16.5688,175,75
2026-05-07 18:24:27.260,3,-0.88,-0.98,0.43,-16.674000000000003,22.738599999999998,5.2752,175,75
2026-05-07 18:24:27.260,2,0.1,0.84,-0.05,98.6822,-0.39039999999999964,-56.068599999999996,175,75
2026-05-07 18:24:27.260,1,0.17,0.85,0.12,-28.768599999999996,3.8552,-17.058799999999998,175,75
2026-05-07 18:24:27.274,4,0.03,0.34,1.44,-50.498599999999996,-17.666800000000002,32.6328,175,75
2026-05-07 18:24:27.274,5,-0.08,-0.17,0.99,-5.9002,-33.0712,36.708400000000005,175,75
2026-05-07 18:24:27.274,1,0.22,0.87,0.12,-28.588599999999996,3.1852,-17.058799999999998,175,75
2026-05-07 18:24:27.274,3,-0.93,-1.02,0.5,-17.594,18.648600000000002,7.105199999999998,175,75
2026-05-07 18:24:27.284,5,-0.04,-0.16,0.97,-3.6701999999999995,-30.2712,24.7484,175,75
2026-05-07 18:24:27.284,3,-0.98,-1.05,0.46,-19.544,16.5186,1.9751999999999992,175,75
2026-05-07 18:24:27.284,2,0.28,0.8,0.14,100.9422,34.1896,-54.2386,175,75
2026-05-07 18:24:27.284,1,0.23,0.86,0.08,-30.5986,-0.29480000000000217,-17.8488,175,75
2026-05-07 18:24:27.284,4,-0.01,0.32,1.39,-61.2886,-29.0668,24.7028,175,75
2026-05-07 18:24:27.284,5,0.0,-0.16,0.97,-1.3402,-27.421200000000002,18.1584,175,75
2026-05-07 18:24:27.298,2,0.33,0.78,0.26,103.3222,18.6996,-53.6286,175,75
2026-05-07 18:24:27.298,1,0.18,0.86,0.07,-31.3886,-1.024799999999999,-17.968799999999998,175,75
2026-05-07 18:24:27.298,4,0.01,0.3,1.36,-67.9986,-25.166800000000002,21.592799999999997,175,75
2026-05-07 18:24:27.298,5,0.03,-0.13,0.97,-0.10019999999999996,-24.0412,15.2784,175,75
2026-05-07 18:24:27.298,2,0.31,0.77,0.32,107.7722,0.7096,-51.678599999999996,175,75
2026-05-07 18:24:27.310,1,0.21,0.87,0.13,-31.4586,1.1052,-18.3388,175,75
2026-05-07 18:24:27.310,5,0.05,-0.09,0.99,-1.2102,-20.4812,14.0584,175,75
2026-05-07 18:24:27.324,5,0.07,-0.07,1.0,-2.4202000000000004,-16.4612,14.8384,175,75
2026-05-07 18:24:27.324,3,-0.89,-1.08,0.53,-22.524,7.4286,5.515199999999998,175,75
2026-05-07 18:24:27.324,2,0.19,0.82,0.23,106.5522,-48.6204,-41.9886,175,75
2026-05-07 18:24:27.324,4,0.06,0.17,1.32,-80.1286,-13.146799999999999,14.332799999999999,175,75
2026-05-07 18:24:27.324,1,0.12,0.93,0.08,-31.8186,1.905199999999999,-18.9488,175,75
2026-05-07 18:24:27.326,5,0.08,-0.06,1.0,-1.8701999999999999,-11.5312,16.7084,175,75
2026-05-07 18:24:27.343,4,0.05,0.14,1.31,-89.5786,-6.316799999999999,8.542799999999998,175,75
2026-05-07 18:24:27.343,5,0.07,-0.05,1.0,-1.2802,-6.5412,20.6184,175,75
2026-05-07 18:24:27.343,3,-1.01,-0.97,0.24,-18.624000000000002,19.8686,4.665199999999999,175,75
2026-05-07 18:24:27.343,4,0.02,0.14,1.31,-97.9386,1.853200000000001,1.7127999999999979,175,75
2026-05-07 18:24:27.343,1,0.05,0.92,0.12,-31.2086,7.145199999999999,-16.3188,175,75
2026-05-07 18:24:27.354,5,0.06,-0.05,1.01,-1.2402,-3.8912,26.0984,175,75
2026-05-07 18:24:27.354,3,-0.9,-1.01,0.45,-15.884000000000002,21.7586,4.355199999999998,175,75
2026-05-07 18:24:27.354,4,-0.02,0.19,1.33,-103.2986,10.023200000000001,-2.3672000000000004,175,75
2026-05-07 18:24:27.354,5,0.04,-0.05,1.02,-2.2202,-1.5912,32.4184,175,75
2026-05-07 18:24:27.359,3,-0.86,-1.03,0.55,-17.224,12.9186,5.335199999999999,175,75
2026-05-07 18:24:27.371,2,0.18,0.74,0.29,108.01219999999999,-52.0904,-41.308600000000006,175,75
2026-05-07 18:24:27.371,5,0.02,-0.06,1.03,-3.9901999999999997,0.3288000000000002,39.0084,175,75
2026-05-07 18:24:27.371,4,-0.04,0.21,1.35,-106.7186,16.663200000000003,-9.1372,175,75
2026-05-07 18:24:27.371,3,-0.95,-1.05,0.46,-22.284000000000002,2.1286000000000005,7.9552,175,75
2026-05-07 18:24:27.373,1,0.03,0.88,0.11,-30.8486,12.5152,-10.838799999999999,175,75
2026-05-07 18:24:27.385,5,0.0,-0.09,1.03,-6.2501999999999995,1.1587999999999998,45.1084,175,75
2026-05-07 18:24:27.385,1,-0.01,0.85,0.1,-30.1686,15.075199999999999,-9.7388,175,75
2026-05-07 18:24:27.385,3,-1.05,-1.08,0.26,-26.124000000000002,-3.1213999999999995,3.5051999999999985,175,75
2026-05-07 18:24:27.385,2,0.09,0.77,0.29,108.0722,-87.7004,-36.8586,175,75
2026-05-07 18:24:27.385,5,-0.02,-0.12,1.03,-7.3602,0.8788,48.348400000000005,175,75
2026-05-07 18:24:27.391,1,0.03,0.83,0.11,-30.1686,18.9152,-6.7488,175,75
2026-05-07 18:24:27.391,4,0.16,0.04,1.4,-102.5086,32.093199999999996,-27.6172,175,75
2026-05-07 18:24:27.402,2,0.03,0.79,0.2,105.8222,-95.9404,-32.778600000000004,175,75
2026-05-07 18:24:27.402,5,-0.04,-0.14,1.05,-7.6402,-0.05119999999999969,47.138400000000004,175,75
2026-05-07 18:24:27.402,3,-1.02,-1.04,0.18,-19.784000000000002,1.1486,-5.154800000000001,175,75
2026-05-07 18:24:27.402,4,0.21,-0.01,1.44,-99.0986,30.7532,-42.6772,175,75
2026-05-07 18:24:27.415,2,0.0,0.8,0.13,106.4322,-86.5504,-29.1186,175,75
2026-05-07 18:24:27.415,3,-0.98,-0.99,0.31,-16.854000000000003,10.1186,0.3951999999999991,175,75
2026-05-07 18:24:27.415,5,-0.05,-0.15,1.04,-7.850199999999999,-1.4411999999999998,42.5584,175,75
2026-05-07 18:24:27.415,1,0.11,0.86,0.09,-28.0386,21.4752,-2.7888,175,75
2026-05-07 18:24:27.415,3,-0.91,-1.04,0.45,-11.554000000000002,12.4286,-4.844800000000001,175,75
2026-05-07 18:24:27.428,2,0.09,0.72,0.07,111.1222,-61.240399999999994,-26.988600000000005,175,75
2026-05-07 18:24:27.428,5,-0.05,-0.17,1.04,-7.1602,-1.9011999999999998,37.1484,175,75
2026-05-07 18:24:27.428,1,0.16,0.86,0.08,-27.128599999999995,20.0152,-2.5388,175,75
2026-05-07 18:24:27.428,3,-0.89,-1.0,0.53,-16.244000000000003,1.8786000000000005,-1.3148000000000017,175,75
2026-05-07 18:24:27.428,5,-0.05,-0.18,1.03,-5.8902,-1.5712,31.8384,175,75
2026-05-07 18:24:27.428,2,0.11,0.64,0.08,112.2822,-37.4604,-27.778600000000004,175,75
2026-05-07 18:24:27.439,1,0.17,0.87,0.1,-28.158599999999996,15.495199999999999,-2.1788,175,75
2026-05-07 18:24:27.439,5,-0.05,-0.18,1.04,-3.8902,-1.9011999999999998,25.2284,175,75
2026-05-07 18:24:27.439,3,-1.01,-1.03,0.36,-18.994,-6.901400000000001,2.105199999999998,175,75
2026-05-07 18:24:27.439,2,0.13,0.63,0.11,112.8922,-21.3604,-31.308600000000006,175,75
2026-05-07 18:24:27.439,1,0.17,0.9,0.11,-29.1386,10.435199999999998,-2.6088000000000005,175,75
2026-05-07 18:24:27.452,4,0.02,0.06,1.63,-90.6786,-32.6668,-80.6072,175,75
2026-05-07 18:24:27.452,5,-0.04,-0.15,1.04,-3.2302,-1.6111999999999997,18.488400000000002,175,75
2026-05-07 18:24:27.452,1,0.19,0.93,0.14,-30.4186,7.2652,-3.0288000000000004,175,75
2026-05-07 18:24:27.452,3,-1.01,-1.05,0.18,-18.994,-10.5614,-2.594800000000001,175,75
2026-05-07 18:24:27.452,2,0.13,0.69,0.16,115.2122,-17.7004,-34.488600000000005,175,75
2026-05-07 18:24:27.462,5,-0.02,-0.13,1.04,-3.3902,-0.8512,12.2384,175,75
2026-05-07 18:24:27.462,2,0.07,0.73,0.2,117.5222,-19.7804,-35.3986,175,75
2026-05-07 18:24:27.462,1,0.19,0.97,0.1,-31.938599999999997,4.9552,-4.1288,175,75
2026-05-07 18:24:27.462,3,-1.0,-1.04,0.14,-14.844000000000001,-2.0214,-4.664800000000001,175,75
2026-05-07 18:24:27.470,2,0.03,0.73,0.21,117.4022,-17.8304,-33.9386,175,75
2026-05-07 18:24:27.486,5,0.03,-0.11,1.02,-3.9802,3.1388000000000003,11.5084,175,75
2026-05-07 18:24:27.486,4,0.08,-0.23,1.57,-88.6686,-107.0568,-90.3572,175,75
2026-05-07 18:24:27.486,3,-0.92,-1.03,0.48,-9.544,11.5186,-3.144800000000001,175,75
2026-05-07 18:24:27.486,2,-0.08,0.68,0.18,116.9822,-11.060400000000001,-28.448600000000006,175,75
2026-05-07 18:24:27.490,1,0.25,0.97,0.14,-30.478599999999997,12.995199999999999,-3.8888000000000007,175,75
2026-05-07 18:24:27.502,5,0.03,-0.1,1.01,-4.0302,6.2888,16.2884,175,75
2026-05-07 18:24:27.502,4,0.09,-0.25,1.46,-96.8386,-108.2768,-92.2472,175,75
2026-05-07 18:24:27.502,1,0.3,0.98,0.16,-31.2086,11.1752,-4.2488,175,75
2026-05-07 18:24:27.513,2,-0.15,0.58,0.13,118.5022,-1.9103999999999992,-14.788600000000002,175,75
2026-05-07 18:24:27.513,4,0.07,-0.25,1.35,-103.1786,-91.9268,-89.80720000000001,175,75
2026-05-07 18:24:27.513,3,-1.04,-1.08,0.24,-17.834000000000003,-12.631400000000001,-10.2148,175,75
2026-05-07 18:24:27.515,5,0.03,-0.09,1.07,-5.2402,13.0388,25.3684,175,75
2026-05-07 18:24:27.527,3,-0.99,-0.99,0.2,-15.514000000000001,-5.071400000000001,-11.734800000000002,175,75
2026-05-07 18:24:27.527,5,0.02,-0.11,1.07,-6.8502,12.4688,31.4984,175,75
2026-05-07 18:24:27.527,4,0.0,-0.17,1.28,-113.4886,-25.0368,-69.25720000000001,175,75
2026-05-07 18:24:27.527,1,0.25,0.99,0.04,-37.738600000000005,-2.184799999999999,-7.968800000000001,175,75
2026-05-07 18:24:27.527,2,0.15,0.51,0.14,125.0922,3.329600000000001,-7.528600000000004,175,75
2026-05-07 18:24:27.532,5,-0.03,-0.13,1.06,-6.4102,12.818800000000001,34.458400000000005,175,75
2026-05-07 18:24:27.542,1,0.24,0.98,0.08,-38.098600000000005,0.7451999999999988,-8.8888,175,75
2026-05-07 18:24:27.542,2,0.13,0.46,0.2,131.06220000000002,-0.8803999999999998,-8.628600000000006,175,75
2026-05-07 18:24:27.542,3,-0.91,-1.01,0.47,-11.004000000000001,12.2486,-6.064800000000001,175,75
2026-05-07 18:24:27.542,1,0.23,0.92,0.13,-37.6686,-2.424800000000001,-10.588799999999999,175,75
2026-05-07 18:24:27.554,5,-0.06,-0.19,1.06,-5.1902,4.998800000000001,36.6584,175,75
2026-05-07 18:24:27.554,3,-0.96,-1.05,0.39,-17.164,0.5985999999999994,-5.034800000000001,175,75
2026-05-07 18:24:27.554,1,0.22,0.95,0.07,-39.988600000000005,-7.064800000000002,-12.9688,175,75
2026-05-07 18:24:27.554,2,0.01,0.45,0.25,140.7622,-28.3804,-2.838600000000003,175,75
2026-05-07 18:24:27.554,5,-0.07,-0.2,1.08,-4.1802,1.4288000000000003,32.9784,175,75
2026-05-07 18:24:27.563,2,-0.17,0.43,0.19,138.81220000000002,-39.4704,5.271399999999996,175,75
2026-05-07 18:24:27.574,5,-0.09,-0.21,1.07,-2.9901999999999997,-0.9712000000000001,25.698400000000003,175,75
2026-05-07 18:24:27.574,4,0.18,-0.35,1.51,-120.6186,36.2432,-42.797200000000004,175,75
2026-05-07 18:24:27.574,1,0.17,0.96,0.08,-39.438599999999994,-8.8948,-13.5788,175,75
2026-05-07 18:24:27.574,1,0.17,0.97,0.13,-39.1386,-9.4348,-12.5388,175,75
2026-05-07 18:24:27.578,5,-0.09,-0.22,1.06,-1.7901999999999998,-2.0911999999999997,16.1984,175,75
2026-05-07 18:24:27.594,5,-0.08,-0.2,1.05,-0.9401999999999999,-2.9012,7.0684,175,75
2026-05-07 18:24:27.594,1,0.18,1.0,0.12,-39.688599999999994,-14.6848,-11.688799999999999,175,75
2026-05-07 18:24:27.594,4,0.17,-0.34,1.43,-124.4586,42.6432,-40.1172,175,75
2026-05-07 18:24:27.597,5,-0.05,-0.19,1.05,-0.1402,-2.8712,-1.1715999999999998,175,75
2026-05-07 18:24:27.609,3,-0.9,-1.04,0.44,-11.124000000000002,12.1286,-6.864800000000001,175,75
2026-05-07 18:24:27.609,5,-0.03,-0.17,1.06,-0.040200000000000014,-0.8712,-7.961600000000001,175,75
2026-05-07 18:24:27.609,4,0.1,-0.29,1.37,-125.1286,86.8532,-29.5072,175,75
2026-05-07 18:24:27.609,1,0.17,1.04,0.08,-38.098600000000005,-14.744800000000001,-8.338799999999999,175,75
2026-05-07 18:24:27.629,1,0.2,1.06,0.08,-36.0286,-12.974800000000002,-7.3588,175,75
2026-05-07 18:24:27.629,2,0.08,0.19,0.25,150.5122,-4.9604,27.041399999999996,175,75
2026-05-07 18:24:27.629,5,0.01,-0.14,1.06,-0.11019999999999996,4.6488,-10.6816,175,75
2026-05-07 18:24:27.629,4,-0.02,-0.27,1.45,-116.8386,132.5232,-19.317200000000003,175,75
2026-05-07 18:24:27.629,1,0.21,1.1,0.08,-34.37859999999999,-12.9148,-7.6688,175,75
2026-05-07 18:24:27.651,1,0.2,1.1,0.13,-35.4786,-13.4648,-8.8188,175,75
2026-05-07 18:24:27.651,2,-0.01,0.05,0.41,155.8222,-43.0104,30.451399999999996,175,75
2026-05-07 18:24:27.651,5,0.01,-0.17,1.08,-2.4402,5.5488,4.2884,175,75
2026-05-07 18:24:27.651,3,-0.93,-1.04,0.28,-10.824000000000002,5.538600000000001,-7.164800000000001,175,75
2026-05-07 18:24:27.651,4,-0.1,-0.26,1.56,-101.5286,154.65320000000003,-14.137200000000004,175,75
2026-05-07 18:24:27.651,1,0.19,1.18,0.15,-36.578599999999994,-15.2348,-7.478800000000001,175,75
2026-05-07 18:24:27.668,5,-0.0,-0.2,1.09,-4.6602,12.2188,9.1584,175,75
2026-05-07 18:24:27.671,1,0.13,1.18,0.05,-35.848600000000005,-10.474800000000002,-5.8988000000000005,175,75
2026-05-07 18:24:27.680,4,-0.04,-0.24,1.64,-84.8886,146.7932,-24.137200000000004,175,75
2026-05-07 18:24:27.694,5,-0.08,-0.2,1.11,-0.7802,19.168799999999997,-4.9716000000000005,175,75
2026-05-07 18:24:27.694,3,-0.87,-1.0,0.44,-8.204000000000002,9.1386,-14.4848,175,75
2026-05-07 18:24:27.704,1,0.17,1.14,0.1,-33.958600000000004,-4.8048,-5.0388,175,75
2026-05-07 18:24:27.704,4,-0.09,-0.21,1.64,-76.7186,141.2432,-27.067200000000003,175,75
2026-05-07 18:24:27.704,3,-0.98,-1.08,0.27,-15.214000000000002,-4.821400000000001,-14.3048,175,75
2026-05-07 18:24:27.709,4,-0.13,-0.18,1.65,-69.8886,136.72320000000002,-26.817200000000003,175,75
2026-05-07 18:24:27.709,5,-0.08,-0.18,1.14,3.8198,16.3688,-26.211599999999997,175,75
2026-05-07 18:24:27.724,5,-0.07,-0.16,1.14,4.7298,15.8088,-30.011599999999998,175,75
2026-05-07 18:24:27.724,3,-0.98,-1.06,0.18,-10.024000000000001,9.3186,-16.254800000000003,175,75
2026-05-07 18:24:27.724,1,0.11,1.1,0.1,-34.5686,-6.3248,-6.448799999999999,175,75
2026-05-07 18:24:27.724,4,-0.28,-0.1,1.65,-59.5186,137.09320000000002,-15.607200000000002,175,75
2026-05-07 18:24:27.724,1,0.07,1.12,0.13,-31.4586,-10.7848,-5.8988000000000005,175,75
2026-05-07 18:24:27.735,5,-0.07,-0.14,1.15,4.8198,13.8288,-29.8116,175,75
2026-05-07 18:24:27.735,2,-0.01,-0.15,0.48,186.31220000000002,-79.96039999999999,60.6414,175,75
2026-05-07 18:24:27.735,3,-0.89,-1.07,0.26,-7.104000000000001,9.3186,-15.2148,175,75
2026-05-07 18:24:27.735,5,-0.03,-0.13,1.16,4.0098,11.1188,-26.191599999999998,175,75
2026-05-07 18:24:27.746,4,-0.32,-0.08,1.66,-54.7686,139.8332,-4.627200000000002,175,75
2026-05-07 18:24:27.746,3,-0.94,-1.06,0.27,-7.774000000000001,10.4786,-14.3048,175,75
2026-05-07 18:24:27.746,4,-0.35,-0.1,1.67,-49.6386,140.0232,2.3827999999999996,175,75
2026-05-07 18:24:27.757,3,-0.96,-1.09,0.3,-7.224000000000002,12.0686,-18.0248,175,75
2026-05-07 18:24:27.757,2,-0.15,-0.13,0.16,173.50220000000002,-142.5204,65.5114,175,75
2026-05-07 18:24:27.757,1,0.06,1.16,0.22,-30.908599999999996,-10.4148,-2.9688,175,75
2026-05-07 18:24:27.757,5,-0.01,-0.13,1.17,1.1198000000000001,11.8888,-12.6316,175,75
2026-05-07 18:24:27.767,2,-0.23,-0.15,0.02,167.7722,-144.5904,65.03139999999999,175,75
2026-05-07 18:24:27.767,4,-0.34,-0.14,1.71,-43.0586,135.2032,11.712799999999998,175,75
2026-05-07 18:24:27.767,3,-0.9,-1.03,0.32,-5.944000000000003,15.4186,-19.3048,175,75
2026-05-07 18:24:27.774,2,-0.25,-0.31,-0.09,169.23219999999998,-65.2004,66.4314,175,75
2026-05-07 18:24:27.780,1,0.07,1.22,0.11,-25.2386,-0.17480000000000118,1.9712,175,75
2026-05-07 18:24:27.780,4,-0.23,-0.19,1.74,-37.748599999999996,115.3832,18.052799999999998,175,75
2026-05-07 18:24:27.792,4,-0.19,-0.18,1.73,-36.8386,92.4032,15.372799999999998,175,75
2026-05-07 18:24:27.792,1,0.11,1.2,0.18,-23.0386,-0.3548000000000009,2.7012,175,75
2026-05-07 18:24:27.804,5,-0.1,-0.12,1.18,2.3198,16.418799999999997,-18.511599999999998,175,75
2026-05-07 18:24:27.804,4,-0.16,-0.16,1.68,-34.2186,72.8832,17.0828,175,75
2026-05-07 18:24:27.804,1,0.1,1.2,0.1,-22.7386,-4.434799999999999,4.5312,175,75
2026-05-07 18:24:27.804,3,-0.89,-1.07,0.27,-8.074000000000002,13.7086,-18.0848,175,75
2026-05-07 18:24:27.814,5,-0.09,-0.12,1.19,2.4898,17.2088,-23.691599999999998,175,75
2026-05-07 18:24:27.814,2,0.06,-0.38,0.18,162.8322,-6.790399999999998,65.4514,175,75
2026-05-07 18:24:27.814,3,-0.91,-1.09,0.34,-9.484000000000002,11.938600000000001,-18.8148,175,75
2026-05-07 18:24:27.814,4,-0.19,-0.12,1.65,-32.568599999999996,66.8532,21.3528,175,75
2026-05-07 18:24:27.824,2,0.11,-0.38,0.23,158.0122,-34.8404,67.7714,175,75
2026-05-07 18:24:27.824,5,-0.08,-0.1,1.21,1.9798,17.5888,-24.551599999999997,175,75
2026-05-07 18:24:27.824,3,-0.86,-1.05,0.38,-10.764000000000003,12.7986,-17.8348,175,75
2026-05-07 18:24:27.824,1,0.24,1.15,0.11,-19.0186,-0.29480000000000217,4.7712,175,75
2026-05-07 18:24:27.835,5,-0.06,-0.11,1.23,0.6598,17.738799999999998,-20.9716,175,75
2026-05-07 18:24:27.835,4,-0.24,-0.12,1.6,-31.718600000000002,67.4632,24.9428,175,75
2026-05-07 18:24:27.835,2,0.04,-0.41,0.17,147.16219999999998,-89.7804,71.3714,175,75
2026-05-07 18:24:27.835,4,-0.21,-0.15,1.58,-31.0486,71.5432,26.772799999999997,175,75
2026-05-07 18:24:27.835,5,-0.08,-0.11,1.22,-0.12019999999999997,17.008799999999997,-15.701600000000001,175,75
2026-05-07 18:24:27.846,1,0.29,1.17,0.07,-19.688599999999997,-4.134800000000002,2.5812,175,75
2026-05-07 18:24:27.846,4,-0.25,-0.15,1.58,-29.458599999999997,81.3032,30.982799999999997,175,75
2026-05-07 18:24:27.846,5,-0.09,-0.11,1.21,-0.3802,16.7488,-10.2616,175,75
2026-05-07 18:24:27.846,2,-0.11,-0.4,-0.06,133.62220000000002,-107.9504,62.7114,175,75
2026-05-07 18:24:27.863,2,-0.11,-0.41,-0.14,132.4622,-85.6304,58.2014,175,75
2026-05-07 18:24:27.863,5,-0.11,-0.12,1.2,-0.7302,17.1288,-4.0016,175,75
2026-05-07 18:24:27.863,4,-0.21,-0.17,1.57,-28.1186,97.4032,36.8328,175,75
2026-05-07 18:24:27.863,1,0.22,1.18,0.14,-18.4686,-6.634800000000002,-0.5888000000000002,175,75
2026-05-07 18:24:27.863,3,-0.83,-1.04,0.21,-15.154000000000002,-0.8613999999999997,-16.5548,175,75
2026-05-07 18:24:27.875,5,-0.12,-0.13,1.22,-1.0902,16.3388,1.4584000000000001,175,75
2026-05-07 18:24:27.875,4,-0.16,-0.19,1.57,-28.3586,103.00319999999999,35.3728,175,75
2026-05-07 18:24:27.875,2,-0.1,-0.47,-0.19,126.7922,-44.2304,55.511399999999995,175,75
2026-05-07 18:24:27.875,3,-0.84,-1.02,0.25,-15.214000000000002,9.9286,-11.494800000000001,175,75
2026-05-07 18:24:27.887,5,-0.15,-0.14,1.23,-1.9102,15.778800000000002,3.5183999999999997,175,75
2026-05-07 18:24:27.887,4,-0.16,-0.17,1.61,-26.168599999999998,105.2032,37.0828,175,75
2026-05-07 18:24:27.887,1,0.09,1.23,0.03,-13.7686,-7.854800000000001,1.7812,175,75
2026-05-07 18:24:27.887,5,-0.16,-0.15,1.24,-2.1702000000000004,15.5388,2.0684,175,75
2026-05-07 18:24:27.887,4,-0.13,-0.18,1.62,-22.9986,101.6632,35.2528,175,75
2026-05-07 18:24:27.898,3,-0.81,-1.11,0.22,-15.334000000000001,4.9286,-9.724800000000002,175,75
2026-05-07 18:24:27.898,1,0.07,1.16,0.07,-11.5186,-3.524799999999999,2.4612,175,75
2026-05-07 18:24:27.898,5,-0.19,-0.14,1.26,-2.0602,14.098799999999999,-2.7916,175,75
2026-05-07 18:24:27.898,4,-0.05,-0.23,1.63,-20.988599999999998,75.4432,25.1328,175,75
2026-05-07 18:24:27.911,1,0.09,1.22,0.09,-9.438599999999997,-6.454800000000002,0.2611999999999999,175,75
2026-05-07 18:24:27.911,3,-0.85,-1.05,0.19,-15.274000000000001,8.7686,-4.364800000000001,175,75
2026-05-07 18:24:27.911,2,0.01,-0.39,-0.1,86.3722,34.3096,43.621399999999994,175,75
2026-05-07 18:24:27.911,5,-0.19,-0.14,1.26,-1.5401999999999998,10.908800000000001,-8.7416,175,75
2026-05-07 18:24:27.911,4,-0.13,-0.18,1.68,-18.7886,50.4432,17.0828,175,75
2026-05-07 18:24:27.925,5,-0.18,-0.14,1.25,-1.0502,7.6988,-10.3016,175,75
2026-05-07 18:24:27.925,3,-0.84,-1.04,0.28,-11.374000000000002,21.0286,-1.6148000000000007,175,75
2026-05-07 18:24:27.925,2,-0.01,-0.33,-0.02,78.2022,50.4696,43.871399999999994,175,75
2026-05-07 18:24:27.925,1,-0.01,1.21,0.13,-10.4786,-7.2448000000000015,0.8712,175,75
2026-05-07 18:24:27.925,4,-0.18,-0.13,1.69,-17.938599999999997,35.2632,12.022799999999998,175,75
2026-05-07 18:24:27.925,5,-0.17,-0.14,1.23,-1.1201999999999999,4.4887999999999995,-6.9716000000000005,175,75
2026-05-07 18:24:27.936,3,-0.8,-1.09,0.38,-12.594000000000001,10.7886,0.4551999999999996,175,75
2026-05-07 18:24:27.936,1,-0.07,1.23,0.17,-8.348599999999998,-9.8048,2.5812,175,75
2026-05-07 18:24:27.936,4,-0.17,-0.13,1.68,-17.4486,22.0332,6.472799999999999,175,75
2026-05-07 18:24:27.953,3,-0.82,-1.11,0.27,-15.944000000000003,-0.1313999999999993,1.3651999999999997,175,75
2026-05-07 18:24:27.954,5,-0.18,-0.13,1.18,-3.8401999999999994,-2.1612,1.3384,175,75
2026-05-07 18:24:27.954,4,-0.18,-0.13,1.6,-15.248600000000001,9.3532,1.1027999999999984,175,75
2026-05-07 18:24:27.956,5,-0.15,-0.13,1.18,-4.1202,-4.4912,1.3884,175,75
2026-05-07 18:24:27.968,1,0.04,1.25,0.05,-5.238599999999998,0.565199999999999,1.4811999999999999,175,75
2026-05-07 18:24:27.968,2,-0.04,-0.4,0.18,34.1122,68.9996,50.151399999999995,175,75
2026-05-07 18:24:27.968,3,-0.76,-1.11,0.41,-12.894000000000002,-1.7113999999999994,10.4552,175,75
2026-05-07 18:24:27.968,4,-0.15,-0.1,1.57,-17.0186,30.083199999999998,3.782799999999998,175,75
2026-05-07 18:24:27.984,5,-0.11,-0.12,1.17,-4.2702,1.9688000000000003,-4.9916,175,75
2026-05-07 18:24:27.984,4,-0.14,-0.11,1.55,-18.7886,39.593199999999996,2.502799999999997,175,75
2026-05-07 18:24:27.984,2,-0.0,-0.35,0.3,30.1522,85.1596,51.2514,175,75
2026-05-07 18:24:27.984,5,-0.1,-0.1,1.17,-4.800199999999999,5.768800000000001,-6.4416,175,75
2026-05-07 18:24:27.997,3,-0.94,-1.15,0.09,-21.614,-19.211399999999998,4.725199999999999,175,75
2026-05-07 18:24:27.997,2,0.01,-0.31,0.34,27.5922,81.1396,50.9414,175,75
2026-05-07 18:24:27.997,5,-0.08,-0.1,1.17,-7.1402,7.898800000000001,-3.0716,175,75
2026-05-07 18:24:28.007,4,-0.31,-0.09,1.59,-19.6386,60.14319999999999,7.6328,175,75
2026-05-07 18:24:28.007,1,0.13,1.2,0.06,0.44140000000000157,4.215199999999999,-1.3888,175,75
2026-05-07 18:24:28.007,3,-0.87,-1.11,0.07,-13.074000000000002,-1.0413999999999994,1.1851999999999983,175,75
2026-05-07 18:24:28.007,5,-0.07,-0.11,1.18,-9.1302,8.908800000000001,2.6284,175,75
2026-05-07 18:24:28.007,2,0.08,-0.27,0.41,25.452199999999998,63.0296,50.09139999999999,175,75
2026-05-07 18:24:28.019,1,0.14,1.21,0.09,2.331400000000002,7.4552,-1.5688000000000002,175,75
2026-05-07 18:24:28.019,5,-0.09,-0.13,1.15,-10.030199999999999,9.7088,8.6084,175,75
2026-05-07 18:24:28.019,4,-0.43,-0.1,1.75,-19.098599999999998,79.2232,22.142799999999998,175,75
2026-05-07 18:24:28.031,3,-0.94,-1.04,0.04,-12.464000000000002,-6.231400000000001,-7.344800000000001,175,75
2026-05-07 18:24:28.031,5,-0.12,-0.15,1.13,-9.4702,9.328800000000001,12.2084,175,75
2026-05-07 18:24:28.031,2,0.03,-0.21,0.46,18.9922,36.869600000000005,53.7514,175,75
2026-05-07 18:24:28.031,1,0.14,1.18,0.11,2.8714000000000013,11.7852,-3.5188000000000006,175,75
2026-05-07 18:24:28.044,3,-0.89,-1.01,0.1,-8.384000000000002,2.9786,-5.944800000000001,175,75
2026-05-07 18:24:28.044,1,0.12,1.17,0.14,1.5314000000000014,11.1752,-4.978800000000001,175,75
2026-05-07 18:24:28.044,5,-0.14,-0.17,1.12,-7.8702000000000005,8.6188,12.5984,175,75
2026-05-07 18:24:28.044,2,-0.03,-0.17,0.49,11.982199999999999,38.3296,52.7114,175,75
2026-05-07 18:24:28.044,4,-0.22,-0.15,1.74,-11.2286,23.0032,2.3827999999999996,175,75
2026-05-07 18:24:28.044,1,0.11,1.17,0.2,-0.41859999999999786,10.0152,-6.7488,175,75
2026-05-07 18:24:28.055,5,-0.16,-0.18,1.11,-4.9902,7.068800000000001,9.5084,175,75
2026-05-07 18:24:28.055,4,-0.17,-0.11,1.67,-6.0486,5.3832,-3.037200000000002,175,75
2026-05-07 18:24:28.055,5,-0.17,-0.17,1.1,-2.1402,6.568800000000001,3.2683999999999997,175,75
2026-05-07 18:24:28.067,1,0.05,1.21,0.21,-4.078599999999998,3.6751999999999985,-7.728800000000001,175,75
2026-05-07 18:24:28.067,2,-0.06,-0.19,0.57,-0.45780000000000065,48.6396,54.6014,175,75
2026-05-07 18:24:28.067,4,-0.23,-0.09,1.65,-2.5686000000000004,5.693200000000001,-4.927200000000003,175,75
2026-05-07 18:24:28.067,3,-0.85,-1.14,0.2,-14.054000000000002,-18.601399999999998,-2.8348000000000013,175,75
2026-05-07 18:24:28.067,1,-0.01,1.2,0.19,-4.558599999999998,5.075199999999999,-6.9288,175,75
2026-05-07 18:24:28.067,5,-0.18,-0.15,1.08,0.9798,7.818800000000001,-5.1316,175,75
2026-05-07 18:24:28.070,2,-0.08,-0.26,0.59,-6.3178,49.1896,56.731399999999994,175,75
2026-05-07 18:24:28.079,4,-0.31,-0.06,1.56,-2.2686000000000006,10.503200000000001,-7.737200000000001,175,75
2026-05-07 18:24:28.080,5,-0.18,-0.11,1.1,2.5598,7.1088000000000005,-12.1416,175,75
2026-05-07 18:24:28.080,2,-0.15,-0.25,0.43,-14.0578,30.9496,63.8114,175,75
2026-05-07 18:24:28.098,5,-0.15,-0.06,1.12,2.0298,4.5488,-16.0616,175,75
2026-05-07 18:24:28.098,4,-0.32,-0.02,1.48,-3.7286000000000006,25.263199999999998,-6.577200000000001,175,75
2026-05-07 18:24:28.098,1,0.14,1.1,0.11,-8.8886,-3.8247999999999998,-7.298800000000001,175,75
2026-05-07 18:24:28.098,2,0.02,-0.22,0.12,-34.9778,20.709600000000002,39.6014,175,75
2026-05-07 18:24:28.112,2,0.31,-0.27,-0.18,-47.5378,69.9196,20.151399999999995,175,75
2026-05-07 18:24:28.112,5,-0.1,-0.02,1.12,-1.7102000000000002,-1.0412,-12.3316,175,75
2026-05-07 18:24:28.112,4,-0.5,0.1,1.47,-8.848600000000001,61.053200000000004,6.3527999999999984,175,75
2026-05-07 18:24:28.112,3,-0.87,-1.15,0.29,-16.064,-21.901400000000002,3.075199999999999,175,75
2026-05-07 18:24:28.112,1,0.03,1.2,0.34,-9.628599999999999,-5.654800000000002,-3.6988000000000003,175,75
2026-05-07 18:24:28.125,5,-0.07,-0.02,1.11,-3.9702,-3.2211999999999996,-4.0916,175,75
2026-05-07 18:24:28.125,2,-0.04,-0.23,-0.12,-28.8778,188.0296,21.371399999999998,175,75
2026-05-07 18:24:28.125,3,-0.9,-1.08,0.07,-15.334000000000001,-8.791400000000001,2.0451999999999995,175,75
2026-05-07 18:24:28.139,3,-0.86,-1.08,0.12,-12.284000000000002,6.0286,4.965199999999999,175,75
2026-05-07 18:24:28.139,5,-0.05,-0.07,1.04,-8.5602,-5.0212,18.628400000000003,175,75
2026-05-07 18:24:28.139,4,-0.44,0.06,1.6,-14.0386,88.4932,28.052799999999998,175,75
2026-05-07 18:24:28.148,4,-0.35,0.03,1.67,-14.0986,69.4132,20.1928,175,75
2026-05-07 18:24:28.148,3,-0.87,-1.08,0.22,-11.794,8.9586,5.335199999999999,175,75
2026-05-07 18:24:28.148,5,-0.06,-0.1,1.03,-10.6702,-4.0012,26.9084,175,75
2026-05-07 18:24:28.150,2,0.34,0.05,0.8,-5.2178,230.0996,-10.458600000000004,175,75
2026-05-07 18:24:28.161,3,-0.87,-1.08,0.27,-11.914000000000001,9.3786,5.2752,175,75
2026-05-07 18:24:28.161,5,-0.06,-0.13,1.01,-11.530199999999999,-2.2512,29.8484,175,75
2026-05-07 18:24:28.161,2,0.28,0.13,1.07,-25.2778,139.4896,-2.1686000000000014,175,75
2026-05-07 18:24:28.161,1,0.18,1.12,0.13,-6.6386,5.745199999999999,-8.698799999999999,175,75
2026-05-07 18:24:28.177,4,-0.29,0.05,1.58,1.9413999999999998,5.023200000000001,-4.447200000000002,175,75
2026-05-07 18:24:28.177,2,0.29,0.11,1.18,-41.6178,49.2496,11.981399999999997,175,75
2026-05-07 18:24:28.177,1,0.11,1.15,0.06,-4.3186,10.1952,-7.9088,175,75
2026-05-07 18:24:28.177,4,-0.32,0.11,1.5,2.9814,-3.516799999999999,-9.017200000000003,175,75
2026-05-07 18:24:28.177,3,-0.89,-1.12,0.22,-16.434,-0.4314,4.475199999999999,175,75
2026-05-07 18:24:28.177,5,-0.07,-0.18,1.0,-9.4002,6.598800000000001,24.8484,175,75
2026-05-07 18:24:28.179,2,0.24,0.08,1.06,-43.4478,-32.0904,24.541399999999996,175,75
2026-05-07 18:24:28.179,1,0.12,1.16,0.11,-3.8886000000000003,10.865199999999998,-8.338799999999999,175,75
2026-05-07 18:24:28.195,5,-0.1,-0.18,1.01,-6.7702,11.8388,17.3884,175,75
2026-05-07 18:24:28.195,4,-0.32,0.16,1.4,2.4913999999999996,2.7032000000000007,-14.257200000000001,175,75
2026-05-07 18:24:28.195,3,-0.84,-1.1,0.24,-15.704000000000002,2.2485999999999997,5.4552,175,75
2026-05-07 18:24:28.195,2,0.17,0.04,0.9,-39.787800000000004,-73.5004,26.251399999999997,175,75
2026-05-07 18:24:28.195,1,0.11,1.15,0.12,-3.2185999999999986,10.075199999999999,-8.5788,175,75
2026-05-07 18:24:28.195,5,-0.11,-0.17,1.04,-5.0602,16.0388,8.9684,175,75
2026-05-07 18:24:28.205,4,-0.26,0.18,1.39,3.6513999999999998,29.7132,-9.5672,175,75
2026-05-07 18:24:28.206,3,-0.86,-1.07,0.23,-16.674000000000003,-2.0814000000000004,7.9552,175,75
2026-05-07 18:24:28.206,1,0.09,1.19,0.16,-3.408599999999998,9.9552,-7.478800000000001,175,75
2026-05-07 18:24:28.206,5,-0.11,-0.16,1.05,-4.0602,18.7788,3.9884,175,75
2026-05-07 18:24:28.206,4,-0.79,0.15,1.45,13.9514,54.9032,8.782799999999998,175,75
2026-05-07 18:24:28.219,2,0.03,0.02,0.49,-33.7578,-49.050399999999996,10.941399999999998,175,75
2026-05-07 18:24:28.219,3,-0.87,-1.08,0.24,-15.944000000000003,0.47860000000000014,9.4152,175,75
2026-05-07 18:24:28.219,5,-0.12,-0.15,1.07,-3.4402,19.9588,2.9684,175,75
2026-05-07 18:24:28.219,1,0.09,1.22,0.19,-5.298599999999997,3.975199999999999,-6.6888,175,75
2026-05-07 18:24:28.219,4,-1.14,-0.11,1.83,35.1714,156.3032,53.2428,175,75
2026-05-07 18:24:28.223,2,0.04,0.04,0.47,-21.9878,-10.080400000000001,8.501399999999997,175,75
2026-05-07 18:24:28.223,3,-0.91,-1.11,0.2,-18.444000000000003,-2.6313999999999993,11.0052,175,75
2026-05-07 18:24:28.233,5,-0.15,-0.13,1.08,-3.3202,20.258799999999997,3.0183999999999997,175,75
2026-05-07 18:24:28.233,4,-0.89,-0.51,1.95,41.7614,222.15320000000003,100.19279999999999,175,75
2026-05-07 18:24:28.233,1,0.09,1.23,0.15,-5.168599999999998,2.575199999999999,-5.2888,175,75
2026-05-07 18:24:28.233,3,-0.95,-1.13,0.1,-18.384,-4.0314,8.995199999999999,175,75
2026-05-07 18:24:28.240,5,-0.18,-0.11,1.1,-4.5602,18.6788,2.1184000000000003,175,75
2026-05-07 18:24:28.241,1,0.1,1.24,0.13,-5.418599999999998,3.3051999999999992,-3.6988000000000003,175,75
2026-05-07 18:24:28.241,4,-0.57,-1.12,2.09,51.7614,113.0732,67.08279999999999,175,75
2026-05-07 18:24:28.252,3,-0.97,-1.04,-0.0,-12.464000000000002,2.4286000000000003,4.1152,175,75
2026-05-07 18:24:28.252,5,-0.2,-0.11,1.11,-6.380199999999999,15.888800000000002,1.0084,175,75
2026-05-07 18:24:28.252,2,0.22,-0.17,0.7,-7.4078,11.9296,1.8613999999999962,175,75
2026-05-07 18:24:28.252,1,0.08,1.25,0.17,-5.418599999999998,5.135199999999999,-2.0587999999999997,175,75
2026-05-07 18:24:28.252,4,-0.6,-1.06,1.92,46.7614,-76.3168,6.222799999999999,175,75
2026-05-07 18:24:28.252,3,-0.91,-1.07,0.07,-6.004000000000001,10.7186,6.3051999999999975,175,75
2026-05-07 18:24:28.264,2,0.2,-0.17,0.72,-12.107800000000001,-11.3004,-0.3386000000000031,175,75
2026-05-07 18:24:28.264,5,-0.19,-0.11,1.12,-8.6402,12.2588,1.2784,175,75
2026-05-07 18:24:28.275,3,-0.98,-1.14,0.1,-4.354000000000001,6.0286,2.5252,175,75
2026-05-07 18:24:28.275,1,0.16,1.19,0.24,-8.528599999999997,-3.4648000000000003,0.5711999999999999,175,75
2026-05-07 18:24:28.275,4,-0.36,-0.2,1.05,30.5414,-134.30679999999998,13.422799999999999,175,75
2026-05-07 18:24:28.275,2,0.07,-0.03,0.58,-18.6278,-59.7204,0.3313999999999986,175,75
2026-05-07 18:24:28.285,5,-0.17,-0.13,1.12,-11.3102,8.5888,7.5784,175,75
2026-05-07 18:24:28.285,3,-0.95,-1.1,0.09,-2.774000000000001,2.4886,-4.784800000000001,175,75
2026-05-07 18:24:28.285,2,0.06,-0.03,0.5,-21.0678,-72.5804,2.411399999999997,175,75
2026-05-07 18:24:28.290,3,-0.91,-1.05,0.13,-0.8840000000000021,2.6786000000000003,-4.974800000000001,175,75
2026-05-07 18:24:28.290,4,-0.34,-0.29,0.96,16.761400000000002,-59.1268,35.4328,175,75
2026-05-07 18:24:28.304,5,-0.19,-0.17,1.09,-10.8502,5.098800000000001,8.9984,175,75
2026-05-07 18:24:28.304,3,-0.89,-1.07,0.19,-0.15400000000000347,0.04860000000000042,-1.1948000000000008,175,75
2026-05-07 18:24:28.304,4,-0.14,-0.51,1.06,10.231399999999999,-0.4067999999999987,47.6928,175,75
2026-05-07 18:24:28.304,1,0.14,1.19,0.12,-7.918599999999998,-6.634800000000002,3.0712,175,75
2026-05-07 18:24:28.304,5,-0.18,-0.19,1.08,-9.3402,4.2288,8.2984,175,75
2026-05-07 18:24:28.316,1,0.16,1.21,-0.03,-7.9786,-4.0748,1.6612,175,75
2026-05-07 18:24:28.316,3,-0.89,-1.13,0.24,-0.6340000000000003,-3.4214,0.2151999999999994,175,75
2026-05-07 18:24:28.316,2,0.08,-0.09,0.41,-27.227800000000002,-75.5104,1.4313999999999965,175,75
2026-05-07 18:24:28.316,4,0.03,-0.64,1.65,18.7114,2.943200000000001,31.6528,175,75
2026-05-07 18:24:28.316,2,0.05,-0.1,0.39,-25.8878,-69.4104,1.3713999999999977,175,75
2026-05-07 18:24:28.316,3,-0.88,-1.15,0.24,-0.2740000000000009,-9.2814,-2.1648000000000014,175,75
2026-05-07 18:24:28.327,1,0.09,1.17,0.1,-2.1285999999999987,9.895199999999999,3.7412,175,75
2026-05-07 18:24:28.327,4,-0.07,-0.45,1.9,29.6214,-38.696799999999996,16.162799999999997,175,75
2026-05-07 18:24:28.327,5,-0.16,-0.21,1.06,-5.590199999999999,6.348800000000001,6.2284,175,75
2026-05-07 18:24:28.327,2,0.06,-0.08,0.39,-27.7778,-69.96039999999999,-2.2886000000000024,175,75
2026-05-07 18:24:28.338,3,-0.89,-1.12,0.17,-2.1640000000000015,-13.3014,-3.7548000000000012,175,75
2026-05-07 18:24:28.338,4,-0.13,-0.33,1.68,27.2514,-28.8868,7.442799999999998,175,75
2026-05-07 18:24:28.338,5,-0.16,-0.2,1.08,-3.5901999999999994,8.7888,2.9184,175,75
2026-05-07 18:24:28.338,2,0.12,-0.07,0.39,-34.7278,-73.6804,-5.518600000000003,175,75
2026-05-07 18:24:28.338,3,-0.9,-1.1,0.09,-3.0740000000000016,-9.821399999999999,-3.144800000000001,175,75
2026-05-07 18:24:28.343,1,0.11,1.17,0.13,-3.0985999999999994,4.9552,2.5212,175,75
2026-05-07 18:24:28.353,5,-0.15,-0.18,1.1,-2.5001999999999995,11.9288,-2.2716,175,75
2026-05-07 18:24:28.353,3,-0.93,-1.06,0.07,-1.9840000000000018,-2.3214000000000006,-2.714800000000001,175,75
2026-05-07 18:24:28.353,1,0.11,1.19,0.12,-3.0985999999999994,2.6351999999999993,1.9112,175,75
2026-05-07 18:24:28.358,4,-0.33,-0.09,1.54,38.5314,5.023200000000001,9.762799999999999,175,75
2026-05-07 18:24:28.376,5,-0.19,-0.13,1.1,-1.1002,16.1388,-13.701600000000001,175,75
2026-05-07 18:24:28.376,1,0.11,1.19,0.11,-3.708599999999999,2.6351999999999993,1.3612,175,75
2026-05-07 18:24:28.376,2,0.12,-0.09,0.15,-66.4978,-106.3604,-11.7986,175,75
2026-05-07 18:24:28.376,5,-0.2,-0.1,1.09,-1.2802,15.2688,-15.8316,175,75
2026-05-07 18:24:28.376,3,-0.88,-1.06,0.12,-2.714000000000002,-5.311400000000001,0.2151999999999994,175,75
2026-05-07 18:24:28.388,2,0.14,-0.12,0.06,-74.5478,-106.0004,-13.568600000000004,175,75
2026-05-07 18:24:28.388,4,-0.54,-0.01,1.73,31.331400000000002,8.6132,12.322799999999999,175,75
2026-05-07 18:24:28.388,3,-0.93,-1.08,0.08,-2.714000000000002,-3.7913999999999994,-1.7348000000000017,175,75
2026-05-07 18:24:28.388,5,-0.2,-0.09,1.08,-1.4702,12.9388,-13.3416,175,75
2026-05-07 18:24:28.399,4,-0.58,0.04,1.75,28.9514,-15.4068,10.252799999999999,175,75
2026-05-07 18:24:28.399,5,-0.18,-0.08,1.08,-1.6401999999999999,8.3388,-6.4616,175,75
2026-05-07 18:24:28.402,4,-0.58,0.06,1.69,25.7814,-32.4168,9.762799999999999,175,75
2026-05-07 18:24:28.410,5,-0.14,-0.08,1.11,-2.6802,2.1288000000000005,4.1584,175,75
2026-05-07 18:24:28.410,2,0.07,-0.37,-0.33,-85.3378,-19.470399999999998,-35.698600000000006,175,75
2026-05-07 18:24:28.413,4,-0.55,0.04,1.62,22.1214,-31.9268,12.8128,175,75
2026-05-07 18:24:28.418,5,-0.12,-0.09,1.1,-3.9302,-1.7011999999999998,13.4484,175,75
2026-05-07 18:24:28.418,1,0.09,1.22,0.15,-5.108599999999999,-1.7547999999999995,-1.3888,175,75
2026-05-07 18:24:28.418,3,-0.93,-1.05,0.2,-4.7840000000000025,-1.1014,2.405199999999999,175,75
2026-05-07 18:24:28.422,2,0.24,-0.43,-0.39,-93.3278,15.4696,-52.9586,175,75
2026-05-07 18:24:28.429,5,-0.12,-0.12,1.08,-5.0202,-3.4612,18.8684,175,75
2026-05-07 18:24:28.429,3,-0.9,-1.12,0.26,-1.9140000000000015,-0.011400000000000077,1.7951999999999995,175,75
2026-05-07 18:24:28.429,4,-0.48,0.0,1.67,18.9514,-22.116799999999998,16.2228,175,75
2026-05-07 18:24:28.431,1,0.08,1.22,0.18,-6.6386,-7.854800000000001,-1.8088,175,75
2026-05-07 18:24:28.442,2,0.26,-0.44,-0.44,-104.7878,39.1896,-65.08860000000001,175,75
2026-05-07 18:24:28.442,5,-0.13,-0.13,1.05,-5.510199999999999,-4.8512,19.928400000000003,175,75
2026-05-07 18:24:28.442,4,-0.39,-0.05,1.77,16.8814,-25.0968,15.3128,175,75
2026-05-07 18:24:28.442,1,0.06,1.22,0.17,-6.9986,-8.584800000000001,-1.3888,175,75
2026-05-07 18:24:28.442,3,-0.93,-1.09,0.19,-6.004000000000001,-17.2014,-9.0548,175,75
2026-05-07 18:24:28.454,5,-0.12,-0.15,1.04,-5.4702,-5.5212,17.608400000000003,175,75
2026-05-07 18:24:28.454,2,0.23,-0.44,-0.53,-113.8778,91.4396,-78.80860000000001,175,75
2026-05-07 18:24:28.454,4,-0.36,-0.08,1.77,14.141399999999999,-33.2768,9.702799999999998,175,75
2026-05-07 18:24:28.454,1,0.06,1.25,0.21,-7.738599999999998,-10.7148,-0.3488,175,75
2026-05-07 18:24:28.454,3,-0.86,-1.05,0.16,-5.764000000000001,-13.3014,-4.914800000000001,175,75
2026-05-07 18:24:28.458,5,-0.08,-0.16,1.04,-5.7302,-3.8211999999999997,14.6484,175,75
2026-05-07 18:24:28.458,2,0.38,-0.47,-0.6,-115.1578,153.6396,-95.51859999999999,175,75
2026-05-07 18:24:28.473,4,-0.36,-0.08,1.74,10.2914,-32.2368,6.532799999999998,175,75
2026-05-07 18:24:28.473,5,-0.05,-0.17,1.03,-5.8102,-0.08119999999999994,12.2884,175,75
2026-05-07 18:24:28.473,1,0.04,1.28,0.2,-7.798599999999997,-13.154800000000002,0.3812,175,75
2026-05-07 18:24:28.473,3,-0.91,-1.1,0.14,-6.854000000000001,-12.6914,-0.3948000000000018,175,75
2026-05-07 18:24:28.473,2,0.46,-0.54,-0.49,-117.6578,214.4296,-111.3786,175,75
2026-05-07 18:24:28.482,4,-0.35,-0.07,1.71,6.7614,-29.366799999999998,4.392799999999998,175,75
2026-05-07 18:24:28.482,5,-0.03,-0.2,1.02,-6.2802,5.828800000000001,12.3984,175,75
2026-05-07 18:24:28.482,1,0.06,1.28,0.16,-7.918599999999998,-14.014800000000001,1.3612,175,75
2026-05-07 18:24:28.482,3,-0.93,-1.1,0.12,-3.384000000000002,-4.0314,-4.844800000000001,175,75
2026-05-07 18:24:28.497,2,0.59,-0.59,-0.33,-117.2278,246.3196,-124.2986,175,75
2026-05-07 18:24:28.497,5,-0.04,-0.21,1.01,-6.6802,13.258799999999999,13.5684,175,75
2026-05-07 18:24:28.497,3,-0.86,-1.11,0.2,-1.1240000000000023,1.3986,-3.8748000000000014,175,75
2026-05-07 18:24:28.497,1,0.1,1.26,0.12,-7.128599999999999,-14.5048,0.08119999999999994,175,75
2026-05-07 18:24:28.497,4,-0.38,-0.06,1.72,2.6713999999999998,-24.186799999999998,5.192799999999998,175,75
2026-05-07 18:24:28.497,5,-0.1,-0.22,1.0,-6.9702,18.7088,13.3384,175,75
2026-05-07 18:24:28.510,1,0.13,1.24,-0.02,-5.048599999999997,-5.2348,-0.6488000000000003,175,75
2026-05-07 18:24:28.510,4,-0.36,-0.06,1.73,-5.9886,-27.7868,4.2728,175,75
2026-05-07 18:24:28.510,5,-0.15,-0.23,1.01,-7.6602,20.6088,9.3584,175,75
2026-05-07 18:24:28.510,3,-0.9,-1.09,0.08,-3.134000000000002,-2.0214,-2.594800000000001,175,75
2026-05-07 18:24:28.510,1,0.11,1.23,0.08,-0.048599999999998644,4.0352,1.1812,175,75
2026-05-07 18:24:28.526,4,-0.34,-0.07,1.71,-11.0486,-30.166800000000002,4.582799999999999,175,75
2026-05-07 18:24:28.526,3,-0.9,-1.08,0.12,-0.4540000000000006,9.1986,-0.1548000000000016,175,75
2026-05-07 18:24:28.526,2,0.68,-0.75,0.02,-117.0478,78.5096,-174.7886,175,75
2026-05-07 18:24:28.526,5,-0.18,-0.24,1.04,-7.8302,23.6588,-1.3216,175,75
2026-05-07 18:24:28.526,4,-0.31,-0.11,1.68,-14.638600000000002,-31.0768,4.642799999999999,175,75
2026-05-07 18:24:28.545,5,-0.2,-0.23,1.05,-6.130199999999999,25.6188,-8.0016,175,75
2026-05-07 18:24:28.545,1,0.14,1.2,0.07,1.841400000000002,-0.9048000000000016,-0.9587999999999999,175,75
2026-05-07 18:24:28.545,4,-0.3,-0.13,1.66,-18.4286,-27.416800000000002,5.612799999999998,175,75
2026-05-07 18:24:28.556,1,0.15,1.2,0.09,3.421400000000002,-2.794800000000002,-1.1988,175,75
2026-05-07 18:24:28.556,3,-0.87,-1.15,0.32,-2.4040000000000017,-5.9214,-6.864800000000001,175,75
2026-05-07 18:24:28.556,5,-0.24,-0.16,1.08,-1.8802,26.418799999999997,-20.101599999999998,175,75
2026-05-07 18:24:28.561,1,0.12,1.2,0.09,4.701400000000001,-0.7148000000000003,-1.0188,175,75
2026-05-07 18:24:28.561,4,-0.28,-0.15,1.63,-23.1786,-19.7368,7.872799999999998,175,75
2026-05-07 18:24:28.561,3,-0.88,-1.1,0.19,-5.334000000000001,-15.1914,-4.844800000000001,175,75
2026-05-07 18:24:28.570,5,-0.24,-0.13,1.1,-1.2202,25.0288,-22.6116,175,75
2026-05-07 18:24:28.570,2,0.35,-0.92,-0.12,-100.2778,127.7196,-216.55859999999998,175,75
2026-05-07 18:24:28.570,3,-0.94,-1.1,0.11,-4.484000000000002,-15.861400000000001,-8.6348,175,75
2026-05-07 18:24:28.581,5,-0.23,-0.12,1.11,-0.9601999999999999,23.3388,-21.011599999999998,175,75
2026-05-07 18:24:28.581,1,0.06,1.25,0.16,6.841400000000001,0.19519999999999982,0.6312,175,75
2026-05-07 18:24:28.581,4,-0.34,-0.15,1.59,-26.4686,-17.0568,10.492799999999999,175,75
2026-05-07 18:24:28.592,3,-0.9,-1.06,0.09,-4.7840000000000025,-10.8014,-10.824800000000002,175,75
2026-05-07 18:24:28.592,5,-0.23,-0.11,1.12,-1.3701999999999999,20.7888,-14.3816,175,75
2026-05-07 18:24:28.592,1,0.05,1.24,0.17,6.041400000000001,0.3152000000000008,0.9912,175,75
2026-05-07 18:24:28.592,3,-0.86,-1.01,0.1,-2.9540000000000024,-2.0814000000000004,-4.174800000000001,175,75
2026-05-07 18:24:28.605,1,0.06,1.24,0.19,5.0714000000000015,-1.8748000000000005,1.3012,175,75
2026-05-07 18:24:28.606,2,0.47,-0.81,0.36,-36.3778,160.5296,-243.07860000000002,175,75
2026-05-07 18:24:28.606,3,-0.87,-1.11,0.19,-1.0040000000000013,3.5886000000000005,-2.344800000000001,175,75
2026-05-07 18:24:28.606,1,0.04,1.24,0.18,4.221400000000001,-4.9848,1.9712,175,75
2026-05-07 18:24:28.619,4,-0.38,-0.24,1.51,-25.438599999999997,-3.6967999999999996,14.8828,175,75
2026-05-07 18:24:28.619,1,0.06,1.24,0.15,3.671400000000002,-5.534800000000001,2.7012,175,75
2026-05-07 18:24:28.619,3,-0.89,-1.13,0.18,-2.9540000000000024,0.2986000000000004,-5.7048000000000005,175,75
2026-05-07 18:24:28.631,2,0.27,-0.72,0.4,-12.2878,86.6896,-248.50859999999997,175,75
2026-05-07 18:24:28.631,1,0.07,1.24,0.14,4.091400000000002,-5.044800000000002,3.4912,175,75
2026-05-07 18:24:28.631,4,-0.4,-0.26,1.55,-26.4686,-0.7067999999999994,15.802799999999998,175,75
2026-05-07 18:24:28.631,5,-0.31,-0.13,1.13,-3.6301999999999994,9.488800000000001,15.1384,175,75
2026-05-07 18:24:28.631,3,-0.85,-1.1,0.16,-2.104000000000001,5.6586,-3.264800000000001,175,75
2026-05-07 18:24:28.631,2,0.13,-0.62,0.3,-14.607800000000001,65.58959999999999,-250.3386,175,75
2026-05-07 18:24:28.645,1,0.06,1.23,0.13,4.951400000000001,-3.7048000000000023,4.7712,175,75
2026-05-07 18:24:28.645,5,-0.31,-0.14,1.15,-3.5202,8.908800000000001,13.4284,175,75
2026-05-07 18:24:28.645,4,-0.41,-0.24,1.57,-27.2686,-0.4067999999999987,14.822799999999999,175,75
2026-05-07 18:24:28.645,3,-0.85,-1.11,0.19,-2.1640000000000015,4.9286,-1.4948000000000015,175,75
2026-05-07 18:24:28.645,1,0.07,1.23,0.12,5.251400000000001,-2.4848,5.691199999999999,175,75
2026-05-07 18:24:28.645,5,-0.32,-0.13,1.17,-3.6102,9.2088,9.3984,175,75
2026-05-07 18:24:28.653,2,0.07,-0.47,0.2,-12.777800000000001,75.2196,-248.50859999999997,175,75
2026-05-07 18:24:28.653,4,-0.44,-0.19,1.59,-25.008599999999998,-2.6667999999999994,14.092799999999999,175,75
2026-05-07 18:24:28.653,3,-0.86,-1.1,0.21,-1.6140000000000025,5.5986,0.02519999999999989,175,75
2026-05-07 18:24:28.653,2,0.04,-0.36,0.21,-5.3378000000000005,102.0496,-242.7786,175,75
2026-05-07 18:24:28.665,5,-0.33,-0.13,1.17,-3.1902,8.3588,5.4484,175,75
2026-05-07 18:24:28.665,1,0.06,1.22,0.15,4.831400000000001,-2.184799999999999,6.8511999999999995,175,75
2026-05-07 18:24:28.665,4,-0.45,-0.17,1.57,-22.2686,-1.5667999999999997,13.7228,175,75
2026-05-07 18:24:28.665,2,0.08,-0.28,0.29,8.322199999999999,139.3696,-234.5486,175,75
2026-05-07 18:24:28.665,5,-0.35,-0.14,1.15,-0.9201999999999999,5.3788,1.8084000000000002,175,75
2026-05-07 18:24:28.677,1,0.04,1.23,0.19,3.301400000000001,-5.174800000000001,7.3312,175,75
2026-05-07 18:24:28.677,4,-0.46,-0.14,1.58,-18.1186,-0.4067999999999987,13.782799999999998,175,75
2026-05-07 18:24:28.677,2,0.13,-0.26,0.42,22.2222,165.5296,-226.7986,175,75
2026-05-07 18:24:28.677,3,-0.85,-1.13,0.2,-0.15400000000000347,-1.8414000000000001,1.5551999999999992,175,75
2026-05-07 18:24:28.677,5,-0.36,-0.12,1.17,2.3098,4.3988,-2.0616,175,75
2026-05-07 18:24:28.677,1,0.03,1.23,0.18,1.7814000000000014,-7.1248000000000005,7.3312,175,75
2026-05-07 18:24:28.688,4,-0.46,-0.13,1.58,-15.858600000000001,1.3032000000000004,13.912799999999999,175,75
2026-05-07 18:24:28.688,2,0.17,-0.24,0.58,37.8322,181.5596,-219.1786,175,75
2026-05-07 18:24:28.688,5,-0.35,-0.13,1.18,5.4998000000000005,3.5488000000000004,-3.2216,175,75
2026-05-07 18:24:28.688,1,0.02,1.21,0.15,1.5314000000000014,-4.8048,7.271199999999999,175,75
2026-05-07 18:24:28.691,2,0.28,-0.22,0.71,50.2122,176.6896,-217.4686,175,75
2026-05-07 18:24:28.704,5,-0.33,-0.15,1.18,8.5298,-1.5712,5.0484,175,75
2026-05-07 18:24:28.704,1,0.03,1.22,0.16,0.9814000000000007,-3.1548000000000016,7.0312,175,75
2026-05-07 18:24:28.704,4,-0.46,-0.15,1.59,-8.1186,1.1832000000000011,12.692799999999998,175,75
2026-05-07 18:24:28.704,5,-0.38,-0.15,1.15,10.4598,-8.0312,14.4984,175,75
