Time,ID,Ax,Ay,Az,Gx,Gy,Gz,H,W
2026-05-09 16:25:50.535,4,0.66,0.33,1.25,16.729599999999998,4.435600000000001,-4.328600000000001,175,75
2026-05-09 16:25:50.535,2,0.4,0.02,1.22,-3.8224,-3.9215999999999998,2.873599999999996,175,75
2026-05-09 16:25:50.535,4,0.66,0.32,1.26,15.9996,3.765599999999999,-6.5886000000000005,175,75
2026-05-09 16:25:50.540,3,-0.32,-1.01,0.4,3.904600000000002,-0.11500000000000199,1.956199999999999,175,75
2026-05-09 16:25:50.540,1,0.02,-0.3,1.58,-2.3652000000000015,-0.030999999999998806,-2.5348000000000006,175,75
2026-05-09 16:25:50.540,5,0.31,-0.14,0.99,0.21039999999999992,6.894399999999999,5.754999999999999,175,75
2026-05-09 16:25:50.562,1,0.01,-0.28,1.57,-2.6152000000000015,0.2690000000000019,-2.474800000000002,175,75
2026-05-09 16:25:50.562,2,0.44,-0.05,1.24,0.32760000000000034,-15.381599999999999,7.263599999999997,175,75
2026-05-09 16:25:50.562,3,-0.33,-0.99,0.39,4.934600000000003,-0.6050000000000004,1.5961999999999978,175,75
2026-05-09 16:25:50.562,5,0.28,-0.15,1.01,-0.38960000000000006,11.664399999999999,3.765,175,75
2026-05-09 16:25:50.562,1,0.01,-0.28,1.58,-3.345200000000002,-0.09100000000000108,-2.164800000000003,175,75
2026-05-09 16:25:50.573,4,0.6,0.29,1.28,5.629599999999998,-0.6243999999999996,-13.1086,175,75
2026-05-09 16:25:50.573,2,0.44,-0.05,1.23,1.7275999999999998,-23.6116,8.413599999999995,175,75
2026-05-09 16:25:50.573,3,-0.33,-1.0,0.39,5.4846,-0.11500000000000199,1.5361999999999973,175,75
2026-05-09 16:25:50.573,5,0.25,-0.15,1.02,-0.6596000000000001,12.3144,1.855,175,75
2026-05-09 16:25:50.573,1,0.01,-0.29,1.58,-3.8952000000000027,-0.5210000000000008,-2.7148000000000003,175,75
2026-05-09 16:25:50.581,5,0.24,-0.14,1.04,-1.3596,12.2744,0.9849999999999999,175,75
2026-05-09 16:25:50.593,3,-0.33,-1.01,0.39,5.914600000000007,0.004999999999999005,1.8961999999999986,175,75
2026-05-09 16:25:50.593,1,0.0,-0.3,1.58,-4.4452,-1.0109999999999992,-3.0248000000000026,175,75
2026-05-09 16:25:50.593,4,0.56,0.32,1.28,0.5095999999999989,-4.224399999999999,-12.6786,175,75
2026-05-09 16:25:50.593,2,0.43,-0.03,1.22,2.7676000000000007,-30.3216,9.023599999999995,175,75
2026-05-09 16:25:50.593,5,0.24,-0.14,1.07,-1.9196,11.074399999999999,0.6749999999999998,175,75
2026-05-09 16:25:50.593,2,0.42,-0.02,1.19,2.6976000000000004,-35.9316,10.183599999999998,175,75
2026-05-09 16:25:50.616,1,0.01,-0.31,1.57,-5.475200000000001,-1.8610000000000007,-4.0548,175,75
2026-05-09 16:25:50.616,2,0.41,-0.02,1.17,0.9975999999999994,-38.1216,10.493599999999994,175,75
2026-05-09 16:25:50.621,5,0.2,-0.17,1.14,-2.8996,5.5244,4.025,175,75
2026-05-09 16:25:50.633,3,-0.33,-1.01,0.4,8.11460000000001,-0.7250000000000014,0.9861999999999984,175,75
2026-05-09 16:25:50.633,2,0.43,-0.03,1.14,-2.6024000000000003,-37.27160000000001,9.573599999999999,175,75
2026-05-09 16:25:50.633,3,-0.33,-1.0,0.4,8.8446,-1.1550000000000011,1.046199999999999,175,75
2026-05-09 16:25:50.633,4,0.57,0.36,1.28,-0.9504000000000001,2.9756,-5.3086,175,75
2026-05-09 16:25:50.633,1,0.02,-0.29,1.56,-6.145200000000003,0.028999999999999915,-4.914800000000003,175,75
2026-05-09 16:25:50.661,4,0.58,0.38,1.3,0.19960000000000022,6.515599999999999,-0.1786000000000001,175,75
2026-05-09 16:25:50.661,5,0.16,-0.19,1.13,-2.3496,-5.0256,2.265,175,75
2026-05-09 16:25:50.661,2,0.43,-0.01,1.11,-2.8423999999999996,-19.831599999999998,7.013599999999997,175,75
2026-05-09 16:25:50.676,3,-0.33,-1.0,0.39,12.564599999999999,-0.7850000000000001,1.6561999999999983,175,75
2026-05-09 16:25:50.690,1,0.02,-0.3,1.56,-6.825200000000002,-1.1310000000000002,-5.2148,175,75
2026-05-09 16:25:50.700,1,0.02,-0.3,1.54,-6.5152,-1.440999999999999,-5.764800000000001,175,75
2026-05-09 16:25:50.710,3,-0.32,-1.0,0.38,14.874600000000001,-1.6350000000000016,1.2261999999999986,175,75
2026-05-09 16:25:50.710,4,0.59,0.43,1.29,4.719599999999998,3.6456000000000017,11.031400000000001,175,75
2026-05-09 16:25:50.710,2,0.41,0.03,1.09,-6.9924,-0.8115999999999994,4.943599999999989,175,75
2026-05-09 16:25:50.710,5,0.28,-0.13,1.02,-2.5196,-5.8355999999999995,3.065,175,75
2026-05-09 16:25:50.710,3,-0.32,-1.0,0.4,16.524600000000007,-0.6050000000000004,1.836199999999998,175,75
2026-05-09 16:25:50.710,1,0.02,-0.3,1.54,-6.145200000000003,-1.1310000000000002,-5.6448,175,75
2026-05-09 16:25:50.721,5,0.27,-0.14,1.02,-2.3796,-3.9956,4.765000000000001,175,75
2026-05-09 16:25:50.721,2,0.41,0.01,1.1,-11.6924,2.5484000000000004,6.4636,175,75
2026-05-09 16:25:50.721,1,0.02,-0.3,1.54,-5.965199999999999,-1.190999999999999,-5.824800000000003,175,75
2026-05-09 16:25:50.728,3,-0.33,-1.01,0.42,18.11460000000001,-1.4550000000000018,2.8161999999999985,175,75
2026-05-09 16:25:50.729,1,0.03,-0.29,1.54,-5.415200000000002,-0.5809999999999995,-5.944800000000001,175,75
2026-05-09 16:25:50.729,2,0.4,-0.01,1.1,-14.1924,4.438400000000001,7.013599999999997,175,75
2026-05-09 16:25:50.744,5,0.24,-0.14,1.02,-1.9796,-3.9656,8.444999999999999,175,75
2026-05-09 16:25:50.744,1,0.03,-0.28,1.54,-5.475200000000001,-0.8909999999999982,-6.004800000000003,175,75
2026-05-09 16:25:50.755,2,0.4,-0.02,1.1,-16.5024,4.928400000000001,7.323599999999999,175,75
2026-05-09 16:25:50.755,4,0.6,0.4,1.25,10.329600000000001,12.855599999999999,20.121399999999998,175,75
2026-05-09 16:25:50.755,2,0.39,-0.03,1.1,-17.3624,6.1484000000000005,7.743599999999994,175,75
2026-05-09 16:25:50.755,5,0.25,-0.15,1.02,-1.3896000000000002,-4.1356,8.344999999999999,175,75
2026-05-09 16:25:50.755,3,-0.32,-0.99,0.45,19.8146,-1.3949999999999996,3.666199999999998,175,75
2026-05-09 16:25:50.758,4,0.62,0.42,1.23,10.5096,23.4056,23.2914,175,75
2026-05-09 16:25:50.768,5,0.25,-0.16,1.01,-1.4796,-3.4055999999999997,8.334999999999999,175,75
2026-05-09 16:25:50.768,1,0.04,-0.3,1.56,-5.5352,-2.530999999999999,-5.824800000000003,175,75
2026-05-09 16:25:50.790,5,0.25,-0.18,1.01,-0.8196,-0.8755999999999999,7.785,175,75
2026-05-09 16:25:50.791,2,0.37,-0.08,1.11,-19.2524,6.268400000000001,9.453599999999994,175,75
2026-05-09 16:25:50.791,4,0.62,0.39,1.26,9.5296,35.8356,24.8214,175,75
2026-05-09 16:25:50.791,3,-0.33,-0.99,0.45,20.184600000000003,-4.015000000000001,4.3961999999999986,175,75
2026-05-09 16:25:50.802,2,0.37,-0.09,1.11,-19.6124,4.0084,9.823599999999999,175,75
2026-05-09 16:25:50.802,5,0.24,-0.2,1.02,-0.5896,0.20440000000000014,6.615,175,75
2026-05-09 16:25:50.802,5,0.24,-0.21,1.03,-0.6296,1.1944,5.465,175,75
2026-05-09 16:25:50.822,2,0.37,-0.12,1.1,-19.1224,-6.961599999999999,12.073599999999999,175,75
2026-05-09 16:25:50.836,4,0.6,0.36,1.29,7.0296,37.4256,21.5814,175,75
2026-05-09 16:25:50.836,4,0.59,0.36,1.29,5.259600000000001,34.7456,19.211399999999998,175,75
2026-05-09 16:25:50.836,2,0.37,-0.13,1.1,-19.1924,-10.2016,12.743599999999994,175,75
2026-05-09 16:25:50.836,3,-0.32,-1.01,0.47,20.674600000000012,-1.9450000000000003,5.856199999999998,175,75
2026-05-09 16:25:50.836,5,0.22,-0.21,1.06,-1.1196000000000002,0.5844,-0.14500000000000002,175,75
2026-05-09 16:25:50.872,5,0.23,-0.2,1.05,-2.5596,-1.1456,-5.815,175,75
2026-05-09 16:25:50.872,1,0.04,-0.31,1.54,-9.385200000000001,-1.3709999999999987,-8.934800000000003,175,75
2026-05-09 16:25:50.872,2,0.36,-0.17,1.06,-20.8324,-16.3516,12.803599999999996,175,75
2026-05-09 16:25:50.883,2,0.35,-0.16,1.03,-20.1024,-14.3416,12.193599999999996,175,75
2026-05-09 16:25:50.883,4,0.59,0.32,1.3,-1.080400000000001,17.1856,6.7714,175,75
2026-05-09 16:25:50.883,2,0.34,-0.16,1.01,-19.0624,-10.5016,11.163599999999995,175,75
2026-05-09 16:25:50.883,5,0.23,-0.21,1.04,-2.1496,-1.0556,-6.795,175,75
2026-05-09 16:25:50.883,1,0.04,-0.31,1.54,-9.935200000000002,-0.4609999999999985,-9.3048,175,75
2026-05-09 16:25:50.909,5,0.25,-0.22,1.03,-0.8796,-0.7755999999999998,-7.195,175,75
2026-05-09 16:25:50.909,1,0.05,-0.31,1.53,-10.295200000000001,0.2690000000000019,-9.974800000000002,175,75
2026-05-09 16:25:50.920,1,0.06,-0.3,1.53,-10.9052,1.429000000000002,-10.274800000000003,175,75
2026-05-09 16:25:50.920,2,0.32,-0.16,1.0,-19.1224,0.5984000000000007,9.333599999999997,175,75
2026-05-09 16:25:50.920,2,0.3,-0.15,0.98,-19.6724,9.868400000000001,7.993599999999994,175,75
2026-05-09 16:25:50.920,4,0.58,0.33,1.28,-8.0304,6.145600000000002,3.1714,175,75
2026-05-09 16:25:50.920,3,-0.34,-0.99,0.47,22.744600000000005,1.8349999999999973,7.5661999999999985,175,75
2026-05-09 16:25:50.930,1,0.05,-0.3,1.54,-11.575200000000002,1.7989999999999995,-10.3948,175,75
2026-05-09 16:25:50.930,2,0.29,-0.15,0.98,-19.8024,17.6684,7.383599999999994,175,75
2026-05-09 16:25:50.930,4,0.56,0.33,1.27,-11.6904,6.8156,4.5114,175,75
2026-05-09 16:25:50.930,2,0.29,-0.17,0.98,-20.2824,24.6184,6.9535999999999945,175,75
2026-05-09 16:25:50.930,1,0.05,-0.3,1.53,-12.615200000000002,2.219000000000001,-11.064800000000002,175,75
2026-05-09 16:25:50.943,5,0.25,-0.24,1.01,0.14039999999999997,-0.28559999999999985,-12.065000000000001,175,75
2026-05-09 16:25:50.943,4,0.58,0.34,1.28,-12.4804,16.3856,6.3414,175,75
2026-05-09 16:25:50.943,3,-0.35,-1.0,0.46,24.75460000000001,2.875,7.146199999999997,175,75
2026-05-09 16:25:50.943,1,0.05,-0.29,1.53,-12.915200000000002,2.408999999999999,-11.5548,175,75
2026-05-09 16:25:50.943,2,0.28,-0.17,0.98,-20.7724,31.1484,6.403599999999997,175,75
2026-05-09 16:25:50.943,5,0.24,-0.24,1.01,0.25039999999999996,-0.06559999999999988,-15.275,175,75
2026-05-09 16:25:50.943,3,-0.35,-0.99,0.49,26.9546,6.594999999999999,8.356199999999998,175,75
2026-05-09 16:25:50.962,5,0.24,-0.22,1.0,-0.20960000000000012,0.8544,-19.805,175,75
2026-05-09 16:25:50.962,3,-0.33,-1.0,0.5,27.134600000000006,5.984999999999999,8.176199999999998,175,75
2026-05-09 16:25:50.983,3,-0.33,-0.98,0.5,27.434600000000003,5.555,8.726199999999999,175,75
2026-05-09 16:25:50.983,4,0.61,0.39,1.22,-22.540399999999998,16.8156,7.3214,175,75
2026-05-09 16:25:50.983,3,-0.36,-0.98,0.53,28.47460000000001,8.844999999999999,10.066199999999998,175,75
2026-05-09 16:25:50.983,4,0.62,0.4,1.2,-23.8204,28.6456,10.0614,175,75
2026-05-09 16:25:50.983,1,0.06,-0.3,1.5,-13.4652,4.779,-13.1448,175,75
2026-05-09 16:25:50.993,5,0.27,-0.21,1.01,-1.2595999999999998,4.4344,-26.765,175,75
2026-05-09 16:25:50.993,3,-0.34,-1.0,0.56,27.50460000000001,6.414999999999999,8.726199999999999,175,75
2026-05-09 16:25:50.993,4,0.64,0.4,1.2,-26.8104,39.4956,12.3214,175,75
2026-05-09 16:25:51.006,3,-0.36,-0.98,0.55,26.3446,2.875,9.156199999999998,175,75
2026-05-09 16:25:51.006,5,0.26,-0.21,1.03,-1.9996,7.3344000000000005,-25.955,175,75
2026-05-09 16:25:51.006,4,0.64,0.4,1.21,-28.8804,48.5856,12.801400000000001,175,75
2026-05-09 16:25:51.006,1,0.06,-0.3,1.51,-13.2852,5.818999999999999,-13.814800000000002,175,75
2026-05-09 16:25:51.006,2,0.3,-0.2,1.03,-26.4424,45.5984,9.453599999999994,175,75
2026-05-09 16:25:51.012,5,0.25,-0.22,1.03,-2.4996,7.8744,-26.404999999999998,175,75
2026-05-09 16:25:51.012,2,0.31,-0.21,1.05,-28.272399999999998,46.2084,9.943599999999996,175,75
2026-05-09 16:25:51.049,3,-0.33,-0.98,0.6,22.924600000000012,6.344999999999999,10.2562,175,75
2026-05-09 16:25:51.049,2,0.34,-0.21,1.07,-32.4824,46.508399999999995,8.9636,175,75
2026-05-09 16:25:51.049,5,0.22,-0.23,1.05,-5.889600000000001,6.074400000000001,-32.915,175,75
2026-05-09 16:25:51.049,4,0.66,0.4,1.26,-33.2104,57.8556,15.0014,175,75
2026-05-09 16:25:51.060,2,0.35,-0.21,1.08,-35.4724,44.7984,8.293599999999998,175,75
2026-05-09 16:25:51.061,5,0.23,-0.21,1.05,-6.9496,5.064400000000001,-36.074999999999996,175,75
2026-05-09 16:25:51.061,1,0.06,-0.3,1.52,-14.4452,4.719000000000001,-16.5548,175,75
2026-05-09 16:25:51.061,2,0.35,-0.21,1.09,-43.4524,36.8184,7.933599999999998,175,75
2026-05-09 16:25:51.072,3,-0.35,-0.99,0.59,18.53460000000001,5.494999999999997,11.466199999999997,175,75
2026-05-09 16:25:51.072,4,0.63,0.42,1.27,-36.1404,52.72560000000001,16.5214,175,75
2026-05-09 16:25:51.072,1,0.08,-0.3,1.5,-14.0152,4.599,-17.1048,175,75
2026-05-09 16:25:51.072,3,-0.36,-0.98,0.58,18.294600000000003,6.594999999999999,12.386199999999999,175,75
2026-05-09 16:25:51.080,2,0.33,-0.23,1.07,-49.922399999999996,30.0484,8.903599999999997,175,75
2026-05-09 16:25:51.080,5,0.27,-0.17,1.04,-10.6096,5.394399999999999,-39.685,175,75
2026-05-09 16:25:51.091,1,0.07,-0.31,1.48,-14.5652,3.3790000000000013,-17.474800000000002,175,75
2026-05-09 16:25:51.091,4,0.62,0.4,1.27,-35.8304,52.72560000000001,17.191399999999998,175,75
2026-05-09 16:25:51.091,3,-0.36,-0.97,0.6,17.3146,9.585,13.786199999999997,175,75
2026-05-09 16:25:51.091,2,0.32,-0.24,1.06,-53.0924,27.4284,9.453599999999994,175,75
2026-05-09 16:25:51.091,5,0.29,-0.17,1.04,-11.839599999999999,6.404399999999999,-38.625,175,75
2026-05-09 16:25:51.103,3,-0.35,-0.98,0.61,15.61460000000001,8.844999999999999,13.786199999999997,175,75
2026-05-09 16:25:51.103,2,0.3,-0.24,1.04,-56.9324,26.7584,9.3936,175,75
2026-05-09 16:25:51.114,3,-0.36,-0.97,0.61,13.784600000000012,6.774999999999999,14.456199999999999,175,75
2026-05-09 16:25:51.114,5,0.29,-0.18,1.04,-13.179599999999999,9.324399999999999,-34.275,175,75
2026-05-09 16:25:51.114,2,0.27,-0.23,1.01,-63.7024,30.168400000000002,11.103599999999993,175,75
2026-05-09 16:25:51.124,4,0.6,0.4,1.27,-35.1604,53.2156,16.1614,175,75
2026-05-09 16:25:51.124,4,0.58,0.4,1.29,-33.7004,51.9956,14.6914,175,75
2026-05-09 16:25:51.124,3,-0.37,-0.96,0.59,12.50460000000001,6.714999999999996,15.496199999999998,175,75
2026-05-09 16:25:51.124,5,0.28,-0.19,1.05,-13.599599999999999,9.8544,-32.785000000000004,175,75
2026-05-09 16:25:51.124,1,0.08,-0.3,1.46,-11.025200000000002,4.0489999999999995,-18.5648,175,75
2026-05-09 16:25:51.137,4,0.56,0.41,1.3,-31.080399999999997,49.9256,14.2714,175,75
2026-05-09 16:25:51.137,4,0.55,0.41,1.3,-28.330399999999997,46.5756,13.8414,175,75
2026-05-09 16:25:51.149,5,0.25,-0.21,1.06,-13.9896,9.574399999999999,-34.665,175,75
2026-05-09 16:25:51.149,3,-0.37,-0.97,0.59,10.61460000000001,7.015000000000001,16.286199999999997,175,75
2026-05-09 16:25:51.149,4,0.52,0.4,1.32,-24.0604,41.6956,13.2314,175,75
2026-05-09 16:25:51.149,2,0.18,-0.28,0.95,-86.69239999999999,54.7384,16.8936,175,75
2026-05-09 16:25:51.169,5,0.25,-0.22,1.07,-14.1196,8.8844,-40.015,175,75
2026-05-09 16:25:51.169,4,0.43,0.41,1.36,-15.0404,42.6056,13.721400000000001,175,75
2026-05-09 16:25:51.169,2,0.15,-0.28,0.9,-94.0024,65.4084,20.063599999999994,175,75
2026-05-09 16:25:51.169,3,-0.4,-0.98,0.61,8.2346,9.515,17.5062,175,75
2026-05-09 16:25:51.169,1,0.14,-0.34,1.41,-6.215199999999999,19.839,-23.9948,175,75
2026-05-09 16:25:51.188,3,-0.41,-0.97,0.61,6.954599999999999,9.274999999999999,16.2262,175,75
2026-05-09 16:25:51.188,1,0.11,-0.31,1.43,-2.3652000000000015,24.109,-23.384800000000002,175,75
2026-05-09 16:25:51.188,5,0.26,-0.22,1.08,-13.419599999999999,9.0144,-43.995,175,75
2026-05-09 16:25:51.188,4,0.26,0.45,1.6,20.2596,54.86559999999999,25.851399999999998,175,75
2026-05-09 16:25:51.188,2,0.08,-0.24,0.81,-114.1224,90.1084,30.673599999999993,175,75
2026-05-09 16:25:51.199,5,0.27,-0.22,1.1,-12.849599999999999,9.2144,-44.265,175,75
2026-05-09 16:25:51.199,4,0.28,0.45,1.71,39.6496,40.2256,30.6714,175,75
2026-05-09 16:25:51.199,2,0.06,-0.25,0.8,-124.0024,107.9084,35.6136,175,75
2026-05-09 16:25:51.199,3,-0.4,-0.95,0.62,4.934600000000003,14.884999999999998,17.266199999999998,175,75
2026-05-09 16:25:51.199,1,0.18,-0.38,1.45,7.444800000000001,29.359,-20.644800000000004,175,75
2026-05-09 16:25:51.209,5,0.27,-0.22,1.11,-11.939599999999999,9.4244,-43.585,175,75
2026-05-09 16:25:51.210,2,0.03,-0.32,0.82,-135.5324,140.95839999999998,37.803599999999996,175,75
2026-05-09 16:25:51.210,4,0.37,0.36,1.76,58.009600000000006,-17.1444,29.7514,175,75
2026-05-09 16:25:51.228,5,0.25,-0.24,1.15,-8.2296,8.654399999999999,-42.394999999999996,175,75
2026-05-09 16:25:51.228,2,0.03,-0.43,0.87,-145.2824,182.3684,35.0036,175,75
2026-05-09 16:25:51.228,4,0.45,0.25,1.68,65.9396,-77.45439999999999,20.4214,175,75
2026-05-09 16:25:51.228,1,0.16,-0.35,1.43,14.9448,30.639000000000003,-18.6948,175,75
2026-05-09 16:25:51.228,4,0.5,0.13,1.52,68.4396,-134.6444,5.7314,175,75
2026-05-09 16:25:51.228,2,0.07,-0.55,0.97,-153.8824,216.5684,27.3236,175,75
2026-05-09 16:25:51.239,5,0.21,-0.24,1.15,-6.129600000000001,7.2143999999999995,-43.295,175,75
2026-05-09 16:25:51.239,3,-0.4,-0.97,0.64,-0.8553999999999888,17.015,18.5462,175,75
2026-05-09 16:25:51.239,1,0.18,-0.34,1.44,17.754799999999996,30.519,-16.9848,175,75
2026-05-09 16:25:51.239,4,0.55,0.02,1.27,67.5196,-186.90439999999998,-14.388599999999999,175,75
2026-05-09 16:25:51.252,4,0.57,-0.03,1.04,59.7796,-213.5544,-28.4186,175,75
2026-05-09 16:25:51.252,2,0.12,-0.7,1.21,-169.8624,244.4984,5.793599999999998,175,75
2026-05-09 16:25:51.252,3,-0.48,-0.95,0.58,-4.325399999999988,18.174999999999997,16.4062,175,75
2026-05-09 16:25:51.263,1,0.15,-0.31,1.45,22.6948,30.209000000000003,-15.824800000000002,175,75
2026-05-09 16:25:51.263,5,0.16,-0.17,1.14,0.38039999999999996,-4.175599999999999,-56.135,175,75
2026-05-09 16:25:51.263,3,-0.46,-0.96,0.58,-4.695399999999992,22.695,15.4362,175,75
2026-05-09 16:25:51.274,1,0.08,-0.29,1.46,26.284799999999997,29.659,-12.8948,175,75
2026-05-09 16:25:51.289,4,0.54,0.2,0.65,-5.5304,-90.1944,-4.208600000000001,175,75
2026-05-09 16:25:51.289,2,0.22,-0.65,1.42,-175.5924,148.70839999999998,-9.266400000000004,175,75
2026-05-09 16:25:51.296,2,0.26,-0.61,1.44,-176.26239999999999,96.2084,-3.476399999999998,175,75
2026-05-09 16:25:51.296,4,0.57,0.27,0.67,-33.6404,50.2256,37.741400000000006,175,75
2026-05-09 16:25:51.330,3,-0.45,-0.97,0.58,-8.715399999999988,19.155,15.0062,175,75
2026-05-09 16:25:51.330,2,0.3,-0.6,1.39,-178.2124,-8.6116,12.263599999999997,175,75
2026-05-09 16:25:51.330,2,0.29,-0.61,1.33,-176.6224,-41.2316,16.653599999999997,175,75
2026-05-09 16:25:51.330,4,0.68,0.04,0.97,-79.3704,151.5756,50.001400000000004,175,75
2026-05-09 16:25:51.341,1,-0.24,-0.21,1.14,30.004799999999996,88.25900000000001,2.405199999999997,175,75
2026-05-09 16:25:51.341,3,-0.47,-0.98,0.59,-9.085399999999993,16.955,15.6162,175,75
2026-05-09 16:25:51.341,2,0.29,-0.6,1.26,-172.9124,-55.8116,19.513599999999997,175,75
2026-05-09 16:25:51.341,4,0.69,0.01,1.03,-97.4204,160.53560000000002,43.2314,175,75
2026-05-09 16:25:51.341,5,0.22,0.05,1.1,4.3504,-11.9756,-42.824999999999996,175,75
2026-05-09 16:25:51.353,3,-0.47,-0.99,0.58,-8.965399999999988,15.735,13.236199999999997,175,75
2026-05-09 16:25:51.353,1,-0.31,-0.23,1.1,28.544800000000002,114.59900000000002,8.745199999999997,175,75
2026-05-09 16:25:51.353,2,0.28,-0.58,1.2,-167.9124,-61.2916,21.223599999999998,175,75
2026-05-09 16:25:51.353,5,0.23,0.07,1.08,4.8304,-14.505600000000001,-41.015,175,75
2026-05-09 16:25:51.364,3,-0.44,-0.98,0.59,-8.595399999999998,10.494999999999997,12.146199999999997,175,75
2026-05-09 16:25:51.364,2,0.28,-0.58,1.15,-163.3924,-58.4316,22.743599999999994,175,75
2026-05-09 16:25:51.364,5,0.23,0.08,1.08,6.030399999999999,-17.9256,-41.615,175,75
2026-05-09 16:25:51.364,1,-0.55,-0.33,0.92,11.104799999999997,186.369,13.995199999999997,175,75
2026-05-09 16:25:51.364,3,-0.46,-0.96,0.56,-9.2654,6.535,12.626199999999997,175,75
2026-05-09 16:25:51.376,2,0.26,-0.55,1.08,-159.4324,-37.1516,24.023599999999995,175,75
2026-05-09 16:25:51.376,5,0.27,0.09,1.07,7.8004,-21.4056,-43.165,175,75
2026-05-09 16:25:51.393,2,0.26,-0.55,1.05,-157.7824,-5.9315999999999995,23.663599999999995,175,75
2026-05-09 16:25:51.393,3,-0.53,-1.0,0.52,-7.2553999999999945,8.784999999999997,9.0962,175,75
2026-05-09 16:25:51.393,5,0.36,0.1,1.06,8.330400000000001,-26.645599999999998,-42.635,175,75
2026-05-09 16:25:51.393,4,0.63,-0.09,1.2,-143.2104,166.5756,13.6014,175,75
2026-05-09 16:25:51.423,1,-0.42,-1.19,0.84,-144.3252,286.309,13.0152,175,75
2026-05-09 16:25:51.423,3,-0.47,-0.97,0.57,-4.2654,7.085000000000001,2.206199999999999,175,75
2026-05-09 16:25:51.423,4,0.6,-0.19,1.22,-168.6404,122.85560000000001,-17.6786,175,75
2026-05-09 16:25:51.435,2,0.26,-0.54,1.04,-157.1724,95.2284,12.193599999999996,175,75
2026-05-09 16:25:51.435,1,-0.04,-1.66,1.22,-230.7252,210.699,18.8052,175,75
2026-05-09 16:25:51.435,5,0.29,0.02,0.94,-1.2496,-11.4056,-36.935,175,75
2026-05-09 16:25:51.447,2,0.26,-0.52,1.06,-159.4924,107.6084,11.773599999999995,175,75
2026-05-09 16:25:51.447,4,0.52,-0.18,1.21,-179.4904,106.44560000000001,-27.0086,175,75
2026-05-09 16:25:51.447,1,0.17,-1.81,1.21,-275.4752,152.339,17.2252,175,75
2026-05-09 16:25:51.447,2,0.28,-0.52,1.08,-161.3824,119.7984,9.633599999999994,175,75
2026-05-09 16:25:51.458,4,0.46,-0.18,1.19,-185.2804,98.88560000000001,-31.0986,175,75
2026-05-09 16:25:51.458,1,0.27,-1.81,1.12,-311.27520000000004,90.089,16.495199999999997,175,75
2026-05-09 16:25:51.468,5,0.21,0.03,0.96,-9.6196,1.2644000000000002,-36.095,175,75
2026-05-09 16:25:51.468,3,-0.45,-0.95,0.58,-6.4054,6.714999999999996,5.736199999999997,175,75
2026-05-09 16:25:51.468,2,0.29,-0.54,1.17,-156.4424,163.1584,-0.7263999999999982,175,75
2026-05-09 16:25:51.468,4,0.47,-0.16,1.16,-197.3004,93.5256,-35.5486,175,75
2026-05-09 16:25:51.468,1,0.24,-1.6,1.05,-349.99519999999995,13.988999999999997,23.255199999999995,175,75
2026-05-09 16:25:51.468,5,0.24,0.04,1.0,-11.0496,5.1744,-33.785000000000004,175,75
2026-05-09 16:25:51.483,4,0.49,-0.16,1.13,-200.3504,91.32560000000001,-39.758599999999994,175,75
2026-05-09 16:25:51.495,2,0.27,-0.55,1.21,-151.2024,186.9384,-11.156400000000005,175,75
2026-05-09 16:25:51.495,4,0.48,-0.14,1.11,-200.4704,91.9956,-45.178599999999996,175,75
2026-05-09 16:25:51.495,2,0.23,-0.53,1.27,-146.1424,203.76839999999999,-17.2564,175,75
2026-05-09 16:25:51.495,5,0.29,0.06,1.12,-8.6996,15.064400000000001,-21.055,175,75
2026-05-09 16:25:51.495,1,0.1,-1.25,0.79,-358.64520000000005,-36.071,35.5152,175,75
2026-05-09 16:25:51.506,3,-0.45,-0.99,0.56,-4.085399999999993,14.884999999999998,10.0062,175,75
2026-05-09 16:25:51.506,2,0.2,-0.52,1.32,-138.4524,217.6684,-23.16640000000001,175,75
2026-05-09 16:25:51.506,5,0.29,0.06,1.17,-7.0596000000000005,19.7544,-9.575000000000001,175,75
2026-05-09 16:25:51.506,4,0.48,-0.13,1.12,-198.3304,91.75559999999999,-49.0286,175,75
2026-05-09 16:25:51.506,2,0.18,-0.52,1.37,-129.3124,224.8684,-27.6764,175,75
2026-05-09 16:25:51.517,3,-0.44,-1.01,0.61,-3.2353999999999985,2.3249999999999993,5.856199999999998,175,75
2026-05-09 16:25:51.517,5,0.24,0.04,1.19,-4.7296000000000005,20.974400000000003,2.485,175,75
2026-05-09 16:25:51.517,4,0.46,-0.11,1.15,-195.1004,86.5156,-53.8386,175,75
2026-05-09 16:25:51.517,1,0.05,-1.06,0.76,-362.3052,-21.371,48.745200000000004,175,75
2026-05-09 16:25:51.517,3,-0.49,-0.99,0.56,-3.105399999999989,-3.0450000000000017,4.6461999999999986,175,75
2026-05-09 16:25:51.528,5,0.17,0.02,1.2,-1.9796,17.474400000000003,13.254999999999999,175,75
2026-05-09 16:25:51.528,2,0.17,-0.5,1.44,-115.5324,220.5384,-32.49640000000001,175,75
2026-05-09 16:25:51.528,4,0.46,-0.08,1.19,-192.1104,77.3056,-59.0886,175,75
2026-05-09 16:25:51.528,1,0.08,-0.98,0.73,-362.0652,-5.760999999999999,51.1252,175,75
2026-05-09 16:25:51.528,3,-0.49,-1.0,0.53,-2.7453999999999894,-5.785,3.1161999999999974,175,75
2026-05-09 16:25:51.538,5,0.1,-0.02,1.18,0.0603999999999999,8.8144,21.255000000000003,175,75
2026-05-09 16:25:51.538,4,0.45,-0.03,1.22,-190.2204,69.4356,-62.258599999999994,175,75
2026-05-09 16:25:51.538,2,0.15,-0.47,1.48,-105.7124,203.76839999999999,-35.4864,175,75
2026-05-09 16:25:51.538,1,0.13,-0.9,0.76,-357.1852,13.558999999999997,54.6052,175,75
2026-05-09 16:25:51.552,3,-0.56,-0.98,0.47,-1.1554000000000002,-7.305,0.7961999999999989,175,75
2026-05-09 16:25:51.552,2,0.14,-0.43,1.5,-100.7724,186.1484,-36.4564,175,75
2026-05-09 16:25:51.552,4,0.44,0.03,1.27,-186.5604,59.4356,-64.4486,175,75
2026-05-09 16:25:51.552,1,0.21,-0.77,0.85,-350.35519999999997,29.779000000000003,53.6252,175,75
2026-05-09 16:25:51.552,5,0.13,-0.1,1.13,3.1604,-10.8556,28.025000000000002,175,75
2026-05-09 16:25:51.569,3,-0.53,-0.97,0.47,3.2946000000000026,2.0849999999999973,-4.323800000000002,175,75
2026-05-09 16:25:51.569,1,0.29,-0.67,1.02,-341.75519999999995,36.609,54.2352,175,75
2026-05-09 16:25:51.569,2,0.12,-0.39,1.54,-94.19239999999999,162.2984,-35.05640000000001,175,75
2026-05-09 16:25:51.569,5,0.19,-0.14,1.12,4.0004,-16.3656,27.065,175,75
2026-05-09 16:25:51.569,1,0.35,-0.56,1.19,-332.4352,34.109,55.2152,175,75
2026-05-09 16:25:51.569,2,0.09,-0.37,1.54,-86.9924,146.7584,-32.80640000000001,175,75
2026-05-09 16:25:51.569,4,0.49,0.12,1.32,-174.6704,47.7956,-63.898599999999995,175,75
2026-05-09 16:25:51.581,5,0.26,-0.18,1.1,4.8804,-18.3156,23.925,175,75
2026-05-09 16:25:51.604,3,-0.5,-0.97,0.55,4.454599999999999,3.724999999999998,-5.843800000000002,175,75
2026-05-09 16:25:51.614,1,0.3,-0.14,1.5,-287.4952,6.7989999999999995,50.025200000000005,175,75
2026-05-09 16:25:51.649,5,0.26,-0.22,1.01,8.9604,0.4344000000000001,-17.555,175,75
2026-05-09 16:25:51.650,4,0.51,0.25,1.29,-160.4704,50.775600000000004,-52.5586,175,75
2026-05-09 16:25:51.650,5,0.25,-0.18,1.0,9.0404,4.404400000000001,-31.064999999999998,175,75
2026-05-09 16:25:51.650,5,0.26,-0.13,1.03,9.080400000000001,6.5443999999999996,-40.735,175,75
2026-05-09 16:25:51.672,3,-0.48,-0.95,0.55,4.634600000000006,1.0449999999999982,-5.843800000000002,175,75
2026-05-09 16:25:51.672,5,0.27,0.01,1.06,4.1604,4.4144000000000005,-43.495,175,75
2026-05-09 16:25:51.683,2,0.04,-0.29,1.57,-25.6524,117.2384,-22.126400000000004,175,75
2026-05-09 16:25:51.683,4,0.5,0.41,1.45,-134.1904,91.9956,-12.8086,175,75
2026-05-09 16:25:51.683,5,0.28,0.04,1.05,2.2504,1.3444000000000003,-36.324999999999996,175,75
2026-05-09 16:25:51.683,1,0.27,0.25,1.59,-209.5052,0.3290000000000006,41.6752,175,75
2026-05-09 16:25:51.683,2,0.09,-0.27,1.64,-17.7224,81.9984,-17.736400000000003,175,75
2026-05-09 16:25:51.683,5,0.29,0.06,1.04,0.38039999999999996,-1.4256,-27.125,175,75
2026-05-09 16:25:51.695,4,0.51,0.43,1.49,-126.2604,99.6856,-3.4786,175,75
2026-05-09 16:25:51.695,1,0.29,0.34,1.59,-188.1052,3.1389999999999993,38.3252,175,75
2026-05-09 16:25:51.695,2,0.12,-0.24,1.66,-12.5424,53.94840000000001,-15.426400000000001,175,75
2026-05-09 16:25:51.695,3,-0.46,-0.96,0.54,3.2346000000000004,-4.625,-4.813800000000001,175,75
2026-05-09 16:25:51.704,1,0.29,0.44,1.58,-162.1852,5.759,36.0652,175,75
2026-05-09 16:25:51.704,4,0.48,0.46,1.56,-111.6904,100.90559999999999,10.0014,175,75
2026-05-09 16:25:51.704,3,-0.47,-0.95,0.53,3.7246000000000095,-4.445,-4.383800000000002,175,75
2026-05-09 16:25:51.707,1,0.29,0.47,1.63,-135.0552,13.988999999999997,31.855199999999996,175,75
2026-05-09 16:25:51.713,5,0.32,0.04,1.02,-4.099600000000001,-0.17559999999999998,-8.435,175,75
2026-05-09 16:25:51.713,3,-0.47,-0.94,0.53,3.904600000000002,-3.835000000000001,-4.013800000000002,175,75
2026-05-09 16:25:51.728,5,0.32,0.02,1.02,-5.099600000000001,2.3943999999999996,-6.535,175,75
2026-05-09 16:25:51.728,4,0.47,0.47,1.59,-101.6904,98.88560000000001,17.9914,175,75
2026-05-09 16:25:51.728,1,0.31,0.53,1.64,-110.7852,19.169000000000004,25.885199999999998,175,75
2026-05-09 16:25:51.728,2,0.17,-0.22,1.62,-5.4724,-5.621599999999999,-9.7564,175,75
2026-05-09 16:25:51.728,2,0.17,-0.23,1.58,-4.1224,-24.4016,-7.806400000000011,175,75
2026-05-09 16:25:51.728,3,-0.47,-0.97,0.53,4.024600000000007,-4.265000000000001,-3.953800000000002,175,75
2026-05-09 16:25:51.740,4,0.47,0.48,1.63,-90.5904,96.63560000000001,24.0214,175,75
2026-05-09 16:25:51.740,5,0.3,0.0,1.02,-5.6896,4.8644,-5.695,175,75
2026-05-09 16:25:51.740,1,0.3,0.62,1.66,-88.5852,25.448999999999998,20.5152,175,75
2026-05-09 16:25:51.740,2,0.17,-0.25,1.52,-3.2723999999999998,-40.501599999999996,-6.2764000000000095,175,75
2026-05-09 16:25:51.740,3,-0.47,-0.97,0.53,5.36460000000001,-3.405000000000001,-4.503800000000002,175,75
2026-05-09 16:25:51.740,4,0.47,0.46,1.64,-80.71039999999999,91.38560000000001,28.781399999999998,175,75
2026-05-09 16:25:51.740,5,0.29,-0.02,1.02,-5.2296000000000005,6.1744,-4.615,175,75
2026-05-09 16:25:51.753,3,-0.46,-0.95,0.54,6.404600000000002,-1.9450000000000003,-4.383800000000002,175,75
2026-05-09 16:25:51.763,5,0.26,-0.04,1.04,-4.4596,4.7644,-1.0950000000000002,175,75
2026-05-09 16:25:51.763,1,0.29,0.7,1.72,-39.1352,33.499,11.1252,175,75
2026-05-09 16:25:51.775,1,0.29,0.73,1.74,-19.075200000000002,34.049,4.725200000000001,175,75
2026-05-09 16:25:51.775,4,0.46,0.43,1.66,-54.3704,68.2756,36.1614,175,75
2026-05-09 16:25:51.775,5,0.25,-0.05,1.03,-3.1796,2.6443999999999996,0.585,175,75
2026-05-09 16:25:51.775,2,0.15,-0.25,1.38,8.247599999999998,-16.171599999999998,-9.876400000000004,175,75
2026-05-09 16:25:51.775,3,-0.46,-0.97,0.53,7.684600000000003,-6.825000000000003,-2.373800000000001,175,75
2026-05-09 16:25:51.790,5,0.25,-0.06,1.03,-2.5096,1.7644000000000002,1.815,175,75
2026-05-09 16:25:51.790,2,0.17,-0.26,1.4,11.297600000000003,-5.381599999999999,-11.336399999999998,175,75
2026-05-09 16:25:51.790,1,0.3,0.77,1.79,29.214799999999997,25.269,-5.034800000000001,175,75
2026-05-09 16:25:51.790,3,-0.46,-0.98,0.54,8.8446,-7.795000000000002,-2.1838000000000015,175,75
2026-05-09 16:25:51.790,4,0.48,0.41,1.61,-33.5204,52.2456,39.3314,175,75
2026-05-09 16:25:51.800,5,0.25,-0.08,1.02,-1.4095999999999997,1.0144000000000002,2.3249999999999997,175,75
2026-05-09 16:25:51.800,1,0.3,0.74,1.8,50.314800000000005,18.929000000000002,-8.634800000000002,175,75
2026-05-09 16:25:51.800,2,0.21,-0.26,1.45,14.8976,-2.5115999999999996,-12.376400000000004,175,75
2026-05-09 16:25:51.800,5,0.25,-0.07,1.02,-0.6496000000000001,1.8644000000000003,1.125,175,75
2026-05-09 16:25:51.827,3,-0.48,-0.96,0.54,12.434600000000003,-8.105,-2.9838000000000022,175,75
2026-05-09 16:25:51.827,1,0.29,0.65,1.73,100.25479999999999,2.158999999999999,-18.2648,175,75
2026-05-09 16:25:51.827,5,0.26,-0.06,1.04,1.2004,4.494400000000001,-2.1750000000000003,175,75
2026-05-09 16:25:51.827,2,0.25,-0.25,1.48,18.5576,-22.4516,-11.0364,175,75
2026-05-09 16:25:51.827,4,0.48,0.4,1.57,-16.5604,44.3156,41.5214,175,75
2026-05-09 16:25:51.827,4,0.48,0.38,1.54,-6.8704,40.9656,42.4414,175,75
2026-05-09 16:25:51.838,2,0.26,-0.24,1.48,18.6776,-35.381600000000006,-9.386400000000009,175,75
2026-05-09 16:25:51.838,1,0.27,0.58,1.66,125.3748,-3.690999999999999,-22.7148,175,75
2026-05-09 16:25:51.838,5,0.26,-0.04,1.05,2.2204,5.2943999999999996,-3.165,175,75
2026-05-09 16:25:51.838,4,0.48,0.36,1.53,2.2796000000000003,39.8656,43.4714,175,75
2026-05-09 16:25:51.838,2,0.26,-0.24,1.46,18.5576,-47.211600000000004,-8.046400000000006,175,75
2026-05-09 16:25:51.838,1,0.25,0.54,1.6,144.5848,-6.370999999999999,-27.2848,175,75
2026-05-09 16:25:51.849,5,0.26,-0.02,1.06,2.8904,5.144399999999999,-3.415,175,75
2026-05-09 16:25:51.849,3,-0.49,-0.95,0.55,13.784600000000012,-9.445,-3.533800000000002,175,75
2026-05-09 16:25:51.849,4,0.48,0.34,1.52,8.1896,40.1056,44.211400000000005,175,75
2026-05-09 16:25:51.849,1,0.23,0.5,1.57,160.3148,-8.631,-30.9448,175,75
2026-05-09 16:25:51.849,2,0.26,-0.25,1.43,19.8976,-52.4516,-9.016400000000004,175,75
2026-05-09 16:25:51.860,5,0.24,-0.01,1.07,4.0604,3.9144,-2.415,175,75
2026-05-09 16:25:51.860,3,-0.47,-0.97,0.55,15.244600000000005,-9.135000000000002,-4.443800000000002,175,75
2026-05-09 16:25:51.860,4,0.48,0.32,1.52,14.589599999999999,42.2456,44.751400000000004,175,75
2026-05-09 16:25:51.860,5,0.24,0.0,1.07,4.8004,1.4144,-0.5950000000000002,175,75
2026-05-09 16:25:51.870,3,-0.47,-0.97,0.55,16.524600000000007,-9.935,-5.173800000000002,175,75
2026-05-09 16:25:51.870,4,0.49,0.32,1.54,18.799599999999998,44.1956,45.6114,175,75
2026-05-09 16:25:51.870,3,-0.46,-0.96,0.55,17.25460000000001,-12.185,-4.993800000000002,175,75
2026-05-09 16:25:51.870,5,0.23,0.01,1.05,5.0604,-2.0656,2.235,175,75
2026-05-09 16:25:51.882,5,0.24,0.01,1.05,5.360399999999999,-4.9856,5.865,175,75
2026-05-09 16:25:51.882,1,0.14,0.36,1.51,212.8748,-12.231,-40.8248,175,75
2026-05-09 16:25:51.899,2,0.23,-0.23,1.35,27.4576,-51.2316,-11.766400000000004,175,75
2026-05-09 16:25:51.899,5,0.25,0.01,1.03,5.620399999999999,-7.0356000000000005,9.155,175,75
2026-05-09 16:25:51.899,1,0.11,0.3,1.5,224.7048,-11.440999999999999,-42.714800000000004,175,75
2026-05-09 16:25:51.899,3,-0.44,-0.96,0.58,20.674600000000012,-10.295000000000002,-4.743800000000002,175,75
2026-05-09 16:25:51.899,2,0.23,-0.21,1.35,28.1276,-45.8716,-12.066400000000002,175,75
2026-05-09 16:25:51.913,3,-0.44,-0.97,0.58,20.674600000000012,-14.995000000000001,-4.013800000000002,175,75
2026-05-09 16:25:51.913,1,0.12,0.24,1.45,239.4648,-8.690999999999999,-42.6548,175,75
2026-05-09 16:25:51.913,2,0.22,-0.2,1.36,30.2676,-39.16159999999999,-13.77640000000001,175,75
2026-05-09 16:25:51.913,5,0.26,0.01,1.02,5.2204,-9.7656,13.155,175,75
2026-05-09 16:25:51.913,4,0.5,0.27,1.6,43.5596,14.8656,39.751400000000004,175,75
2026-05-09 16:25:51.941,1,0.09,0.13,1.36,262.0248,5.029,-42.2248,175,75
2026-05-09 16:25:51.941,4,0.49,0.26,1.56,53.67960000000001,5.2956,36.5814,175,75
2026-05-09 16:25:51.941,1,0.13,0.11,1.4,270.98479999999995,14.359000000000002,-41.8648,175,75
2026-05-09 16:25:51.953,3,-0.41,-0.97,0.54,29.024600000000007,-20.905,-2.493800000000002,175,75
2026-05-09 16:25:51.953,4,0.48,0.27,1.55,58.129599999999996,4.435600000000001,35.0614,175,75
2026-05-09 16:25:51.965,5,0.23,0.03,0.96,7.2904,-16.1256,10.674999999999999,175,75
2026-05-09 16:25:51.965,3,-0.47,-0.93,0.54,31.9546,-19.385,-0.48380000000000223,175,75
2026-05-09 16:25:51.965,2,0.2,-0.2,1.41,40.077600000000004,-37.0916,-15.366399999999999,175,75
2026-05-09 16:25:51.984,5,0.24,0.03,0.94,8.1004,-16.7256,10.955,175,75
2026-05-09 16:25:51.984,3,-0.49,-0.92,0.58,35.42460000000001,-14.135000000000002,-0.48380000000000223,175,75
2026-05-09 16:25:51.984,1,0.16,0.02,1.45,288.7848,5.879000000000001,-35.3348,175,75
2026-05-09 16:25:51.984,2,0.19,-0.21,1.42,44.717600000000004,-43.1216,-15.606400000000008,175,75
2026-05-09 16:25:51.984,5,0.24,0.04,0.92,8.7504,-15.7756,12.785,175,75
2026-05-09 16:25:51.984,4,0.46,0.27,1.56,66.6096,1.8756000000000004,32.3814,175,75
2026-05-09 16:25:51.996,3,-0.45,-0.92,0.62,37.504599999999996,-16.515,-3.4638000000000018,175,75
2026-05-09 16:25:51.996,1,0.12,-0.05,1.38,297.9348,3.019000000000002,-38.6348,175,75
2026-05-09 16:25:51.996,5,0.24,0.05,0.92,9.3804,-14.8056,15.475,175,75
2026-05-09 16:25:51.996,4,0.46,0.27,1.56,71.78960000000001,-3.6744000000000003,31.031399999999998,175,75
2026-05-09 16:25:51.996,3,-0.45,-0.89,0.61,36.58460000000001,-23.525000000000002,-2.9238000000000017,175,75
2026-05-09 16:25:52.001,2,0.17,-0.19,1.41,49.2876,-55.2616,-15.30640000000001,175,75
2026-05-09 16:25:52.001,5,0.26,0.07,0.94,9.8804,-14.2456,19.345000000000002,175,75
2026-05-09 16:25:52.016,4,0.44,0.26,1.52,83.9196,-7.3944,28.781399999999998,175,75
2026-05-09 16:25:52.042,2,0.17,-0.18,1.44,51.4876,-65.44160000000001,-16.766400000000004,175,75
2026-05-09 16:25:52.042,1,0.18,-0.43,1.23,318.7848,12.099000000000004,-18.0248,175,75
2026-05-09 16:25:52.042,2,0.17,-0.2,1.45,52.6376,-70.0716,-16.766400000000004,175,75
2026-05-09 16:25:52.042,5,0.17,0.15,1.0,2.1204,-32.2256,27.895,175,75
2026-05-09 16:25:52.042,1,0.2,-0.53,1.21,314.8248,-5.521000000000001,-13.634800000000002,175,75
2026-05-09 16:25:52.047,2,0.16,-0.21,1.45,54.1676,-75.3216,-17.126400000000004,175,75
2026-05-09 16:25:52.058,5,0.2,0.15,0.96,-0.12960000000000005,-37.6156,26.505000000000003,175,75
2026-05-09 16:25:52.058,3,-0.4,-0.91,0.71,39.63459999999999,-22.735,3.9061999999999983,175,75
2026-05-09 16:25:52.058,1,0.27,-0.69,1.25,305.4348,-42.841,-8.634800000000002,175,75
2026-05-09 16:25:52.058,4,0.42,0.25,1.68,102.5196,0.4155999999999995,31.1614,175,75
2026-05-09 16:25:52.060,5,0.25,0.15,0.93,-1.1296,-37.7256,26.055,175,75
2026-05-09 16:25:52.060,1,0.19,-0.85,1.2,293.3048,-84.36099999999999,-7.344800000000003,175,75
2026-05-09 16:25:52.064,4,0.43,0.21,1.7,108.0096,-21.4144,28.051399999999997,175,75
2026-05-09 16:25:52.079,5,0.29,0.15,0.92,-1.2995999999999999,-32.2156,27.095000000000002,175,75
2026-05-09 16:25:52.079,2,0.16,-0.22,1.46,59.107600000000005,-87.8816,-13.956400000000002,175,75
2026-05-09 16:25:52.079,1,0.06,-1.06,1.05,276.96479999999997,-129.911,-6.8648000000000025,175,75
2026-05-09 16:25:52.079,3,-0.42,-0.95,0.68,40.36460000000001,-28.165,5.616199999999999,175,75
2026-05-09 16:25:52.079,4,0.45,0.18,1.66,115.0796,-49.1644,22.441399999999998,175,75
2026-05-09 16:25:52.079,5,0.32,0.15,0.91,-1.0396,-24.9456,30.945,175,75
2026-05-09 16:25:52.090,2,0.16,-0.23,1.48,60.6876,-91.8416,-15.366399999999999,175,75
2026-05-09 16:25:52.090,1,-0.13,-1.14,0.98,258.5448,-165.701,-7.7148,175,75
2026-05-09 16:25:52.090,4,0.46,0.17,1.61,121.5496,-65.7444,18.8414,175,75
2026-05-09 16:25:52.090,3,-0.45,-0.95,0.7,41.64460000000001,-27.375,7.6861999999999995,175,75
2026-05-09 16:25:52.090,5,0.33,0.16,0.92,-0.28959999999999997,-18.115599999999997,37.095,175,75
2026-05-09 16:25:52.100,2,0.17,-0.22,1.5,60.2676,-92.2116,-15.606400000000008,175,75
2026-05-09 16:25:52.100,1,-0.18,-1.08,0.99,240.55479999999997,-192.781,-9.3048,175,75
2026-05-09 16:25:52.100,4,0.45,0.16,1.54,126.5496,-72.0844,16.5214,175,75
2026-05-09 16:25:52.111,5,0.31,0.18,0.93,0.7704,-12.0256,44.305,175,75
2026-05-09 16:25:52.111,2,0.18,-0.22,1.51,60.5676,-92.7016,-14.936400000000006,175,75
2026-05-09 16:25:52.111,1,-0.3,-0.84,1.05,211.16479999999999,-246.56099999999998,-9.0548,175,75
2026-05-09 16:25:52.111,3,-0.45,-0.95,0.74,42.86460000000001,-29.015,7.146199999999997,175,75
2026-05-09 16:25:52.120,2,0.2,-0.22,1.5,61.967600000000004,-98.7916,-14.936400000000006,175,75
2026-05-09 16:25:52.120,1,-0.41,-0.81,1.01,189.1548,-286.251,-8.504800000000003,175,75
2026-05-09 16:25:52.120,3,-0.47,-0.92,0.77,42.3746,-33.165,7.016199999999998,175,75
2026-05-09 16:25:52.120,5,0.23,0.21,0.96,4.1704,-4.1856,53.125,175,75
2026-05-09 16:25:52.138,5,0.19,0.22,0.97,6.5804,-5.2656,55.315,175,75
2026-05-09 16:25:52.138,1,-1.56,-0.64,0.23,148.4248,-395.70099999999996,-18.8148,175,75
2026-05-09 16:25:52.138,4,0.39,0.14,1.44,139.4096,-47.3344,20.4214,175,75
2026-05-09 16:25:52.138,2,0.24,-0.23,1.48,62.947599999999994,-112.8216,-13.77640000000001,175,75
2026-05-09 16:25:52.138,2,0.21,-0.24,1.47,65.0776,-123.73160000000001,-14.696399999999997,175,75
2026-05-09 16:25:52.138,1,-1.23,-2.3,-3.49,134.5248,-672.961,-52.7148,175,75
2026-05-09 16:25:52.143,3,-0.44,-0.9,0.86,41.224599999999995,-38.835,6.656199999999998,175,75
2026-05-09 16:25:52.159,5,0.35,0.21,1.1,11.0404,-30.5456,74.525,175,75
2026-05-09 16:25:52.159,1,-0.82,-5.39,-3.2,31.354799999999997,-397.111,37.6552,175,75
2026-05-09 16:25:52.159,2,0.23,-0.24,1.46,67.8876,-122.76160000000002,-14.696399999999997,175,75
2026-05-09 16:25:52.159,3,-0.41,-0.96,0.79,34.4546,-49.195,5.126199999999997,175,75
2026-05-09 16:25:52.159,5,0.53,0.14,1.2,10.660400000000001,-58.0756,107.605,175,75
2026-05-09 16:25:52.170,4,0.46,0.01,1.5,154.7196,-32.514399999999995,22.191399999999998,175,75
2026-05-09 16:25:52.170,2,0.22,-0.25,1.45,71.2376,-115.0716,-14.996400000000008,175,75
2026-05-09 16:25:52.170,3,-0.41,-1.07,0.81,40.36460000000001,-43.165000000000006,8.176199999999998,175,75
2026-05-09 16:25:52.170,5,0.73,0.02,1.28,9.900400000000001,-91.4556,139.805,175,75
2026-05-09 16:25:52.173,2,0.23,-0.3,1.46,74.4676,-107.8216,-16.096400000000003,175,75
2026-05-09 16:25:52.176,4,0.43,-0.01,1.49,159.1096,-41.5344,15.0614,175,75
2026-05-09 16:25:52.176,3,-0.47,-1.03,0.81,38.5946,-39.565,2.3261999999999983,175,75
2026-05-09 16:25:52.189,5,0.87,-0.25,1.19,8.2204,-108.43560000000001,168.185,175,75
2026-05-09 16:25:52.189,4,0.42,0.01,1.53,159.1696,-44.5844,10.0614,175,75
2026-05-09 16:25:52.189,3,-0.6,-0.79,0.8,35.004599999999996,-29.805,-1.823800000000002,175,75
2026-05-09 16:25:52.189,2,0.26,-0.4,1.47,78.7376,-109.4016,-17.3164,175,75
2026-05-09 16:25:52.199,1,-1.12,-1.89,5.55,-51.0852,579.8389999999999,16.5552,175,75
2026-05-09 16:25:52.199,5,0.83,-0.53,0.95,14.6804,-96.74560000000001,193.715,175,75
2026-05-09 16:25:52.199,4,0.39,0.08,1.58,153.1896,-47.5144,10.361400000000001,175,75
2026-05-09 16:25:52.199,1,1.86,-0.01,5.17,-162.1252,297.949,-76.4948,175,75
2026-05-09 16:25:52.199,2,0.25,-0.44,1.46,87.7676,-115.0716,-21.216400000000007,175,75
2026-05-09 16:25:52.205,3,-0.51,-0.76,0.88,32.074600000000004,-18.465,-2.793800000000001,175,75
2026-05-09 16:25:52.205,5,0.67,-0.71,0.72,29.0704,-69.79560000000001,216.785,175,75
2026-05-09 16:25:52.213,4,0.34,0.17,1.62,148.6796,-53.5544,12.6814,175,75
2026-05-09 16:25:52.213,2,0.27,-0.39,1.45,98.0676,-121.3516,-23.8964,175,75
2026-05-09 16:25:52.213,1,0.31,1.2,2.94,-165.4152,-170.40099999999998,30.885199999999998,175,75
2026-05-09 16:25:52.213,5,0.32,-0.65,0.66,46.6504,-46.1156,233.545,175,75
2026-05-09 16:25:52.230,5,-0.09,-0.39,0.79,50.6104,-25.2156,185.415,175,75
2026-05-09 16:25:52.230,1,-0.28,0.4,1.3,-81.0252,-224.001,61.975199999999994,175,75
2026-05-09 16:25:52.230,4,0.38,0.17,1.55,160.6896,-89.40440000000001,28.9014,175,75
2026-05-09 16:25:52.230,2,0.29,-0.31,1.38,108.2476,-147.51160000000002,-21.216400000000007,175,75
2026-05-09 16:25:52.251,5,-0.11,-0.33,1.08,42.3904,26.104400000000002,-17.065,175,75
2026-05-09 16:25:52.251,2,0.31,-0.34,1.33,109.1076,-169.2816,-21.766400000000004,175,75
2026-05-09 16:25:52.265,4,0.42,0.07,1.45,168.1896,-104.64439999999999,32.321400000000004,175,75
2026-05-09 16:25:52.265,4,0.47,-0.01,1.32,169.3496,-105.37440000000001,32.5614,175,75
2026-05-09 16:25:52.265,5,-0.02,-0.22,1.16,43.9304,37.5544,-114.275,175,75
2026-05-09 16:25:52.265,3,-0.33,-0.95,0.77,14.4546,-25.355,18.786199999999997,175,75
2026-05-09 16:25:52.275,4,0.49,-0.03,1.24,163.0696,-86.6644,31.641399999999997,175,75
2026-05-09 16:25:52.275,5,0.06,-0.05,1.21,45.0104,32.4244,-192.185,175,75
2026-05-09 16:25:52.275,3,-0.42,-0.92,0.75,14.514600000000002,-22.675,19.576199999999996,175,75
2026-05-09 16:25:52.275,2,0.24,-0.45,1.17,112.7676,-186.54160000000002,-25.4264,175,75
2026-05-09 16:25:52.275,5,0.27,0.15,1.21,44.6304,-8.9256,-210.605,175,75
2026-05-09 16:25:52.286,2,0.2,-0.48,1.1,117.2176,-171.9016,-31.0364,175,75
2026-05-09 16:25:52.286,5,0.5,0.3,1.19,46.8504,-58.9356,-164.905,175,75
2026-05-09 16:25:52.286,4,0.48,0.08,1.3,145.1396,-24.644399999999997,34.571400000000004,175,75
2026-05-09 16:25:52.286,2,0.17,-0.51,1.08,122.9476,-140.4416,-37.126400000000004,175,75
2026-05-09 16:25:52.286,1,-0.08,-0.34,1.66,-49.8052,-13.690999999999999,11.915199999999999,175,75
2026-05-09 16:25:52.296,3,-0.35,-0.92,1.01,16.89460000000001,-14.995000000000001,19.036199999999997,175,75
2026-05-09 16:25:52.296,5,0.56,0.44,1.19,44.6004,-88.7656,-95.315,175,75
2026-05-09 16:25:52.296,4,0.48,0.13,1.4,142.0896,-8.3044,40.181400000000004,175,75
2026-05-09 16:25:52.306,1,-0.08,-0.36,1.42,-59.6252,-24.851,7.955199999999998,175,75
2026-05-09 16:25:52.306,5,0.56,0.42,1.11,33.6504,-96.85560000000001,-21.654999999999998,175,75
2026-05-09 16:25:52.306,3,-0.39,-0.9,0.99,10.064599999999999,-29.565,19.336199999999998,175,75
2026-05-09 16:25:52.317,4,0.49,0.14,1.51,140.99960000000002,-4.9544,44.5114,175,75
2026-05-09 16:25:52.317,1,0.02,-0.36,1.23,-67.9752,-19.480999999999998,9.0552,175,75
2026-05-09 16:25:52.317,2,0.2,-0.5,1.07,128.73760000000001,-84.4616,-47.126400000000004,175,75
2026-05-09 16:25:52.317,5,0.62,0.24,0.96,27.1404,-87.07560000000001,53.435,175,75
2026-05-09 16:25:52.317,3,-0.43,-0.9,0.9,6.3446,-33.835,16.5962,175,75
2026-05-09 16:25:52.317,2,0.24,-0.47,1.1,131.2976,-77.7616,-46.766400000000004,175,75
2026-05-09 16:25:52.329,5,0.74,0.08,0.85,32.6704,-61.7956,125.575,175,75
2026-05-09 16:25:52.329,4,0.55,0.06,1.55,138.3096,-25.9844,43.4114,175,75
2026-05-09 16:25:52.339,5,0.84,0.04,0.83,41.2404,-30.4056,198.895,175,75
2026-05-09 16:25:52.339,3,-0.43,-0.88,0.9,2.8046000000000078,-36.635000000000005,16.836199999999998,175,75
2026-05-09 16:25:52.339,1,0.04,-0.39,1.11,-63.7752,9.599000000000004,10.5152,175,75
2026-05-09 16:25:52.360,5,0.8,0.0,0.99,46.0404,1.8843999999999999,247.785,175,75
2026-05-09 16:25:52.360,4,0.56,0.0,1.5,133.24960000000002,-52.2044,35.001400000000004,175,75
2026-05-09 16:25:52.360,2,0.24,-0.47,1.1,138.3776,-107.7616,-36.82640000000001,175,75
2026-05-09 16:25:52.360,1,0.15,-0.24,1.05,-62.2452,6.738999999999997,10.575199999999995,175,75
2026-05-09 16:25:52.360,1,0.08,-0.15,1.02,-55.0552,3.2590000000000003,10.455199999999998,175,75
2026-05-09 16:25:52.367,5,0.62,-0.15,1.09,40.1404,-3.5656,247.785,175,75
2026-05-09 16:25:52.367,3,-0.5,-0.89,0.87,-6.955399999999997,-48.955,24.8862,175,75
2026-05-09 16:25:52.378,5,0.34,-0.32,1.1,34.3304,-13.265600000000001,247.785,175,75
2026-05-09 16:25:52.378,3,-0.54,-0.88,0.84,-11.345399999999998,-61.515,27.6262,175,75
2026-05-09 16:25:52.378,1,0.05,-0.19,1.16,-51.9452,-2.530999999999999,5.5152,175,75
2026-05-09 16:25:52.378,4,0.54,0.11,1.49,123.30959999999999,-53.614399999999996,29.5114,175,75
2026-05-09 16:25:52.389,2,0.22,-0.5,0.99,138.6176,-125.9916,-36.0364,175,75
2026-05-09 16:25:52.389,5,0.08,-0.3,1.11,29.5704,-23.345599999999997,228.115,175,75
2026-05-09 16:25:52.389,2,0.23,-0.51,0.96,139.5876,-118.55160000000001,-37.6164,175,75
2026-05-09 16:25:52.389,1,0.06,-0.21,1.19,-55.4152,-12.171,1.3051999999999992,175,75
2026-05-09 16:25:52.389,3,-0.59,-0.87,0.78,-15.185400000000001,-71.945,31.046199999999995,175,75
2026-05-09 16:25:52.389,4,0.54,0.14,1.5,121.05959999999999,-54.6444,29.8214,175,75
2026-05-09 16:25:52.399,5,-0.13,-0.48,1.0,29.5804,-25.7656,158.875,175,75
2026-05-09 16:25:52.399,3,-0.6,-0.85,0.79,-17.565399999999997,-75.965,33.11619999999999,175,75
2026-05-09 16:25:52.399,1,0.11,-0.22,1.16,-59.6252,-27.410999999999998,-2.8948,175,75
2026-05-09 16:25:52.399,5,-0.2,-0.48,0.98,29.1604,-25.5856,76.295,175,75
2026-05-09 16:25:52.409,2,0.22,-0.52,0.94,140.6276,-103.3716,-40.7864,175,75
2026-05-09 16:25:52.409,3,-0.57,-0.82,0.84,-21.1554,-81.39500000000001,35.676199999999994,175,75
2026-05-09 16:25:52.430,5,0.16,-0.35,1.04,28.9304,-29.8756,-61.455,175,75
2026-05-09 16:25:52.430,2,0.24,-0.47,0.92,138.5576,-69.8916,-44.626400000000004,175,75
2026-05-09 16:25:52.441,3,-0.48,-0.86,0.89,-31.155399999999993,-100.415,41.1662,175,75
2026-05-09 16:25:52.441,4,0.56,0.14,1.51,110.4496,-51.6644,33.781400000000005,175,75
2026-05-09 16:25:52.441,1,0.15,-0.34,0.99,-69.3252,-58.451,-22.6548,175,75
2026-05-09 16:25:52.441,5,0.59,-0.15,0.99,27.1904,-24.205599999999997,-110.905,175,75
2026-05-09 16:25:52.451,3,-0.34,-0.89,0.9,-34.3854,-103.58500000000001,37.446200000000005,175,75
2026-05-09 16:25:52.451,4,0.58,0.16,1.49,108.1296,-51.114399999999996,33.7214,175,75
2026-05-09 16:25:52.451,1,0.16,-0.31,1.02,-66.3952,-57.171,-27.224800000000002,175,75
2026-05-09 16:25:52.455,2,0.24,-0.44,0.94,144.6576,-65.5016,-43.5364,175,75
2026-05-09 16:25:52.455,4,0.58,0.18,1.49,107.0296,-48.4844,33.6614,175,75
2026-05-09 16:25:52.484,3,-0.24,-0.92,0.84,-34.3854,-93.105,34.8862,175,75
2026-05-09 16:25:52.484,4,0.57,0.19,1.49,104.7796,-42.2744,35.851400000000005,175,75
2026-05-09 16:25:52.484,1,0.22,-0.22,1.03,-64.8652,-74.971,-40.394800000000004,175,75
2026-05-09 16:25:52.484,2,0.24,-0.46,0.91,146.8476,-78.9816,-40.1164,175,75
2026-05-09 16:25:52.496,5,0.67,0.09,0.92,34.6104,-7.115600000000001,64.115,175,75
2026-05-09 16:25:52.496,4,0.54,0.22,1.51,102.6996,-33.4844,38.531400000000005,175,75
2026-05-09 16:25:52.496,1,0.23,-0.25,1.05,-66.5752,-83.511,-44.9148,175,75
2026-05-09 16:25:52.496,3,-0.28,-0.87,0.86,-30.365399999999994,-72.065,34.096199999999996,175,75
2026-05-09 16:25:52.496,5,0.58,0.1,0.94,34.2404,-1.2456,108.975,175,75
2026-05-09 16:25:52.507,4,0.55,0.23,1.53,101.8496,-25.3744,41.7714,175,75
2026-05-09 16:25:52.507,1,0.15,-0.21,1.05,-66.6952,-91.561,-48.9948,175,75
2026-05-09 16:25:52.508,2,0.2,-0.47,0.87,148.0676,-78.8516,-40.1764,175,75
2026-05-09 16:25:52.508,4,0.55,0.24,1.55,101.2396,-21.2944,44.3314,175,75
2026-05-09 16:25:52.508,5,0.53,0.04,0.97,33.3204,-3.2756,141.705,175,75
2026-05-09 16:25:52.508,3,-0.32,-0.87,0.84,-27.925399999999996,-67.375,29.9462,175,75
2026-05-09 16:25:52.508,1,0.06,-0.17,1.07,-68.5852,-97.531,-53.0248,175,75
2026-05-09 16:25:52.519,5,0.48,-0.02,1.01,32.5104,-10.2856,153.865,175,75
2026-05-09 16:25:52.519,2,0.24,-0.45,0.88,148.3076,-75.6816,-40.546400000000006,175,75
2026-05-09 16:25:52.519,4,0.56,0.23,1.57,100.8096,-18.5544,46.101400000000005,175,75
2026-05-09 16:25:52.519,3,-0.35,-0.88,0.81,-25.24539999999999,-58.045,31.046199999999995,175,75
2026-05-09 16:25:52.545,5,0.4,-0.11,1.02,30.610400000000002,-17.8456,149.445,175,75
2026-05-09 16:25:52.545,3,-0.36,-0.88,0.84,-23.595399999999998,-49.745000000000005,29.7662,175,75
2026-05-09 16:25:52.545,5,0.34,-0.17,1.0,29.200400000000002,-21.895599999999998,132.155,175,75
2026-05-09 16:25:52.545,2,0.26,-0.43,0.89,146.8476,-74.1616,-41.3364,175,75
2026-05-09 16:25:52.545,4,0.57,0.21,1.6,98.7996,-15.9244,44.6914,175,75
2026-05-09 16:25:52.552,1,-0.05,-0.12,1.05,-72.0052,-106.131,-57.6548,175,75
2026-05-09 16:25:52.552,2,0.28,-0.42,0.9,145.1976,-77.0916,-40.906400000000005,175,75
2026-05-09 16:25:52.552,5,0.3,-0.21,0.99,28.5704,-24.845599999999997,106.265,175,75
2026-05-09 16:25:52.563,2,0.29,-0.4,0.9,142.1576,-86.05160000000001,-39.4464,175,75
2026-05-09 16:25:52.563,3,-0.41,-0.89,0.85,-24.755399999999995,-45.415000000000006,29.9462,175,75
2026-05-09 16:25:52.563,1,-0.09,-0.09,1.0,-72.6752,-108.811,-60.2748,175,75
2026-05-09 16:25:52.563,5,0.3,-0.22,0.97,29.4104,-24.895599999999998,77.94500000000001,175,75
2026-05-09 16:25:52.563,2,0.29,-0.4,0.9,141.48760000000001,-91.2316,-39.32640000000001,175,75
2026-05-09 16:25:52.574,5,0.35,-0.21,0.98,30.2304,-24.2956,51.755,175,75
2026-05-09 16:25:52.574,1,-0.09,-0.06,0.96,-71.7552,-106.011,-61.4348,175,75
2026-05-09 16:25:52.585,2,0.28,-0.39,0.9,140.6876,-90.5016,-39.626400000000004,175,75
2026-05-09 16:25:52.585,4,0.56,0.22,1.65,98.9796,-29.2244,38.4714,175,75
2026-05-09 16:25:52.585,5,0.42,-0.18,0.98,31.0904,-23.7956,33.965,175,75
2026-05-09 16:25:52.585,1,-0.14,-0.04,0.91,-69.68520000000001,-102.721,-62.0448,175,75
2026-05-09 16:25:52.585,2,0.29,-0.39,0.88,140.6276,-88.4916,-41.3364,175,75
2026-05-09 16:25:52.585,3,-0.42,-0.88,0.85,-26.645399999999995,-39.135000000000005,29.7662,175,75
2026-05-09 16:25:52.596,5,0.48,-0.16,0.96,32.5004,-23.895599999999998,27.425,175,75
2026-05-09 16:25:52.596,1,-0.13,-0.06,0.92,-67.18520000000001,-95.09100000000001,-61.5548,175,75
2026-05-09 16:25:52.596,2,0.29,-0.39,0.87,139.7776,-86.5416,-41.7064,175,75
2026-05-09 16:25:52.596,4,0.55,0.24,1.62,99.5896,-41.9644,33.0514,175,75
2026-05-09 16:25:52.596,3,-0.41,-0.91,0.85,-26.21539999999999,-38.165,28.726199999999995,175,75
2026-05-09 16:25:52.596,5,0.52,-0.12,0.95,34.2404,-24.735599999999998,30.665,175,75
2026-05-09 16:25:52.608,5,0.54,-0.07,0.94,35.5004,-25.6556,41.275,175,75
2026-05-09 16:25:52.608,3,-0.44,-0.9,0.84,-27.195399999999992,-39.075,25.0662,175,75
2026-05-09 16:25:52.608,1,-0.11,-0.03,0.91,-63.2252,-85.031,-60.7648,175,75
2026-05-09 16:25:52.608,2,0.29,-0.34,0.86,136.48760000000001,-83.9216,-42.3164,175,75
2026-05-09 16:25:52.608,3,-0.41,-0.9,0.83,-27.0154,-38.585,22.8162,175,75
2026-05-09 16:25:52.629,4,0.52,0.24,1.6,99.3496,-37.8744,31.7714,175,75
2026-05-09 16:25:52.629,1,-0.11,-0.02,0.9,-62.2452,-82.531,-60.3348,175,75
2026-05-09 16:25:52.629,5,0.54,-0.03,0.93,33.7404,-26.4656,68.815,175,75
2026-05-09 16:25:52.629,3,-0.43,-0.89,0.81,-27.13539999999999,-38.655,23.8462,175,75
2026-05-09 16:25:52.629,2,0.27,-0.3,0.87,131.5476,-69.7716,-43.3464,175,75
2026-05-09 16:25:52.639,5,0.53,-0.04,0.93,32.160399999999996,-25.4756,80.435,175,75
2026-05-09 16:25:52.639,3,-0.47,-0.88,0.79,-27.6254,-36.575,22.6262,175,75
2026-05-09 16:25:52.639,5,0.52,-0.07,0.93,30.5304,-23.9256,86.475,175,75
2026-05-09 16:25:52.651,1,-0.08,0.04,0.87,-58.105199999999996,-74.971,-57.2248,175,75
2026-05-09 16:25:52.651,2,0.28,-0.3,0.9,128.7976,-67.33160000000001,-44.1464,175,75
2026-05-09 16:25:52.651,4,0.53,0.25,1.6,99.7196,-41.294399999999996,32.1914,175,75
2026-05-09 16:25:52.651,3,-0.43,-0.89,0.81,-26.955399999999997,-34.935,19.516199999999998,175,75
2026-05-09 16:25:52.651,5,0.5,-0.11,0.93,29.4804,-22.7256,89.925,175,75
2026-05-09 16:25:52.651,1,-0.07,0.04,0.87,-57.5552,-73.451,-56.4948,175,75
2026-05-09 16:25:52.662,2,0.29,-0.31,0.91,127.88759999999999,-69.5916,-43.2864,175,75
2026-05-09 16:25:52.662,5,0.48,-0.15,0.93,27.9204,-21.9656,90.285,175,75
2026-05-09 16:25:52.662,1,-0.07,0.01,0.86,-56.3952,-71.981,-55.1548,175,75
2026-05-09 16:25:52.672,3,-0.46,-0.91,0.78,-26.955399999999997,-39.995000000000005,17.8162,175,75
2026-05-09 16:25:52.672,2,0.28,-0.29,0.94,127.57759999999999,-77.1516,-42.80640000000001,175,75
2026-05-09 16:25:52.672,4,0.52,0.25,1.57,97.6996,-41.2344,32.0114,175,75
2026-05-09 16:25:52.672,5,0.46,-0.17,0.93,26.8304,-22.8156,88.455,175,75
2026-05-09 16:25:52.684,3,-0.46,-0.9,0.76,-25.7954,-34.325,17.2062,175,75
2026-05-09 16:25:52.684,2,0.28,-0.28,0.94,127.0276,-86.2916,-41.82640000000001,175,75
2026-05-09 16:25:52.684,1,-0.09,-0.01,0.85,-56.3952,-68.691,-53.7548,175,75
2026-05-09 16:25:52.684,4,0.5,0.25,1.57,96.7296,-34.8344,33.2914,175,75
2026-05-09 16:25:52.684,3,-0.42,-0.88,0.79,-24.02539999999999,-30.905,15.676199999999998,175,75
2026-05-09 16:25:52.684,2,0.28,-0.26,0.92,125.6276,-94.83160000000001,-41.0364,175,75
2026-05-09 16:25:52.695,4,0.51,0.27,1.59,95.8096,-28.7344,35.431400000000004,175,75
2026-05-09 16:25:52.695,5,0.45,-0.21,0.93,25.2304,-28.115599999999997,78.385,175,75
2026-05-09 16:25:52.695,3,-0.39,-0.9,0.81,-23.96539999999999,-31.215,16.106199999999998,175,75
2026-05-09 16:25:52.705,4,0.51,0.28,1.6,95.56960000000001,-24.7044,36.641400000000004,175,75
2026-05-09 16:25:52.705,1,-0.09,-0.06,0.83,-54.6852,-65.761,-54.0548,175,75
2026-05-09 16:25:52.705,5,0.46,-0.22,0.92,24.6904,-30.7256,73.475,175,75
2026-05-09 16:25:52.724,4,0.51,0.28,1.62,95.2596,-23.9144,38.351400000000005,175,75
2026-05-09 16:25:52.724,1,-0.07,-0.03,0.81,-54.2552,-62.591,-54.3048,175,75
2026-05-09 16:25:52.724,2,0.28,-0.23,0.87,124.7176,-99.0416,-40.05640000000001,175,75
2026-05-09 16:25:52.724,5,0.49,-0.24,0.89,23.4104,-30.3556,65.735,175,75
2026-05-09 16:25:52.724,3,-0.45,-0.93,0.77,-22.6854,-30.845000000000002,13.296199999999999,175,75
2026-05-09 16:25:52.724,1,-0.05,-0.01,0.81,-53.4052,-60.830999999999996,-54.2448,175,75
2026-05-09 16:25:52.724,2,0.29,-0.23,0.85,125.4476,-94.0416,-41.4564,175,75
2026-05-09 16:25:52.738,5,0.5,-0.24,0.89,22.7404,-28.115599999999997,61.94500000000001,175,75
2026-05-09 16:25:52.738,3,-0.47,-0.9,0.73,-21.46539999999999,-29.445,12.266199999999998,175,75
2026-05-09 16:25:52.738,4,0.5,0.28,1.64,94.7196,-24.7744,39.6314,175,75
2026-05-09 16:25:52.753,2,0.28,-0.22,0.84,125.32759999999999,-85.7416,-42.376400000000004,175,75
2026-05-09 16:25:52.753,5,0.51,-0.24,0.89,22.200400000000002,-24.595599999999997,57.525,175,75
2026-05-09 16:25:52.753,1,-0.05,0.03,0.79,-52.4952,-58.451,-54.844800000000006,175,75
2026-05-09 16:25:52.753,3,-0.47,-0.87,0.74,-20.30539999999999,-25.055,13.1162,175,75
2026-05-09 16:25:52.753,2,0.27,-0.21,0.85,125.38759999999999,-76.2316,-43.046400000000006,175,75
2026-05-09 16:25:52.753,5,0.5,-0.24,0.89,21.8004,-20.6056,51.705,175,75
2026-05-09 16:25:52.764,1,-0.05,0.04,0.79,-51.455200000000005,-57.051,-53.8748,175,75
2026-05-09 16:25:52.764,3,-0.44,-0.88,0.77,-20.425399999999996,-21.765,13.296199999999999,175,75
2026-05-09 16:25:52.764,4,0.49,0.28,1.64,92.9496,-24.3444,41.031400000000005,175,75
2026-05-09 16:25:52.764,5,0.49,-0.22,0.9,21.1904,-16.6956,44.475,175,75
2026-05-09 16:25:52.764,1,-0.06,0.04,0.78,-50.6652,-55.221000000000004,-53.0848,175,75
2026-05-09 16:25:52.775,3,-0.39,-0.9,0.83,-20.30539999999999,-20.485,11.656199999999998,175,75
2026-05-09 16:25:52.775,4,0.49,0.3,1.64,93.1296,-21.0544,43.531400000000005,175,75
2026-05-09 16:25:52.775,5,0.49,-0.19,0.91,20.4204,-13.675600000000001,38.045,175,75
2026-05-09 16:25:52.775,1,-0.09,0.05,0.79,-49.9952,-54.241,-51.7448,175,75
2026-05-09 16:25:52.785,3,-0.3,-0.91,0.87,-20.1854,-20.175,10.2562,175,75
2026-05-09 16:25:52.785,5,0.49,-0.17,0.92,19.1004,-12.0256,32.635,175,75
2026-05-09 16:25:52.785,4,0.51,0.29,1.63,94.0496,-18.3644,46.9514,175,75
2026-05-09 16:25:52.785,2,0.31,-0.21,0.87,125.8776,-71.7816,-40.7864,175,75
2026-05-09 16:25:52.785,1,-0.1,0.06,0.79,-49.1352,-51.131,-50.2148,175,75
2026-05-09 16:25:52.798,5,0.5,-0.15,0.93,17.6704,-11.3656,30.755000000000003,175,75
2026-05-09 16:25:52.798,3,-0.32,-0.92,0.84,-21.1554,-27.245,10.4362,175,75
2026-05-09 16:25:52.798,2,0.31,-0.19,0.88,125.7476,-76.6016,-39.936400000000006,175,75
2026-05-09 16:25:52.798,1,-0.1,0.08,0.77,-49.0752,-50.341,-48.204800000000006,175,75
2026-05-09 16:25:52.809,5,0.51,-0.15,0.93,16.0004,-12.6156,33.215,175,75
2026-05-09 16:25:52.809,4,0.52,0.26,1.63,91.9696,-17.0244,46.891400000000004,175,75
2026-05-09 16:25:52.809,3,-0.41,-0.93,0.73,-19.455399999999997,-20.605,10.316199999999998,175,75
2026-05-09 16:25:52.809,2,0.3,-0.17,0.85,125.6876,-80.5616,-38.5964,175,75
2026-05-09 16:25:52.809,1,-0.12,0.08,0.75,-47.2452,-46.131,-45.7648,175,75
2026-05-09 16:25:52.809,5,0.51,-0.14,0.93,15.3504,-15.1056,39.415,175,75
2026-05-09 16:25:52.820,3,-0.41,-0.91,0.74,-16.4054,-11.275,8.356199999999998,175,75
2026-05-09 16:25:52.820,4,0.51,0.27,1.65,88.9796,-13.7944,46.1614,175,75
2026-05-09 16:25:52.820,1,-0.12,0.09,0.73,-45.7852,-39.551,-43.9348,175,75
2026-05-09 16:25:52.820,5,0.53,-0.14,0.92,14.230400000000001,-16.8056,47.375,175,75
2026-05-09 16:25:52.831,3,-0.39,-0.9,0.77,-15.605399999999989,-11.765,7.3261999999999965,175,75
2026-05-09 16:25:52.831,4,0.49,0.29,1.68,88.06960000000001,-8.1244,47.6214,175,75
2026-05-09 16:25:52.831,2,0.29,-0.15,0.81,125.1976,-84.3416,-35.546400000000006,175,75
2026-05-09 16:25:52.831,5,0.52,-0.16,0.9,14.740400000000001,-18.415599999999998,54.745000000000005,175,75
2026-05-09 16:25:52.841,3,-0.4,-0.91,0.77,-14.325399999999988,-12.615000000000002,7.5661999999999985,175,75
2026-05-09 16:25:52.841,1,-0.08,0.09,0.74,-43.7752,-30.521,-40.1548,175,75
2026-05-09 16:25:52.841,4,0.5,0.3,1.7,88.67960000000001,-7.8744,49.0214,175,75
2026-05-09 16:25:52.853,2,0.3,-0.15,0.79,124.4676,-85.3216,-34.0864,175,75
2026-05-09 16:25:52.854,3,-0.43,-0.91,0.76,-14.99539999999999,-12.005,6.226199999999999,175,75
2026-05-09 16:25:52.854,5,0.51,-0.19,0.9,14.6104,-18.455599999999997,59.965,175,75
2026-05-09 16:25:52.872,3,-0.35,-0.93,0.78,-11.955399999999997,-8.285,5.926199999999998,175,75
2026-05-09 16:25:52.872,1,-0.07,0.1,0.76,-42.4352,-24.730999999999998,-36.4348,175,75
2026-05-09 16:25:52.872,5,0.49,-0.19,0.9,14.310400000000001,-16.2756,56.075,175,75
2026-05-09 16:25:52.883,3,-0.35,-0.9,0.8,-12.625399999999999,-11.275,7.4461999999999975,175,75
2026-05-09 16:25:52.883,5,0.48,-0.2,0.9,13.6104,-13.4056,48.765,175,75
2026-05-09 16:25:52.883,2,0.32,-0.11,0.77,121.7876,-66.72160000000001,-35.4864,175,75
2026-05-09 16:25:52.894,3,-0.38,-0.95,0.77,-14.575399999999988,-15.355,8.8462,175,75
2026-05-09 16:25:52.894,5,0.48,-0.19,0.9,12.8004,-11.505600000000001,40.415,175,75
2026-05-09 16:25:52.894,1,-0.11,0.11,0.73,-43.3452,-23.201,-33.8748,175,75
2026-05-09 16:25:52.894,4,0.53,0.29,1.7,86.7296,-21.2944,45.491400000000006,175,75
2026-05-09 16:25:52.894,2,0.33,-0.13,0.76,119.4076,-66.4816,-35.2364,175,75
2026-05-09 16:25:52.895,5,0.49,-0.18,0.92,11.2204,-9.5556,34.255,175,75
2026-05-09 16:25:52.904,1,-0.11,0.1,0.7,-42.7952,-19.671,-32.104800000000004,175,75
2026-05-09 16:25:52.904,2,0.32,-0.14,0.76,117.2176,-65.6216,-34.8164,175,75
2026-05-09 16:25:52.904,5,0.49,-0.18,0.9,9.830400000000001,-9.4056,30.805,175,75
2026-05-09 16:25:52.905,1,-0.09,0.08,0.73,-41.6952,-13.571,-29.4248,175,75
2026-05-09 16:25:52.925,4,0.53,0.31,1.71,84.7796,-18.2444,45.0614,175,75
2026-05-09 16:25:52.925,2,0.31,-0.11,0.74,116.9076,-62.4516,-33.4764,175,75
2026-05-09 16:25:52.925,3,-0.44,-0.93,0.74,-12.565399999999997,-17.985,9.886199999999999,175,75
2026-05-09 16:25:52.925,1,-0.13,0.07,0.71,-42.4352,-12.171,-29.4848,175,75
2026-05-09 16:25:52.936,5,0.51,-0.18,0.89,9.480400000000001,-13.4756,32.465,175,75
2026-05-09 16:25:52.936,2,0.33,-0.05,0.73,117.0976,-55.071600000000004,-31.216400000000007,175,75
2026-05-09 16:25:52.936,1,-0.09,-0.0,0.71,-41.9452,-9.910999999999998,-28.504800000000003,175,75
2026-05-09 16:25:52.936,2,0.38,-0.02,0.73,116.6076,-47.5116,-29.7564,175,75
2026-05-09 16:25:52.936,4,0.56,0.29,1.74,84.4096,-18.2444,46.5214,175,75
2026-05-09 16:25:52.936,5,0.52,-0.19,0.87,9.910400000000001,-15.6056,35.585,175,75
2026-05-09 16:25:52.947,3,-0.45,-0.97,0.71,-13.6554,-28.775000000000002,10.1862,175,75
2026-05-09 16:25:52.947,1,0.02,-0.0,0.76,-42.5552,-9.000999999999998,-26.3148,175,75
2026-05-09 16:25:52.947,4,0.58,0.29,1.74,83.7996,-20.7444,45.851400000000005,175,75
2026-05-09 16:25:52.947,2,0.43,-0.02,0.75,112.2176,-36.66159999999999,-29.626400000000004,175,75
2026-05-09 16:25:52.962,3,-0.45,-0.93,0.69,-12.925399999999996,-27.435000000000002,10.496199999999998,175,75
2026-05-09 16:25:52.962,1,0.0,0.02,0.78,-43.5252,-16.500999999999998,-25.884800000000002,175,75
2026-05-09 16:25:52.962,2,0.45,-0.03,0.78,107.6976,-27.881600000000002,-30.30640000000001,175,75
2026-05-09 16:25:52.962,1,0.02,0.08,0.74,-43.3452,-20.161,-26.434800000000003,175,75
2026-05-09 16:25:52.977,5,0.52,-0.21,0.85,11.1804,-18.1256,40.515,175,75
2026-05-09 16:25:52.977,2,0.49,-0.06,0.82,103.7376,-20.1316,-31.586399999999998,175,75
2026-05-09 16:25:52.977,5,0.51,-0.21,0.87,9.6804,-17.4256,37.945,175,75
2026-05-09 16:25:52.987,2,0.51,-0.09,0.86,101.2976,-18.3116,-33.8364,175,75
2026-05-09 16:25:52.987,4,0.55,0.28,1.76,83.8596,-18.0044,37.501400000000004,175,75
2026-05-09 16:25:52.987,5,0.51,-0.2,0.89,6.6404,-15.7256,33.105000000000004,175,75
2026-05-09 16:25:53.000,2,0.49,-0.1,0.89,100.6276,-22.2116,-35.7264,175,75
2026-05-09 16:25:53.000,5,0.51,-0.2,0.91,2.6804,-12.095600000000001,25.775000000000002,175,75
2026-05-09 16:25:53.000,3,-0.49,-0.94,0.7,-14.02539999999999,-29.625,9.516199999999998,175,75
2026-05-09 16:25:53.000,1,-0.04,0.28,0.68,-39.0152,-21.561,-21.3148,175,75
2026-05-09 16:25:53.011,2,0.44,-0.06,0.89,101.41760000000001,-26.2316,-37.0664,175,75
2026-05-09 16:25:53.011,4,0.52,0.3,1.83,86.78960000000001,-16.2944,34.5114,175,75
2026-05-09 16:25:53.011,5,0.49,-0.2,0.91,-0.3396,-10.6856,18.865000000000002,175,75
2026-05-09 16:25:53.011,1,-0.05,0.32,0.67,-38.3452,-19.241,-18.934800000000003,175,75
2026-05-09 16:25:53.011,2,0.42,-0.01,0.88,103.6776,-29.1016,-35.906400000000005,175,75
2026-05-09 16:25:53.011,4,0.52,0.31,1.83,88.3096,-20.1944,33.0514,175,75
2026-05-09 16:25:53.011,5,0.5,-0.2,0.93,-1.6896,-12.085600000000001,13.555,175,75
2026-05-09 16:25:53.023,3,-0.4,-0.91,0.78,-16.27539999999999,-30.545,9.0962,175,75
2026-05-09 16:25:53.023,1,-0.03,0.33,0.66,-37.245200000000004,-16.070999999999998,-17.3448,175,75
2026-05-09 16:25:53.023,5,0.5,-0.19,0.93,-2.2496,-13.8256,11.264999999999999,175,75
2026-05-09 16:25:53.023,4,0.51,0.32,1.82,89.0496,-25.5044,31.031399999999998,175,75
2026-05-09 16:25:53.023,2,0.38,0.0,0.88,106.1776,-33.001599999999996,-35.4864,175,75
2026-05-09 16:25:53.038,3,-0.42,-0.91,0.76,-17.6854,-34.875,7.3261999999999965,175,75
2026-05-09 16:25:53.038,5,0.51,-0.17,0.93,-2.1296,-17.3656,12.194999999999999,175,75
2026-05-09 16:25:53.038,2,0.37,-0.01,0.87,107.0276,-36.2916,-34.32640000000001,175,75
2026-05-09 16:25:53.038,4,0.49,0.32,1.81,88.6196,-26.784399999999998,30.1814,175,75
2026-05-09 16:25:53.038,2,0.37,-0.02,0.86,108.3776,-41.351600000000005,-32.6164,175,75
2026-05-09 16:25:53.049,5,0.53,-0.17,0.93,-1.3596,-22.115599999999997,16.425,175,75
2026-05-09 16:25:53.049,3,-0.43,-0.92,0.74,-17.075399999999988,-35.605000000000004,5.2562,175,75
2026-05-09 16:25:53.049,1,-0.06,0.28,0.63,-35.4152,-12.661,-16.0648,175,75
2026-05-09 16:25:53.063,1,-0.05,0.26,0.65,-34.4452,-10.401,-14.664800000000001,175,75
2026-05-09 16:25:53.063,4,0.46,0.31,1.8,89.1096,-21.534399999999998,31.031399999999998,175,75
2026-05-09 16:25:53.073,5,0.54,-0.17,0.91,-0.24960000000000016,-31.6756,27.875,175,75
2026-05-09 16:25:53.073,3,-0.45,-0.89,0.71,-14.755399999999995,-18.225,10.676199999999998,175,75
2026-05-09 16:25:53.073,2,0.34,-0.06,0.82,117.3376,-46.2916,-31.156400000000005,175,75
2026-05-09 16:25:53.079,5,0.54,-0.18,0.89,-1.3796,-35.4756,31.165,175,75
2026-05-09 16:25:53.091,1,-0.09,0.2,0.64,-33.0352,-6.561,-13.384800000000002,175,75
2026-05-09 16:25:53.091,4,0.46,0.31,1.82,88.67960000000001,-23.7344,32.321400000000004,175,75
2026-05-09 16:25:53.091,2,0.32,-0.04,0.81,120.6276,-39.5916,-31.766400000000004,175,75
2026-05-09 16:25:53.107,5,0.58,-0.19,0.87,-5.1896,-36.7256,32.345,175,75
2026-05-09 16:25:53.107,1,-0.08,0.21,0.64,-30.965200000000003,0.3290000000000006,-9.174800000000001,175,75
2026-05-09 16:25:53.122,3,-0.4,-0.94,0.76,-15.125399999999999,-15.665000000000001,8.486199999999997,175,75
2026-05-09 16:25:53.122,2,0.31,-0.02,0.78,126.60759999999999,-25.261599999999998,-31.0364,175,75
2026-05-09 16:25:53.122,3,-0.45,-0.93,0.7,-14.325399999999988,-9.935,6.5962,175,75
2026-05-09 16:25:53.122,1,-0.05,0.2,0.63,-29.7452,0.5790000000000006,-8.754800000000003,175,75
2026-05-09 16:25:53.122,4,0.46,0.35,1.81,88.8596,-27.144399999999997,33.0514,175,75
2026-05-09 16:25:53.122,2,0.31,-0.04,0.77,126.48760000000001,-23.8516,-30.236400000000003,175,75
2026-05-09 16:25:53.138,5,0.61,-0.25,0.81,-4.139600000000001,-17.415599999999998,31.915,175,75
2026-05-09 16:25:53.155,5,0.59,-0.24,0.83,-2.8696,-12.0556,29.515,175,75
2026-05-09 16:25:53.155,4,0.45,0.33,1.8,88.7996,-20.8044,34.8814,175,75
2026-05-09 16:25:53.155,1,-0.07,0.22,0.65,-28.345200000000002,3.1990000000000016,-7.534800000000001,175,75
2026-05-09 16:25:53.166,4,0.46,0.31,1.78,85.6296,-4.404399999999999,37.0114,175,75
2026-05-09 16:25:53.166,3,-0.44,-0.91,0.69,-12.375399999999999,-2.0650000000000013,4.826199999999998,175,75
2026-05-09 16:25:53.166,1,-0.08,0.24,0.65,-27.6752,5.449000000000002,-5.524800000000003,175,75
2026-05-09 16:25:53.166,3,-0.41,-0.92,0.74,-11.215399999999988,1.4749999999999979,4.826199999999998,175,75
2026-05-09 16:25:53.177,5,0.58,-0.22,0.85,-2.6995999999999998,-7.8256,24.605,175,75
2026-05-09 16:25:53.177,2,0.31,-0.03,0.77,126.29759999999999,-27.1516,-28.596400000000003,175,75
2026-05-09 16:25:53.177,2,0.32,-0.02,0.75,126.35759999999999,-36.721599999999995,-23.406400000000005,175,75
2026-05-09 16:25:53.177,2,0.34,-0.04,0.74,123.0676,-49.461600000000004,-18.476399999999998,175,75
2026-05-09 16:25:53.177,2,0.34,-0.04,0.73,118.7976,-53.9816,-15.546400000000006,175,75
2026-05-09 16:25:53.188,5,0.57,-0.21,0.88,-3.1096,-6.5756,19.865000000000002,175,75
2026-05-09 16:25:53.188,2,0.34,-0.05,0.72,116.6076,-53.9216,-13.956400000000002,175,75
2026-05-09 16:25:53.188,4,0.46,0.33,1.83,82.6396,13.215600000000002,40.9714,175,75
2026-05-09 16:25:53.188,1,-0.1,0.31,0.63,-24.1352,11.488999999999997,0.025199999999998113,175,75
2026-05-09 16:25:53.188,5,0.58,-0.2,0.88,-4.3096000000000005,-6.855600000000001,16.605,175,75
2026-05-09 16:25:53.195,2,0.34,-0.05,0.68,116.3576,-48.1216,-12.496400000000008,175,75
2026-05-09 16:25:53.195,3,-0.44,-0.94,0.71,-12.685400000000001,-9.135000000000002,3.6061999999999976,175,75
2026-05-09 16:25:53.196,4,0.46,0.32,1.87,81.4196,15.355599999999999,41.3414,175,75
2026-05-09 16:25:53.197,5,0.57,-0.2,0.87,-4.509600000000001,-7.255599999999999,15.385,175,75
2026-05-09 16:25:53.207,2,0.33,-0.02,0.65,115.5076,-40.5616,-10.726399999999998,175,75
2026-05-09 16:25:53.207,5,0.59,-0.2,0.88,-4.589600000000001,-7.2056000000000004,17.315,175,75
2026-05-09 16:25:53.218,3,-0.49,-0.94,0.67,-11.1554,-11.395000000000001,0.3161999999999985,175,75
2026-05-09 16:25:53.218,4,0.43,0.29,1.95,80.0196,4.625599999999999,38.171400000000006,175,75
2026-05-09 16:25:53.218,4,0.44,0.31,1.98,78.1896,-10.3744,36.5814,175,75
2026-05-09 16:25:53.231,5,0.62,-0.2,0.86,-4.299600000000001,-4.865600000000001,27.225,175,75
2026-05-09 16:25:53.231,2,0.35,-0.0,0.68,110.9976,-14.4616,-8.656400000000005,175,75
2026-05-09 16:25:53.231,4,0.45,0.32,1.96,76.8496,-27.394399999999997,34.2714,175,75
2026-05-09 16:25:53.231,3,-0.49,-0.94,0.63,-9.695399999999992,-9.075000000000003,-4.813800000000001,175,75
2026-05-09 16:25:53.231,5,0.62,-0.22,0.87,-3.5596,-3.5956,32.305,175,75
2026-05-09 16:25:53.231,1,0.04,0.28,0.65,-29.0152,6.189,6.065199999999997,175,75
2026-05-09 16:25:53.235,4,0.46,0.32,1.88,75.0796,-39.4644,33.171400000000006,175,75
2026-05-09 16:25:53.235,5,0.61,-0.23,0.86,-2.6795999999999998,-1.4756,35.395,175,75
2026-05-09 16:25:53.240,2,0.4,-0.01,0.74,111.66760000000001,-5.7416,-3.8964,175,75
2026-05-09 16:25:53.240,1,0.01,0.26,0.62,-31.2752,4.969000000000001,4.295200000000001,175,75
2026-05-09 16:25:53.240,3,-0.46,-0.94,0.69,-6.095399999999998,0.375,-4.6838000000000015,175,75
2026-05-09 16:25:53.242,5,0.59,-0.24,0.86,-1.4196,0.5344000000000002,36.345,175,75
2026-05-09 16:25:53.244,1,-0.01,0.27,0.64,-31.575200000000002,5.638999999999999,4.845199999999998,175,75
2026-05-09 16:25:53.259,5,0.58,-0.23,0.87,-0.9696000000000001,1.9144,34.115,175,75
2026-05-09 16:25:53.259,2,0.45,0.01,0.8,109.2276,-23.1216,3.4136000000000024,175,75
2026-05-09 16:25:53.259,4,0.45,0.32,1.79,70.9396,-10.3744,37.1914,175,75
2026-05-09 16:25:53.259,1,-0.04,0.26,0.64,-32.7352,3.3790000000000013,5.8851999999999975,175,75
2026-05-09 16:25:53.259,3,-0.42,-0.93,0.7,-6.2753999999999905,-1.0850000000000009,-6.703800000000002,175,75
2026-05-09 16:25:53.275,1,-0.01,0.27,0.62,-32.4352,4.109000000000002,6.435200000000002,175,75
2026-05-09 16:25:53.275,3,-0.42,-0.94,0.7,-6.705399999999997,-3.1650000000000027,-6.093800000000002,175,75
2026-05-09 16:25:53.309,3,-0.45,-0.95,0.7,-6.4054,-3.835000000000001,-7.4338000000000015,175,75
2026-05-09 16:25:53.309,5,0.62,-0.23,0.89,-6.429600000000001,8.0444,26.805,175,75
2026-05-09 16:25:53.309,2,0.5,-0.03,0.82,106.1176,-62.0316,8.053599999999996,175,75
2026-05-09 16:25:53.309,1,0.02,0.26,0.59,-32.0052,3.929000000000002,7.345199999999998,175,75
2026-05-09 16:25:53.321,1,0.03,0.25,0.59,-30.7252,4.719000000000001,8.0152,175,75
2026-05-09 16:25:53.321,4,0.4,0.33,1.98,63.8596,19.0156,41.8314,175,75
2026-05-09 16:25:53.321,4,0.41,0.31,2.04,62.8896,5.4756,39.6314,175,75
2026-05-09 16:25:53.321,5,0.62,-0.24,0.89,-7.9996,9.2844,32.525,175,75
2026-05-09 16:25:53.321,2,0.49,-0.02,0.79,105.5676,-75.44160000000001,8.723599999999998,175,75
2026-05-09 16:25:53.321,3,-0.42,-0.94,0.71,-6.2753999999999905,-6.575000000000003,-10.173800000000002,175,75
2026-05-09 16:25:53.332,4,0.41,0.29,2.06,63.009600000000006,-9.404399999999999,36.461400000000005,175,75
2026-05-09 16:25:53.332,5,0.62,-0.26,0.89,-8.1596,10.0844,38.015,175,75
2026-05-09 16:25:53.332,1,0.03,0.28,0.63,-31.0852,2.219000000000001,8.745199999999997,175,75
2026-05-09 16:25:53.332,3,-0.44,-0.94,0.71,-6.88539999999999,-6.395,-10.293800000000001,175,75
2026-05-09 16:25:53.334,3,-0.41,-0.95,0.68,-7.805399999999992,-9.625000000000002,-11.213800000000003,175,75
2026-05-09 16:25:53.343,2,0.42,-0.04,0.69,102.4576,-69.4616,9.333599999999997,175,75
2026-05-09 16:25:53.343,5,0.62,-0.31,0.88,-5.719600000000001,11.3344,48.435,175,75
2026-05-09 16:25:53.343,3,-0.42,-0.96,0.67,-7.13539999999999,-8.895,-11.393800000000002,175,75
2026-05-09 16:25:53.343,2,0.42,-0.06,0.67,103.0676,-53.491600000000005,8.663599999999995,175,75
2026-05-09 16:25:53.354,5,0.61,-0.32,0.9,-4.1096,13.6044,50.515,175,75
2026-05-09 16:25:53.354,3,-0.4,-0.97,0.67,-7.925399999999996,-9.135000000000002,-11.643800000000002,175,75
2026-05-09 16:25:53.354,4,0.45,0.34,1.94,55.259600000000006,-59.8344,25.551399999999997,175,75
2026-05-09 16:25:53.354,1,0.08,0.34,0.6,-34.0752,-8.690999999999999,8.0152,175,75
2026-05-09 16:25:53.354,5,0.59,-0.33,0.89,-2.7796,16.0044,49.375,175,75
2026-05-09 16:25:53.354,4,0.46,0.35,1.86,52.0296,-61.6644,24.5114,175,75
2026-05-09 16:25:53.357,3,-0.39,-0.97,0.7,-6.5253999999999905,-8.715,-11.213800000000003,175,75
2026-05-09 16:25:53.357,1,0.06,0.32,0.57,-34.3852,-8.940999999999999,5.275199999999998,175,75
2026-05-09 16:25:53.378,4,0.46,0.36,1.79,46.0596,-46.1744,26.891399999999997,175,75
2026-05-09 16:25:53.378,5,0.55,-0.32,0.92,-1.5896,18.6644,40.175000000000004,175,75
2026-05-09 16:25:53.378,3,-0.38,-0.96,0.75,-7.0154,-12.005,-13.283800000000001,175,75
2026-05-09 16:25:53.388,1,0.0,0.35,0.58,-31.825200000000002,-5.4609999999999985,3.685200000000002,175,75
2026-05-09 16:25:53.388,5,0.54,-0.34,0.92,-2.4896,18.294400000000003,34.105000000000004,175,75
2026-05-09 16:25:53.388,2,0.47,-0.05,0.81,114.0476,27.5484,1.593599999999995,175,75
2026-05-09 16:25:53.388,3,-0.4,-0.94,0.72,-8.965399999999988,-13.585,-12.853800000000001,175,75
2026-05-09 16:25:53.398,2,0.45,-0.07,0.82,112.6376,20.6584,5.493599999999994,175,75
2026-05-09 16:25:53.398,5,0.55,-0.33,0.94,-2.3296,18.5244,27.775000000000002,175,75
2026-05-09 16:25:53.398,4,0.46,0.38,1.86,40.3296,-10.984399999999999,33.2314,175,75
2026-05-09 16:25:53.398,1,-0.01,0.39,0.6,-31.575200000000002,-6.250999999999998,3.505199999999995,175,75
2026-05-09 16:25:53.398,3,-0.42,-0.95,0.67,-9.5154,-15.175,-12.553800000000003,175,75
2026-05-09 16:25:53.398,4,0.47,0.35,1.91,38.0096,-13.9744,31.641399999999997,175,75
2026-05-09 16:25:53.408,2,0.41,-0.07,0.85,110.3276,7.4884,10.433599999999998,175,75
2026-05-09 16:25:53.408,1,-0.0,0.4,0.57,-32.7352,-5.091000000000001,1.8552,175,75
2026-05-09 16:25:53.408,5,0.58,-0.32,0.96,-1.4596,21.014400000000002,18.975,175,75
2026-05-09 16:25:53.412,1,0.02,0.42,0.58,-32.7352,-5.091000000000001,1.6751999999999967,175,75
2026-05-09 16:25:53.426,4,0.47,0.34,1.94,30.7496,-44.5244,21.101399999999998,175,75
2026-05-09 16:25:53.426,5,0.58,-0.31,0.97,-1.3195999999999999,21.7544,17.935000000000002,175,75
2026-05-09 16:25:53.426,2,0.44,-0.09,0.87,110.2676,-3.3116000000000003,20.243599999999994,175,75
2026-05-09 16:25:53.426,1,0.03,0.43,0.58,-32.1252,-6.561,0.8251999999999988,175,75
2026-05-09 16:25:53.426,2,0.43,-0.11,0.89,111.2976,4.0084,20.673599999999993,175,75
2026-05-09 16:25:53.438,5,0.59,-0.31,0.98,-1.5295999999999998,22.4344,21.345000000000002,175,75
2026-05-09 16:25:53.438,4,0.47,0.37,1.91,26.419600000000003,-60.6244,16.4614,175,75
2026-05-09 16:25:53.438,1,0.02,0.44,0.55,-31.9452,-9.480999999999998,0.08519999999999683,175,75
2026-05-09 16:25:53.438,3,-0.38,-0.95,0.72,-9.575399999999988,-1.1550000000000011,-9.323800000000002,175,75
2026-05-09 16:25:53.448,5,0.59,-0.33,0.98,-1.2995999999999999,22.1444,27.985,175,75
2026-05-09 16:25:53.448,2,0.43,-0.11,0.91,112.8276,18.038400000000003,20.913599999999995,175,75
2026-05-09 16:25:53.448,4,0.49,0.39,1.84,22.089600000000004,-70.5044,13.1714,175,75
2026-05-09 16:25:53.448,1,0.02,0.44,0.57,-30.7252,-7.591000000000001,0.5152000000000001,175,75
2026-05-09 16:25:53.448,5,0.58,-0.34,0.99,-0.8496,20.884400000000003,36.515,175,75
2026-05-09 16:25:53.460,3,-0.36,-0.96,0.72,-12.685400000000001,-5.845000000000002,-10.423800000000002,175,75
2026-05-09 16:25:53.460,4,0.47,0.4,1.79,15.5096,-73.7344,12.1914,175,75
2026-05-09 16:25:53.460,1,0.0,0.46,0.57,-30.2352,-7.530999999999999,0.6351999999999975,175,75
2026-05-09 16:25:53.460,5,0.55,-0.35,0.98,-0.7696000000000002,17.794400000000003,43.495000000000005,175,75
2026-05-09 16:25:53.463,4,0.5,0.44,1.74,8.1896,-71.90440000000001,13.3514,175,75
2026-05-09 16:25:53.475,1,-0.01,0.47,0.59,-30.0552,-8.690999999999999,1.6751999999999967,175,75
2026-05-09 16:25:53.475,5,0.54,-0.37,1.0,-0.8996000000000001,12.2944,47.985,175,75
2026-05-09 16:25:53.475,3,-0.38,-0.96,0.7,-13.6554,-5.665000000000003,-7.613800000000001,175,75
2026-05-09 16:25:53.475,4,0.49,0.46,1.69,2.8295999999999992,-63.0644,16.0314,175,75
2026-05-09 16:25:53.488,5,0.52,-0.39,1.01,-1.4996,7.7044,49.175000000000004,175,75
2026-05-09 16:25:53.488,4,0.52,0.41,1.64,-0.5904000000000007,-49.5244,18.2914,175,75
2026-05-09 16:25:53.488,2,0.31,-0.12,0.94,116.66760000000001,40.4084,36.6536,175,75
2026-05-09 16:25:53.498,5,0.51,-0.41,1.0,-1.4996,3.5744000000000002,47.315,175,75
2026-05-09 16:25:53.498,1,-0.0,0.51,0.57,-31.2752,-10.221,2.6552000000000007,175,75
2026-05-09 16:25:53.498,2,0.32,-0.13,0.98,117.2776,48.7084,41.28359999999999,175,75
2026-05-09 16:25:53.498,3,-0.39,-0.96,0.63,-13.2954,-3.955000000000002,-8.403800000000002,175,75
2026-05-09 16:25:53.498,4,0.53,0.38,1.64,-9.2504,-40.1344,18.231399999999997,175,75
2026-05-09 16:25:53.513,1,-0.02,0.5,0.54,-30.4752,-9.910999999999998,1.9751999999999974,175,75
2026-05-09 16:25:53.513,2,0.36,-0.14,1.02,117.3376,61.148399999999995,44.7636,175,75
2026-05-09 16:25:53.513,5,0.52,-0.41,0.98,0.5903999999999999,1.6844000000000001,37.035000000000004,175,75
2026-05-09 16:25:53.513,4,0.52,0.38,1.66,-16.1404,-37.2744,15.971400000000001,175,75
2026-05-09 16:25:53.527,1,-0.04,0.49,0.55,-28.9552,-8.570999999999998,1.8552,175,75
2026-05-09 16:25:53.527,5,0.55,-0.41,0.97,-0.11960000000000004,3.0944,32.095,175,75
2026-05-09 16:25:53.527,3,-0.4,-0.95,0.67,-12.13539999999999,4.154999999999998,-6.6438000000000015,175,75
2026-05-09 16:25:53.527,1,-0.05,0.49,0.55,-27.9752,-9.361,2.525199999999998,175,75
2026-05-09 16:25:53.538,4,0.52,0.36,1.69,-28.8204,-45.6844,9.7514,175,75
2026-05-09 16:25:53.538,5,0.57,-0.42,0.97,-0.8096,6.494399999999999,29.055,175,75
2026-05-09 16:25:53.538,2,0.37,-0.16,1.09,119.1076,76.5084,49.693599999999996,175,75
2026-05-09 16:25:53.538,4,0.52,0.36,1.68,-35.7104,-57.4544,5.671399999999999,175,75
2026-05-09 16:25:53.548,5,0.57,-0.44,0.97,-1.0695999999999999,10.0044,28.285,175,75
2026-05-09 16:25:53.548,3,-0.32,-0.95,0.73,-15.305399999999992,4.154999999999998,-4.443800000000002,175,75
2026-05-09 16:25:53.558,5,0.56,-0.44,0.98,-1.1595999999999997,12.7644,28.905,175,75
2026-05-09 16:25:53.558,2,0.31,-0.19,1.12,116.7276,71.9984,59.2136,175,75
2026-05-09 16:25:53.558,4,0.51,0.36,1.65,-44.9204,-71.4744,2.5614,175,75
2026-05-09 16:25:53.558,3,-0.33,-0.97,0.7,-16.345399999999998,-0.3550000000000004,-4.743800000000002,175,75
2026-05-09 16:25:53.569,5,0.54,-0.45,0.99,-1.2595999999999998,14.184399999999998,30.195,175,75
2026-05-09 16:25:53.569,4,0.52,0.41,1.58,-52.480399999999996,-78.0644,4.2714,175,75
2026-05-09 16:25:53.569,1,-0.05,0.48,0.53,-26.755200000000002,-15.401,3.255199999999995,175,75
2026-05-09 16:25:53.569,2,0.27,-0.23,1.13,112.8876,63.648399999999995,67.6236,175,75
2026-05-09 16:25:53.582,3,-0.35,-0.98,0.68,-16.645399999999995,-1.5750000000000028,-4.993800000000002,175,75
2026-05-09 16:25:53.582,4,0.53,0.44,1.52,-58.6404,-79.58439999999999,8.1114,175,75
2026-05-09 16:25:53.582,5,0.48,-0.46,0.99,-0.1896000000000001,12.914399999999999,29.675000000000004,175,75
2026-05-09 16:25:53.582,4,0.52,0.42,1.44,-64.1904,-74.2244,11.4014,175,75
2026-05-09 16:25:53.594,1,-0.01,0.48,0.55,-24.075200000000002,-16.441,1.9151999999999987,175,75
2026-05-09 16:25:53.594,2,0.27,-0.24,1.11,111.66760000000001,64.1884,82.80359999999999,175,75
2026-05-09 16:25:53.594,5,0.45,-0.46,1.0,0.030399999999999983,9.3644,25.735,175,75
2026-05-09 16:25:53.594,3,-0.39,-0.93,0.65,-17.865399999999994,-4.135000000000002,-4.203800000000002,175,75
2026-05-09 16:25:53.604,4,0.51,0.36,1.36,-72.85040000000001,-52.9444,16.9514,175,75
2026-05-09 16:25:53.604,5,0.43,-0.44,1.0,-0.03960000000000008,5.5844000000000005,19.115000000000002,175,75
2026-05-09 16:25:53.604,2,0.3,-0.25,1.1,113.1276,83.3984,87.3236,175,75
2026-05-09 16:25:53.604,4,0.51,0.34,1.34,-81.32039999999999,-31.1744,21.281399999999998,175,75
2026-05-09 16:25:53.615,1,0.01,0.53,0.55,-22.1252,-17.351,0.6351999999999975,175,75
2026-05-09 16:25:53.615,2,0.31,-0.24,1.11,114.1076,104.55839999999999,87.3236,175,75
2026-05-09 16:25:53.615,3,-0.28,-0.93,0.7,-14.815399999999997,4.035,-3.7738000000000014,175,75
2026-05-09 16:25:53.615,4,0.52,0.32,1.36,-90.1604,-13.0644,24.0214,175,75
2026-05-09 16:25:53.640,5,0.48,-0.4,0.97,-0.8396,2.0344,7.514999999999999,175,75
2026-05-09 16:25:53.650,2,0.28,-0.25,1.18,112.6976,141.01839999999999,85.4936,175,75
2026-05-09 16:25:53.651,4,0.51,0.29,1.4,-99.8004,1.0855999999999995,23.7214,175,75
2026-05-09 16:25:53.651,5,0.51,-0.39,0.96,-0.9596000000000001,2.1744,7.574999999999999,175,75
2026-05-09 16:25:53.651,3,-0.34,-0.98,0.65,-16.645399999999995,-7.675000000000001,-0.7838000000000012,175,75
2026-05-09 16:25:53.651,4,0.52,0.26,1.43,-104.5504,2.7256,22.1314,175,75
2026-05-09 16:25:53.662,1,-0.02,0.53,0.54,-20.2952,-20.161,1.245199999999997,175,75
2026-05-09 16:25:53.662,5,0.53,-0.38,0.96,-1.5596,3.5844,12.565,175,75
2026-05-09 16:25:53.662,2,0.28,-0.27,1.24,109.4076,162.9684,85.1236,175,75
2026-05-09 16:25:53.662,1,-0.01,0.52,0.52,-19.5652,-19.911,1.6751999999999967,175,75
2026-05-09 16:25:53.662,2,0.24,-0.29,1.3,102.6976,177.5484,89.8236,175,75
2026-05-09 16:25:53.674,5,0.54,-0.38,0.95,-2.4596,5.494400000000001,21.005000000000003,175,75
2026-05-09 16:25:53.674,1,-0.01,0.5,0.52,-19.1952,-19.061,2.525199999999998,175,75
2026-05-09 16:25:53.674,3,-0.33,-1.01,0.63,-16.1554,-3.1050000000000004,-3.043800000000002,175,75
2026-05-09 16:25:53.674,4,0.59,0.25,1.53,-114.43039999999999,-10.0144,20.2414,175,75
2026-05-09 16:25:53.693,1,-0.02,0.51,0.56,-17.435200000000002,-18.021,3.8051999999999992,175,75
2026-05-09 16:25:53.693,3,-0.33,-0.95,0.67,-17.195399999999992,-4.325000000000003,-1.823800000000002,175,75
2026-05-09 16:25:53.693,4,0.6,0.29,1.54,-116.2004,-26.534399999999998,19.7514,175,75
2026-05-09 16:25:53.693,5,0.49,-0.41,0.96,-3.8996,6.2143999999999995,39.015,175,75
2026-05-09 16:25:53.704,4,0.6,0.31,1.52,-116.0204,-38.8544,21.1614,175,75
2026-05-09 16:25:53.704,1,-0.03,0.51,0.55,-17.3652,-20.761,5.5152,175,75
2026-05-09 16:25:53.704,2,0.24,-0.32,1.4,88.0076,142.4284,120.24359999999999,175,75
2026-05-09 16:25:53.704,5,0.45,-0.43,0.96,-4.2396,2.7744000000000004,43.995000000000005,175,75
2026-05-09 16:25:53.704,2,0.23,-0.34,1.41,85.1976,149.1884,124.6336,175,75
2026-05-09 16:25:53.717,5,0.42,-0.45,0.97,-3.8596,-1.1856,45.665,175,75
2026-05-09 16:25:53.717,2,0.21,-0.37,1.44,84.3476,168.1584,125.7336,175,75
2026-05-09 16:25:53.717,4,0.56,0.27,1.42,-117.2404,-49.5844,24.8814,175,75
2026-05-09 16:25:53.717,1,-0.04,0.53,0.52,-16.6952,-22.171,8.745199999999997,175,75
2026-05-09 16:25:53.728,3,-0.32,-1.0,0.58,-19.325399999999988,-11.335,-3.043800000000002,175,75
2026-05-09 16:25:53.728,4,0.54,0.25,1.41,-119.6104,-45.0744,26.1614,175,75
2026-05-09 16:25:53.728,5,0.4,-0.47,0.95,-1.6196000000000002,-6.925599999999999,39.035000000000004,175,75
2026-05-09 16:25:53.728,3,-0.33,-0.98,0.59,-19.815399999999997,-10.415000000000001,-0.7838000000000012,175,75
2026-05-09 16:25:53.728,5,0.42,-0.48,0.94,-0.16960000000000008,-7.765599999999999,33.225,175,75
2026-05-09 16:25:53.739,4,0.55,0.25,1.42,-121.93039999999999,-42.0844,27.7414,175,75
2026-05-09 16:25:53.739,2,0.13,-0.45,1.59,75.6876,193.0384,121.7136,175,75
2026-05-09 16:25:53.739,3,-0.31,-0.97,0.59,-18.2954,-7.675000000000001,-0.11380000000000123,175,75
2026-05-09 16:25:53.739,4,0.57,0.25,1.43,-122.8504,-43.9744,29.391399999999997,175,75
2026-05-09 16:25:53.749,2,0.11,-0.45,1.65,68.1876,183.3384,125.24359999999999,175,75
2026-05-09 16:25:53.749,1,-0.07,0.5,0.54,-13.895200000000003,-19.971,4.605199999999996,175,75
2026-05-09 16:25:53.749,3,-0.32,-0.95,0.61,-17.075399999999988,-7.915000000000003,1.2261999999999986,175,75
2026-05-09 16:25:53.787,5,0.44,-0.47,0.91,1.5903999999999998,4.9444,17.355,175,75
2026-05-09 16:25:53.787,1,-0.14,0.53,0.54,-13.7152,-20.341,3.0751999999999953,175,75
2026-05-09 16:25:53.799,4,0.56,0.26,1.43,-121.0204,-73.0644,37.4414,175,75
2026-05-09 16:25:53.799,3,-0.34,-0.95,0.59,-17.3754,-4.265000000000001,4.456199999999999,175,75
2026-05-09 16:25:53.799,2,0.24,-0.46,1.84,57.02760000000001,131.3884,125.8536,175,75
2026-05-09 16:25:53.799,5,0.43,-0.48,0.93,1.0404,6.7544,16.325000000000003,175,75
2026-05-09 16:25:53.799,5,0.43,-0.49,0.92,0.9904,8.2544,16.005000000000003,175,75
2026-05-09 16:25:53.799,1,-0.13,0.52,0.54,-12.915200000000002,-18.570999999999998,2.3451999999999984,175,75
2026-05-09 16:25:53.799,3,-0.38,-0.96,0.58,-16.585399999999993,0.6149999999999984,7.016199999999998,175,75
2026-05-09 16:25:53.809,3,-0.33,-0.97,0.6,-15.915399999999991,0.8049999999999997,5.0062,175,75
2026-05-09 16:25:53.809,2,0.21,-0.49,1.84,52.6376,99.8684,123.9036,175,75
2026-05-09 16:25:53.809,1,-0.14,0.52,0.55,-12.6752,-17.591,2.405199999999997,175,75
2026-05-09 16:25:53.809,4,0.61,0.28,1.35,-122.3004,-84.2844,41.281400000000005,175,75
2026-05-09 16:25:53.809,5,0.42,-0.5,0.93,1.5604,8.8044,16.045,175,75
2026-05-09 16:25:53.820,2,0.08,-0.53,1.77,47.397600000000004,55.0484,129.8836,175,75
2026-05-09 16:25:53.820,4,0.59,0.27,1.32,-121.9904,-84.0344,40.181400000000004,175,75
2026-05-09 16:25:53.820,1,-0.13,0.53,0.53,-12.0652,-16.371,1.9751999999999974,175,75
2026-05-09 16:25:53.820,5,0.41,-0.5,0.94,2.6404,8.7844,15.225,175,75
2026-05-09 16:25:53.831,2,0.17,-0.5,1.76,43.4976,25.7184,129.5736,175,75
2026-05-09 16:25:53.831,1,-0.12,0.53,0.55,-11.455200000000001,-14.551,2.1052,175,75
2026-05-09 16:25:53.831,3,-0.33,-0.99,0.61,-14.99539999999999,0.8649999999999984,6.286199999999997,175,75
2026-05-09 16:25:53.842,1,-0.13,0.55,0.55,-11.5152,-15.091,2.6552000000000007,175,75
2026-05-09 16:25:53.872,4,0.56,0.22,1.29,-111.6304,-82.7544,47.251400000000004,175,75
2026-05-09 16:25:53.872,1,-0.13,0.55,0.55,-11.885200000000001,-15.761,3.255199999999995,175,75
2026-05-09 16:25:53.872,2,0.16,-0.43,1.74,41.0576,19.2584,123.11359999999999,175,75
2026-05-09 16:25:53.872,5,0.39,-0.47,0.96,3.6704,5.224399999999999,6.404999999999999,175,75
2026-05-09 16:25:53.872,4,0.6,0.25,1.3,-112.0504,-87.39439999999999,52.3814,175,75
2026-05-09 16:25:53.872,1,-0.14,0.56,0.55,-10.9652,-15.030999999999999,4.175199999999997,175,75
2026-05-09 16:25:53.884,3,-0.3,-0.98,0.61,-13.415399999999991,3.844999999999999,4.036199999999997,175,75
2026-05-09 16:25:53.884,5,0.44,-0.44,0.96,3.0504000000000002,5.224399999999999,6.074999999999999,175,75
2026-05-09 16:25:53.884,1,-0.15,0.57,0.55,-11.145200000000003,-15.091,5.8851999999999975,175,75
2026-05-09 16:25:53.884,5,0.44,-0.43,0.96,1.9203999999999999,6.6844,8.115,175,75
2026-05-09 16:25:53.895,4,0.63,0.27,1.28,-113.6404,-93.30439999999999,55.431400000000004,175,75
2026-05-09 16:25:53.895,2,0.03,-0.47,1.73,50.2676,22.1784,114.0936,175,75
2026-05-09 16:25:53.895,4,0.65,0.25,1.23,-113.82039999999999,-99.52439999999999,56.281400000000005,175,75
2026-05-09 16:25:53.895,5,0.44,-0.43,0.96,1.1204,8.0544,10.375,175,75
2026-05-09 16:25:53.905,3,-0.35,-1.01,0.63,-13.715399999999988,-11.275,2.996199999999998,175,75
2026-05-09 16:25:53.905,1,-0.15,0.57,0.55,-9.865200000000002,-11.981,7.775199999999998,175,75
2026-05-09 16:25:53.905,2,0.05,-0.45,1.74,49.5976,23.0384,112.99359999999999,175,75
2026-05-09 16:25:53.905,4,0.65,0.2,1.15,-107.6604,-102.20439999999999,54.2714,175,75
2026-05-09 16:25:53.917,1,-0.16,0.56,0.56,-9.685200000000002,-10.581,9.0552,175,75
2026-05-09 16:25:53.917,2,0.12,-0.4,1.83,44.5976,18.9484,110.24359999999999,175,75
2026-05-09 16:25:53.917,5,0.4,-0.44,0.97,0.3003999999999999,7.5044,14.905,175,75
2026-05-09 16:25:53.917,3,-0.44,-1.0,0.49,-12.49539999999999,-20.665,-0.11380000000000123,175,75
2026-05-09 16:25:53.917,1,-0.16,0.57,0.56,-9.685200000000002,-12.051,10.825199999999995,175,75
2026-05-09 16:25:53.930,4,0.55,0.21,1.18,-92.3004,-101.7844,45.671400000000006,175,75
2026-05-09 16:25:53.930,2,0.11,-0.38,1.85,41.8476,25.168400000000002,108.4136,175,75
2026-05-09 16:25:53.930,5,0.38,-0.45,0.97,-0.38960000000000006,5.6144,15.115,175,75
2026-05-09 16:25:53.930,1,-0.16,0.55,0.57,-10.475200000000001,-14.061,12.345199999999998,175,75
2026-05-09 16:25:53.930,2,0.11,-0.39,1.81,43.6776,22.9784,106.5936,175,75
2026-05-09 16:25:53.940,4,0.53,0.2,1.21,-85.9504,-113.7944,39.6914,175,75
2026-05-09 16:25:53.940,3,-0.37,-0.98,0.49,-8.9054,-6.155000000000001,-0.6638000000000019,175,75
2026-05-09 16:25:53.940,1,-0.16,0.56,0.56,-10.5352,-15.460999999999999,13.685200000000002,175,75
2026-05-09 16:25:53.940,2,0.1,-0.41,1.77,47.1576,18.3384,106.4636,175,75
2026-05-09 16:25:53.951,4,0.65,0.2,1.22,-87.7804,-131.4744,41.3414,175,75
2026-05-09 16:25:53.951,3,-0.34,-0.98,0.52,-9.02539999999999,-5.905000000000001,1.046199999999999,175,75
2026-05-09 16:25:53.969,1,-0.17,0.55,0.55,-10.415200000000002,-14.850999999999999,13.565199999999997,175,75
2026-05-09 16:25:53.969,5,0.36,-0.46,0.96,2.0604,-0.7256,9.315,175,75
2026-05-09 16:25:53.969,3,-0.36,-0.99,0.52,-9.325399999999988,-7.065000000000001,2.9361999999999977,175,75
2026-05-09 16:25:53.970,4,0.67,0.2,1.14,-91.2604,-163.18439999999998,38.601400000000005,175,75
2026-05-09 16:25:53.980,1,-0.15,0.54,0.54,-8.345200000000002,-13.940999999999999,15.0852,175,75
2026-05-09 16:25:53.980,2,-0.15,-0.49,1.66,56.0576,46.9384,103.4836,175,75
2026-05-09 16:25:53.980,5,0.36,-0.44,0.95,3.3204000000000002,-0.6856,2.985,175,75
2026-05-09 16:25:53.980,1,-0.15,0.54,0.53,-8.0352,-13.870999999999999,15.825199999999995,175,75
2026-05-09 16:25:53.980,4,0.62,0.18,1.02,-88.7604,-180.74439999999998,34.8814,175,75
2026-05-09 16:25:53.980,3,-0.38,-1.0,0.5,-8.77539999999999,-9.385000000000002,3.0561999999999987,175,75
2026-05-09 16:25:53.991,2,-0.23,-0.48,1.58,54.8376,62.428399999999996,103.4836,175,75
2026-05-09 16:25:53.991,5,0.38,-0.43,0.94,4.1903999999999995,0.40439999999999987,-2.455,175,75
2026-05-09 16:25:53.991,5,0.4,-0.41,0.93,5.3304,2.0744000000000002,-6.5649999999999995,175,75
2026-05-09 16:25:53.991,1,-0.14,0.53,0.53,-7.4952000000000005,-12.350999999999999,16.245199999999997,175,75
2026-05-09 16:25:54.004,4,0.6,0.15,0.92,-83.0904,-183.9144,35.431400000000004,175,75
2026-05-09 16:25:54.004,5,0.42,-0.4,0.93,5.4403999999999995,3.0744000000000002,-6.955,175,75
2026-05-09 16:25:54.004,3,-0.43,-0.97,0.48,-9.085399999999993,-8.525000000000002,-0.29380000000000095,175,75
2026-05-09 16:25:54.018,4,0.58,0.15,0.85,-76.3804,-173.3044,34.9414,175,75
2026-05-09 16:25:54.018,5,0.44,-0.39,0.92,6.4204,4.1044,-4.815,175,75
2026-05-09 16:25:54.028,4,0.58,0.18,0.84,-74.8004,-168.8544,30.9114,175,75
2026-05-09 16:25:54.028,1,-0.14,0.53,0.53,-6.0852,-13.571,17.0452,175,75
2026-05-09 16:25:54.028,5,0.45,-0.39,0.92,8.2204,4.4643999999999995,-0.25500000000000034,175,75
2026-05-09 16:25:54.039,3,-0.4,-0.95,0.54,-10.24539999999999,-12.915000000000001,4.156199999999998,175,75
2026-05-09 16:25:54.039,4,0.59,0.22,0.87,-74.0004,-175.3144,22.441399999999998,175,75
2026-05-09 16:25:54.039,1,-0.15,0.55,0.55,-5.845200000000002,-14.911,16.245199999999997,175,75
2026-05-09 16:25:54.039,5,0.44,-0.38,0.92,9.7004,4.7544,5.164999999999999,175,75
2026-05-09 16:25:54.050,2,-0.07,-0.27,1.88,17.8276,62.2384,88.2336,175,75
2026-05-09 16:25:54.050,3,-0.36,-1.01,0.57,-10.915399999999991,-11.025,2.1461999999999986,175,75
2026-05-09 16:25:54.050,4,0.61,0.21,0.83,-76.1404,-199.52439999999999,15.971400000000001,175,75
2026-05-09 16:25:54.050,1,-0.15,0.55,0.51,-4.685200000000002,-12.901,13.505199999999995,175,75
2026-05-09 16:25:54.061,2,-0.18,-0.32,1.85,18.4376,18.398400000000002,92.0736,175,75
2026-05-09 16:25:54.061,5,0.39,-0.38,0.93,10.070400000000001,1.0144000000000002,13.254999999999999,175,75
2026-05-09 16:25:54.061,4,0.58,0.17,0.75,-78.82039999999999,-222.27439999999999,9.6914,175,75
2026-05-09 16:25:54.061,1,-0.15,0.53,0.5,-3.225200000000001,-8.870999999999999,13.135199999999998,175,75
2026-05-09 16:25:54.061,3,-0.34,-0.98,0.58,-12.625399999999999,-16.695,4.886199999999999,175,75
2026-05-09 16:25:54.061,4,0.52,0.14,0.65,-80.8304,-237.0844,5.3614,175,75
2026-05-09 16:25:54.074,5,0.39,-0.38,0.94,9.080400000000001,-0.8555999999999999,13.995,175,75
2026-05-09 16:25:54.074,1,-0.14,0.54,0.52,-2.435200000000002,-8.511,12.4052,175,75
2026-05-09 16:25:54.074,3,-0.38,-0.96,0.53,-12.685400000000001,-13.585,6.406199999999998,175,75
2026-05-09 16:25:54.074,4,0.44,0.14,0.55,-79.3704,-236.4744,8.1114,175,75
2026-05-09 16:25:54.074,5,0.4,-0.39,0.94,8.0604,-2.2856,14.025,175,75
2026-05-09 16:25:54.074,1,-0.16,0.55,0.54,-2.435200000000002,-8.870999999999999,11.005199999999995,175,75
2026-05-09 16:25:54.082,2,-0.3,-0.32,1.75,25.9976,-43.3116,102.0736,175,75
2026-05-09 16:25:54.082,5,0.41,-0.39,0.93,7.240399999999999,-3.3655999999999997,13.385,175,75
2026-05-09 16:25:54.082,3,-0.38,-0.96,0.52,-10.915399999999991,-8.655000000000001,5.2562,175,75
2026-05-09 16:25:54.082,1,-0.17,0.56,0.55,-3.1652000000000022,-10.341,9.605199999999996,175,75
2026-05-09 16:25:54.082,2,-0.16,-0.21,1.74,20.567600000000002,-59.0416,106.7136,175,75
2026-05-09 16:25:54.108,3,-0.36,-0.98,0.53,-9.455399999999997,-4.075000000000003,4.336199999999998,175,75
2026-05-09 16:25:54.108,5,0.42,-0.4,0.93,6.5104,-2.9956,12.125,175,75
2026-05-09 16:25:54.108,4,0.5,0.17,0.41,-71.8704,-185.5644,21.5814,175,75
2026-05-09 16:25:54.128,2,-0.04,-0.17,1.78,14.047600000000003,-73.2416,106.1036,175,75
2026-05-09 16:25:54.128,3,-0.35,-0.99,0.56,-8.845399999999998,-0.9050000000000011,4.706199999999999,175,75
2026-05-09 16:25:54.128,5,0.41,-0.4,0.92,6.0203999999999995,-2.5256,11.045,175,75
2026-05-09 16:25:54.128,4,0.55,0.18,0.39,-74.2504,-167.2044,23.1114,175,75
2026-05-09 16:25:54.150,2,-0.04,-0.19,1.78,11.1176,-78.4916,103.4836,175,75
2026-05-09 16:25:54.150,5,0.42,-0.42,0.91,6.240399999999999,-2.6656,10.194999999999999,175,75
2026-05-09 16:25:54.150,1,-0.19,0.6,0.59,-1.5752000000000024,-8.631,6.245199999999997,175,75
2026-05-09 16:25:54.150,2,-0.07,-0.25,1.74,12.887600000000003,-79.7116,99.02359999999999,175,75
2026-05-09 16:25:54.171,5,0.42,-0.43,0.9,6.740399999999999,-3.4055999999999997,11.285,175,75
2026-05-09 16:25:54.171,2,-0.12,-0.31,1.68,19.227600000000002,-79.1016,95.00359999999999,175,75
2026-05-09 16:25:54.187,1,-0.21,0.6,0.58,-1.755200000000002,-8.511,7.165199999999999,175,75
2026-05-09 16:25:54.190,2,-0.17,-0.34,1.66,25.1976,-76.4216,89.6936,175,75
2026-05-09 16:25:54.190,1,-0.21,0.61,0.53,-5.1752,-13.751,6.435200000000002,175,75
2026-05-09 16:25:54.191,4,0.51,0.2,0.42,-79.6704,-119.46440000000001,12.381400000000001,175,75
2026-05-09 16:25:54.202,5,0.42,-0.42,0.9,6.4803999999999995,-2.3556,12.924999999999999,175,75
2026-05-09 16:25:54.202,3,-0.4,-0.98,0.53,-8.595399999999998,-4.505000000000003,5.4361999999999995,175,75
2026-05-09 16:25:54.221,5,0.41,-0.42,0.91,5.160399999999999,-0.6756,11.315,175,75
2026-05-09 16:25:54.221,4,0.45,0.22,0.43,-77.6004,-113.67439999999999,9.1414,175,75
2026-05-09 16:25:54.239,1,-0.23,0.6,0.51,-5.295200000000001,-12.901,7.8352,175,75
2026-05-09 16:25:54.239,3,-0.36,-1.02,0.5,-7.075399999999988,-0.23499999999999943,1.4661999999999988,175,75
2026-05-09 16:25:54.259,4,0.36,0.22,0.44,-75.8904,-101.7844,7.3214,175,75
2026-05-09 16:25:54.274,4,0.31,0.23,0.44,-75.10040000000001,-93.0044,6.5813999999999995,175,75
2026-05-09 16:25:54.274,2,-0.13,-0.26,1.7,15.997600000000002,-51.1716,73.72359999999999,175,75
2026-05-09 16:25:54.274,4,0.27,0.24,0.44,-74.4304,-85.5044,6.1613999999999995,175,75
2026-05-09 16:25:54.274,5,0.39,-0.42,0.94,2.7403999999999997,5.7644,0.5549999999999997,175,75
2026-05-09 16:25:54.295,2,-0.13,-0.23,1.76,12.2776,-49.221599999999995,71.28359999999999,175,75
2026-05-09 16:25:54.295,3,-0.31,-1.01,0.57,-8.475399999999993,-5.175000000000001,-0.6038000000000014,175,75
2026-05-09 16:25:54.295,4,0.23,0.26,0.45,-73.0904,-76.0544,6.1613999999999995,175,75
2026-05-09 16:25:54.295,3,-0.37,-0.99,0.56,-6.465399999999988,-4.935000000000002,1.5961999999999978,175,75
2026-05-09 16:25:54.316,2,-0.13,-0.24,1.81,9.407600000000002,-86.2316,74.5736,175,75
2026-05-09 16:25:54.316,3,-0.4,-0.99,0.51,-9.38539999999999,-13.955000000000002,-0.9638000000000027,175,75
2026-05-09 16:25:54.316,5,0.38,-0.43,0.93,0.8003999999999999,2.4343999999999997,2.355,175,75
2026-05-09 16:25:54.341,2,-0.11,-0.25,1.77,8.1876,-121.5416,75.30359999999999,175,75
2026-05-09 16:25:54.341,5,0.39,-0.43,0.93,0.6703999999999999,-0.5455999999999999,9.805,175,75
2026-05-09 16:25:54.341,4,0.1,0.32,0.53,-64.9804,-59.0944,5.3014,175,75
2026-05-09 16:25:54.341,3,-0.37,-0.98,0.47,-6.215399999999988,-3.655000000000001,-0.9638000000000027,175,75
2026-05-09 16:25:54.341,5,0.38,-0.44,0.93,0.7704,-0.8355999999999999,10.344999999999999,175,75
2026-05-09 16:25:54.352,2,-0.26,-0.26,1.67,13.3076,-119.22160000000001,75.9836,175,75
2026-05-09 16:25:54.352,2,-0.27,-0.17,1.58,18.797600000000003,-65.6216,110.1236,175,75
2026-05-09 16:25:54.352,2,-0.01,-0.17,1.74,23.797600000000003,-63.851600000000005,102.8736,175,75
2026-05-09 16:25:54.352,3,-0.36,-0.99,0.53,-4.205399999999997,-0.5450000000000017,-1.5138000000000016,175,75
2026-05-09 16:25:54.353,5,0.37,-0.45,0.93,1.8603999999999998,0.4643999999999999,3.065,175,75
2026-05-09 16:25:54.363,2,-0.2,-0.31,1.79,26.787599999999998,-1.4815999999999994,73.8436,175,75
2026-05-09 16:25:54.363,5,0.38,-0.45,0.92,2.6404,1.7444000000000002,-3.205,175,75
2026-05-09 16:25:54.363,1,-0.19,0.6,0.61,2.2047999999999988,-3.6310000000000002,1.9751999999999974,175,75
2026-05-09 16:25:54.363,1,-0.2,0.6,0.59,1.3547999999999973,-6.311,2.1651999999999987,175,75
2026-05-09 16:25:54.363,1,-0.24,0.59,0.56,2.754799999999996,-5.221,3.0152,175,75
2026-05-09 16:25:54.363,4,-0.16,0.46,0.42,-53.3904,3.5256000000000007,15.971400000000001,175,75
2026-05-09 16:25:54.363,5,0.38,-0.44,0.92,2.4804,3.0544,-3.9650000000000003,175,75
2026-05-09 16:25:54.375,2,-0.08,-0.24,1.9,27.217600000000004,-43.55159999999999,63.7236,175,75
2026-05-09 16:25:54.375,5,0.38,-0.42,0.92,1.9003999999999999,5.0944,-6.305,175,75
2026-05-09 16:25:54.375,3,-0.39,-0.99,0.47,-4.63539999999999,-1.2750000000000021,0.376199999999999,175,75
2026-05-09 16:25:54.375,4,-0.15,0.46,0.52,-52.8504,19.4356,22.2514,175,75
2026-05-09 16:25:54.375,5,0.37,-0.41,0.92,1.4003999999999999,5.4544,-7.325000000000001,175,75
2026-05-09 16:25:54.385,2,-0.14,-0.18,1.81,19.8976,-64.83160000000001,68.8436,175,75
2026-05-09 16:25:54.385,3,-0.35,-1.0,0.51,-2.565399999999997,3.544999999999998,0.6161999999999974,175,75
2026-05-09 16:25:54.385,5,0.37,-0.41,0.92,0.7404,5.564400000000001,-7.865,175,75
2026-05-09 16:25:54.407,4,-0.1,0.48,0.53,-50.410399999999996,11.145600000000002,20.551399999999997,175,75
2026-05-09 16:25:54.407,2,-0.15,-0.19,1.81,17.337600000000002,-51.4816,64.33359999999999,175,75
2026-05-09 16:25:54.407,5,0.38,-0.4,0.92,-0.4096000000000001,4.9344,-5.475,175,75
2026-05-09 16:25:54.407,2,-0.15,-0.24,1.89,23.0076,-13.061599999999999,46.7136,175,75
2026-05-09 16:25:54.407,1,-0.23,0.59,0.54,2.8748000000000005,-4.611000000000001,2.405199999999997,175,75
2026-05-09 16:25:54.407,5,0.39,-0.4,0.93,-0.9796000000000001,4.7943999999999996,-3.0650000000000004,175,75
2026-05-09 16:25:54.419,4,-0.11,0.54,0.5,-43.2104,-0.1343999999999994,15.4214,175,75
2026-05-09 16:25:54.419,3,-0.36,-1.0,0.49,-4.575399999999988,-5.545000000000002,1.3461999999999978,175,75
2026-05-09 16:25:54.419,2,-0.17,-0.22,1.9,26.727600000000002,-8.7316,40.983599999999996,175,75
2026-05-09 16:25:54.419,5,0.38,-0.41,0.93,-1.0495999999999999,4.894399999999999,-0.4750000000000001,175,75
2026-05-09 16:25:54.447,3,-0.38,-1.0,0.49,-3.5353999999999957,-4.135000000000002,0.5561999999999987,175,75
2026-05-09 16:25:54.447,1,-0.23,0.58,0.55,3.4247999999999976,-3.6310000000000002,2.525199999999998,175,75
2026-05-09 16:25:54.447,5,0.38,-0.41,0.93,-1.0495999999999999,4.9444,1.315,175,75
2026-05-09 16:25:54.447,4,-0.15,0.57,0.43,-42.9704,13.3356,15.4214,175,75
2026-05-09 16:25:54.447,1,-0.22,0.59,0.57,2.994799999999998,-3.940999999999999,2.4651999999999994,175,75
2026-05-09 16:25:54.457,5,0.37,-0.41,0.93,-1.3896000000000002,5.304399999999999,1.8349999999999995,175,75
2026-05-09 16:25:54.457,2,-0.21,-0.11,1.94,30.9976,-19.7716,38.6036,175,75
2026-05-09 16:25:54.457,4,-0.19,0.58,0.4,-43.0904,32.5456,18.2914,175,75
2026-05-09 16:25:54.457,3,-0.36,-0.99,0.47,-2.865399999999994,-1.8250000000000028,-0.23380000000000223,175,75
2026-05-09 16:25:54.457,5,0.35,-0.42,0.93,-1.1196000000000002,5.0844000000000005,0.8249999999999997,175,75
2026-05-09 16:25:54.457,4,-0.21,0.59,0.39,-42.0504,60.7156,24.4514,175,75
2026-05-09 16:25:54.468,1,-0.23,0.59,0.57,3.724800000000002,-1.9209999999999994,2.715199999999996,175,75
2026-05-09 16:25:54.468,2,-0.21,-0.1,1.9,29.287599999999998,-29.7116,42.563599999999994,175,75
2026-05-09 16:25:54.468,1,-0.22,0.59,0.56,2.8748000000000005,-2.780999999999999,2.955199999999998,175,75
2026-05-09 16:25:54.468,5,0.35,-0.42,0.93,-1.0196,4.6244,-0.4650000000000003,175,75
2026-05-09 16:25:54.468,2,-0.22,-0.13,1.95,26.117600000000003,-29.951600000000003,48.11359999999999,175,75
2026-05-09 16:25:54.478,3,-0.38,-0.98,0.47,-2.865399999999994,-0.9050000000000011,0.7961999999999989,175,75
2026-05-09 16:25:54.478,1,-0.22,0.59,0.58,3.6047999999999973,-1.6209999999999987,2.6552000000000007,175,75
2026-05-09 16:25:54.478,3,-0.37,-0.99,0.47,-1.4653999999999883,-1.2750000000000021,-0.23380000000000223,175,75
2026-05-09 16:25:54.478,4,-0.2,0.6,0.4,-39.3104,95.16560000000001,33.171400000000006,175,75
2026-05-09 16:25:54.482,5,0.37,-0.42,0.93,-1.0695999999999999,3.6644,-2.305,175,75
2026-05-09 16:25:54.494,3,-0.36,-1.02,0.5,-2.9853999999999985,1.8349999999999973,0.6761999999999979,175,75
2026-05-09 16:25:54.494,4,-0.15,0.6,0.44,-36.870400000000004,121.2056,38.781400000000005,175,75
2026-05-09 16:25:54.494,2,-0.23,-0.12,2.05,40.0176,-10.811599999999999,29.5736,175,75
2026-05-09 16:25:54.494,5,0.37,-0.41,0.92,-1.3796,4.2044,-2.7350000000000003,175,75
2026-05-09 16:25:54.504,3,-0.36,-1.01,0.5,-2.375399999999999,-1.5150000000000006,-0.29380000000000095,175,75
2026-05-09 16:25:54.504,4,-0.1,0.59,0.5,-33.7604,144.8056,43.7214,175,75
2026-05-09 16:25:54.504,1,-0.22,0.59,0.57,2.814799999999998,-2.230999999999998,3.0152,175,75
2026-05-09 16:25:54.504,2,-0.25,-0.09,2.05,38.8576,-27.451600000000003,27.873599999999996,175,75
2026-05-09 16:25:54.504,2,-0.25,-0.08,2.07,35.3876,-37.0916,31.8936,175,75
2026-05-09 16:25:54.504,5,0.37,-0.42,0.92,-1.3896000000000002,5.9344,-3.555,175,75
2026-05-09 16:25:54.515,1,-0.22,0.57,0.55,2.4448000000000008,-2.1709999999999994,3.4452,175,75
2026-05-09 16:25:54.515,3,-0.36,-0.98,0.49,-2.865399999999994,-3.775000000000002,-1.0338000000000012,175,75
2026-05-09 16:25:54.515,4,-0.06,0.57,0.65,-25.1004,169.1356,47.4414,175,75
2026-05-09 16:25:54.515,2,-0.33,-0.1,1.96,30.9976,-62.631600000000006,36.28359999999999,175,75
2026-05-09 16:25:54.531,5,0.37,-0.41,0.93,-1.5695999999999999,6.7143999999999995,-4.135,175,75
2026-05-09 16:25:54.531,4,0.0,0.54,0.76,-18.270400000000002,173.03560000000002,50.001400000000004,175,75
2026-05-09 16:25:54.539,2,-0.26,-0.07,1.95,33.3076,-51.7816,32.803599999999996,175,75
2026-05-09 16:25:54.539,5,0.37,-0.41,0.94,-1.4596,7.6944,-4.765000000000001,175,75
2026-05-09 16:25:54.548,3,-0.37,-0.97,0.47,-2.9253999999999962,-3.0450000000000017,-1.573800000000002,175,75
2026-05-09 16:25:54.548,1,-0.23,0.57,0.56,3.244799999999998,-0.8909999999999982,2.585199999999997,175,75
2026-05-09 16:25:54.548,4,0.03,0.51,0.82,-14.4304,154.6856,45.431400000000004,175,75
2026-05-09 16:25:54.548,3,-0.36,-0.98,0.5,-1.7653999999999996,1.3449999999999989,-1.8838000000000026,175,75
2026-05-09 16:25:54.559,1,-0.22,0.57,0.56,3.4848,-0.8909999999999982,2.2251999999999974,175,75
2026-05-09 16:25:54.559,5,0.35,-0.41,0.94,-1.1296,8.8444,-6.5649999999999995,175,75
2026-05-09 16:25:54.559,4,0.07,0.49,0.87,-12.6004,125.22560000000001,36.461400000000005,175,75
2026-05-09 16:25:54.559,1,-0.22,0.57,0.57,3.3648000000000025,-0.22100000000000009,1.7951999999999977,175,75
2026-05-09 16:25:54.559,3,-0.33,-0.98,0.53,-1.7653999999999996,-0.2950000000000017,-1.3338000000000019,175,75
2026-05-09 16:25:54.569,2,-0.33,-0.09,2.15,54.7776,-4.521599999999999,8.543599999999998,175,75
2026-05-09 16:25:54.569,5,0.34,-0.4,0.95,-0.9996000000000002,8.1944,-7.385,175,75
2026-05-09 16:25:54.569,4,0.1,0.47,0.91,-8.4504,81.57560000000001,25.0014,175,75
2026-05-09 16:25:54.569,2,-0.38,-0.1,2.23,56.967600000000004,-24.5916,1.8935999999999922,175,75
2026-05-09 16:25:54.569,1,-0.23,0.56,0.57,2.754799999999996,-0.030999999999998806,1.0051999999999985,175,75
2026-05-09 16:25:54.569,3,-0.35,-0.99,0.5,-2.1953999999999922,-1.5750000000000028,1.4061999999999983,175,75
2026-05-09 16:25:54.582,5,0.34,-0.4,0.94,-0.8796,7.3344000000000005,-7.234999999999999,175,75
2026-05-09 16:25:54.582,1,-0.22,0.55,0.56,3.544800000000002,1.7390000000000008,-0.21480000000000032,175,75
2026-05-09 16:25:54.582,3,-0.39,-1.08,0.52,-6.215399999999988,1.4149999999999991,2.3861999999999988,175,75
2026-05-09 16:25:54.582,5,0.33,-0.39,0.94,-1.0596,5.9144000000000005,-6.725,175,75
2026-05-09 16:25:54.582,4,0.12,0.51,0.84,3.0695999999999994,2.7256,4.3314,175,75
2026-05-09 16:25:54.582,1,-0.24,0.53,0.55,3.724800000000002,4.239000000000001,-1.8048000000000002,175,75
2026-05-09 16:25:54.596,5,0.34,-0.39,0.93,-0.8796,4.564400000000001,-5.545,175,75
2026-05-09 16:25:54.596,3,-0.3,-0.94,0.46,2.684600000000003,2.6950000000000003,-5.903800000000002,175,75
2026-05-09 16:25:54.596,5,0.34,-0.39,0.92,-0.9796000000000001,3.7243999999999997,-4.195,175,75
2026-05-09 16:25:54.596,4,0.03,0.56,0.62,6.669600000000001,-61.2944,-10.368599999999999,175,75
2026-05-09 16:25:54.596,1,-0.26,0.52,0.57,4.764800000000001,4.2989999999999995,-1.8648000000000025,175,75
2026-05-09 16:25:54.596,3,-0.3,-1.03,0.55,-1.0353999999999957,4.704999999999998,3.9061999999999983,175,75
2026-05-09 16:25:54.596,2,-0.5,-0.02,2.25,42.7676,-30.621599999999997,20.4336,175,75
2026-05-09 16:25:54.608,1,-0.23,0.53,0.58,4.3947999999999965,-1.2509999999999977,1.1851999999999983,175,75
2026-05-09 16:25:54.608,2,-0.54,-0.06,2.35,75.3276,0.04840000000000089,-8.5364,175,75
2026-05-09 16:25:54.608,4,-0.04,0.59,0.49,5.079600000000001,-66.11439999999999,-8.4786,175,75
2026-05-09 16:25:54.608,1,-0.23,0.56,0.57,5.744799999999998,-2.0509999999999984,0.2751999999999981,175,75
2026-05-09 16:25:54.629,2,-0.44,-0.07,2.47,103.4376,-31.4216,-41.5864,175,75
2026-05-09 16:25:54.629,4,-0.09,0.62,0.4,5.259600000000001,-49.6444,0.24139999999999995,175,75
2026-05-09 16:25:54.629,3,-0.38,-1.0,0.44,1.5246000000000066,0.9249999999999972,-0.29380000000000095,175,75
2026-05-09 16:25:54.629,1,-0.22,0.58,0.56,5.6148000000000025,-1.1310000000000002,1.495199999999997,175,75
2026-05-09 16:25:54.629,5,0.38,-0.4,0.91,-0.09960000000000002,4.724399999999999,0.7649999999999997,175,75
2026-05-09 16:25:54.641,4,-0.13,0.67,0.35,6.419600000000001,-17.5744,16.101399999999998,175,75
2026-05-09 16:25:54.641,3,-0.36,-0.98,0.5,1.7646000000000015,7.384999999999998,-0.543800000000001,175,75
2026-05-09 16:25:54.641,2,-0.26,0.15,2.6,90.1976,-187.9416,0.00359999999999161,175,75
2026-05-09 16:25:54.641,1,-0.21,0.61,0.58,4.6447999999999965,-2.471,2.2251999999999974,175,75
2026-05-09 16:25:54.641,3,-0.32,-0.98,0.54,1.8946000000000112,1.7149999999999999,0.4361999999999977,175,75
2026-05-09 16:25:54.653,2,-0.29,0.25,2.55,84.2876,-282.7616,6.893599999999999,175,75
2026-05-09 16:25:54.653,5,0.37,-0.43,0.93,0.8704,8.2844,2.145,175,75
2026-05-09 16:25:54.653,1,-0.21,0.61,0.57,3.244799999999998,-3.0809999999999995,1.7951999999999977,175,75
2026-05-09 16:25:54.653,3,-0.37,-0.99,0.51,0.8546000000000049,-1.0250000000000021,2.206199999999999,175,75
2026-05-09 16:25:54.674,4,-0.1,0.69,0.45,8.0096,33.9456,44.6314,175,75
2026-05-09 16:25:54.674,1,-0.21,0.62,0.57,1.5947999999999993,-2.591000000000001,2.525199999999998,175,75
2026-05-09 16:25:54.674,2,-0.26,0.13,2.46,76.9076,-368.3116,16.163599999999995,175,75
2026-05-09 16:25:54.674,5,0.34,-0.45,0.96,0.7704,10.324399999999999,-2.035,175,75
2026-05-09 16:25:54.684,2,-0.31,0.05,2.38,76.8476,-390.3816,18.843599999999995,175,75
2026-05-09 16:25:54.684,3,-0.36,-1.01,0.49,0.9746000000000095,-0.1750000000000007,1.1661999999999981,175,75
2026-05-09 16:25:54.684,4,-0.03,0.65,0.5,8.7996,31.7556,54.2714,175,75
2026-05-09 16:25:54.684,5,0.32,-0.44,0.97,-0.10960000000000003,10.6244,-6.155,175,75
2026-05-09 16:25:54.684,2,-0.33,-0.01,2.28,83.6776,-385.3816,12.873599999999996,175,75
2026-05-09 16:25:54.694,4,-0.01,0.63,0.51,10.9996,23.465600000000002,55.9114,175,75
2026-05-09 16:25:54.694,5,0.31,-0.43,0.97,-1.0396,10.1044,-11.585,175,75
2026-05-09 16:25:54.694,3,-0.39,-0.98,0.46,2.5046000000000106,-0.2950000000000017,-0.9038000000000022,175,75
2026-05-09 16:25:54.694,2,-0.23,-0.02,2.2,95.5076,-369.5916,2.323599999999999,175,75
2026-05-09 16:25:54.694,1,-0.21,0.59,0.57,-0.1752000000000038,0.8189999999999991,5.025199999999998,175,75
2026-05-09 16:25:54.694,4,-0.02,0.63,0.52,12.399600000000001,18.4056,58.4714,175,75
2026-05-09 16:25:54.694,5,0.3,-0.43,0.98,-2.0396,9.074399999999999,-16.395,175,75
2026-05-09 16:25:54.703,2,-0.11,0.02,2.13,108.55760000000001,-351.4816,-9.016400000000004,175,75
2026-05-09 16:25:54.703,3,-0.36,-0.99,0.53,4.024600000000007,1.5350000000000001,0.1861999999999977,175,75
2026-05-09 16:25:54.703,5,0.32,-0.4,0.97,-2.9295999999999998,7.814399999999999,-19.904999999999998,175,75
2026-05-09 16:25:54.703,4,-0.01,0.62,0.53,11.9096,13.7656,61.281400000000005,175,75
2026-05-09 16:25:54.704,2,-0.12,0.06,2.09,116.2376,-336.90160000000003,-15.846400000000003,175,75
2026-05-09 16:25:54.714,5,0.34,-0.39,0.96,-3.9396,6.724399999999999,-20.084999999999997,175,75
2026-05-09 16:25:54.714,3,-0.35,-1.06,0.52,-0.4853999999999985,-4.385000000000002,-0.11380000000000123,175,75
2026-05-09 16:25:54.737,4,-0.02,0.61,0.57,10.079600000000001,5.535599999999999,62.741400000000006,175,75
2026-05-09 16:25:54.737,5,0.37,-0.38,0.96,-4.4996,6.5844000000000005,-17.935,175,75
2026-05-09 16:25:54.737,3,-0.4,-1.0,0.46,3.904600000000002,-2.0650000000000013,-4.013800000000002,175,75
2026-05-09 16:25:54.737,1,-0.23,0.56,0.55,0.004799999999995919,1.1290000000000013,6.185200000000002,175,75
2026-05-09 16:25:54.737,2,0.02,0.09,1.92,114.1076,-336.5416,-14.626400000000004,175,75
2026-05-09 16:25:54.747,5,0.39,-0.38,0.97,-4.1996,6.664399999999999,-13.535,175,75
2026-05-09 16:25:54.747,1,-0.23,0.56,0.56,0.6148000000000025,1.189,6.305199999999999,175,75
2026-05-09 16:25:54.747,3,-0.34,-0.98,0.51,3.5946,3.6050000000000004,-1.573800000000002,175,75
2026-05-09 16:25:54.747,2,0.09,0.09,1.85,110.6276,-350.2016,-15.30640000000001,175,75
2026-05-09 16:25:54.747,5,0.4,-0.38,0.96,-3.7396,6.8544,-7.375,175,75
2026-05-09 16:25:54.747,4,0.14,0.51,0.62,8.6196,-43.9144,50.671400000000006,175,75
2026-05-09 16:25:54.758,3,-0.34,-0.99,0.52,3.0446000000000026,0.49499999999999744,0.12619999999999898,175,75
2026-05-09 16:25:54.758,1,-0.23,0.56,0.56,1.4748000000000019,1.3689999999999998,5.755199999999995,175,75
2026-05-09 16:25:54.758,5,0.39,-0.39,0.97,-2.9396,6.8744,-1.0750000000000002,175,75
2026-05-09 16:25:54.758,2,0.18,0.07,1.73,107.8276,-368.3716,-16.456400000000002,175,75
2026-05-09 16:25:54.758,4,0.19,0.48,0.58,9.289599999999998,-70.8044,39.0214,175,75
2026-05-09 16:25:54.758,3,-0.37,-1.0,0.51,3.2946000000000026,-2.615000000000002,-1.6438000000000024,175,75
2026-05-09 16:25:54.768,1,-0.24,0.56,0.56,1.7147999999999968,0.6990000000000016,5.455199999999998,175,75
2026-05-09 16:25:54.768,5,0.36,-0.39,0.98,-2.4196,6.4244,3.555,175,75
2026-05-09 16:25:54.768,3,-0.36,-1.0,0.51,3.904600000000002,-1.0250000000000021,-2.793800000000001,175,75
2026-05-09 16:25:54.768,4,0.25,0.44,0.49,9.589599999999999,-88.67439999999999,26.101399999999998,175,75
2026-05-09 16:25:54.768,5,0.34,-0.42,0.98,-2.1995999999999998,4.814400000000001,5.9449999999999985,175,75
2026-05-09 16:25:54.779,2,0.22,0.08,1.55,105.80760000000001,-376.7216,-17.736400000000003,175,75
2026-05-09 16:25:54.779,1,-0.24,0.56,0.56,2.264800000000001,0.6990000000000016,4.665199999999999,175,75
2026-05-09 16:25:54.779,2,0.26,0.07,1.39,103.55760000000001,-363.8516,-28.406400000000005,175,75
2026-05-09 16:25:54.779,3,-0.35,-0.99,0.51,4.024600000000007,-3.1050000000000004,-2.3138000000000023,175,75
2026-05-09 16:25:54.779,5,0.32,-0.43,0.99,-1.5396,2.4244,5.635,175,75
2026-05-09 16:25:54.779,1,-0.24,0.56,0.55,2.6948000000000008,1.2490000000000023,4.055199999999999,175,75
2026-05-09 16:25:54.788,1,-0.24,0.56,0.56,3.6047999999999973,1.5489999999999995,3.505199999999995,175,75
2026-05-09 16:25:54.788,4,0.21,0.39,0.36,8.7996,-98.12440000000001,8.2914,175,75
2026-05-09 16:25:54.788,3,-0.37,-0.98,0.49,3.8446,-7.555,-2.373800000000001,175,75
2026-05-09 16:25:54.788,5,0.31,-0.43,0.98,-1.4095999999999997,-0.025599999999999845,2.725,175,75
2026-05-09 16:25:54.801,1,-0.23,0.56,0.57,3.4848,1.309000000000001,2.955199999999998,175,75
2026-05-09 16:25:54.801,4,0.16,0.4,0.31,7.149600000000001,-92.33439999999999,2.7414,175,75
2026-05-09 16:25:54.801,2,0.33,0.07,1.08,106.1176,-261.7816,-56.9464,175,75
2026-05-09 16:25:54.801,5,0.31,-0.44,0.97,-1.6396000000000002,-1.6056,-1.725,175,75
2026-05-09 16:25:54.811,3,-0.41,-1.0,0.46,4.084600000000009,-7.305,-4.1438000000000015,175,75
2026-05-09 16:25:54.811,1,-0.23,0.57,0.57,3.3648000000000025,1.4890000000000008,1.7951999999999977,175,75
2026-05-09 16:25:54.831,5,0.32,-0.43,0.97,-1.6496,-1.6556,-6.645,175,75
2026-05-09 16:25:54.831,2,0.47,0.14,0.99,108.0076,-176.0516,-58.896400000000014,175,75
2026-05-09 16:25:54.831,3,-0.36,-0.99,0.47,6.0946,0.125,-4.993800000000002,175,75
2026-05-09 16:25:54.845,1,-0.22,0.57,0.57,3.244799999999998,1.6090000000000018,1.1851999999999983,175,75
2026-05-09 16:25:54.845,4,0.04,0.45,0.25,3.7996,-45.014399999999995,-1.1586,175,75
2026-05-09 16:25:54.845,5,0.34,-0.43,0.96,-1.8996,-1.5055999999999998,-11.395000000000001,175,75
2026-05-09 16:25:54.845,2,0.58,0.18,1.03,110.3876,-116.4216,-69.6964,175,75
2026-05-09 16:25:54.845,3,-0.31,-0.99,0.54,5.7346,2.384999999999998,-2.0638000000000023,175,75
2026-05-09 16:25:54.845,4,-0.02,0.48,0.25,4.2896,-16.2944,2.8014,175,75
2026-05-09 16:25:54.855,5,0.36,-0.41,0.94,-2.3896,-0.3455999999999999,-14.215,175,75
2026-05-09 16:25:54.855,2,0.71,0.22,1.07,110.5676,-52.5116,-82.1964,175,75
2026-05-09 16:25:54.855,3,-0.32,-1.0,0.57,4.2646000000000015,-1.0250000000000021,-0.29380000000000095,175,75
2026-05-09 16:25:54.855,1,-0.23,0.57,0.57,2.6347999999999985,1.1290000000000013,-0.03480000000000061,175,75
2026-05-09 16:25:54.855,5,0.38,-0.4,0.95,-2.0396,2.6843999999999997,-15.355,175,75
2026-05-09 16:25:54.855,2,0.75,0.24,1.13,110.6276,-11.351600000000001,-91.1564,175,75
2026-05-09 16:25:54.865,1,-0.23,0.58,0.58,2.0848000000000013,0.9990000000000023,0.025199999999998113,175,75
2026-05-09 16:25:54.865,5,0.38,-0.4,0.95,-2.1296,5.0044,-14.355,175,75
2026-05-09 16:25:54.865,2,0.76,0.27,1.23,114.3476,31.0184,-102.55640000000001,175,75
2026-05-09 16:25:54.865,3,-0.35,-1.0,0.52,4.024600000000007,-6.215,-3.283800000000002,175,75
2026-05-09 16:25:54.865,5,0.37,-0.39,0.96,-2.1696,5.884399999999999,-13.185,175,75
2026-05-09 16:25:54.876,4,-0.1,0.5,0.46,6.5496,51.5756,23.531399999999998,175,75
2026-05-09 16:25:54.876,3,-0.35,-0.99,0.5,3.8446,-5.055,-2.793800000000001,175,75
2026-05-09 16:25:54.876,5,0.35,-0.39,0.96,-1.8096,5.8444,-11.685,175,75
2026-05-09 16:25:54.876,2,0.72,0.33,1.31,119.0476,70.2884,-107.80640000000001,175,75
2026-05-09 16:25:54.876,1,-0.23,0.58,0.57,1.1647999999999996,0.6389999999999993,-0.21480000000000032,175,75
2026-05-09 16:25:54.889,2,0.64,0.39,1.33,123.98760000000001,86.38839999999999,-114.32639999999999,175,75
2026-05-09 16:25:54.889,5,0.33,-0.38,0.97,-1.9295999999999998,4.0844000000000005,-10.415000000000001,175,75
2026-05-09 16:25:54.889,3,-0.37,-0.99,0.49,3.354600000000005,-4.935000000000002,-1.6438000000000024,175,75
2026-05-09 16:25:54.889,4,-0.01,0.46,0.55,12.149600000000001,30.775599999999997,23.351399999999998,175,75
2026-05-09 16:25:54.889,2,0.56,0.44,1.39,128.8576,92.9684,-114.8764,175,75
2026-05-09 16:25:54.889,5,0.32,-0.37,0.97,-2.3996,1.0444,-9.845,175,75
2026-05-09 16:25:54.901,3,-0.39,-1.0,0.49,3.4746000000000095,-3.525000000000002,-2.243800000000002,175,75
2026-05-09 16:25:54.901,1,-0.23,0.57,0.57,-0.05519999999999925,1.7989999999999995,-0.8248000000000033,175,75
2026-05-09 16:25:54.901,4,0.03,0.43,0.56,14.4096,3.945599999999999,17.0714,175,75
2026-05-09 16:25:54.901,5,0.33,-0.37,0.97,-2.8296,-1.8155999999999999,-8.175,175,75
2026-05-09 16:25:54.901,2,0.4,0.47,1.39,133.4376,93.27839999999999,-112.1964,175,75
2026-05-09 16:25:54.901,1,-0.23,0.56,0.57,-0.47520000000000095,1.309000000000001,-0.9448000000000008,175,75
2026-05-09 16:25:54.913,5,0.35,-0.37,0.96,-3.1296,-3.5656,-6.145,175,75
2026-05-09 16:25:54.913,4,0.02,0.43,0.54,14.0496,-18.7944,10.551400000000001,175,75
2026-05-09 16:25:54.913,3,-0.33,-1.0,0.53,4.084600000000009,-1.7650000000000006,-3.7738000000000014,175,75
2026-05-09 16:25:54.913,1,-0.22,0.56,0.57,-0.6651999999999987,1.7390000000000008,-1.0648000000000017,175,75
2026-05-09 16:25:54.913,5,0.36,-0.37,0.95,-2.9796,-4.0256,-2.5650000000000004,175,75
2026-05-09 16:25:54.913,4,-0.02,0.44,0.5,13.0096,-32.394400000000005,6.8914,175,75
2026-05-09 16:25:54.927,2,0.18,0.54,1.4,141.48760000000001,95.5984,-104.3864,175,75
2026-05-09 16:25:54.927,3,-0.33,-0.99,0.54,3.354600000000005,-4.685000000000002,-2.793800000000001,175,75
2026-05-09 16:25:54.927,1,-0.22,0.55,0.56,-1.0852000000000004,2.0390000000000015,-1.6148000000000025,175,75
2026-05-09 16:25:54.927,5,0.37,-0.38,0.94,-2.6396,-4.5956,0.8849999999999998,175,75
2026-05-09 16:25:54.927,3,-0.35,-1.0,0.53,3.2946000000000026,-5.484999999999999,-2.6738000000000017,175,75
2026-05-09 16:25:54.940,4,-0.09,0.48,0.41,11.2996,-31.2344,7.0714,175,75
2026-05-09 16:25:54.940,5,0.36,-0.39,0.94,-2.3196,-4.2756,3.6350000000000002,175,75
2026-05-09 16:25:54.940,1,-0.22,0.55,0.57,-1.0852000000000004,2.589000000000002,-1.9848,175,75
2026-05-09 16:25:54.940,3,-0.34,-1.01,0.53,3.0446000000000026,-5.665000000000003,-3.7738000000000014,175,75
2026-05-09 16:25:54.940,2,-0.09,0.61,1.37,143.1876,104.2584,-91.33640000000001,175,75
2026-05-09 16:25:54.951,1,-0.22,0.55,0.56,-1.2751999999999981,2.529,-2.104800000000001,175,75
2026-05-09 16:25:54.951,5,0.36,-0.4,0.94,-1.8396,-4.0756,5.484999999999999,175,75
2026-05-09 16:25:54.951,4,-0.12,0.5,0.36,11.609599999999999,-13.9744,12.1914,175,75
2026-05-09 16:25:54.951,2,-0.15,0.65,1.34,140.1976,110.77839999999999,-78.83640000000001,175,75
2026-05-09 16:25:54.975,1,-0.21,0.54,0.57,-1.5152,3.0790000000000006,-2.474800000000002,175,75
2026-05-09 16:25:54.975,2,-0.09,0.68,1.34,137.0276,100.9584,-65.11640000000001,175,75
2026-05-09 16:25:54.986,1,-0.21,0.55,0.57,-1.5152,3.1990000000000016,-2.6548000000000016,175,75
2026-05-09 16:25:54.986,5,0.34,-0.42,0.95,-0.6696000000000001,-3.5056,4.455,175,75
2026-05-09 16:25:54.986,4,-0.11,0.49,0.35,11.6696,32.1256,22.621399999999998,175,75
2026-05-09 16:25:54.986,3,-0.35,-0.99,0.51,1.6446000000000112,-7.855,-2.3138000000000023,175,75
2026-05-09 16:25:54.986,2,-0.12,0.71,1.36,133.5576,89.3784,-51.27640000000001,175,75
2026-05-09 16:25:54.996,4,-0.1,0.48,0.39,10.5096,47.6056,25.301399999999997,175,75
2026-05-09 16:25:54.996,1,-0.21,0.55,0.56,-1.9451999999999998,3.3790000000000013,-2.8948,175,75
2026-05-09 16:25:54.996,5,0.34,-0.42,0.95,0.8804,-2.6955999999999998,-1.1650000000000003,175,75
2026-05-09 16:25:54.996,4,-0.08,0.46,0.45,8.9796,56.2056,25.9114,175,75
2026-05-09 16:25:54.996,1,-0.21,0.56,0.57,-1.9451999999999998,3.809000000000001,-3.0248000000000026,175,75
2026-05-09 16:25:54.996,3,-0.34,-0.99,0.52,1.9545999999999992,-5.355,-1.6438000000000024,175,75
2026-05-09 16:25:55.004,5,0.34,-0.41,0.95,1.4604,-2.0256,-3.495,175,75
2026-05-09 16:25:55.004,4,-0.08,0.45,0.5,8.129599999999998,56.3256,24.0814,175,75
2026-05-09 16:25:55.004,3,-0.34,-0.99,0.52,1.404600000000002,-5.665000000000003,-1.2738000000000014,175,75
2026-05-09 16:25:55.029,4,-0.07,0.45,0.55,8.679599999999999,48.8256,20.6114,175,75
2026-05-09 16:25:55.029,2,-0.12,0.75,1.49,119.8976,59.4384,-32.49640000000001,175,75
2026-05-09 16:25:55.029,1,-0.21,0.57,0.57,-2.6152000000000015,3.559000000000001,-2.8948,175,75
2026-05-09 16:25:55.029,3,-0.32,-0.99,0.53,1.7646000000000015,-3.1650000000000027,-0.7238000000000024,175,75
2026-05-09 16:25:55.029,2,-0.08,0.76,1.48,116.7876,43.8284,-28.596400000000003,175,75
2026-05-09 16:25:55.039,4,-0.05,0.43,0.57,10.199599999999998,34.9256,15.791400000000001,175,75
2026-05-09 16:25:55.039,1,-0.21,0.58,0.57,-3.225200000000001,3.8689999999999998,-2.8348000000000013,175,75
2026-05-09 16:25:55.039,3,-0.31,-0.99,0.54,1.2246000000000095,-3.2250000000000014,0.1861999999999977,175,75
2026-05-09 16:25:55.050,5,0.37,-0.39,0.95,2.4304,-1.6956,-2.555,175,75
2026-05-09 16:25:55.050,4,-0.06,0.41,0.57,10.9396,20.595599999999997,11.031400000000001,175,75
2026-05-09 16:25:55.050,2,0.02,0.8,1.45,112.3976,1.0184000000000006,-15.7864,175,75
2026-05-09 16:25:55.050,3,-0.32,-0.99,0.54,0.9146000000000072,-3.585000000000001,0.9861999999999984,175,75
2026-05-09 16:25:55.050,1,-0.2,0.58,0.57,-3.225200000000001,3.4990000000000023,-2.2848000000000006,175,75
2026-05-09 16:25:55.050,5,0.36,-0.39,0.94,2.1704,-2.5956,-0.16500000000000004,175,75
2026-05-09 16:25:55.059,2,0.01,0.81,1.45,109.0476,-38.1216,-7.986400000000003,175,75
2026-05-09 16:25:55.059,4,-0.06,0.39,0.56,10.8696,12.855599999999999,8.051400000000001,175,75
2026-05-09 16:25:55.059,1,-0.21,0.58,0.57,-3.2851999999999997,2.649000000000001,-1.9848,175,75
2026-05-09 16:25:55.059,5,0.35,-0.39,0.95,1.3104,-3.9556,2.8249999999999997,175,75
