Time,ID,Ax,Ay,Az,Gx,Gy,Gz,H,W
2026-05-09 15:07:00.172,1,0.29,0.2,1.0,-240.9032,52.4784,137.3026,175,75
2026-05-09 15:07:00.172,5,1.06,-0.28,1.23,17.8514,29.144599999999997,34.0708,175,75
2026-05-09 15:07:00.172,4,-0.03,-0.9,1.51,219.20159999999998,-260.56219999999996,58.2388,175,75
2026-05-09 15:07:00.197,5,0.69,-0.33,1.34,27.0414,45.8046,-10.6092,175,75
2026-05-09 15:07:00.197,2,1.62,-1.08,1.37,-122.78099999999999,96.5588,-103.81719999999999,175,75
2026-05-09 15:07:00.202,3,-0.62,-0.3,1.32,-24.2146,-61.46640000000001,-38.432599999999994,175,75
2026-05-09 15:07:00.211,2,1.73,-0.83,1.29,-159.861,100.0288,-55.097199999999994,175,75
2026-05-09 15:07:00.211,1,0.41,0.61,1.18,-86.0232,2.5384,58.1026,175,75
2026-05-09 15:07:00.215,4,0.04,0.0,0.51,140.48160000000001,-244.0422,-16.8212,175,75
2026-05-09 15:07:00.215,2,1.49,-0.58,1.2,-170.041,117.8988,-17.3572,175,75
2026-05-09 15:07:00.217,5,0.78,-0.22,1.29,20.5514,50.7746,-42.2992,175,75
2026-05-09 15:07:00.221,1,0.42,0.69,1.32,-48.2732,11.258400000000002,32.9126,175,75
2026-05-09 15:07:00.234,5,0.8,-0.16,1.29,17.5414,54.7646,-42.7192,175,75
2026-05-09 15:07:00.234,1,0.43,0.74,1.47,-22.4832,11.3784,13.582599999999998,175,75
2026-05-09 15:07:00.234,2,1.24,-0.62,1.26,-104.98100000000001,178.68880000000001,-37.3572,175,75
2026-05-09 15:07:00.234,4,0.07,0.49,0.17,93.8416,-193.8022,-24.6812,175,75
2026-05-09 15:07:00.245,5,0.72,-0.12,1.22,13.6014,58.7046,-42.419200000000004,175,75
2026-05-09 15:07:00.245,3,-0.21,-0.56,1.08,-25.1846,-63.1764,-31.3026,175,75
2026-05-09 15:07:00.257,4,0.09,0.65,0.09,75.66159999999999,-158.9222,-22.371199999999998,175,75
2026-05-09 15:07:00.257,1,0.4,0.79,1.61,10.8068,3.5684000000000005,-15.2574,175,75
2026-05-09 15:07:00.257,3,-0.11,-0.6,0.98,-18.9046,-73.72640000000001,-25.932599999999997,175,75
2026-05-09 15:07:00.257,4,0.11,0.77,0.03,57.491600000000005,-127.3922,-15.8412,175,75
2026-05-09 15:07:00.257,5,0.53,-0.04,1.1,11.5714,58.0546,-49.6292,175,75
2026-05-09 15:07:00.257,2,1.06,-0.56,1.53,-31.260999999999996,244.8488,-66.0172,175,75
2026-05-09 15:07:00.268,1,0.4,0.83,1.61,41.4168,-13.561599999999999,-42.507400000000004,175,75
2026-05-09 15:07:00.280,3,-0.12,-0.57,0.76,-11.654599999999999,-78.05640000000001,-17.3426,175,75
2026-05-09 15:07:00.280,5,0.43,0.03,1.04,10.1614,53.0846,-59.5292,175,75
2026-05-09 15:07:00.280,3,-0.21,-0.39,0.54,-4.4546,-62.626400000000004,-11.6126,175,75
2026-05-09 15:07:00.280,5,0.34,0.08,0.99,8.1214,43.4146,-73.6292,175,75
2026-05-09 15:07:00.291,1,0.39,0.82,1.55,78.6768,-20.1416,-73.1774,175,75
2026-05-09 15:07:00.291,2,0.94,-0.35,1.67,-9.001,247.28880000000004,-71.31719999999999,175,75
2026-05-09 15:07:00.303,1,0.4,0.81,1.57,93.7368,-17.831599999999998,-90.9874,175,75
2026-05-09 15:07:00.304,3,0.08,-0.19,0.42,3.165399999999999,-89.69640000000001,4.7974,175,75
2026-05-09 15:07:00.304,5,0.23,0.13,0.82,10.5614,17.7246,-109.6692,175,75
2026-05-09 15:07:00.304,4,-0.05,0.85,-0.02,-25.428399999999996,-16.2322,-3.8912000000000013,175,75
2026-05-09 15:07:00.304,1,0.47,0.81,1.65,107.3968,-15.881599999999999,-111.1074,175,75
2026-05-09 15:07:00.324,5,0.04,0.2,0.53,17.0714,-8.9754,-164.0792,175,75
2026-05-09 15:07:00.335,1,0.56,0.83,1.74,123.1268,-38.381600000000006,-137.3274,175,75
2026-05-09 15:07:00.335,3,-0.77,0.95,1.14,45.115399999999994,12.923599999999997,21.3174,175,75
2026-05-09 15:07:00.335,2,0.86,-0.38,2.02,43.559000000000005,129.6688,26.242800000000003,175,75
2026-05-09 15:07:00.335,4,-0.09,0.68,0.33,-81.5884,15.5278,1.3487999999999989,175,75
2026-05-09 15:07:00.335,1,0.6,0.84,1.74,129.2868,-47.641600000000004,-148.4274,175,75
2026-05-09 15:07:00.347,3,-0.88,1.35,1.59,60.785399999999996,44.2636,36.0774,175,75
2026-05-09 15:07:00.347,2,0.92,-0.42,2.02,52.279,79.72879999999999,29.5928,175,75
2026-05-09 15:07:00.347,4,-0.09,0.63,0.52,-92.0784,2.3577999999999975,-2.851200000000002,175,75
2026-05-09 15:07:00.347,5,0.03,0.16,0.35,12.3214,-33.855399999999996,-156.39919999999998,175,75
2026-05-09 15:07:00.347,1,0.6,0.86,1.71,135.98680000000002,-53.991600000000005,-159.3974,175,75
2026-05-09 15:07:00.359,2,0.93,-0.41,1.97,55.879000000000005,46.6188,29.8428,175,75
2026-05-09 15:07:00.359,3,-0.58,1.4,1.83,41.8854,63.593599999999995,28.3874,175,75
2026-05-09 15:07:00.371,3,0.07,1.1,1.55,-19.6346,53.1036,17.6574,175,75
2026-05-09 15:07:00.371,5,-0.13,0.16,0.23,14.6314,-76.53540000000001,-105.8092,175,75
2026-05-09 15:07:00.371,4,-0.08,0.57,0.46,-116.15839999999999,-67.6422,-18.771200000000004,175,75
2026-05-09 15:07:00.371,1,0.58,0.79,1.62,160.3168,-59.2916,-183.2374,175,75
2026-05-09 15:07:00.371,2,1.14,-0.46,1.88,70.26899999999999,6.0687999999999995,20.692800000000002,175,75
2026-05-09 15:07:00.384,5,-0.08,0.13,0.19,9.2214,-73.61540000000001,-98.2392,175,75
2026-05-09 15:07:00.384,3,1.15,1.31,1.22,-58.05460000000001,0.7835999999999963,-45.452600000000004,175,75
2026-05-09 15:07:00.384,4,-0.01,0.52,0.25,-133.1784,-91.1722,-32.9812,175,75
2026-05-09 15:07:00.384,1,0.51,0.76,1.59,169.0968,-69.2916,-187.5074,175,75
2026-05-09 15:07:00.395,2,0.92,-0.38,1.72,92.45899999999999,33.748799999999996,10.2628,175,75
2026-05-09 15:07:00.395,3,1.31,1.49,0.32,-117.44460000000001,-57.74640000000001,-26.002599999999997,175,75
2026-05-09 15:07:00.395,1,0.42,0.68,1.5,177.8768,-88.19160000000001,-190.3774,175,75
2026-05-09 15:07:00.395,4,0.08,0.45,0.13,-138.41840000000002,-98.2522,-41.821200000000005,175,75
2026-05-09 15:07:00.395,5,0.09,0.02,0.03,6.7914,-50.215399999999995,-42.9992,175,75
2026-05-09 15:07:00.409,4,0.46,0.31,0.02,-139.8184,-101.9122,-59.38120000000001,175,75
2026-05-09 15:07:00.409,3,0.54,0.8,-0.53,-121.7146,33.53359999999999,-43.8026,175,75
2026-05-09 15:07:00.409,1,0.28,0.54,1.36,190.98680000000002,-99.7816,-197.9974,175,75
2026-05-09 15:07:00.409,5,0.13,0.02,-0.03,8.4314,-40.5554,-2.5692,175,75
2026-05-09 15:07:00.409,2,0.9,-0.42,1.6,115.389,11.9288,-0.21720000000000006,175,75
2026-05-09 15:07:00.421,1,0.31,0.38,1.19,202.8168,-84.7816,-200.6774,175,75
2026-05-09 15:07:00.421,3,-0.22,0.46,0.47,-82.8746,175.11360000000002,-82.34259999999999,175,75
2026-05-09 15:07:00.421,5,0.22,0.07,-0.1,8.481399999999999,-34.8154,41.9408,175,75
2026-05-09 15:07:00.421,2,0.9,-0.46,1.58,120.26899999999999,4.0588,7.702800000000001,175,75
2026-05-09 15:07:00.421,4,-0.12,0.39,-0.17,-177.6284,-150.81220000000002,-63.83120000000001,175,75
2026-05-09 15:07:00.432,1,0.41,0.2,1.09,215.01680000000002,-68.1316,-200.8074,175,75
2026-05-09 15:07:00.432,5,0.42,0.12,-0.14,8.391399999999999,-24.425400000000003,89.7508,175,75
2026-05-09 15:07:00.432,2,0.9,-0.55,1.52,126.54899999999999,-14.2912,16.672800000000002,175,75
2026-05-09 15:07:00.432,1,0.43,0.05,1.04,227.20680000000002,-53.6816,-196.5374,175,75
2026-05-09 15:07:00.446,3,-1.32,1.77,3.04,31.7054,173.4136,-65.6326,175,75
2026-05-09 15:07:00.446,2,0.94,-0.65,1.43,135.749,-49.9712,23.1328,175,75
2026-05-09 15:07:00.446,1,0.42,-0.02,1.01,240.8068,-43.8016,-191.5974,175,75
2026-05-09 15:07:00.446,5,0.51,0.15,-0.14,26.2414,16.694599999999998,166.35080000000002,175,75
2026-05-09 15:07:00.456,4,-0.76,0.55,-0.19,-188.47840000000002,27.907799999999995,-13.9512,175,75
2026-05-09 15:07:00.456,2,0.97,-0.67,1.36,143.499,-71.1212,24.7828,175,75
2026-05-09 15:07:00.466,4,-0.43,0.39,-0.22,-192.3784,126.5078,-14.6812,175,75
2026-05-09 15:07:00.466,1,0.25,-0.06,0.92,260.5068,-42.2216,-187.0174,175,75
2026-05-09 15:07:00.466,2,0.98,-0.61,1.24,154.839,-73.3812,28.0728,175,75
2026-05-09 15:07:00.466,5,0.6,0.26,-0.11,30.3914,44.964600000000004,207.73080000000002,175,75
2026-05-09 15:07:00.466,3,2.88,-0.69,3.31,114.0754,-120.30640000000001,-98.1326,175,75
2026-05-09 15:07:00.478,4,0.02,0.13,0.1,-214.08839999999998,163.7678,3.728799999999998,175,75
2026-05-09 15:07:00.478,1,0.04,-0.11,0.93,274.40680000000003,-59.531600000000005,-186.7174,175,75
2026-05-09 15:07:00.478,2,0.9,-0.56,1.14,165.749,-54.5412,33.4328,175,75
2026-05-09 15:07:00.478,5,0.51,0.18,-0.03,34.0814,25.0246,205.1708,175,75
2026-05-09 15:07:00.488,3,-0.33,1.81,1.46,-9.7046,-159.3964,150.2774,175,75
2026-05-09 15:07:00.488,4,-0.05,-0.18,0.47,-238.59839999999997,133.2178,14.398799999999998,175,75
2026-05-09 15:07:00.488,1,-0.3,-0.2,0.91,285.7468,-88.0116,-179.5874,175,75
2026-05-09 15:07:00.488,2,0.92,-0.62,1.09,175.199,-25.821199999999997,40.0828,175,75
2026-05-09 15:07:00.488,5,0.71,0.07,0.23,33.6914,-19.9054,190.2708,175,75
2026-05-09 15:07:00.503,3,-0.87,0.31,0.32,-11.4646,-61.52640000000001,60.70740000000001,175,75
2026-05-09 15:07:00.503,5,0.72,-0.11,0.36,30.1714,-5.3154,156.2408,175,75
2026-05-09 15:07:00.503,2,1.11,-0.76,1.05,176.479,-21.9212,50.0828,175,75
2026-05-09 15:07:00.503,1,-0.33,-0.5,0.9,297.3968,-110.5716,-168.4874,175,75
2026-05-09 15:07:00.519,5,0.58,-0.21,0.42,26.3814,14.5446,119.3408,175,75
2026-05-09 15:07:00.519,2,1.33,-0.96,1.1,173.979,-36.6112,54.0428,175,75
2026-05-09 15:07:00.519,5,0.62,-0.18,0.52,15.0914,27.444599999999998,92.6308,175,75
2026-05-09 15:07:00.519,4,0.02,-1.35,0.74,-267.2584,90.52780000000001,-7.7912,175,75
2026-05-09 15:07:00.525,4,0.05,-1.61,0.79,-289.2084,70.95779999999999,-10.351200000000002,175,75
2026-05-09 15:07:00.529,2,1.66,-1.37,1.04,176.419,-34.6612,37.522800000000004,175,75
2026-05-09 15:07:00.529,3,-1.58,-0.91,-0.07,-9.514599999999998,34.3236,93.8174,175,75
2026-05-09 15:07:00.544,5,0.81,-0.07,1.07,-10.5886,70.35459999999999,54.9808,175,75
2026-05-09 15:07:00.544,1,-0.86,-1.38,-0.24,295.6268,-150.02159999999998,-178.60739999999998,175,75
2026-05-09 15:07:00.544,2,1.83,-1.4,0.92,184.71900000000002,-38.7512,42.1528,175,75
2026-05-09 15:07:00.544,4,0.04,-1.91,0.9,-317.8084,84.0678,-18.771200000000004,175,75
2026-05-09 15:07:00.544,3,-1.64,-1.75,-0.06,-11.9546,9.933599999999998,75.9574,175,75
2026-05-09 15:07:00.556,5,0.95,-0.17,1.63,-24.7086,88.6146,7.8908000000000005,175,75
2026-05-09 15:07:00.556,1,-1.19,-1.32,-0.78,275.8068,-111.1216,-178.9174,175,75
2026-05-09 15:07:00.556,2,2.09,-1.55,0.79,203.06900000000002,-66.7312,39.412800000000004,175,75
2026-05-09 15:07:00.556,4,0.14,-2.13,0.88,-334.3384,93.6378,-29.741200000000003,175,75
2026-05-09 15:07:00.556,3,-0.27,-2.58,1.62,72.9254,73.0436,-74.4126,175,75
2026-05-09 15:07:00.567,1,-1.7,-1.31,-1.21,264.8968,14.4284,-173.7874,175,75
2026-05-09 15:07:00.567,3,1.5,-1.48,2.1,141.33540000000002,150.5436,-84.59259999999999,175,75
2026-05-09 15:07:00.578,2,2.22,-2.01,0.71,229.109,-104.2312,37.522800000000004,175,75
2026-05-09 15:07:00.578,3,1.77,0.22,2.21,124.9354,90.4236,95.15740000000001,175,75
2026-05-09 15:07:00.578,4,0.08,-2.7,0.78,-352.0784,134.7378,-15.171200000000002,175,75
2026-05-09 15:07:00.592,5,1.23,0.5,2.0,-119.8486,235.9146,-173.51919999999998,175,75
2026-05-09 15:07:00.592,3,0.05,0.14,1.71,92.55539999999999,-24.216400000000004,170.5274,175,75
2026-05-09 15:07:00.592,1,-1.17,-1.18,0.23,259.4068,35.648399999999995,-151.1674,175,75
2026-05-09 15:07:00.592,4,0.03,-2.93,0.77,-359.7584,176.8078,2.388799999999998,175,75
2026-05-09 15:07:00.602,5,1.1,0.25,2.0,-135.4986,249.4646,-250.71919999999997,175,75
2026-05-09 15:07:00.603,1,-0.84,-1.14,0.46,236.5968,-10.7516,-135.6774,175,75
2026-05-09 15:07:00.603,2,2.45,-2.23,0.51,237.339,-152.8912,1.1227999999999998,175,75
2026-05-09 15:07:00.613,5,0.69,-0.57,1.7,-122.79860000000001,249.4646,-250.71919999999997,175,75
2026-05-09 15:07:00.613,1,-0.82,-0.95,0.23,215.2568,-40.4516,-120.00739999999999,175,75
2026-05-09 15:07:00.613,3,-1.53,0.72,0.98,115.2954,133.1636,33.5774,175,75
2026-05-09 15:07:00.613,5,0.18,-0.97,1.04,-101.21860000000001,249.4646,-79.1492,175,75
2026-05-09 15:07:00.613,2,2.79,-2.1,0.33,237.21900000000002,-187.3412,-21.257199999999997,175,75
2026-05-09 15:07:00.627,4,-0.15,-3.12,1.34,-321.8384,287.8478,-62.61120000000001,175,75
2026-05-09 15:07:00.627,3,-0.87,0.41,2.33,45.175399999999996,-51.16640000000001,39.8574,175,75
2026-05-09 15:07:00.627,5,-1.15,-0.75,0.62,-61.9386,249.4646,63.2108,175,75
2026-05-09 15:07:00.639,2,2.94,-1.82,-0.04,255.749,-237.9512,-53.3872,175,75
2026-05-09 15:07:00.639,1,-0.68,-0.47,0.02,204.0968,-0.2115999999999998,-75.4374,175,75
2026-05-09 15:07:00.639,4,-0.35,-3.06,1.73,-277.1984,271.2678,-150.4212,175,75
2026-05-09 15:07:00.639,2,2.76,-1.92,-0.17,270.019,-243.50119999999998,-77.59719999999999,175,75
2026-05-09 15:07:00.659,3,-0.61,0.21,1.66,27.3154,-42.8064,-22.7626,175,75
2026-05-09 15:07:00.659,5,-2.0,-0.78,1.76,9.6514,73.7546,111.5808,175,75
2026-05-09 15:07:00.659,4,-0.03,-2.96,1.95,-318.53839999999997,301.6878,-201.2712,175,75
2026-05-09 15:07:00.659,3,-0.35,0.19,1.97,11.2754,-64.5764,-5.932600000000001,175,75
2026-05-09 15:07:00.662,1,-0.35,-0.18,0.02,180.8068,37.4784,-43.5474,175,75
2026-05-09 15:07:00.677,4,0.13,-2.88,1.9,-338.41839999999996,290.7778,-204.2012,175,75
2026-05-09 15:07:00.677,3,-0.4,-0.01,1.84,10.7854,-70.1864,-3.922599999999999,175,75
2026-05-09 15:07:00.677,2,2.15,-2.27,-0.35,273.12899999999996,-114.9712,-141.25719999999998,175,75
2026-05-09 15:07:00.677,5,-1.63,-0.64,2.0,44.5914,-5.4754,-52.7592,175,75
2026-05-09 15:07:00.677,4,0.06,-2.8,1.82,-343.1184,276.1378,-196.94119999999998,175,75
2026-05-09 15:07:00.687,1,-0.36,0.01,-0.03,172.45680000000002,44.858399999999996,-32.6974,175,75
2026-05-09 15:07:00.687,3,-0.46,-0.09,1.44,11.645399999999999,-66.0464,-2.342600000000001,175,75
2026-05-09 15:07:00.687,5,-1.91,-0.57,1.91,60.5314,-72.4954,-148.4392,175,75
2026-05-09 15:07:00.687,4,-0.09,-2.72,1.76,-340.79839999999996,260.2278,-196.3912,175,75
2026-05-09 15:07:00.695,3,-0.82,-0.24,1.25,18.4054,-74.4564,-0.5725999999999996,175,75
2026-05-09 15:07:00.704,1,-0.4,0.5,-0.07,152.1468,49.6684,-10.197400000000002,175,75
2026-05-09 15:07:00.705,2,2.1,-2.08,-0.28,278.18899999999996,5.518800000000001,-164.8572,175,75
2026-05-09 15:07:00.720,2,2.13,-1.94,-0.18,286.729,10.5188,-173.69719999999998,175,75
2026-05-09 15:07:00.720,5,-0.5,-0.02,1.27,135.2214,-189.3754,-193.9492,175,75
2026-05-09 15:07:00.720,2,2.07,-1.8,-0.06,290.87899999999996,15.708799999999998,-176.56719999999999,175,75
2026-05-09 15:07:00.720,1,-0.18,0.66,-0.04,110.8068,40.038399999999996,12.612599999999999,175,75
2026-05-09 15:07:00.726,4,-0.57,-2.59,2.15,-316.5884,194.6178,-289.81120000000004,175,75
2026-05-09 15:07:00.726,5,-0.32,0.39,1.46,146.7014,-195.0354,-125.5892,175,75
2026-05-09 15:07:00.726,3,-0.29,-0.92,1.52,40.545399999999994,-52.936400000000006,4.7974,175,75
2026-05-09 15:07:00.737,2,1.98,-1.63,0.02,294.049,29.9688,-175.5272,175,75
2026-05-09 15:07:00.737,1,-0.07,0.74,-0.06,86.9068,26.4984,15.112599999999999,175,75
2026-05-09 15:07:00.750,2,1.93,-1.5,0.04,296.669,37.1688,-173.4572,175,75
2026-05-09 15:07:00.750,4,-0.88,-1.99,2.15,-332.8684,102.6678,-358.2812,175,75
2026-05-09 15:07:00.750,3,0.17,-0.97,1.26,70.1754,-65.0664,21.6874,175,75
2026-05-09 15:07:00.765,5,0.29,0.52,1.22,26.1814,-147.9754,-6.0292,175,75
2026-05-09 15:07:00.776,2,1.87,-1.42,0.11,296.359,54.6688,-164.8572,175,75
2026-05-09 15:07:00.776,2,1.75,-1.42,0.23,291.299,75.7688,-155.9572,175,75
2026-05-09 15:07:00.776,5,0.39,0.42,1.05,0.011399999999999855,-123.9954,30.1008,175,75
2026-05-09 15:07:00.778,1,-0.03,1.63,-0.09,22.3968,7.168400000000001,6.882599999999998,175,75
2026-05-09 15:07:00.781,2,1.69,-1.4,0.36,287.88899999999995,109.8488,-145.3472,175,75
2026-05-09 15:07:00.796,1,0.13,1.82,-0.12,20.076800000000002,17.0484,-1.8374000000000006,175,75
2026-05-09 15:07:00.797,5,0.51,0.16,0.79,-27.5886,-71.78540000000001,102.4708,175,75
2026-05-09 15:07:00.811,2,1.77,-1.37,0.49,284.289,135.45880000000002,-133.3272,175,75
2026-05-09 15:07:00.811,3,0.71,-1.7,0.26,142.9854,-65.97640000000001,110.6474,175,75
2026-05-09 15:07:00.811,4,-0.19,-0.9,1.79,-290.0084,113.0978,-254.0112,175,75
2026-05-09 15:07:00.811,1,-1.39,2.12,-0.22,13.676800000000002,-48.9316,14.3226,175,75
2026-05-09 15:07:00.811,5,0.31,0.1,0.67,-36.2286,-58.0654,117.3808,175,75
2026-05-09 15:07:00.811,2,1.8,-1.31,0.57,281.239,131.3188,-125.5272,175,75
2026-05-09 15:07:00.818,4,-0.31,-0.92,1.83,-264.5184,95.52780000000001,-259.87120000000004,175,75
2026-05-09 15:07:00.818,1,-3.39,2.54,-0.67,5.866800000000001,-55.2716,21.1526,175,75
2026-05-09 15:07:00.818,5,0.1,0.06,0.54,-42.7986,-64.5254,111.0108,175,75
2026-05-09 15:07:00.822,3,0.29,-1.28,0.73,185.90540000000001,9.693599999999996,122.84740000000001,175,75
2026-05-09 15:07:00.839,3,0.16,-1.06,1.26,221.4554,75.78359999999999,133.5174,175,75
2026-05-09 15:07:00.839,5,-0.03,0.02,0.33,-33.2886,-90.1054,39.6508,175,75
2026-05-09 15:07:00.849,4,-0.32,-0.19,1.76,-262.0184,19.377799999999993,-275.9612,175,75
2026-05-09 15:07:00.861,1,1.27,-1.52,2.93,27.336800000000004,168.1484,2.9825999999999997,175,75
2026-05-09 15:07:00.861,2,1.79,-0.81,0.71,273.919,13.818800000000001,-140.03719999999998,175,75
2026-05-09 15:07:00.861,4,-0.31,0.02,1.7,-252.1384,15.837800000000001,-266.0912,175,75
2026-05-09 15:07:00.861,3,0.11,-0.65,0.92,190.05540000000002,16.0936,90.7074,175,75
2026-05-09 15:07:00.861,5,0.65,0.07,0.34,-7.7585999999999995,-162.0054,-10.1392,175,75
2026-05-09 15:07:00.862,2,1.64,-0.69,0.71,279.959,23.748799999999996,-139.6072,175,75
2026-05-09 15:07:00.875,5,1.65,0.11,0.41,-1.6685999999999999,-167.24540000000002,-6.5992,175,75
2026-05-09 15:07:00.875,1,-0.04,-0.41,0.81,-185.4732,-16.7916,-49.7074,175,75
2026-05-09 15:07:00.875,3,-1.25,-0.02,1.37,168.4754,95.1736,76.5674,175,75
2026-05-09 15:07:00.875,5,2.0,-0.0,0.34,-5.4086,-67.4454,14.5708,175,75
2026-05-09 15:07:00.885,2,1.56,-0.7,0.82,283.00899999999996,51.9888,-125.5272,175,75
2026-05-09 15:07:00.885,1,0.24,2.21,1.95,-166.9332,-31.9716,26.212599999999995,175,75
2026-05-09 15:07:00.885,4,-0.34,0.38,1.55,-208.29840000000002,18.0278,-213.9512,175,75
2026-05-09 15:07:00.885,3,-1.15,-0.05,1.57,172.67540000000002,67.25359999999999,61.1974,175,75
2026-05-09 15:07:00.898,2,1.58,-0.84,1.0,278.739,84.2388,-108.3872,175,75
2026-05-09 15:07:00.899,1,-0.3,1.91,2.0,-125.59320000000001,-183.3816,47.4326,175,75
2026-05-09 15:07:00.899,5,1.17,-1.02,-0.12,18.4014,93.7246,121.6008,175,75
2026-05-09 15:07:00.907,3,-0.39,-0.41,0.91,151.0354,-37.8664,17.2374,175,75
2026-05-09 15:07:00.907,2,1.72,-1.0,1.15,268.739,93.8788,-97.53720000000001,175,75
2026-05-09 15:07:00.920,1,-0.01,0.93,0.99,-91.5132,-152.4016,44.4426,175,75
2026-05-09 15:07:00.920,3,-0.09,0.05,0.27,140.6654,33.4136,-55.572599999999994,175,75
2026-05-09 15:07:00.920,5,-0.22,-0.52,0.92,49.4714,170.8746,189.00080000000003,175,75
2026-05-09 15:07:00.920,3,-0.29,0.12,-0.18,118.2854,160.5436,-16.7926,175,75
2026-05-09 15:07:00.920,1,-0.19,-0.08,-0.09,-80.7132,-131.43159999999997,33.5826,175,75
2026-05-09 15:07:00.931,2,1.66,-0.98,1.2,248.739,26.0088,-98.3272,175,75
2026-05-09 15:07:00.931,4,-0.42,0.83,1.67,-169.20839999999998,50.2278,-143.6512,175,75
2026-05-09 15:07:00.931,1,-0.21,-0.34,-0.75,-73.4632,-51.0016,35.782599999999995,175,75
2026-05-09 15:07:00.931,3,0.32,-0.72,0.13,75.6054,84.38359999999999,-91.6126,175,75
2026-05-09 15:07:00.932,2,1.57,-0.82,1.11,241.179,-9.9612,-103.4572,175,75
2026-05-09 15:07:00.949,1,-0.03,0.06,0.06,-74.1932,54.9184,50.782599999999995,175,75
2026-05-09 15:07:00.949,4,-0.4,1.04,1.72,-150.1884,39.8578,-119.26120000000002,175,75
2026-05-09 15:07:00.949,3,-0.3,0.24,-0.42,14.5054,106.33359999999999,-120.14259999999999,175,75
2026-05-09 15:07:00.949,2,1.53,-0.71,1.03,235.749,-30.331200000000003,-101.56719999999999,175,75
2026-05-09 15:07:00.949,5,0.33,0.12,1.67,-5.3286,217.1846,-240.95919999999998,175,75
2026-05-09 15:07:00.949,1,0.08,0.14,0.9,-70.8332,60.3384,45.352599999999995,175,75
2026-05-09 15:07:00.958,4,-0.37,1.2,1.74,-132.1984,28.217799999999997,-94.9312,175,75
2026-05-09 15:07:00.959,3,-0.42,0.35,0.13,-15.0046,202.55360000000002,-116.4226,175,75
2026-05-09 15:07:00.959,2,1.45,-0.57,0.94,228.309,-36.1812,-86.25720000000001,175,75
2026-05-09 15:07:00.959,5,-0.03,0.46,1.7,-19.9086,176.75459999999998,-250.71919999999997,175,75
2026-05-09 15:07:00.959,4,-0.33,1.26,1.73,-118.2984,20.347800000000007,-73.89120000000001,175,75
2026-05-09 15:07:00.959,1,0.12,0.6,1.21,-49.6232,42.7784,50.4826,175,75
2026-05-09 15:07:00.961,2,1.32,-0.49,0.91,225.079,-16.7312,-67.41720000000001,175,75
2026-05-09 15:07:00.976,5,-0.1,0.35,1.55,-32.0886,131.5746,-250.71919999999997,175,75
2026-05-09 15:07:00.976,3,-0.2,0.27,0.86,-49.634600000000006,145.6036,-157.3426,175,75
2026-05-09 15:07:00.976,1,0.11,0.54,1.22,-54.0132,16.9284,50.172599999999996,175,75
2026-05-09 15:07:00.976,2,1.25,-0.46,0.93,224.109,9.4888,-52.1072,175,75
2026-05-09 15:07:00.976,5,-0.16,0.39,1.27,-54.1386,109.3346,-250.71919999999997,175,75
2026-05-09 15:07:00.986,4,-0.28,1.27,1.67,-89.5784,6.747799999999998,-34.2612,175,75
2026-05-09 15:07:00.998,3,-0.16,0.46,1.22,-157.56459999999998,-34.3964,-200.2026,175,75
2026-05-09 15:07:00.998,4,-0.32,1.2,1.64,-67.1384,-3.9222000000000037,-2.9212000000000025,175,75
2026-05-09 15:07:00.998,5,0.14,0.4,1.2,-54.3986,6.5046,-196.3192,175,75
2026-05-09 15:07:01.008,3,-0.29,0.54,1.26,-203.2346,-76.6464,-219.0426,175,75
2026-05-09 15:07:01.008,4,-0.4,1.17,1.64,-49.94840000000001,-12.3322,21.598799999999997,175,75
2026-05-09 15:07:01.008,3,-0.33,0.44,1.21,-237.7446,-110.6764,-227.9526,175,75
2026-05-09 15:07:01.012,4,-0.47,1.16,1.65,-33.538399999999996,-24.282200000000003,46.7188,175,75
2026-05-09 15:07:01.016,5,0.23,0.35,1.21,-74.0386,38.604600000000005,-40.1992,175,75
2026-05-09 15:07:01.027,2,1.25,-0.51,1.04,178.739,-18.6812,5.4528,175,75
2026-05-09 15:07:01.027,3,-0.39,0.31,0.97,-264.0946,-130.4364,-230.8726,175,75
2026-05-09 15:07:01.027,4,-0.5,1.12,1.65,-15.738399999999999,-43.9822,76.3488,175,75
2026-05-09 15:07:01.027,1,-0.15,0.22,0.78,-58.2732,16.7484,32.7326,175,75
2026-05-09 15:07:01.042,3,-0.61,0.21,0.74,-289.5746,-99.1464,-231.6726,175,75
2026-05-09 15:07:01.042,5,0.25,0.26,1.25,-75.0386,83.0846,166.91080000000002,175,75
2026-05-09 15:07:01.042,1,-0.23,0.17,0.68,-52.42320000000001,13.4484,31.3326,175,75
2026-05-09 15:07:01.042,4,-0.51,1.03,1.61,0.1816000000000031,-54.9522,103.66879999999999,175,75
2026-05-09 15:07:01.055,5,0.13,0.19,1.22,-71.2386,106.88459999999999,246.0808,175,75
2026-05-09 15:07:01.055,3,-0.69,0.17,0.62,-307.6246,-62.99640000000001,-233.4326,175,75
2026-05-09 15:07:01.055,1,-0.17,0.19,0.72,-46.203199999999995,25.1584,28.8326,175,75
2026-05-09 15:07:01.055,4,-0.5,0.92,1.58,15.0516,-50.6922,131.1688,175,75
2026-05-09 15:07:01.055,2,1.08,-0.42,0.74,135.809,-49.8412,35.5128,175,75
2026-05-09 15:07:01.065,5,-0.06,0.12,1.2,-65.38860000000001,118.68459999999999,249.5508,175,75
2026-05-09 15:07:01.065,3,-0.78,0.03,0.62,-322.1346,-17.076400000000003,-233.1326,175,75
2026-05-09 15:07:01.065,4,-0.49,0.83,1.59,30.3016,-41.9122,153.96880000000002,175,75
2026-05-09 15:07:01.065,2,1.02,-0.38,0.62,126.84899999999999,-53.2612,43.6228,175,75
2026-05-09 15:07:01.065,1,-0.16,0.13,0.77,-39.4932,24.8584,26.0826,175,75
2026-05-09 15:07:01.075,5,-0.42,0.03,1.3,-65.60860000000001,88.6446,249.5508,175,75
2026-05-09 15:07:01.075,3,-0.8,-0.1,0.92,-334.5146,10.913599999999997,-232.0926,175,75
2026-05-09 15:07:01.075,4,-0.47,0.73,1.64,48.1016,-38.8022,178.6088,175,75
2026-05-09 15:07:01.075,5,-0.56,0.09,1.64,-78.77860000000001,24.6846,249.5508,175,75
2026-05-09 15:07:01.086,2,1.0,-0.35,0.51,116.669,-61.0612,50.3928,175,75
2026-05-09 15:07:01.086,3,-0.83,-0.24,1.26,-348.9046,29.263599999999997,-229.7826,175,75
2026-05-09 15:07:01.086,4,-0.49,0.67,1.68,60.4216,-42.5122,197.0788,175,75
2026-05-09 15:07:01.096,5,-0.61,-0.23,1.46,-77.83860000000001,-4.8154,249.5508,175,75
2026-05-09 15:07:01.096,2,0.96,-0.33,0.45,108.06899999999999,-65.6412,58.8628,175,75
2026-05-09 15:07:01.096,1,-0.1,0.09,0.79,-36.203199999999995,31.6784,27.3726,175,75
2026-05-09 15:07:01.096,4,-0.51,0.6,1.73,75.5416,-40.562200000000004,217.99880000000002,175,75
2026-05-09 15:07:01.096,5,-1.19,-0.68,1.57,-72.32860000000001,-93.03540000000001,139.9608,175,75
2026-05-09 15:07:01.111,4,-0.53,0.52,1.78,88.7716,-30.0122,237.5088,175,75
2026-05-09 15:07:01.111,1,-0.05,-0.07,0.85,-37.723200000000006,34.788399999999996,27.672599999999996,175,75
2026-05-09 15:07:01.111,3,-1.37,-0.29,1.95,-348.2946,85.8536,-235.6326,175,75
2026-05-09 15:07:01.111,5,-0.86,-0.9,1.07,-45.8486,-97.1054,18.1308,175,75
2026-05-09 15:07:01.122,4,-0.54,0.4,1.85,105.9116,-4.8922000000000025,260.8588,175,75
2026-05-09 15:07:01.123,1,-0.05,-0.05,0.98,-43.703199999999995,36.9884,31.9426,175,75
2026-05-09 15:07:01.123,5,-0.68,-0.9,0.88,-5.678599999999999,-99.25540000000001,-55.1192,175,75
2026-05-09 15:07:01.123,2,0.82,-0.29,0.13,63.439,-89.3612,101.06280000000001,175,75
2026-05-09 15:07:01.123,3,-2.35,0.01,2.88,-306.71459999999996,139.0236,-208.8626,175,75
2026-05-09 15:07:01.123,4,-0.5,0.22,1.92,127.8016,23.8878,283.9088,175,75
2026-05-09 15:07:01.131,5,-0.45,-0.68,0.87,23.7814,-115.2154,-81.3992,175,75
2026-05-09 15:07:01.131,3,-1.75,-0.48,3.64,-248.7846,40.5436,-233.0726,175,75
2026-05-09 15:07:01.143,4,-0.45,0.01,2.05,154.20159999999998,33.457800000000006,310.0088,175,75
2026-05-09 15:07:01.143,5,-0.29,-0.38,0.86,34.9014,-146.7654,-63.0792,175,75
2026-05-09 15:07:01.143,2,0.85,-0.59,-0.24,-4.191000000000001,-133.3812,140.5128,175,75
2026-05-09 15:07:01.143,3,-1.37,0.2,3.61,-247.2646,-51.8964,-218.80259999999998,175,75
2026-05-09 15:07:01.152,5,-0.29,-0.12,0.84,34.4414,-187.6154,-52.8692,175,75
2026-05-09 15:07:01.152,4,-0.6,-0.14,2.19,180.2416,30.8378,341.8988,175,75
2026-05-09 15:07:01.152,2,0.73,-0.75,-0.54,-46.561,-156.5512,157.3428,175,75
2026-05-09 15:07:01.160,5,-0.12,0.01,0.82,28.9014,-204.1454,-64.4292,175,75
2026-05-09 15:07:01.160,1,-0.1,0.04,0.54,-35.4132,87.8984,48.0426,175,75
2026-05-09 15:07:01.160,4,-0.79,-0.37,2.44,207.4316,50.5278,375.79879999999997,175,75
2026-05-09 15:07:01.163,2,0.53,-0.87,-0.83,-79.671,-179.4212,176.8528,175,75
2026-05-09 15:07:01.167,5,0.1,0.02,0.78,23.9914,-196.7954,-74.4792,175,75
2026-05-09 15:07:01.167,1,-0.06,-0.03,0.44,-30.8332,107.4784,54.502599999999994,175,75
2026-05-09 15:07:01.170,2,0.38,-1.02,-1.05,-104.98100000000001,-183.6212,197.46280000000002,175,75
2026-05-09 15:07:01.185,1,0.11,-0.08,0.38,-28.2732,122.9584,57.30259999999999,175,75
2026-05-09 15:07:01.185,3,-1.81,1.61,3.5,-88.6046,-10.736400000000003,-13.3126,175,75
2026-05-09 15:07:01.185,2,0.27,-1.25,-1.27,-130.65099999999998,-170.76119999999997,224.1728,175,75
2026-05-09 15:07:01.185,4,-0.81,-1.01,2.93,250.0516,36.1378,428.29879999999997,175,75
2026-05-09 15:07:01.185,5,0.32,-0.08,0.57,44.0114,-139.2254,-77.9392,175,75
2026-05-09 15:07:01.193,3,-1.46,1.55,3.36,-32.0146,-51.2864,-3.4326000000000008,175,75
2026-05-09 15:07:01.193,2,0.11,-1.55,-1.57,-168.15099999999998,-136.6712,263.0728,175,75
2026-05-09 15:07:01.205,5,0.37,-0.05,0.57,60.7414,-92.45540000000001,-78.0492,175,75
2026-05-09 15:07:01.205,1,0.36,-0.24,0.26,-26.8132,155.3384,66.1526,175,75
2026-05-09 15:07:01.205,4,-1.19,-1.69,3.21,309.20160000000004,-65.8122,502.68879999999996,175,75
2026-05-09 15:07:01.214,5,0.33,0.11,0.8,62.5614,19.8846,-79.8892,175,75
2026-05-09 15:07:01.216,2,-0.11,-2.32,-1.92,-255.16099999999997,-40.4512,354.2328,175,75
2026-05-09 15:07:01.220,3,-1.84,0.43,1.65,70.5454,-176.10639999999998,217.7774,175,75
2026-05-09 15:07:01.232,1,0.55,-0.56,0.4,-28.3332,166.6184,77.79260000000001,175,75
2026-05-09 15:07:01.232,5,0.45,0.11,0.98,51.1914,50.8346,-50.4392,175,75
2026-05-09 15:07:01.232,4,-1.45,-2.62,3.45,401.21160000000003,-168.6122,574.4588,175,75
2026-05-09 15:07:01.232,2,-0.11,-2.85,-2.0,-331.62100000000004,29.1188,399.3528,175,75
2026-05-09 15:07:01.232,3,2.35,-4.42,-0.63,47.005399999999995,-439.5764,137.7774,175,75
2026-05-09 15:07:01.243,1,0.29,-0.79,0.31,-25.903200000000002,167.53840000000002,80.1726,175,75
2026-05-09 15:07:01.243,2,-0.04,-3.28,-2.09,-394.25100000000003,64.1188,430.51279999999997,175,75
2026-05-09 15:07:01.243,4,-1.59,-3.34,3.68,427.6816,-255.7522,638.8488,175,75
2026-05-09 15:07:01.251,2,-0.07,-4.07,-2.08,-443.271,129.11880000000002,460.8728,175,75
2026-05-09 15:07:01.251,3,-1.53,0.58,1.54,293.16540000000003,386.9436,100.4674,175,75
2026-05-09 15:07:01.264,5,0.58,0.23,1.36,-5.5586,-85.0454,224.70080000000002,175,75
2026-05-09 15:07:01.264,4,-2.25,-4.64,3.64,413.90160000000003,-440.3822,689.0988,175,75
2026-05-09 15:07:01.264,2,0.18,-4.87,-2.15,-451.261,171.92880000000002,477.95279999999997,175,75
2026-05-09 15:07:01.264,1,-0.03,-0.92,1.05,-46.5732,232.28840000000002,96.7626,175,75
2026-05-09 15:07:01.264,3,0.6,0.95,1.74,262.4354,52.373599999999996,-110.6326,175,75
2026-05-09 15:07:01.276,5,0.68,0.07,1.36,27.7214,-44.6554,185.5808,175,75
2026-05-09 15:07:01.277,4,-2.78,-5.65,3.32,381.70160000000004,-479.3422,634.6488,175,75
2026-05-09 15:07:01.277,1,-0.44,-0.83,1.14,-53.583200000000005,251.8684,119.1926,175,75
2026-05-09 15:07:01.277,2,0.46,-5.61,-2.05,-450.891,176.98880000000003,495.02279999999996,175,75
2026-05-09 15:07:01.277,5,-0.24,-0.04,1.83,14.9014,-98.1054,132.63080000000002,175,75
2026-05-09 15:07:01.277,3,0.6,2.35,0.56,125.7854,53.22359999999999,236.1374,175,75
2026-05-09 15:07:01.291,4,-3.22,-5.79,2.62,327.8016,-449.1622,508.48879999999997,175,75
2026-05-09 15:07:01.291,5,0.29,-0.61,1.57,-17.1086,-128.3354,40.2208,175,75
2026-05-09 15:07:01.291,3,-1.18,0.42,1.64,115.9054,68.9536,196.3174,175,75
2026-05-09 15:07:01.297,4,-3.4,-5.23,2.0,284.9916,-375.8122,386.04879999999997,175,75
2026-05-09 15:07:01.308,2,1.3,-6.22,-1.2,-424.981,113.0188,456.8528,175,75
2026-05-09 15:07:01.308,1,-1.3,-0.34,-0.39,-170.6532,179.85840000000002,150.17260000000002,175,75
2026-05-09 15:07:01.308,5,0.53,-1.01,0.91,8.4214,-114.1954,25.2808,175,75
2026-05-09 15:07:01.319,4,-2.84,-4.54,1.2,252.3716,-218.4922,248.96880000000002,175,75
2026-05-09 15:07:01.319,5,0.53,-0.85,0.9,18.9814,-118.97540000000001,27.1308,175,75
2026-05-09 15:07:01.329,4,-1.81,-4.14,0.82,266.5816,-120.1422,191.2288,175,75
2026-05-09 15:07:01.329,1,-0.84,-0.23,0.3,-161.8732,215.3384,138.4026,175,75
2026-05-09 15:07:01.329,5,0.68,-0.67,0.99,11.8314,-106.5254,-1.8692000000000002,175,75
2026-05-09 15:07:01.329,4,-1.32,-3.98,0.81,310.6616,-87.3322,207.3288,175,75
2026-05-09 15:07:01.329,2,1.2,-6.29,-0.55,-465.221,-138.32119999999998,397.70279999999997,175,75
2026-05-09 15:07:01.329,3,-1.16,0.34,1.28,49.145399999999995,-66.3464,103.3874,175,75
2026-05-09 15:07:01.337,5,0.94,-0.65,1.05,-2.5786,-80.97540000000001,-45.9492,175,75
2026-05-09 15:07:01.347,4,-1.02,-3.9,1.21,387.5516,-79.1622,250.6788,175,75
2026-05-09 15:07:01.348,2,1.18,-6.2,-0.9,-505.8310000000001,-139.0512,325.7528,175,75
2026-05-09 15:07:01.348,5,1.23,-0.68,1.05,-3.4886,-51.4054,-90.6292,175,75
2026-05-09 15:07:01.350,2,1.72,-5.74,-1.25,-501.321,-114.05120000000001,305.51279999999997,175,75
2026-05-09 15:07:01.356,4,-1.23,-3.88,2.05,438.71160000000003,-149.8922,255.43880000000001,175,75
2026-05-09 15:07:01.363,1,-0.69,-0.25,-0.97,-200.6532,282.28839999999997,130.6626,175,75
2026-05-09 15:07:01.363,3,-0.57,-0.32,1.75,64.8754,-46.10640000000001,44.6074,175,75
2026-05-09 15:07:01.363,2,1.82,-4.84,-1.3,-429.37100000000004,-26.1212,346.1828,175,75
2026-05-09 15:07:01.366,1,-0.55,-0.22,-0.2,-209.2532,270.3384,114.68260000000001,175,75
2026-05-09 15:07:01.368,4,-1.43,-3.72,2.2,383.1016,-188.8622,205.8588,175,75
2026-05-09 15:07:01.377,2,1.45,-4.48,-1.01,-384.00100000000003,89.8488,342.58279999999996,175,75
2026-05-09 15:07:01.377,5,1.51,0.03,1.41,25.1614,28.304599999999997,-101.5892,175,75
2026-05-09 15:07:01.388,3,-0.72,-0.38,1.34,62.3154,-44.7564,21.5674,175,75
2026-05-09 15:07:01.388,1,-0.21,-0.23,0.26,-203.9432,239.2484,92.49260000000001,175,75
2026-05-09 15:07:01.388,4,-1.38,-3.37,1.95,307.7416,-216.5422,144.4588,175,75
2026-05-09 15:07:01.388,2,1.44,-4.28,-0.57,-364.731,185.8288,322.40279999999996,175,75
2026-05-09 15:07:01.399,1,0.01,-0.03,0.49,-219.4932,175.2784,64.6226,175,75
2026-05-09 15:07:01.399,4,-1.23,-3.01,1.53,253.71159999999998,-241.9722,95.24879999999999,175,75
2026-05-09 15:07:01.399,3,-0.69,-0.13,1.32,59.9954,-52.07640000000001,10.7674,175,75
2026-05-09 15:07:01.399,2,1.15,-3.94,-0.01,-351.81100000000004,281.4388,303.2528,175,75
2026-05-09 15:07:01.399,5,1.05,0.01,1.29,11.801400000000001,55.1946,-76.9992,175,75
2026-05-09 15:07:01.399,4,-1.08,-2.64,1.02,218.47160000000002,-266.05219999999997,52.508799999999994,175,75
2026-05-09 15:07:01.403,2,1.07,-3.68,0.36,-336.201,363.9988,253.74280000000002,175,75
2026-05-09 15:07:01.407,5,0.9,-0.07,1.18,6.321400000000001,54.9946,-64.5692,175,75
2026-05-09 15:07:01.424,2,1.3,-3.48,0.65,-316.69100000000003,401.3788,200.02280000000002,175,75
2026-05-09 15:07:01.424,1,-0.05,0.67,0.39,-237.54319999999998,39.7284,27.852599999999995,175,75
2026-05-09 15:07:01.424,5,0.88,-0.19,1.08,2.4314,50.8346,-58.9592,175,75
2026-05-09 15:07:01.424,4,-0.66,-1.71,0.19,245.85160000000002,-301.60220000000004,-71.7012,175,75
2026-05-09 15:07:01.424,1,-0.0,0.88,0.45,-235.7132,32.4784,19.132599999999996,175,75
2026-05-09 15:07:01.427,2,1.52,-3.14,1.22,-296.81100000000004,434.5488,146.4228,175,75
2026-05-09 15:07:01.438,3,-0.4,-1.57,1.35,23.4054,-46.2864,1.0774000000000008,175,75
2026-05-09 15:07:01.438,4,-0.43,-1.15,0.07,314.2616,-293.31219999999996,-173.7712,175,75
2026-05-09 15:07:01.438,5,0.88,-0.28,0.83,8.311399999999999,50.4446,-62.8292,175,75
2026-05-09 15:07:01.438,2,1.61,-2.75,1.58,-294.55100000000004,474.4288,123.80279999999999,175,75
2026-05-09 15:07:01.448,3,-0.1,-1.89,1.15,33.2254,-46.406400000000005,-13.622599999999998,175,75
2026-05-09 15:07:01.448,4,1.55,-0.31,0.88,283.2316,-306.8422,-1.5112000000000023,175,75
2026-05-09 15:07:01.448,5,0.84,-0.08,0.77,9.5414,50.6646,-77.9792,175,75
2026-05-09 15:07:01.448,2,2.16,-2.29,1.83,-264.981,431.3788,93.43280000000001,175,75
2026-05-09 15:07:01.465,5,0.8,0.12,0.72,8.2714,49.3146,-93.1092,175,75
2026-05-09 15:07:01.465,4,0.04,0.3,0.18,217.1316,-294.9522,111.10879999999999,175,75
2026-05-09 15:07:01.465,2,1.68,-1.97,2.1,-217.971,255.5188,98.62280000000001,175,75
2026-05-09 15:07:01.465,1,0.15,0.95,0.98,-232.9132,3.3284000000000002,-14.7074,175,75
2026-05-09 15:07:01.465,3,0.36,-1.3,0.67,57.7354,-2.076400000000003,-8.072600000000001,175,75
2026-05-09 15:07:01.475,5,0.75,0.31,0.72,7.6114,44.2746,-102.7592,175,75
2026-05-09 15:07:01.475,1,0.29,0.87,1.28,-228.64319999999998,-10.7516,-21.4174,175,75
2026-05-09 15:07:01.475,2,1.04,-1.47,2.8,-208.581,273.6888,95.4528,175,75
2026-05-09 15:07:01.475,3,0.63,-1.14,0.53,60.605399999999996,0.3035999999999959,7.5974,175,75
2026-05-09 15:07:01.483,5,0.7,0.44,0.72,-4.7585999999999995,34.894600000000004,-117.1092,175,75
2026-05-09 15:07:01.487,1,0.34,0.9,1.82,-222.54319999999998,-70.33160000000001,-30.0674,175,75
2026-05-09 15:07:01.509,2,0.84,-1.12,2.97,-128.701,46.6188,-103.99719999999999,175,75
2026-05-09 15:07:01.509,5,0.75,0.69,0.68,-38.568599999999996,43.1246,-107.8492,175,75
2026-05-09 15:07:01.509,1,0.49,1.05,1.99,-201.51319999999998,-125.7516,-49.1574,175,75
2026-05-09 15:07:01.529,4,-0.22,0.81,-1.0,83.0416,-144.04219999999998,-33.5912,175,75
2026-05-09 15:07:01.529,5,0.72,0.65,0.63,-58.9486,58.354600000000005,-90.3092,175,75
2026-05-09 15:07:01.529,1,0.57,1.07,1.95,-187.7232,-131.7316,-60.0674,175,75
2026-05-09 15:07:01.529,4,-0.39,1.09,-0.88,60.7916,26.877799999999993,9.1588,175,75
2026-05-09 15:07:01.529,5,0.54,0.57,0.55,-79.96860000000001,82.2346,-77.9892,175,75
2026-05-09 15:07:01.533,3,-0.0,0.44,0.74,88.7154,32.983599999999996,40.8274,175,75
2026-05-09 15:07:01.533,2,1.64,-0.41,2.12,-94.921,-6.9212,27.0328,175,75
2026-05-09 15:07:01.545,4,-0.16,1.18,-0.45,59.5116,168.3978,52.0788,175,75
2026-05-09 15:07:01.545,1,0.79,1.08,1.86,-153.76319999999998,-102.9516,-81.6574,175,75
2026-05-09 15:07:01.546,3,-0.67,1.09,1.24,92.8654,75.1736,56.257400000000004,175,75
2026-05-09 15:07:01.546,2,1.14,0.07,2.03,-87.721,23.9388,59.1128,175,75
2026-05-09 15:07:01.546,4,0.22,1.06,0.02,58.5916,199.9178,68.3588,175,75
2026-05-09 15:07:01.564,5,-0.04,0.05,0.18,-49.3986,71.2646,-72.8092,175,75
2026-05-09 15:07:01.564,1,0.88,1.28,1.8,-105.2932,-53.561600000000006,-99.3374,175,75
2026-05-09 15:07:01.564,4,0.61,0.86,0.44,53.7716,115.46780000000001,46.8388,175,75
2026-05-09 15:07:01.564,5,-0.21,0.01,0.18,-21.6786,49.1646,-65.2692,175,75
2026-05-09 15:07:01.576,4,0.78,0.67,0.59,46.3416,-25.322200000000002,11.468799999999998,175,75
2026-05-09 15:07:01.576,3,1.34,1.55,0.44,-27.204600000000003,-20.9764,-33.1326,175,75
2026-05-09 15:07:01.576,5,-0.29,0.03,0.23,-5.7486,38.6846,-67.9592,175,75
2026-05-09 15:07:01.576,4,0.61,0.46,0.47,29.8116,-187.8822,-34.991200000000006,175,75
2026-05-09 15:07:01.593,5,-0.29,0.03,0.25,2.0214,29.4046,-57.9792,175,75
2026-05-09 15:07:01.593,1,0.96,1.34,1.98,-39.313199999999995,3.4484000000000004,-144.7074,175,75
2026-05-09 15:07:01.593,4,0.15,0.39,0.08,1.2115999999999971,-292.9422,-68.9512,175,75
2026-05-09 15:07:01.594,2,1.23,-0.42,2.43,-61.501,141.0688,-0.28719999999999857,175,75
2026-05-09 15:07:01.594,5,-0.16,-0.04,0.31,1.5213999999999999,18.2546,-39.0492,175,75
2026-05-09 15:07:01.606,3,1.26,1.84,0.11,-182.8746,-86.46640000000001,-108.5626,175,75
2026-05-09 15:07:01.606,1,1.08,1.28,2.05,-12.6632,14.2484,-163.54739999999998,175,75
2026-05-09 15:07:01.606,4,-0.24,0.54,-0.28,-25.558400000000006,-282.8222,-65.7812,175,75
2026-05-09 15:07:01.615,4,-0.41,0.74,-0.4,-45.428399999999996,-202.5822,-36.3912,175,75
2026-05-09 15:07:01.627,5,-0.09,0.05,0.45,-15.4586,-16.7754,71.1608,175,75
2026-05-09 15:07:01.627,2,1.2,-0.27,2.2,-16.201,171.73880000000003,37.4628,175,75
2026-05-09 15:07:01.627,1,1.2,1.0,2.15,50.8668,21.3184,-200.9274,175,75
2026-05-09 15:07:01.627,5,0.01,-0.03,0.45,-13.2986,-29.6354,125.8408,175,75
2026-05-09 15:07:01.644,5,0.1,-0.08,0.44,1.0514,-38.215399999999995,173.2108,175,75
2026-05-09 15:07:01.644,2,1.2,-0.46,2.24,47.279,258.5688,22.0328,175,75
2026-05-09 15:07:01.644,3,0.15,-0.09,0.34,-303.4846,-113.6064,-105.51259999999999,175,75
2026-05-09 15:07:01.644,4,0.32,0.76,0.12,-99.87840000000001,-117.0322,19.218799999999998,175,75
2026-05-09 15:07:01.644,1,1.13,0.66,2.12,109.7768,0.3984000000000001,-225.2574,175,75
2026-05-09 15:07:01.644,5,0.12,-0.07,0.43,18.2414,-44.6654,215.6108,175,75
2026-05-09 15:07:01.659,2,1.17,-0.51,2.33,87.829,265.0288,1.1227999999999998,175,75
2026-05-09 15:07:01.659,5,0.1,-0.12,0.37,29.511400000000002,-55.5954,249.5508,175,75
2026-05-09 15:07:01.659,1,1.01,0.52,2.03,140.5668,-2.8316,-234.2774,175,75
2026-05-09 15:07:01.667,3,-1.36,-0.44,3.72,-167.32459999999998,-123.7864,-104.3526,175,75
2026-05-09 15:07:01.667,2,1.25,-0.46,2.33,112.51899999999999,237.0488,-5.587199999999999,175,75
2026-05-09 15:07:01.680,3,-0.51,0.69,3.51,-143.5446,-190.3664,-111.5426,175,75
2026-05-09 15:07:01.680,2,1.2,-0.4,2.32,121.359,191.73880000000003,2.2128000000000014,175,75
2026-05-09 15:07:01.680,3,0.06,1.29,2.73,-154.4546,-236.3464,-66.9126,175,75
2026-05-09 15:07:01.695,4,0.37,0.99,-0.22,-162.3784,-144.2822,-29.811200000000003,175,75
2026-05-09 15:07:01.695,1,0.69,0.01,1.85,215.8068,-49.7216,-249.0974,175,75
2026-05-09 15:07:01.696,2,1.22,-0.35,2.17,121.84899999999999,127.89880000000001,6.972800000000001,175,75
2026-05-09 15:07:01.696,5,0.76,-0.06,-0.09,81.4914,-132.6254,237.35080000000002,175,75
2026-05-09 15:07:01.698,4,0.09,1.08,0.15,-155.6784,-49.8922,-0.2912000000000017,175,75
2026-05-09 15:07:01.698,1,0.65,-0.26,1.69,237.20680000000002,-66.6116,-250.1274,175,75
2026-05-09 15:07:01.713,3,-7.1,4.2,4.36,13.4054,-81.16640000000001,268.63739999999996,175,75
2026-05-09 15:07:01.713,2,2.64,-0.33,1.98,141.78900000000002,-6.731199999999999,-0.15719999999999956,175,75
2026-05-09 15:07:01.738,5,0.46,-0.07,-0.27,33.6214,-43.6854,-2.8892,175,75
2026-05-09 15:07:01.738,1,0.41,-0.65,1.54,283.1268,-88.80160000000001,-260.4374,175,75
2026-05-09 15:07:01.738,3,6.37,-4.83,-0.85,217.67540000000002,-190.85639999999998,-150.6326,175,75
2026-05-09 15:07:01.749,2,2.47,-1.04,2.65,100.999,-66.6712,53.7428,175,75
2026-05-09 15:07:01.749,5,0.76,-0.16,-0.15,18.4814,-17.085400000000003,-42.1992,175,75
2026-05-09 15:07:01.749,1,0.27,-1.0,1.67,312.33680000000004,-123.1316,-272.8774,175,75
2026-05-09 15:07:01.749,2,1.61,-0.88,1.85,98.009,118.0188,50.4528,175,75
2026-05-09 15:07:01.749,2,1.7,-1.1,0.95,130.019,161.92880000000002,-79.5472,175,75
2026-05-09 15:07:01.749,4,2.65,-0.5,0.65,-207.6884,-217.9422,-58.5912,175,75
2026-05-09 15:07:01.753,1,0.1,-1.56,1.68,343.4868,-162.58159999999998,-282.1474,175,75
2026-05-09 15:07:01.757,5,0.96,-0.17,-0.02,13.3214,14.3846,-65.0892,175,75
2026-05-09 15:07:01.765,4,1.31,-0.69,0.61,-220.2484,-310.0822,-64.8112,175,75
2026-05-09 15:07:01.773,3,-3.18,-0.28,-0.39,122.7954,422.0636,148.0274,175,75
2026-05-09 15:07:01.778,4,1.15,-0.8,0.47,-241.83839999999998,-275.3822,-104.2012,175,75
2026-05-09 15:07:01.778,3,-0.86,-1.32,0.82,277.1254,331.2136,-55.0226,175,75
2026-05-09 15:07:01.780,5,1.67,-0.21,0.56,14.3714,103.27459999999999,-44.0192,175,75
2026-05-09 15:07:01.784,1,-0.72,-3.06,1.4,361.96680000000003,-202.83159999999998,-343.3674,175,75
2026-05-09 15:07:01.784,2,2.23,-1.15,1.16,279.959,135.21880000000002,58.1928,175,75
2026-05-09 15:07:01.795,4,1.59,-0.98,0.33,-302.1384,-168.1922,-80.4212,175,75
2026-05-09 15:07:01.795,3,0.93,-0.02,1.81,119.5054,148.1036,72.2974,175,75
2026-05-09 15:07:01.795,4,1.7,-1.17,0.01,-336.5284,-101.7822,-69.8112,175,75
2026-05-09 15:07:01.810,2,2.72,-1.67,1.34,300.50899999999996,34.428799999999995,51.6728,175,75
2026-05-09 15:07:01.810,1,-0.83,-2.7,0.83,347.6968,-195.8216,-387.3274,175,75
2026-05-09 15:07:01.810,5,2.0,0.14,2.0,-18.3386,75.2346,127.81079999999999,175,75
2026-05-09 15:07:01.810,3,-0.47,-1.61,2.63,152.2554,52.86359999999999,104.73740000000001,175,75
2026-05-09 15:07:01.810,1,-1.21,-2.86,0.69,352.1468,-179.7816,-403.9774,175,75
2026-05-09 15:07:01.810,2,2.88,-2.12,1.33,295.68899999999996,-24.901200000000003,27.2128,175,75
2026-05-09 15:07:01.821,5,1.81,0.14,2.0,-44.6186,122.3146,157.41080000000002,175,75
2026-05-09 15:07:01.821,4,1.5,-1.85,0.04,-347.0784,149.8578,-63.83120000000001,175,75
2026-05-09 15:07:01.821,2,3.17,-2.36,1.16,295.80899999999997,-60.4512,-1.8071999999999981,175,75
2026-05-09 15:07:01.831,4,1.64,-2.27,0.38,-350.6784,310.1678,-52.7912,175,75
2026-05-09 15:07:01.831,5,0.57,-0.29,1.9,-69.7386,249.4646,25.0908,175,75
2026-05-09 15:07:01.838,2,3.48,-2.54,0.73,301.789,-121.0612,-48.9372,175,75
2026-05-09 15:07:01.838,3,-0.33,0.53,2.16,114.0754,-39.3364,117.4174,175,75
2026-05-09 15:07:01.838,4,1.7,-2.51,0.85,-356.7684,375.5278,-73.3412,175,75
2026-05-09 15:07:01.850,1,-6.39,-5.03,-3.3,301.96680000000003,19.1784,-212.5674,175,75
2026-05-09 15:07:01.850,4,2.26,-2.7,2.21,-331.4684,272.6078,-148.5912,175,75
2026-05-09 15:07:01.850,5,-0.53,-0.59,0.86,8.3414,249.4646,-33.6092,175,75
2026-05-09 15:07:01.850,2,4.15,-2.29,-0.14,308.18899999999996,-213.01119999999997,-136.0772,175,75
2026-05-09 15:07:01.853,1,-0.14,-1.87,-0.56,178.42680000000001,124.2484,-294.3974,175,75
2026-05-09 15:07:01.853,5,-0.78,-0.5,0.91,23.9614,222.9446,-58.2292,175,75
2026-05-09 15:07:01.859,2,4.13,-2.35,-0.38,309.469,-274.4212,-170.7072,175,75
2026-05-09 15:07:01.859,1,-0.82,0.64,-0.78,223.0068,110.2184,-188.4274,175,75
2026-05-09 15:07:01.859,3,-1.02,0.45,0.9,54.6254,5.543599999999998,88.3274,175,75
2026-05-09 15:07:01.862,4,1.48,-2.9,2.74,-329.6384,187.5478,-215.4812,175,75
2026-05-09 15:07:01.862,5,-0.64,-0.37,1.22,9.5214,158.3646,-56.9592,175,75
2026-05-09 15:07:01.865,2,4.16,-2.67,-0.69,304.659,-342.77119999999996,-225.0972,175,75
2026-05-09 15:07:01.876,4,1.69,-3.05,2.82,-346.4084,177.2978,-271.3912,175,75
2026-05-09 15:07:01.899,5,-0.47,-0.43,1.46,-11.9386,120.7646,-57.1192,175,75
2026-05-09 15:07:01.899,2,3.75,-2.91,-1.13,280.68899999999996,-401.7312,-281.7472,175,75
2026-05-09 15:07:01.899,1,0.83,-0.45,2.0,335.1968,194.2484,-144.9474,175,75
2026-05-09 15:07:01.899,4,1.52,-2.96,2.75,-347.0784,158.6978,-295.9612,175,75
2026-05-09 15:07:01.899,5,-0.31,-0.48,1.63,0.5313999999999999,98.71459999999999,-80.1092,175,75
2026-05-09 15:07:01.899,5,-0.25,-0.41,1.8,29.2114,79.8446,-102.1592,175,75
2026-05-09 15:07:01.910,3,-0.13,0.0,1.92,49.8154,-38.8464,29.3074,175,75
2026-05-09 15:07:01.910,4,1.35,-2.87,2.83,-309.9484,147.8478,-314.56120000000004,175,75
2026-05-09 15:07:01.910,1,0.28,-1.95,1.25,356.4168,115.6484,-161.5974,175,75
2026-05-09 15:07:01.917,3,-0.51,0.21,1.39,41.7054,-17.0164,55.70740000000001,175,75
2026-05-09 15:07:01.917,5,-0.11,-0.24,2.0,53.6114,81.52459999999999,-139.6992,175,75
2026-05-09 15:07:01.929,1,0.43,-2.24,1.01,332.2068,102.1084,-180.8674,175,75
2026-05-09 15:07:01.929,5,-0.1,-0.09,2.0,58.6414,94.49459999999999,-172.6692,175,75
2026-05-09 15:07:01.929,3,-0.57,0.22,1.52,41.5154,-17.136400000000005,29.3674,175,75
2026-05-09 15:07:01.929,4,0.87,-2.73,3.31,-263.47839999999997,98.6978,-350.6612,175,75
2026-05-09 15:07:01.929,2,2.37,-2.51,-2.37,197.399,-170.94119999999998,-410.5872,175,75
2026-05-09 15:07:01.929,1,0.13,-1.84,0.98,311.0568,61.618399999999994,-174.3374,175,75
2026-05-09 15:07:01.929,5,-0.25,-0.04,2.0,57.2814,97.8646,-195.5392,175,75
2026-05-09 15:07:01.944,3,-0.55,0.13,1.41,34.8754,-14.9464,32.5974,175,75
2026-05-09 15:07:01.944,2,2.33,-2.28,-2.17,191.179,-37.3412,-418.6972,175,75
2026-05-09 15:07:01.944,5,-0.18,0.12,1.87,54.9614,69.8346,-166.55919999999998,175,75
2026-05-09 15:07:01.944,3,-0.89,0.28,1.58,27.735400000000002,-13.606400000000004,23.5774,175,75
2026-05-09 15:07:01.954,2,2.42,-2.2,-1.68,205.079,43.4488,-430.34720000000004,175,75
2026-05-09 15:07:01.954,5,-0.06,0.33,1.84,35.0914,42.7746,-83.5992,175,75
2026-05-09 15:07:01.954,3,-0.64,0.29,1.72,19.8754,-16.106400000000004,9.5474,175,75
2026-05-09 15:07:01.954,1,0.19,-1.84,0.95,260.9868,-50.0816,-161.8374,175,75
2026-05-09 15:07:01.954,5,-0.43,0.37,1.74,6.9014,41.6346,-31.0592,175,75
2026-05-09 15:07:01.965,1,-0.04,-1.72,0.54,238.1268,-50.631600000000006,-154.2774,175,75
2026-05-09 15:07:01.976,5,-0.44,0.36,1.73,-21.7086,45.284600000000005,0.12079999999999991,175,75
2026-05-09 15:07:01.976,2,2.26,-2.39,-0.95,198.799,-16.8612,-453.4572,175,75
2026-05-09 15:07:01.976,3,-0.73,0.18,1.49,-20.0046,-66.4064,3.0274,175,75
2026-05-09 15:07:01.986,5,-0.47,0.06,1.74,-16.9686,30.0446,57.3408,175,75
2026-05-09 15:07:01.986,1,-0.15,-1.3,0.46,181.1168,-33.071600000000004,-124.45739999999999,175,75
2026-05-09 15:07:01.986,2,1.78,-2.21,-0.64,200.019,-102.5912,-472.29720000000003,175,75
2026-05-09 15:07:01.986,3,-1.0,0.21,1.51,-23.6046,-53.05640000000001,-3.7425999999999995,175,75
2026-05-09 15:07:02.001,4,-0.19,-1.41,2.4,-194.5784,87.7878,-391.0312,175,75
2026-05-09 15:07:02.001,3,-0.94,-0.08,1.54,-25.124599999999997,-35.85640000000001,-17.5826,175,75
2026-05-09 15:07:02.001,4,-0.29,-1.37,2.23,-195.4884,96.93780000000001,-396.51120000000003,175,75
2026-05-09 15:07:02.008,2,0.75,-1.49,-0.43,175.329,-71.3712,-426.6272,175,75
2026-05-09 15:07:02.010,3,-0.84,-0.52,1.48,-27.874599999999997,-48.72640000000001,-22.892599999999998,175,75
2026-05-09 15:07:02.031,1,-0.4,-0.19,0.51,60.74680000000001,-56.241600000000005,-43.607400000000005,175,75
2026-05-09 15:07:02.031,5,-0.86,-0.62,1.78,103.8414,-5.1054,42.9308,175,75
2026-05-09 15:07:02.046,4,-0.45,-0.92,1.99,-215.2484,66.0778,-396.2712,175,75
2026-05-09 15:07:02.058,5,-0.86,-0.51,1.83,114.2714,-24.335400000000003,8.3108,175,75
2026-05-09 15:07:02.058,2,0.59,-0.93,0.17,232.339,103.9388,-353.1472,175,75
2026-05-09 15:07:02.058,4,-0.41,-0.82,1.95,-225.5584,50.5278,-387.00120000000004,175,75
2026-05-09 15:07:02.058,5,-0.78,-0.36,1.87,103.6014,-49.395399999999995,-19.5792,175,75
2026-05-09 15:07:02.058,3,-0.68,-1.14,1.15,-22.6246,-118.23640000000002,-30.8126,175,75
2026-05-09 15:07:02.058,2,0.96,-0.96,0.38,253.979,127.04879999999999,-332.10720000000003,175,75
2026-05-09 15:07:02.068,4,-0.52,-0.76,1.95,-237.0784,28.8878,-375.4812,175,75
2026-05-09 15:07:02.078,3,-0.6,-1.09,0.82,-29.3946,-108.2364,-34.90260000000001,175,75
2026-05-09 15:07:02.078,1,-0.33,0.75,0.36,12.946800000000001,-63.4416,4.3225999999999996,175,75
2026-05-09 15:07:02.078,5,-0.52,-0.22,1.62,78.72139999999999,-99.89540000000001,-48.7392,175,75
2026-05-09 15:07:02.096,2,0.88,-0.97,0.68,245.50900000000001,79.3588,-287.35720000000003,175,75
2026-05-09 15:07:02.107,4,-0.6,-0.68,1.81,-259.8784,24.677800000000005,-373.2212,175,75
2026-05-09 15:07:02.107,1,-0.28,1.03,0.18,6.116800000000001,-22.2216,28.892599999999995,175,75
2026-05-09 15:07:02.107,2,0.76,-0.94,0.77,236.479,60.8888,-277.65720000000005,175,75
2026-05-09 15:07:02.107,5,-0.31,0.01,1.32,88.06139999999999,-129.5554,-81.8192,175,75
2026-05-09 15:07:02.121,2,0.74,-0.85,0.79,231.239,37.8388,-267.1772,175,75
2026-05-09 15:07:02.121,2,0.73,-0.82,0.78,231.059,14.848799999999999,-261.2572,175,75
2026-05-09 15:07:02.121,5,-0.15,0.36,1.11,90.5114,-154.77540000000002,-103.4292,175,75
2026-05-09 15:07:02.133,3,-0.3,-0.24,0.37,-33.8446,-148.35639999999998,4.0674,175,75
2026-05-09 15:07:02.133,2,0.73,-0.85,0.78,234.109,-7.5912,-259.1272,175,75
2026-05-09 15:07:02.133,5,-0.04,0.47,1.0,78.25139999999999,-161.1054,-103.8492,175,75
2026-05-09 15:07:02.133,3,-0.49,0.25,0.62,-19.514599999999998,-96.4064,6.6874,175,75
2026-05-09 15:07:02.133,4,-0.6,-0.22,1.53,-258.6584,41.567800000000005,-332.5512,175,75
2026-05-09 15:07:02.156,1,0.18,1.61,0.24,8.796800000000001,44.5484,31.3326,175,75
2026-05-09 15:07:02.156,4,-0.73,-0.16,1.62,-246.03839999999997,47.907799999999995,-314.93120000000005,175,75
2026-05-09 15:07:02.156,3,-0.36,0.48,0.57,-5.1846000000000005,-75.6764,19.6674,175,75
2026-05-09 15:07:02.156,5,-0.13,0.58,0.8,19.9614,-172.8054,-111.0192,175,75
2026-05-09 15:07:02.156,2,0.55,-1.04,0.74,229.46900000000002,-39.6012,-260.09720000000004,175,75
2026-05-09 15:07:02.169,3,-0.18,0.64,0.47,4.5054,-64.3964,23.3874,175,75
2026-05-09 15:07:02.169,5,-0.1,0.45,0.61,-19.6986,-170.1654,-124.5592,175,75
2026-05-09 15:07:02.169,4,-0.97,-0.15,1.79,-223.72839999999997,23.3378,-303.2812,175,75
2026-05-09 15:07:02.169,5,-0.03,0.25,0.35,-44.6186,-181.0554,-116.3992,175,75
2026-05-09 15:07:02.180,3,-0.69,1.0,0.52,20.2354,-35.436400000000006,48.3874,175,75
2026-05-09 15:07:02.180,2,0.39,-0.99,0.61,212.699,-27.9512,-256.8672,175,75
2026-05-09 15:07:02.180,1,0.29,1.71,0.52,2.3968000000000007,47.358399999999996,23.6526,175,75
2026-05-09 15:07:02.180,5,0.01,0.09,0.1,-50.0086,-210.1154,-82.3692,175,75
2026-05-09 15:07:02.180,2,0.31,-0.94,0.55,204.28900000000002,-23.7512,-251.31719999999999,175,75
2026-05-09 15:07:02.191,5,0.13,0.06,-0.14,-46.5386,-244.27540000000002,-39.9792,175,75
2026-05-09 15:07:02.191,4,-1.05,-0.02,1.8,-221.15839999999997,-29.2822,-305.8412,175,75
2026-05-09 15:07:02.191,3,-0.03,0.61,0.47,28.7154,41.8236,40.5874,175,75
2026-05-09 15:07:02.191,2,0.25,-0.91,0.5,199.169,0.6387999999999998,-244.8572,175,75
2026-05-09 15:07:02.191,5,0.19,0.07,-0.3,-42.0086,-250.8054,14.4008,175,75
2026-05-09 15:07:02.191,4,-0.98,0.06,1.74,-220.4284,-41.9722,-304.1412,175,75
2026-05-09 15:07:02.202,2,0.22,-0.95,0.48,199.28900000000002,30.1588,-234.3672,175,75
2026-05-09 15:07:02.202,3,0.87,0.54,0.47,14.2054,63.343599999999995,8.0274,175,75
2026-05-09 15:07:02.202,4,-0.91,0.15,1.67,-213.53840000000002,-54.8922,-297.25120000000004,175,75
2026-05-09 15:07:02.202,2,0.25,-1.01,0.48,197.889,62.288799999999995,-224.1272,175,75
2026-05-09 15:07:02.204,5,0.51,-0.03,-0.53,-17.488599999999998,-250.8054,101.8808,175,75
2026-05-09 15:07:02.216,4,-0.88,0.25,1.6,-200.4284,-70.2022,-284.62120000000004,175,75
2026-05-09 15:07:02.216,3,0.46,0.58,-0.06,-40.244600000000005,115.97359999999999,-27.832600000000003,175,75
2026-05-09 15:07:02.216,5,0.69,0.01,-0.62,-1.3586000000000003,-227.3554,141.4908,175,75
2026-05-09 15:07:02.224,1,0.2,1.31,0.5,-5.533199999999997,53.6384,22.492599999999996,175,75
2026-05-09 15:07:02.236,1,0.22,1.23,0.55,-7.4832,61.8084,23.0426,175,75
2026-05-09 15:07:02.236,5,0.56,0.06,-0.54,2.8014,-181.5954,153.3408,175,75
2026-05-09 15:07:02.239,1,0.23,1.15,0.59,-10.653199999999998,72.5384,24.8726,175,75
2026-05-09 15:07:02.239,5,0.36,-0.0,-0.36,-0.23860000000000015,-124.2954,137.9308,175,75
2026-05-09 15:07:02.239,2,0.35,-0.86,0.51,181.609,111.9888,-192.1772,175,75
2026-05-09 15:07:02.242,4,-0.8,0.43,1.69,-158.29840000000002,-47.9422,-250.17119999999997,175,75
2026-05-09 15:07:02.249,3,0.69,0.69,0.31,-93.9046,182.92360000000002,-74.4126,175,75
2026-05-09 15:07:02.249,5,0.12,-0.12,-0.15,-3.6285999999999996,-61.1354,106.0808,175,75
2026-05-09 15:07:02.256,2,0.39,-0.81,0.55,176.549,106.6788,-186.13719999999998,175,75
2026-05-09 15:07:02.268,5,-0.05,-0.11,0.03,-2.5385999999999997,-5.3454,68.1008,175,75
2026-05-09 15:07:02.268,1,0.3,0.92,0.82,-18.943199999999997,98.2084,24.0126,175,75
2026-05-09 15:07:02.268,2,0.43,-0.69,0.52,169.40900000000002,112.0488,-178.5772,175,75
2026-05-09 15:07:02.268,4,-0.76,0.58,1.84,-136.22840000000002,-81.3022,-229.1412,175,75
2026-05-09 15:07:02.280,2,0.46,-0.61,0.53,159.049,109.9688,-170.88719999999998,175,75
2026-05-09 15:07:02.280,4,-0.81,0.65,1.85,-122.68839999999999,-103.4322,-223.9512,175,75
2026-05-09 15:07:02.280,5,-0.29,-0.04,0.23,-19.488599999999998,88.8346,-19.9792,175,75
2026-05-09 15:07:02.280,1,0.47,0.72,1.2,-27.723200000000002,87.41839999999999,15.6626,175,75
2026-05-09 15:07:02.297,5,-0.31,0.01,0.17,-31.9386,118.6446,-65.5692,175,75
2026-05-09 15:07:02.297,3,-0.3,1.18,2.32,-80.0646,35.7236,-39.04259999999999,175,75
2026-05-09 15:07:02.297,5,-0.24,0.02,0.1,-37.5286,145.2346,-102.6192,175,75
2026-05-09 15:07:02.297,2,0.59,-0.46,0.48,127.089,109.72879999999999,-154.6072,175,75
2026-05-09 15:07:02.298,4,-0.77,0.82,1.83,-98.84840000000001,-116.1122,-203.8312,175,75
2026-05-09 15:07:02.309,5,-0.09,0.05,0.02,-37.5486,164.9846,-129.9792,175,75
2026-05-09 15:07:02.309,1,0.86,0.71,1.68,-42.1232,39.9784,7.492599999999998,175,75
2026-05-09 15:07:02.309,2,0.58,-0.39,0.45,114.289,110.33879999999999,-149.06719999999999,175,75
2026-05-09 15:07:02.320,4,-0.8,0.97,1.87,-69.2084,-110.81219999999999,-168.8912,175,75
2026-05-09 15:07:02.320,1,0.96,0.73,1.77,-39.86319999999999,7.9684,-7.147400000000001,175,75
2026-05-09 15:07:02.320,2,0.62,-0.31,0.46,100.809,119.9688,-142.7172,175,75
2026-05-09 15:07:02.334,4,-0.88,0.99,1.98,-48.418400000000005,-83.4922,-141.7612,175,75
2026-05-09 15:07:02.349,3,-3.03,2.74,3.4,-97.44460000000001,-106.0464,131.4974,175,75
2026-05-09 15:07:02.349,4,-0.95,0.99,2.11,-30.4884,-55.6222,-115.05120000000001,175,75
2026-05-09 15:07:02.349,1,0.97,0.74,1.92,-32.4832,-27.581599999999998,-20.5574,175,75
2026-05-09 15:07:02.349,3,-9.23,5.67,5.53,16.2754,64.3836,361.8674,175,75
2026-05-09 15:07:02.363,1,0.91,0.67,1.96,-30.533199999999997,-33.071600000000004,-19.517400000000002,175,75
2026-05-09 15:07:02.363,5,0.21,0.51,0.2,12.1914,95.90459999999999,-22.7192,175,75
2026-05-09 15:07:02.363,2,0.84,0.04,0.4,48.979,68.7488,-116.43719999999999,175,75
2026-05-09 15:07:02.364,1,0.9,0.59,1.97,-28.213199999999997,-36.7916,-13.487400000000001,175,75
2026-05-09 15:07:02.364,2,0.9,0.1,0.4,36.729,39.2988,-109.7972,175,75
2026-05-09 15:07:02.373,5,0.13,0.46,0.44,3.2813999999999997,57.2346,13.5008,175,75
2026-05-09 15:07:02.373,4,-1.03,0.98,2.44,5.4816,-7.452199999999998,-63.83120000000001,175,75
2026-05-09 15:07:02.375,5,0.05,0.58,0.06,-16.9386,51.0246,26.9008,175,75
2026-05-09 15:07:02.385,1,0.72,0.26,2.01,-20.903200000000002,-26.851599999999998,-10.807400000000001,175,75
2026-05-09 15:07:02.385,4,-1.18,1.24,2.68,31.0916,-10.2622,-18.771200000000004,175,75
2026-05-09 15:07:02.385,3,-1.06,2.66,1.36,-97.8746,-358.3564,300.5274,175,75
2026-05-09 15:07:02.385,5,0.19,0.08,0.53,-23.2286,74.2346,35.1108,175,75
2026-05-09 15:07:02.386,2,0.83,0.27,0.01,25.569000000000003,-124.8412,-93.5172,175,75
2026-05-09 15:07:02.395,1,0.65,-0.04,2.05,-16.7532,-17.7716,-3.727400000000001,175,75
2026-05-09 15:07:02.395,4,-1.21,1.46,2.78,55.9116,0.8977999999999966,26.2288,175,75
2026-05-09 15:07:02.397,5,0.4,0.02,0.63,-24.8286,127.27459999999999,60.9808,175,75
2026-05-09 15:07:02.400,3,-1.3,0.05,-0.57,28.8954,-12.326400000000003,16.7474,175,75
2026-05-09 15:07:02.400,2,0.76,0.39,-0.25,25.389000000000003,-223.6212,-71.49719999999999,175,75
2026-05-09 15:07:02.408,1,0.4,-0.53,1.91,-18.7032,-29.351599999999998,17.1226,175,75
2026-05-09 15:07:02.408,5,1.18,0.66,1.75,-64.8686,174.4446,162.2108,175,75
2026-05-09 15:07:02.408,4,-1.15,1.56,2.91,88.6516,38.517799999999994,87.3288,175,75
2026-05-09 15:07:02.415,2,0.66,0.51,-0.55,5.749,-261.7312,-26.627200000000002,175,75
2026-05-09 15:07:02.427,5,1.46,0.83,1.97,-147.1586,222.97459999999998,249.5508,175,75
2026-05-09 15:07:02.427,4,-0.99,1.42,3.05,105.9116,64.3078,129.2788,175,75
2026-05-09 15:07:02.427,3,-0.36,-0.87,1.61,75.3654,168.6536,43.9974,175,75
2026-05-09 15:07:02.427,2,0.4,0.55,-0.81,-19.801000000000002,-233.75119999999998,8.372800000000002,175,75
2026-05-09 15:07:02.438,5,1.18,0.5,1.57,-155.64860000000002,249.4646,249.5508,175,75
2026-05-09 15:07:02.438,4,-0.83,1.16,3.18,112.0716,53.827799999999996,165.43880000000001,175,75
2026-05-09 15:07:02.452,1,0.09,-0.6,1.89,-77.6032,-4.8416,60.172599999999996,175,75
2026-05-09 15:07:02.452,2,0.05,0.55,-1.12,-47.541,-139.97119999999998,48.6828,175,75
2026-05-09 15:07:02.452,5,0.13,-0.02,1.5,-115.71860000000001,249.4646,249.5508,175,75
2026-05-09 15:07:02.452,3,-1.38,-1.73,1.86,34.9954,72.1936,19.6074,175,75
2026-05-09 15:07:02.452,2,-0.17,0.52,-1.3,-61.811,-0.09120000000000061,95.87280000000001,175,75
2026-05-09 15:07:02.464,1,-0.02,-0.52,1.84,-101.8732,-15.2116,82.85260000000001,175,75
2026-05-09 15:07:02.464,5,-1.06,-0.86,2.0,-51.6086,249.4646,249.5508,175,75
2026-05-09 15:07:02.464,4,-0.89,0.9,3.24,99.4516,-76.9122,216.5988,175,75
2026-05-09 15:07:02.464,3,-0.04,-1.32,2.7,32.7954,-38.906400000000005,12.237400000000001,175,75
2026-05-09 15:07:02.476,2,-0.24,0.52,-1.32,-62.660999999999994,123.5688,140.1428,175,75
2026-05-09 15:07:02.476,5,-0.67,-1.28,2.0,-10.8586,249.4646,183.5208,175,75
2026-05-09 15:07:02.476,4,-0.98,0.99,3.16,99.6916,-128.8622,260.3188,175,75
2026-05-09 15:07:02.476,3,0.16,-1.16,1.8,16.1554,-135.6164,67.3574,175,75
2026-05-09 15:07:02.487,1,-0.63,-0.74,1.21,-146.9332,-39.351600000000005,132.7326,175,75
2026-05-09 15:07:02.487,2,-0.17,0.5,-1.15,-51.141,283.8788,214.8428,175,75
2026-05-09 15:07:02.487,4,-1.03,0.97,3.03,115.1216,-161.1122,304.3388,175,75
2026-05-09 15:07:02.499,1,-0.7,-0.79,1.04,-163.58319999999998,-39.2316,149.2626,175,75
2026-05-09 15:07:02.499,3,-0.25,-1.32,1.08,31.2754,-171.7764,81.62740000000001,175,75
2026-05-09 15:07:02.499,5,-2.0,-1.13,1.98,-26.1986,249.4646,-69.5192,175,75
2026-05-09 15:07:02.499,2,-0.0,0.36,-0.91,-57.481,366.5588,275.51279999999997,175,75
2026-05-09 15:07:02.499,4,-1.08,0.76,2.88,138.16160000000002,-197.2122,357.2688,175,75
2026-05-09 15:07:02.499,3,-0.54,-1.35,0.34,73.2254,-146.22639999999998,82.4174,175,75
2026-05-09 15:07:02.509,2,0.09,0.16,-0.67,-82.661,414.60880000000003,325.20279999999997,175,75
2026-05-09 15:07:02.509,5,-2.0,-1.22,1.42,4.2914,249.4646,-196.8192,175,75
2026-05-09 15:07:02.509,4,-1.05,0.53,2.77,154.4416,-215.1422,397.4488,175,75
2026-05-09 15:07:02.509,3,-0.7,-1.23,0.03,122.1254,-92.38640000000001,87.1674,175,75
2026-05-09 15:07:02.509,5,-2.0,-1.29,1.43,58.4714,136.1046,-250.71919999999997,175,75
2026-05-09 15:07:02.524,3,-0.52,-1.38,0.35,159.99540000000002,-45.3064,93.5774,175,75
2026-05-09 15:07:02.524,5,-1.97,-0.5,2.0,95.7314,-45.4054,-144.6692,175,75
2026-05-09 15:07:02.524,1,-0.58,-0.21,0.46,-221.3832,-75.2716,185.4826,175,75
2026-05-09 15:07:02.524,2,0.79,-0.63,-0.4,-192.541,392.4688,423.5028,175,75
2026-05-09 15:07:02.524,4,-0.88,-0.08,2.55,187.3716,-249.5322,469.5788,175,75
2026-05-09 15:07:02.537,3,-0.21,-1.51,0.74,175.4854,-64.08640000000001,107.5374,175,75
2026-05-09 15:07:02.537,2,1.06,-0.98,-0.38,-232.84099999999998,324.5488,440.6328,175,75
2026-05-09 15:07:02.537,1,-0.36,0.04,0.33,-236.3832,-68.80160000000001,185.6626,175,75
2026-05-09 15:07:02.537,2,1.18,-1.32,-0.36,-266.50100000000003,247.22880000000004,447.21279999999996,175,75
2026-05-09 15:07:02.552,1,-0.63,-0.01,0.39,-225.2232,-35.4516,171.8826,175,75
2026-05-09 15:07:02.552,4,-0.89,-0.74,2.37,236.8216,-224.9522,549.0988,175,75
2026-05-09 15:07:02.552,3,0.24,-1.96,0.41,190.7254,-146.7764,139.6074,175,75
2026-05-09 15:07:02.552,5,-1.34,0.21,2.0,83.39139999999999,-219.4554,75.1608,175,75
2026-05-09 15:07:02.552,2,1.03,-1.58,-0.29,-300.101,166.98880000000003,470.9328,175,75
2026-05-09 15:07:02.552,1,2.13,-1.42,3.3,-144.07319999999999,304.66839999999996,94.2626,175,75
2026-05-09 15:07:02.563,4,-0.97,-1.02,2.35,262.9216,-210.8722,593.4888000000001,175,75
2026-05-09 15:07:02.563,2,0.96,-1.74,-0.37,-324.55100000000004,102.9588,499.1128,175,75
2026-05-09 15:07:02.563,3,0.52,-2.22,0.08,201.7054,-131.8364,142.1074,175,75
2026-05-09 15:07:02.573,1,4.36,-2.87,8.31,-18.1532,387.8984,120.7226,175,75
2026-05-09 15:07:02.573,4,-1.16,-1.37,2.36,296.21160000000003,-205.2022,646.7788,175,75
2026-05-09 15:07:02.573,5,-1.02,-0.25,1.9,76.0214,-250.8054,52.7308,175,75
2026-05-09 15:07:02.575,3,1.19,-2.52,0.2,207.7354,-62.74640000000001,100.5274,175,75
2026-05-09 15:07:02.586,1,1.03,-1.04,4.01,-56.0232,-485.14160000000004,75.1726,175,75
2026-05-09 15:07:02.586,4,-1.28,-1.78,2.24,361.21160000000003,-219.1022,714.0988,175,75
2026-05-09 15:07:02.586,3,1.36,-1.78,0.61,219.7554,-9.636400000000002,86.98740000000001,175,75
2026-05-09 15:07:02.586,2,1.19,-2.18,-0.8,-356.261,-57.1012,515.6328,175,75
2026-05-09 15:07:02.586,5,0.31,-0.56,1.17,56.1114,-250.8054,69.9408,175,75
2026-05-09 15:07:02.586,4,-1.57,-2.34,2.28,445.4816,-272.9422,792.3888000000001,175,75
2026-05-09 15:07:02.597,5,0.48,-0.62,0.72,65.56139999999999,-250.8054,118.1308,175,75
2026-05-09 15:07:02.597,4,-2.05,-3.05,2.52,462.9816,-287.7022,875.0088000000001,175,75
2026-05-09 15:07:02.597,5,0.1,-0.5,0.31,74.41139999999999,-250.8054,160.51080000000002,175,75
2026-05-09 15:07:02.618,3,-1.05,-0.99,0.99,237.18540000000002,8.353599999999997,146.5674,175,75
2026-05-09 15:07:02.618,4,-3.07,-4.19,2.93,392.1916,-353.1922,843.4888000000001,175,75
2026-05-09 15:07:02.618,2,1.45,-2.86,-1.55,-382.231,-47.1012,573.9227999999999,175,75
2026-05-09 15:07:02.618,3,-1.44,-1.26,1.01,235.11540000000002,89.08359999999999,138.0874,175,75
2026-05-09 15:07:02.630,1,-0.25,1.3,1.87,-96.3232,-139.05159999999998,134.9326,175,75
2026-05-09 15:07:02.630,5,2.0,0.17,-0.84,13.0614,-180.65540000000001,181.22080000000003,175,75
2026-05-09 15:07:02.630,3,-0.76,-1.69,0.98,208.89540000000002,74.8736,100.8274,175,75
2026-05-09 15:07:02.630,1,-0.48,1.15,0.22,-79.8632,-117.0416,122.49260000000001,175,75
2026-05-09 15:07:02.643,2,1.21,-2.75,-1.55,-328.94100000000003,-49.111200000000004,590.3928,175,75
2026-05-09 15:07:02.643,4,-3.59,-5.96,2.71,384.9316,-475.8722,797.8788000000001,175,75
2026-05-09 15:07:02.643,5,1.5,-0.29,-0.97,-22.738599999999998,-40.7354,120.8008,175,75
2026-05-09 15:07:02.643,3,0.5,-1.32,0.41,132.9854,-3.6064000000000043,-1.9125999999999994,175,75
2026-05-09 15:07:02.657,5,0.43,-0.27,-0.8,-11.6486,24.964599999999997,58.4008,175,75
2026-05-09 15:07:02.657,2,1.68,-3.39,-1.39,-301.93100000000004,-73.0712,590.0228,175,75
2026-05-09 15:07:02.657,4,-3.72,-7.07,2.23,382.1916,-486.6622,758.3588000000001,175,75
2026-05-09 15:07:02.657,1,-0.06,0.13,-0.41,-129.01319999999998,41.008399999999995,121.21260000000001,175,75
2026-05-09 15:07:02.657,3,-1.13,0.74,1.13,163.1654,271.7636,50.037400000000005,175,75
2026-05-09 15:07:02.657,5,0.21,-0.53,-0.17,3.2114000000000003,85.4446,-13.1092,175,75
2026-05-09 15:07:02.668,2,2.01,-4.0,-1.29,-306.38100000000003,-106.0012,565.3928,175,75
2026-05-09 15:07:02.668,1,0.14,0.0,0.88,-124.80319999999999,48.3884,112.7326,175,75
2026-05-09 15:07:02.680,2,2.47,-4.67,-1.32,-319.00100000000003,-175.51119999999997,538.9828,175,75
2026-05-09 15:07:02.680,3,-0.18,-1.5,2.39,104.8754,41.3336,70.4074,175,75
2026-05-09 15:07:02.680,1,-0.33,0.26,0.88,-107.5432,-2.3415999999999997,96.1526,175,75
2026-05-09 15:07:02.680,4,-1.99,-5.89,0.8,262.3116,-212.3322,505.67879999999997,175,75
2026-05-09 15:07:02.690,2,2.33,-4.48,-1.37,-308.091,-240.57119999999998,525.1428,175,75
2026-05-09 15:07:02.690,5,-0.18,-0.42,1.67,9.8414,224.3846,-207.6892,175,75
2026-05-09 15:07:02.690,1,-0.23,0.21,0.42,-109.6832,10.708400000000001,94.8026,175,75
2026-05-09 15:07:02.690,3,-0.39,-0.87,1.23,-15.1846,-127.6864,-28.9826,175,75
2026-05-09 15:07:02.705,2,1.88,-3.98,-1.48,-279.12100000000004,-186.31119999999999,501.9728,175,75
2026-05-09 15:07:02.705,4,-1.44,-5.05,0.78,272.4916,-174.5922,458.23879999999997,175,75
2026-05-09 15:07:02.705,5,0.85,-0.21,2.0,-37.6586,141.6446,-244.20919999999998,175,75
2026-05-09 15:07:02.705,1,-0.3,0.18,0.41,-106.5132,20.1584,87.43260000000001,175,75
2026-05-09 15:07:02.705,2,1.86,-3.85,-1.67,-265.161,-94.8412,481.0628,175,75
2026-05-09 15:07:02.714,4,-1.28,-4.62,0.87,294.9316,-163.6722,412.0188,175,75
2026-05-09 15:07:02.715,5,1.09,0.11,2.0,-77.96860000000001,159.5546,-237.79919999999998,175,75
2026-05-09 15:07:02.715,3,-0.84,0.16,-0.08,-43.174600000000005,117.19359999999999,-23.862599999999997,175,75
2026-05-09 15:07:02.715,1,-0.23,0.17,0.47,-97.9132,50.5284,85.29260000000001,175,75
2026-05-09 15:07:02.715,2,1.85,-3.92,-1.74,-262.171,27.288799999999995,465.08279999999996,175,75
2026-05-09 15:07:02.726,5,0.87,0.22,2.0,-111.3786,211.1446,-250.71919999999997,175,75
2026-05-09 15:07:02.726,4,-1.06,-4.29,0.89,291.7016,-144.41219999999998,343.6088,175,75
2026-05-09 15:07:02.726,3,-0.45,0.04,1.0,-78.1746,155.7236,-96.8526,175,75
2026-05-09 15:07:02.726,2,1.98,-3.88,-1.58,-262.971,216.3788,445.14279999999997,175,75
2026-05-09 15:07:02.736,5,0.39,-0.01,2.0,-122.5086,247.06459999999998,-250.71919999999997,175,75
2026-05-09 15:07:02.736,4,-0.8,-4.04,0.87,270.6016,-140.62220000000002,268.9688,175,75
2026-05-09 15:07:02.736,3,-0.3,0.48,1.46,-114.0946,97.4336,-122.46260000000001,175,75
2026-05-09 15:07:02.736,1,-0.3,0.33,0.52,-83.3332,81.9884,71.5126,175,75
2026-05-09 15:07:02.736,2,2.06,-3.68,-1.21,-261.081,331.3188,419.78279999999995,175,75
2026-05-09 15:07:02.748,5,0.38,-0.14,1.46,-105.04860000000001,185.7946,-250.71919999999997,175,75
2026-05-09 15:07:02.748,3,-0.3,0.53,1.66,-139.88459999999998,51.093599999999995,-126.9726,175,75
2026-05-09 15:07:02.748,4,-0.51,-3.55,0.92,249.9316,-156.91219999999998,152.93880000000001,175,75
2026-05-09 15:07:02.748,2,1.96,-3.52,-0.64,-251.441,416.0688,373.6228,175,75
2026-05-09 15:07:02.748,3,-0.38,0.48,1.7,-183.2946,-14.156400000000001,-161.0026,175,75
2026-05-09 15:07:02.760,1,-0.4,0.24,0.51,-63.2132,109.2484,51.3326,175,75
2026-05-09 15:07:02.760,4,-0.13,-3.08,1.08,241.7616,-195.9322,65.3788,175,75
2026-05-09 15:07:02.760,5,-0.33,0.23,1.46,-60.1386,149.06459999999998,-95.9292,175,75
2026-05-09 15:07:02.769,2,1.9,-3.42,-0.03,-243.03099999999998,491.3188,311.2428,175,75
2026-05-09 15:07:02.769,3,-0.41,0.47,1.54,-225.5546,-55.36640000000001,-194.9026,175,75
2026-05-09 15:07:02.769,1,-0.55,-0.0,0.55,-58.4632,106.4984,45.2326,175,75
2026-05-09 15:07:02.769,4,0.31,-2.72,1.27,232.3116,-268.61220000000003,15.618799999999998,175,75
2026-05-09 15:07:02.769,5,-0.53,0.6,1.67,-81.1786,146.22459999999998,-65.3692,175,75
2026-05-09 15:07:02.782,3,-0.33,0.54,1.23,-259.70459999999997,-77.44640000000001,-219.7826,175,75
2026-05-09 15:07:02.782,1,-1.34,-0.39,0.25,-48.8832,163.8784,36.2726,175,75
2026-05-09 15:07:02.782,5,-0.6,0.77,1.83,-115.4286,122.0546,-15.2692,175,75
2026-05-09 15:07:02.783,2,1.79,-2.8,0.99,-248.271,605.2188,195.2628,175,75
2026-05-09 15:07:02.786,3,-0.72,1.0,1.24,-266.2846,-44.82640000000001,-227.52259999999998,175,75
2026-05-09 15:07:02.799,1,-0.07,-1.21,0.91,-30.473200000000002,159.85840000000002,28.462599999999995,175,75
2026-05-09 15:07:02.799,5,-0.6,0.85,1.92,-136.1386,92.02459999999999,34.1908,175,75
2026-05-09 15:07:02.799,2,2.04,-2.18,1.26,-219.801,563.2088,130.2028,175,75
2026-05-09 15:07:02.799,3,-0.3,0.47,2.02,-268.0546,-22.076400000000003,-245.6326,175,75
2026-05-09 15:07:02.799,1,-0.19,-1.63,0.98,-40.533199999999994,105.27839999999999,11.8226,175,75
2026-05-09 15:07:02.799,5,-0.53,0.7,1.9,-143.42860000000002,63.7746,91.4408,175,75
2026-05-09 15:07:02.811,2,2.16,-1.62,1.5,-174.801,388.5088,90.6928,175,75
2026-05-09 15:07:02.811,4,0.25,-1.07,0.16,218.41160000000002,-562.2121999999999,142.3888,175,75
2026-05-09 15:07:02.811,5,-0.54,0.47,1.7,-136.5886,41.6146,160.0208,175,75
2026-05-09 15:07:02.811,2,1.49,-1.31,1.61,-151.501,301.3788,69.2928,175,75
2026-05-09 15:07:02.822,3,-0.61,0.42,0.58,-360.1246,-83.60640000000001,-241.9126,175,75
2026-05-09 15:07:02.822,4,0.57,-0.72,-0.27,245.79160000000002,-527.2121999999999,43.6688,175,75
2026-05-09 15:07:02.822,1,0.4,-2.09,0.72,-70.4732,65.3384,-3.3074000000000012,175,75
2026-05-09 15:07:02.822,2,1.15,-0.93,1.7,-146.381,351.0688,7.462800000000001,175,75
2026-05-09 15:07:02.824,3,-0.88,0.64,1.05,-351.3446,37.1336,-277.3426,175,75
2026-05-09 15:07:02.827,5,-0.58,0.03,1.44,-72.77860000000001,0.8946,249.5508,175,75
2026-05-09 15:07:02.830,2,1.24,-0.73,1.67,-171.99099999999999,381.0088,-9.127199999999998,175,75
2026-05-09 15:07:02.846,5,-0.7,-0.19,1.41,-50.1386,-43.1954,249.5508,175,75
2026-05-09 15:07:02.846,3,-0.48,0.63,1.83,-365.4946,18.473599999999998,-273.1926,175,75
2026-05-09 15:07:02.846,4,0.38,-0.11,-0.94,247.1316,-439.4722,65.3188,175,75
2026-05-09 15:07:02.846,1,1.15,-2.14,1.6,-89.2532,81.80839999999999,-12.877400000000002,175,75
2026-05-09 15:07:02.860,2,0.96,-0.11,2.08,-170.221,435.9488,-91.1372,175,75
2026-05-09 15:07:02.860,5,-0.53,-0.32,1.53,-56.1586,-187.6454,249.5508,175,75
2026-05-09 15:07:02.860,4,-0.09,-0.26,-1.39,244.2616,-305.9922,39.0988,175,75
2026-05-09 15:07:02.874,3,-1.45,0.29,1.88,-389.8246,5.663599999999997,-260.4526,175,75
2026-05-09 15:07:02.874,1,1.67,-1.52,2.52,-89.2532,72.0484,-4.587400000000001,175,75
2026-05-09 15:07:02.874,5,-0.47,-0.75,1.1,-39.3986,-233.77540000000002,249.5508,175,75
2026-05-09 15:07:02.874,2,1.23,-0.26,2.18,-123.94100000000002,340.4588,-79.06719999999999,175,75
2026-05-09 15:07:02.874,4,-0.12,-0.11,-1.37,187.6816,-242.7622,53.3588,175,75
2026-05-09 15:07:02.887,3,-1.45,0.51,2.57,-365.9846,36.8836,-264.17260000000005,175,75
2026-05-09 15:07:02.887,1,1.28,-0.89,2.39,-125.96320000000001,8.9984,13.832599999999998,175,75
2026-05-09 15:07:02.887,5,-1.36,-0.97,1.09,-18.8386,-250.8054,249.5508,175,75
2026-05-09 15:07:02.887,4,-0.13,0.17,-1.18,119.1416,-186.4222,58.9088,175,75
2026-05-09 15:07:02.887,3,-1.7,0.85,3.17,-347.9946,29.443599999999996,-249.11260000000001,175,75
2026-05-09 15:07:02.887,1,0.92,-0.69,2.16,-170.4732,-54.8416,27.1826,175,75
2026-05-09 15:07:02.889,5,-0.49,-1.21,0.56,24.1114,-250.8054,249.5508,175,75
2026-05-09 15:07:02.889,2,1.03,-0.25,2.03,-76.93100000000001,76.0688,32.2128,175,75
2026-05-09 15:07:02.893,4,0.21,0.51,-0.83,55.1816,-167.5822,61.4688,175,75
2026-05-09 15:07:02.903,3,-2.03,1.19,3.71,-330.5546,6.3935999999999975,-225.8126,175,75
2026-05-09 15:07:02.903,1,0.82,-0.59,2.25,-197.1832,-76.7316,20.232599999999998,175,75
2026-05-09 15:07:02.903,5,-0.25,-1.26,0.26,84.2714,-250.8054,232.5208,175,75
2026-05-09 15:07:02.903,4,0.43,0.75,-0.64,32.7416,-204.9522,61.4088,175,75
2026-05-09 15:07:02.903,2,0.89,-0.13,1.86,-60.651,24.488799999999998,40.2628,175,75
2026-05-09 15:07:02.905,3,-2.16,1.33,4.33,-307.9946,-35.126400000000004,-186.4226,175,75
2026-05-09 15:07:02.916,5,-0.27,-1.11,0.04,137.2514,-250.8054,206.0508,175,75
2026-05-09 15:07:02.916,1,0.68,-0.45,2.07,-208.2132,-88.0716,31.1526,175,75
2026-05-09 15:07:02.916,4,0.54,0.89,-0.58,34.3816,-278.2522,41.7188,175,75
2026-05-09 15:07:02.916,2,0.73,0.06,1.62,-40.161,65.8888,18.0128,175,75
2026-05-09 15:07:02.920,5,0.05,-0.94,-0.19,163.2514,-250.8054,162.1708,175,75
2026-05-09 15:07:02.920,1,0.74,-0.47,1.99,-188.4632,-56.0016,19.5026,175,75
2026-05-09 15:07:02.940,3,-1.86,1.3,3.42,-233.1746,-189.57639999999998,-63.3126,175,75
2026-05-09 15:07:02.940,4,0.05,0.91,-0.84,9.081600000000002,-381.1722,10.678799999999999,175,75
2026-05-09 15:07:02.940,5,2.0,-0.31,-1.44,161.3014,-215.3954,3.7607999999999997,175,75
2026-05-09 15:07:02.940,2,1.01,0.06,1.8,13.439,198.8188,-21.5672,175,75
2026-05-09 15:07:02.940,1,1.15,-0.13,2.07,-126.81320000000001,45.218399999999995,15.4126,175,75
2026-05-09 15:07:02.954,4,-0.26,0.86,-1.03,-14.148400000000002,-322.4522,6.348799999999999,175,75
2026-05-09 15:07:02.954,5,1.32,-0.44,-1.65,136.6814,-48.2654,-90.0092,175,75
2026-05-09 15:07:02.954,1,1.25,-0.03,1.53,-131.9932,-48.2516,18.6526,175,75
2026-05-09 15:07:02.954,4,-0.78,0.96,-0.9,-32.6284,-238.4322,27.9388,175,75
2026-05-09 15:07:02.964,3,-1.61,1.54,2.75,-83.6046,-71.0464,-20.4526,175,75
2026-05-09 15:07:02.964,5,0.15,-0.54,-1.37,113.1314,-1.4554,-104.5692,175,75
2026-05-09 15:07:02.964,1,-0.29,-0.03,0.79,-154.1932,-79.6616,42.9826,175,75
2026-05-09 15:07:02.964,2,0.68,-0.07,1.85,46.849000000000004,177.77880000000002,-6.987199999999998,175,75
2026-05-09 15:07:02.971,1,0.26,-0.37,1.36,-108.5232,92.6584,5.962599999999998,175,75
2026-05-09 15:07:02.985,3,-2.18,1.86,3.41,38.1654,3.833599999999997,52.907399999999996,175,75
2026-05-09 15:07:02.985,2,1.86,-0.21,2.13,54.169000000000004,79.1788,8.4328,175,75
2026-05-09 15:07:02.985,5,-0.72,-0.07,-0.35,52.4214,-40.715399999999995,-136.3792,175,75
2026-05-09 15:07:02.985,4,0.77,0.73,-0.34,-88.8484,-141.9722,61.4088,175,75
2026-05-09 15:07:02.988,1,0.6,-0.11,2.19,-73.8232,131.00840000000002,1.512599999999999,175,75
2026-05-09 15:07:02.999,3,-3.51,1.85,3.12,101.1554,-84.33640000000001,189.2474,175,75
2026-05-09 15:07:02.999,5,-0.76,0.09,-0.21,1.8914,-53.0954,-188.49919999999997,175,75
2026-05-09 15:07:02.999,2,1.08,-0.3,2.26,50.199000000000005,134.7288,48.5028,175,75
2026-05-09 15:07:02.999,4,0.86,0.71,0.14,-113.72840000000001,-148.1922,19.1588,175,75
2026-05-09 15:07:02.999,1,1.13,-0.2,3.21,-20.5932,115.27839999999999,-5.557400000000001,175,75
2026-05-09 15:07:03.004,2,1.37,-0.19,1.76,76.419,171.3188,5.9328,175,75
2026-05-09 15:07:03.016,5,-0.44,0.19,-0.31,-37.6486,-49.9854,-241.33919999999998,175,75
2026-05-09 15:07:03.016,3,0.34,-2.27,2.35,206.8854,-191.4064,104.8574,175,75
2026-05-09 15:07:03.016,4,1.17,0.77,0.31,-134.5784,-176.4222,20.1288,175,75
2026-05-09 15:07:03.016,2,1.73,-0.34,1.72,93.439,106.5588,-17.7172,175,75
2026-05-09 15:07:03.016,1,0.36,0.07,3.13,2.1468000000000007,-36.1216,-32.757400000000004,175,75
2026-05-09 15:07:03.016,3,1.55,-8.35,1.93,131.3354,69.50359999999999,247.6574,175,75
2026-05-09 15:07:03.024,4,1.01,0.53,0.27,-152.7484,-293.1222,-5.721200000000003,175,75
2026-05-09 15:07:03.025,5,1.6,0.35,-0.35,-107.4586,93.0646,-250.71919999999997,175,75
2026-05-09 15:07:03.025,1,-0.16,-0.29,2.27,40.3768,-75.0216,-100.25739999999999,175,75
2026-05-09 15:07:03.025,3,-1.66,2.18,2.03,206.15540000000001,112.7436,118.5774,175,75
2026-05-09 15:07:03.025,4,0.76,0.18,0.14,-163.59840000000003,-332.8822,-8.161200000000001,175,75
2026-05-09 15:07:03.036,2,1.12,-0.45,1.63,99.65899999999999,203.3888,59.842800000000004,175,75
2026-05-09 15:07:03.036,5,2.0,0.41,-0.38,-120.35860000000001,249.4646,-242.3792,175,75
2026-05-09 15:07:03.036,1,0.13,-0.64,1.94,72.2768,-58.991600000000005,-122.6974,175,75
2026-05-09 15:07:03.036,4,0.52,-0.15,-0.11,-176.03840000000002,-292.5822,9.458799999999998,175,75
2026-05-09 15:07:03.046,3,-0.17,1.75,1.03,334.8154,-21.1664,33.6374,175,75
2026-05-09 15:07:03.048,2,1.52,-0.67,1.55,117.76899999999999,230.8288,84.53280000000001,175,75
2026-05-09 15:07:03.060,1,0.05,-0.58,1.98,87.0868,-93.8616,-143.9174,175,75
2026-05-09 15:07:03.060,3,-1.01,1.89,1.09,183.2854,138.7736,283.81739999999996,175,75
2026-05-09 15:07:03.060,5,2.0,2.0,0.75,-147.8486,249.4646,156.53080000000003,175,75
2026-05-09 15:07:03.060,2,2.03,-0.74,1.84,149.65900000000002,220.02880000000002,91.3628,175,75
2026-05-09 15:07:03.060,1,-0.1,-0.28,1.62,104.0968,-96.2416,-190.8074,175,75
2026-05-09 15:07:03.070,5,1.59,1.29,2.0,-194.0486,249.4646,181.23080000000002,175,75
2026-05-09 15:07:03.070,2,2.39,-0.67,2.17,166.669,213.5688,92.58279999999999,175,75
2026-05-09 15:07:03.070,3,-0.83,0.56,2.73,184.5054,86.39359999999999,90.8274,175,75
2026-05-09 15:07:03.070,5,1.85,1.2,2.0,-179.0286,249.4646,33.9408,175,75
2026-05-09 15:07:03.070,2,2.39,-0.65,2.39,171.419,169.42880000000002,87.7628,175,75
2026-05-09 15:07:03.070,1,-0.48,-0.11,1.03,155.5068,-47.641600000000004,-243.7874,175,75
2026-05-09 15:07:03.088,5,0.82,-0.52,2.0,-248.5486,249.4646,79.6008,175,75
2026-05-09 15:07:03.101,3,-0.2,0.0,3.09,117.8654,-22.076400000000003,163.3874,175,75
2026-05-09 15:07:03.101,2,2.26,-0.78,2.46,172.399,118.9988,88.37280000000001,175,75
2026-05-09 15:07:03.101,3,-0.53,0.07,2.14,82.1254,-185.1864,155.9574,175,75
2026-05-09 15:07:03.101,5,0.14,0.73,1.72,-222.9386,249.4646,146.72080000000003,175,75
2026-05-09 15:07:03.101,2,2.27,-1.02,2.46,180.87900000000002,56.61879999999999,90.6928,175,75
2026-05-09 15:07:03.114,1,-1.09,0.04,0.9,226.35680000000002,8.328399999999998,-265.55740000000003,175,75
2026-05-09 15:07:03.114,3,-1.12,0.35,1.05,64.3254,-172.32639999999998,152.0474,175,75
2026-05-09 15:07:03.114,4,1.38,-1.14,0.96,-233.96839999999997,92.17779999999999,9.948799999999999,175,75
2026-05-09 15:07:03.125,2,2.37,-1.35,2.42,204.71900000000002,-4.9612,85.1428,175,75
2026-05-09 15:07:03.125,3,-1.41,0.29,0.7,79.1454,-77.44640000000001,128.5174,175,75
2026-05-09 15:07:03.137,5,-1.85,-1.5,-0.54,-1.0986,249.4646,249.1808,175,75
2026-05-09 15:07:03.137,4,1.06,-1.38,1.16,-243.47839999999997,58.6378,-8.401200000000003,175,75
2026-05-09 15:07:03.137,1,-0.97,0.22,1.4,318.9768,-17.9516,-266.6574,175,75
2026-05-09 15:07:03.151,5,-2.0,-1.28,-0.38,113.75139999999999,218.53459999999998,249.5508,175,75
2026-05-09 15:07:03.151,2,2.69,-1.81,2.04,259.959,-27.651200000000003,62.7628,175,75
2026-05-09 15:07:03.151,3,-0.62,0.05,1.6,92.55539999999999,-34.63640000000001,77.7774,175,75
2026-05-09 15:07:03.161,4,1.19,-1.44,1.38,-259.9484,49.98779999999999,-26.5112,175,75
2026-05-09 15:07:03.161,1,-1.08,0.06,1.26,348.7968,-73.19160000000001,-258.6674,175,75
2026-05-09 15:07:03.161,5,-2.0,-0.5,1.23,189.4114,26.4746,189.47080000000003,175,75
2026-05-09 15:07:03.161,3,-0.79,-0.56,1.67,85.66539999999999,-50.796400000000006,89.0674,175,75
2026-05-09 15:07:03.181,2,2.83,-1.85,1.82,314.049,-21.0612,65.1428,175,75
2026-05-09 15:07:03.182,3,-0.83,-1.23,1.51,85.4254,-54.516400000000004,85.34740000000001,175,75
2026-05-09 15:07:03.182,5,-1.43,-0.56,2.0,53.1414,-240.0554,-17.8192,175,75
2026-05-09 15:07:03.182,1,-1.69,-0.07,0.2,371.96680000000003,-201.8516,-227.6974,175,75
2026-05-09 15:07:03.182,2,2.84,-1.93,1.8,332.519,-37.9512,63.4328,175,75
2026-05-09 15:07:03.193,3,-0.43,-1.9,1.3,101.7654,-49.27640000000001,87.4774,175,75
2026-05-09 15:07:03.193,4,1.23,-0.95,1.6,-277.7484,40.1678,-37.3712,175,75
2026-05-09 15:07:03.193,2,2.74,-2.06,1.81,355.62899999999996,-70.6412,51.1828,175,75
2026-05-09 15:07:03.197,4,1.18,-0.98,1.65,-283.41839999999996,59.4978,-47.181200000000004,175,75
2026-05-09 15:07:03.204,2,2.74,-2.26,1.9,378.799,-112.0412,28.622799999999998,175,75
2026-05-09 15:07:03.204,3,0.04,-1.93,0.86,130.5454,-41.3464,109.2474,175,75
2026-05-09 15:07:03.204,5,-0.38,-0.62,1.29,73.55139999999999,-174.8854,-173.30919999999998,175,75
2026-05-09 15:07:03.208,4,1.13,-0.99,1.65,-292.5684,91.5678,-59.681200000000004,175,75
2026-05-09 15:07:03.208,1,-2.39,-0.42,-0.89,341.1768,-156.30159999999998,-211.4774,175,75
2026-05-09 15:07:03.209,3,-0.02,-1.7,1.03,131.21540000000002,-35.24640000000001,118.8174,175,75
2026-05-09 15:07:03.215,2,2.71,-2.47,1.86,391.609,-164.1712,-10.217199999999998,175,75
2026-05-09 15:07:03.217,3,0.42,-1.91,1.07,129.2054,-39.6964,122.90740000000001,175,75
2026-05-09 15:07:03.227,2,2.65,-2.53,1.7,390.50899999999996,-185.6412,-42.7872,175,75
2026-05-09 15:07:03.227,5,-0.24,0.01,0.91,120.30139999999999,-184.68540000000002,-162.1892,175,75
2026-05-09 15:07:03.227,5,-0.25,0.36,0.81,112.5114,-213.8254,-145.17919999999998,175,75
2026-05-09 15:07:03.227,4,0.91,-0.97,1.5,-299.2084,210.7778,-126.51120000000002,175,75
2026-05-09 15:07:03.239,1,-3.15,0.9,-1.8,234.0968,51.258399999999995,-43.787400000000005,175,75
2026-05-09 15:07:03.239,5,-0.21,0.41,0.71,89.9014,-241.5154,-144.8192,175,75
2026-05-09 15:07:03.239,1,-2.42,1.05,-2.01,176.29680000000002,141.6184,9.992599999999998,175,75
2026-05-09 15:07:03.239,3,0.77,-1.6,1.25,136.7654,-73.66640000000001,146.0774,175,75
2026-05-09 15:07:03.239,5,-0.04,0.62,0.57,61.1614,-250.8054,-143.1392,175,75
2026-05-09 15:07:03.245,4,0.72,-1.14,1.61,-306.1584,321.6278,-161.88119999999998,175,75
2026-05-09 15:07:03.245,2,2.64,-2.69,0.72,409.719,-182.3412,-136.4972,175,75
2026-05-09 15:07:03.245,1,-1.28,1.07,-1.88,112.8168,164.97840000000002,57.062599999999996,175,75
2026-05-09 15:07:03.245,3,0.01,-1.27,1.26,146.5154,-77.86640000000001,153.6374,175,75
2026-05-09 15:07:03.251,5,0.21,0.54,0.35,28.0814,-250.8054,-121.7792,175,75
2026-05-09 15:07:03.251,2,2.68,-2.78,0.43,440.44899999999996,-183.44119999999998,-168.81719999999999,175,75
2026-05-09 15:07:03.260,1,-0.24,0.9,-2.03,40.1368,125.0984,61.272600000000004,175,75
2026-05-09 15:07:03.260,5,0.49,0.4,0.18,6.571400000000001,-233.1654,-86.0392,175,75
2026-05-09 15:07:03.261,3,0.12,-1.14,0.94,164.2054,-87.44640000000001,115.7074,175,75
2026-05-09 15:07:03.262,4,0.53,-1.4,2.03,-299.2684,373.0278,-228.10119999999998,175,75
2026-05-09 15:07:03.264,2,2.54,-2.81,0.34,466.909,-171.1812,-191.4972,175,75
2026-05-09 15:07:03.269,1,0.25,0.77,-2.52,-33.703199999999995,73.2084,71.6926,175,75
2026-05-09 15:07:03.269,5,0.76,0.27,-0.12,-7.2986,-187.0954,-34.9492,175,75
2026-05-09 15:07:03.281,2,2.25,-2.81,0.37,491.669,-129.2912,-209.4872,175,75
2026-05-09 15:07:03.281,1,0.8,-0.32,-2.42,-157.1232,56.008399999999995,51.6326,175,75
2026-05-09 15:07:03.281,3,-1.08,0.4,0.69,147.0054,30.483599999999996,128.5174,175,75
2026-05-09 15:07:03.281,5,0.92,0.29,-0.55,-10.8686,-137.93540000000002,41.5208,175,75
2026-05-09 15:07:03.281,4,0.24,-1.62,2.32,-275.4284,321.0178,-321.6412,175,75
2026-05-09 15:07:03.292,2,2.03,-2.92,0.47,514.659,-45.8812,-233.5772,175,75
2026-05-09 15:07:03.292,1,3.96,-2.34,1.18,-264.6232,306.2584,-11.287400000000002,175,75
2026-05-09 15:07:03.292,5,1.26,-0.04,-0.44,26.6714,-98.64540000000001,133.5208,175,75
2026-05-09 15:07:03.292,3,-0.38,-0.0,1.08,151.0954,56.64359999999999,141.1374,175,75
2026-05-09 15:07:03.292,4,0.14,-1.66,2.25,-267.4484,293.1578,-351.0912,175,75
2026-05-09 15:07:03.306,5,2.0,0.43,-1.19,52.8014,-20.765400000000003,249.5508,175,75
2026-05-09 15:07:03.306,3,0.69,-0.38,1.04,108.9554,-69.1464,72.8474,175,75
2026-05-09 15:07:03.306,4,0.03,-1.75,2.08,-269.0884,225.83780000000002,-373.6512,175,75
2026-05-09 15:07:03.306,2,2.15,-3.35,0.66,519.899,16.248800000000003,-272.78720000000004,175,75
2026-05-09 15:07:03.306,5,1.91,0.82,-0.91,57.4014,108.99459999999999,249.5508,175,75
2026-05-09 15:07:03.312,3,0.23,-0.1,0.31,65.1154,-44.3364,58.757400000000004,175,75
2026-05-09 15:07:03.312,4,-0.13,-1.81,1.89,-276.28839999999997,157.7878,-377.8512,175,75
2026-05-09 15:07:03.326,5,0.62,0.47,-0.33,24.9914,182.81459999999998,249.5508,175,75
2026-05-09 15:07:03.326,3,0.42,-0.81,-0.19,14.3854,-2.136400000000002,47.7174,175,75
2026-05-09 15:07:03.326,4,-0.29,-1.87,1.85,-273.41839999999996,120.2278,-384.93120000000005,175,75
2026-05-09 15:07:03.326,2,2.49,-4.0,0.67,493.979,-113.2612,-300.8872,175,75
2026-05-09 15:07:03.336,5,0.44,-0.2,0.01,7.9614,204.7146,249.5508,175,75
2026-05-09 15:07:03.336,1,-1.55,2.15,1.61,-263.6432,-252.89159999999998,218.2226,175,75
2026-05-09 15:07:03.336,4,-0.32,-1.84,1.99,-264.1484,120.95779999999999,-405.1112,175,75
2026-05-09 15:07:03.336,3,0.18,-0.81,-0.5,-39.0946,-27.386400000000005,-30.932599999999997,175,75
2026-05-09 15:07:03.358,5,0.51,-0.64,0.34,21.0614,246.2046,249.5508,175,75
2026-05-09 15:07:03.358,1,-0.88,1.91,0.62,-209.6832,-402.40160000000003,134.2626,175,75
2026-05-09 15:07:03.358,2,2.36,-3.64,0.47,459.529,-194.1112,-298.0872,175,75
2026-05-09 15:07:03.358,1,-1.37,1.06,-1.69,-121.93320000000001,-147.71159999999998,155.17260000000002,175,75
2026-05-09 15:07:03.377,4,0.04,-1.2,2.34,-275.6784,140.0478,-424.62120000000004,175,75
2026-05-09 15:07:03.377,2,1.99,-3.07,0.15,440.269,-238.6212,-317.47720000000004,175,75
2026-05-09 15:07:03.377,5,1.22,-0.07,2.0,29.5814,164.0246,-97.5092,175,75
2026-05-09 15:07:03.377,3,0.27,-0.01,0.98,-108.1746,105.78359999999999,-101.6126,175,75
2026-05-09 15:07:03.387,2,1.5,-2.56,-0.23,453.24899999999997,-180.0912,-366.9272,175,75
2026-05-09 15:07:03.387,5,2.0,0.37,2.0,-38.3386,249.4646,-171.1392,175,75
2026-05-09 15:07:03.387,4,-0.02,-0.66,2.01,-261.03839999999997,159.4378,-404.26120000000003,175,75
2026-05-09 15:07:03.387,1,-0.03,-0.22,1.6,-137.9132,261.0684,111.5126,175,75
2026-05-09 15:07:03.387,5,0.13,0.06,2.0,-68.88860000000001,249.4646,-250.71919999999997,175,75
2026-05-09 15:07:03.398,4,-0.13,-0.49,1.82,-232.6284,161.0178,-399.75120000000004,175,75
2026-05-09 15:07:03.398,2,1.3,-2.23,-0.27,447.88899999999995,22.6588,-357.96720000000005,175,75
2026-05-09 15:07:03.398,1,0.18,-0.09,2.49,-134.2532,147.22840000000002,110.4826,175,75
2026-05-09 15:07:03.410,5,-0.7,-0.47,1.83,-21.6786,249.4646,-250.71919999999997,175,75
2026-05-09 15:07:03.410,3,-0.09,0.39,1.75,-212.6246,-19.0864,-186.2426,175,75
2026-05-09 15:07:03.410,1,0.06,-0.01,1.64,-138.58319999999998,-23.1316,100.4826,175,75
2026-05-09 15:07:03.423,5,-0.85,-0.38,1.13,5.8414,249.4646,-178.6392,175,75
2026-05-09 15:07:03.423,2,1.54,-1.79,-0.02,434.049,97.5288,-343.0872,175,75
2026-05-09 15:07:03.423,4,-0.47,-0.06,1.97,-199.33839999999998,130.4678,-385.7812,175,75
2026-05-09 15:07:03.423,3,0.12,0.41,1.73,-254.70459999999997,-85.97640000000001,-194.0426,175,75
2026-05-09 15:07:03.423,1,-0.07,0.27,0.91,-139.3132,-39.781600000000005,91.27260000000001,175,75
2026-05-09 15:07:03.423,4,-0.66,0.18,2.12,-188.1184,125.77780000000001,-375.6012,175,75
2026-05-09 15:07:03.423,5,-1.86,-0.09,1.16,19.3214,198.1346,-101.8692,175,75
2026-05-09 15:07:03.433,1,-0.12,0.51,0.46,-137.05319999999998,-61.061600000000006,92.9126,175,75
2026-05-09 15:07:03.433,2,1.62,-1.58,0.06,427.579,59.668800000000005,-338.8172,175,75
2026-05-09 15:07:03.433,3,-0.08,0.44,1.5,-284.9446,-108.72640000000001,-190.6326,175,75
2026-05-09 15:07:03.433,5,-2.0,0.18,1.34,2.6614,92.4446,-47.1392,175,75
2026-05-09 15:07:03.438,1,-0.05,0.36,0.11,-129.01319999999998,-65.3916,88.9526,175,75
2026-05-09 15:07:03.438,4,-0.72,0.47,2.32,-169.33839999999998,113.27780000000001,-362.9212,175,75
2026-05-09 15:07:03.452,5,-1.98,0.49,1.7,-45.4186,-43.575399999999995,55.3908,175,75
2026-05-09 15:07:03.452,3,-0.41,0.43,1.3,-323.8446,-101.10640000000001,-222.1526,175,75
2026-05-09 15:07:03.452,4,-0.69,0.65,2.39,-159.33839999999998,81.3878,-353.95120000000003,175,75
2026-05-09 15:07:03.462,4,-0.65,0.77,2.35,-155.0084,26.8078,-346.45120000000003,175,75
2026-05-09 15:07:03.462,2,1.2,-1.27,-0.16,386.969,-95.4512,-348.3872,175,75
2026-05-09 15:07:03.462,5,-0.88,0.02,1.59,-111.9886,-205.46540000000002,249.5508,175,75
2026-05-09 15:07:03.462,3,-0.42,0.31,1.24,-349.33459999999997,-79.69640000000001,-214.1726,175,75
2026-05-09 15:07:03.468,2,0.99,-1.24,-0.29,357.69899999999996,-86.7312,-360.34720000000004,175,75
2026-05-09 15:07:03.483,4,-0.84,0.89,2.07,-138.96839999999997,-65.62219999999999,-316.45120000000003,175,75
2026-05-09 15:07:03.483,2,0.83,-1.16,-0.34,329.469,-33.3212,-360.5272,175,75
2026-05-09 15:07:03.483,5,-0.35,-0.61,1.38,-96.29860000000001,-250.8054,249.5508,175,75
2026-05-09 15:07:03.483,1,-0.12,-0.02,0.83,-88.03320000000001,13.8784,67.85260000000001,175,75
2026-05-09 15:07:03.495,4,-1.08,0.9,1.93,-128.1784,-101.4822,-293.4012,175,75
2026-05-09 15:07:03.495,2,0.72,-1.04,-0.39,308.61899999999997,44.428799999999995,-352.65720000000005,175,75
2026-05-09 15:07:03.495,5,-1.37,-0.75,1.63,-85.0686,-250.8054,249.5508,175,75
2026-05-09 15:07:03.495,3,-0.64,0.02,2.01,-365.7346,-35.6164,-230.6926,175,75
2026-05-09 15:07:03.504,5,-0.57,-0.95,1.2,-96.43860000000001,-250.8054,249.5508,175,75
2026-05-09 15:07:03.516,3,-0.64,-0.16,2.21,-377.8746,-40.5564,-230.9326,175,75
2026-05-09 15:07:03.516,5,-0.08,-1.1,0.83,-72.7686,-250.8054,249.5508,175,75
2026-05-09 15:07:03.516,4,-1.38,0.94,1.78,-127.1984,-102.3922,-253.22119999999998,175,75
2026-05-09 15:07:03.516,3,-0.81,-0.35,2.53,-364.8246,-60.55640000000001,-232.4026,175,75
2026-05-09 15:07:03.516,1,-0.1,0.04,0.51,-56.083200000000005,67.77839999999999,59.562599999999996,175,75
2026-05-09 15:07:03.529,5,-0.05,-1.14,0.55,-36.6086,-250.8054,249.5508,175,75
2026-05-09 15:07:03.529,4,-1.4,0.98,1.71,-131.46839999999997,-80.9922,-229.0112,175,75
2026-05-09 15:07:03.529,5,-0.04,-1.01,0.35,-6.6286000000000005,-250.8054,175.2108,175,75
2026-05-09 15:07:03.541,2,0.45,-0.6,0.08,294.229,254.17880000000002,-275.21720000000005,175,75
2026-05-09 15:07:03.541,3,-0.79,-0.61,2.49,-385.1246,-128.60639999999998,-207.2826,175,75
2026-05-09 15:07:03.541,5,0.28,-0.79,0.24,7.8514,-250.8054,70.3908,175,75
2026-05-09 15:07:03.553,4,-1.41,1.06,1.72,-136.34840000000003,-83.12219999999999,-174.38119999999998,175,75
2026-05-09 15:07:03.553,2,0.23,-0.55,0.27,294.049,286.1288,-248.51719999999997,175,75
2026-05-09 15:07:03.553,1,0.14,-0.29,0.89,-65.9032,80.4584,54.562599999999996,175,75
2026-05-09 15:07:03.553,5,0.69,-0.57,0.15,14.051400000000001,-183.2654,-48.1092,175,75
2026-05-09 15:07:03.566,4,-1.63,1.09,1.77,-127.25840000000001,-90.87219999999999,-131.1512,175,75
2026-05-09 15:07:03.566,5,0.71,-0.46,0.14,15.0414,-61.3154,-142.05919999999998,175,75
2026-05-09 15:07:03.566,2,0.13,-0.4,0.32,316.789,292.7788,-197.53719999999998,175,75
2026-05-09 15:07:03.580,5,0.7,-0.45,0.24,20.8114,30.0246,-172.6592,175,75
2026-05-09 15:07:03.580,1,0.09,-0.29,0.96,-70.2932,70.52839999999999,65.54260000000001,175,75
2026-05-09 15:07:03.580,5,0.69,-0.45,0.36,36.8014,113.3146,-166.67919999999998,175,75
2026-05-09 15:07:03.580,2,0.61,-0.71,0.1,285.68899999999996,120.39880000000001,-148.0272,175,75
2026-05-09 15:07:03.589,4,-1.79,0.83,1.89,-54.028400000000005,-132.0322,4.158799999999998,175,75
2026-05-09 15:07:03.589,5,0.59,-0.38,0.45,53.2914,189.22459999999998,-151.95919999999998,175,75
2026-05-09 15:07:03.593,2,0.3,-0.8,0.33,209.34900000000002,2.1088000000000005,-85.28720000000001,175,75
2026-05-09 15:07:03.606,1,0.3,-0.25,0.78,-50.833200000000005,111.1384,82.0026,175,75
2026-05-09 15:07:03.606,3,-1.04,-0.01,2.09,-187.6246,-97.2564,-114.5326,175,75
2026-05-09 15:07:03.620,5,0.06,-0.11,0.74,54.7014,201.53459999999998,-104.6492,175,75
2026-05-09 15:07:03.620,4,-2.8,0.77,2.32,27.6216,-154.2222,138.7888,175,75
2026-05-09 15:07:03.620,3,-1.37,0.45,2.06,-95.61460000000001,-11.656400000000001,-126.73259999999999,175,75
2026-05-09 15:07:03.631,1,0.56,-0.28,0.55,-43.64319999999999,135.6484,75.1726,175,75
2026-05-09 15:07:03.631,2,-1.5,-0.43,0.34,150.93900000000002,375.5788,-60.037200000000006,175,75
2026-05-09 15:07:03.631,5,0.28,0.17,1.13,49.2814,66.60459999999999,-26.0592,175,75
2026-05-09 15:07:03.631,4,-2.97,0.86,2.57,74.8116,-23.252200000000002,215.0088,175,75
2026-05-09 15:07:03.631,1,0.62,-0.25,0.36,-43.703199999999995,146.9884,66.21260000000001,175,75
2026-05-09 15:07:03.635,3,-0.9,1.07,2.54,-1.9546000000000001,108.7136,-100.3926,175,75
2026-05-09 15:07:03.646,5,0.14,0.4,1.19,44.181400000000004,45.3346,-32.2692,175,75
2026-05-09 15:07:03.646,4,-1.73,0.46,2.69,94.2016,-59.4722,295.0088,175,75
2026-05-09 15:07:03.646,1,0.78,-0.24,0.22,-54.863200000000006,145.5284,50.0526,175,75
2026-05-09 15:07:03.646,5,-0.12,0.27,1.04,44.1714,61.284600000000005,-90.3192,175,75
2026-05-09 15:07:03.646,2,0.19,-1.08,0.03,68.249,368.8788,59.7128,175,75
2026-05-09 15:07:03.660,4,-0.88,-0.12,2.91,106.7016,-217.5822,319.3988,175,75
2026-05-09 15:07:03.660,1,0.9,-0.3,0.3,-82.1832,135.3384,33.282599999999995,175,75
2026-05-09 15:07:03.660,2,0.79,-1.21,-0.19,-27.540999999999997,191.18880000000001,228.1328,175,75
2026-05-09 15:07:03.660,5,-0.36,0.27,0.92,60.0914,58.8646,-156.9392,175,75
2026-05-09 15:07:03.660,4,-1.09,-0.52,2.71,126.2116,-431.2322,387.2088,175,75
2026-05-09 15:07:03.660,1,1.07,-0.39,0.57,-109.0732,116.9284,24.4426,175,75
2026-05-09 15:07:03.671,3,-1.24,1.08,2.57,192.18540000000002,58.953599999999994,112.04740000000001,175,75
2026-05-09 15:07:03.671,5,-0.36,0.41,1.01,59.7414,53.464600000000004,-207.2292,175,75
2026-05-09 15:07:03.671,4,-1.36,-0.94,2.22,162.6816,-635.2022,441.5388,175,75
2026-05-09 15:07:03.671,2,0.61,-1.4,-0.1,-125.771,39.0588,383.7428,175,75
2026-05-09 15:07:03.686,5,-0.28,0.55,1.11,43.6514,42.9446,-225.26919999999998,175,75
2026-05-09 15:07:03.686,3,-0.89,0.22,1.12,200.05540000000002,-16.286400000000004,162.5974,175,75
2026-05-09 15:07:03.686,4,-1.59,-1.28,1.7,212.4316,-659.7121999999999,460.37879999999996,175,75
2026-05-09 15:07:03.686,3,1.15,-2.2,-2.04,40.115399999999994,-275.1864,209.97740000000002,175,75
2026-05-09 15:07:03.686,5,0.1,0.71,1.27,16.4114,-16.0854,-138.30919999999998,175,75
2026-05-09 15:07:03.699,1,1.14,-0.44,0.88,-147.05319999999998,2.2283999999999997,17.1826,175,75
2026-05-09 15:07:03.699,2,-0.81,-1.91,-0.52,-249.55100000000002,133.0788,487.8228,175,75
2026-05-09 15:07:03.699,5,0.13,0.54,1.12,6.4814,-81.5854,-20.0892,175,75
2026-05-09 15:07:03.699,4,-2.18,-1.39,0.78,335.0516,-208.8022,570.7988,175,75
2026-05-09 15:07:03.699,1,0.85,-0.55,0.86,-154.92319999999998,-48.381600000000006,12.9126,175,75
2026-05-09 15:07:03.699,5,-0.03,0.47,0.85,26.0514,-132.3554,83.3508,175,75
2026-05-09 15:07:03.699,1,0.39,-0.58,1.14,-144.7432,-60.571600000000004,15.112599999999999,175,75
2026-05-09 15:07:03.711,4,-1.73,-1.58,0.91,367.3716,-13.922200000000004,607.8788000000001,175,75
2026-05-09 15:07:03.711,2,0.11,-3.6,-1.11,-355.891,133.74880000000002,463.8628,175,75
2026-05-09 15:07:03.723,5,0.03,0.4,0.81,48.2214,-162.5854,168.57080000000002,175,75
2026-05-09 15:07:03.723,1,0.01,-0.51,1.01,-152.36319999999998,-111.6716,16.022599999999997,175,75
2026-05-09 15:07:03.723,4,-1.33,-1.89,1.57,402.9816,-24.4122,671.1688,175,75
2026-05-09 15:07:03.723,2,0.51,-4.06,-1.13,-423.88100000000003,36.1888,533.7428,175,75
2026-05-09 15:07:03.723,5,0.26,0.29,0.76,58.6714,-169.4154,244.5908,175,75
2026-05-09 15:07:03.735,3,2.56,-1.41,4.98,408.04540000000003,276.8836,-111.0026,175,75
2026-05-09 15:07:03.735,1,-0.52,-0.59,0.72,-171.57319999999999,-122.0416,16.0826,175,75
2026-05-09 15:07:03.735,3,2.56,0.78,3.59,160.42540000000002,-252.32639999999998,248.9374,175,75
2026-05-09 15:07:03.735,5,0.49,0.1,0.72,62.3614,-157.18540000000002,249.5508,175,75
2026-05-09 15:07:03.735,2,0.34,-4.27,-1.17,-456.321,54.428799999999995,682.9528,175,75
2026-05-09 15:07:03.741,1,-0.62,-0.43,0.74,-175.4732,-72.22160000000001,22.982599999999998,175,75
2026-05-09 15:07:03.747,5,0.4,0.18,0.72,58.8314,-163.0654,249.5508,175,75
2026-05-09 15:07:03.747,2,0.08,-4.49,-1.33,-465.531,133.8188,759.4128,175,75
2026-05-09 15:07:03.754,4,-2.07,-3.12,2.49,445.7316,-84.5922,918.2388000000001,175,75
2026-05-09 15:07:03.754,1,-0.56,-0.06,0.81,-164.6232,-56.061600000000006,27.7926,175,75
2026-05-09 15:07:03.765,5,1.16,-0.1,0.62,42.5614,-164.2954,249.5508,175,75
2026-05-09 15:07:03.765,2,0.25,-5.19,-1.51,-490.041,180.33880000000002,768.9227999999999,175,75
2026-05-09 15:07:03.765,4,-1.82,-4.68,2.94,397.2516,-77.2722,932.3288,175,75
2026-05-09 15:07:03.781,2,0.41,-6.39,-1.28,-478.581,159.6688,701.3628,175,75
2026-05-09 15:07:03.781,1,-1.83,1.04,-0.75,-194.4932,-160.45159999999998,107.9126,175,75
2026-05-09 15:07:03.781,5,-0.55,-1.45,2.0,-9.3886,-250.8054,249.5508,175,75
2026-05-09 15:07:03.781,4,-2.28,-6.28,3.06,324.2616,-140.62220000000002,900.3188,175,75
2026-05-09 15:07:03.791,4,-2.41,-6.7,2.88,261.1516,-107.5122,876.5988,175,75
2026-05-09 15:07:03.791,2,0.75,-7.04,-0.79,-422.971,118.6888,658.9227999999999,175,75
2026-05-09 15:07:03.791,1,-2.35,0.22,-2.63,-209.07319999999999,18.5084,135.8426,175,75
2026-05-09 15:07:03.791,5,1.66,-2.0,1.21,1.6614,-250.8054,249.5508,175,75
2026-05-09 15:07:03.791,2,1.48,-8.21,-0.67,-385.771,24.668799999999997,623.0128,175,75
2026-05-09 15:07:03.793,5,1.33,-2.0,0.98,53.4814,-82.2754,186.4208,175,75
2026-05-09 15:07:03.805,1,-1.59,-0.2,-1.37,-180.5932,310.4684,115.2326,175,75
2026-05-09 15:07:03.805,2,1.7,-8.27,-0.2,-402.721,-63.141200000000005,594.5328,175,75
2026-05-09 15:07:03.805,4,-1.62,-7.14,2.12,236.46159999999998,-228.1222,782.9988000000001,175,75
2026-05-09 15:07:03.805,5,0.28,-1.15,0.98,50.1914,36.214600000000004,63.330799999999996,175,75
2026-05-09 15:07:03.805,1,-0.67,0.15,0.24,-145.04319999999998,299.72839999999997,123.52260000000001,175,75
2026-05-09 15:07:03.819,2,1.93,-7.91,-0.26,-479.06100000000004,-77.5312,573.9828,175,75
2026-05-09 15:07:03.819,4,-1.8,-7.26,2.02,287.2516,-292.3922,803.6088000000001,175,75
2026-05-09 15:07:03.819,5,-0.22,-0.82,0.99,34.7914,117.3346,-87.1392,175,75
2026-05-09 15:07:03.819,3,-0.77,0.34,1.65,105.7854,-5.796400000000002,120.40740000000001,175,75
2026-05-09 15:07:03.819,1,-0.27,0.4,0.48,-141.20319999999998,263.9984,90.7226,175,75
2026-05-09 15:07:03.819,4,-2.0,-7.39,1.97,322.0116,-307.7622,787.8188,175,75
2026-05-09 15:07:03.831,2,2.17,-7.42,-1.13,-502.541,-88.6212,556.5427999999999,175,75
2026-05-09 15:07:03.831,5,-0.26,-0.85,1.36,23.4814,166.8746,-236.7592,175,75
2026-05-09 15:07:03.831,3,-0.96,-0.05,1.57,94.3254,-4.336400000000001,110.5274,175,75
2026-05-09 15:07:03.841,2,2.05,-7.12,-1.58,-445.831,-59.9012,547.4028,175,75
2026-05-09 15:07:03.841,1,-0.12,0.79,0.44,-139.2532,207.7784,89.5026,175,75
2026-05-09 15:07:03.841,5,-0.1,-0.84,1.84,2.7614,137.8046,-250.71919999999997,175,75
2026-05-09 15:07:03.841,4,-2.28,-7.56,1.93,328.65160000000003,-318.3722,704.8288,175,75
2026-05-09 15:07:03.841,1,0.02,0.81,0.3,-126.87320000000001,175.03840000000002,82.6726,175,75
2026-05-09 15:07:03.841,4,-2.38,-7.24,1.85,314.5716,-278.73220000000003,620.3788000000001,175,75
2026-05-09 15:07:03.847,5,0.58,-0.52,1.91,-5.0886,123.7046,-250.71919999999997,175,75
2026-05-09 15:07:03.847,2,2.08,-6.81,-1.57,-351.261,61.1888,541.9128,175,75
2026-05-09 15:07:03.847,3,-0.53,-0.16,1.9,95.66539999999999,-9.456400000000002,48.0874,175,75
2026-05-09 15:07:03.862,5,1.74,0.07,2.0,-1.0086000000000002,64.1746,-250.71919999999997,175,75
2026-05-09 15:07:03.862,4,-2.28,-6.09,1.69,270.9716,-307.5822,487.93879999999996,175,75
2026-05-09 15:07:03.862,2,2.2,-6.41,-1.13,-332.171,156.7988,522.8228,175,75
2026-05-09 15:07:03.862,1,-0.24,1.1,-0.18,-122.7932,110.8884,68.04260000000001,175,75
2026-05-09 15:07:03.862,2,2.22,-5.84,-0.65,-340.531,202.3488,477.70279999999997,175,75
2026-05-09 15:07:03.862,5,1.86,0.68,2.0,-1.3886,-5.3254,-186.48919999999998,175,75
2026-05-09 15:07:03.871,4,-1.9,-4.98,1.36,205.60160000000002,-266.4222,376.1088,175,75
2026-05-09 15:07:03.872,2,2.19,-5.11,-0.18,-340.041,214.96880000000002,420.08279999999996,175,75
2026-05-09 15:07:03.884,4,-1.28,-4.34,1.17,164.5716,-271.05219999999997,290.18879999999996,175,75
2026-05-09 15:07:03.884,1,-0.64,1.27,-0.5,-122.12320000000001,82.41839999999999,52.4326,175,75
2026-05-09 15:07:03.884,5,0.96,0.29,1.64,-8.1086,88.8746,-81.8492,175,75
2026-05-09 15:07:03.884,2,2.23,-4.37,0.26,-321.44100000000003,207.6588,355.08279999999996,175,75
2026-05-09 15:07:03.884,3,-0.82,0.01,1.31,37.9854,-50.6764,20.217399999999998,175,75
2026-05-09 15:07:03.884,1,-0.58,1.3,-0.26,-115.83319999999999,100.4584,43.0426,175,75
2026-05-09 15:07:03.901,5,0.86,0.06,1.5,-7.2585999999999995,89.8346,3.4008,175,75
2026-05-09 15:07:03.901,3,-0.69,-0.11,1.38,31.7054,-34.156400000000005,10.7674,175,75
2026-05-09 15:07:03.901,2,2.46,-3.72,0.5,-313.94100000000003,191.0688,301.6128,175,75
2026-05-09 15:07:03.901,5,0.68,-0.2,1.32,6.1614,88.4746,89.0508,175,75
2026-05-09 15:07:03.913,4,-0.61,-3.52,0.88,160.66160000000002,-269.0422,220.7988,175,75
2026-05-09 15:07:03.913,4,-0.51,-3.15,0.78,182.8616,-265.81219999999996,173.96880000000002,175,75
2026-05-09 15:07:03.913,5,0.43,-0.22,1.35,32.3514,77.71459999999999,151.7708,175,75
2026-05-09 15:07:03.913,2,2.6,-3.26,0.48,-325.891,149.6688,263.3128,175,75
2026-05-09 15:07:03.913,1,-0.37,1.1,0.53,-103.4032,68.1484,16.3326,175,75
2026-05-09 15:07:03.924,4,-0.3,-2.73,0.84,224.3816,-286.7822,108.2988,175,75
2026-05-09 15:07:03.924,2,2.04,-2.78,0.46,-324.12100000000004,146.67880000000002,230.5728,175,75
2026-05-09 15:07:03.935,3,-0.72,-1.3,1.18,-7.564600000000001,-50.61640000000001,11.6874,175,75
2026-05-09 15:07:03.935,5,0.16,-0.85,1.3,4.1014,-56.105399999999996,-32.4792,175,75
2026-05-09 15:07:03.935,4,-0.14,-2.29,0.97,261.8216,-342.8822,38.6088,175,75
2026-05-09 15:07:03.946,2,1.59,-2.33,0.52,-288.091,248.74880000000002,179.8428,175,75
2026-05-09 15:07:03.946,3,-0.38,-2.27,1.12,-9.4546,-54.7564,4.8574,175,75
2026-05-09 15:07:03.946,5,0.36,-0.87,1.04,22.0914,-52.715399999999995,-65.3692,175,75
2026-05-09 15:07:03.961,4,0.2,-1.72,1.2,289.6916,-434.9522,-17.921200000000002,175,75
2026-05-09 15:07:03.962,2,1.65,-1.98,0.83,-244.611,368.8188,140.4528,175,75
2026-05-09 15:07:03.962,1,0.11,1.25,0.97,-64.1932,0.33840000000000003,-4.587400000000001,175,75
2026-05-09 15:07:03.973,4,0.89,-0.31,1.5,211.70159999999998,-576.6022,147.14880000000002,175,75
2026-05-09 15:07:03.973,5,0.58,-0.17,0.84,50.6414,-26.8154,-139.23919999999998,175,75
2026-05-09 15:07:03.973,3,0.06,-1.87,0.53,20.5454,-95.6764,-18.9226,175,75
2026-05-09 15:07:03.973,2,2.0,-1.6,1.37,-200.101,464.4888,127.15280000000001,175,75
2026-05-09 15:07:03.973,1,0.21,1.24,1.04,-56.6332,2.8984000000000005,-10.987400000000001,175,75
2026-05-09 15:07:03.973,4,-0.22,0.08,0.49,190.97160000000002,-560.2622,135.9288,175,75
2026-05-09 15:07:03.985,5,0.82,0.22,0.83,41.4814,-13.9554,-186.6692,175,75
2026-05-09 15:07:03.985,2,2.46,-1.47,1.62,-168.581,391.0688,121.3628,175,75
2026-05-09 15:07:03.985,1,0.35,1.23,1.16,-46.693200000000004,5.4684,-23.8474,175,75
2026-05-09 15:07:03.986,4,-0.3,-0.13,-0.16,219.02159999999998,-472.3922,34.3388,175,75
2026-05-09 15:07:03.996,2,1.79,-1.13,2.04,-168.15099999999998,307.22880000000004,107.40280000000001,175,75
2026-05-09 15:07:03.996,1,0.44,1.23,1.3,-39.193200000000004,2.9684,-38.1174,175,75
2026-05-09 15:07:03.996,4,0.02,-0.1,-0.41,229.2616,-348.4922,67.6888,175,75
2026-05-09 15:07:03.996,5,0.97,0.89,1.01,-1.9986,0.7745999999999998,-235.9492,175,75
2026-05-09 15:07:03.996,3,0.82,-1.08,-0.05,22.4954,-86.2864,36.017399999999995,175,75
2026-05-09 15:07:03.996,2,1.41,-0.79,2.46,-162.721,332.59880000000004,63.7428,175,75
2026-05-09 15:07:04.007,5,0.61,0.73,0.88,-30.0286,12.0346,-250.71919999999997,175,75
2026-05-09 15:07:04.007,4,-0.1,0.18,-0.48,224.3216,-225.3222,105.6788,175,75
2026-05-09 15:07:04.007,2,1.4,-0.49,2.68,-139.12099999999998,348.3888,-47.907199999999996,175,75
2026-05-09 15:07:04.007,1,0.64,1.34,1.58,-24.253199999999996,-14.721599999999999,-65.4374,175,75
2026-05-09 15:07:04.010,5,0.53,0.88,0.76,-57.6186,18.604599999999998,-250.71919999999997,175,75
2026-05-09 15:07:04.022,2,1.43,-0.62,2.74,-131.321,272.8988,-115.5872,175,75
2026-05-09 15:07:04.022,4,0.04,0.35,-0.25,202.6816,-146.9722,100.4388,175,75
2026-05-09 15:07:04.022,3,0.39,-0.72,0.14,47.7354,-34.516400000000004,64.8574,175,75
2026-05-09 15:07:04.022,5,0.65,0.72,0.53,-67.0386,10.3646,-246.9392,175,75
2026-05-09 15:07:04.032,1,0.69,1.4,1.61,-20.353199999999998,-30.2716,-73.6674,175,75
2026-05-09 15:07:04.032,4,0.2,0.48,-0.09,172.0116,-151.8422,88.60879999999999,175,75
2026-05-09 15:07:04.032,5,0.51,0.63,0.43,-54.3586,-15.0754,-175.49919999999997,175,75
2026-05-09 15:07:04.032,1,0.69,1.47,1.55,-15.043199999999999,-40.821600000000004,-83.8474,175,75
2026-05-09 15:07:04.032,2,1.37,-0.4,2.58,-206.691,57.778800000000004,37.4028,175,75
2026-05-09 15:07:04.043,4,0.15,0.49,-0.12,150.1816,-202.3922,54.5788,175,75
2026-05-09 15:07:04.043,5,0.27,0.53,0.44,-49.2386,-5.6654,-149.7592,175,75
2026-05-09 15:07:04.043,1,0.67,1.53,1.49,-10.293199999999999,-42.2216,-91.7174,175,75
2026-05-09 15:07:04.043,3,-0.99,1.5,1.3,70.5454,58.953599999999994,69.7374,175,75
2026-05-09 15:07:04.053,4,0.02,0.5,-0.28,124.6916,-225.9322,22.078799999999998,175,75
2026-05-09 15:07:04.053,5,0.14,0.41,0.47,-50.0986,17.604599999999998,-135.46919999999997,175,75
2026-05-09 15:07:04.053,3,0.23,0.73,1.22,24.1454,6.763599999999997,58.45740000000001,175,75
2026-05-09 15:07:04.066,1,0.65,1.6,1.5,-4.8032,-35.2716,-99.0974,175,75
2026-05-09 15:07:04.066,5,-0.03,0.2,0.34,-50.6986,34.7046,-110.3292,175,75
2026-05-09 15:07:04.066,2,1.25,-0.35,2.23,-144.731,-62.891200000000005,62.7028,175,75
2026-05-09 15:07:04.066,4,-0.13,0.55,-0.54,89.9916,-187.0922,6.898799999999998,175,75
2026-05-09 15:07:04.076,1,0.64,1.66,1.55,-1.3231999999999982,-39.2916,-106.53739999999999,175,75
2026-05-09 15:07:04.076,5,-0.14,0.12,0.26,-42.0286,41.674600000000005,-79.3592,175,75
2026-05-09 15:07:04.076,4,-0.22,0.64,-0.67,71.8216,-124.8922,10.4988,175,75
2026-05-09 15:07:04.076,2,1.02,-0.48,2.19,-113.70100000000001,-0.09120000000000061,59.4728,175,75
2026-05-09 15:07:04.076,1,0.57,1.7,1.56,1.1168000000000013,-47.5216,-116.0474,175,75
2026-05-09 15:07:04.088,3,0.46,1.31,0.26,-73.66460000000001,13.413599999999997,-3.7425999999999995,175,75
2026-05-09 15:07:04.088,5,-0.23,-0.04,0.19,-33.6586,43.464600000000004,-56.5992,175,75
2026-05-09 15:07:04.088,4,-0.26,0.76,-0.66,59.3816,-49.2222,22.2688,175,75
2026-05-09 15:07:04.088,2,0.87,-0.49,2.22,-94.491,77.3488,26.672800000000002,175,75
2026-05-09 15:07:04.088,5,-0.33,-0.07,0.11,-21.0986,36.0446,-19.6292,175,75
2026-05-09 15:07:04.101,4,-0.24,0.87,-0.43,49.1416,30.287800000000004,44.648799999999994,175,75
2026-05-09 15:07:04.101,2,0.91,-0.43,2.26,-74.311,116.3188,-12.357199999999999,175,75
2026-05-09 15:07:04.108,1,0.6,1.47,1.43,9.286800000000001,-62.5216,-139.0374,175,75
2026-05-09 15:07:04.108,4,-0.14,0.82,-0.15,35.0516,46.687799999999996,54.5188,175,75
2026-05-09 15:07:04.108,3,0.7,1.52,-0.26,-223.2946,-29.6964,-76.2426,175,75
2026-05-09 15:07:04.123,2,0.95,-0.31,2.21,-44.981,145.5188,-26.9272,175,75
2026-05-09 15:07:04.123,5,-0.44,-0.11,-0.04,10.5014,-14.9354,59.5008,175,75
2026-05-09 15:07:04.123,1,0.66,1.36,1.4,14.526800000000001,-56.061600000000006,-149.3374,175,75
2026-05-09 15:07:04.123,3,0.56,0.62,0.57,-238.72459999999998,-44.0864,-124.6526,175,75
2026-05-09 15:07:04.123,5,-0.34,-0.09,-0.03,27.4914,-48.355399999999996,108.8208,175,75
2026-05-09 15:07:04.136,2,1.0,-0.13,2.11,-19.981,160.5788,6.1228,175,75
2026-05-09 15:07:04.136,4,-0.06,0.73,0.07,18.8416,18.0278,52.0188,175,75
2026-05-09 15:07:04.136,5,-0.11,0.0,0.08,34.7714,-58.965399999999995,152.41080000000002,175,75
2026-05-09 15:07:04.136,3,0.56,0.43,0.72,-255.3746,-93.9064,-141.8526,175,75
2026-05-09 15:07:04.136,4,-0.0,0.69,0.2,1.8216000000000037,-34.0422,42.758799999999994,175,75
2026-05-09 15:07:04.136,2,0.93,-0.05,2.09,-0.10099999999999998,162.52880000000002,33.8628,175,75
2026-05-09 15:07:04.136,4,0.0,0.69,0.26,-13.178399999999996,-80.1422,31.168799999999997,175,75
2026-05-09 15:07:04.142,5,0.08,0.05,0.14,36.3614,-45.6254,187.3708,175,75
2026-05-09 15:07:04.142,3,0.34,0.1,0.82,-270.4946,-113.17640000000002,-117.09259999999999,175,75
2026-05-09 15:07:04.153,2,0.93,-0.19,2.17,16.419,164.9088,39.7128,175,75
2026-05-09 15:07:04.153,1,0.81,1.04,1.59,42.8768,-32.2216,-172.5074,175,75
2026-05-09 15:07:04.153,4,-0.04,0.71,0.21,-30.618399999999994,-118.2522,20.1288,175,75
2026-05-09 15:07:04.153,5,0.31,0.1,0.13,35.7014,-14.5654,209.3708,175,75
2026-05-09 15:07:04.153,2,0.94,-0.36,2.23,27.519,164.2988,38.9828,175,75
2026-05-09 15:07:04.153,4,-0.09,0.78,0.11,-42.9884,-134.5322,14.708799999999998,175,75
2026-05-09 15:07:04.167,5,0.65,0.22,0.1,37.2814,13.7746,245.00080000000003,175,75
2026-05-09 15:07:04.167,3,-0.22,-0.05,2.02,-241.22459999999998,-132.6264,-104.4726,175,75
2026-05-09 15:07:04.167,2,0.97,-0.5,2.26,44.349000000000004,152.1088,33.8628,175,75
2026-05-09 15:07:04.167,1,0.71,0.84,1.54,62.026799999999994,-43.321600000000004,-181.2874,175,75
2026-05-09 15:07:04.167,4,-0.13,0.88,0.03,-51.3484,-133.06220000000002,17.0188,175,75
2026-05-09 15:07:04.167,5,0.69,0.34,0.14,40.9914,30.1846,249.5508,175,75
2026-05-09 15:07:04.175,3,-0.31,0.28,2.68,-214.0246,-138.1164,-86.3626,175,75
2026-05-09 15:07:04.175,2,0.94,-0.53,2.25,66.419,119.60879999999999,22.2128,175,75
2026-05-09 15:07:04.186,5,0.71,0.32,0.07,47.5414,37.6846,249.5508,175,75
2026-05-09 15:07:04.186,4,-0.27,1.01,0.04,-61.3484,-103.8022,32.568799999999996,175,75
2026-05-09 15:07:04.186,3,-0.43,0.53,2.64,-205.6746,-176.5264,-77.0326,175,75
2026-05-09 15:07:04.186,1,0.61,0.61,1.48,93.3068,-37.3416,-193.8474,175,75
2026-05-09 15:07:04.186,2,1.05,-0.5,2.17,83.919,68.7488,9.902800000000001,175,75
2026-05-09 15:07:04.186,4,-0.31,1.04,0.15,-68.5384,-69.2222,48.3588,175,75
2026-05-09 15:07:04.191,5,0.57,0.25,0.02,57.6914,40.7746,249.5508,175,75
2026-05-09 15:07:04.191,3,-0.25,1.05,2.54,-156.8346,-221.7164,-56.73259999999999,175,75
2026-05-09 15:07:04.203,1,0.56,0.54,1.45,109.5268,-36.241600000000005,-194.4574,175,75
2026-05-09 15:07:04.203,2,1.24,-0.4,1.99,92.949,23.6888,20.0228,175,75
2026-05-09 15:07:04.203,4,-0.22,0.95,0.25,-79.5184,-50.5022,58.178799999999995,175,75
2026-05-09 15:07:04.203,3,-0.11,1.14,1.64,-130.2446,-211.7764,-32.2226,175,75
2026-05-09 15:07:04.215,2,1.21,-0.27,1.79,100.62899999999999,2.2888,37.2128,175,75
2026-05-09 15:07:04.215,1,0.47,0.38,1.44,121.1768,-53.8616,-191.7174,175,75
2026-05-09 15:07:04.215,5,0.19,0.04,-0.02,69.0914,33.7346,237.82080000000002,175,75
2026-05-09 15:07:04.215,4,0.2,0.72,0.22,-92.74839999999999,-64.0422,37.4488,175,75
2026-05-09 15:07:04.221,3,-0.14,1.23,1.34,-79.1546,-100.61640000000001,-33.5026,175,75
2026-05-09 15:07:04.221,5,-0.07,-0.1,-0.11,62.2214,26.8446,181.0808,175,75
2026-05-09 15:07:04.221,1,0.35,0.21,1.47,130.5068,-62.711600000000004,-191.4174,175,75
2026-05-09 15:07:04.234,4,0.54,0.74,0.28,-113.90839999999999,-81.7822,21.168799999999997,175,75
2026-05-09 15:07:04.234,2,0.48,-0.12,1.53,125.939,11.8588,32.5828,175,75
2026-05-09 15:07:04.234,5,-0.23,-0.15,-0.13,52.6914,14.0646,130.47080000000003,175,75
2026-05-09 15:07:04.234,1,0.33,-0.01,1.53,143.85680000000002,-60.0816,-191.9574,175,75
2026-05-09 15:07:04.238,2,2.81,-0.56,1.86,135.93900000000002,-56.9812,4.962800000000001,175,75
2026-05-09 15:07:04.249,5,-0.27,-0.28,-0.14,49.4814,-2.1954000000000002,78.2908,175,75
2026-05-09 15:07:04.249,1,0.4,-0.25,1.65,159.5868,-63.2516,-195.3774,175,75
2026-05-09 15:07:04.249,5,-0.12,-0.17,-0.1,50.0014,-11.2354,23.9908,175,75
2026-05-09 15:07:04.268,4,0.19,0.6,0.46,-121.6484,-92.8822,31.468799999999998,175,75
2026-05-09 15:07:04.268,2,1.26,-0.72,2.03,114.40899999999999,-14.9012,66.9728,175,75
2026-05-09 15:07:04.268,1,0.38,-0.34,1.7,172.51680000000002,-72.5216,-192.6974,175,75
2026-05-09 15:07:04.272,4,0.03,0.41,0.45,-129.9484,-92.7622,25.068799999999996,175,75
2026-05-09 15:07:04.272,5,0.18,-0.05,0.07,38.3814,-10.3454,-35.5692,175,75
2026-05-09 15:07:04.296,1,0.26,-0.52,1.7,192.63680000000002,-99.8416,-190.4974,175,75
2026-05-09 15:07:04.296,5,0.6,-0.07,0.18,17.8614,-9.3854,-66.0692,175,75
2026-05-09 15:07:04.296,2,1.85,-0.62,1.4,145.68900000000002,-47.5912,0.5728000000000009,175,75
2026-05-09 15:07:04.296,4,-0.82,0.27,0.5,-151.15839999999997,-100.2622,41.4088,175,75
2026-05-09 15:07:04.296,1,0.04,-0.86,1.73,218.2468,-151.61159999999998,-207.32739999999998,175,75
2026-05-09 15:07:04.305,4,1.54,-0.4,-0.26,-124.5184,49.067800000000005,-24.4412,175,75
2026-05-09 15:07:04.318,5,1.44,-0.02,0.5,-28.1186,-30.9054,-13.5292,175,75
2026-05-09 15:07:04.318,2,1.64,-0.79,1.3,161.78900000000002,-49.4212,-40.3472,175,75
2026-05-09 15:07:04.318,1,-0.21,-1.43,1.64,249.2868,-185.33159999999998,-217.5674,175,75
2026-05-09 15:07:04.318,2,1.78,-0.74,1.06,182.519,47.8388,32.8228,175,75
2026-05-09 15:07:04.318,4,1.71,-0.83,0.35,-166.28840000000002,-25.8722,81.7188,175,75
2026-05-09 15:07:04.328,1,-0.48,-2.35,1.58,273.7368,-231.0016,-229.2174,175,75
2026-05-09 15:07:04.328,3,-2.52,-0.42,-0.32,131.4554,373.35360000000003,155.6474,175,75
2026-05-09 15:07:04.328,2,2.18,-0.96,0.93,225.999,79.2388,66.6128,175,75
2026-05-09 15:07:04.328,5,1.68,-0.12,0.83,-28.6686,-18.035400000000003,19.3608,175,75
2026-05-09 15:07:04.328,1,-0.7,-2.48,1.21,259.6468,-251.30159999999998,-271.2274,175,75
2026-05-09 15:07:04.328,4,1.03,-1.1,0.52,-190.97840000000002,-127.6422,45.61879999999999,175,75
2026-05-09 15:07:04.332,5,2.0,0.22,1.47,-29.0586,16.374599999999997,54.7308,175,75
2026-05-09 15:07:04.344,2,2.64,-1.61,1.13,268.739,39.8488,68.1928,175,75
2026-05-09 15:07:04.344,4,1.12,-1.2,0.73,-229.8784,-90.9922,3.548799999999998,175,75
2026-05-09 15:07:04.344,5,2.0,0.53,2.0,-48.6886,10.9246,127.6408,175,75
2026-05-09 15:07:04.357,3,0.91,-2.39,2.33,136.33540000000002,78.28359999999999,26.7474,175,75
2026-05-09 15:07:04.357,4,1.74,-1.11,0.62,-295.6184,-36.7822,10.008799999999997,175,75
2026-05-09 15:07:04.357,5,2.0,0.65,2.0,-108.4786,37.5946,192.1408,175,75
2026-05-09 15:07:04.357,3,0.05,-0.69,4.05,216.9454,222.61360000000002,99.9174,175,75
2026-05-09 15:07:04.357,2,2.82,-2.31,0.97,282.63899999999995,-96.6712,23.2528,175,75
2026-05-09 15:07:04.357,4,1.6,-1.18,0.35,-311.9584,-19.282200000000003,-5.0512000000000015,175,75
2026-05-09 15:07:04.368,5,2.0,0.51,2.0,-168.73860000000002,225.6546,192.1108,175,75
2026-05-09 15:07:04.368,3,0.62,-0.43,4.08,155.90540000000001,57.4336,116.1374,175,75
2026-05-09 15:07:04.368,2,3.18,-2.29,0.7,278.18899999999996,-128.0712,-8.3872,175,75
2026-05-09 15:07:04.368,4,1.36,-1.58,0.26,-311.9584,79.18780000000001,-14.621200000000002,175,75
2026-05-09 15:07:04.368,5,1.56,0.08,2.0,-189.1586,249.4646,159.7408,175,75
2026-05-09 15:07:04.380,2,3.68,-2.08,0.28,271.729,-179.1712,-51.1372,175,75
2026-05-09 15:07:04.380,5,0.08,-0.6,1.21,-120.8186,249.4646,87.2608,175,75
2026-05-09 15:07:04.380,4,1.34,-2.06,0.35,-317.2584,269.1878,-5.1112,175,75
2026-05-09 15:07:04.380,2,3.89,-1.93,0.03,266.729,-224.4212,-84.7372,175,75
2026-05-09 15:07:04.380,5,-0.33,-0.22,1.16,-66.2286,249.4646,68.7208,175,75
2026-05-09 15:07:04.390,1,-3.74,-2.3,-1.96,263.9768,-211.7316,-268.4874,175,75
2026-05-09 15:07:04.390,4,1.57,-2.4,0.78,-332.6284,425.1078,-20.351200000000002,175,75
2026-05-09 15:07:04.390,1,-2.66,-2.74,-1.7,245.7468,61.928399999999996,-245.0674,175,75
2026-05-09 15:07:04.390,5,-0.87,-0.78,0.76,-27.1986,249.4646,58.5008,175,75
2026-05-09 15:07:04.402,2,3.89,-2.06,-0.28,260.269,-286.3712,-131.3772,175,75
2026-05-09 15:07:04.402,4,1.97,-2.46,1.65,-329.8184,461.99780000000004,-70.9012,175,75
2026-05-09 15:07:04.402,5,-1.39,-0.79,0.84,-0.4686000000000001,249.4646,27.9208,175,75
2026-05-09 15:07:04.402,4,2.18,-2.56,2.74,-265.4884,207.4878,-173.16119999999998,175,75
2026-05-09 15:07:04.402,1,-0.19,-0.96,0.65,271.1168,153.9984,-262.3874,175,75
2026-05-09 15:07:04.402,3,0.79,0.09,2.17,-0.18460000000000054,-16.776400000000006,76.6874,175,75
2026-05-09 15:07:04.406,5,-1.45,-0.72,1.32,-1.4385999999999999,242.4846,-27.4192,175,75
2026-05-09 15:07:04.406,1,-0.1,-0.5,1.45,329.2868,137.04840000000002,-196.2274,175,75
2026-05-09 15:07:04.406,4,1.45,-2.5,2.57,-261.8984,202.4878,-183.0412,175,75
2026-05-09 15:07:04.419,3,-1.07,-0.21,1.72,-16.8946,-102.0764,97.4774,175,75
2026-05-09 15:07:04.419,2,3.16,-2.92,-1.41,236.239,-324.4812,-268.2072,175,75
2026-05-09 15:07:04.419,5,-1.34,-0.47,1.97,8.4114,142.00459999999998,-178.0392,175,75
2026-05-09 15:07:04.419,3,-1.34,-0.28,1.08,1.5153999999999996,-42.8664,64.8574,175,75
2026-05-09 15:07:04.430,1,-0.2,-1.78,1.04,384.40680000000003,90.7084,-192.4474,175,75
2026-05-09 15:07:04.430,5,-1.13,-0.28,2.0,14.1914,102.7346,-247.74919999999997,175,75
2026-05-09 15:07:04.430,4,1.57,-3.07,2.75,-311.34839999999997,135.8978,-261.2112,175,75
2026-05-09 15:07:04.442,2,2.77,-2.76,-2.0,209.40900000000002,-183.8712,-332.53720000000004,175,75
2026-05-09 15:07:04.442,5,-1.03,-0.2,2.0,22.9314,71.0346,-250.71919999999997,175,75
2026-05-09 15:07:04.442,4,1.41,-3.14,2.73,-308.35839999999996,137.1178,-284.07120000000003,175,75
2026-05-09 15:07:04.447,5,-0.51,0.02,2.0,39.0614,-13.2354,-219.23919999999998,175,75
2026-05-09 15:07:04.451,2,2.7,-2.36,-2.03,190.329,-127.2212,-364.4272,175,75
2026-05-09 15:07:04.451,4,1.28,-2.98,2.74,-295.0684,165.7178,-316.0312,175,75
2026-05-09 15:07:04.460,1,-0.28,-1.81,0.68,376.90680000000003,125.52839999999999,-184.88739999999999,175,75
2026-05-09 15:07:04.460,3,-0.72,0.55,1.57,30.1754,-31.5864,45.767399999999995,175,75
2026-05-09 15:07:04.460,4,1.17,-2.75,2.84,-277.0784,191.5078,-332.6112,175,75
2026-05-09 15:07:04.462,3,-0.84,0.56,1.27,21.8854,-32.4464,31.8674,175,75
2026-05-09 15:07:04.479,1,-0.33,-1.74,1.26,366.84680000000003,105.4584,-155.4374,175,75
2026-05-09 15:07:04.479,2,2.59,-2.13,-1.97,143.619,-108.6212,-403.3872,175,75
2026-05-09 15:07:04.479,4,1.16,-2.53,3.1,-238.1184,207.8478,-353.5912,175,75
2026-05-09 15:07:04.486,3,-0.47,0.08,1.41,8.1054,-17.996400000000005,13.147400000000001,175,75
2026-05-09 15:07:04.498,4,1.03,-2.5,3.28,-202.3184,198.3978,-366.82120000000003,175,75
2026-05-09 15:07:04.498,2,2.36,-2.26,-1.89,117.829,-90.4512,-418.9372,175,75
2026-05-09 15:07:04.498,5,-0.52,0.34,1.62,18.7914,-89.00540000000001,45.5708,175,75
2026-05-09 15:07:04.498,2,2.22,-2.33,-1.77,104.719,-61.5512,-430.09720000000004,175,75
2026-05-09 15:07:04.498,4,0.66,-2.52,3.31,-174.45839999999998,175.8978,-392.12120000000004,175,75
2026-05-09 15:07:04.498,5,-0.27,0.28,1.64,9.7514,-87.4854,118.1008,175,75
2026-05-09 15:07:04.500,3,-0.76,0.17,1.48,-0.12460000000000093,-27.566400000000005,16.2574,175,75
2026-05-09 15:07:04.516,5,-0.12,0.17,1.62,3.4214,-76.3254,192.60080000000002,175,75
2026-05-09 15:07:04.516,2,2.01,-2.27,-1.55,100.509,-28.071199999999997,-437.47720000000004,175,75
2026-05-09 15:07:04.521,1,-0.25,-1.68,0.44,279.2268,16.558400000000002,-108.97739999999999,175,75
2026-05-09 15:07:04.521,5,-0.19,0.01,1.57,-1.9986,-63.9854,248.3408,175,75
2026-05-09 15:07:04.521,4,0.29,-2.24,3.08,-188.41840000000002,91.3278,-447.00120000000004,175,75
2026-05-09 15:07:04.522,3,-0.4,0.26,1.47,-14.2146,-45.24640000000001,10.8874,175,75
2026-05-09 15:07:04.531,1,-0.24,-1.46,0.76,238.0068,14.1784,-86.0474,175,75
2026-05-09 15:07:04.531,5,-0.38,-0.24,1.52,-2.5485999999999995,-73.3554,249.5508,175,75
2026-05-09 15:07:04.531,2,1.58,-1.88,-0.98,116.90899999999999,38.5088,-438.2672,175,75
2026-05-09 15:07:04.531,4,0.02,-2.09,2.87,-196.46839999999997,68.0278,-457.8512,175,75
2026-05-09 15:07:04.532,3,-0.79,0.29,1.46,-25.7946,-72.38640000000001,16.3174,175,75
2026-05-09 15:07:04.548,4,-0.12,-2.04,2.53,-202.5684,62.4178,-462.43120000000005,175,75
2026-05-09 15:07:04.548,2,1.4,-1.76,-0.58,136.359,92.6588,-425.8872,175,75
2026-05-09 15:07:04.548,3,-0.88,0.2,1.37,-26.4046,-76.22640000000001,-4.9026,175,75
2026-05-09 15:07:04.548,5,0.09,-0.68,1.56,22.6914,-73.03540000000001,249.5508,175,75
2026-05-09 15:07:04.564,4,-0.22,-1.93,2.11,-216.46839999999997,84.8578,-460.1112,175,75
2026-05-09 15:07:04.564,1,-0.17,-0.41,0.55,127.8168,-67.9516,-33.3074,175,75
2026-05-09 15:07:04.564,2,1.22,-1.67,-0.21,158.679,128.5088,-402.65720000000005,175,75
2026-05-09 15:07:04.564,5,-0.08,-0.79,1.58,51.7314,-9.7154,249.5508,175,75
2026-05-09 15:07:04.564,4,-0.26,-1.77,1.81,-222.01839999999999,110.71780000000001,-450.6012,175,75
2026-05-09 15:07:04.578,5,-0.45,-0.82,1.62,78.9614,32.3146,249.5508,175,75
2026-05-09 15:07:04.578,1,-0.23,-0.07,0.45,92.8168,-79.6016,-8.3674,175,75
2026-05-09 15:07:04.588,2,1.12,-1.57,0.13,184.229,149.6688,-382.47720000000004,175,75
2026-05-09 15:07:04.589,5,-1.18,-0.86,1.95,87.06139999999999,23.644599999999997,141.23080000000002,175,75
2026-05-09 15:07:04.589,2,1.17,-1.5,0.31,198.859,142.52880000000002,-368.8772,175,75
2026-05-09 15:07:04.589,4,-0.44,-1.52,1.63,-219.6384,122.7878,-430.5412,175,75
2026-05-09 15:07:04.592,2,1.22,-1.42,0.48,208.919,116.3188,-354.48720000000003,175,75
2026-05-09 15:07:04.603,5,-1.13,-0.99,1.88,76.19139999999999,28.2546,13.6008,175,75
2026-05-09 15:07:04.603,4,-0.6,-1.31,1.55,-214.8184,145.0478,-416.0312,175,75
2026-05-09 15:07:04.603,3,-0.76,-0.76,1.52,-25.124599999999997,-50.7364,-40.7526,175,75
2026-05-09 15:07:04.603,1,-0.15,0.47,0.38,43.2468,-82.58160000000001,30.5426,175,75
2026-05-09 15:07:04.603,5,-1.21,-0.99,1.49,84.72139999999999,24.9346,-76.8992,175,75
2026-05-09 15:07:04.616,4,-0.55,-1.04,1.65,-213.78840000000002,133.3378,-404.1412,175,75
2026-05-09 15:07:04.616,3,-0.57,-0.99,1.6,-39.27460000000001,-64.8264,-37.702600000000004,175,75
2026-05-09 15:07:04.616,5,-1.22,-0.85,1.41,105.2314,0.6045999999999999,-128.6892,175,75
2026-05-09 15:07:04.629,5,-1.2,-0.54,1.52,114.44139999999999,-33.1654,-188.4192,175,75
2026-05-09 15:07:04.629,1,-0.17,0.83,0.13,-2.243199999999998,-84.7816,52.1226,175,75
2026-05-09 15:07:04.629,2,0.89,-1.12,0.61,218.06900000000002,-49.2912,-330.15720000000005,175,75
2026-05-09 15:07:04.629,4,-0.76,-0.67,1.89,-223.90839999999997,71.5678,-379.50120000000004,175,75
