Time,ID,Ax,Ay,Az,Gx,Gy,Gz,H,W
2026-05-09 14:57:30.622,3,-0.23,0.03,1.33,34.4448,51.62779999999999,9.9964,175,75
2026-05-09 14:57:30.717,2,0.4,-2.25,2.07,-324.81,277.73179999999996,-132.8544,175,75
2026-05-09 14:57:30.717,4,-0.36,-1.07,-0.57,-251.8724,513.6125999999999,-230.06879999999998,175,75
2026-05-09 14:57:30.747,3,-0.22,0.11,1.35,23.1648,56.1378,2.4963999999999995,175,75
2026-05-09 14:57:30.759,1,0.11,-0.65,0.5,-194.53400000000002,137.3396,153.40599999999998,175,75
2026-05-09 14:57:30.759,5,0.06,0.56,1.05,-2.339,-22.6338,-66.78280000000001,175,75
2026-05-09 14:57:30.759,5,0.14,0.48,1.03,-9.329,7.4962,-11.4328,175,75
2026-05-09 14:57:30.764,2,0.61,-2.01,1.86,-339.26,116.6918,-105.7244,175,75
2026-05-09 14:57:30.802,3,-0.28,0.06,1.18,21.2148,29.247799999999998,13.7164,175,75
2026-05-09 14:57:30.802,2,0.79,-1.93,1.65,-332.37,164.5018,-71.20439999999999,175,75
2026-05-09 14:57:30.806,2,0.86,-1.89,1.73,-332.37,139.7418,-69.74440000000001,175,75
2026-05-09 14:57:30.820,5,-0.65,-0.18,1.36,-15.489,43.696200000000005,106.15719999999999,175,75
2026-05-09 14:57:30.839,3,-0.22,0.11,1.31,12.674800000000001,10.587799999999998,4.4564,175,75
2026-05-09 14:57:30.839,1,0.12,0.36,0.65,-185.324,7.1495999999999995,88.346,175,75
2026-05-09 14:57:30.839,2,0.98,-1.67,1.67,-337.8,39.8618,-42.3044,175,75
2026-05-09 14:57:30.840,3,-0.29,0.1,1.16,14.0748,14.917799999999998,4.0264,175,75
2026-05-09 14:57:30.857,5,-0.48,-0.29,1.0,13.280999999999999,28.1062,-101.09280000000001,175,75
2026-05-09 14:57:30.857,3,-0.3,0.11,1.16,17.0048,21.1378,2.6264000000000003,175,75
2026-05-09 14:57:30.857,4,-0.3,0.28,0.82,-78.6424,272.6326,-66.77879999999999,175,75
2026-05-09 14:57:30.857,1,0.1,0.41,0.64,-172.764,40.9296,73.536,175,75
2026-05-09 14:57:30.863,2,1.13,-1.59,1.48,-325.3,25.4718,-18.034399999999998,175,75
2026-05-09 14:57:30.895,2,1.15,-1.55,1.46,-310.36,37.7318,-8.404400000000003,175,75
2026-05-09 14:57:30.907,3,-0.4,0.14,1.28,17.4348,16.077799999999996,-1.2835999999999999,175,75
2026-05-09 14:57:30.907,3,-0.36,0.12,1.35,16.8848,17.237799999999996,-3.8436000000000003,175,75
2026-05-09 14:57:30.934,5,0.14,0.25,0.96,-5.4990000000000006,-22.073800000000002,-42.5228,175,75
2026-05-09 14:57:30.948,2,1.46,-1.22,1.59,-239.39000000000001,-0.25820000000000043,36.1656,175,75
2026-05-09 14:57:30.948,1,0.35,0.65,0.99,-98.064,37.089600000000004,3.4060000000000006,175,75
2026-05-09 14:57:30.948,3,-0.22,0.1,1.4,14.5648,8.457799999999999,-5.973599999999999,175,75
2026-05-09 14:57:30.958,2,1.53,-1.17,1.52,-224.87,-20.0182,45.8656,175,75
2026-05-09 14:57:30.958,4,-0.5,0.11,1.39,10.317599999999999,88.61260000000001,-81.10879999999999,175,75
2026-05-09 14:57:30.958,5,0.19,0.31,1.0,-2.109,16.9062,-4.6128,175,75
2026-05-09 14:57:30.958,3,-0.18,0.1,1.37,13.774799999999999,1.747799999999998,-3.7836,175,75
2026-05-09 14:57:30.958,4,-0.49,0.07,1.44,17.147599999999997,56.5326,-87.9388,175,75
2026-05-09 14:57:30.958,1,0.33,0.73,0.94,-75.074,32.3996,-12.134,175,75
2026-05-09 14:57:30.961,5,0.16,0.34,1.05,-8.759,34.9262,14.6672,175,75
2026-05-09 14:57:30.971,5,0.13,0.28,1.02,-15.669,52.5362,31.6572,175,75
2026-05-09 14:57:31.008,2,1.85,-0.98,1.34,-154.81,-4.9482,44.9456,175,75
2026-05-09 14:57:31.008,1,0.41,0.75,1.05,-45.444,26.7896,-31.524,175,75
2026-05-09 14:57:31.008,4,-0.62,0.15,1.44,18.427599999999998,12.142600000000002,-73.9088,175,75
2026-05-09 14:57:31.049,5,-0.34,0.11,1.15,-17.849,57.626200000000004,43.327200000000005,175,75
2026-05-09 14:57:31.063,1,0.42,0.81,1.2,15.105999999999998,-3.1504000000000003,-76.464,175,75
2026-05-09 14:57:31.063,1,0.42,0.79,1.26,29.066,-11.9304,-88.17399999999999,175,75
2026-05-09 14:57:31.106,2,2.42,-0.75,1.25,10.13,35.9018,-19.7444,175,75
2026-05-09 14:57:31.106,3,-0.29,0.11,1.37,-0.6151999999999997,-19.1022,-3.5936000000000003,175,75
2026-05-09 14:57:31.106,3,-0.31,0.13,1.32,-1.7752,-23.5622,-6.823600000000001,175,75
2026-05-09 14:57:31.106,5,-0.41,0.1,1.13,-7.119,12.5962,44.507200000000005,175,75
2026-05-09 14:57:31.106,2,2.42,-0.75,1.16,20.98,34.3718,-31.2744,175,75
2026-05-09 14:57:31.106,1,0.49,0.93,1.66,87.056,-87.7304,-129.764,175,75
2026-05-09 14:57:31.145,2,2.45,-0.74,1.06,33.48,51.0818,-43.4644,175,75
2026-05-09 14:57:31.145,3,-0.31,0.14,1.31,-4.0352,-22.092200000000002,-7.6236,175,75
2026-05-09 14:57:31.145,2,2.45,-0.74,0.99,47.69,83.1618,-55.1744,175,75
2026-05-09 14:57:31.145,2,2.48,-0.78,0.98,62.69,107.4818,-65.96440000000001,175,75
2026-05-09 14:57:31.145,5,-0.35,0.17,1.09,-10.189,-14.0138,46.0972,175,75
2026-05-09 14:57:31.157,1,0.53,0.84,1.55,170.65599999999998,-135.4704,-187.50400000000002,175,75
2026-05-09 14:57:31.157,2,2.48,-0.86,1.01,70.43,117.7918,-75.4744,175,75
2026-05-09 14:57:31.169,5,-0.36,0.19,1.1,-13.619,-16.0738,42.5972,175,75
2026-05-09 14:57:31.169,3,-0.23,0.11,1.4,-6.5352,-27.402200000000004,-7.3736,175,75
2026-05-09 14:57:31.169,2,2.44,-0.96,1.05,76.47,123.40180000000001,-83.95439999999999,175,75
2026-05-09 14:57:31.169,5,-0.37,0.18,1.05,-17.609,-16.6738,38.437200000000004,175,75
2026-05-09 14:57:31.169,3,-0.25,0.1,1.34,-12.145199999999999,-33.8022,-1.7035999999999998,175,75
2026-05-09 14:57:31.212,2,2.43,-1.12,1.1,89.7,98.9518,-100.7244,175,75
2026-05-09 14:57:31.255,4,-0.36,-0.77,1.92,233.6776,-88.4074,313.0412,175,75
2026-05-09 14:57:31.320,5,0.43,0.22,1.04,-34.138999999999996,-122.69380000000001,118.3372,175,75
2026-05-09 14:57:31.320,5,0.59,0.1,1.15,-31.119,-136.50379999999998,167.6172,175,75
2026-05-09 14:57:31.333,1,3.42,-0.26,4.84,65.596,144.8396,-7.444000000000001,175,75
2026-05-09 14:57:31.333,2,1.81,-1.35,1.21,170.06,103.5818,-140.8444,175,75
2026-05-09 14:57:31.377,5,0.86,-0.94,1.03,-13.379000000000001,-60.273799999999994,249.7172,175,75
2026-05-09 14:57:31.377,5,0.37,-0.91,0.94,4.571,-5.2738,249.7172,175,75
2026-05-09 14:57:31.377,1,-0.19,0.6,1.81,-50.754000000000005,-250.7104,64.696,175,75
2026-05-09 14:57:31.377,2,1.86,-1.25,1.0,193.42,-63.0582,-121.87439999999998,175,75
2026-05-09 14:57:31.389,4,0.06,-0.18,1.28,86.8476,-129.0774,261.4612,175,75
2026-05-09 14:57:31.427,4,0.03,-0.02,1.79,7.637599999999999,16.292600000000007,281.5212,175,75
2026-05-09 14:57:31.428,5,-0.06,0.75,1.48,2.201,69.66619999999999,-250.5528,175,75
2026-05-09 14:57:31.428,4,-0.01,-0.17,2.07,5.4975999999999985,44.1626,268.5312,175,75
2026-05-09 14:57:31.440,5,0.06,0.99,1.93,-2.069,-69.3438,-154.7228,175,75
2026-05-09 14:57:31.453,4,-0.02,-0.34,2.4,18.3676,-4.807400000000001,227.8612,175,75
2026-05-09 14:57:31.453,1,0.15,0.21,0.99,-33.67400000000001,-33.6404,22.316000000000003,175,75
2026-05-09 14:57:31.485,5,0.15,-0.07,0.8,3.101,-63.233799999999995,203.7372,175,75
2026-05-09 14:57:31.517,5,0.51,0.28,1.09,-7.439,-11.5738,249.7172,175,75
2026-05-09 14:57:31.531,3,-0.32,0.17,1.21,-19.9452,-22.0322,16.766399999999997,175,75
2026-05-09 14:57:31.531,5,-0.02,0.11,1.25,-24.889,-40.0738,249.7172,175,75
2026-05-09 14:57:31.531,3,-0.36,0.24,1.28,-19.3352,-10.8122,15.186399999999999,175,75
2026-05-09 14:57:31.531,1,0.07,0.16,0.58,-44.534000000000006,-42.7904,15.606,175,75
2026-05-09 14:57:31.531,2,1.76,-0.86,0.73,202.99,55.90180000000001,-60.474399999999996,175,75
2026-05-09 14:57:31.567,3,-0.28,0.19,1.5,-20.6752,-21.122200000000003,9.9964,175,75
2026-05-09 14:57:31.567,5,-0.3,-0.69,0.75,-12.079,-31.2138,165.00719999999998,175,75
2026-05-09 14:57:31.567,2,1.77,-0.83,0.75,201.1,40.6618,-56.3944,175,75
2026-05-09 14:57:31.567,1,0.1,0.2,0.56,-39.164,-18.8804,14.016,175,75
2026-05-09 14:57:31.567,4,-0.18,0.25,1.97,11.177599999999998,-72.42739999999999,169.5012,175,75
2026-05-09 14:57:31.570,4,-0.21,0.31,1.99,10.377599999999997,-55.77739999999999,173.0412,175,75
2026-05-09 14:57:31.601,3,-0.28,0.15,1.35,-25.255200000000002,-29.7722,12.3164,175,75
2026-05-09 14:57:31.613,5,-0.44,-0.41,0.75,22.730999999999998,43.3162,-9.9428,175,75
2026-05-09 14:57:31.613,5,-0.33,-0.28,0.89,19.401,71.9262,-80.3328,175,75
2026-05-09 14:57:31.613,5,-0.21,-0.19,1.05,6.361000000000001,84.41619999999999,-134.6228,175,75
2026-05-09 14:57:31.613,1,0.1,0.21,0.73,-38.06400000000001,-24.9204,4.5059999999999985,175,75
2026-05-09 14:57:31.613,2,1.8,-0.75,0.52,200.19,22.851800000000004,-50.8444,175,75
2026-05-09 14:57:31.614,2,1.85,-0.78,0.56,202.87,41.3318,-47.6144,175,75
2026-05-09 14:57:31.614,1,0.09,0.3,0.68,-38.554,-26.9304,5.975999999999997,175,75
2026-05-09 14:57:31.662,5,0.46,0.14,1.3,-0.019000000000000017,-32.0638,-12.482800000000001,175,75
2026-05-09 14:57:31.662,5,0.15,0.33,1.24,-0.569,-28.3738,30.2672,175,75
2026-05-09 14:57:31.662,4,-0.16,0.31,2.2,-5.962400000000002,-49.377399999999994,150.2412,175,75
2026-05-09 14:57:31.672,1,0.09,0.15,0.77,-37.70400000000001,-20.3504,7.795999999999998,175,75
2026-05-09 14:57:31.672,3,-0.34,0.15,1.3,-28.0552,-26.4222,12.3764,175,75
2026-05-09 14:57:31.672,1,0.04,0.33,0.66,-39.044,-33.1504,4.8759999999999994,175,75
2026-05-09 14:57:31.689,3,-0.34,0.14,1.3,-30.495199999999997,-30.2022,12.926400000000001,175,75
2026-05-09 14:57:31.689,5,0.13,-0.03,0.91,-18.619,22.4862,155.50719999999998,175,75
2026-05-09 14:57:31.689,1,0.07,0.26,0.64,-39.534000000000006,-33.2104,2.7959999999999976,175,75
2026-05-09 14:57:31.689,4,-0.13,0.31,2.22,-8.702400000000004,-25.967399999999998,138.1612,175,75
2026-05-09 14:57:31.694,1,0.07,0.2,0.69,-37.70400000000001,-32.120400000000004,1.645999999999999,175,75
2026-05-09 14:57:31.694,2,1.89,-0.71,0.49,199.76,35.8418,-49.5644,175,75
2026-05-09 14:57:31.694,3,-0.4,0.2,1.3,-40.2552,-50.812200000000004,16.3464,175,75
2026-05-09 14:57:31.705,5,-0.02,0.06,1.11,-12.239,34.4262,249.3272,175,75
2026-05-09 14:57:31.705,2,1.94,-0.71,0.57,203.3,43.0918,-47.5544,175,75
2026-05-09 14:57:31.705,5,-0.34,0.04,1.33,-26.399,-7.3538,243.3672,175,75
2026-05-09 14:57:31.705,1,0.05,0.14,0.66,-41.17400000000001,-33.9504,0.2959999999999994,175,75
2026-05-09 14:57:31.712,5,-0.2,-0.2,1.32,-37.708999999999996,-31.3638,198.7372,175,75
2026-05-09 14:57:31.712,3,-0.32,0.12,1.25,-45.6752,-64.71220000000001,19.5764,175,75
2026-05-09 14:57:31.723,1,0.11,0.15,0.69,-43.92400000000001,-34.4304,0.6059999999999999,175,75
2026-05-09 14:57:31.723,2,1.97,-0.69,0.62,200.60999999999999,15.4718,-45.7244,175,75
2026-05-09 14:57:31.726,1,0.07,0.17,0.66,-45.684,-37.4804,1.0359999999999996,175,75
2026-05-09 14:57:31.740,3,-0.35,0.13,1.23,-49.5752,-75.1422,24.5764,175,75
2026-05-09 14:57:31.740,1,0.1,0.15,0.64,-47.034000000000006,-35.7104,0.36599999999999966,175,75
2026-05-09 14:57:31.740,2,1.93,-0.6,0.5,194.94,3.9518000000000004,-45.6644,175,75
2026-05-09 14:57:31.752,5,-0.25,-0.4,0.94,-3.879,-27.573800000000002,82.5372,175,75
2026-05-09 14:57:31.752,4,-0.15,0.42,2.13,-14.252400000000002,-52.797399999999996,121.2112,175,75
2026-05-09 14:57:31.752,5,-0.2,-0.33,0.94,2.0709999999999997,-21.4638,55.4872,175,75
2026-05-09 14:57:31.758,1,0.15,0.17,0.61,-52.824,-40.4104,-0.6740000000000013,175,75
2026-05-09 14:57:31.758,4,-0.18,0.44,2.08,-15.712400000000002,-51.5774,119.3812,175,75
2026-05-09 14:57:31.771,2,1.94,-0.66,0.46,195.92,33.6418,-44.254400000000004,175,75
2026-05-09 14:57:31.771,3,-0.28,0.13,1.31,-58.2952,-89.5922,34.2664,175,75
2026-05-09 14:57:31.771,5,-0.01,-0.2,1.01,-0.32899999999999996,-24.6438,37.4572,175,75
2026-05-09 14:57:31.771,4,-0.17,0.47,2.03,-18.1524,-34.13739999999999,122.55120000000001,175,75
2026-05-09 14:57:31.771,3,-0.32,0.16,1.22,-63.665200000000006,-102.9522,38.1064,175,75
2026-05-09 14:57:31.782,2,1.98,-0.69,0.49,198.72,38.7718,-46.2044,175,75
2026-05-09 14:57:31.782,1,0.13,0.27,0.63,-61.114000000000004,-51.8104,-2.9940000000000015,175,75
2026-05-09 14:57:31.782,3,-0.36,0.22,1.21,-65.3752,-99.77220000000001,37.6864,175,75
2026-05-09 14:57:31.793,2,1.98,-0.67,0.53,201.65,38.5218,-45.5344,175,75
2026-05-09 14:57:31.793,5,0.19,-0.09,1.02,3.941,-31.6038,67.3672,175,75
2026-05-09 14:57:31.803,2,1.97,-0.61,0.52,201.77,34.921800000000005,-46.754400000000004,175,75
2026-05-09 14:57:31.803,5,0.19,-0.04,1.01,3.561,-22.5238,83.43719999999999,175,75
2026-05-09 14:57:31.804,2,1.97,-0.55,0.51,198.78,34.561800000000005,-46.0244,175,75
2026-05-09 14:57:31.816,3,-0.21,0.12,1.36,-67.99520000000001,-103.3122,36.2164,175,75
2026-05-09 14:57:31.816,5,0.14,-0.03,1.0,-0.2290000000000001,-9.6338,93.5372,175,75
2026-05-09 14:57:31.816,1,0.08,0.21,0.63,-68.864,-65.7704,-7.684000000000001,175,75
2026-05-09 14:57:31.826,3,-0.18,0.1,1.36,-65.18520000000001,-93.68220000000001,33.4164,175,75
2026-05-09 14:57:31.826,5,0.1,-0.04,1.01,-5.599,2.0162,99.9272,175,75
2026-05-09 14:57:31.826,4,-0.17,0.45,2.27,-23.032400000000003,-29.557399999999994,107.3712,175,75
2026-05-09 14:57:31.826,2,1.93,-0.48,0.51,189.03,54.2518,-45.1744,175,75
2026-05-09 14:57:31.826,1,0.05,0.23,0.65,-71.114,-67.3604,-9.334000000000001,175,75
2026-05-09 14:57:31.838,5,0.06,-0.08,1.03,-8.159,8.7562,104.4472,175,75
2026-05-09 14:57:31.838,3,-0.15,0.11,1.41,-60.495200000000004,-86.3622,31.276400000000002,175,75
2026-05-09 14:57:31.838,4,-0.21,0.52,2.2,-24.9824,-43.70739999999999,102.25120000000001,175,75
2026-05-09 14:57:31.838,2,1.97,-0.54,0.54,189.88,62.5518,-44.4444,175,75
2026-05-09 14:57:31.838,5,0.01,-0.1,1.07,-7.429,10.9162,105.8972,175,75
2026-05-09 14:57:31.850,1,0.03,0.25,0.63,-73.064,-72.6604,-10.734000000000002,175,75
2026-05-09 14:57:31.850,4,-0.21,0.52,2.14,-24.8024,-40.1674,102.80120000000001,175,75
2026-05-09 14:57:31.851,2,2.0,-0.64,0.61,193.48,56.6318,-44.1944,175,75
2026-05-09 14:57:31.861,1,0.03,0.22,0.62,-73.984,-71.5704,-10.184000000000001,175,75
2026-05-09 14:57:31.861,5,-0.08,-0.13,1.13,-6.289,4.8362,101.0972,175,75
2026-05-09 14:57:31.881,5,-0.15,-0.15,1.13,-6.089,-7.5038,95.5072,175,75
2026-05-09 14:57:31.889,1,-0.03,0.25,0.66,-78.254,-73.2704,-13.724,175,75
2026-05-09 14:57:31.889,5,-0.15,-0.15,1.12,-5.399000000000001,-14.8838,94.5272,175,75
2026-05-09 14:57:31.908,5,-0.14,-0.16,1.12,-5.308999999999999,-22.6738,93.40719999999999,175,75
2026-05-09 14:57:31.908,1,-0.04,0.31,0.66,-78.494,-70.0404,-15.124,175,75
2026-05-09 14:57:31.912,5,-0.1,-0.18,1.12,-4.2490000000000006,-30.5338,93.5672,175,75
2026-05-09 14:57:31.926,4,-0.2,0.53,2.25,-28.4024,-40.4174,87.61120000000001,175,75
2026-05-09 14:57:31.934,1,-0.07,0.29,0.6,-72.454,-64.5504,-15.064,175,75
2026-05-09 14:57:31.948,5,0.03,-0.22,1.07,0.050999999999999934,-35.4638,87.7672,175,75
2026-05-09 14:57:31.968,2,1.99,-0.49,0.62,193.66,22.001800000000003,-42.2444,175,75
2026-05-09 14:57:31.968,2,2.02,-0.42,0.65,193.85,8.7718,-43.2244,175,75
2026-05-09 14:57:31.968,2,2.0,-0.37,0.63,189.09,-5.1382,-44.074400000000004,175,75
2026-05-09 14:57:31.983,4,-0.22,0.49,2.19,-36.632400000000004,-25.047399999999996,77.86120000000001,175,75
2026-05-09 14:57:31.984,1,-0.05,0.29,0.6,-69.404,-63.6404,-13.544,175,75
2026-05-09 14:57:31.984,5,0.04,-0.22,1.03,2.331,-28.5138,77.9272,175,75
2026-05-09 14:57:31.984,2,1.94,-0.34,0.57,184.03,-13.488199999999999,-46.1444,175,75
2026-05-09 14:57:31.996,3,-0.27,0.12,1.22,-34.7052,-36.9722,10.7364,175,75
2026-05-09 14:57:31.996,5,0.04,-0.21,1.03,3.171,-24.8738,73.2872,175,75
2026-05-09 14:57:32.006,4,-0.3,0.54,2.16,-39.0724,-25.597399999999993,77.3112,175,75
2026-05-09 14:57:32.006,3,-0.33,0.15,1.21,-33.0552,-34.592200000000005,10.7364,175,75
2026-05-09 14:57:32.006,2,1.94,-0.42,0.45,178.54,-10.0182,-49.254400000000004,175,75
2026-05-09 14:57:32.006,5,0.05,-0.2,1.03,1.4609999999999999,-21.8038,70.7872,175,75
2026-05-09 14:57:32.006,1,-0.05,0.39,0.58,-62.513999999999996,-52.6004,-11.224,175,75
2026-05-09 14:57:32.006,3,-0.27,0.11,1.27,-32.2052,-33.1922,10.3064,175,75
2026-05-09 14:57:32.018,2,1.93,-0.47,0.42,180.8,5.531799999999999,-51.5144,175,75
2026-05-09 14:57:32.018,5,0.06,-0.21,1.03,-0.18900000000000006,-19.4638,70.5572,175,75
2026-05-09 14:57:32.018,4,-0.23,0.49,2.15,-42.672399999999996,-28.097399999999993,75.4212,175,75
2026-05-09 14:57:32.032,4,-0.23,0.48,2.12,-44.922399999999996,-30.047399999999996,72.55120000000001,175,75
2026-05-09 14:57:32.032,3,-0.27,0.12,1.26,-30.925199999999997,-39.352199999999996,9.3264,175,75
2026-05-09 14:57:32.032,1,-0.05,0.44,0.52,-52.884,-44.6204,-9.454,175,75
2026-05-09 14:57:32.039,2,1.95,-0.31,0.51,186.28,19.9818,-53.464400000000005,175,75
2026-05-09 14:57:32.039,5,0.04,-0.23,1.05,-1.0290000000000001,-10.9838,58.537200000000006,175,75
2026-05-09 14:57:32.051,4,-0.26,0.49,2.14,-43.4624,-12.607399999999998,72.6712,175,75
2026-05-09 14:57:32.051,2,1.95,-0.28,0.54,180.67,10.1118,-53.0944,175,75
2026-05-09 14:57:32.051,5,0.03,-0.23,1.07,-1.259,-7.1738,51.6572,175,75
2026-05-09 14:57:32.062,4,-0.26,0.48,2.19,-44.0724,-7.857399999999998,71.58120000000001,175,75
2026-05-09 14:57:32.062,1,-0.08,0.42,0.51,-47.45400000000001,-36.5104,-8.724,175,75
2026-05-09 14:57:32.062,2,1.92,-0.32,0.49,171.47,-7.5782,-54.2544,175,75
2026-05-09 14:57:32.062,5,0.02,-0.23,1.06,0.0010000000000000009,-5.0838,45.467200000000005,175,75
2026-05-09 14:57:32.062,3,-0.3,0.1,1.12,-25.7952,-33.62220000000001,7.3764,175,75
2026-05-09 14:57:32.072,1,-0.04,0.37,0.56,-44.044,-31.260399999999997,-8.294,175,75
2026-05-09 14:57:32.072,5,0.0,-0.22,1.07,1.301,-5.6137999999999995,41.3872,175,75
2026-05-09 14:57:32.078,3,-0.21,0.12,1.18,-22.2652,-24.412200000000002,9.7564,175,75
2026-05-09 14:57:32.078,1,-0.07,0.38,0.56,-42.824,-34.0704,-6.464000000000001,175,75
2026-05-09 14:57:32.078,5,-0.01,-0.2,1.09,2.501,-8.7638,38.107200000000006,175,75
2026-05-09 14:57:32.090,4,-0.27,0.55,2.24,-46.022400000000005,-31.877399999999994,64.2012,175,75
2026-05-09 14:57:32.090,3,-0.33,0.06,1.22,-20.1252,-28.982200000000002,6.1564,175,75
2026-05-09 14:57:32.090,5,-0.0,-0.18,1.11,2.081,-12.5038,36.2472,175,75
2026-05-09 14:57:32.090,4,-0.29,0.55,2.18,-48.0924,-33.767399999999995,63.8912,175,75
2026-05-09 14:57:32.096,3,-0.28,0.11,1.24,-17.9952,-23.192200000000003,5.7364,175,75
2026-05-09 14:57:32.096,2,1.87,-0.32,0.28,170.13,12.7918,-55.2944,175,75
2026-05-09 14:57:32.096,1,-0.07,0.35,0.53,-39.894000000000005,-32.6604,-4.514000000000001,175,75
2026-05-09 14:57:32.110,4,-0.28,0.52,2.15,-47.672399999999996,-23.707399999999993,65.1112,175,75
2026-05-09 14:57:32.110,2,1.86,-0.26,0.32,173.10999999999999,34.0718,-53.0344,175,75
2026-05-09 14:57:32.110,3,-0.25,0.09,1.26,-18.8452,-34.1622,6.6464,175,75
2026-05-09 14:57:32.110,5,0.02,-0.17,1.11,-0.5589999999999999,-19.3938,36.0272,175,75
2026-05-09 14:57:32.110,1,-0.06,0.33,0.53,-37.513999999999996,-29.3104,-3.844000000000001,175,75
2026-05-09 14:57:32.122,4,-0.26,0.47,2.16,-47.672399999999996,-14.687399999999997,63.5312,175,75
2026-05-09 14:57:32.122,2,1.87,-0.23,0.39,173.72,46.5718,-51.574400000000004,175,75
2026-05-09 14:57:32.122,3,-0.3,0.1,1.21,-18.9652,-31.542200000000005,7.5664,175,75
2026-05-09 14:57:32.132,4,-0.22,0.48,2.18,-49.502399999999994,-17.127399999999994,59.5012,175,75
2026-05-09 14:57:32.132,5,0.03,-0.19,1.08,-1.2690000000000001,-20.7338,37.437200000000004,175,75
2026-05-09 14:57:32.132,3,-0.27,0.09,1.22,-18.7852,-35.6322,5.4264,175,75
2026-05-09 14:57:32.132,1,-0.06,0.37,0.46,-33.733999999999995,-24.9204,-3.1140000000000008,175,75
2026-05-09 14:57:32.148,5,0.04,-0.21,1.07,-1.259,-21.1038,39.327200000000005,175,75
2026-05-09 14:57:32.148,3,-0.24,0.13,1.19,-19.4552,-35.0222,5.7964,175,75
2026-05-09 14:57:32.148,1,-0.02,0.35,0.48,-32.513999999999996,-24.620400000000004,-1.104000000000001,175,75
2026-05-09 14:57:32.148,2,1.8,-0.3,0.43,161.59,13.4018,-49.254400000000004,175,75
2026-05-09 14:57:32.155,4,-0.28,0.56,2.18,-49.4324,-13.707399999999993,59.081199999999995,175,75
2026-05-09 14:57:32.155,3,-0.28,0.1,1.23,-18.4852,-28.9222,7.8064,175,75
2026-05-09 14:57:32.159,5,0.05,-0.22,1.07,0.9109999999999999,-19.4638,35.3172,175,75
2026-05-09 14:57:32.184,2,1.76,-0.28,0.37,160.67,12.1818,-48.0344,175,75
2026-05-09 14:57:32.198,1,-0.02,0.34,0.48,-31.054,-24.2504,-0.18400000000000105,175,75
2026-05-09 14:57:32.198,2,1.78,-0.26,0.37,163.6,22.611800000000002,-45.4144,175,75
2026-05-09 14:57:32.198,4,-0.23,0.53,2.2,-48.58240000000001,-5.717399999999998,60.4212,175,75
2026-05-09 14:57:32.198,2,1.79,-0.23,0.41,165.13,35.4118,-43.7744,175,75
2026-05-09 14:57:32.215,5,0.04,-0.19,1.05,2.041,-12.6038,14.357199999999999,175,75
2026-05-09 14:57:32.248,5,0.07,-0.15,1.03,5.271000000000001,-11.793800000000001,9.8272,175,75
2026-05-09 14:57:32.248,1,0.0,0.37,0.48,-31.544,-24.4304,1.1559999999999988,175,75
2026-05-09 14:57:32.248,4,-0.23,0.45,2.17,-49.132400000000004,-23.277399999999993,41.0912,175,75
2026-05-09 14:57:32.248,5,0.08,-0.12,1.03,4.711,-9.1938,12.1572,175,75
2026-05-09 14:57:32.248,4,-0.26,0.49,2.18,-49.502399999999994,-20.477399999999996,39.8712,175,75
2026-05-09 14:57:32.258,5,0.08,-0.13,1.03,3.671,-6.1137999999999995,16.4772,175,75
2026-05-09 14:57:32.258,4,-0.23,0.53,2.16,-51.392399999999995,-14.497399999999999,38.3512,175,75
2026-05-09 14:57:32.258,2,1.77,-0.25,0.47,165.74,10.781799999999999,-43.2244,175,75
2026-05-09 14:57:32.258,1,-0.03,0.46,0.53,-32.513999999999996,-26.450400000000002,1.7059999999999995,175,75
2026-05-09 14:57:32.269,5,0.07,-0.13,1.02,2.811,-2.7438000000000002,22.307199999999998,175,75
2026-05-09 14:57:32.269,3,-0.23,0.12,1.34,-23.1152,-73.13220000000001,15.676400000000001,175,75
2026-05-09 14:57:32.269,2,1.72,-0.24,0.38,161.65,5.9018,-40.4744,175,75
2026-05-09 14:57:32.269,4,-0.2,0.53,2.14,-52.61240000000001,-9.687399999999997,35.6012,175,75
2026-05-09 14:57:32.284,4,-0.21,0.51,2.13,-52.4824,-5.237399999999994,33.4112,175,75
2026-05-09 14:57:32.284,3,-0.26,0.08,1.18,-26.8352,-67.52220000000001,18.2364,175,75
2026-05-09 14:57:32.284,2,1.72,-0.25,0.37,164.52,34.3718,-34.5644,175,75
2026-05-09 14:57:32.294,4,-0.24,0.45,2.17,-51.752399999999994,0.07260000000000844,30.6012,175,75
2026-05-09 14:57:32.294,3,-0.24,0.07,1.17,-26.4052,-58.1922,17.6864,175,75
2026-05-09 14:57:32.294,1,-0.1,0.48,0.51,-29.894000000000002,-24.3704,3.4759999999999973,175,75
2026-05-09 14:57:32.294,2,1.76,-0.27,0.44,169.88,35.0518,-33.2244,175,75
2026-05-09 14:57:32.294,4,-0.23,0.44,2.22,-51.5124,-2.6073999999999984,26.331200000000003,175,75
2026-05-09 14:57:32.294,5,0.01,-0.13,1.07,0.07099999999999995,-2.3038,24.5072,175,75
2026-05-09 14:57:32.309,4,-0.22,0.43,2.23,-53.58240000000001,-16.517399999999995,18.1012,175,75
2026-05-09 14:57:32.309,3,-0.27,0.14,1.2,-23.965200000000003,-44.65220000000001,17.8064,175,75
2026-05-09 14:57:32.309,5,0.01,-0.12,1.08,0.721,-4.0138,23.8572,175,75
2026-05-09 14:57:32.309,1,-0.1,0.45,0.52,-30.074,-23.6404,3.4759999999999973,175,75
2026-05-09 14:57:32.309,3,-0.23,0.13,1.29,-22.3852,-44.29220000000001,19.1464,175,75
2026-05-09 14:57:32.322,1,-0.1,0.45,0.54,-31.604000000000003,-23.2104,2.615999999999998,175,75
2026-05-09 14:57:32.322,5,0.0,-0.09,1.07,1.721,-7.7738,26.3872,175,75
2026-05-09 14:57:32.322,3,-0.24,0.13,1.33,-21.8352,-48.01220000000001,19.266399999999997,175,75
2026-05-09 14:57:32.322,4,-0.25,0.48,2.13,-55.72240000000001,-24.987399999999994,7.491200000000001,175,75
2026-05-09 14:57:32.332,1,-0.1,0.44,0.51,-33.254000000000005,-24.3704,2.435999999999998,175,75
2026-05-09 14:57:32.332,2,1.66,-0.15,0.46,168.35999999999999,-2.2081999999999997,-30.114400000000003,175,75
2026-05-09 14:57:32.332,5,0.01,-0.1,1.07,1.951,-10.543800000000001,30.1272,175,75
2026-05-09 14:57:32.332,4,-0.27,0.46,2.1,-54.9824,-18.527399999999993,5.1112,175,75
2026-05-09 14:57:32.332,1,-0.1,0.43,0.51,-34.403999999999996,-22.790399999999998,1.2759999999999998,175,75
2026-05-09 14:57:32.332,2,1.67,-0.17,0.43,166.77,-2.3881999999999994,-26.2044,175,75
2026-05-09 14:57:32.343,5,0.02,-0.09,1.07,1.841,-13.3038,34.4572,175,75
2026-05-09 14:57:32.343,3,-0.27,0.13,1.4,-22.5052,-63.982200000000006,22.4364,175,75
2026-05-09 14:57:32.343,1,-0.12,0.4,0.54,-35.754000000000005,-20.590400000000002,0.2959999999999994,175,75
2026-05-09 14:57:32.343,5,0.03,-0.1,1.06,1.7109999999999999,-14.3138,37.537200000000006,175,75
2026-05-09 14:57:32.343,2,1.69,-0.23,0.42,164.09,0.05180000000000007,-23.464399999999998,175,75
2026-05-09 14:57:32.355,1,-0.08,0.37,0.56,-37.824,-21.7504,-1.0440000000000005,175,75
2026-05-09 14:57:32.355,5,0.04,-0.11,1.04,1.531,-15.5638,39.7372,175,75
2026-05-09 14:57:32.355,4,-0.27,0.47,2.14,-55.72240000000001,-5.417400000000001,0.42120000000000024,175,75
2026-05-09 14:57:32.355,1,-0.1,0.35,0.55,-39.95400000000001,-23.2104,-1.7140000000000004,175,75
2026-05-09 14:57:32.368,5,0.06,-0.12,1.03,1.221,-16.3238,40.5572,175,75
2026-05-09 14:57:32.368,2,1.72,-0.25,0.43,169.27,-6.6582,-23.7044,175,75
2026-05-09 14:57:32.368,4,-0.3,0.45,2.16,-56.2624,-5.237399999999994,-2.0787999999999993,175,75
2026-05-09 14:57:32.380,3,-0.25,0.1,1.27,-29.1552,-78.8022,26.586399999999998,175,75
2026-05-09 14:57:32.380,1,-0.12,0.36,0.54,-42.884,-27.120400000000004,-3.4840000000000018,175,75
2026-05-09 14:57:32.380,5,0.06,-0.13,1.03,-0.129,-12.4738,40.5272,175,75
2026-05-09 14:57:32.380,1,-0.11,0.37,0.53,-44.534000000000006,-25.590400000000002,-4.574000000000002,175,75
2026-05-09 14:57:32.398,5,0.06,-0.13,1.03,-0.5390000000000001,-11.7238,41.117200000000004,175,75
2026-05-09 14:57:32.398,1,-0.1,0.41,0.52,-47.394000000000005,-30.290399999999998,-4.274000000000001,175,75
2026-05-09 14:57:32.398,4,-0.3,0.37,2.18,-55.11240000000001,-13.157399999999996,-9.3988,175,75
2026-05-09 14:57:32.404,5,0.06,-0.14,1.03,0.08099999999999996,-12.1938,42.217200000000005,175,75
2026-05-09 14:57:32.404,1,-0.1,0.44,0.51,-49.284000000000006,-29.980400000000003,-5.734000000000002,175,75
2026-05-09 14:57:32.412,5,0.06,-0.13,1.02,0.5409999999999999,-12.1438,42.297200000000004,175,75
2026-05-09 14:57:32.412,1,-0.12,0.45,0.5,-51.664,-30.9604,-7.744000000000001,175,75
2026-05-09 14:57:32.428,5,0.05,-0.12,1.03,0.46099999999999997,-11.4938,41.827200000000005,175,75
2026-05-09 14:57:32.428,4,-0.3,0.36,2.16,-56.752399999999994,-23.527399999999993,-16.348799999999997,175,75
2026-05-09 14:57:32.434,1,-0.09,0.42,0.52,-54.653999999999996,-33.7004,-10.614,175,75
2026-05-09 14:57:32.434,4,-0.33,0.4,2.11,-58.642399999999995,-27.307399999999994,-19.888799999999996,175,75
2026-05-09 14:57:32.449,4,-0.4,0.38,2.07,-55.47240000000001,-5.357399999999998,-17.2588,175,75
2026-05-09 14:57:32.449,4,-0.39,0.34,2.15,-53.032399999999996,1.6625999999999976,-18.058799999999998,175,75
2026-05-09 14:57:32.449,5,0.05,-0.1,1.0,0.18099999999999994,-11.3938,46.4072,175,75
2026-05-09 14:57:32.464,2,1.64,-0.24,0.32,163.3,-11.9682,-16.6944,175,75
2026-05-09 14:57:32.464,4,-0.35,0.33,2.17,-53.032399999999996,-10.537399999999998,-24.458799999999997,175,75
2026-05-09 14:57:32.464,5,0.04,-0.1,1.01,0.10099999999999998,-13.533800000000001,49.4472,175,75
2026-05-09 14:57:32.464,1,-0.12,0.43,0.51,-63.254000000000005,-39.0104,-14.334000000000001,175,75
2026-05-09 14:57:32.472,2,1.69,-0.24,0.37,166.89,-1.7782,-13.7744,175,75
2026-05-09 14:57:32.491,5,0.05,-0.12,1.01,-0.5090000000000001,-18.8838,53.187200000000004,175,75
2026-05-09 14:57:32.491,3,-0.3,0.12,1.11,-13.115200000000002,-6.482200000000002,19.9964,175,75
2026-05-09 14:57:32.491,1,-0.12,0.49,0.5,-66.904,-39.0104,-13.484000000000002,175,75
2026-05-09 14:57:32.491,2,1.73,-0.36,0.44,162.63,-30.688200000000002,-19.6244,175,75
2026-05-09 14:57:32.503,1,-0.14,0.51,0.51,-66.974,-38.5804,-13.784,175,75
2026-05-09 14:57:32.503,5,0.07,-0.13,1.0,-1.4090000000000003,-22.2138,53.0172,175,75
2026-05-09 14:57:32.503,3,-0.35,0.11,1.12,-9.825199999999999,-3.9822000000000024,21.276400000000002,175,75
2026-05-09 14:57:32.514,1,-0.16,0.49,0.5,-65.264,-37.4204,-16.044,175,75
2026-05-09 14:57:32.514,3,-0.36,0.09,1.17,-7.325200000000001,1.3177999999999983,18.656399999999998,175,75
2026-05-09 14:57:32.514,2,1.68,-0.35,0.31,163.6,-54.5882,-23.7044,175,75
2026-05-09 14:57:32.524,1,-0.15,0.49,0.49,-64.774,-38.2704,-18.234,175,75
2026-05-09 14:57:32.524,5,0.08,-0.14,1.0,-2.239,-25.0538,50.0272,175,75
2026-05-09 14:57:32.524,3,-0.33,0.09,1.22,-5.0052,-0.382200000000001,15.366399999999999,175,75
2026-05-09 14:57:32.524,2,1.64,-0.29,0.23,160.60999999999999,-50.688199999999995,-23.644399999999997,175,75
2026-05-09 14:57:32.538,5,0.11,-0.16,1.0,-1.859,-26.8938,49.3772,175,75
2026-05-09 14:57:32.538,4,-0.54,0.32,2.11,-53.4624,0.3726000000000056,-32.1388,175,75
2026-05-09 14:57:32.538,3,-0.34,0.13,1.2,-4.0952,-10.632200000000001,15.426400000000001,175,75
2026-05-09 14:57:32.538,1,-0.1,0.59,0.45,-65.874,-39.9804,-16.284000000000002,175,75
2026-05-09 14:57:32.549,5,0.13,-0.17,0.98,-1.3290000000000002,-27.1438,48.937200000000004,175,75
2026-05-09 14:57:32.549,2,1.62,-0.26,0.2,159.76,-22.8782,-20.3544,175,75
2026-05-09 14:57:32.549,3,-0.35,0.12,1.13,-1.4052000000000007,-12.4022,15.0664,175,75
2026-05-09 14:57:32.549,5,0.14,-0.17,0.98,-0.5390000000000001,-24.6338,47.9172,175,75
2026-05-09 14:57:32.559,2,1.66,-0.31,0.22,162.69,1.6318000000000001,-15.904400000000003,175,75
2026-05-09 14:57:32.559,3,-0.36,0.1,1.1,-0.18520000000000003,-8.802200000000003,13.7164,175,75
2026-05-09 14:57:32.565,1,-0.08,0.66,0.44,-68.554,-40.0404,-13.484000000000002,175,75
2026-05-09 14:57:32.589,5,0.11,-0.19,0.97,-1.2690000000000001,-10.7538,39.297200000000004,175,75
2026-05-09 14:57:32.589,3,-0.37,0.14,1.14,7.4348,7.597799999999998,14.2064,175,75
2026-05-09 14:57:32.600,5,0.1,-0.19,0.99,-2.529,-8.7238,35.7772,175,75
2026-05-09 14:57:32.600,1,-0.12,0.67,0.42,-67.944,-42.660399999999996,-10.674000000000001,175,75
2026-05-09 14:57:32.600,5,0.1,-0.18,1.01,-3.709,-9.8438,33.2072,175,75
2026-05-09 14:57:32.611,1,-0.12,0.66,0.43,-66.844,-42.480399999999996,-10.244000000000002,175,75
2026-05-09 14:57:32.611,3,-0.32,0.17,1.17,12.4948,11.377799999999997,9.0264,175,75
2026-05-09 14:57:32.611,5,0.12,-0.19,1.05,-3.2689999999999997,-13.2738,31.5272,175,75
2026-05-09 14:57:32.628,5,0.15,-0.18,1.07,-2.429,-15.5238,30.6372,175,75
2026-05-09 14:57:32.628,1,-0.15,0.6,0.44,-63.554,-43.8804,-8.354000000000001,175,75
2026-05-09 14:57:32.628,2,1.68,-0.41,0.21,154.94,-26.3582,-24.3144,175,75
2026-05-09 14:57:32.641,4,-0.57,0.23,2.05,-44.0724,-13.157399999999996,-28.608800000000002,175,75
2026-05-09 14:57:32.641,1,-0.17,0.59,0.41,-62.214,-42.3604,-6.224000000000001,175,75
2026-05-09 14:57:32.657,5,0.12,-0.18,1.06,-3.329,-16.4938,30.7272,175,75
2026-05-09 14:57:32.684,1,-0.15,0.6,0.4,-58.123999999999995,-36.8104,-2.014000000000001,175,75
2026-05-09 14:57:32.684,5,0.08,-0.21,1.02,-3.019,-15.5938,31.997199999999996,175,75
2026-05-09 14:57:32.696,2,1.72,-0.47,0.24,159.09,-13.3682,-24.684400000000004,175,75
2026-05-09 14:57:32.696,1,-0.14,0.63,0.42,-56.544,-32.6604,0.7859999999999996,175,75
2026-05-09 14:57:32.696,5,0.09,-0.21,1.01,-2.849,-14.873800000000001,30.4772,175,75
2026-05-09 14:57:32.696,4,-0.57,0.24,2.04,-43.58240000000001,-6.087400000000002,-24.458799999999997,175,75
2026-05-09 14:57:32.703,3,-0.43,0.14,1.2,7.6148,-7.152200000000001,9.3864,175,75
2026-05-09 14:57:32.727,3,-0.34,0.14,1.15,9.3848,0.5277999999999992,5.2463999999999995,175,75
2026-05-09 14:57:32.727,1,-0.14,0.67,0.45,-53.554,-30.650399999999998,3.2859999999999996,175,75
2026-05-09 14:57:32.727,4,-0.51,0.19,2.12,-37.36240000000001,-5.047399999999996,-14.888799999999998,175,75
2026-05-09 14:57:32.738,2,1.73,-0.54,0.31,158.42,-29.888199999999998,-28.834400000000002,175,75
2026-05-09 14:57:32.738,5,0.12,-0.19,1.04,-4.899000000000001,-14.543800000000001,22.577199999999998,175,75
2026-05-09 14:57:32.738,4,-0.51,0.16,2.1,-36.692400000000006,-7.547399999999996,-15.248800000000001,175,75
2026-05-09 14:57:32.748,1,-0.21,0.72,0.45,-50.994,-26.510399999999997,4.086,175,75
2026-05-09 14:57:32.748,2,1.7,-0.49,0.28,156.1,-38.3082,-28.464399999999998,175,75
2026-05-09 14:57:32.748,4,-0.5,0.15,2.08,-36.8724,-6.517399999999995,-16.528799999999997,175,75
2026-05-09 14:57:32.748,5,0.15,-0.19,1.04,-6.179,-14.4038,18.2872,175,75
2026-05-09 14:57:32.748,1,-0.17,0.72,0.48,-50.144000000000005,-26.200400000000002,5.365999999999998,175,75
2026-05-09 14:57:32.760,4,-0.48,0.14,2.06,-37.36240000000001,-6.447400000000002,-18.4788,175,75
2026-05-09 14:57:32.783,1,-0.21,0.71,0.49,-49.284000000000006,-29.620400000000004,6.8859999999999975,175,75
2026-05-09 14:57:32.791,2,1.69,-0.48,0.19,150.74,-35.6882,-26.8744,175,75
2026-05-09 14:57:32.791,4,-0.52,0.19,2.05,-34.86240000000001,-8.587399999999995,-17.998800000000003,175,75
2026-05-09 14:57:32.791,2,1.68,-0.53,0.14,148.24,-15.9282,-25.964399999999998,175,75
2026-05-09 14:57:32.802,3,-0.33,0.17,1.12,13.6548,8.817799999999998,12.866399999999999,175,75
2026-05-09 14:57:32.802,1,-0.27,0.57,0.39,-44.044,-21.2604,8.955999999999998,175,75
2026-05-09 14:57:32.802,5,0.12,-0.21,1.06,-6.0489999999999995,-14.4238,23.9672,175,75
2026-05-09 14:57:32.807,4,-0.43,0.18,2.04,-31.202400000000004,-4.807400000000001,-16.4688,175,75
2026-05-09 14:57:32.819,3,-0.33,0.15,1.29,18.6548,35.6478,15.186399999999999,175,75
2026-05-09 14:57:32.820,5,0.11,-0.24,1.04,-5.159000000000001,-15.6638,25.1972,175,75
2026-05-09 14:57:32.837,5,0.09,-0.25,1.02,0.21099999999999997,-16.2338,16.147199999999998,175,75
2026-05-09 14:57:32.837,1,-0.2,0.5,0.38,-38.794,-11.2604,9.816,175,75
2026-05-09 14:57:32.837,5,0.09,-0.21,0.99,2.541,-16.6438,5.8472,175,75
2026-05-09 14:57:32.837,3,-0.37,0.19,1.23,15.2348,35.0978,14.7564,175,75
2026-05-09 14:57:32.837,4,-0.4,0.1,1.98,-32.6724,1.0525999999999982,-21.8988,175,75
2026-05-09 14:57:32.849,4,-0.36,0.09,1.96,-37.002399999999994,7.752600000000001,-28.2988,175,75
2026-05-09 14:57:32.849,1,-0.07,0.77,0.43,-38.983999999999995,-12.970400000000001,12.435999999999998,175,75
2026-05-09 14:57:32.849,5,0.16,-0.11,0.97,4.7010000000000005,-11.533800000000001,-1.9128,175,75
2026-05-09 14:57:32.859,2,1.68,-0.54,0.3,148.66,7.731800000000002,-10.7244,175,75
2026-05-09 14:57:32.859,1,-0.12,0.91,0.39,-40.56400000000001,-17.540399999999998,14.696,175,75
2026-05-09 14:57:32.859,2,1.7,-0.57,0.34,145.55,-3.4282000000000004,-11.0244,175,75
2026-05-09 14:57:32.859,3,-0.39,0.18,1.27,4.2048,2.0477999999999987,19.086399999999998,175,75
2026-05-09 14:57:32.859,4,-0.37,0.13,1.97,-46.022400000000005,3.002600000000001,-44.5788,175,75
2026-05-09 14:57:32.859,2,1.7,-0.6,0.33,140.19,-17.758200000000002,-12.304400000000001,175,75
2026-05-09 14:57:32.862,2,1.67,-0.59,0.28,134.64000000000001,-17.0282,-12.7344,175,75
2026-05-09 14:57:32.876,3,-0.48,0.17,1.17,7.7947999999999995,11.6878,14.3264,175,75
2026-05-09 14:57:32.876,2,1.63,-0.57,0.26,134.33,-12.4482,-10.5944,175,75
2026-05-09 14:57:32.876,5,0.24,-0.14,1.03,-1.079,-17.663800000000002,26.8372,175,75
2026-05-09 14:57:32.876,4,-0.3,0.25,2.0,-36.2624,-19.137399999999992,-39.5788,175,75
2026-05-09 14:57:32.887,5,0.22,-0.17,1.03,-0.7790000000000001,-16.6338,31.747199999999996,175,75
2026-05-09 14:57:32.887,1,-0.21,0.71,0.37,-40.873999999999995,-14.250399999999999,19.875999999999998,175,75
2026-05-09 14:57:32.892,4,-0.28,0.15,1.95,-34.4324,-10.297399999999996,-42.8088,175,75
2026-05-09 14:57:32.892,5,0.14,-0.21,1.0,2.221,-10.0138,24.2772,175,75
2026-05-09 14:57:32.892,1,-0.22,0.67,0.39,-40.144000000000005,-11.990400000000001,20.236000000000004,175,75
2026-05-09 14:57:32.901,2,1.61,-0.53,0.26,133.36,-5.0182,-4.194400000000002,175,75
2026-05-09 14:57:32.936,2,1.63,-0.59,0.29,126.59,4.011799999999999,1.6555999999999997,175,75
2026-05-09 14:57:32.940,3,-0.39,0.18,1.26,4.9348,18.877799999999997,16.526400000000002,175,75
2026-05-09 14:57:32.951,5,0.13,-0.2,1.01,2.851,-11.203800000000001,8.1572,175,75
2026-05-09 14:57:32.951,4,-0.26,0.13,1.76,-43.7024,16.7226,-58.9688,175,75
2026-05-09 14:57:32.951,1,-0.24,0.7,0.41,-39.774,-15.2904,21.646,175,75
2026-05-09 14:57:32.951,5,0.17,-0.19,1.02,3.201,-15.2538,6.1472,175,75
2026-05-09 14:57:32.966,1,-0.24,0.71,0.41,-39.714,-15.2304,22.616,175,75
2026-05-09 14:57:32.966,5,0.21,-0.17,1.02,2.941,-18.5138,6.1972000000000005,175,75
2026-05-09 14:57:32.966,5,0.22,-0.16,1.01,1.4609999999999999,-18.9838,7.3972,175,75
2026-05-09 14:57:32.967,3,-0.44,0.18,1.26,6.3347999999999995,12.5978,14.5164,175,75
2026-05-09 14:57:32.967,4,-0.29,0.11,1.78,-43.7024,36.1726,-58.2988,175,75
2026-05-09 14:57:32.967,1,-0.22,0.7,0.47,-37.644000000000005,-13.6404,23.286,175,75
2026-05-09 14:57:32.995,4,-0.28,0.11,1.86,-43.1524,45.74260000000001,-58.7288,175,75
2026-05-09 14:57:32.995,3,-0.4,0.19,1.27,7.5548,10.767799999999998,14.2064,175,75
2026-05-09 14:57:32.995,2,1.65,-0.62,0.32,117.44,7.9718,3.4255999999999993,175,75
2026-05-09 14:57:33.006,1,-0.27,0.74,0.45,-35.263999999999996,-15.5904,26.036,175,75
2026-05-09 14:57:33.006,5,0.25,-0.17,1.01,-0.7989999999999999,-16.6038,9.6672,175,75
2026-05-09 14:57:33.006,4,-0.28,0.12,2.0,-43.7624,8.062600000000003,-72.8688,175,75
2026-05-09 14:57:33.006,5,0.24,-0.2,0.99,-3.209,-13.613800000000001,13.107199999999999,175,75
2026-05-09 14:57:33.014,1,-0.3,0.72,0.41,-32.644000000000005,-13.7604,26.826,175,75
2026-05-09 14:57:33.025,5,0.25,-0.23,0.98,-4.718999999999999,-10.9038,17.6872,175,75
2026-05-09 14:57:33.025,1,-0.27,0.69,0.35,-31.114,-8.6404,27.256,175,75
2026-05-09 14:57:33.036,2,1.66,-0.63,0.39,100.06,13.7718,14.215599999999998,175,75
2026-05-09 14:57:33.036,4,-0.19,0.06,1.86,-49.6824,-19.317399999999992,-90.4388,175,75
2026-05-09 14:57:33.036,3,-0.51,0.18,1.18,11.9448,-4.042200000000001,4.3264,175,75
2026-05-09 14:57:33.036,4,-0.15,0.01,1.78,-51.692400000000006,-16.637399999999992,-97.19879999999999,175,75
2026-05-09 14:57:33.036,1,-0.28,0.66,0.31,-29.534000000000002,-3.1504000000000003,26.945999999999998,175,75
2026-05-09 14:57:33.036,2,1.66,-0.67,0.42,96.1,13.161800000000001,14.945599999999999,175,75
2026-05-09 14:57:33.047,5,0.21,-0.28,0.99,-4.7490000000000006,-9.0238,17.6072,175,75
2026-05-09 14:57:33.047,1,-0.25,0.63,0.33,-28.733999999999998,-1.6904000000000003,26.276000000000003,175,75
2026-05-09 14:57:33.047,1,-0.26,0.66,0.34,-28.733999999999998,-1.4504000000000001,25.236000000000004,175,75
2026-05-09 14:57:33.047,5,0.24,-0.28,1.02,-3.079,-9.0238,-3.4528,175,75
2026-05-09 14:57:33.059,3,-0.52,0.16,1.15,12.5548,-7.2722000000000016,1.4063999999999997,175,75
2026-05-09 14:57:33.059,5,0.26,-0.27,1.01,-1.8290000000000002,-4.643800000000001,-14.4228,175,75
2026-05-09 14:57:33.059,2,1.71,-0.71,0.43,88.48,5.9018,15.4956,175,75
2026-05-09 14:57:33.059,4,-0.11,-0.05,1.68,-60.2924,-6.6373999999999995,-112.5088,175,75
2026-05-09 14:57:33.071,2,1.66,-0.72,0.43,87.87,8.5218,16.165599999999998,175,75
2026-05-09 14:57:33.071,5,0.26,-0.24,1.01,-0.9990000000000001,0.05620000000000003,-20.5228,175,75
2026-05-09 14:57:33.071,4,-0.09,-0.07,1.69,-71.2024,8.062600000000003,-127.1388,175,75
2026-05-09 14:57:33.071,2,1.62,-0.69,0.44,86.1,19.4418,18.7956,175,75
2026-05-09 14:57:33.071,5,0.25,-0.23,1.0,-1.439,2.4362,-21.0628,175,75
2026-05-09 14:57:33.082,4,-0.06,-0.09,1.68,-74.9824,4.702600000000004,-134.7588,175,75
2026-05-09 14:57:33.116,3,-0.36,0.18,1.19,12.794799999999999,-11.602200000000003,0.7964000000000002,175,75
2026-05-09 14:57:33.116,4,-0.06,-0.1,1.68,-78.4624,1.7226,-141.03879999999998,175,75
2026-05-09 14:57:33.116,5,0.25,-0.23,1.01,-2.979,2.7862,-9.802800000000001,175,75
2026-05-09 14:57:33.164,4,-0.07,-0.09,1.68,-82.36240000000001,2.9425999999999988,-145.5588,175,75
2026-05-09 14:57:33.164,5,0.23,-0.24,1.01,-2.489,2.6462,-6.3628,175,75
2026-05-09 14:57:33.164,1,-0.27,0.8,0.41,-20.624,0.019600000000000506,23.166000000000004,175,75
2026-05-09 14:57:33.164,2,1.66,-0.74,0.57,78.91,46.3318,26.415599999999998,175,75
2026-05-09 14:57:33.164,3,-0.44,0.2,1.34,14.9348,2.3577999999999975,5.2463999999999995,175,75
2026-05-09 14:57:33.164,5,0.2,-0.24,1.02,-1.649,3.3362000000000003,-7.3027999999999995,175,75
2026-05-09 14:57:33.168,1,-0.27,0.84,0.4,-18.314,5.4496,22.616,175,75
2026-05-09 14:57:33.208,4,-0.02,-0.1,1.67,-90.1724,4.2226,-156.7788,175,75
2026-05-09 14:57:33.208,1,-0.24,0.88,0.41,-16.364,4.7096,23.956000000000003,175,75
2026-05-09 14:57:33.208,5,0.2,-0.24,1.03,0.17099999999999993,0.9362000000000001,-18.0428,175,75
2026-05-09 14:57:33.252,5,0.2,-0.22,1.03,1.911,1.4962,-21.5528,175,75
2026-05-09 14:57:33.252,1,-0.22,0.91,0.39,-14.894000000000002,2.6395999999999997,26.706000000000003,175,75
2026-05-09 14:57:33.252,5,0.21,-0.2,1.02,3.251,3.5662,-22.8128,175,75
2026-05-09 14:57:33.252,1,-0.25,0.93,0.38,-13.314,-0.5304000000000002,25.976,175,75
2026-05-09 14:57:33.252,3,-0.4,0.21,1.35,9.2648,2.537799999999999,2.8064,175,75
2026-05-09 14:57:33.252,4,-0.09,-0.09,1.61,-99.7424,-0.7774000000000001,-164.6988,175,75
2026-05-09 14:57:33.263,2,1.64,-0.76,0.65,72.56,35.6618,29.885599999999997,175,75
2026-05-09 14:57:33.263,2,1.65,-0.75,0.69,72.32,36.6318,37.6956,175,75
2026-05-09 14:57:33.263,1,-0.25,0.93,0.35,-11.904,1.2995999999999999,26.336,175,75
2026-05-09 14:57:33.274,5,0.22,-0.16,1.06,2.881,0.15620000000000012,-22.262800000000002,175,75
2026-05-09 14:57:33.274,2,1.7,-0.84,0.65,68.3,16.5118,44.705600000000004,175,75
2026-05-09 14:57:33.274,2,1.69,-0.82,0.65,67.87,22.671800000000005,47.4456,175,75
2026-05-09 14:57:33.286,1,-0.29,0.86,0.39,-10.994000000000003,-7.420400000000001,28.406,175,75
2026-05-09 14:57:33.286,5,0.19,-0.17,1.01,-0.7690000000000001,2.0862000000000003,-4.682799999999999,175,75
2026-05-09 14:57:33.286,5,0.2,-0.18,1.03,0.5309999999999999,-1.8237999999999999,-6.1528,175,75
2026-05-09 14:57:33.286,1,-0.27,0.91,0.4,-9.894000000000002,-4.6204,28.536,175,75
2026-05-09 14:57:33.286,5,0.22,-0.16,1.05,2.0709999999999997,-3.8238,-10.6728,175,75
2026-05-09 14:57:33.286,2,1.82,-0.9,0.68,64.27,20.6618,53.7956,175,75
2026-05-09 14:57:33.301,5,0.19,-0.05,1.04,3.691,10.5862,-25.7228,175,75
2026-05-09 14:57:33.301,2,1.78,-0.95,0.67,62.199999999999996,25.0518,55.3756,175,75
2026-05-09 14:57:33.301,4,-0.12,-0.12,1.61,-107.3024,117.14260000000002,-118.5388,175,75
2026-05-09 14:57:33.301,3,-0.62,0.19,1.05,2.6148,36.2578,10.426400000000001,175,75
2026-05-09 14:57:33.301,1,-0.15,0.91,0.39,-7.944000000000003,-6.510400000000001,32.196,175,75
2026-05-09 14:57:33.301,2,1.68,-0.91,0.76,64.15,52.061800000000005,63.8556,175,75
2026-05-09 14:57:33.312,5,0.22,-0.05,1.05,-3.289,7.0962,-8.3628,175,75
2026-05-09 14:57:33.312,4,-0.11,-0.12,1.65,-102.73240000000001,124.2826,-110.1888,175,75
2026-05-09 14:57:33.312,4,-0.15,-0.13,1.64,-98.1524,117.14260000000002,-107.38879999999999,175,75
2026-05-09 14:57:33.312,2,1.69,-0.92,0.79,61.349999999999994,54.311800000000005,68.1856,175,75
2026-05-09 14:57:33.312,1,-0.2,0.99,0.38,-8.984000000000002,-11.6304,34.696,175,75
2026-05-09 14:57:33.332,2,1.73,-0.95,0.81,60.55,46.6318,71.1656,175,75
2026-05-09 14:57:33.332,4,-0.3,-0.13,1.8,-80.72240000000001,110.3726,-91.0388,175,75
2026-05-09 14:57:33.332,5,0.23,-0.18,1.09,-3.959,10.956199999999999,8.6672,175,75
2026-05-09 14:57:33.332,1,-0.22,0.96,0.38,-10.874000000000002,-10.3504,34.696,175,75
2026-05-09 14:57:33.332,2,1.76,-0.99,0.82,60.37,38.7718,72.6956,175,75
2026-05-09 14:57:33.339,5,0.21,-0.2,1.12,-0.20900000000000007,14.4062,-0.2328,175,75
2026-05-09 14:57:33.339,2,1.81,-1.04,0.83,59.519999999999996,29.681800000000003,72.57560000000001,175,75
2026-05-09 14:57:33.379,4,-0.07,-0.23,1.71,-71.2024,57.1426,-103.72879999999999,175,75
2026-05-09 14:57:33.379,5,0.17,-0.21,1.11,2.951,17.5962,-10.302800000000001,175,75
2026-05-09 14:57:33.379,1,-0.31,1.0,0.41,-10.564,-13.6404,36.336,175,75
2026-05-09 14:57:33.379,5,0.14,-0.2,1.11,4.861000000000001,19.8662,-18.5028,175,75
2026-05-09 14:57:33.379,4,0.07,-0.2,1.72,-67.97240000000001,67.7526,-85.91879999999999,175,75
2026-05-09 14:57:33.391,4,-0.24,-0.24,1.86,-41.3224,138.2426,-68.96879999999999,175,75
2026-05-09 14:57:33.391,5,0.13,-0.18,1.14,6.521000000000001,18.4362,-22.9928,175,75
2026-05-09 14:57:33.391,1,-0.3,0.95,0.42,-7.944000000000003,-17.3604,39.446,175,75
2026-05-09 14:57:33.391,4,0.02,-0.37,1.99,-24.562400000000004,155.2526,-46.7188,175,75
2026-05-09 14:57:33.391,5,0.15,-0.15,1.17,7.2010000000000005,14.4362,-24.5228,175,75
2026-05-09 14:57:33.400,5,0.18,-0.13,1.18,7.981,11.5662,-23.5728,175,75
2026-05-09 14:57:33.400,2,1.72,-1.12,0.87,56.28,15.781799999999999,65.62559999999999,175,75
2026-05-09 14:57:33.411,4,0.15,-0.85,2.32,19.9576,102.33260000000001,-59.6988,175,75
2026-05-09 14:57:33.411,4,0.17,-0.61,1.79,-13.1524,-55.417399999999994,-94.63879999999999,175,75
2026-05-09 14:57:33.411,2,1.76,-1.11,0.82,47.32,0.9618000000000002,63.9756,175,75
2026-05-09 14:57:33.411,1,-0.29,0.98,0.39,-7.514000000000003,-18.400399999999998,37.496,175,75
2026-05-09 14:57:33.411,3,-0.46,0.22,1.26,-2.0752000000000006,0.03779999999999717,-7.3736,175,75
2026-05-09 14:57:33.411,2,1.83,-1.12,0.76,46.47,-4.3382,60.8056,175,75
2026-05-09 14:57:33.422,5,0.22,-0.07,1.17,5.401,7.886199999999999,-11.6028,175,75
2026-05-09 14:57:33.422,1,-0.27,0.94,0.44,-8.984000000000002,-20.1004,35.786,175,75
2026-05-09 14:57:33.422,3,-0.47,0.19,1.22,-1.8952000000000009,3.757799999999998,-4.813599999999999,175,75
2026-05-09 14:57:33.422,5,0.23,-0.07,1.18,3.081,9.1762,-7.8027999999999995,175,75
2026-05-09 14:57:33.436,5,0.23,-0.09,1.19,1.811,9.9462,-5.1728,175,75
2026-05-09 14:57:33.436,4,0.0,0.2,0.86,-43.7024,-4.557400000000001,-62.748799999999996,175,75
2026-05-09 14:57:33.436,1,-0.35,1.04,0.31,-8.374000000000002,-21.6304,30.116,175,75
2026-05-09 14:57:33.436,5,0.25,-0.13,1.21,0.721,9.6962,-3.1328,175,75
2026-05-09 14:57:33.436,2,1.88,-1.19,0.81,43.239999999999995,34.5018,37.8156,175,75
2026-05-09 14:57:33.436,4,0.05,0.09,0.97,-32.7924,81.5926,-24.3388,175,75
2026-05-09 14:57:33.447,3,-0.46,0.25,1.23,-0.43520000000000003,7.597799999999998,-9.0236,175,75
2026-05-09 14:57:33.447,5,0.24,-0.16,1.23,0.43099999999999994,9.8262,-2.2028,175,75
2026-05-09 14:57:33.447,3,-0.42,0.25,1.27,-1.4052000000000007,5.347799999999998,-8.4736,175,75
2026-05-09 14:57:33.447,1,-0.33,1.03,0.48,-9.104000000000003,-14.1904,27.316000000000003,175,75
2026-05-09 14:57:33.457,5,0.23,-0.19,1.24,0.851,10.126199999999999,-3.2927999999999997,175,75
2026-05-09 14:57:33.457,3,-0.45,0.27,1.29,-2.565200000000001,5.287799999999999,-4.813599999999999,175,75
2026-05-09 14:57:33.457,2,2.05,-1.21,1.03,30.490000000000002,-40.8682,11.1656,175,75
2026-05-09 14:57:33.457,4,0.16,-0.23,1.88,-15.112400000000001,106.5326,1.1512000000000002,175,75
2026-05-09 14:57:33.457,1,-0.31,1.13,0.45,-6.7840000000000025,-21.5104,26.826,175,75
2026-05-09 14:57:33.477,3,-0.47,0.25,1.29,-2.7552000000000003,9.487799999999998,-3.3536,175,75
2026-05-09 14:57:33.477,4,0.16,-0.22,2.05,-20.1124,23.732600000000005,-22.0788,175,75
2026-05-09 14:57:33.477,1,-0.43,1.08,0.42,-5.264000000000003,-16.1404,27.866,175,75
2026-05-09 14:57:33.477,5,0.2,-0.18,1.26,3.8409999999999997,12.8062,-11.7628,175,75
2026-05-09 14:57:33.477,2,1.97,-1.09,0.56,-20.48,-165.7482,7.515599999999999,175,75
2026-05-09 14:57:33.477,3,-0.45,0.22,1.29,-1.8352000000000004,9.307799999999999,-4.8736,175,75
2026-05-09 14:57:33.489,5,0.21,-0.15,1.26,4.361,13.5662,-14.7028,175,75
2026-05-09 14:57:33.503,1,-0.33,1.1,0.45,-5.324000000000002,-13.9504,28.776000000000003,175,75
2026-05-09 14:57:33.503,1,-0.35,1.07,0.46,-4.1640000000000015,-12.9104,27.125999999999998,175,75
2026-05-09 14:57:33.503,5,0.2,-0.14,1.25,3.1109999999999998,14.7562,-14.802800000000001,175,75
2026-05-09 14:57:33.506,4,0.06,0.06,1.62,-17.3624,-66.6374,-49.1488,175,75
2026-05-09 14:57:33.506,4,0.08,0.14,1.42,-15.352400000000003,-70.2974,-45.6188,175,75
2026-05-09 14:57:33.508,2,1.71,-0.85,-0.13,-38.59,17.181800000000003,-8.2244,175,75
2026-05-09 14:57:33.513,5,0.19,-0.12,1.24,1.541,15.856200000000001,-13.0328,175,75
2026-05-09 14:57:33.513,1,-0.37,1.08,0.45,-2.394000000000002,-16.9904,26.216,175,75
2026-05-09 14:57:33.513,4,0.09,0.17,1.28,-13.212400000000002,-53.947399999999995,-34.2188,175,75
2026-05-09 14:57:33.514,3,-0.43,0.21,1.26,-1.1652000000000005,15.037799999999997,-1.8236000000000008,175,75
2026-05-09 14:57:33.522,3,-0.45,0.22,1.21,-2.3851999999999993,12.8478,-0.7336000000000009,175,75
2026-05-09 14:57:33.522,5,0.18,-0.12,1.22,0.39099999999999996,15.4862,-8.2828,175,75
2026-05-09 14:57:33.528,3,-0.44,0.23,1.24,-0.6151999999999997,14.857799999999997,-1.1536000000000008,175,75
2026-05-09 14:57:33.541,1,-0.36,1.04,0.41,-0.014000000000001123,-13.7604,25.846000000000004,175,75
2026-05-09 14:57:33.541,2,1.84,-0.81,0.02,-17.439999999999998,148.6418,0.6855999999999991,175,75
2026-05-09 14:57:33.541,2,1.85,-0.85,0.45,-7.19,213.6418,3.185599999999999,175,75
2026-05-09 14:57:33.541,4,0.16,0.12,1.34,-0.8424000000000014,17.7526,0.05120000000000058,175,75
2026-05-09 14:57:33.541,1,-0.35,1.04,0.34,3.3359999999999985,-13.580400000000001,24.206000000000003,175,75
2026-05-09 14:57:33.541,2,1.8,-0.92,0.82,-7.249999999999999,223.1618,-4.624400000000001,175,75
2026-05-09 14:57:33.552,4,0.22,0.06,1.53,4.8276,25.07260000000001,4.8112,175,75
2026-05-09 14:57:33.552,5,0.17,-0.13,1.24,-0.05900000000000005,11.4362,-3.9728,175,75
2026-05-09 14:57:33.552,3,-0.39,0.2,1.29,-1.1052,8.207799999999999,0.7363999999999997,175,75
2026-05-09 14:57:33.552,3,-0.46,0.18,1.23,-2.2652,-6.912200000000002,-0.6135999999999999,175,75
2026-05-09 14:57:33.552,1,-0.32,1.05,0.35,3.3359999999999985,-8.2704,23.286,175,75
2026-05-09 14:57:33.562,5,0.18,-0.14,1.23,-0.28900000000000015,10.6462,-2.4427999999999996,175,75
2026-05-09 14:57:33.563,4,0.28,-0.02,1.71,12.087599999999998,-1.7573999999999899,-4.088799999999999,175,75
2026-05-09 14:57:33.563,2,1.7,-0.95,1.29,-19.81,149.3718,-20.294400000000003,175,75
2026-05-09 14:57:33.563,3,-0.49,0.16,1.1,-0.5551999999999992,-28.4922,-11.403599999999999,175,75
2026-05-09 14:57:33.565,1,-0.29,1.05,0.37,2.725999999999999,-9.4304,22.125999999999998,175,75
2026-05-09 14:57:33.576,5,0.17,-0.17,1.2,-1.5390000000000001,8.0262,4.0072,175,75
2026-05-09 14:57:33.576,3,-0.46,0.2,1.17,0.7248000000000001,-8.4922,-6.823600000000001,175,75
2026-05-09 14:57:33.587,1,-0.3,1.06,0.38,3.2159999999999975,-8.2104,21.276000000000003,175,75
2026-05-09 14:57:33.587,5,0.16,-0.19,1.19,-1.4889999999999999,7.1462,6.8072,175,75
2026-05-09 14:57:33.587,4,0.29,-0.01,1.43,22.937599999999996,-43.8274,-24.458799999999997,175,75
2026-05-09 14:57:33.587,1,-0.31,1.11,0.39,3.025999999999998,-7.420400000000001,21.216,175,75
2026-05-09 14:57:33.593,3,-0.43,0.17,1.2,1.9447999999999999,-13.5622,-7.4336,175,75
2026-05-09 14:57:33.608,2,1.64,-0.92,0.91,-21.83,-65.3182,6.0455999999999985,175,75
2026-05-09 14:57:33.608,3,-0.46,0.17,1.16,2.7947999999999995,-23.192200000000003,-9.4536,175,75
2026-05-09 14:57:33.615,2,1.65,-0.92,0.79,-25.91,-57.758199999999995,4.275599999999999,175,75
2026-05-09 14:57:33.615,5,0.16,-0.2,1.16,-0.049000000000000044,4.5562000000000005,4.5572,175,75
2026-05-09 14:57:33.615,1,-0.3,1.13,0.47,4.315999999999999,-2.4804000000000004,21.706000000000003,175,75
2026-05-09 14:57:33.615,3,-0.46,0.19,1.1,3.1647999999999996,-13.3122,-10.5436,175,75
2026-05-09 14:57:33.627,2,1.67,-0.89,0.7,-25.539999999999996,-39.5882,4.1556,175,75
2026-05-09 14:57:33.627,4,0.34,0.04,1.59,31.4776,-8.277399999999993,-14.3988,175,75
2026-05-09 14:57:33.627,1,-0.31,1.18,0.54,3.5159999999999982,-5.2904,23.406,175,75
2026-05-09 14:57:33.641,2,1.68,-0.89,0.63,-20.119999999999997,-18.0582,4.1556,175,75
2026-05-09 14:57:33.641,4,0.32,0.03,1.64,31.107599999999998,-16.447399999999995,-19.7588,175,75
2026-05-09 14:57:33.641,3,-0.38,0.18,1.36,10.4248,3.8177999999999983,-7.6236,175,75
2026-05-09 14:57:33.641,2,1.68,-0.88,0.6,-18.23,0.1717999999999993,5.555599999999998,175,75
2026-05-09 14:57:33.646,5,0.21,-0.11,1.13,-0.5489999999999999,7.4062,-6.2928,175,75
2026-05-09 14:57:33.646,3,-0.45,0.18,1.31,8.9548,-3.252200000000002,-8.8436,175,75
2026-05-09 14:57:33.647,2,1.59,-0.84,0.57,-21.52,25.531800000000004,7.755599999999999,175,75
2026-05-09 14:57:33.669,5,0.22,-0.1,1.13,-0.9390000000000001,8.8162,-4.5628,175,75
2026-05-09 14:57:33.691,1,-0.37,1.12,0.48,7.965999999999998,1.7896,24.016,175,75
2026-05-09 14:57:33.691,5,0.23,-0.09,1.13,-1.779,9.626199999999999,-0.6228,175,75
2026-05-09 14:57:33.691,2,1.63,-0.73,0.39,-33.59,25.531800000000004,5.435599999999999,175,75
2026-05-09 14:57:33.691,4,0.23,0.16,1.63,34.8876,-28.337399999999995,-32.6888,175,75
2026-05-09 14:57:33.699,5,0.23,-0.09,1.13,-2.649,10.216199999999999,4.0072,175,75
2026-05-09 14:57:33.709,5,0.24,-0.11,1.12,-3.639,11.4762,9.447199999999999,175,75
2026-05-09 14:57:33.727,1,-0.37,1.1,0.47,7.785999999999999,-0.160400000000001,22.496000000000002,175,75
2026-05-09 14:57:33.727,5,0.22,-0.14,1.11,-4.069000000000001,13.1562,11.9872,175,75
2026-05-09 14:57:33.727,1,-0.38,1.11,0.43,8.636,-0.04039999999999999,20.116,175,75
2026-05-09 14:57:33.727,3,-0.39,0.21,1.27,11.3348,15.037799999999997,-3.8436000000000003,175,75
2026-05-09 14:57:33.727,4,0.16,0.22,1.65,31.5976,-10.907399999999996,-28.2988,175,75
2026-05-09 14:57:33.738,2,1.62,-0.32,-0.06,-117.62,-104.9482,4.765599999999999,175,75
2026-05-09 14:57:33.738,1,-0.38,1.12,0.42,10.285999999999998,-0.3504000000000005,18.166000000000004,175,75
2026-05-09 14:57:33.738,5,0.21,-0.17,1.11,-3.7289999999999996,13.8362,10.6572,175,75
2026-05-09 14:57:33.738,5,0.22,-0.19,1.11,-3.2689999999999997,14.956199999999999,7.4272,175,75
2026-05-09 14:57:33.751,5,0.22,-0.2,1.11,-2.769,17.496199999999998,2.6272,175,75
2026-05-09 14:57:33.751,4,0.16,0.23,1.69,30.627599999999997,-8.337399999999995,-25.9788,175,75
2026-05-09 14:57:33.751,1,-0.35,1.11,0.38,13.335999999999999,0.6896000000000004,15.786,175,75
2026-05-09 14:57:33.751,3,-0.45,0.18,1.29,12.854800000000001,1.3177999999999983,-7.313599999999999,175,75
2026-05-09 14:57:33.751,2,1.72,-0.22,-0.16,-141.7,-90.0782,14.705599999999999,175,75
2026-05-09 14:57:33.757,5,0.2,-0.21,1.09,-2.1590000000000003,20.4662,-3.3928,175,75
2026-05-09 14:57:33.777,4,0.2,0.19,1.71,29.9576,-14.987399999999994,-22.998800000000003,175,75
2026-05-09 14:57:33.783,5,0.18,-0.2,1.07,-1.129,23.2262,-9.792800000000002,175,75
2026-05-09 14:57:33.786,3,-0.43,0.16,1.25,15.544799999999999,3.5177999999999976,-12.0736,175,75
2026-05-09 14:57:33.786,2,2.38,-0.5,-0.27,-235.54,-69.40820000000001,41.5956,175,75
2026-05-09 14:57:33.791,3,-0.4,0.19,1.22,16.6448,10.767799999999998,-9.8136,175,75
2026-05-09 14:57:33.791,5,0.18,-0.18,1.07,0.10099999999999998,24.0362,-17.1528,175,75
2026-05-09 14:57:33.798,1,-0.31,1.14,0.43,14.435999999999998,-0.04039999999999999,13.475999999999997,175,75
2026-05-09 14:57:33.808,4,0.2,0.21,1.68,24.8876,-18.467399999999998,-20.738799999999998,175,75
2026-05-09 14:57:33.832,1,-0.34,1.16,0.43,15.105999999999998,-1.2004000000000001,12.556,175,75
2026-05-09 14:57:33.832,5,0.19,-0.14,1.07,0.641,24.4362,-21.9728,175,75
2026-05-09 14:57:33.832,5,0.2,-0.12,1.08,-0.859,25.8562,-22.922800000000002,175,75
2026-05-09 14:57:33.847,1,-0.36,1.17,0.43,15.655999999999999,0.31959999999999944,11.885999999999997,175,75
2026-05-09 14:57:33.847,2,2.41,-0.77,-0.49,-282.68,-63.9782,51.5356,175,75
2026-05-09 14:57:33.847,1,-0.37,1.17,0.54,17.296,-7.6004000000000005,13.345999999999998,175,75
2026-05-09 14:57:33.847,3,-0.44,0.24,1.27,17.674799999999998,8.207799999999999,-10.673599999999999,175,75
2026-05-09 14:57:33.878,1,-0.36,1.19,0.53,17.965999999999998,-10.2904,14.145999999999999,175,75
2026-05-09 14:57:33.879,5,0.13,-0.15,1.07,-10.089,30.9362,-6.682799999999999,175,75
2026-05-09 14:57:33.879,5,0.1,-0.15,1.08,-9.739,30.836199999999998,-8.3628,175,75
2026-05-09 14:57:33.879,5,0.09,-0.16,1.1,-8.979000000000001,30.0462,-12.6028,175,75
2026-05-09 14:57:33.889,4,0.35,0.19,1.66,11.787599999999998,-9.197399999999995,-14.6988,175,75
2026-05-09 14:57:33.889,2,1.68,-1.53,-0.14,-283.23,89.01180000000001,87.87559999999999,175,75
2026-05-09 14:57:33.889,4,0.34,0.19,1.64,7.7576,-6.997399999999999,-14.3388,175,75
2026-05-09 14:57:33.889,3,-0.47,0.23,1.19,19.5048,6.197799999999997,-15.5436,175,75
2026-05-09 14:57:33.889,3,-0.47,0.22,1.16,18.224800000000002,6.197799999999997,-18.5336,175,75
2026-05-09 14:57:33.889,2,2.06,-2.6,0.82,-300.97,-115.62819999999999,12.9956,175,75
2026-05-09 14:57:33.900,5,0.09,-0.16,1.11,-7.6690000000000005,28.8962,-16.4028,175,75
2026-05-09 14:57:33.900,2,2.05,-3.11,0.71,-377.19,-251.41819999999998,23.915599999999998,175,75
2026-05-09 14:57:33.900,3,-0.47,0.23,1.16,16.7648,15.957799999999999,-14.873600000000001,175,75
2026-05-09 14:57:33.900,4,0.28,0.2,1.64,2.637599999999999,0.502600000000001,-10.188799999999999,175,75
2026-05-09 14:57:33.900,1,-0.32,1.12,0.44,19.006,-13.3404,13.225999999999997,175,75
2026-05-09 14:57:33.900,5,0.08,-0.15,1.11,-6.2490000000000006,27.9462,-17.4928,175,75
2026-05-09 14:57:33.910,2,2.04,-3.01,-0.16,-397.25,-254.4682,-13.0944,175,75
2026-05-09 14:57:33.910,3,-0.5,0.2,1.2,14.264800000000001,15.227799999999998,-15.483600000000001,175,75
2026-05-09 14:57:33.910,5,0.03,-0.11,1.12,-6.019,26.0762,-17.2128,175,75
2026-05-09 14:57:33.910,4,0.23,0.16,1.65,-5.232399999999998,7.812600000000003,-5.498799999999999,175,75
2026-05-09 14:57:33.910,5,0.01,-0.1,1.13,-6.689,22.8562,-16.7828,175,75
2026-05-09 14:57:33.921,1,-0.33,1.11,0.46,16.625999999999998,-10.650400000000001,11.336,175,75
2026-05-09 14:57:33.921,2,1.71,-1.96,-1.31,-295.06,68.8918,-49.5044,175,75
2026-05-09 14:57:33.921,3,-0.46,0.24,1.26,10.7248,12.657799999999998,-15.243599999999999,175,75
2026-05-09 14:57:33.921,2,1.51,-1.63,-1.06,-226.95,372.85179999999997,-38.8344,175,75
2026-05-09 14:57:33.921,5,0.02,-0.09,1.13,-6.978999999999999,18.7862,-13.0228,175,75
2026-05-09 14:57:33.921,1,-0.36,1.1,0.47,15.046,-10.160400000000001,10.176,175,75
2026-05-09 14:57:33.933,4,0.19,0.11,1.64,-9.252400000000002,7.942599999999999,-0.8587999999999996,175,75
2026-05-09 14:57:33.933,2,1.49,-1.47,-0.67,-177.62,533.2218,-46.6344,175,75
2026-05-09 14:57:33.933,3,-0.43,0.27,1.22,6.3347999999999995,7.047799999999999,-14.513599999999999,175,75
2026-05-09 14:57:33.933,5,0.02,-0.1,1.14,-6.638999999999999,13.6862,-5.5927999999999995,175,75
2026-05-09 14:57:33.933,2,1.54,-1.37,-0.17,-119.94,644.4418000000001,-67.61439999999999,175,75
2026-05-09 14:57:33.933,4,0.16,0.11,1.65,-12.672400000000003,6.782600000000002,-0.6187999999999994,175,75
2026-05-09 14:57:33.937,5,0.02,-0.11,1.15,-5.959,6.7562,2.9272,175,75
2026-05-09 14:57:33.959,2,1.86,-1.38,0.42,-59.81,669.0118,-101.7544,175,75
2026-05-09 14:57:33.959,3,-0.44,0.29,1.26,0.9648000000000003,2.2377999999999982,-11.7036,175,75
2026-05-09 14:57:33.959,5,0.02,-0.12,1.14,-6.199,-1.3738,9.707199999999998,175,75
2026-05-09 14:57:33.969,4,0.1,0.15,1.67,-17.4824,2.0825999999999993,-0.30879999999999974,175,75
2026-05-09 14:57:33.969,1,-0.37,1.1,0.49,11.265999999999998,-6.080400000000001,4.205999999999998,175,75
2026-05-09 14:57:33.969,3,-0.45,0.31,1.24,-2.6852,-4.842200000000002,-9.873600000000001,175,75
2026-05-09 14:57:33.969,5,0.04,-0.15,1.14,-6.519,-7.3438,12.7372,175,75
2026-05-09 14:57:33.969,4,0.05,0.19,1.69,-19.6824,2.8126000000000033,2.5512000000000006,175,75
2026-05-09 14:57:33.969,1,-0.38,1.1,0.49,9.925999999999998,-6.3804,3.0459999999999976,175,75
2026-05-09 14:57:33.978,5,0.06,-0.17,1.13,-5.699,-8.6138,13.017199999999999,175,75
2026-05-09 14:57:33.978,2,1.99,-1.35,1.37,44.46,502.48179999999996,-193.9544,175,75
2026-05-09 14:57:33.978,3,-0.45,0.29,1.19,-7.0152,-5.452200000000001,-5.973599999999999,175,75
2026-05-09 14:57:33.978,4,0.0,0.21,1.69,-21.9324,5.802599999999998,6.4612,175,75
2026-05-09 14:57:34.016,2,2.09,-1.24,1.44,63.11,394.50179999999995,-197.7344,175,75
2026-05-09 14:57:34.027,4,-0.0,0.2,1.7,-23.342399999999998,5.922600000000003,9.6312,175,75
2026-05-09 14:57:34.027,1,-0.4,1.1,0.53,7.5459999999999985,-5.9604,-0.37400000000000055,175,75
2026-05-09 14:57:34.027,5,0.05,-0.2,1.12,-2.549,-2.2438000000000002,4.6972000000000005,175,75
2026-05-09 14:57:34.062,3,-0.33,0.2,1.33,-8.3552,-1.2422000000000004,-2.4336,175,75
2026-05-09 14:57:34.062,1,-0.36,1.13,0.62,5.285999999999998,-9.8604,-0.9840000000000018,175,75
2026-05-09 14:57:34.071,2,2.03,-1.16,1.4,92.81,143.1618,-200.4144,175,75
2026-05-09 14:57:34.071,3,-0.32,0.17,1.36,-6.465199999999999,4.8577999999999975,-2.1335999999999995,175,75
2026-05-09 14:57:34.071,1,-0.39,1.15,0.57,4.125999999999998,-14.9804,-0.24400000000000155,175,75
2026-05-09 14:57:34.071,5,0.08,-0.18,1.14,1.721,1.9362,-3.5827999999999998,175,75
2026-05-09 14:57:34.083,2,1.92,-1.22,1.28,106.71,5.591800000000001,-202.4244,175,75
2026-05-09 14:57:34.083,4,0.1,0.16,1.67,-19.4324,0.8626000000000005,17.3712,175,75
2026-05-09 14:57:34.083,5,0.09,-0.17,1.15,2.251,3.6561999999999997,-5.3628,175,75
2026-05-09 14:57:34.083,1,-0.37,1.14,0.51,4.065999999999999,-16.3204,-0.30400000000000027,175,75
2026-05-09 14:57:34.083,3,-0.32,0.16,1.43,-6.0451999999999995,3.0277999999999974,-2.2536000000000005,175,75
2026-05-09 14:57:34.083,5,0.08,-0.15,1.14,2.1710000000000003,4.536200000000001,-6.1328,175,75
2026-05-09 14:57:34.093,5,0.07,-0.13,1.13,1.641,6.0161999999999995,-6.932799999999999,175,75
2026-05-09 14:57:34.093,3,-0.29,0.14,1.36,-6.225200000000001,-1.4822000000000024,-0.06359999999999921,175,75
2026-05-09 14:57:34.093,5,0.05,-0.11,1.14,0.651,6.6562,-7.0927999999999995,175,75
2026-05-09 14:57:34.097,1,-0.36,1.12,0.47,4.185999999999998,-15.4104,-0.37400000000000055,175,75
2026-05-09 14:57:34.135,2,1.69,-1.24,0.64,106.28,-118.3682,-231.5144,175,75
2026-05-09 14:57:34.135,1,-0.35,1.11,0.48,4.555999999999999,-14.1304,-0.43400000000000105,175,75
2026-05-09 14:57:34.135,1,-0.34,1.11,0.46,5.105999999999998,-14.6804,-0.18400000000000105,175,75
2026-05-09 14:57:34.135,4,0.16,0.08,1.72,-14.252400000000002,-9.257399999999997,14.5012,175,75
2026-05-09 14:57:34.146,2,1.59,-1.1,0.4,103.36,-80.0182,-239.5044,175,75
2026-05-09 14:57:34.146,3,-0.3,0.22,1.44,-4.3352,20.7078,4.8764,175,75
2026-05-09 14:57:34.146,5,0.05,-0.09,1.17,-7.969000000000001,1.6562000000000001,5.277200000000001,175,75
2026-05-09 14:57:34.157,2,1.58,-0.66,0.52,133.72,98.0318,-214.1344,175,75
2026-05-09 14:57:34.157,4,0.09,0.12,1.68,-6.202400000000004,-11.697399999999995,17.1312,175,75
2026-05-09 14:57:34.157,5,0.01,-0.13,1.16,-11.319,-5.8338,15.767199999999999,175,75
2026-05-09 14:57:34.157,3,-0.55,0.15,0.92,-11.045200000000001,-9.292200000000001,8.7164,175,75
2026-05-09 14:57:34.157,1,-0.34,1.1,0.51,6.685999999999998,-8.2704,0.4859999999999989,175,75
2026-05-09 14:57:34.164,4,0.08,0.06,1.66,-5.172400000000003,-7.797399999999996,19.441200000000002,175,75
2026-05-09 14:57:34.169,3,-0.56,0.14,1.1,-8.4252,22.8478,8.6564,175,75
2026-05-09 14:57:34.170,1,-0.36,1.1,0.52,6.935999999999998,-10.650400000000001,0.9759999999999991,175,75
2026-05-09 14:57:34.181,4,0.1,0.01,1.64,-6.932400000000001,-8.587399999999995,18.5912,175,75
2026-05-09 14:57:34.181,2,1.54,-0.58,0.71,144.82,108.8318,-201.87439999999998,175,75
2026-05-09 14:57:34.181,3,-0.36,0.13,1.42,-4.825200000000001,18.697799999999997,2.6864,175,75
2026-05-09 14:57:34.181,1,-0.36,1.09,0.53,7.115999999999999,-10.5304,1.1559999999999988,175,75
2026-05-09 14:57:34.181,5,-0.02,-0.22,1.08,-9.279,-25.8638,26.9772,175,75
2026-05-09 14:57:34.192,5,-0.0,-0.25,1.04,-5.289,-32.3438,25.397199999999998,175,75
2026-05-09 14:57:34.192,1,-0.35,1.11,0.49,8.515999999999998,-10.9604,1.7659999999999982,175,75
2026-05-09 14:57:34.203,1,-0.33,1.1,0.49,8.456,-7.180400000000001,2.926,175,75
2026-05-09 14:57:34.203,5,0.06,-0.24,0.98,5.260999999999999,-33.273799999999994,8.207199999999998,175,75
2026-05-09 14:57:34.203,4,0.24,0.15,1.75,-1.2024000000000044,-18.037399999999998,9.321200000000001,175,75
2026-05-09 14:57:34.203,2,1.58,-0.36,0.79,129.15,3.341799999999999,-192.0644,175,75
2026-05-09 14:57:34.203,5,0.1,-0.22,0.97,8.921,-27.913800000000002,-3.1028,175,75
2026-05-09 14:57:34.203,1,-0.34,1.1,0.52,7.905999999999999,-6.3804,3.4759999999999973,175,75
2026-05-09 14:57:34.214,2,1.52,-0.34,0.73,119.94,-16.0482,-191.02439999999999,175,75
2026-05-09 14:57:34.214,5,0.13,-0.19,0.98,10.100999999999999,-20.2938,-10.882800000000001,175,75
2026-05-09 14:57:34.214,1,-0.34,1.09,0.53,7.425999999999998,-7.9104,3.6560000000000006,175,75
2026-05-09 14:57:34.214,3,-0.45,0.2,1.14,-3.9052000000000007,4.617799999999999,9.1464,175,75
2026-05-09 14:57:34.214,2,1.45,-0.31,0.66,116.59,-24.7682,-187.5544,175,75
2026-05-09 14:57:34.214,5,0.16,-0.16,0.99,7.281000000000001,-13.6438,-14.392800000000001,175,75
2026-05-09 14:57:34.221,4,0.17,0.17,1.67,-4.562400000000004,-17.187399999999997,-1.3487999999999998,175,75
2026-05-09 14:57:34.221,3,-0.47,0.22,1.18,-1.225200000000001,8.517799999999998,7.3764,175,75
2026-05-09 14:57:34.221,2,1.38,-0.26,0.6,117.63,-21.8382,-183.8944,175,75
2026-05-09 14:57:34.221,5,0.2,-0.13,0.99,2.581,-7.1538,-15.1128,175,75
2026-05-09 14:57:34.238,1,-0.35,1.11,0.51,7.2959999999999985,-7.9104,4.8759999999999994,175,75
2026-05-09 14:57:34.238,2,1.37,-0.21,0.58,119.03,-12.6382,-179.9244,175,75
2026-05-09 14:57:34.238,3,-0.44,0.2,1.24,-0.7951999999999995,-2.882200000000001,6.0364,175,75
2026-05-09 14:57:34.238,1,-0.34,1.09,0.52,6.265999999999998,-6.4504,4.996,175,75
2026-05-09 14:57:34.258,2,1.38,-0.14,0.6,125.74,11.8118,-167.0644,175,75
2026-05-09 14:57:34.258,1,-0.36,1.11,0.53,4.675999999999998,-7.180400000000001,5.786,175,75
2026-05-09 14:57:34.269,5,0.17,-0.15,1.04,-3.3489999999999998,21.7562,9.367199999999999,175,75
2026-05-09 14:57:34.269,2,1.37,-0.13,0.62,127.14,11.0818,-163.2244,175,75
2026-05-09 14:57:34.269,4,0.11,0.14,1.67,-4.862400000000001,-7.6673999999999936,-2.0187999999999997,175,75
2026-05-09 14:57:34.269,2,1.4,-0.12,0.62,124.88,2.851800000000001,-160.2344,175,75
2026-05-09 14:57:34.269,3,-0.44,0.2,1.24,0.7847999999999997,-9.6522,0.4863999999999997,175,75
2026-05-09 14:57:34.312,1,-0.36,1.1,0.53,4.375999999999998,-5.1604,6.275999999999998,175,75
2026-05-09 14:57:34.312,4,0.12,0.13,1.67,-5.292400000000001,-4.927399999999992,-2.1388,175,75
2026-05-09 14:57:34.312,5,0.04,-0.19,1.07,-0.839,20.9862,13.5872,175,75
2026-05-09 14:57:34.312,3,-0.42,0.17,1.26,1.3948,-7.212200000000003,1.1563999999999997,175,75
2026-05-09 14:57:34.315,3,-0.45,0.18,1.22,0.3548,-5.202200000000001,-0.2436000000000007,175,75
2026-05-09 14:57:34.315,5,-0.02,-0.2,1.08,0.881,16.336199999999998,9.3172,175,75
2026-05-09 14:57:34.315,4,0.13,0.1,1.69,-4.7424000000000035,-4.077399999999997,-2.8087999999999997,175,75
2026-05-09 14:57:34.320,1,-0.37,1.08,0.51,3.7659999999999982,-5.590400000000001,6.455999999999998,175,75
2026-05-09 14:57:34.320,5,-0.03,-0.19,1.08,2.4909999999999997,10.4262,3.0272,175,75
2026-05-09 14:57:34.332,2,1.3,-0.07,0.54,116.77,-8.1182,-144.3144,175,75
2026-05-09 14:57:34.332,4,0.13,0.07,1.72,-4.5024000000000015,-4.377399999999994,-4.088799999999999,175,75
2026-05-09 14:57:34.332,2,1.28,-0.03,0.53,118.48,-1.4182000000000006,-139.1344,175,75
2026-05-09 14:57:34.332,4,0.14,0.06,1.73,-4.5024000000000015,-7.127399999999994,-7.078799999999999,175,75
2026-05-09 14:57:34.332,5,-0.02,-0.19,1.08,2.501,5.106199999999999,-2.8628,175,75
2026-05-09 14:57:34.332,1,-0.38,1.08,0.52,3.275999999999998,-3.8204000000000002,5.975999999999997,175,75
2026-05-09 14:57:34.344,5,0.07,-0.17,1.07,2.291,-0.3737999999999999,-6.8928,175,75
2026-05-09 14:57:34.344,1,-0.38,1.09,0.53,3.275999999999998,-2.3004000000000007,5.725999999999997,175,75
2026-05-09 14:57:34.344,5,0.1,-0.15,1.05,1.931,-0.14379999999999993,-6.6528,175,75
2026-05-09 14:57:34.344,2,1.28,0.05,0.53,122.14,9.251800000000001,-130.4744,175,75
2026-05-09 14:57:34.344,1,-0.38,1.1,0.54,2.5459999999999976,-2.6604,5.365999999999998,175,75
2026-05-09 14:57:34.344,2,1.31,0.1,0.56,123.91,12.7918,-122.9144,175,75
2026-05-09 14:57:34.355,3,-0.42,0.21,1.23,2.0648,-7.7622000000000035,-3.5336,175,75
2026-05-09 14:57:34.355,4,0.11,0.09,1.64,-6.572400000000002,-10.477399999999996,-9.6988,175,75
2026-05-09 14:57:34.355,5,0.12,-0.13,1.03,1.661,1.8561999999999999,-6.0728,175,75
2026-05-09 14:57:34.355,1,-0.38,1.1,0.52,3.025999999999998,-2.5404,4.816000000000001,175,75
2026-05-09 14:57:34.355,2,1.35,0.16,0.57,124.64,13.461799999999998,-105.2944,175,75
2026-05-09 14:57:34.355,4,0.11,0.09,1.67,-4.682400000000001,-9.687399999999997,-8.0588,175,75
2026-05-09 14:57:34.366,3,-0.42,0.2,1.22,1.5747999999999998,-11.0622,-2.983600000000001,175,75
2026-05-09 14:57:34.366,5,0.15,-0.13,1.02,1.041,5.526199999999999,-4.4928,175,75
2026-05-09 14:57:34.376,2,1.35,0.19,0.58,125.55,5.171799999999999,-98.77440000000001,175,75
2026-05-09 14:57:34.376,1,-0.38,1.11,0.53,2.6659999999999986,-1.4504000000000001,4.145999999999999,175,75
2026-05-09 14:57:34.376,4,0.09,0.09,1.7,-4.432400000000001,-10.657399999999996,-8.6088,175,75
2026-05-09 14:57:34.376,5,0.17,-0.13,1.02,-0.08900000000000008,10.4962,-1.4528,175,75
2026-05-09 14:57:34.376,4,0.1,0.09,1.71,-5.412399999999998,-12.247399999999999,-10.4988,175,75
2026-05-09 14:57:34.376,2,1.37,0.18,0.56,125.25,-10.8082,-94.5044,175,75
2026-05-09 14:57:34.394,4,0.12,0.08,1.68,-5.4724,-16.877399999999994,-12.568800000000001,175,75
2026-05-09 14:57:34.394,3,-0.42,0.23,1.21,-0.12519999999999953,-14.102200000000003,-6.403600000000001,175,75
2026-05-09 14:57:34.394,1,-0.37,1.13,0.57,0.2259999999999991,-5.2904,5.055999999999999,175,75
2026-05-09 14:57:34.394,2,1.36,0.19,0.53,118.24,-32.1482,-88.52440000000001,175,75
2026-05-09 14:57:34.394,4,0.12,0.1,1.65,-6.022400000000005,-16.027399999999993,-12.8088,175,75
2026-05-09 14:57:34.406,1,-0.38,1.14,0.54,-0.3840000000000021,-6.3804,5.115999999999998,175,75
2026-05-09 14:57:34.406,3,-0.41,0.22,1.21,0.8448000000000002,-6.912200000000002,-5.733600000000001,175,75
2026-05-09 14:57:34.406,5,0.1,-0.18,1.07,-1.999,18.6962,7.0972,175,75
2026-05-09 14:57:34.406,4,0.13,0.12,1.64,-5.4724,-13.097399999999993,-11.1688,175,75
2026-05-09 14:57:34.406,2,1.34,0.22,0.49,115.49,-38.2482,-86.02440000000001,175,75
2026-05-09 14:57:34.406,5,0.07,-0.19,1.09,-1.089,17.3662,5.1972000000000005,175,75
2026-05-09 14:57:34.406,3,-0.4,0.24,1.21,1.0347999999999997,-0.632200000000001,-4.2036,175,75
2026-05-09 14:57:34.418,2,1.34,0.28,0.44,114.09,-42.6382,-81.33439999999999,175,75
2026-05-09 14:57:34.418,1,-0.38,1.13,0.51,-0.3840000000000021,-4.550400000000001,4.566000000000001,175,75
2026-05-09 14:57:34.418,3,-0.4,0.21,1.22,0.8448000000000002,2.0477999999999987,-2.4336,175,75
2026-05-09 14:57:34.418,4,0.12,0.13,1.69,-3.342399999999998,-8.707399999999993,-7.8688,175,75
2026-05-09 14:57:34.418,1,-0.37,1.13,0.53,-1.2940000000000023,-3.9504,3.895999999999999,175,75
2026-05-09 14:57:34.430,5,0.02,-0.18,1.09,0.38099999999999995,13.6662,-3.5627999999999997,175,75
2026-05-09 14:57:34.431,3,-0.42,0.2,1.25,1.5747999999999998,1.5677999999999983,-2.983600000000001,175,75
2026-05-09 14:57:34.431,4,0.12,0.11,1.7,-3.4024,-9.317399999999992,-8.3588,175,75
2026-05-09 14:57:34.431,1,-0.37,1.13,0.53,-1.4240000000000013,-4.3104000000000005,3.5959999999999983,175,75
2026-05-09 14:57:34.431,2,1.31,0.38,0.36,115.92,-42.6382,-70.2944,175,75
2026-05-09 14:57:34.431,5,0.02,-0.18,1.1,0.46099999999999997,11.4162,-6.682799999999999,175,75
2026-05-09 14:57:34.431,3,-0.44,0.21,1.27,0.11480000000000068,2.2977999999999987,-2.3735999999999997,175,75
2026-05-09 14:57:34.437,4,0.12,0.09,1.69,-4.132400000000004,-10.297399999999996,-9.1488,175,75
2026-05-09 14:57:34.437,1,-0.37,1.14,0.53,-1.7840000000000025,-5.3504000000000005,3.895999999999999,175,75
2026-05-09 14:57:34.437,2,1.35,0.4,0.32,115.67,-32.9382,-63.77440000000001,175,75
2026-05-09 14:57:34.440,4,0.13,0.08,1.67,-4.432400000000001,-10.167399999999994,-9.2788,175,75
2026-05-09 14:57:34.458,1,-0.37,1.13,0.52,-1.9040000000000017,-5.4704,3.3459999999999983,175,75
2026-05-09 14:57:34.458,2,1.35,0.42,0.29,114.46,-19.0382,-55.5944,175,75
2026-05-09 14:57:34.458,4,0.12,0.09,1.68,-3.7024000000000044,-9.497399999999999,-8.4188,175,75
2026-05-09 14:57:34.458,3,-0.4,0.2,1.35,0.2347999999999999,4.917799999999998,-1.3436000000000003,175,75
2026-05-09 14:57:34.469,1,-0.37,1.13,0.51,-0.9940000000000015,-4.920400000000001,3.106,175,75
2026-05-09 14:57:34.469,2,1.37,0.39,0.29,112.99,-8.1182,-50.66440000000001,175,75
2026-05-09 14:57:34.480,3,-0.39,0.18,1.31,-0.2552000000000003,-0.9922000000000004,-0.9735999999999994,175,75
2026-05-09 14:57:34.480,4,0.1,0.11,1.72,-2.3023999999999987,-9.807399999999994,-7.1388,175,75
2026-05-09 14:57:34.480,5,0.11,-0.14,1.08,-0.869,4.4962,-2.2028,175,75
2026-05-09 14:57:34.480,1,-0.38,1.12,0.5,0.1059999999999981,-3.0304,3.2859999999999996,175,75
2026-05-09 14:57:34.497,1,-0.38,1.12,0.52,1.2659999999999982,-0.9004000000000003,3.2259999999999973,175,75
2026-05-09 14:57:34.497,2,1.47,0.4,0.31,109.09,-8.978200000000001,-46.2044,175,75
2026-05-09 14:57:34.497,2,1.45,0.41,0.29,108.11,-8.6682,-46.3944,175,75
2026-05-09 14:57:34.563,4,0.09,0.09,1.67,-4.0123999999999995,-12.487399999999994,-5.498799999999999,175,75
2026-05-09 14:57:34.569,3,-0.38,0.21,1.28,0.4248000000000003,-0.32220000000000226,-1.1536000000000008,175,75
2026-05-09 14:57:34.569,2,1.47,0.4,0.28,107.5,-4.6482,-45.5944,175,75
2026-05-09 14:57:34.613,4,0.09,0.09,1.7,-2.422400000000003,-7.607399999999998,-2.4487999999999994,175,75
2026-05-09 14:57:34.613,5,0.05,-0.18,1.1,-3.719,13.4062,0.1972,175,75
2026-05-09 14:57:34.613,4,0.09,0.09,1.72,-1.8124000000000038,-8.767399999999995,-2.4487999999999994,175,75
2026-05-09 14:57:34.613,1,-0.37,1.12,0.51,3.0959999999999983,-1.8104000000000005,3.2859999999999996,175,75
2026-05-09 14:57:34.646,5,0.03,-0.18,1.1,-3.509,12.7662,0.0872,175,75
2026-05-09 14:57:34.690,5,0.0,-0.17,1.09,-2.089,8.386199999999999,-0.4328,175,75
2026-05-09 14:57:34.690,4,0.09,0.09,1.74,-2.2424000000000035,-11.697399999999995,-3.4787999999999997,175,75
2026-05-09 14:57:34.690,2,1.47,0.36,0.26,110.67,36.7518,-40.4144,175,75
2026-05-09 14:57:34.690,2,1.5,0.39,0.26,113.97,50.1118,-36.754400000000004,175,75
2026-05-09 14:57:34.690,4,0.1,0.1,1.73,-3.092399999999998,-14.017399999999995,-4.4588,175,75
2026-05-09 14:57:34.693,4,0.1,0.11,1.7,-2.1824000000000012,-13.947399999999995,-4.338799999999999,175,75
2026-05-09 14:57:34.695,5,0.03,-0.16,1.09,-2.379,4.4361999999999995,-3.9827999999999997,175,75
2026-05-09 14:57:34.695,1,-0.38,1.11,0.52,3.155999999999999,-3.0904000000000007,3.106,175,75
2026-05-09 14:57:34.707,5,0.05,-0.15,1.08,-3.3190000000000004,4.536200000000001,-4.5927999999999995,175,75
2026-05-09 14:57:34.707,1,-0.38,1.12,0.51,3.025999999999998,-3.4004000000000003,2.985999999999999,175,75
2026-05-09 14:57:34.707,4,0.11,0.11,1.7,-1.8124000000000038,-9.987399999999994,-3.2387999999999995,175,75
2026-05-09 14:57:34.709,1,-0.38,1.13,0.53,4.245999999999999,0.6295999999999999,2.1259999999999994,175,75
2026-05-09 14:57:34.714,2,1.45,0.32,0.2,109.21,40.171800000000005,-38.5844,175,75
2026-05-09 14:57:34.714,5,0.06,-0.15,1.08,-4.129,5.3162,-3.4427999999999996,175,75
2026-05-09 14:57:34.731,1,-0.37,1.13,0.55,2.8459999999999983,0.019600000000000506,1.2759999999999998,175,75
2026-05-09 14:57:34.731,4,0.09,0.12,1.67,-5.412399999999998,-10.417399999999994,-6.4688,175,75
2026-05-09 14:57:34.731,5,0.06,-0.16,1.09,-3.5589999999999997,4.8262,2.5372000000000003,175,75
2026-05-09 14:57:34.731,2,1.51,0.36,0.11,100.92,50.4118,-32.0644,175,75
2026-05-09 14:57:34.731,5,0.06,-0.17,1.08,-3.639,5.1362000000000005,3.8571999999999997,175,75
2026-05-09 14:57:34.742,2,1.48,0.28,0.01,82.75,24.3718,-30.0544,175,75
2026-05-09 14:57:34.742,4,0.09,0.12,1.73,-6.392400000000002,-5.7774,-6.8988,175,75
2026-05-09 14:57:34.742,2,1.52,0.31,-0.03,71.71,19.3818,-26.514400000000002,175,75
2026-05-09 14:57:34.742,2,1.51,0.37,-0.32,63.78,-57.148199999999996,-18.224400000000003,175,75
2026-05-09 14:57:34.742,3,-0.43,0.19,1.2,1.0347999999999997,5.407799999999998,-2.8035999999999994,175,75
2026-05-09 14:57:34.752,4,0.08,0.08,1.73,-7.732399999999998,-11.147399999999998,-6.588799999999999,175,75
2026-05-09 14:57:34.752,5,0.04,-0.19,1.05,-4.7989999999999995,12.206199999999999,-7.6928,175,75
2026-05-09 14:57:34.752,1,-0.36,1.1,0.52,3.8859999999999992,-3.4604,1.5159999999999982,175,75
2026-05-09 14:57:34.752,3,-0.39,0.21,1.24,1.8247999999999998,8.087799999999998,-1.7035999999999998,175,75
2026-05-09 14:57:34.752,2,1.16,0.13,-0.26,-24.02,-174.4682,-28.9544,175,75
2026-05-09 14:57:34.758,1,-0.39,1.1,0.52,4.315999999999999,-1.5104000000000006,1.645999999999999,175,75
2026-05-09 14:57:34.773,5,0.04,-0.18,1.06,-4.859,16.1862,-8.7628,175,75
2026-05-09 14:57:34.773,4,0.14,0.08,1.69,-5.042400000000001,-0.7173999999999978,-1.9587999999999992,175,75
2026-05-09 14:57:34.773,5,0.05,-0.18,1.08,-4.119,18.5962,-8.392800000000001,175,75
2026-05-09 14:57:34.777,3,-0.39,0.2,1.26,0.3548,5.287799999999999,2.8064,175,75
2026-05-09 14:57:34.791,5,0.04,-0.19,1.1,-3.7390000000000003,19.7962,-6.9128,175,75
2026-05-09 14:57:34.791,1,-0.39,1.12,0.54,4.615999999999998,-5.1004000000000005,0.9759999999999991,175,75
2026-05-09 14:57:34.791,2,1.72,0.37,0.37,14.15,56.0818,37.0856,175,75
2026-05-09 14:57:34.791,5,0.03,-0.19,1.12,-2.879,19.8862,-4.1328000000000005,175,75
2026-05-09 14:57:34.791,4,0.02,0.05,1.76,-3.892400000000002,-4.627399999999994,-1.4087999999999994,175,75
2026-05-09 14:57:34.802,5,0.01,-0.19,1.13,-2.449,18.5362,-1.2128,175,75
2026-05-09 14:57:34.802,3,-0.39,0.18,1.26,0.4248000000000003,0.5277999999999992,1.5864000000000003,175,75
2026-05-09 14:57:34.802,1,-0.39,1.12,0.53,4.735999999999999,-4.6204,0.5459999999999994,175,75
2026-05-09 14:57:34.802,4,0.01,0.05,1.77,-5.172400000000003,-10.047399999999996,-3.5387999999999993,175,75
2026-05-09 14:57:34.806,3,-0.42,0.17,1.24,0.05480000000000018,-8.192200000000003,0.4863999999999997,175,75
2026-05-09 14:57:34.806,5,-0.02,-0.2,1.13,-2.189,14.9062,1.3972,175,75
2026-05-09 14:57:34.815,4,0.02,0.08,1.75,-5.712400000000002,-13.527399999999993,-4.2788,175,75
2026-05-09 14:57:34.815,1,-0.38,1.12,0.5,6.015999999999998,-2.9104,-0.5540000000000003,175,75
2026-05-09 14:57:34.815,3,-0.43,0.19,1.18,1.0948000000000002,-9.232200000000002,-2.8636,175,75
2026-05-09 14:57:34.828,5,-0.07,-0.2,1.09,-1.139,6.8262,-1.3628,175,75
2026-05-09 14:57:34.828,1,-0.37,1.1,0.51,6.385999999999998,-0.7704000000000004,0.4859999999999989,175,75
2026-05-09 14:57:34.828,3,-0.4,0.18,1.22,1.4547999999999996,-3.372200000000003,-0.7336000000000009,175,75
2026-05-09 14:57:34.828,2,1.54,0.45,0.12,-16.09,-126.59819999999999,-9.0744,175,75
2026-05-09 14:57:34.828,1,-0.38,1.12,0.52,6.625999999999999,-2.1204,0.11599999999999966,175,75
2026-05-09 14:57:34.833,5,-0.07,-0.2,1.07,-0.839,4.466200000000001,-6.4128,175,75
2026-05-09 14:57:34.833,3,-0.42,0.16,1.26,1.9447999999999999,-5.2622000000000035,-2.3735999999999997,175,75
2026-05-09 14:57:34.842,1,-0.37,1.1,0.54,6.935999999999998,-0.5304000000000002,-0.6140000000000008,175,75
2026-05-09 14:57:34.842,5,-0.03,-0.18,1.07,-1.0190000000000001,3.5362000000000005,-11.562800000000001,175,75
2026-05-09 14:57:34.854,1,-0.38,1.12,0.52,6.565999999999998,-1.9904000000000002,0.2959999999999994,175,75
2026-05-09 14:57:34.890,2,1.33,0.45,-0.1,-7.679999999999999,-61.2282,3.5455999999999985,175,75
2026-05-09 14:57:34.891,2,1.32,0.43,-0.12,-8.29,-16.4182,11.965599999999998,175,75
2026-05-09 14:57:34.902,5,0.06,-0.16,1.07,-1.959,4.946199999999999,-13.8228,175,75
2026-05-09 14:57:34.902,3,-0.39,0.2,1.23,2.3148,-1.3022000000000027,-1.4036000000000008,175,75
2026-05-09 14:57:34.912,4,0.06,0.13,1.76,-6.0824,-9.497399999999999,1.5212000000000003,175,75
2026-05-09 14:57:34.913,5,0.08,-0.14,1.07,-2.769,7.4962,-10.7028,175,75
2026-05-09 14:57:34.913,1,-0.38,1.13,0.56,6.745999999999999,2.5795999999999992,-1.1640000000000015,175,75
2026-05-09 14:57:34.913,4,0.07,0.12,1.75,-7.2424000000000035,-10.047399999999996,-1.0387999999999993,175,75
2026-05-09 14:57:34.924,5,0.07,-0.14,1.07,-3.3990000000000005,9.886199999999999,-6.932799999999999,175,75
2026-05-09 14:57:34.924,2,1.44,0.35,0.06,-4.079999999999999,26.8718,20.985599999999998,175,75
2026-05-09 14:57:34.924,5,0.04,-0.15,1.08,-3.3489999999999998,11.4062,-3.4028,175,75
2026-05-09 14:57:34.924,5,0.02,-0.15,1.08,-3.5290000000000004,11.9062,0.03720000000000001,175,75
2026-05-09 14:57:34.924,2,1.52,0.32,0.16,-3.96,25.0518,21.2956,175,75
2026-05-09 14:57:34.924,5,-0.01,-0.16,1.09,-4.029,11.4262,2.5372000000000003,175,75
2026-05-09 14:57:34.934,4,0.12,0.12,1.74,-7.792400000000001,-8.217399999999998,-2.6288,175,75
2026-05-09 14:57:34.934,2,1.55,0.31,0.21,-4.63,12.551799999999998,18.8556,175,75
2026-05-09 14:57:34.934,1,-0.38,1.14,0.57,5.715999999999998,-1.0804,-0.37400000000000055,175,75
2026-05-09 14:57:34.934,2,1.58,0.33,0.24,-5.909999999999999,-7.3282,15.865599999999999,175,75
2026-05-09 14:57:34.934,1,-0.37,1.14,0.59,5.285999999999998,-2.8504000000000005,0.6059999999999999,175,75
2026-05-09 14:57:34.934,5,-0.02,-0.18,1.09,-4.829000000000001,8.7862,4.2372000000000005,175,75
2026-05-09 14:57:34.947,2,1.56,0.35,0.24,-7.009999999999999,-28.858199999999997,11.2256,175,75
2026-05-09 14:57:34.947,4,0.05,0.09,1.74,-7.792400000000001,-3.8273999999999972,-1.6487999999999996,175,75
2026-05-09 14:57:34.947,5,-0.02,-0.2,1.09,-4.879,5.6861999999999995,4.8372,175,75
2026-05-09 14:57:34.947,1,-0.38,1.13,0.54,4.615999999999998,-4.3704,1.2759999999999998,175,75
2026-05-09 14:57:34.947,2,1.48,0.38,0.19,-8.59,-43.6082,8.7256,175,75
2026-05-09 14:57:34.958,4,0.04,0.08,1.73,-8.5824,-5.237399999999994,-2.3888,175,75
2026-05-09 14:57:34.958,5,-0.01,-0.21,1.07,-4.769,3.7562,3.6872,175,75
2026-05-09 14:57:34.958,1,-0.38,1.12,0.51,5.105999999999998,-2.9704000000000006,1.2159999999999993,175,75
2026-05-09 14:57:34.958,3,-0.42,0.2,1.26,2.3148,0.8377999999999979,-2.1335999999999995,175,75
2026-05-09 14:57:34.958,4,0.03,0.07,1.73,-9.682400000000001,-5.717399999999998,-2.5687999999999995,175,75
2026-05-09 14:57:34.958,5,-0.01,-0.21,1.06,-4.079000000000001,3.3762000000000003,0.9871999999999999,175,75
2026-05-09 14:57:34.961,1,-0.37,1.11,0.52,4.375999999999998,-2.1804000000000006,1.0359999999999996,175,75
2026-05-09 14:57:34.975,3,-0.42,0.2,1.22,1.1547999999999998,7.237799999999998,0.2463999999999995,175,75
2026-05-09 14:57:34.975,1,-0.38,1.11,0.52,4.375999999999998,-2.9704000000000006,0.6059999999999999,175,75
2026-05-09 14:57:34.975,2,1.46,0.32,0.07,-9.139999999999997,-16.2982,18.1856,175,75
2026-05-09 14:57:34.975,5,0.01,-0.2,1.05,-3.509,7.1662,-8.472800000000001,175,75
2026-05-09 14:57:34.975,3,-0.4,0.21,1.28,2.7947999999999995,10.707799999999999,-1.8236000000000008,175,75
2026-05-09 14:57:34.975,4,0.04,0.09,1.73,-11.932400000000001,-9.317399999999992,-4.3988,175,75
2026-05-09 14:57:34.977,1,-0.38,1.09,0.53,4.615999999999998,-1.1404000000000005,-0.6740000000000013,175,75
2026-05-09 14:57:34.988,5,0.02,-0.19,1.05,-3.709,10.376199999999999,-11.792800000000002,175,75
2026-05-09 14:57:34.988,3,-0.37,0.2,1.32,2.3148,4.617799999999999,0.6764000000000001,175,75
2026-05-09 14:57:34.988,1,-0.39,1.1,0.53,4.315999999999999,-1.2004000000000001,-0.24400000000000155,175,75
2026-05-09 14:57:34.988,4,0.05,0.1,1.72,-10.962400000000002,-7.607399999999998,-3.5387999999999993,175,75
2026-05-09 14:57:34.988,5,0.02,-0.18,1.06,-4.119,12.9762,-12.0328,175,75
2026-05-09 14:57:34.988,2,1.48,0.33,0.15,-1.7000000000000002,3.4618,16.4756,175,75
2026-05-09 14:57:34.998,3,-0.42,0.18,1.27,2.0648,5.097799999999998,0.2463999999999995,175,75
2026-05-09 14:57:34.998,1,-0.4,1.11,0.54,4.185999999999998,-1.3204000000000002,-1.1640000000000015,175,75
2026-05-09 14:57:34.998,4,0.04,0.1,1.74,-9.742400000000004,-9.687399999999997,-2.0187999999999997,175,75
2026-05-09 14:57:34.998,2,1.47,0.39,0.19,0.0,-2.9382,14.6456,175,75
2026-05-09 14:57:35.010,1,-0.39,1.1,0.54,4.555999999999999,0.5095999999999989,-1.9540000000000006,175,75
2026-05-09 14:57:35.010,4,-0.02,0.11,1.74,-9.802399999999999,-6.3873999999999995,-0.30879999999999974,175,75
2026-05-09 14:57:35.010,5,-0.02,-0.18,1.09,-4.699,13.6762,-1.0028,175,75
2026-05-09 14:57:35.019,1,-0.39,1.1,0.57,4.495999999999999,-0.7103999999999999,-2.0740000000000016,175,75
2026-05-09 14:57:35.019,2,1.45,0.41,0.18,-4.94,-14.1582,14.035599999999999,175,75
2026-05-09 14:57:35.019,1,-0.38,1.12,0.56,4.245999999999999,-2.8504000000000005,-1.524000000000001,175,75
2026-05-09 14:57:35.019,2,1.47,0.37,0.16,-5.12,-12.6982,16.3556,175,75
2026-05-09 14:57:35.033,4,0.03,0.06,1.77,-11.022400000000005,-9.197399999999995,-2.6288,175,75
2026-05-09 14:57:35.033,1,-0.37,1.11,0.56,3.945999999999998,-4.0704,-0.9140000000000015,175,75
2026-05-09 14:57:35.033,3,-0.37,0.19,1.28,2.4348,1.1977999999999973,0.1264000000000003,175,75
2026-05-09 14:57:35.033,2,1.5,0.33,0.16,-4.569999999999999,-14.9482,17.6956,175,75
2026-05-09 14:57:35.057,1,-0.37,1.13,0.55,4.125999999999998,-4.8004,-0.6740000000000013,175,75
2026-05-09 14:57:35.066,5,-0.04,-0.21,1.08,-2.289,1.6261999999999999,-5.8528,175,75
2026-05-09 14:57:35.066,5,-0.02,-0.21,1.08,-2.369,1.5962,-9.5228,175,75
2026-05-09 14:57:35.070,2,1.46,0.32,0.13,-4.45,-16.1082,14.465599999999998,175,75
2026-05-09 14:57:35.072,5,-0.01,-0.2,1.07,-2.279,2.3662,-12.152800000000001,175,75
2026-05-09 14:57:35.084,4,0.01,0.08,1.76,-8.642400000000002,4.282600000000002,-1.2887999999999993,175,75
2026-05-09 14:57:35.084,1,-0.38,1.11,0.52,4.435999999999998,-2.3004000000000007,-0.30400000000000027,175,75
2026-05-09 14:57:35.084,2,1.46,0.33,0.13,-2.919999999999999,-12.3282,14.7656,175,75
2026-05-09 14:57:35.084,4,0.04,0.06,1.75,-8.032400000000003,8.002600000000001,-1.7787999999999995,175,75
2026-05-09 14:57:35.095,1,-0.38,1.1,0.54,4.435999999999998,-3.1504000000000003,-0.18400000000000105,175,75
2026-05-09 14:57:35.095,5,0.0,-0.19,1.07,-3.919,6.716200000000001,-11.0728,175,75
2026-05-09 14:57:35.095,3,-0.42,0.2,1.25,3.8948,-0.752200000000002,1.0363999999999995,175,75
2026-05-09 14:57:35.095,1,-0.39,1.1,0.53,5.285999999999998,-1.4504000000000001,-0.5540000000000003,175,75
2026-05-09 14:57:35.097,4,0.02,0.08,1.74,-9.132400000000004,15.012600000000006,-2.5687999999999995,175,75
2026-05-09 14:57:35.098,2,1.52,0.3,0.16,-5.36,-9.2182,16.3556,175,75
2026-05-09 14:57:35.109,5,-0.01,-0.19,1.07,-4.569000000000001,8.9762,-9.0828,175,75
2026-05-09 14:57:35.109,3,-0.43,0.18,1.23,4.4448,-1.0622000000000007,-0.0036000000000004917,175,75
2026-05-09 14:57:35.109,1,-0.38,1.1,0.52,6.075999999999999,-1.0204000000000004,-0.6140000000000008,175,75
2026-05-09 14:57:35.120,4,0.05,0.09,1.74,-9.312400000000004,15.442599999999999,-3.1187999999999994,175,75
2026-05-09 14:57:35.120,2,1.51,0.27,0.18,-6.89,-15.7482,15.135599999999998,175,75
2026-05-09 14:57:35.120,3,-0.42,0.18,1.23,5.2348,-1.122200000000003,-0.5435999999999996,175,75
2026-05-09 14:57:35.120,2,1.54,0.27,0.17,-7.62,-25.8082,12.6356,175,75
2026-05-09 14:57:35.120,1,-0.37,1.1,0.53,6.325999999999999,-0.10040000000000049,0.11599999999999966,175,75
2026-05-09 14:57:35.120,5,-0.02,-0.2,1.08,-3.029,9.1162,-7.4528,175,75
2026-05-09 14:57:35.134,1,-0.37,1.11,0.54,6.685999999999998,-0.4703999999999997,0.11599999999999966,175,75
2026-05-09 14:57:35.135,5,-0.02,-0.19,1.08,-2.809,8.886199999999999,-7.6728,175,75
2026-05-09 14:57:35.135,3,-0.43,0.2,1.22,4.6848,-1.2422000000000004,-1.4635999999999996,175,75
2026-05-09 14:57:35.135,2,1.51,0.32,0.14,-8.469999999999999,-36.0482,9.0956,175,75
2026-05-09 14:57:35.135,1,-0.37,1.12,0.56,6.625999999999999,0.5095999999999989,0.05599999999999916,175,75
2026-05-09 14:57:35.135,5,-0.02,-0.19,1.08,-2.959,9.4362,-7.472799999999999,175,75
2026-05-09 14:57:35.148,3,-0.44,0.22,1.24,5.6048,1.867799999999999,-1.9535999999999998,175,75
2026-05-09 14:57:35.148,4,0.04,0.07,1.76,-10.962400000000002,16.902600000000007,-2.9987999999999992,175,75
2026-05-09 14:57:35.148,5,-0.02,-0.19,1.07,-2.959,9.136199999999999,-6.0028,175,75
2026-05-09 14:57:35.148,1,-0.39,1.12,0.53,6.745999999999999,-0.2904,0.4259999999999984,175,75
2026-05-09 14:57:35.148,2,1.49,0.34,0.13,-9.629999999999999,-31.1682,9.3356,175,75
2026-05-09 14:57:35.148,3,-0.39,0.2,1.27,5.844799999999999,-0.14220000000000255,-2.0136000000000003,175,75
2026-05-09 14:57:35.159,5,-0.03,-0.19,1.08,-2.499,8.5962,-4.9228,175,75
2026-05-09 14:57:35.160,2,1.51,0.32,0.12,-10.849999999999998,-24.2782,10.625599999999999,175,75
2026-05-09 14:57:35.160,3,-0.42,0.18,1.25,6.4548,-2.7622000000000035,-1.8236000000000008,175,75
2026-05-09 14:57:35.160,5,-0.04,-0.19,1.07,-1.479,8.0162,-5.3528,175,75
2026-05-09 14:57:35.170,2,1.51,0.31,0.12,-11.459999999999997,-20.3782,9.525599999999999,175,75
2026-05-09 14:57:35.170,4,-0.01,0.1,1.85,-9.252400000000002,19.6426,0.05120000000000058,175,75
2026-05-09 14:57:35.170,3,-0.43,0.18,1.25,6.5748,-0.14220000000000255,-2.983600000000001,175,75
2026-05-09 14:57:35.170,2,1.52,0.33,0.13,-10.669999999999998,-16.5982,7.755599999999999,175,75
2026-05-09 14:57:35.184,4,-0.07,0.06,1.88,-8.7624,13.422600000000003,1.3312000000000004,175,75
2026-05-09 14:57:35.184,3,-0.42,0.18,1.25,6.8848,-3.7422000000000004,-4.143599999999999,175,75
2026-05-09 14:57:35.184,1,-0.38,1.1,0.56,4.985999999999999,-1.6904000000000003,0.6059999999999999,175,75
2026-05-09 14:57:35.184,2,1.52,0.35,0.14,-8.349999999999998,-17.5782,7.025599999999999,175,75
2026-05-09 14:57:35.184,4,-0.09,0.04,1.92,-7.9724,12.262600000000006,3.2212000000000005,175,75
2026-05-09 14:57:35.191,2,1.51,0.36,0.15,-7.44,-16.2982,5.135599999999998,175,75
2026-05-09 14:57:35.203,4,-0.12,0.04,1.94,-4.072400000000002,11.592600000000004,5.1112,175,75
2026-05-09 14:57:35.203,5,-0.03,-0.18,1.08,-2.039,3.1662000000000003,-4.3428,175,75
2026-05-09 14:57:35.203,3,-0.43,0.19,1.27,6.0348,-4.7722000000000016,-5.3636,175,75
2026-05-09 14:57:35.203,2,1.5,0.37,0.12,-7.19,-17.208199999999998,5.255599999999999,175,75
2026-05-09 14:57:35.215,1,-0.39,1.1,0.54,5.105999999999998,-1.9904000000000002,0.05599999999999916,175,75
2026-05-09 14:57:35.215,4,-0.14,0.05,1.98,0.31759999999999877,9.162599999999998,6.9412,175,75
2026-05-09 14:57:35.215,5,-0.02,-0.18,1.08,-2.399,1.8761999999999999,-3.1028,175,75
2026-05-09 14:57:35.215,1,-0.39,1.1,0.55,4.925999999999998,-1.5704000000000002,-0.30400000000000027,175,75
2026-05-09 14:57:35.215,2,1.46,0.37,0.11,-7.8,-13.8582,6.8355999999999995,175,75
2026-05-09 14:57:35.215,4,-0.17,0.07,2.01,4.467599999999997,4.402600000000007,10.301200000000001,175,75
2026-05-09 14:57:35.229,3,-0.42,0.2,1.27,5.6048,-8.862200000000001,-7.5036000000000005,175,75
2026-05-09 14:57:35.229,2,1.44,0.34,0.1,-9.329999999999998,-5.8082,8.7956,175,75
2026-05-09 14:57:35.229,5,-0.02,-0.19,1.06,-1.919,2.0162,-4.1128,175,75
2026-05-09 14:57:35.240,4,-0.21,0.08,2.06,10.927599999999998,-5.047399999999996,14.6912,175,75
2026-05-09 14:57:35.240,3,-0.42,0.2,1.27,4.9948,-5.752200000000002,-6.7036,175,75
2026-05-09 14:57:35.240,1,-0.38,1.1,0.55,4.185999999999998,-2.1804000000000006,-0.24400000000000155,175,75
2026-05-09 14:57:35.240,2,1.46,0.33,0.11,-10.849999999999998,-1.1082,10.075599999999998,175,75
2026-05-09 14:57:35.240,5,-0.02,-0.2,1.05,-1.649,2.9362,-5.0828,175,75
2026-05-09 14:57:35.251,3,-0.41,0.2,1.29,5.0548,-4.652200000000001,-6.643599999999999,175,75
2026-05-09 14:57:35.251,1,-0.38,1.1,0.55,3.7659999999999982,-2.9104,-0.49400000000000155,175,75
2026-05-09 14:57:35.251,4,-0.26,0.11,2.1,19.4076,-9.807399999999994,21.0312,175,75
2026-05-09 14:57:35.251,5,-0.0,-0.19,1.06,-1.259,3.8462,-5.8328,175,75
2026-05-09 14:57:35.262,2,1.49,0.31,0.12,-11.639999999999997,-3.0581999999999994,9.825599999999998,175,75
2026-05-09 14:57:35.262,1,-0.37,1.1,0.56,3.155999999999999,-2.3604000000000003,-0.6740000000000013,175,75
2026-05-09 14:57:35.262,2,1.5,0.32,0.14,-11.399999999999999,-7.2682,7.9956,175,75
2026-05-09 14:57:35.266,4,-0.25,0.14,2.12,32.2676,-10.357399999999998,28.831200000000003,175,75
2026-05-09 14:57:35.277,1,-0.37,1.11,0.56,3.395999999999999,-3.2704000000000004,-0.6140000000000008,175,75
2026-05-09 14:57:35.277,2,1.46,0.36,0.14,-10.91,-9.4682,7.2056,175,75
2026-05-09 14:57:35.297,1,-0.38,1.11,0.56,2.9659999999999975,-4.920400000000001,-0.30400000000000027,175,75
2026-05-09 14:57:35.297,4,-0.25,0.12,2.17,49.9576,-14.137399999999992,37.6712,175,75
2026-05-09 14:57:35.297,2,1.47,0.37,0.14,-10.91,-8.4282,7.695599999999999,175,75
2026-05-09 14:57:35.297,5,-0.01,-0.17,1.07,-1.339,9.2762,-5.3128,175,75
2026-05-09 14:57:35.309,3,-0.42,0.2,1.3,2.2447999999999997,-3.372200000000003,-6.0336,175,75
2026-05-09 14:57:35.309,1,-0.38,1.1,0.56,2.905999999999999,-6.3804,-0.37400000000000055,175,75
2026-05-09 14:57:35.309,4,-0.22,0.08,2.15,54.827600000000004,-19.7474,37.4912,175,75
2026-05-09 14:57:35.309,2,1.49,0.36,0.14,-11.95,-5.6182,8.7956,175,75
2026-05-09 14:57:35.309,5,-0.02,-0.17,1.07,-2.149,10.206199999999999,-3.3728,175,75
2026-05-09 14:57:35.309,3,-0.4,0.19,1.31,2.0648,-1.9722000000000008,-5.733600000000001,175,75
2026-05-09 14:57:35.322,1,-0.39,1.1,0.56,2.355999999999998,-6.260400000000001,0.11599999999999966,175,75
2026-05-09 14:57:35.322,2,1.49,0.34,0.16,-14.809999999999999,-4.2182,9.215599999999998,175,75
2026-05-09 14:57:35.322,5,-0.03,-0.18,1.07,-2.8890000000000002,9.876199999999999,-1.5828,175,75
2026-05-09 14:57:35.334,5,-0.04,-0.19,1.08,-3.1590000000000003,9.2762,-0.44279999999999997,175,75
2026-05-09 14:57:35.334,3,-0.4,0.2,1.29,0.5447999999999995,-3.0122000000000035,-4.6936,175,75
2026-05-09 14:57:35.334,1,-0.4,1.09,0.49,4.0059999999999985,-3.1504000000000003,-0.06400000000000183,175,75
2026-05-09 14:57:35.334,4,-0.03,0.05,2.0,73.1276,-25.047399999999996,36.7012,175,75
2026-05-09 14:57:35.334,5,-0.05,-0.19,1.07,-2.6590000000000003,8.466199999999999,-0.5528,175,75
2026-05-09 14:57:35.334,3,-0.36,0.19,1.31,0.8448000000000002,-0.32220000000000226,-4.323600000000001,175,75
2026-05-09 14:57:35.334,1,-0.38,1.09,0.51,4.495999999999999,-1.9304000000000006,-0.49400000000000155,175,75
2026-05-09 14:57:35.344,4,0.05,0.03,2.01,79.0976,-26.147399999999998,32.861200000000004,175,75
2026-05-09 14:57:35.350,4,0.11,0.02,2.0,82.4576,-31.387399999999992,28.831200000000003,175,75
2026-05-09 14:57:35.364,2,1.48,0.37,0.16,-15.239999999999998,-22.818199999999997,3.5455999999999985,175,75
2026-05-09 14:57:35.364,1,-0.4,1.09,0.57,3.5159999999999982,-1.3803999999999998,-0.6140000000000008,175,75
2026-05-09 14:57:35.364,2,1.49,0.35,0.16,-16.279999999999998,-18.9182,3.7256,175,75
2026-05-09 14:57:35.364,1,-0.4,1.08,0.58,4.125999999999998,-0.5904000000000007,-0.9140000000000015,175,75
2026-05-09 14:57:35.367,3,-0.37,0.19,1.29,-0.7951999999999995,2.787799999999999,-0.9735999999999994,175,75
2026-05-09 14:57:35.371,5,-0.04,-0.22,1.08,-2.859,10.876199999999999,-0.6128,175,75
2026-05-09 14:57:35.371,4,0.14,0.13,1.98,91.6576,-28.647399999999998,18.961199999999998,175,75
2026-05-09 14:57:35.385,5,-0.04,-0.23,1.08,-2.529,11.8562,0.11720000000000003,175,75
2026-05-09 14:57:35.385,2,1.49,0.34,0.15,-16.09,-15.1382,3.605599999999999,175,75
2026-05-09 14:57:35.385,4,0.13,0.19,2.03,100.8076,-19.627399999999994,17.0612,175,75
2026-05-09 14:57:35.400,5,-0.06,-0.23,1.07,-1.2890000000000001,12.1962,0.2172,175,75
2026-05-09 14:57:35.400,2,1.49,0.34,0.15,-14.57,-17.5782,1.5355999999999987,175,75
2026-05-09 14:57:35.400,4,0.08,0.27,2.11,111.1776,-14.627399999999994,16.8812,175,75
2026-05-09 14:57:35.400,2,1.49,0.33,0.15,-13.59,-17.938200000000002,-0.11440000000000161,175,75
2026-05-09 14:57:35.404,5,-0.07,-0.23,1.07,0.06099999999999994,11.4462,-1.2628,175,75
2026-05-09 14:57:35.404,1,-0.39,1.09,0.56,3.155999999999999,-3.4604,-0.43400000000000105,175,75
2026-05-09 14:57:35.416,3,-0.37,0.18,1.33,-3.8452,0.03779999999999717,-0.06359999999999921,175,75
2026-05-09 14:57:35.416,4,0.06,0.33,2.15,118.8576,-4.627399999999994,14.0812,175,75
2026-05-09 14:57:35.416,5,-0.08,-0.22,1.08,0.45099999999999996,11.376199999999999,-2.9928,175,75
2026-05-09 14:57:35.416,2,1.48,0.35,0.16,-13.779999999999998,-14.9482,-0.5944000000000003,175,75
2026-05-09 14:57:35.416,1,-0.38,1.09,0.56,3.0959999999999983,-3.1504000000000003,-0.6740000000000013,175,75
2026-05-09 14:57:35.426,4,0.14,0.39,2.09,120.8076,2.752600000000001,13.3512,175,75
2026-05-09 14:57:35.426,5,-0.07,-0.21,1.07,1.071,10.4162,-4.5328,175,75
2026-05-09 14:57:35.426,2,1.49,0.38,0.16,-13.529999999999998,-15.4382,-0.8444000000000003,175,75
2026-05-09 14:57:35.426,1,-0.4,1.09,0.55,2.8459999999999983,-2.6004000000000005,-0.37400000000000055,175,75
2026-05-09 14:57:35.430,3,-0.38,0.2,1.34,-6.655200000000001,-0.022200000000001552,1.0363999999999995,175,75
2026-05-09 14:57:35.430,5,-0.08,-0.2,1.08,1.291,9.8162,-5.182799999999999,175,75
2026-05-09 14:57:35.441,2,1.49,0.4,0.16,-13.649999999999999,-13.9782,-0.47440000000000104,175,75
2026-05-09 14:57:35.441,1,-0.39,1.09,0.55,2.8459999999999983,-0.7103999999999999,-0.6740000000000013,175,75
2026-05-09 14:57:35.441,5,-0.07,-0.18,1.07,1.171,8.456199999999999,-5.9428,175,75
2026-05-09 14:57:35.441,3,-0.38,0.19,1.32,-7.2652,-0.022200000000001552,0.7964000000000002,175,75
2026-05-09 14:57:35.441,2,1.5,0.39,0.17,-13.59,-12.7582,0.19559999999999889,175,75
2026-05-09 14:57:35.455,1,-0.38,1.08,0.57,2.235999999999999,-0.10040000000000049,-0.5540000000000003,175,75
2026-05-09 14:57:35.455,2,1.48,0.38,0.18,-13.349999999999998,-15.078199999999999,-0.724400000000001,175,75
2026-05-09 14:57:35.461,5,-0.06,-0.15,1.08,0.9209999999999999,6.3362,-3.3928,175,75
2026-05-09 14:57:35.461,1,-0.39,1.08,0.59,1.2659999999999982,-0.410400000000001,-0.6740000000000013,175,75
2026-05-09 14:57:35.461,4,0.0,0.35,2.22,123.8576,-86.5174,-5.6188,175,75
2026-05-09 14:57:35.462,3,-0.41,0.19,1.3,-9.885200000000001,0.8977999999999966,1.4664000000000001,175,75
2026-05-09 14:57:35.483,4,0.01,0.39,2.04,117.9976,-68.8274,-6.348799999999999,175,75
2026-05-09 14:57:35.483,2,1.49,0.4,0.16,-12.919999999999998,-20.6282,-2.3644,175,75
2026-05-09 14:57:35.483,3,-0.39,0.19,1.32,-9.9452,0.8377999999999979,1.0363999999999995,175,75
2026-05-09 14:57:35.484,2,1.44,0.42,0.12,-12.369999999999997,-27.938200000000002,-4.374400000000001,175,75
2026-05-09 14:57:35.484,4,0.13,0.44,1.92,118.4276,-38.27739999999999,0.17120000000000068,175,75
2026-05-09 14:57:35.494,3,-0.38,0.2,1.29,-11.345199999999998,0.28779999999999717,2.5664,175,75
2026-05-09 14:57:35.494,1,-0.4,1.09,0.59,-0.684000000000001,-0.6504000000000003,-1.1640000000000015,175,75
2026-05-09 14:57:35.494,5,-0.03,-0.14,1.08,-1.3690000000000002,2.5162,9.3072,175,75
2026-05-09 14:57:35.494,2,1.44,0.42,0.12,-13.11,-21.8382,-3.2844000000000015,175,75
2026-05-09 14:57:35.494,3,-0.41,0.2,1.3,-11.7152,1.5077999999999996,1.7664,175,75
2026-05-09 14:57:35.505,1,-0.41,1.09,0.59,-2.3340000000000014,0.5095999999999989,-1.8340000000000014,175,75
2026-05-09 14:57:35.505,5,-0.02,-0.15,1.06,-1.6989999999999998,1.7862,13.7972,175,75
2026-05-09 14:57:35.505,2,1.45,0.44,0.11,-12.739999999999998,-13.1182,-0.8444000000000003,175,75
2026-05-09 14:57:35.505,4,0.21,0.45,1.94,120.4376,10.74260000000001,15.241200000000001,175,75
2026-05-09 14:57:35.513,5,-0.03,-0.17,1.05,-1.799,2.0162,16.7272,175,75
2026-05-09 14:57:35.516,3,-0.37,0.19,1.36,-13.295200000000001,-0.14220000000000255,2.8663999999999996,175,75
2026-05-09 14:57:35.516,4,0.19,0.42,2.01,119.52759999999999,40.3126,20.1712,175,75
2026-05-09 14:57:35.529,2,1.43,0.42,0.13,-10.239999999999998,-9.2782,-0.9644000000000013,175,75
2026-05-09 14:57:35.529,5,-0.03,-0.18,1.05,-1.4889999999999999,2.6262,17.6372,175,75
2026-05-09 14:57:35.529,1,-0.4,1.09,0.6,-4.774000000000001,-0.410400000000001,-2.6240000000000006,175,75
2026-05-09 14:57:35.529,3,-0.41,0.2,1.28,-14.395199999999999,-0.6922000000000033,2.9264,175,75
2026-05-09 14:57:35.529,4,0.2,0.4,2.08,116.9076,57.0826,25.4212,175,75
2026-05-09 14:57:35.529,2,1.42,0.4,0.16,-10.0,-6.8382,0.2555999999999994,175,75
2026-05-09 14:57:35.540,1,-0.39,1.09,0.59,-5.504000000000001,-0.9603999999999999,-2.444000000000001,175,75
2026-05-09 14:57:35.540,3,-0.41,0.19,1.27,-14.825199999999999,2.0477999999999987,2.9264,175,75
2026-05-09 14:57:35.540,2,1.43,0.41,0.17,-9.939999999999998,-7.9382,0.8655999999999988,175,75
2026-05-09 14:57:35.540,5,-0.03,-0.21,1.04,-0.349,6.1462,16.2772,175,75
2026-05-09 14:57:35.540,1,-0.39,1.09,0.59,-7.094000000000001,-1.0204000000000004,-2.8740000000000006,175,75
2026-05-09 14:57:35.545,3,-0.41,0.19,1.25,-15.735199999999999,3.757799999999998,2.6864,175,75
2026-05-09 14:57:35.545,2,1.44,0.41,0.18,-10.299999999999997,-13.488199999999999,0.5555999999999983,175,75
2026-05-09 14:57:35.558,5,-0.03,-0.22,1.05,-0.05900000000000005,9.1562,15.807199999999998,175,75
2026-05-09 14:57:35.558,4,0.19,0.39,2.22,112.9976,58.67260000000002,27.3112,175,75
2026-05-09 14:57:35.558,1,-0.39,1.08,0.58,-8.124000000000002,-1.9304000000000006,-2.9940000000000015,175,75
2026-05-09 14:57:35.558,3,-0.4,0.18,1.29,-15.985199999999999,0.8377999999999979,2.0164,175,75
2026-05-09 14:57:35.569,2,1.45,0.41,0.18,-10.969999999999999,-16.7782,0.6855999999999991,175,75
2026-05-09 14:57:35.569,5,-0.05,-0.22,1.04,0.421,11.0762,14.4772,175,75
2026-05-09 14:57:35.569,4,0.2,0.32,2.2,109.8276,54.2226,24.9912,175,75
2026-05-09 14:57:35.569,1,-0.39,1.08,0.56,-8.984000000000002,-1.2604000000000006,-2.9940000000000015,175,75
2026-05-09 14:57:35.569,3,-0.4,0.18,1.31,-16.1652,-1.1822000000000017,1.4664000000000001,175,75
2026-05-09 14:57:35.580,2,1.42,0.41,0.16,-11.09,-15.988199999999999,1.2256,175,75
2026-05-09 14:57:35.580,5,-0.07,-0.22,1.05,1.501,11.9162,12.3172,175,75
2026-05-09 14:57:35.580,4,0.21,0.24,2.16,104.27759999999999,56.1126,22.071199999999997,175,75
2026-05-09 14:57:35.580,1,-0.4,1.08,0.56,-9.714000000000002,-1.3803999999999998,-3.0540000000000003,175,75
2026-05-09 14:57:35.580,2,1.42,0.42,0.15,-9.139999999999997,-11.9682,0.7455999999999996,175,75
2026-05-09 14:57:35.586,5,-0.07,-0.21,1.05,2.311,12.9162,8.8072,175,75
2026-05-09 14:57:35.586,4,0.24,0.19,2.14,99.1576,61.05260000000001,20.0512,175,75
2026-05-09 14:57:35.586,1,-0.39,1.09,0.56,-9.834000000000003,0.37959999999999994,-2.934000000000001,175,75
2026-05-09 14:57:35.588,5,-0.06,-0.19,1.05,2.1710000000000003,15.786200000000001,6.5972,175,75
2026-05-09 14:57:35.593,4,0.27,0.14,2.15,95.0776,61.352599999999995,15.5412,175,75
2026-05-09 14:57:35.593,2,1.45,0.45,0.17,-7.31,-8.3682,0.6855999999999991,175,75
2026-05-09 14:57:35.607,3,-0.43,0.18,1.22,-17.1452,-4.472200000000001,1.0363999999999995,175,75
2026-05-09 14:57:35.607,4,0.28,0.1,2.2,92.2676,58.852599999999995,8.2212,175,75
2026-05-09 14:57:35.607,2,1.47,0.5,0.18,-5.7299999999999995,-10.6182,0.07559999999999967,175,75
2026-05-09 14:57:35.617,5,-0.08,-0.18,1.06,-0.049000000000000044,22.3262,7.3272,175,75
2026-05-09 14:57:35.617,3,-0.41,0.17,1.21,-16.1652,-4.412200000000002,-0.4836000000000009,175,75
2026-05-09 14:57:35.617,1,-0.38,1.11,0.57,-10.874000000000002,0.9895999999999994,-2.2040000000000006,175,75
2026-05-09 14:57:35.617,5,-0.09,-0.18,1.07,-1.3090000000000002,23.1962,10.027199999999999,175,75
2026-05-09 14:57:35.621,4,0.21,-0.02,2.22,85.3176,50.07260000000001,-12.998800000000001,175,75
2026-05-09 14:57:35.621,1,-0.37,1.11,0.57,-10.504000000000001,1.1795999999999989,-2.0740000000000016,175,75
2026-05-09 14:57:35.635,2,1.5,0.47,0.18,-6.829999999999999,-14.2782,-2.064399999999999,175,75
2026-05-09 14:57:35.635,5,-0.11,-0.18,1.08,-2.4090000000000003,21.9662,12.7272,175,75
2026-05-09 14:57:35.635,4,0.13,-0.07,2.23,83.6776,46.4126,-25.428800000000003,175,75
2026-05-09 14:57:35.635,3,-0.44,0.18,1.19,-15.6752,-9.352200000000003,-3.3536,175,75
2026-05-09 14:57:35.635,1,-0.38,1.12,0.55,-10.754000000000001,0.9895999999999994,-1.9540000000000006,175,75
2026-05-09 14:57:35.641,2,1.51,0.45,0.16,-4.69,-15.078199999999999,-4.8644,175,75
2026-05-09 14:57:35.641,5,-0.12,-0.19,1.09,-2.319,19.5962,14.517199999999999,175,75
2026-05-09 14:57:35.643,4,0.02,-0.1,2.34,83.79759999999999,45.5626,-38.2988,175,75
2026-05-09 14:57:35.655,3,-0.41,0.2,1.2,-15.735199999999999,-3.252200000000002,-2.313599999999999,175,75
2026-05-09 14:57:35.655,4,-0.06,-0.13,2.48,86.2376,27.02260000000001,-55.738800000000005,175,75
2026-05-09 14:57:35.655,2,1.5,0.45,0.12,0.6100000000000003,-17.3282,-7.1844,175,75
2026-05-09 14:57:35.668,5,-0.15,-0.21,1.1,0.5209999999999999,13.5962,15.967199999999998,175,75
2026-05-09 14:57:35.668,4,-0.1,-0.17,2.59,86.10759999999999,-7.247399999999999,-77.5688,175,75
2026-05-09 14:57:35.668,2,1.47,0.45,0.1,4.03,-17.6982,-8.284400000000002,175,75
2026-05-09 14:57:35.668,3,-0.43,0.17,1.15,-15.735199999999999,-14.902200000000004,-5.5436,175,75
2026-05-09 14:57:35.668,1,-0.38,1.11,0.55,-11.424000000000003,-0.5904000000000007,-1.5940000000000012,175,75
2026-05-09 14:57:35.668,5,-0.16,-0.21,1.11,1.391,8.8962,16.487199999999998,175,75
2026-05-09 14:57:35.677,4,-0.16,-0.2,2.65,84.2176,-57.127399999999994,-106.6488,175,75
2026-05-09 14:57:35.677,2,1.46,0.44,0.09,4.82,-13.5482,-8.3444,175,75
2026-05-09 14:57:35.677,3,-0.41,0.21,1.15,-15.185200000000002,2.4777999999999984,-4.7536000000000005,175,75
2026-05-09 14:57:35.677,1,-0.39,1.11,0.54,-10.384,-0.5904000000000007,-1.7140000000000004,175,75
2026-05-09 14:57:35.686,5,-0.17,-0.23,1.1,1.901,3.9662,16.737199999999998,175,75
2026-05-09 14:57:35.686,2,1.46,0.44,0.07,5.430000000000001,-7.7582,-7.424400000000002,175,75
2026-05-09 14:57:35.686,3,-0.39,0.21,1.19,-14.5152,5.407799999999998,-0.9735999999999994,175,75
2026-05-09 14:57:35.686,1,-0.38,1.11,0.55,-10.684000000000001,-0.410400000000001,-1.6540000000000017,175,75
2026-05-09 14:57:35.697,5,-0.19,-0.23,1.09,2.371,-1.2338,14.7972,175,75
2026-05-09 14:57:35.697,4,-0.24,-0.14,2.43,73.1276,-171.69740000000002,-181.8988,175,75
2026-05-09 14:57:35.697,3,-0.4,0.19,1.19,-13.4252,1.377799999999997,-2.2536000000000005,175,75
2026-05-09 14:57:35.705,2,1.42,0.42,0.04,7.630000000000001,-5.3182,-7.1844,175,75
2026-05-09 14:57:35.705,1,-0.39,1.1,0.52,-9.954,-0.9004000000000003,-1.8940000000000001,175,75
2026-05-09 14:57:35.707,2,1.39,0.41,0.03,7.930000000000001,0.11180000000000057,-6.7544,175,75
2026-05-09 14:57:35.712,3,-0.41,0.19,1.17,-12.385200000000001,4.427799999999998,-1.8935999999999993,175,75
2026-05-09 14:57:35.716,2,1.39,0.4,0.04,8.48,11.391800000000002,-4.8644,175,75
2026-05-09 14:57:35.730,4,-0.11,0.02,2.02,40.9876,-171.8774,-225.7988,175,75
2026-05-09 14:57:35.730,1,-0.39,1.1,0.53,-8.124000000000002,0.19960000000000022,-1.7140000000000004,175,75
2026-05-09 14:57:35.730,5,-0.11,-0.19,1.06,3.491,-9.3438,-3.7828,175,75
2026-05-09 14:57:35.730,2,1.42,0.41,0.06,8.85,15.1118,-4.564399999999999,175,75
2026-05-09 14:57:35.745,1,-0.39,1.1,0.54,-7.094000000000001,-0.04039999999999999,-1.4040000000000017,175,75
2026-05-09 14:57:35.745,5,-0.08,-0.17,1.06,2.291,-7.7438,-6.0428,175,75
2026-05-09 14:57:35.745,4,-0.03,-0.0,1.99,30.7476,-149.4974,-234.0288,175,75
2026-05-09 14:57:35.758,4,0.02,-0.01,2.01,19.7076,-131.0274,-241.7188,175,75
2026-05-09 14:57:35.758,5,-0.05,-0.15,1.07,0.871,-5.883800000000001,-4.9128,175,75
2026-05-09 14:57:35.758,2,1.45,0.42,0.11,8.48,10.781799999999999,-4.314399999999999,175,75
2026-05-09 14:57:35.768,5,-0.04,-0.14,1.08,-0.889,-4.6137999999999995,-0.9128000000000001,175,75
2026-05-09 14:57:35.768,4,0.04,0.04,2.02,6.177599999999998,-125.41739999999999,-250.6788,175,75
2026-05-09 14:57:35.768,1,-0.39,1.11,0.53,-5.144000000000002,-1.3204000000000002,-1.7140000000000004,175,75
2026-05-09 14:57:35.768,5,-0.04,-0.14,1.09,-2.569,-3.3038,4.317200000000001,175,75
2026-05-09 14:57:35.770,1,-0.39,1.11,0.52,-4.894000000000002,-1.5704000000000002,-1.5940000000000012,175,75
2026-05-09 14:57:35.772,3,-0.4,0.18,1.17,-5.8552,2.5977999999999977,-0.6736000000000004,175,75
2026-05-09 14:57:35.788,2,1.46,0.41,0.15,6.41,5.351799999999999,-4.134399999999999,175,75
2026-05-09 14:57:35.788,5,-0.06,-0.15,1.09,-3.639,-2.3838,9.2472,175,75
2026-05-09 14:57:35.788,3,-0.39,0.19,1.18,-5.0052,4.427799999999998,0.3663999999999996,175,75
2026-05-09 14:57:35.788,1,-0.38,1.11,0.53,-4.0440000000000005,-1.5704000000000002,-1.774000000000001,175,75
2026-05-09 14:57:35.788,4,-0.03,0.12,1.9,-17.0024,-108.88739999999999,-267.1988,175,75
2026-05-09 14:57:35.793,5,-0.08,-0.18,1.09,-4.339,-2.1538,11.8972,175,75
2026-05-09 14:57:35.804,2,1.45,0.4,0.14,5.0,-3.6682000000000006,-6.334400000000002,175,75
2026-05-09 14:57:35.837,5,-0.12,-0.22,1.09,-3.8990000000000005,-2.4138,11.1672,175,75
2026-05-09 14:57:35.846,5,-0.14,-0.24,1.09,-3.039,-3.7438,8.6772,175,75
2026-05-09 14:57:35.861,5,-0.15,-0.24,1.08,-2.539,-5.893800000000001,5.6872,175,75
2026-05-09 14:57:35.861,2,1.44,0.41,0.14,5.370000000000001,-2.9382,-7.064399999999999,175,75
2026-05-09 14:57:35.861,5,-0.15,-0.24,1.08,-1.669,-8.213799999999999,1.4572,175,75
2026-05-09 14:57:35.861,1,-0.38,1.11,0.52,-1.9040000000000017,-0.9004000000000003,-0.9840000000000018,175,75
2026-05-09 14:57:35.904,4,-0.26,0.25,2.27,-41.9324,-8.037399999999998,-246.40879999999999,175,75
2026-05-09 14:57:35.904,2,1.47,0.4,0.18,4.210000000000001,5.531799999999999,-8.3444,175,75
2026-05-09 14:57:35.904,1,-0.37,1.1,0.55,-0.2040000000000024,0.6896000000000004,-0.37400000000000055,175,75
2026-05-09 14:57:35.904,1,-0.38,1.1,0.55,0.8359999999999985,-0.10040000000000049,-0.12400000000000055,175,75
2026-05-09 14:57:35.944,4,-0.31,0.39,2.26,-50.47240000000001,-75.53739999999999,-252.74880000000002,175,75
2026-05-09 14:57:35.944,1,-0.38,1.1,0.55,0.895999999999999,-0.410400000000001,0.7259999999999991,175,75
2026-05-09 14:57:35.978,3,-0.41,0.17,1.2,2.1848,3.087799999999998,1.7064000000000004,175,75
2026-05-09 14:57:35.979,4,-0.36,0.46,2.13,-52.4824,-80.7174,-250.8588,175,75
2026-05-09 14:57:35.992,3,-0.4,0.16,1.2,3.0447999999999995,0.7677999999999976,1.0964,175,75
2026-05-09 14:57:35.992,1,-0.38,1.11,0.56,1.3859999999999992,-0.7103999999999999,0.8459999999999983,175,75
2026-05-09 14:57:35.992,3,-0.41,0.16,1.19,2.4348,-5.872200000000003,0.6764000000000001,175,75
2026-05-09 14:57:35.992,2,1.49,0.37,0.2,4.15,1.1418,-9.1344,175,75
2026-05-09 14:57:35.992,2,1.51,0.37,0.21,3.7800000000000002,-7.2682,-12.424400000000002,175,75
2026-05-09 14:57:35.992,1,-0.37,1.09,0.56,2.8459999999999983,-1.0804,1.645999999999999,175,75
2026-05-09 14:57:35.993,5,-0.05,-0.17,1.03,-0.5489999999999999,-5.2738,-5.3027999999999995,175,75
2026-05-09 14:57:35.996,3,-0.43,0.15,1.12,3.3448,-12.1522,-4.8736,175,75
2026-05-09 14:57:36.038,1,-0.38,1.09,0.54,2.485999999999999,-2.9104,2.985999999999999,175,75
2026-05-09 14:57:36.038,5,-0.05,-0.16,1.03,-1.5990000000000002,-2.9038,-2.8828,175,75
2026-05-09 14:57:36.038,5,-0.05,-0.16,1.03,-2.459,-0.4437999999999999,-1.2928,175,75
2026-05-09 14:57:36.038,4,-0.28,0.57,2.08,-42.4824,-15.907399999999996,-202.1988,175,75
2026-05-09 14:57:36.038,5,-0.06,-0.16,1.05,-3.1889999999999996,0.7062000000000002,-0.2128,175,75
2026-05-09 14:57:36.049,2,1.49,0.37,0.18,3.7800000000000002,-7.3882,-14.3144,175,75
2026-05-09 14:57:36.049,2,1.48,0.37,0.18,4.33,-5.6182,-14.5644,175,75
2026-05-09 14:57:36.049,2,1.48,0.36,0.18,5.25,-0.37819999999999965,-14.374400000000001,175,75
2026-05-09 14:57:36.049,5,-0.07,-0.17,1.05,-2.929,0.8862000000000001,0.0872,175,75
2026-05-09 14:57:36.049,3,-0.39,0.17,1.19,4.9348,-8.432200000000002,-5.8536,175,75
2026-05-09 14:57:36.060,1,-0.38,1.08,0.53,4.125999999999998,-0.8404000000000007,2.435999999999998,175,75
2026-05-09 14:57:36.060,3,-0.41,0.18,1.16,4.3848,-13.5622,-7.923599999999999,175,75
2026-05-09 14:57:36.097,5,-0.08,-0.17,1.05,-2.379,0.3762000000000001,-0.3028,175,75
2026-05-09 14:57:36.097,4,-0.22,0.7,2.18,-40.6524,-28.587399999999995,-192.8688,175,75
2026-05-09 14:57:36.097,5,-0.1,-0.17,1.05,-2.179,-0.14379999999999993,-1.3628,175,75
2026-05-09 14:57:36.097,4,-0.14,0.73,2.11,-36.5124,-33.70739999999999,-186.8988,175,75
2026-05-09 14:57:36.148,4,-0.25,0.78,2.1,-25.2324,-22.547399999999996,-167.1988,175,75
2026-05-09 14:57:36.148,1,-0.4,1.1,0.57,3.6359999999999992,0.25959999999999894,2.3759999999999994,175,75
2026-05-09 14:57:36.148,5,-0.09,-0.19,1.07,-2.1590000000000003,-6.533799999999999,3.5472,175,75
2026-05-09 14:57:36.148,2,1.54,0.36,0.21,5.550000000000001,-1.4182000000000006,-18.834400000000002,175,75
2026-05-09 14:57:36.148,4,-0.17,0.76,2.13,-22.672400000000003,-15.907399999999996,-162.0188,175,75
2026-05-09 14:57:36.187,1,-0.37,1.11,0.59,3.3359999999999985,0.5095999999999989,1.8859999999999992,175,75
2026-05-09 14:57:36.187,5,-0.05,-0.18,1.06,-0.30899999999999994,-11.613800000000001,0.16719999999999996,175,75
2026-05-09 14:57:36.188,4,-0.15,0.95,2.21,-15.0424,-28.157399999999996,-134.8888,175,75
2026-05-09 14:57:36.193,2,1.54,0.38,0.22,2.9300000000000006,-16.5982,-20.2344,175,75
2026-05-09 14:57:36.201,5,-0.02,-0.19,1.05,-3.149,-6.053800000000001,2.4672,175,75
2026-05-09 14:57:36.201,1,-0.39,1.1,0.55,0.2859999999999978,-4.2504,2.1259999999999994,175,75
2026-05-09 14:57:36.201,2,1.53,0.39,0.21,3.8500000000000005,-20.6282,-20.724400000000003,175,75
2026-05-09 14:57:36.201,5,-0.02,-0.19,1.05,-3.4389999999999996,-3.7237999999999998,2.3372,175,75
2026-05-09 14:57:36.209,4,-0.06,0.99,2.24,-15.782400000000003,-53.337399999999995,-130.1888,175,75
2026-05-09 14:57:36.209,5,-0.02,-0.19,1.06,-3.9389999999999996,0.07620000000000005,0.28719999999999996,175,75
2026-05-09 14:57:36.209,5,-0.03,-0.19,1.05,-3.2790000000000004,4.206200000000001,-1.3428,175,75
2026-05-09 14:57:36.209,1,-0.38,1.09,0.54,0.3459999999999983,-3.8804,2.3759999999999994,175,75
2026-05-09 14:57:36.219,5,-0.04,-0.19,1.06,-3.179,7.8262,-1.3728,175,75
2026-05-09 14:57:36.219,1,-0.4,1.1,0.55,-0.5040000000000013,-2.3604000000000003,1.7659999999999982,175,75
2026-05-09 14:57:36.219,2,1.48,0.42,0.16,9.030000000000001,-4.2182,-15.2944,175,75
2026-05-09 14:57:36.219,1,-0.4,1.1,0.56,-0.3240000000000016,-1.3204000000000002,1.395999999999999,175,75
2026-05-09 14:57:36.219,5,-0.07,-0.19,1.08,-2.499,8.2662,2.6072,175,75
2026-05-09 14:57:36.223,1,-0.41,1.1,0.57,-0.684000000000001,-1.4504000000000001,0.9759999999999991,175,75
2026-05-09 14:57:36.224,3,-0.35,0.15,1.26,-1.3452000000000002,-2.4022000000000006,0.9164000000000003,175,75
2026-05-09 14:57:36.224,4,-0.08,1.15,2.15,-17.3024,-34.6874,-75.6188,175,75
2026-05-09 14:57:36.230,1,-0.4,1.11,0.58,-1.3640000000000008,-2.2404,0.7859999999999996,175,75
2026-05-09 14:57:36.230,5,-0.1,-0.2,1.1,-2.319,-0.9138,7.567200000000001,175,75
2026-05-09 14:57:36.230,2,1.49,0.43,0.18,10.8,-13.3082,-11.394400000000001,175,75
2026-05-09 14:57:36.255,2,1.47,0.42,0.14,10.61,-8.9182,-8.7744,175,75
2026-05-09 14:57:36.266,4,-0.02,1.2,2.12,-18.032400000000003,-39.377399999999994,-55.6788,175,75
2026-05-09 14:57:36.266,5,-0.05,-0.22,1.05,-1.8290000000000002,-4.3238,4.8772,175,75
2026-05-09 14:57:36.305,3,-0.36,0.16,1.24,-0.6151999999999997,-4.102200000000003,-2.1335999999999995,175,75
2026-05-09 14:57:36.313,4,-0.01,1.22,2.1,-23.212400000000002,-36.447399999999995,-49.3988,175,75
2026-05-09 14:57:36.333,1,-0.4,1.1,0.56,-0.8740000000000023,-0.3504000000000005,1.5859999999999985,175,75
2026-05-09 14:57:36.347,4,0.02,1.24,2.05,-25.532400000000003,-28.157399999999996,-48.418800000000005,175,75
2026-05-09 14:57:36.347,5,-0.05,-0.21,1.04,-1.5190000000000001,0.9062000000000001,1.5572,175,75
2026-05-09 14:57:36.381,1,-0.39,1.1,0.55,-0.5640000000000018,-0.5904000000000007,1.0959999999999983,175,75
2026-05-09 14:57:36.381,3,-0.4,0.17,1.23,-0.49520000000000053,1.377799999999997,-0.2436000000000007,175,75
2026-05-09 14:57:36.381,5,-0.05,-0.21,1.04,-1.3090000000000002,2.0462000000000002,0.7771999999999999,175,75
2026-05-09 14:57:36.382,4,0.18,1.2,2.02,-27.852400000000003,-21.327399999999997,-47.0788,175,75
2026-05-09 14:57:36.382,2,1.46,0.41,0.13,10.86,5.7218,-4.194400000000002,175,75
2026-05-09 14:57:36.392,1,-0.4,1.11,0.56,-0.7540000000000013,0.5695999999999994,0.4859999999999989,175,75
2026-05-09 14:57:36.468,1,-0.4,1.11,0.56,-0.3240000000000016,0.5095999999999989,0.4859999999999989,175,75
2026-05-09 14:57:36.468,4,0.28,1.13,2.0,-24.072400000000002,-16.087399999999995,-46.348800000000004,175,75
2026-05-09 14:57:36.468,5,-0.06,-0.2,1.08,-2.679,0.31620000000000004,5.1672,175,75
2026-05-09 14:57:36.480,3,-0.39,0.15,1.22,0.2947999999999995,0.5277999999999992,-1.3436000000000003,175,75
2026-05-09 14:57:36.480,5,-0.07,-0.21,1.08,-3.059,-0.6137999999999999,6.1072,175,75
2026-05-09 14:57:36.480,5,-0.08,-0.21,1.07,-2.649,-1.7338,5.2472,175,75
2026-05-09 14:57:36.480,5,-0.08,-0.21,1.06,-2.179,-2.6437999999999997,4.1472,175,75
2026-05-09 14:57:36.489,4,0.15,1.22,2.11,-22.1224,-13.707399999999993,-45.2488,175,75
2026-05-09 14:57:36.489,2,1.47,0.41,0.2,10.06,2.5518,-3.4644000000000013,175,75
2026-05-09 14:57:36.524,5,-0.07,-0.22,1.05,-1.9289999999999998,-3.3038,3.0772000000000004,175,75
2026-05-09 14:57:36.530,5,-0.06,-0.2,1.04,-2.249,0.03620000000000001,0.2172,175,75
2026-05-09 14:57:36.541,4,0.08,1.22,2.28,-18.032400000000003,-88.94739999999999,-59.5188,175,75
2026-05-09 14:57:36.541,4,-0.02,1.17,2.16,1.477599999999999,-91.20739999999999,-34.0888,175,75
2026-05-09 14:57:36.541,1,-0.39,1.1,0.56,0.525999999999998,-0.5304000000000002,1.645999999999999,175,75
2026-05-09 14:57:36.541,5,-0.03,-0.19,1.06,-2.9090000000000003,-0.27379999999999993,4.1872,175,75
2026-05-09 14:57:36.551,3,-0.35,0.17,1.26,-1.0451999999999995,8.087799999999998,5.0664,175,75
2026-05-09 14:57:36.551,5,-0.09,-0.23,1.08,-2.769,6.276199999999999,6.2172,175,75
2026-05-09 14:57:36.551,3,-0.37,0.15,1.31,-0.37519999999999953,-0.9922000000000004,4.756399999999999,175,75
2026-05-09 14:57:36.565,4,0.3,1.22,2.44,4.647599999999997,86.23259999999999,22.5512,175,75
2026-05-09 14:57:36.565,5,-0.1,-0.24,1.07,-2.119,4.7262,8.0072,175,75
2026-05-09 14:57:36.565,4,0.06,1.14,2.39,-13.702400000000004,-32.307399999999994,-18.7288,175,75
2026-05-09 14:57:36.565,5,-0.11,-0.24,1.07,-0.849,2.7362,7.707199999999999,175,75
2026-05-09 14:57:36.591,4,0.05,1.2,2.23,-19.8024,-61.267399999999995,-23.788800000000002,175,75
2026-05-09 14:57:36.591,5,-0.1,-0.24,1.07,0.06099999999999994,0.9562000000000002,4.1372,175,75
2026-05-09 14:57:36.591,5,-0.09,-0.23,1.07,0.8109999999999999,1.2262,-0.4728,175,75
2026-05-09 14:57:36.594,5,-0.06,-0.22,1.07,1.041,2.6462,-3.6727999999999996,175,75
2026-05-09 14:57:36.607,3,-0.37,0.18,1.24,-0.3152000000000008,-4.102200000000003,2.4963999999999995,175,75
2026-05-09 14:57:36.607,5,-0.06,-0.2,1.07,0.30099999999999993,5.6562,-0.7328,175,75
2026-05-09 14:57:36.607,3,-0.4,0.18,1.18,-0.43520000000000003,-1.4822000000000024,2.6264000000000003,175,75
2026-05-09 14:57:36.617,5,-0.07,-0.2,1.07,0.020999999999999908,5.2462,2.2972,175,75
2026-05-09 14:57:36.617,1,-0.39,1.11,0.56,1.2659999999999982,4.4696,2.4960000000000004,175,75
2026-05-09 14:57:36.617,2,1.49,0.36,0.16,-1.8899999999999997,-8.1182,-4.564399999999999,175,75
2026-05-09 14:57:36.617,3,-0.4,0.18,1.19,-0.9252000000000002,-0.9922000000000004,3.4164000000000003,175,75
2026-05-09 14:57:36.630,2,1.47,0.38,0.14,-1.3999999999999995,-2.9982000000000006,-3.5844000000000023,175,75
2026-05-09 14:57:36.630,5,-0.09,-0.2,1.07,-1.099,3.5562,4.4772,175,75
2026-05-09 14:57:36.630,4,0.09,1.19,2.07,-23.342399999999998,38.0026,12.8012,175,75
2026-05-09 14:57:36.630,1,-0.39,1.12,0.57,0.8359999999999985,5.079599999999999,2.1259999999999994,175,75
2026-05-09 14:57:36.630,5,-0.1,-0.21,1.06,-1.259,3.2361999999999997,5.277200000000001,175,75
2026-05-09 14:57:36.630,2,1.48,0.41,0.16,0.4900000000000002,3.4017999999999997,-1.8143999999999991,175,75
2026-05-09 14:57:36.642,5,-0.09,-0.22,1.07,-1.569,3.2361999999999997,5.527200000000001,175,75
2026-05-09 14:57:36.642,2,1.5,0.41,0.19,0.7400000000000002,9.6818,0.7455999999999996,175,75
2026-05-09 14:57:36.642,5,-0.09,-0.23,1.08,-1.379,2.7862,5.5172,175,75
2026-05-09 14:57:36.642,1,-0.39,1.12,0.56,0.525999999999998,3.679599999999999,2.735999999999999,175,75
2026-05-09 14:57:36.654,2,1.52,0.4,0.22,0.3100000000000005,11.751800000000001,1.6555999999999997,175,75
2026-05-09 14:57:36.654,4,0.08,1.14,2.2,-13.892400000000002,64.58260000000001,26.391199999999998,175,75
2026-05-09 14:57:36.654,2,1.54,0.4,0.24,0.8600000000000003,8.2218,0.9255999999999993,175,75
2026-05-09 14:57:36.654,4,0.07,1.1,2.27,-10.6524,53.79260000000001,24.2012,175,75
2026-05-09 14:57:36.671,1,-0.39,1.12,0.56,0.895999999999999,3.919599999999999,2.555999999999999,175,75
2026-05-09 14:57:36.671,3,-0.41,0.17,1.17,1.2748,-2.5822000000000003,2.7463999999999995,175,75
2026-05-09 14:57:36.671,2,1.53,0.4,0.25,2.8100000000000005,3.2218,-0.17440000000000033,175,75
2026-05-09 14:57:36.684,1,-0.4,1.12,0.55,0.775999999999998,4.8995999999999995,2.435999999999998,175,75
2026-05-09 14:57:36.684,3,-0.4,0.19,1.2,2.9848,0.03779999999999717,3.7164,175,75
2026-05-09 14:57:36.713,4,0.03,1.13,2.21,-14.1924,-3.5874000000000024,7.6112,175,75
2026-05-09 14:57:36.719,5,-0.08,-0.21,1.07,1.131,0.7262,-4.0428,175,75
2026-05-09 14:57:36.719,1,-0.38,1.13,0.54,1.2059999999999977,5.319599999999999,1.9459999999999997,175,75
2026-05-09 14:57:36.761,4,0.06,1.16,2.14,-12.122399999999999,-1.1473999999999904,11.7012,175,75
2026-05-09 14:57:36.761,5,-0.08,-0.19,1.07,0.641,0.7262,-4.5628,175,75
2026-05-09 14:57:36.761,1,-0.38,1.13,0.54,1.565999999999999,6.179599999999999,1.7659999999999982,175,75
2026-05-09 14:57:36.769,3,-0.42,0.17,1.19,3.0447999999999995,-1.122200000000003,3.2964,175,75
2026-05-09 14:57:36.769,5,-0.07,-0.18,1.06,-0.2390000000000001,0.33620000000000005,-3.1927999999999996,175,75
2026-05-09 14:57:36.776,3,-0.43,0.19,1.2,3.3448,-0.45220000000000127,2.5664,175,75
2026-05-09 14:57:36.776,4,0.05,1.14,2.14,-7.732399999999998,9.462600000000009,20.1712,175,75
2026-05-09 14:57:36.776,5,-0.06,-0.19,1.06,-1.129,-1.1038,0.2072,175,75
2026-05-09 14:57:36.781,2,1.46,0.4,0.19,11.530000000000001,-0.6882000000000001,1.4155999999999995,175,75
