Time,ID,Ax,Ay,Az,Gx,Gy,Gz,H,W
2026-05-09 16:02:16.005,5,1.79,0.76,0.06,74.6142,-152.4082,-89.0252,175,75
2026-05-09 16:02:16.012,4,-0.26,0.47,1.41,-6.546199999999999,-0.7917999999999985,-25.5472,175,75
2026-05-09 16:02:16.012,3,0.38,-0.5,1.03,70.9926,-39.0916,92.31479999999999,175,75
2026-05-09 16:02:16.023,5,0.84,0.74,0.24,59.1342,-74.06819999999999,-58.5352,175,75
2026-05-09 16:02:16.023,3,-0.11,-0.31,1.56,79.5226,-7.3216,112.31479999999999,175,75
2026-05-09 16:02:16.023,1,0.52,0.57,1.52,176.2408,-161.4652,-47.687799999999996,175,75
2026-05-09 16:02:16.044,5,-0.14,0.19,0.21,33.3842,-10.478200000000001,-75.42519999999999,175,75
2026-05-09 16:02:16.044,4,-0.39,0.81,1.64,-9.416199999999998,-41.5318,-42.49720000000001,175,75
2026-05-09 16:02:16.044,1,0.28,0.61,1.23,176.67079999999999,-194.4552,-28.4778,175,75
2026-05-09 16:02:16.044,2,0.09,0.69,0.6,-36.9324,-36.2358,-12.2034,175,75
2026-05-09 16:02:16.044,1,0.2,0.6,1.24,164.05079999999998,-220.9152,-22.017799999999998,175,75
2026-05-09 16:02:16.044,5,-0.36,-0.04,0.08,41.324200000000005,-19.348200000000002,-68.20519999999999,175,75
2026-05-09 16:02:16.058,3,-0.29,0.19,0.87,77.70259999999999,-73.2916,119.9348,175,75
2026-05-09 16:02:16.058,4,-0.45,1.16,1.64,-11.796199999999999,-87.9318,-58.1672,175,75
2026-05-09 16:02:16.058,2,-0.1,1.07,0.36,-17.7224,-87.4558,-10.0734,175,75
2026-05-09 16:02:16.058,1,0.11,0.59,1.23,148.6208,-238.5352,-18.1178,175,75
2026-05-09 16:02:16.058,5,-0.43,-0.18,-0.04,56.8842,-47.688199999999995,-46.8452,175,75
2026-05-09 16:02:16.058,3,-0.13,0.11,0.92,73.5526,-41.4716,124.57479999999998,175,75
2026-05-09 16:02:16.068,2,-0.19,1.15,0.25,-10.1024,-87.5758,-10.3134,175,75
2026-05-09 16:02:16.068,4,-0.44,1.19,1.51,-10.996199999999998,-103.72179999999999,-56.4572,175,75
2026-05-09 16:02:16.068,1,0.14,0.64,1.39,128.3208,-260.4852,-12.5078,175,75
2026-05-09 16:02:16.068,5,-0.48,-0.28,-0.21,81.9042,-92.37819999999999,-3.9151999999999996,175,75
2026-05-09 16:02:16.077,5,-0.48,-0.31,-0.37,106.5942,-144.0882,46.8848,175,75
2026-05-09 16:02:16.077,1,0.28,0.66,1.27,104.7208,-294.45520000000005,-3.4177999999999997,175,75
2026-05-09 16:02:16.086,3,0.16,0.2,0.6,85.56259999999999,-52.4416,91.28479999999999,175,75
2026-05-09 16:02:16.086,5,-0.44,-0.2,-0.6,119.2842,-195.91819999999998,92.2248,175,75
2026-05-09 16:02:16.103,5,-0.27,-0.33,-0.53,143.6242,-231.9782,128.7548,175,75
2026-05-09 16:02:16.103,1,0.16,0.58,0.6,83.3808,-272.6252,6.2822,175,75
2026-05-09 16:02:16.116,3,0.24,0.44,1.62,94.4626,-20.7916,126.9548,175,75
2026-05-09 16:02:16.116,1,0.29,0.67,-0.82,71.73079999999999,-220.7952,-0.3677999999999999,175,75
2026-05-09 16:02:16.116,3,0.18,0.25,1.34,83.4326,-82.20160000000001,109.3948,175,75
2026-05-09 16:02:16.116,5,0.1,-0.08,-0.85,121.27420000000001,-202.6082,146.41479999999999,175,75
2026-05-09 16:02:16.126,4,-0.04,0.58,1.25,-36.4862,45.178200000000004,-42.867200000000004,175,75
2026-05-09 16:02:16.127,1,-0.14,0.86,-3.24,72.40079999999999,-253.3552,22.9222,175,75
2026-05-09 16:02:16.127,3,0.05,0.41,0.78,62.9426,-80.61160000000001,74.3948,175,75
2026-05-09 16:02:16.127,5,-0.06,-0.14,-0.64,99.7542,-167.7782,137.7248,175,75
2026-05-09 16:02:16.127,4,0.16,0.65,1.36,-44.166199999999996,71.82820000000001,-41.4572,175,75
2026-05-09 16:02:16.138,2,-0.24,0.51,0.43,-22.3624,-45.3858,-43.8534,175,75
2026-05-09 16:02:16.138,1,-1.02,-0.8,-6.51,61.7308,-306.89520000000005,51.2822,175,75
2026-05-09 16:02:16.138,5,-0.1,-0.18,-0.38,76.1542,-126.3082,124.4748,175,75
2026-05-09 16:02:16.138,3,0.4,0.73,0.38,34.65259999999999,-23.4216,64.1448,175,75
2026-05-09 16:02:16.148,1,-2.3,-1.22,-2.66,-164.7892,250.60479999999998,-81.5278,175,75
2026-05-09 16:02:16.148,4,0.38,0.68,1.53,-45.3262,96.15820000000001,-37.867200000000004,175,75
2026-05-09 16:02:16.148,3,0.63,0.82,0.45,15.5626,5.4184,66.09479999999999,175,75
2026-05-09 16:02:16.148,5,-0.07,-0.22,-0.19,52.4742,-61.048199999999994,99.37480000000001,175,75
2026-05-09 16:02:16.148,4,0.5,0.6,1.63,-43.1962,92.7382,-32.4972,175,75
2026-05-09 16:02:16.159,2,-0.36,0.34,0.29,-41.0224,-126.1158,-22.2634,175,75
2026-05-09 16:02:16.159,1,-0.74,0.48,3.53,-244.3092,488.65479999999997,-76.2878,175,75
2026-05-09 16:02:16.159,5,0.0,-0.27,-0.11,35.294200000000004,9.951799999999999,70.4848,175,75
2026-05-09 16:02:16.159,3,0.54,0.85,0.46,2.6326,4.4483999999999995,51.464800000000004,175,75
2026-05-09 16:02:16.169,2,-0.49,0.12,0.17,-47.1124,-128.98579999999998,-12.3234,175,75
2026-05-09 16:02:16.169,4,0.52,0.44,1.67,-37.7662,66.51820000000001,-31.5272,175,75
2026-05-09 16:02:16.169,5,0.27,-0.29,-0.1,20.644199999999998,98.5318,47.1148,175,75
2026-05-09 16:02:16.169,1,0.59,1.81,2.95,-91.0092,-148.9652,133.7122,175,75
2026-05-09 16:02:16.169,3,0.36,0.94,0.39,-10.717400000000001,34.9384,23.5948,175,75
2026-05-09 16:02:16.169,4,0.53,0.26,1.63,-32.526199999999996,42.37820000000001,-36.7072,175,75
2026-05-09 16:02:16.180,2,-0.55,-0.19,0.05,-49.312400000000004,-127.8858,1.0866,175,75
2026-05-09 16:02:16.180,5,0.65,-0.29,-0.1,8.3242,212.7518,35.1348,175,75
2026-05-09 16:02:16.180,3,0.27,0.98,0.52,-19.1874,72.79839999999999,6.764800000000001,175,75
2026-05-09 16:02:16.191,2,-0.52,-0.52,-0.01,-50.4724,-127.7658,18.526600000000002,175,75
2026-05-09 16:02:16.191,4,0.67,-0.01,1.49,-25.3862,40.178200000000004,-41.8872,175,75
2026-05-09 16:02:16.191,1,-0.77,-0.21,1.03,-48.3292,56.154799999999994,28.782200000000003,175,75
2026-05-09 16:02:16.191,5,1.22,-0.37,-0.11,3.7441999999999998,247.3818,41.324799999999996,175,75
2026-05-09 16:02:16.191,3,0.23,1.0,0.7,-31.017400000000002,95.7284,-6.705200000000001,175,75
2026-05-09 16:02:16.191,4,0.92,-0.26,1.31,-14.896199999999999,64.13820000000001,-33.7772,175,75
2026-05-09 16:02:16.202,2,-0.53,-1.03,-0.04,-50.7124,-120.3258,44.5666,175,75
2026-05-09 16:02:16.202,1,-0.48,-0.37,0.65,-48.639199999999995,-72.9852,30.9122,175,75
2026-05-09 16:02:16.202,5,2.0,-0.65,-0.05,26.3642,247.3818,69.0848,175,75
2026-05-09 16:02:16.202,3,0.16,0.99,0.82,-43.0974,107.9884,-23.7852,175,75
2026-05-09 16:02:16.202,2,-0.53,-1.54,-0.05,-50.7724,-87.2758,84.0766,175,75
2026-05-09 16:02:16.204,5,2.0,1.1,-1.5,46.4842,247.3818,111.6648,175,75
2026-05-09 16:02:16.218,1,0.06,-1.14,1.1,-35.889199999999995,58.9648,7.982199999999999,175,75
2026-05-09 16:02:16.218,5,2.0,0.53,2.0,48.5142,247.3818,249.9748,175,75
2026-05-09 16:02:16.218,1,-0.08,-0.94,0.78,-30.529200000000003,-0.06520000000000081,-11.1578,175,75
2026-05-09 16:02:16.243,5,1.0,0.29,2.0,-89.5058,205.2318,-11.795200000000001,175,75
2026-05-09 16:02:16.261,2,-1.69,-2.12,-0.4,-7.5424,52.1742,120.8466,175,75
2026-05-09 16:02:16.261,3,0.01,1.08,0.99,-61.567400000000006,200.29840000000002,-128.0452,175,75
2026-05-09 16:02:16.261,5,-1.38,0.18,2.0,-144.5358,247.3818,-247.3252,175,75
2026-05-09 16:02:16.261,3,0.2,1.05,1.05,-68.2174,162.3784,-138.7852,175,75
2026-05-09 16:02:16.261,1,0.08,-0.86,1.24,-43.4492,6.8848,-5.187799999999999,175,75
2026-05-09 16:02:16.261,2,-1.7,-2.24,-0.37,9.7776,60.8942,52.5566,175,75
2026-05-09 16:02:16.274,3,0.21,0.9,0.96,-90.7774,118.77839999999999,-151.5252,175,75
2026-05-09 16:02:16.274,5,-2.0,0.08,2.0,-146.5758,247.3818,-250.2952,175,75
2026-05-09 16:02:16.274,1,-0.27,-1.09,0.91,-46.139199999999995,-13.5352,-7.8078,175,75
2026-05-09 16:02:16.274,4,1.18,-0.91,1.7,-13.076199999999998,83.8382,18.1728,175,75
2026-05-09 16:02:16.274,3,-0.24,0.94,0.98,-104.18740000000001,118.2884,-161.3452,175,75
2026-05-09 16:02:16.284,5,-1.15,0.33,2.0,-150.0958,29.7818,-110.4952,175,75
2026-05-09 16:02:16.284,1,-0.37,-1.06,0.87,-44.7292,-0.7352000000000007,-7.687799999999999,175,75
2026-05-09 16:02:16.284,3,-0.84,1.04,1.27,-119.6174,115.90839999999999,-163.23520000000002,175,75
2026-05-09 16:02:16.290,2,-1.23,-1.86,-0.11,25.9976,51.38420000000001,-76.4734,175,75
2026-05-09 16:02:16.290,1,-0.43,-1.01,0.95,-43.4492,21.0948,-7.0778,175,75
2026-05-09 16:02:16.304,5,-0.91,-0.12,2.0,-100.1158,-52.758199999999995,93.40480000000001,175,75
2026-05-09 16:02:16.304,1,-0.48,-0.97,1.31,-43.999199999999995,66.76480000000001,-10.6178,175,75
2026-05-09 16:02:16.334,5,-0.52,-0.11,2.0,-35.7758,-252.88819999999998,249.9748,175,75
2026-05-09 16:02:16.334,1,-0.65,-1.37,2.03,-55.889199999999995,156.3448,-11.0378,175,75
2026-05-09 16:02:16.334,2,-0.76,-0.71,0.08,44.4076,87.7842,-120.3734,175,75
2026-05-09 16:02:16.334,3,-7.51,3.43,5.83,2.2726000000000006,225.29840000000002,147.5048,175,75
2026-05-09 16:02:16.334,1,-0.62,-1.14,2.3,-57.5392,183.2948,-6.8278,175,75
2026-05-09 16:02:16.344,5,-0.55,-0.7,1.86,-71.3558,-252.88819999999998,249.9748,175,75
2026-05-09 16:02:16.344,2,-0.66,-0.44,0.14,48.5576,96.7542,-125.6134,175,75
2026-05-09 16:02:16.344,2,-0.56,-0.21,0.18,48.3076,103.6442,-134.3334,175,75
2026-05-09 16:02:16.344,5,0.34,-1.25,1.18,-98.6758,-252.88819999999998,249.9748,175,75
2026-05-09 16:02:16.359,3,2.12,-5.69,4.62,-15.957400000000002,-590.9816000000001,-318.9052,175,75
2026-05-09 16:02:16.359,4,0.49,0.27,1.84,-35.9962,36.218199999999996,-5.727200000000001,175,75
2026-05-09 16:02:16.359,2,-0.13,0.07,0.26,37.827600000000004,130.95420000000001,-94.3334,175,75
2026-05-09 16:02:16.374,5,1.83,-2.0,-0.4,-2.6458,-252.88819999999998,232.4048,175,75
2026-05-09 16:02:16.374,1,0.16,-0.63,3.16,-42.0492,178.1048,15.122200000000001,175,75
2026-05-09 16:02:16.374,2,-0.5,0.51,0.19,22.697599999999998,156.6842,12.0066,175,75
2026-05-09 16:02:16.374,4,0.34,0.54,1.67,-39.596199999999996,-7.991799999999998,-15.8472,175,75
2026-05-09 16:02:16.374,3,-1.3,0.78,-2.58,-253.8274,-282.4416,34.1448,175,75
2026-05-09 16:02:16.385,5,1.17,-1.61,-0.72,21.3242,-141.9282,-27.8952,175,75
2026-05-09 16:02:16.385,1,0.83,-0.33,2.38,-56.319199999999995,40.854800000000004,14.992199999999999,175,75
2026-05-09 16:02:16.385,2,-0.51,0.45,0.3,7.8276,144.1242,29.0766,175,75
2026-05-09 16:02:16.385,5,0.18,-1.18,-0.33,53.744200000000006,-4.8382,-198.95520000000002,175,75
2026-05-09 16:02:16.394,1,0.28,0.14,0.18,-82.89920000000001,-44.8752,19.872200000000003,175,75
2026-05-09 16:02:16.394,4,0.3,0.63,1.51,-44.0462,2.558200000000003,-16.3372,175,75
2026-05-09 16:02:16.394,2,-0.41,0.18,0.41,-9.982400000000002,100.8942,5.8466000000000005,175,75
2026-05-09 16:02:16.394,5,-0.38,-0.66,-0.02,83.6842,55.101800000000004,-250.2952,175,75
2026-05-09 16:02:16.394,3,0.17,-1.63,-0.09,172.5726,453.10839999999996,-80.48519999999999,175,75
2026-05-09 16:02:16.406,1,-0.52,0.35,-1.05,-70.70920000000001,25.3048,5.062200000000001,175,75
2026-05-09 16:02:16.406,4,0.29,0.76,1.43,-52.3362,43.04820000000001,-16.0972,175,75
2026-05-09 16:02:16.406,3,0.84,-1.7,1.64,161.2926,463.5284,-123.5952,175,75
2026-05-09 16:02:16.406,5,-0.62,-0.25,0.08,96.7942,73.8518,-250.2952,175,75
2026-05-09 16:02:16.406,2,-0.6,0.28,0.36,-22.8424,73.8242,-16.4734,175,75
2026-05-09 16:02:16.416,1,-0.59,0.69,0.25,-92.28920000000001,159.69480000000001,-11.097800000000001,175,75
2026-05-09 16:02:16.417,4,0.27,0.9,1.48,-58.8662,93.77820000000001,-12.1372,175,75
2026-05-09 16:02:16.417,5,-0.55,0.21,0.2,89.4842,77.4918,-250.2952,175,75
2026-05-09 16:02:16.417,2,-0.51,0.44,0.3,-23.642400000000002,67.0542,-19.1534,175,75
2026-05-09 16:02:16.422,3,1.25,-0.7,2.86,73.06259999999999,225.0584,-75.7952,175,75
2026-05-09 16:02:16.422,4,0.2,0.94,1.63,-48.8062,124.81820000000002,-0.3672000000000004,175,75
2026-05-09 16:02:16.433,5,-0.44,0.7,0.27,56.8342,77.3518,-250.2952,175,75
2026-05-09 16:02:16.433,2,-0.57,0.58,0.27,-19.6124,76.5642,-3.3634,175,75
2026-05-09 16:02:16.433,1,0.38,1.9,3.58,28.500799999999998,130.9748,19.9322,175,75
2026-05-09 16:02:16.433,4,0.12,0.8,1.77,-28.7462,128.0482,12.012799999999999,175,75
2026-05-09 16:02:16.440,5,-0.16,1.02,0.19,-4.5558,76.7518,-250.2952,175,75
2026-05-09 16:02:16.440,2,-0.64,0.65,0.32,-12.302400000000002,108.8242,15.1766,175,75
2026-05-09 16:02:16.440,1,0.84,2.41,3.66,66.43079999999999,31.034800000000004,30.672200000000004,175,75
2026-05-09 16:02:16.440,3,0.47,-0.33,1.05,29.2826,-33.8416,-14.8152,175,75
2026-05-09 16:02:16.446,5,1.48,1.39,-0.17,-68.8158,88.4618,-250.2952,175,75
2026-05-09 16:02:16.446,2,-0.46,0.45,0.42,-8.3324,128.70420000000001,24.1966,175,75
2026-05-09 16:02:16.452,4,-0.08,0.27,1.91,3.203800000000001,53.2282,13.352800000000002,175,75
2026-05-09 16:02:16.453,1,0.63,2.48,3.51,122.8908,-25.185200000000002,36.1522,175,75
2026-05-09 16:02:16.455,5,2.0,1.66,-0.52,-91.3258,86.3318,-237.89520000000002,175,75
2026-05-09 16:02:16.464,2,-0.26,0.17,0.58,-12.052400000000002,119.4342,28.5866,175,75
2026-05-09 16:02:16.464,1,0.53,2.32,3.35,157.2808,-73.04520000000001,58.3522,175,75
2026-05-09 16:02:16.468,4,-0.14,0.13,1.87,4.8538000000000014,-5.121799999999997,-3.6572000000000005,175,75
2026-05-09 16:02:16.468,3,0.66,-0.32,0.95,39.952600000000004,-10.4316,32.3148,175,75
2026-05-09 16:02:16.480,2,-0.04,-0.01,0.7,-18.032400000000003,76.2642,24.0166,175,75
2026-05-09 16:02:16.480,1,0.49,1.9,2.85,199.17079999999999,-119.2052,80.3022,175,75
2026-05-09 16:02:16.480,5,0.23,0.86,0.43,-148.0958,28.7918,-82.22519999999999,175,75
2026-05-09 16:02:16.480,3,0.61,-0.25,0.94,43.5526,-27.0116,41.3448,175,75
2026-05-09 16:02:16.480,4,-0.14,0.16,1.74,7.6638,-54.8818,-22.4972,175,75
2026-05-09 16:02:16.483,1,0.42,1.57,2.35,229.5408,-144.0852,83.1022,175,75
2026-05-09 16:02:16.495,5,0.35,0.25,0.54,-132.8358,88.0218,-77.53519999999999,175,75
2026-05-09 16:02:16.495,2,0.03,-0.11,0.75,-21.622400000000003,23.7042,15.666599999999999,175,75
2026-05-09 16:02:16.495,2,0.04,-0.12,0.72,-25.1024,-39.285799999999995,9.1966,175,75
2026-05-09 16:02:16.495,5,0.64,0.04,0.89,-102.1058,142.0318,-35.1952,175,75
2026-05-09 16:02:16.495,4,-0.06,0.33,1.55,18.8838,-73.9018,-31.4572,175,75
2026-05-09 16:02:16.505,3,0.73,-0.38,0.81,56.0526,-44.7016,76.82480000000001,175,75
2026-05-09 16:02:16.505,1,0.49,0.75,2.22,305.8808,-122.62519999999999,73.7122,175,75
2026-05-09 16:02:16.505,2,0.02,-0.01,0.54,-27.0524,-109.9558,4.3866000000000005,175,75
2026-05-09 16:02:16.505,5,0.59,0.14,0.81,-46.0558,164.2318,66.0848,175,75
2026-05-09 16:02:16.516,4,0.04,0.44,1.47,26.7438,-54.9418,-22.3172,175,75
2026-05-09 16:02:16.516,1,0.38,0.35,2.11,332.4608,-123.3552,71.5222,175,75
2026-05-09 16:02:16.516,3,0.72,-0.65,0.85,91.9626,-22.6816,93.6548,175,75
2026-05-09 16:02:16.528,2,-0.09,0.17,0.31,-26.0824,-150.8158,3.1666,175,75
2026-05-09 16:02:16.528,4,0.11,0.49,1.45,29.613800000000005,-25.731799999999996,-11.2772,175,75
2026-05-09 16:02:16.528,5,-0.36,0.1,0.8,68.5142,116.1118,178.3048,175,75
2026-05-09 16:02:16.528,3,0.8,-0.67,1.04,113.67259999999999,-30.1816,102.8048,175,75
2026-05-09 16:02:16.528,2,-0.17,0.36,0.1,-15.592400000000001,-153.73579999999998,3.9566,175,75
2026-05-09 16:02:16.541,1,0.28,-0.79,1.06,360.5108,-124.8152,44.632200000000005,175,75
2026-05-09 16:02:16.541,5,-0.64,0.08,0.68,86.2142,56.6918,205.0848,175,75
2026-05-09 16:02:16.541,4,0.11,0.5,1.5,29.8538,-10.921799999999998,-11.647200000000002,175,75
2026-05-09 16:02:16.541,3,0.71,-0.58,0.92,123.98259999999999,-54.3316,104.1448,175,75
2026-05-09 16:02:16.541,4,0.1,0.52,1.57,28.393800000000006,2.8582000000000036,-17.5572,175,75
2026-05-09 16:02:16.547,1,0.42,-1.09,0.52,356.6108,-103.0452,41.1522,175,75
2026-05-09 16:02:16.547,5,-0.76,0.04,0.62,85.66420000000001,-8.078199999999999,208.9548,175,75
2026-05-09 16:02:16.547,2,-0.29,0.5,-0.08,2.4576,-114.2258,2.6766000000000005,175,75
2026-05-09 16:02:16.547,3,0.38,-0.38,0.77,129.3426,-51.1616,112.25479999999999,175,75
2026-05-09 16:02:16.560,4,0.16,0.57,1.64,24.973800000000004,29.328200000000006,-26.647199999999998,175,75
2026-05-09 16:02:16.560,5,-0.71,-0.04,0.51,75.6742,-81.4182,210.16479999999999,175,75
2026-05-09 16:02:16.560,1,-0.6,0.16,-2.68,382.2808,-408.0452,202.3122,175,75
2026-05-09 16:02:16.560,2,-0.38,0.59,-0.19,21.7876,-22.215799999999998,-0.6734,175,75
2026-05-09 16:02:16.560,3,0.04,-0.18,0.65,135.5626,-39.8816,122.9248,175,75
2026-05-09 16:02:16.570,4,0.37,0.58,1.7,22.8438,60.41820000000001,-35.2372,175,75
2026-05-09 16:02:16.570,5,-0.46,-0.09,0.32,63.784200000000006,-150.0982,215.0548,175,75
2026-05-09 16:02:16.570,2,-0.39,0.55,-0.17,35.4476,57.604200000000006,-2.9334,175,75
2026-05-09 16:02:16.570,1,-3.88,-3.07,-9.92,399.9608,-470.3652,216.8222,175,75
2026-05-09 16:02:16.585,4,0.7,0.48,1.76,28.6338,83.40820000000001,-38.717200000000005,175,75
2026-05-09 16:02:16.585,2,-0.32,0.43,-0.02,48.7376,115.2842,-1.7734,175,75
2026-05-09 16:02:16.585,1,-0.7,-5.74,-12.92,-307.1692,-42.6852,-53.3578,175,75
2026-05-09 16:02:16.585,3,-0.3,-0.32,0.95,147.6326,63.108399999999996,121.09479999999999,175,75
2026-05-09 16:02:16.597,4,0.75,0.25,1.75,44.363800000000005,61.708200000000005,-36.647200000000005,175,75
2026-05-09 16:02:16.597,2,-0.16,0.16,0.15,65.0176,131.9942,4.4466,175,75
2026-05-09 16:02:16.597,1,-0.27,-0.46,-0.45,-109.6692,1085.2448000000002,-364.4578,175,75
2026-05-09 16:02:16.597,5,2.0,-0.41,-1.16,38.794200000000004,-49.8482,126.88480000000001,175,75
2026-05-09 16:02:16.597,4,0.53,-0.12,1.66,58.753800000000005,23.1082,-32.3772,175,75
2026-05-09 16:02:16.608,2,0.13,-0.27,0.4,74.7776,103.9442,13.9566,175,75
2026-05-09 16:02:16.608,3,0.2,-0.32,1.28,93.1826,9.8184,107.50479999999999,175,75
2026-05-09 16:02:16.608,1,-0.45,1.5,6.93,-603.1492,532.4348,-126.1578,175,75
2026-05-09 16:02:16.608,5,1.21,-0.44,-0.89,8.7142,89.8118,15.4248,175,75
2026-05-09 16:02:16.608,2,0.44,-0.8,0.6,75.0176,25.9542,24.0766,175,75
2026-05-09 16:02:16.608,3,0.11,-0.02,0.97,58.6126,-34.5116,94.32480000000001,175,75
2026-05-09 16:02:16.620,4,0.3,-0.49,1.5,54.003800000000005,24.938200000000005,-33.8372,175,75
2026-05-09 16:02:16.620,1,2.57,2.18,4.04,-136.4992,-111.4052,13.2922,175,75
2026-05-09 16:02:16.620,2,0.4,-1.34,0.73,65.9976,-97.6358,52.6166,175,75
2026-05-09 16:02:16.620,4,0.26,-0.64,1.38,41.253800000000005,52.91820000000001,-38.2272,175,75
2026-05-09 16:02:16.631,1,-1.28,-0.56,1.18,-8.6392,-107.0752,-43.5378,175,75
2026-05-09 16:02:16.631,5,0.59,-0.76,-0.05,6.8142,55.101800000000004,95.57480000000001,175,75
2026-05-09 16:02:16.631,3,-0.36,0.47,0.79,40.872600000000006,24.7484,82.8648,175,75
2026-05-09 16:02:16.631,2,-0.06,-1.72,0.64,52.5776,-210.26579999999998,126.0266,175,75
2026-05-09 16:02:16.632,4,0.35,-0.71,1.29,23.393800000000006,101.9482,-43.897200000000005,175,75
2026-05-09 16:02:16.644,5,0.97,-0.81,0.31,18.8442,100.7118,149.3748,175,75
2026-05-09 16:02:16.644,1,-0.07,-0.75,0.63,-67.4792,-76.2852,-13.9078,175,75
2026-05-09 16:02:16.644,3,-0.04,0.2,0.69,7.272600000000001,9.5684,77.50479999999999,175,75
2026-05-09 16:02:16.644,2,-0.33,-1.8,0.38,45.5676,-293.06579999999997,190.11659999999998,175,75
2026-05-09 16:02:16.644,4,0.47,-0.66,1.39,9.123800000000001,147.5582,-33.2272,175,75
2026-05-09 16:02:16.644,5,0.6,-0.85,0.97,19.2542,132.7418,80.46480000000001,175,75
2026-05-09 16:02:16.664,5,0.01,-1.34,2.0,6.514200000000001,45.3318,-142.0452,175,75
2026-05-09 16:02:16.664,1,0.32,-0.92,0.72,-75.1592,-41.5852,-34.6378,175,75
2026-05-09 16:02:16.664,2,-1.84,-1.65,-0.51,49.9576,-320.0758,80.0566,175,75
2026-05-09 16:02:16.664,4,0.63,-0.42,2.02,-5.506199999999999,179.8782,-2.1272,175,75
2026-05-09 16:02:16.664,3,0.03,0.19,0.17,-68.5174,-10.7316,24.4548,175,75
2026-05-09 16:02:16.673,5,2.0,-0.55,2.0,-22.4358,98.4618,-225.6352,175,75
2026-05-09 16:02:16.674,1,0.22,-0.49,0.96,-61.069199999999995,25.184800000000003,-27.4378,175,75
2026-05-09 16:02:16.674,2,-2.41,-1.67,-0.92,37.4576,-164.4058,-97.9334,175,75
2026-05-09 16:02:16.674,4,0.7,-0.32,2.29,-10.576199999999998,140.6082,-2.5572000000000004,175,75
2026-05-09 16:02:16.674,3,0.12,0.15,0.52,-95.34740000000001,36.5184,1.7047999999999988,175,75
2026-05-09 16:02:16.674,5,1.77,-0.02,2.0,-71.6458,209.6618,-179.8552,175,75
2026-05-09 16:02:16.688,1,-0.12,-0.51,0.59,-44.0592,20.4848,-23.357799999999997,175,75
2026-05-09 16:02:16.688,5,0.81,0.08,2.0,-122.8458,247.3818,-171.6652,175,75
2026-05-09 16:02:16.688,2,-1.42,-1.52,-0.77,24.1676,-20.7458,-215.19340000000003,175,75
2026-05-09 16:02:16.694,1,-0.08,-0.24,0.48,-25.5892,12.684800000000001,-20.127799999999997,175,75
2026-05-09 16:02:16.694,4,0.7,-0.26,2.28,-1.3061999999999987,-1.8917999999999964,0.4927999999999999,175,75
2026-05-09 16:02:16.705,2,-1.09,-1.13,-0.31,32.2776,65.8942,-210.00340000000003,175,75
2026-05-09 16:02:16.705,3,-0.03,0.39,0.8,-145.7774,29.078400000000002,-64.8752,175,75
2026-05-09 16:02:16.705,1,0.02,-0.19,0.37,0.7608,8.594800000000001,-19.7578,175,75
2026-05-09 16:02:16.705,5,-0.93,-0.16,2.0,-150.6458,247.3818,-220.5252,175,75
2026-05-09 16:02:16.705,2,-0.88,-0.9,0.12,51.6076,181.8142,-157.63340000000002,175,75
2026-05-09 16:02:16.718,4,0.55,-0.31,1.74,16.2538,-86.7718,27.3828,175,75
2026-05-09 16:02:16.718,1,0.07,-0.21,0.29,33.7408,-7.135200000000001,-23.2978,175,75
2026-05-09 16:02:16.718,5,-1.06,-0.14,2.0,-103.7458,180.6718,-185.6852,175,75
2026-05-09 16:02:16.718,2,-0.73,-0.89,0.24,57.1576,229.79420000000002,-75.5534,175,75
2026-05-09 16:02:16.718,3,0.05,0.47,1.21,-198.6474,18.2884,-109.99520000000001,175,75
2026-05-09 16:02:16.730,5,-1.23,-0.05,2.0,-54.505799999999994,67.7518,-129.6252,175,75
2026-05-09 16:02:16.730,1,0.1,-0.21,0.33,68.93079999999999,-12.6852,-18.5978,175,75
2026-05-09 16:02:16.730,2,-0.69,-0.99,0.37,36.5476,188.45420000000001,19.9366,175,75
2026-05-09 16:02:16.734,5,-1.51,-0.0,2.0,-14.6158,-54.5682,-43.3352,175,75
2026-05-09 16:02:16.741,1,-0.08,-0.45,0.81,98.62079999999999,-34.8752,-8.2378,175,75
2026-05-09 16:02:16.741,3,-0.05,0.38,1.57,-252.0574,-53.9716,-137.9852,175,75
2026-05-09 16:02:16.753,5,-1.85,-0.06,2.0,22.964199999999998,-176.13819999999998,27.0948,175,75
2026-05-09 16:02:16.753,1,-0.45,-0.62,0.66,132.89079999999998,-34.8752,-3.3578,175,75
2026-05-09 16:02:16.753,2,-0.72,-0.99,0.61,-4.5524,112.8442,95.2366,175,75
2026-05-09 16:02:16.753,4,0.07,-0.09,1.47,9.123800000000001,-51.2818,72.6828,175,75
2026-05-09 16:02:16.764,2,-0.93,-0.76,0.75,-55.1624,16.994200000000003,114.5066,175,75
2026-05-09 16:02:16.764,5,-1.83,0.01,2.0,35.1542,-252.88819999999998,82.60480000000001,175,75
2026-05-09 16:02:16.764,4,0.14,0.0,1.55,7.473800000000002,-38.0518,72.0128,175,75
2026-05-09 16:02:16.764,1,-0.57,-0.55,0.37,158.5008,42.9848,-13.9678,175,75
2026-05-09 16:02:16.764,2,-1.31,-0.4,0.68,-81.44239999999999,-35.3258,62.7966,175,75
2026-05-09 16:02:16.764,4,0.25,0.15,1.64,-2.586199999999999,-35.181799999999996,59.452799999999996,175,75
2026-05-09 16:02:16.782,5,-0.63,-0.1,1.33,46.4042,-252.88819999999998,148.3348,175,75
2026-05-09 16:02:16.782,2,-1.44,-0.14,0.56,-85.8924,-52.455799999999996,-18.6634,175,75
2026-05-09 16:02:16.797,4,0.35,0.37,1.65,-17.6462,-34.821799999999996,44.6928,175,75
2026-05-09 16:02:16.797,1,-0.24,0.18,1.05,-9.7292,144.8148,-30.3078,175,75
2026-05-09 16:02:16.797,5,0.3,-0.25,0.31,56.034200000000006,-252.88819999999998,242.9348,175,75
2026-05-09 16:02:16.802,1,0.11,0.07,-0.45,-120.03920000000001,122.7448,-61.3478,175,75
2026-05-09 16:02:16.810,5,1.23,-0.42,-0.67,83.94420000000001,-252.88819999999998,249.9748,175,75
2026-05-09 16:02:16.810,2,-1.09,0.64,0.31,-36.7524,-34.4058,-202.20340000000002,175,75
2026-05-09 16:02:16.810,3,-0.04,-0.27,1.48,-252.2974,-83.97160000000001,-90.42519999999999,175,75
2026-05-09 16:02:16.813,4,0.11,1.3,1.66,-29.3562,46.57820000000001,19.0828,175,75
2026-05-09 16:02:16.821,2,-1.09,1.79,0.17,27.8876,63.944199999999995,78.5866,175,75
2026-05-09 16:02:16.828,5,2.0,-0.68,-2.0,65.1742,35.9018,4.8648,175,75
2026-05-09 16:02:16.828,3,-0.29,-0.32,1.96,-199.1874,-68.84160000000001,-74.2652,175,75
2026-05-09 16:02:16.837,1,0.18,-1.64,-0.09,-427.8992,160.8548,-132.3178,175,75
2026-05-09 16:02:16.837,1,0.02,-2.65,0.44,-498.1492,107.2548,-136.7678,175,75
2026-05-09 16:02:16.853,5,-1.53,-0.63,-0.74,93.4342,-17.6682,-88.48519999999999,175,75
2026-05-09 16:02:16.853,1,-0.27,-3.44,1.56,-540.0992,71.3448,-141.5878,175,75
2026-05-09 16:02:16.853,3,0.86,0.83,1.6,-24.797400000000003,-59.5116,-52.8052,175,75
2026-05-09 16:02:16.862,2,-1.4,0.27,0.25,-42.3624,93.3342,27.7366,175,75
2026-05-09 16:02:16.862,3,0.62,0.98,1.29,24.222599999999996,29.8084,-45.9152,175,75
2026-05-09 16:02:16.873,5,-2.0,0.02,-0.45,71.0042,-252.88819999999998,-180.8852,175,75
2026-05-09 16:02:16.873,1,-0.88,-1.53,0.94,-624.0592,-137.6252,-97.3178,175,75
2026-05-09 16:02:16.873,2,-1.21,0.63,0.05,-26.562400000000004,121.7542,-50.553399999999996,175,75
2026-05-09 16:02:16.873,3,0.35,1.45,1.44,88.4326,125.3584,-69.5152,175,75
2026-05-09 16:02:16.876,5,-1.78,0.18,-0.98,18.8442,-252.88819999999998,-225.2252,175,75
2026-05-09 16:02:16.876,4,0.61,0.49,2.06,10.283800000000001,123.16820000000001,-66.4572,175,75
2026-05-09 16:02:16.883,1,-1.02,-1.32,1.06,-531.3192,39.6948,-75.7978,175,75
2026-05-09 16:02:16.883,2,-0.81,0.73,0.04,-7.3624,102.4842,-69.8834,175,75
2026-05-09 16:02:16.920,4,0.47,0.4,2.0,62.0538,76.57820000000001,-60.117200000000004,175,75
2026-05-09 16:02:16.920,5,-0.28,0.55,0.06,-206.98579999999998,-143.4882,-181.36520000000002,175,75
2026-05-09 16:02:16.920,3,2.15,-0.58,2.19,327.3326,304.6284,-54.0252,175,75
2026-05-09 16:02:16.920,2,-0.54,0.07,0.13,-65.8924,40.8342,126.0266,175,75
2026-05-09 16:02:16.920,1,0.13,-0.61,1.21,-443.7592,142.4348,-81.1578,175,75
2026-05-09 16:02:16.930,4,0.5,0.26,1.97,67.90379999999999,65.66820000000001,-54.2672,175,75
2026-05-09 16:02:16.930,3,-0.87,-0.01,-0.01,87.8826,-86.59160000000001,185.91479999999999,175,75
2026-05-09 16:02:16.930,1,0.05,-0.65,1.6,-420.5292,142.8648,-97.1978,175,75
2026-05-09 16:02:16.930,4,0.55,0.05,1.88,73.6338,45.29820000000001,-46.4572,175,75
2026-05-09 16:02:16.930,3,-3.09,-0.81,-0.35,123.7926,194.44840000000002,203.7148,175,75
2026-05-09 16:02:16.946,2,-0.35,-0.99,0.27,-98.52239999999999,-28.9258,125.8466,175,75
2026-05-09 16:02:16.946,1,-0.13,-0.26,2.25,-381.0092,95.4848,-105.4878,175,75
2026-05-09 16:02:16.946,4,0.62,-0.21,1.8,78.0838,19.688200000000005,-38.4772,175,75
2026-05-09 16:02:16.946,3,-2.01,-1.59,0.43,145.74259999999998,373.16839999999996,73.29480000000001,175,75
2026-05-09 16:02:16.946,5,2.0,0.54,-1.04,-143.7758,247.3818,41.1548,175,75
2026-05-09 16:02:16.956,2,-0.2,-1.14,0.28,-100.8924,-42.1558,152.8566,175,75
2026-05-09 16:02:16.956,1,0.13,-0.12,2.55,-352.7792,14.9948,-76.6478,175,75
2026-05-09 16:02:16.956,4,0.73,-0.39,1.8,72.90379999999999,3.468200000000003,-37.867200000000004,175,75
2026-05-09 16:02:16.956,5,2.0,1.06,-0.9,-120.9058,247.3818,200.6548,175,75
2026-05-09 16:02:16.956,3,-0.87,-0.54,2.01,139.0426,173.10840000000002,-130.4252,175,75
2026-05-09 16:02:16.966,2,-0.22,-2.02,-0.04,-86.7524,-73.1258,194.07659999999998,175,75
2026-05-09 16:02:16.966,1,0.19,0.21,2.41,-336.0092,-42.8652,-54.757799999999996,175,75
2026-05-09 16:02:16.966,5,2.0,1.04,-0.23,-149.04579999999999,247.3818,249.9748,175,75
2026-05-09 16:02:16.966,4,0.9,-0.35,1.82,54.7938,-2.2017999999999986,-45.3072,175,75
2026-05-09 16:02:16.966,3,1.1,0.81,2.4,75.9926,47.5584,-28.1052,175,75
2026-05-09 16:02:16.978,2,-0.78,-1.97,-0.33,-51.6924,-72.3358,192.49659999999997,175,75
2026-05-09 16:02:16.978,5,2.0,-0.24,-0.05,-166.8658,247.3818,249.9748,175,75
2026-05-09 16:02:16.978,4,1.01,-0.19,1.83,37.293800000000005,11.098200000000002,-53.3472,175,75
2026-05-09 16:02:16.978,2,-1.32,-1.74,-0.59,-16.2624,-39.895799999999994,116.2166,175,75
2026-05-09 16:02:16.993,5,0.06,0.08,2.0,-179.1858,247.3818,249.9748,175,75
2026-05-09 16:02:16.993,4,1.11,-0.05,1.77,24.6738,38.8382,-50.117200000000004,175,75
2026-05-09 16:02:16.993,1,0.29,0.86,2.26,-215.5892,-36.8352,-28.357799999999997,175,75
2026-05-09 16:02:17.005,5,0.86,-1.02,2.0,-125.0158,140.0118,156.3148,175,75
2026-05-09 16:02:17.005,4,1.07,-0.13,1.71,28.4538,41.57820000000001,-30.5472,175,75
2026-05-09 16:02:17.005,1,0.24,1.27,2.29,-155.94920000000002,-44.145199999999996,-22.017799999999998,175,75
2026-05-09 16:02:17.005,2,-0.83,-1.36,-0.59,53.9776,-38.3758,-118.5434,175,75
2026-05-09 16:02:17.005,5,-0.34,-0.95,1.82,-77.2158,179.6818,107.40480000000001,175,75
2026-05-09 16:02:17.015,4,0.81,-0.35,1.69,36.8038,19.8182,-10.7872,175,75
2026-05-09 16:02:17.016,1,0.2,1.76,2.2,-80.64920000000001,-18.2952,-12.3778,175,75
2026-05-09 16:02:17.016,3,-0.11,-0.33,1.14,42.572599999999994,6.0283999999999995,15.064799999999998,175,75
2026-05-09 16:02:17.016,2,-0.46,-1.28,-0.44,67.69760000000001,-59.22580000000001,-140.4934,175,75
2026-05-09 16:02:17.016,5,-1.64,-1.12,1.53,-28.2258,247.3818,33.2048,175,75
2026-05-09 16:02:17.026,1,0.26,2.02,2.35,-24.0592,0.5448000000000004,-7.197799999999999,175,75
2026-05-09 16:02:17.026,4,0.53,-0.59,1.7,36.5638,-2.991799999999998,-9.327200000000001,175,75
2026-05-09 16:02:17.026,3,-0.06,-0.53,1.47,30.9926,-26.7116,13.8448,175,75
2026-05-09 16:02:17.026,5,-2.0,-1.29,1.35,41.0142,247.3818,-54.7552,175,75
2026-05-09 16:02:17.026,2,-0.05,-1.33,-0.41,67.8876,-63.675799999999995,-120.3734,175,75
2026-05-09 16:02:17.037,4,0.43,-0.68,1.7,29.973800000000004,-18.3618,-16.8272,175,75
2026-05-09 16:02:17.037,1,0.33,2.17,2.6,42.3408,-13.5352,14.872200000000001,175,75
2026-05-09 16:02:17.037,3,-0.2,-0.67,1.2,24.1626,-24.5816,-7.3751999999999995,175,75
2026-05-09 16:02:17.037,5,-2.0,-1.35,1.45,112.4242,215.8818,-105.1352,175,75
2026-05-09 16:02:17.051,1,0.42,1.98,2.51,106.4908,-23.7852,36.702200000000005,175,75
2026-05-09 16:02:17.051,5,-2.0,-0.54,2.0,128.3842,-51.7682,-155.58520000000001,175,75
2026-05-09 16:02:17.051,3,-0.3,-0.69,1.32,20.072599999999998,9.9984,-13.9052,175,75
2026-05-09 16:02:17.061,1,0.46,1.82,2.25,154.7208,-23.1752,49.632200000000005,175,75
2026-05-09 16:02:17.061,5,-1.41,-0.43,2.0,124.5142,-252.88819999999998,-238.8152,175,75
2026-05-09 16:02:17.061,3,-0.09,-0.83,1.49,13.182599999999997,-4.211600000000001,-21.4052,175,75
2026-05-09 16:02:17.061,4,0.33,-0.4,1.55,14.0038,-71.2818,-31.0972,175,75
2026-05-09 16:02:17.061,2,-0.28,-1.28,-0.48,72.2776,101.3242,44.9966,175,75
2026-05-09 16:02:17.072,1,0.51,1.7,2.15,202.5208,-5.7952,56.3422,175,75
2026-05-09 16:02:17.072,5,0.25,0.23,2.0,110.2042,-252.88819999999998,-250.2952,175,75
2026-05-09 16:02:17.072,3,-0.03,-0.8,1.43,4.162599999999998,-22.3216,-21.2152,175,75
2026-05-09 16:02:17.072,4,0.36,-0.24,1.42,5.163800000000002,-77.20179999999999,-15.057200000000002,175,75
2026-05-09 16:02:17.072,2,-0.39,-1.18,-0.41,87.69760000000001,115.6542,33.7166,175,75
2026-05-09 16:02:17.072,1,0.6,1.62,2.17,248.80079999999998,9.2048,59.0222,175,75
2026-05-09 16:02:17.081,3,0.05,-0.87,1.29,-1.6874000000000002,-30.1216,-18.3552,175,75
2026-05-09 16:02:17.081,2,-0.44,-1.1,-0.3,99.28760000000001,110.71419999999999,7.736600000000001,175,75
2026-05-09 16:02:17.081,4,0.34,-0.2,1.3,-1.4861999999999984,-77.1418,2.5627999999999993,175,75
2026-05-09 16:02:17.092,5,1.1,0.58,1.6,86.6042,-252.88819999999998,-244.1352,175,75
2026-05-09 16:02:17.092,1,0.59,1.39,2.31,323.8008,19.5148,71.5222,175,75
2026-05-09 16:02:17.092,2,-0.44,-0.97,-0.17,100.80760000000001,84.0042,-39.4634,175,75
2026-05-09 16:02:17.104,5,1.1,0.6,1.24,71.91420000000001,-251.13819999999998,-227.2552,175,75
2026-05-09 16:02:17.104,3,0.22,-1.08,1.03,-2.1174000000000017,-74.2116,-14.9952,175,75
2026-05-09 16:02:17.104,4,0.17,-0.16,1.25,-11.796199999999999,-61.1018,23.2328,175,75
2026-05-09 16:02:17.104,1,0.57,0.96,2.42,363.0708,13.3548,80.6722,175,75
2026-05-09 16:02:17.104,2,-0.4,-0.81,-0.06,79.0476,50.714200000000005,-85.1934,175,75
2026-05-09 16:02:17.115,5,1.59,0.53,0.93,57.684200000000004,-183.5282,-176.14520000000002,175,75
2026-05-09 16:02:17.115,4,0.11,-0.09,1.32,-18.2562,-52.141799999999996,26.6528,175,75
2026-05-09 16:02:17.115,3,0.33,-1.12,0.75,0.5625999999999998,-92.08160000000001,-13.965200000000001,175,75
2026-05-09 16:02:17.115,1,0.54,0.58,2.39,388.3808,-12.0752,89.4522,175,75
2026-05-09 16:02:17.115,5,2.0,0.64,0.63,55.934200000000004,-96.98819999999999,-55.5052,175,75
2026-05-09 16:02:17.126,2,-0.26,-0.59,0.01,39.6576,34.3742,-119.7034,175,75
2026-05-09 16:02:17.126,4,0.05,0.05,1.41,-26.7262,-57.56179999999999,22.3828,175,75
2026-05-09 16:02:17.126,3,0.42,-0.98,0.63,6.232599999999998,-95.92160000000001,-7.6251999999999995,175,75
2026-05-09 16:02:17.126,5,1.67,0.72,0.49,49.174200000000006,-6.4382,38.0548,175,75
2026-05-09 16:02:17.126,1,0.53,0.3,2.29,407.4008,-30.4852,94.3222,175,75
2026-05-09 16:02:17.136,4,0.06,0.24,1.48,-35.8162,-85.00179999999999,14.512800000000002,175,75
2026-05-09 16:02:17.136,2,0.01,-0.29,0.06,2.6376,42.724199999999996,-88.1134,175,75
2026-05-09 16:02:17.136,5,0.89,0.69,0.49,37.294200000000004,46.9318,64.7348,175,75
2026-05-09 16:02:17.136,1,0.49,0.06,2.16,423.50079999999997,-47.8652,98.04220000000001,175,75
2026-05-09 16:02:17.149,3,0.76,-0.75,0.16,8.182599999999997,-100.25160000000001,15.004799999999996,175,75
2026-05-09 16:02:17.149,4,0.05,0.38,1.5,-39.7162,-103.97179999999999,14.392800000000001,175,75
2026-05-09 16:02:17.156,5,0.38,0.31,0.6,19.7542,46.4018,31.2848,175,75
2026-05-09 16:02:17.156,4,0.02,0.46,1.44,-40.4462,-115.4918,19.512800000000002,175,75
2026-05-09 16:02:17.167,1,0.26,-0.14,1.92,441.6708,-119.5752,104.5122,175,75
2026-05-09 16:02:17.167,2,-0.05,0.26,0.33,-5.5324,91.99419999999999,-19.7034,175,75
2026-05-09 16:02:17.167,5,0.4,0.22,0.74,20.8742,31.451800000000002,17.2048,175,75
2026-05-09 16:02:17.167,3,0.93,-0.59,-0.02,45.4426,-90.31160000000001,32.074799999999996,175,75
2026-05-09 16:02:17.167,4,-0.02,0.5,1.39,-40.7562,-117.3818,23.9628,175,75
2026-05-09 16:02:17.180,1,0.31,-0.5,1.97,449.0508,-150.4252,101.5822,175,75
2026-05-09 16:02:17.181,5,0.31,0.17,0.75,27.4442,19.3618,9.2348,175,75
2026-05-09 16:02:17.181,4,-0.1,0.56,1.38,-42.8262,-107.6818,24.512800000000002,175,75
2026-05-09 16:02:17.193,5,0.15,0.18,0.68,37.4742,-1.0681999999999998,9.3048,175,75
2026-05-09 16:02:17.193,2,-0.07,0.31,0.47,-18.7624,54.1242,-47.3234,175,75
2026-05-09 16:02:17.193,1,0.19,-0.87,2.05,451.4308,-206.0952,92.3722,175,75
2026-05-09 16:02:17.193,4,-0.13,0.65,1.43,-46.246199999999995,-97.08179999999999,21.3428,175,75
2026-05-09 16:02:17.193,3,0.58,-0.55,0.63,113.24259999999998,-11.4716,80.97479999999999,175,75
2026-05-09 16:02:17.204,5,0.04,0.21,0.65,41.8442,-24.278200000000002,11.6448,175,75
2026-05-09 16:02:17.204,2,-0.06,0.43,0.43,-30.8324,14.1842,-47.8134,175,75
2026-05-09 16:02:17.204,1,-0.07,-1.36,2.05,453.3208,-270.0652,73.1022,175,75
2026-05-09 16:02:17.204,4,-0.08,0.77,1.5,-48.0762,-86.47179999999999,15.492799999999999,175,75
2026-05-09 16:02:17.204,3,0.6,-0.62,0.51,124.95259999999999,-15.1816,88.9048,175,75
2026-05-09 16:02:17.214,5,-0.04,0.21,0.6,40.284200000000006,-42.3782,12.6648,175,75
2026-05-09 16:02:17.214,2,-0.19,0.62,0.35,-43.5224,-33.1258,-39.3334,175,75
2026-05-09 16:02:17.214,4,-0.02,0.85,1.55,-46.0562,-86.6518,12.802800000000001,175,75
2026-05-09 16:02:17.214,1,-0.29,-1.75,1.86,445.5708,-355.2452,46.882200000000005,175,75
2026-05-09 16:02:17.214,3,0.33,-0.52,0.57,125.6226,25.5484,96.4648,175,75
2026-05-09 16:02:17.214,5,-0.07,0.2,0.51,35.994200000000006,-59.218199999999996,18.1248,175,75
2026-05-09 16:02:17.225,2,-0.34,0.78,0.29,-48.452400000000004,-50.445800000000006,-33.4834,175,75
2026-05-09 16:02:17.225,1,-0.55,-2.0,1.3,430.69079999999997,-355.1852,14.812199999999999,175,75
2026-05-09 16:02:17.225,4,0.01,0.92,1.61,-40.1462,-96.7718,10.9128,175,75
2026-05-09 16:02:17.225,3,-0.03,-0.32,0.96,134.0426,50.5484,114.2048,175,75
2026-05-09 16:02:17.225,5,-0.06,0.15,0.35,32.3742,-78.23819999999999,33.7648,175,75
2026-05-09 16:02:17.225,2,-0.52,0.99,0.22,-44.1924,-41.5458,-37.4434,175,75
2026-05-09 16:02:17.231,4,-0.05,0.94,1.62,-33.6862,-105.61179999999999,5.5528,175,75
2026-05-09 16:02:17.231,1,0.06,-2.03,0.94,405.2708,-365.6752,-8.5378,175,75
2026-05-09 16:02:17.235,3,-0.15,-0.14,1.3,145.2026,21.5784,116.4648,175,75
2026-05-09 16:02:17.235,5,-0.02,0.08,0.18,34.254200000000004,-99.6982,60.6048,175,75
2026-05-09 16:02:17.235,2,-0.59,1.13,0.22,-33.882400000000004,-9.165799999999997,-44.2734,175,75
2026-05-09 16:02:17.249,4,-0.07,0.91,1.6,-30.206199999999995,-106.7118,-3.7172000000000005,175,75
2026-05-09 16:02:17.249,3,0.37,-0.14,0.99,164.4026,-46.1016,107.4348,175,75
2026-05-09 16:02:17.249,1,-0.48,-1.96,0.31,359.6008,-360.4252,-7.197799999999999,175,75
2026-05-09 16:02:17.249,5,-0.06,0.02,0.0,43.0842,-124.6982,92.8448,175,75
2026-05-09 16:02:17.249,2,-0.55,1.21,0.25,-22.7224,32.7242,-39.7034,175,75
2026-05-09 16:02:17.262,3,0.3,-0.06,0.7,170.74259999999998,-20.1216,104.51479999999998,175,75
2026-05-09 16:02:17.262,5,-0.13,-0.06,-0.19,56.8742,-148.1882,115.0648,175,75
2026-05-09 16:02:17.262,1,-1.13,-1.68,-0.73,340.2708,-261.34520000000003,-68.2978,175,75
2026-05-09 16:02:17.262,2,-0.46,1.15,0.33,-18.212400000000002,56.934200000000004,-29.2134,175,75
2026-05-09 16:02:17.279,3,0.45,0.03,1.01,160.1326,5.3584,86.7048,175,75
2026-05-09 16:02:17.279,5,-0.05,-0.61,-0.22,99.3442,-188.13819999999998,142.98479999999998,175,75
2026-05-09 16:02:17.279,3,-0.05,0.53,1.34,146.7826,-6.4716000000000005,113.47479999999999,175,75
2026-05-09 16:02:17.279,1,-0.27,-0.35,-0.59,331.7908,-56.2252,-38.7178,175,75
2026-05-09 16:02:17.279,2,-0.25,0.83,0.57,-23.5224,13.154200000000001,-25.0034,175,75
2026-05-09 16:02:17.294,5,-0.29,-0.05,-1.11,125.2142,-224.5982,154.9048,175,75
2026-05-09 16:02:17.294,4,0.23,0.76,1.57,-20.446199999999997,-10.431799999999997,-12.377200000000002,175,75
2026-05-09 16:02:17.294,3,-0.14,0.56,1.2,135.9326,-32.9316,128.8448,175,75
2026-05-09 16:02:17.294,1,0.46,0.27,-1.9,304.4708,-210.4252,47.3722,175,75
2026-05-09 16:02:17.294,2,-0.19,0.67,0.64,-30.712400000000002,-61.4858,-26.9634,175,75
2026-05-09 16:02:17.304,5,-0.14,0.0,-1.68,138.5242,-252.88819999999998,171.13479999999998,175,75
2026-05-09 16:02:17.304,4,0.34,0.63,1.65,-15.146199999999999,22.188200000000005,-16.7072,175,75
2026-05-09 16:02:17.304,1,-1.82,0.36,-8.43,483.6208,-901.8252,189.1422,175,75
2026-05-09 16:02:17.304,3,0.04,0.28,0.85,112.9426,-54.3316,117.6848,175,75
2026-05-09 16:02:17.304,2,-0.21,0.52,0.59,-36.0224,-152.27579999999998,-21.6534,175,75
2026-05-09 16:02:17.308,5,0.18,-0.09,-1.56,149.1642,-247.13819999999998,174.1548,175,75
2026-05-09 16:02:17.308,4,0.44,0.55,1.76,-11.916199999999998,30.238200000000003,-18.2272,175,75
2026-05-09 16:02:17.319,1,-2.5,-4.03,-10.56,81.5508,-69.7552,140.4822,175,75
2026-05-09 16:02:17.319,3,0.17,0.39,0.68,82.6326,-16.1616,109.26479999999998,175,75
2026-05-09 16:02:17.319,2,-0.35,0.43,0.49,-39.0024,-200.14579999999998,-16.3534,175,75
2026-05-09 16:02:17.319,5,0.29,-0.17,-0.98,133.2442,-177.4782,155.3048,175,75
2026-05-09 16:02:17.319,4,0.44,0.47,1.86,-5.636199999999999,17.0682,-17.9872,175,75
2026-05-09 16:02:17.319,1,-2.84,-1.96,-3.24,-445.0392,432.0148,-175.5478,175,75
2026-05-09 16:02:17.329,3,0.37,0.63,0.76,52.212599999999995,10.4884,108.53479999999999,175,75
2026-05-09 16:02:17.329,3,0.5,0.81,0.89,28.8526,-19.9416,97.50479999999999,175,75
2026-05-09 16:02:17.329,1,-3.11,0.42,5.04,-693.4492,690.1247999999999,-270.00780000000003,175,75
2026-05-09 16:02:17.338,5,0.07,-0.3,-0.31,80.9542,-7.1982,89.6948,175,75
2026-05-09 16:02:17.338,2,-0.45,-0.11,0.22,-50.4124,-271.5458,6.336600000000001,175,75
2026-05-09 16:02:17.338,3,0.32,0.76,0.76,2.512599999999999,-51.7116,81.03479999999999,175,75
2026-05-09 16:02:17.349,1,-3.57,0.75,7.04,-806.0692,-124.9352,168.6522,175,75
2026-05-09 16:02:17.349,2,-0.45,-0.61,0.16,-59.732400000000005,-280.3258,27.7966,175,75
2026-05-09 16:02:17.349,3,0.09,0.67,0.59,-31.3874,-38.8416,60.7948,175,75
2026-05-09 16:02:17.359,4,0.42,0.11,1.67,-9.296199999999999,14.208200000000001,-10.667200000000001,175,75
2026-05-09 16:02:17.359,2,-0.53,-1.16,0.13,-71.5024,-266.9058,51.7566,175,75
2026-05-09 16:02:17.359,3,0.01,0.6,0.65,-76.1474,6.1584,26.4048,175,75
2026-05-09 16:02:17.371,4,0.6,-0.14,1.56,-6.186199999999999,54.13820000000001,10.4328,175,75
2026-05-09 16:02:17.371,1,0.3,-0.87,0.12,-1.3192,-44.9352,-41.5878,175,75
2026-05-09 16:02:17.371,2,-0.71,-1.68,-0.11,-79.49239999999999,-230.5058,93.4666,175,75
2026-05-09 16:02:17.372,3,0.13,0.72,0.96,-120.2274,19.4484,-6.955200000000001,175,75
2026-05-09 16:02:17.383,5,2.0,-1.4,-0.15,204.8342,247.3818,139.0048,175,75
2026-05-09 16:02:17.383,4,0.81,-0.57,1.54,2.413800000000002,103.8382,38.7228,175,75
2026-05-09 16:02:17.383,1,1.53,-1.98,0.31,-116.67920000000001,21.034799999999997,-11.2178,175,75
2026-05-09 16:02:17.383,2,-1.16,-2.02,-0.4,-80.2224,-169.95579999999998,140.4166,175,75
2026-05-09 16:02:17.383,5,2.0,-0.58,-0.03,239.0642,247.3818,115.01480000000001,175,75
2026-05-09 16:02:17.386,4,0.9,-0.85,1.66,2.663800000000002,130.5482,56.5828,175,75
2026-05-09 16:02:17.400,2,-1.67,-2.33,-0.65,-69.19239999999999,-79.7158,141.6966,175,75
2026-05-09 16:02:17.400,4,0.98,-1.1,1.98,-9.7762,130.5482,63.72279999999999,175,75
2026-05-09 16:02:17.409,4,1.03,-1.16,2.23,-21.056199999999997,106.7082,53.602799999999995,175,75
2026-05-09 16:02:17.409,3,-0.09,1.02,1.17,-122.1174,-31.0416,-56.5852,175,75
2026-05-09 16:02:17.422,5,-0.99,0.62,2.0,-73.9558,247.3818,-250.2952,175,75
2026-05-09 16:02:17.422,2,-2.02,-2.39,-0.6,-21.5024,96.5642,-5.743399999999999,175,75
2026-05-09 16:02:17.422,3,-0.14,1.11,1.17,-135.5974,-36.5316,-87.3152,175,75
2026-05-09 16:02:17.422,4,1.2,-1.11,2.48,-29.9662,59.208200000000005,36.5228,175,75
2026-05-09 16:02:17.431,5,-2.0,0.8,2.0,-153.8358,247.3818,-250.2952,175,75
2026-05-09 16:02:17.431,4,1.36,-1.01,2.5,-26.5462,18.658200000000004,33.2928,175,75
2026-05-09 16:02:17.431,3,0.02,1.46,0.98,-177.72740000000002,-12.7516,-103.65520000000001,175,75
2026-05-09 16:02:17.443,5,-2.0,0.85,2.0,-146.1558,81.43180000000001,-250.2952,175,75
2026-05-09 16:02:17.443,3,0.09,1.72,0.85,-203.7074,15.6084,-107.49520000000001,175,75
2026-05-09 16:02:17.443,1,-0.52,-0.04,0.28,-39.7892,-1.2851999999999997,9.4522,175,75
2026-05-09 16:02:17.444,2,-1.58,-1.72,-0.08,35.6276,114.6142,-111.9634,175,75
2026-05-09 16:02:17.444,4,1.41,-0.85,2.36,-16.246199999999998,-33.7818,34.1528,175,75
2026-05-09 16:02:17.444,5,-2.0,0.76,2.0,-131.9058,-142.41819999999998,-144.6852,175,75
2026-05-09 16:02:17.452,2,-1.44,-1.37,0.04,45.5676,103.21419999999999,-124.1534,175,75
2026-05-09 16:02:17.452,3,0.45,1.73,0.71,-222.1774,13.528400000000001,-125.36519999999999,175,75
2026-05-09 16:02:17.452,4,1.32,-0.75,2.19,-12.9462,-56.041799999999995,31.222800000000003,175,75
2026-05-09 16:02:17.464,5,-1.83,0.68,2.0,-122.9658,-247.0882,13.784799999999999,175,75
2026-05-09 16:02:17.464,2,-1.25,-1.07,0.09,45.5676,80.4042,-127.1434,175,75
2026-05-09 16:02:17.464,1,-0.87,-0.67,0.66,-9.7292,85.4848,9.5122,175,75
2026-05-09 16:02:17.464,4,1.16,-0.58,1.95,-15.326199999999998,-58.1118,19.2128,175,75
2026-05-09 16:02:17.474,5,-0.46,0.59,2.0,-86.1558,-252.88819999999998,184.4948,175,75
2026-05-09 16:02:17.474,2,-1.06,-0.85,0.11,36.7276,50.2842,-119.7034,175,75
2026-05-09 16:02:17.474,1,-0.48,-0.87,0.94,-7.6592,100.6648,-5.4277999999999995,175,75
2026-05-09 16:02:17.474,5,0.08,0.38,2.0,-12.8758,-241.3682,249.9748,175,75
2026-05-09 16:02:17.479,3,-0.04,0.65,1.22,-230.2874,99.6284,-163.2952,175,75
2026-05-09 16:02:17.480,4,1.04,-0.33,1.88,-18.6862,-44.151799999999994,9.082799999999999,175,75
2026-05-09 16:02:17.480,2,-0.88,-0.7,0.14,25.017599999999998,30.7742,-105.9834,175,75
2026-05-09 16:02:17.480,1,-0.58,-0.68,1.31,-12.4192,138.1048,-3.2977999999999996,175,75
2026-05-09 16:02:17.492,5,0.46,0.47,2.0,4.0342,-223.7982,249.9748,175,75
2026-05-09 16:02:17.492,3,-1.36,1.21,2.57,-198.2174,149.32840000000002,-157.6852,175,75
2026-05-09 16:02:17.492,4,0.92,-0.06,1.92,-19.1062,-32.141799999999996,3.7828,175,75
2026-05-09 16:02:17.492,2,-0.69,-0.58,0.15,15.137599999999999,23.034200000000002,-90.8634,175,75
2026-05-09 16:02:17.494,5,0.55,0.28,1.92,-13.325800000000001,-207.69819999999999,249.9748,175,75
2026-05-09 16:02:17.507,3,-5.63,2.65,4.56,-124.0074,268.5284,34.9348,175,75
2026-05-09 16:02:17.507,4,0.81,0.16,1.94,-15.9362,-26.9518,-0.7872000000000003,175,75
2026-05-09 16:02:17.507,1,-0.22,-0.97,1.7,-23.6992,154.0848,-2.1978,175,75
2026-05-09 16:02:17.507,5,0.3,-0.2,1.41,-47.4858,-252.88819999999998,249.9748,175,75
2026-05-09 16:02:17.507,3,-9.24,4.69,7.63,232.33259999999999,481.09839999999997,339.75480000000005,175,75
2026-05-09 16:02:17.519,4,0.69,0.3,1.94,-8.496199999999998,-32.141799999999996,-0.8472000000000004,175,75
2026-05-09 16:02:17.519,1,-0.19,-1.01,1.83,-33.999199999999995,161.3448,1.4622000000000002,175,75
2026-05-09 16:02:17.519,5,-0.03,-0.7,1.12,-126.2958,-252.88819999999998,249.9748,175,75
2026-05-09 16:02:17.519,2,-0.35,-0.2,0.09,12.887599999999999,26.624200000000002,-53.4234,175,75
2026-05-09 16:02:17.519,3,1.86,-7.46,8.75,532.5126,-170.3716,-62.9852,175,75
2026-05-09 16:02:17.525,4,0.57,0.39,1.9,4.243800000000002,-42.8118,1.0427999999999997,175,75
2026-05-09 16:02:17.525,2,-0.35,0.11,0.05,22.217599999999997,42.544200000000004,-20.133399999999998,175,75
2026-05-09 16:02:17.525,5,2.0,-2.0,-0.2,-126.8158,-252.88819999999998,249.9748,175,75
2026-05-09 16:02:17.526,1,-0.12,-0.85,2.41,-46.5592,180.3648,5.2422,175,75
2026-05-09 16:02:17.529,4,0.49,0.41,1.85,12.473800000000002,-50.73179999999999,0.8527999999999993,175,75
2026-05-09 16:02:17.529,3,2.71,-6.59,4.54,-160.16740000000001,-761.4016,-430.24519999999995,175,75
2026-05-09 16:02:17.544,5,1.98,-2.0,-1.2,-44.325799999999994,-199.5582,249.9748,175,75
2026-05-09 16:02:17.544,2,-0.49,0.39,0.03,33.4376,66.6842,-2.5734,175,75
2026-05-09 16:02:17.544,3,3.93,0.61,0.12,-401.7574,-633.3616000000001,-220.6052,175,75
2026-05-09 16:02:17.544,1,-0.31,-0.7,2.73,-54.7292,125.2448,11.9522,175,75
2026-05-09 16:02:17.544,4,0.38,0.41,1.75,19.303800000000003,-65.3718,3.3527999999999993,175,75
2026-05-09 16:02:17.544,5,0.0,-1.83,-0.42,25.6142,-31.418200000000002,82.5648,175,75
2026-05-09 16:02:17.555,2,-0.61,0.57,0.03,41.2376,92.2342,-13.6634,175,75
2026-05-09 16:02:17.555,1,0.11,-0.52,2.61,-59.5492,93.7148,2.1322,175,75
2026-05-09 16:02:17.555,4,0.27,0.4,1.68,21.013800000000003,-75.8618,6.8928,175,75
2026-05-09 16:02:17.555,3,-0.21,1.68,-2.2,-383.0374,-297.08160000000004,19.0248,175,75
2026-05-09 16:02:17.555,5,-0.89,-1.21,0.17,77.02420000000001,51.0418,-106.3852,175,75
2026-05-09 16:02:17.565,2,-0.63,0.43,0.12,33.2476,115.0442,-16.1634,175,75
2026-05-09 16:02:17.576,4,0.1,0.4,1.59,19.4938,-78.2918,3.9627999999999997,175,75
2026-05-09 16:02:17.576,2,-0.56,0.23,0.22,10.1976,122.4842,2.6766000000000005,175,75
2026-05-09 16:02:17.576,5,-1.29,-0.33,0.35,131.3542,68.7418,-250.2952,175,75
2026-05-09 16:02:17.576,3,0.17,-2.27,-0.33,168.7326,315.78839999999997,-39.815200000000004,175,75
2026-05-09 16:02:17.593,4,0.09,0.59,1.6,11.2538,-65.92179999999999,-10.1172,175,75
2026-05-09 16:02:17.593,5,-0.88,0.13,0.31,133.7442,58.8218,-250.2952,175,75
2026-05-09 16:02:17.593,2,-0.45,0.25,0.3,-5.5324,113.21419999999999,3.2866,175,75
2026-05-09 16:02:17.593,3,0.17,-1.01,1.26,120.01259999999999,368.8984,-112.3152,175,75
2026-05-09 16:02:17.593,2,-0.37,0.39,0.32,-5.1024,97.96419999999999,-13.6034,175,75
2026-05-09 16:02:17.603,5,-0.53,0.59,0.26,113.6542,57.101800000000004,-250.2952,175,75
2026-05-09 16:02:17.603,1,-0.1,1.23,1.42,-78.4492,85.7948,11.0922,175,75
2026-05-09 16:02:17.603,4,0.15,0.76,1.65,9.123800000000001,-65.3718,-15.9772,175,75
2026-05-09 16:02:17.603,3,0.89,-0.15,2.02,113.55259999999998,272.5584,-77.49520000000001,175,75
2026-05-09 16:02:17.603,2,-0.32,0.58,0.32,3.4375999999999998,81.8142,-25.4334,175,75
2026-05-09 16:02:17.614,5,-0.16,1.17,0.2,63.674200000000006,61.421800000000005,-250.2952,175,75
2026-05-09 16:02:17.614,1,0.17,1.55,2.66,-36.6192,78.9648,18.782200000000003,175,75
2026-05-09 16:02:17.614,4,0.16,0.86,1.66,14.7338,-73.9018,-21.8872,175,75
2026-05-09 16:02:17.614,3,1.21,-0.14,2.13,74.7126,97.43839999999999,3.2947999999999986,175,75
2026-05-09 16:02:17.614,2,-0.26,0.68,0.32,9.2876,78.8242,-15.1934,175,75
2026-05-09 16:02:17.625,5,1.77,1.46,-0.58,-2.9358,63.1418,-250.2952,175,75
2026-05-09 16:02:17.625,1,0.88,1.98,3.3,30.8208,58.844800000000006,9.6322,175,75
2026-05-09 16:02:17.625,3,0.78,-0.31,1.44,52.6326,-39.0316,25.604799999999997,175,75
2026-05-09 16:02:17.625,4,0.13,0.83,1.6,20.2838,-87.9318,-23.8372,175,75
2026-05-09 16:02:17.625,2,-0.2,0.73,0.34,10.9976,78.27420000000001,-2.0234,175,75
2026-05-09 16:02:17.625,5,1.96,1.83,-0.55,27.2742,-57.4882,-111.36519999999999,175,75
2026-05-09 16:02:17.625,4,0.06,0.73,1.51,25.833800000000004,-99.70179999999999,-23.2872,175,75
2026-05-09 16:02:17.637,1,0.9,2.81,3.37,100.3908,-33.9652,15.1822,175,75
2026-05-09 16:02:17.637,2,-0.1,0.58,0.38,7.0876,65.2242,11.2766,175,75
2026-05-09 16:02:17.637,5,-0.0,1.85,0.13,-54.9458,-107.62819999999999,-38.245200000000004,175,75
2026-05-09 16:02:17.639,4,-0.06,0.5,1.35,28.8138,-96.7118,-23.5372,175,75
2026-05-09 16:02:17.654,5,0.06,0.79,0.09,-107.5258,-97.1982,-53.0052,175,75
2026-05-09 16:02:17.654,1,0.78,2.26,3.87,187.6508,-63.4752,79.4522,175,75
2026-05-09 16:02:17.654,2,0.03,0.29,0.45,-4.252400000000001,38.5142,12.8566,175,75
2026-05-09 16:02:17.654,4,-0.12,0.34,1.25,25.403800000000004,-75.06179999999999,-25.6672,175,75
2026-05-09 16:02:17.654,3,0.62,-0.59,0.8,102.5726,12.438400000000001,57.3148,175,75
2026-05-09 16:02:17.654,5,0.04,0.21,0.18,-114.1258,-63.3082,-40.8152,175,75
2026-05-09 16:02:17.663,2,0.08,0.05,0.47,-14.372400000000003,0.404200000000003,5.966600000000001,175,75
2026-05-09 16:02:17.663,4,-0.11,0.26,1.19,20.403800000000004,-44.09179999999999,-29.8772,175,75
2026-05-09 16:02:17.675,3,0.6,-0.37,0.91,112.1526,-0.3116000000000003,67.6248,175,75
2026-05-09 16:02:17.675,5,0.05,-0.32,0.34,-77.80579999999999,26.581799999999998,-1.6752,175,75
2026-05-09 16:02:17.675,4,-0.04,0.23,1.21,13.693800000000001,-13.481799999999996,-33.5972,175,75
2026-05-09 16:02:17.686,3,0.43,-0.21,0.89,120.5026,-18.541600000000003,88.04480000000001,175,75
2026-05-09 16:02:17.686,2,-0.02,0.03,0.32,-15.162400000000002,-70.8158,-19.4634,175,75
2026-05-09 16:02:17.686,1,0.81,0.37,1.16,282.2808,-138.9052,47.9822,175,75
2026-05-09 16:02:17.686,5,-0.01,-0.27,0.16,-38.6158,66.62180000000001,28.4748,175,75
2026-05-09 16:02:17.686,3,0.22,-0.14,0.83,128.4326,-20.0616,98.04480000000001,175,75
2026-05-09 16:02:17.696,4,0.04,0.26,1.28,7.6038000000000014,12.068200000000001,-41.397200000000005,175,75
2026-05-09 16:02:17.696,1,-0.67,1.7,-2.11,379.6608,-568.6552,178.1022,175,75
2026-05-09 16:02:17.696,5,0.07,-0.29,-0.01,12.4542,82.9818,81.6648,175,75
2026-05-09 16:02:17.696,2,-0.1,0.17,0.17,-16.322400000000002,-88.1258,-26.3534,175,75
2026-05-09 16:02:17.707,3,0.13,-0.18,0.85,133.55259999999998,-10.4916,99.8748,175,75
2026-05-09 16:02:17.707,4,0.16,0.36,1.36,-1.546199999999999,40.0582,-59.6272,175,75
2026-05-09 16:02:17.707,1,-1.62,-3.94,-10.54,581.4908,-747.6852,266.5222,175,75
2026-05-09 16:02:17.707,5,0.22,-0.04,0.02,59.2242,53.0418,180.6148,175,75
2026-05-09 16:02:17.707,3,0.12,-0.13,0.87,126.42259999999999,-7.7516,104.57479999999998,175,75
2026-05-09 16:02:17.717,2,-0.23,0.27,0.03,-17.482400000000002,-87.4558,-21.5334,175,75
2026-05-09 16:02:17.717,4,0.38,0.58,1.44,-15.446199999999997,68.65820000000001,-72.19720000000001,175,75
2026-05-09 16:02:17.717,1,-1.3,-13.91,-12.32,-303.0292,-341.83520000000004,-32.6278,175,75
2026-05-09 16:02:17.717,5,0.43,0.22,0.16,74.0942,34.0418,249.9748,175,75
2026-05-09 16:02:17.728,2,-0.37,0.25,-0.08,-15.282400000000003,-69.5958,-11.8334,175,75
2026-05-09 16:02:17.728,5,0.9,0.24,0.17,73.3242,42.021800000000006,249.9748,175,75
2026-05-09 16:02:17.728,1,4.28,-0.01,1.69,-143.44920000000002,1223.6548,-385.85780000000005,175,75
2026-05-09 16:02:17.728,3,-0.2,-0.24,0.99,74.65259999999999,13.4084,109.32479999999998,175,75
2026-05-09 16:02:17.739,4,0.79,0.68,1.47,-28.2562,128.59820000000002,-32.257200000000005,175,75
2026-05-09 16:02:17.739,2,-0.33,-0.04,-0.1,-12.4224,-40.0758,-0.25340000000000007,175,75
2026-05-09 16:02:17.739,5,1.25,0.23,0.22,56.9542,58.061800000000005,249.9748,175,75
2026-05-09 16:02:17.739,1,0.04,2.75,5.17,-630.4592,203.5948,-60.7378,175,75
2026-05-09 16:02:17.739,3,-0.25,-0.01,1.03,54.462599999999995,14.2684,86.4048,175,75
2026-05-09 16:02:17.751,2,-0.22,-0.53,-0.03,-8.9424,-10.625799999999998,13.1066,175,75
2026-05-09 16:02:17.751,5,1.57,-0.03,0.28,20.7042,61.6118,249.9748,175,75
2026-05-09 16:02:17.751,4,0.65,0.24,1.39,-0.20619999999999905,137.2482,-1.4572000000000003,175,75
2026-05-09 16:02:17.751,1,0.69,4.74,4.14,-234.4292,-12.5652,53.5922,175,75
2026-05-09 16:02:17.751,2,-0.16,-0.98,0.04,-4.6124,-0.8757999999999981,26.6366,175,75
2026-05-09 16:02:17.759,5,0.58,-0.62,0.7,-23.1258,43.491800000000005,249.9748,175,75
2026-05-09 16:02:17.759,4,0.59,-0.22,1.42,17.5338,163.4082,15.552800000000001,175,75
2026-05-09 16:02:17.759,1,-1.32,0.48,1.49,16.360799999999998,-40.1252,19.872200000000003,175,75
2026-05-09 16:02:17.759,3,-0.19,0.49,0.96,22.822599999999998,-12.3216,83.47479999999999,175,75
2026-05-09 16:02:17.768,2,-0.11,-1.51,0.08,1.6676000000000002,-13.3158,63.03660000000001,175,75
2026-05-09 16:02:17.779,1,-1.88,0.84,0.93,46.7308,-86.6452,-11.767800000000001,175,75
2026-05-09 16:02:17.779,5,0.72,-1.4,1.19,-15.085799999999999,124.4618,105.18480000000001,175,75
2026-05-09 16:02:17.779,2,-0.21,-1.75,-0.05,7.2176,-44.775800000000004,107.9766,175,75
2026-05-09 16:02:17.779,1,-0.65,-0.82,-0.18,-25.889200000000002,-30.065199999999997,23.232200000000002,175,75
2026-05-09 16:02:17.791,5,-0.4,-1.14,2.0,-5.755800000000001,130.6818,-90.00519999999999,175,75
2026-05-09 16:02:17.791,2,-0.52,-1.77,-0.27,19.8976,-73.7958,128.4666,175,75
2026-05-09 16:02:17.794,5,1.73,-0.68,2.0,-41.3358,203.4918,-240.7552,175,75
2026-05-09 16:02:17.797,2,-1.11,-1.68,-0.59,42.1576,-77.03580000000001,77.7366,175,75
2026-05-09 16:02:17.809,1,0.28,-1.41,0.95,24.9608,84.3248,-21.587799999999998,175,75
2026-05-09 16:02:17.809,4,0.9,-0.16,2.14,18.2738,37.318200000000004,-4.2072,175,75
2026-05-09 16:02:17.809,5,0.68,-0.78,2.0,-79.5258,247.3818,-250.2952,175,75
2026-05-09 16:02:17.809,3,0.16,0.1,0.53,-83.76740000000001,-76.7116,42.134800000000006,175,75
2026-05-09 16:02:17.809,2,-1.54,-1.55,-0.71,56.2376,-37.395799999999994,-30.8634,175,75
2026-05-09 16:02:17.809,1,0.33,-0.78,1.01,39.900800000000004,46.644800000000004,-18.2378,175,75
2026-05-09 16:02:17.824,5,-0.11,-0.77,2.0,-101.2658,247.3818,-250.2952,175,75
2026-05-09 16:02:17.824,3,0.26,0.11,0.48,-114.6774,-77.6216,12.314799999999998,175,75
2026-05-09 16:02:17.824,4,1.03,0.04,2.15,14.1838,19.078200000000006,9.8828,175,75
2026-05-09 16:02:17.824,2,-1.2,-1.49,-0.51,49.6576,13.7042,-103.4234,175,75
2026-05-09 16:02:17.824,1,-0.06,-0.78,0.75,43.500800000000005,37.8648,-7.867800000000001,175,75
2026-05-09 16:02:17.834,5,-0.22,-0.38,2.0,-130.3558,247.3818,-250.2952,175,75
2026-05-09 16:02:17.834,4,1.0,-0.03,1.97,14.7338,-9.511799999999997,34.9428,175,75
2026-05-09 16:02:17.834,3,0.33,0.2,0.51,-144.7374,-57.1416,-25.1252,175,75
2026-05-09 16:02:17.834,1,-0.01,-0.97,0.74,50.150800000000004,40.2448,-8.4778,175,75
2026-05-09 16:02:17.834,2,-0.89,-1.31,-0.22,33.6176,54.6142,-104.2734,175,75
2026-05-09 16:02:17.834,5,-0.33,-0.18,2.0,-138.6358,194.7218,-232.1252,175,75
2026-05-09 16:02:17.846,3,0.42,0.15,0.64,-165.16740000000001,-46.6516,-46.5252,175,75
2026-05-09 16:02:17.846,4,0.8,-0.27,1.79,24.613800000000005,-34.2118,52.382799999999996,175,75
2026-05-09 16:02:17.846,1,-0.14,-0.87,0.72,59.1708,31.9548,-1.4078,175,75
2026-05-09 16:02:17.846,2,-0.62,-1.13,-0.06,14.587599999999998,84.4342,-65.3734,175,75
2026-05-09 16:02:17.846,5,-1.17,-0.19,2.0,-105.9858,103.40180000000001,-168.7552,175,75
2026-05-09 16:02:17.849,3,0.43,0.11,0.8,-187.7874,-48.3616,-73.71520000000001,175,75
2026-05-09 16:02:17.849,4,0.57,-0.42,1.7,24.613800000000005,-50.37179999999999,57.992799999999995,175,75
2026-05-09 16:02:17.863,5,-1.55,0.05,2.0,-58.995799999999996,23.3718,-182.1952,175,75
2026-05-09 16:02:17.863,1,-0.14,-1.01,0.94,80.3908,39.144800000000004,2.5622000000000003,175,75
2026-05-09 16:02:17.863,2,-0.67,-0.93,-0.04,-4.732399999999999,66.6242,-14.0334,175,75
2026-05-09 16:02:17.863,3,0.4,0.13,0.89,-204.8674,-45.2516,-91.64519999999999,175,75
2026-05-09 16:02:17.874,5,-1.64,-0.02,2.0,15.774199999999999,-91.1182,-192.1052,175,75
2026-05-09 16:02:17.874,3,0.41,0.11,0.97,-211.2074,-43.4216,-102.1952,175,75
2026-05-09 16:02:17.887,5,-1.06,0.12,2.0,86.6342,-252.88819999999998,-85.17519999999999,175,75
2026-05-09 16:02:17.887,1,0.25,-0.78,1.46,111.2408,98.3548,-9.1478,175,75
2026-05-09 16:02:17.887,2,-1.02,-0.47,0.0,-24.6724,68.4542,-9.6434,175,75
2026-05-09 16:02:17.887,4,0.4,0.22,1.58,-8.746199999999998,-64.70179999999999,15.3628,175,75
2026-05-09 16:02:17.898,5,-0.91,0.25,1.83,115.0042,-252.88819999999998,4.2348,175,75
2026-05-09 16:02:17.898,1,0.3,-0.61,2.02,75.76079999999999,153.9048,-30.857799999999997,175,75
2026-05-09 16:02:17.898,4,0.53,0.43,1.51,-9.166199999999998,-45.3118,12.3828,175,75
2026-05-09 16:02:17.898,5,-0.29,0.38,1.43,117.9542,-252.88819999999998,46.3848,175,75
2026-05-09 16:02:17.898,2,-1.19,-0.17,0.01,-28.452400000000004,89.9242,-59.7034,175,75
2026-05-09 16:02:17.908,1,0.19,-0.22,2.66,12.1008,170.1848,-51.1578,175,75
2026-05-09 16:02:17.908,4,0.68,0.57,1.37,-11.3662,1.098200000000002,19.2128,175,75
2026-05-09 16:02:17.908,5,0.55,0.34,1.06,105.5342,-252.88819999999998,93.35480000000001,175,75
2026-05-09 16:02:17.908,1,0.05,0.17,2.7,-78.6992,97.6848,-61.1578,175,75
2026-05-09 16:02:17.908,2,-1.25,0.62,0.03,-21.2024,133.2742,-133.17340000000002,175,75
2026-05-09 16:02:17.923,5,0.94,0.24,0.43,103.1442,-252.88819999999998,173.3448,175,75
2026-05-09 16:02:17.923,4,0.63,0.64,1.34,-15.326199999999998,45.7882,27.5628,175,75
2026-05-09 16:02:17.923,3,0.54,-0.08,0.76,-225.1074,12.7984,-153.0452,175,75
2026-05-09 16:02:17.923,1,0.49,-0.01,1.46,-217.8992,-58.4152,-65.12780000000001,175,75
2026-05-09 16:02:17.923,2,-0.8,1.15,0.02,-16.5024,169.0642,-99.7634,175,75
2026-05-09 16:02:17.935,5,1.65,0.09,-0.33,117.0942,-252.88819999999998,249.9748,175,75
2026-05-09 16:02:17.935,4,0.42,0.75,1.52,-15.9362,80.29820000000001,26.2828,175,75
2026-05-09 16:02:17.935,3,0.65,-0.07,0.69,-213.6474,23.7784,-160.6052,175,75
2026-05-09 16:02:17.935,1,0.24,-0.89,-0.59,-380.0392,-196.2252,-72.3778,175,75
2026-05-09 16:02:17.935,2,-1.18,1.71,0.03,-13.8824,202.29420000000002,-26.8334,175,75
2026-05-09 16:02:17.935,5,2.0,0.32,-1.5,142.20420000000001,-252.88819999999998,249.9748,175,75
2026-05-09 16:02:17.935,4,0.21,0.86,1.78,-12.5262,92.5582,16.0428,175,75
2026-05-09 16:02:17.949,1,-0.48,-1.56,-1.84,-452.2892,-194.5152,-62.867799999999995,175,75
2026-05-09 16:02:17.949,2,-1.44,1.31,0.13,-27.422400000000003,221.75420000000003,8.5866,175,75
2026-05-09 16:02:17.949,5,2.0,-0.11,-2.0,176.8042,-204.13819999999998,249.9748,175,75
2026-05-09 16:02:17.949,4,0.05,0.97,2.06,-6.056199999999999,82.85820000000001,-4.6972000000000005,175,75
2026-05-09 16:02:17.949,2,-1.15,0.86,0.19,-59.0024,210.7142,74.0766,175,75
2026-05-09 16:02:17.960,1,-1.08,-3.08,-1.75,-551.1992,-53.4152,-80.7978,175,75
2026-05-09 16:02:17.960,5,0.15,-0.37,-2.0,133.7742,-93.2782,149.5248,175,75
2026-05-09 16:02:17.960,3,0.1,-0.18,1.14,-158.3374,136.0284,-128.3552,175,75
2026-05-09 16:02:17.960,4,0.06,0.98,2.2,3.2738000000000014,36.82820000000001,-26.397199999999998,175,75
2026-05-09 16:02:17.974,5,-1.46,-0.46,-1.43,103.1442,-109.45819999999999,-5.425199999999999,175,75
2026-05-09 16:02:17.974,1,-0.62,-2.76,-0.64,-606.9292,-17.7452,-81.0378,175,75
2026-05-09 16:02:17.974,3,-0.14,-0.11,1.34,-126.9974,102.91839999999999,-149.1452,175,75
2026-05-09 16:02:17.974,2,-1.0,0.53,0.37,-133.88240000000002,185.5942,189.86659999999998,175,75
2026-05-09 16:02:17.974,4,0.11,0.86,2.17,15.703800000000003,-27.871799999999997,-45.9172,175,75
2026-05-09 16:02:17.974,5,-2.0,-0.22,-0.69,76.1842,-204.5982,-105.6552,175,75
2026-05-09 16:02:17.995,4,0.09,0.67,1.94,29.793800000000005,-93.97179999999999,-69.69720000000001,175,75
2026-05-09 16:02:18.012,3,-6.03,3.38,5.5,219.4026,397.79839999999996,278.6548,175,75
2026-05-09 16:02:18.012,5,-1.0,-0.04,-0.63,-71.3658,-252.88819999999998,-175.6552,175,75
2026-05-09 16:02:18.024,4,0.24,0.27,1.1,34.973800000000004,-84.2718,-90.9772,175,75
2026-05-09 16:02:18.035,5,0.52,0.31,-0.88,-136.54579999999999,-252.88819999999998,-82.3852,175,75
2026-05-09 16:02:18.035,1,0.11,0.14,1.79,-409.7892,237.3748,-87.8678,175,75
2026-05-09 16:02:18.035,3,7.0,-2.99,2.1,81.23259999999999,-381.5316,-101.89519999999999,175,75
2026-05-09 16:02:18.035,4,0.32,0.09,0.91,31.013800000000003,-27.3818,-74.1472,175,75
2026-05-09 16:02:18.035,2,-0.05,-0.46,0.31,-76.8124,1.0142000000000024,94.6266,175,75
2026-05-09 16:02:18.035,5,0.44,0.47,-0.78,-149.9758,-143.19819999999999,-48.425200000000004,175,75
2026-05-09 16:02:18.045,4,0.35,-0.05,0.84,25.463800000000006,40.7282,-50.3072,175,75
2026-05-09 16:02:18.045,5,0.69,0.48,-0.86,-139.4158,7.8618,-25.0852,175,75
2026-05-09 16:02:18.064,5,1.17,0.65,-0.96,-103.8258,197.4518,-5.8452,175,75
2026-05-09 16:02:18.064,2,0.0,-0.98,0.24,-88.7624,-56.2958,100.9066,175,75
2026-05-09 16:02:18.064,2,0.12,-1.29,0.14,-85.77239999999999,-96.9058,111.6366,175,75
2026-05-09 16:02:18.064,3,-1.16,-1.29,-0.5,163.0026,265.9084,34.574799999999996,175,75
2026-05-09 16:02:18.064,5,2.0,0.56,-0.87,-73.3158,247.3818,10.614799999999999,175,75
2026-05-09 16:02:18.068,2,0.11,-1.53,-0.04,-75.3424,-128.67579999999998,120.9066,175,75
2026-05-09 16:02:18.068,1,0.02,-0.45,2.07,-323.8792,181.5248,-107.1378,175,75
2026-05-09 16:02:18.083,5,2.0,0.91,-0.27,-55.0558,247.3818,58.7248,175,75
2026-05-09 16:02:18.083,2,-0.07,-1.67,-0.41,-48.452400000000004,-128.1258,103.5866,175,75
2026-05-09 16:02:18.083,3,-0.38,-0.57,1.13,172.02259999999998,219.7484,-117.6252,175,75
2026-05-09 16:02:18.083,3,0.91,0.52,1.85,75.62259999999999,200.0584,-11.3452,175,75
2026-05-09 16:02:18.098,4,1.24,-0.16,2.35,-22.0362,219.0782,-30.487199999999998,175,75
2026-05-09 16:02:18.098,1,0.25,0.62,2.96,-265.1592,76.7048,-64.26780000000001,175,75
2026-05-09 16:02:18.098,2,-0.4,-1.27,-0.86,2.0876,-60.8758,-42.9934,175,75
2026-05-09 16:02:18.098,4,1.23,-0.14,2.44,-13.806199999999999,175.4882,-37.007200000000005,175,75
2026-05-09 16:02:18.110,1,0.2,1.53,2.87,-213.38920000000002,-13.295200000000001,-39.3978,175,75
2026-05-09 16:02:18.110,2,-0.16,-0.94,-0.77,20.4476,-38.8558,-119.5834,175,75
2026-05-09 16:02:18.110,5,2.0,2.0,2.0,-226.5358,247.3818,249.9748,175,75
2026-05-09 16:02:18.110,3,-0.56,-1.19,1.77,42.3326,-81.95160000000001,65.06479999999999,175,75
2026-05-09 16:02:18.110,4,1.01,-0.28,2.41,6.193800000000001,101.82820000000001,-32.1972,175,75
2026-05-09 16:02:18.110,3,-0.19,-1.11,1.29,45.992599999999996,-64.3916,9.934800000000003,175,75
2026-05-09 16:02:18.124,5,-0.68,-1.14,2.0,-124.4858,247.3818,249.9748,175,75
2026-05-09 16:02:18.124,2,0.66,-0.59,-0.48,25.5676,-10.8158,-92.0234,175,75
2026-05-09 16:02:18.124,1,0.22,2.2,2.84,-146.4992,-71.0952,-6.2178,175,75
2026-05-09 16:02:18.124,3,-0.11,-0.67,1.34,44.102599999999995,-22.2616,25.974800000000002,175,75
2026-05-09 16:02:18.128,4,0.63,-0.54,2.21,17.113800000000005,10.668200000000002,-25.7272,175,75
2026-05-09 16:02:18.128,1,0.22,2.27,2.63,-73.87920000000001,-108.9652,25.1822,175,75
2026-05-09 16:02:18.144,5,-2.0,-1.38,2.0,-51.0858,233.6018,40.6948,175,75
2026-05-09 16:02:18.144,3,-0.1,-0.57,1.3,40.5026,-17.8716,10.854799999999997,175,75
2026-05-09 16:02:18.144,2,0.37,-1.13,-0.4,23.2476,53.6442,85.0566,175,75
2026-05-09 16:02:18.144,5,-2.0,-1.46,2.0,-11.155800000000001,175.6918,-61.425200000000004,175,75
2026-05-09 16:02:18.155,3,-0.31,-0.42,1.29,38.3126,-13.7816,4.204799999999999,175,75
2026-05-09 16:02:18.155,4,0.33,-0.73,1.84,6.563800000000002,-43.48179999999999,-36.0972,175,75
2026-05-09 16:02:18.155,2,0.18,-1.6,-0.33,30.3876,56.2042,82.8566,175,75
2026-05-09 16:02:18.155,1,0.31,1.93,2.71,63.0108,-133.5352,47.492200000000004,175,75
2026-05-09 16:02:18.155,5,-2.0,-1.53,2.0,23.964199999999998,-57.938199999999995,-122.7152,175,75
2026-05-09 16:02:18.165,4,0.36,-0.63,1.76,-0.20619999999999905,-39.4518,-37.5572,175,75
2026-05-09 16:02:18.165,3,-0.45,-0.5,1.38,29.4626,0.41839999999999966,-9.3252,175,75
2026-05-09 16:02:18.165,2,0.0,-1.84,-0.18,52.8276,78.6442,84.8066,175,75
2026-05-09 16:02:18.165,5,-2.0,-1.29,2.0,77.7442,-252.88819999999998,-200.7252,175,75
2026-05-09 16:02:18.165,1,0.31,1.88,2.39,133.7408,-136.0352,57.2522,175,75
2026-05-09 16:02:18.178,4,0.46,-0.24,1.92,-6.056199999999999,-47.3818,-18.5972,175,75
2026-05-09 16:02:18.178,5,-0.71,-0.47,2.0,106.2542,-252.88819999999998,-249.1352,175,75
2026-05-09 16:02:18.178,3,-0.26,-0.7,1.35,5.682599999999997,-32.3816,-30.8552,175,75
2026-05-09 16:02:18.189,2,-0.4,-1.46,-0.08,124.4076,75.3442,16.5766,175,75
2026-05-09 16:02:18.189,4,0.42,-0.09,2.08,-7.526199999999999,-77.9318,3.112799999999999,175,75
2026-05-09 16:02:18.203,5,1.12,0.59,1.63,98.9742,-252.88819999999998,-250.2952,175,75
2026-05-09 16:02:18.203,2,-0.55,-1.14,-0.1,149.2276,-16.725799999999996,-74.8234,175,75
2026-05-09 16:02:18.203,1,0.32,1.36,1.89,296.00079999999997,-50.0652,71.5222,175,75
2026-05-09 16:02:18.203,3,-0.04,-1.02,0.97,-5.837400000000001,-61.9516,-39.7552,175,75
2026-05-09 16:02:18.214,5,1.36,0.74,1.2,74.5142,-252.88819999999998,-250.2952,175,75
2026-05-09 16:02:18.214,2,-0.48,-1.0,-0.05,137.8876,-82.2758,-149.94340000000003,175,75
2026-05-09 16:02:18.214,1,0.29,1.13,1.92,343.0708,-19.455199999999998,77.7422,175,75
2026-05-09 16:02:18.214,3,0.06,-1.12,0.89,-10.837400000000002,-71.34160000000001,-35.065200000000004,175,75
2026-05-09 16:02:18.214,5,2.0,0.9,0.83,45.8042,-252.88819999999998,-250.2952,175,75
2026-05-09 16:02:18.226,1,0.32,0.9,1.99,375.5708,-0.48520000000000074,83.3522,175,75
2026-05-09 16:02:18.226,2,-0.3,-0.83,-0.07,101.9076,-110.99579999999999,-190.67340000000002,175,75
2026-05-09 16:02:18.226,4,0.11,-0.09,2.0,2.3538000000000014,-315.1218,-1.8272000000000004,175,75
2026-05-09 16:02:18.248,2,0.1,-0.59,-0.2,61.297599999999996,-120.99579999999999,-180.25340000000003,175,75
2026-05-09 16:02:18.249,3,0.39,-1.21,0.75,-19.1274,-86.0416,-32.8052,175,75
2026-05-09 16:02:18.249,3,0.73,-1.04,0.58,-22.977400000000003,-108.05160000000001,-20.1252,175,75
2026-05-09 16:02:18.249,2,-0.13,-0.04,-0.38,55.4476,-78.1258,-60.3134,175,75
2026-05-09 16:02:18.249,5,0.89,0.73,0.53,-7.555800000000001,120.65180000000001,39.6148,175,75
2026-05-09 16:02:18.259,1,0.32,0.2,1.7,434.9608,-7.135200000000001,112.7422,175,75
2026-05-09 16:02:18.259,2,-0.56,0.25,-0.54,73.67760000000001,13.884200000000002,-19.2134,175,75
2026-05-09 16:02:18.259,3,0.95,-0.79,0.4,-21.9974,-126.7116,-4.025200000000002,175,75
2026-05-09 16:02:18.259,5,0.11,0.58,0.49,-27.515800000000002,145.5718,3.4048,175,75
2026-05-09 16:02:18.270,3,1.04,-0.62,0.31,-18.2174,-128.4816,7.0748,175,75
2026-05-09 16:02:18.270,4,-0.19,0.46,0.86,14.0038,-425.7318,-37.5572,175,75
2026-05-09 16:02:18.270,2,-0.57,0.25,-0.56,84.1076,89.49419999999999,-35.6734,175,75
2026-05-09 16:02:18.270,5,-0.26,0.35,0.41,-30.1258,95.5718,-53.1452,175,75
2026-05-09 16:02:18.293,4,-0.15,0.6,0.64,9.7338,-365.6118,-22.6772,175,75
2026-05-09 16:02:18.293,5,0.12,0.25,0.43,28.6342,-44.6382,-78.62519999999999,175,75
2026-05-09 16:02:18.293,1,0.32,-0.28,1.82,440.6308,-26.5852,121.3422,175,75
2026-05-09 16:02:18.309,5,0.4,0.41,0.61,46.324200000000005,-65.9282,-48.0352,175,75
2026-05-09 16:02:18.309,1,0.42,-0.45,1.95,444.0508,-56.645199999999996,118.7122,175,75
2026-05-09 16:02:18.309,4,-0.09,0.9,0.58,15.033800000000001,-117.4418,40.9728,175,75
2026-05-09 16:02:18.309,3,0.3,-0.22,0.37,90.62259999999999,-55.1216,90.4848,175,75
2026-05-09 16:02:18.315,5,0.27,0.37,0.54,50.104200000000006,-77.6482,-7.7852,175,75
2026-05-09 16:02:18.315,1,0.32,-0.57,1.93,441.2408,-125.7952,125.1222,175,75
2026-05-09 16:02:18.315,4,-0.03,0.95,0.69,19.4238,-16.1618,63.66279999999999,175,75
2026-05-09 16:02:18.315,3,0.23,-0.44,0.41,111.5426,-25.0016,111.4648,175,75
2026-05-09 16:02:18.315,5,0.09,0.3,0.46,51.3142,-89.5782,18.8648,175,75
2026-05-09 16:02:18.325,2,-0.24,0.7,0.47,50.1376,284.12420000000003,-65.13340000000001,175,75
2026-05-09 16:02:18.325,1,0.17,-0.81,1.58,433.7408,-169.6952,124.0822,175,75
2026-05-09 16:02:18.325,4,0.08,0.92,0.94,21.9938,70.7882,78.1728,175,75
2026-05-09 16:02:18.325,3,-0.26,-0.44,0.73,128.0626,18.7784,133.4748,175,75
2026-05-09 16:02:18.325,5,0.01,0.25,0.41,47.9842,-100.8082,36.6648,175,75
2026-05-09 16:02:18.335,2,-0.28,0.86,0.54,50.3276,230.4642,-84.2734,175,75
2026-05-09 16:02:18.335,1,-0.0,-1.08,1.5,419.5408,-185.30519999999999,109.4522,175,75
2026-05-09 16:02:18.335,3,-0.75,-0.36,1.48,162.02259999999998,81.27839999999999,158.1748,175,75
2026-05-09 16:02:18.335,2,-0.2,1.04,0.6,38.2476,168.70420000000001,-80.9234,175,75
2026-05-09 16:02:18.345,1,-0.04,-1.26,1.74,400.0208,-216.4052,92.3722,175,75
2026-05-09 16:02:18.345,4,0.19,0.85,1.35,16.7438,85.8482,58.9028,175,75
2026-05-09 16:02:18.345,3,-0.4,-0.37,1.9,196.8426,58.4084,165.0648,175,75
2026-05-09 16:02:18.345,5,-0.09,0.07,0.2,42.074200000000005,-124.1082,69.99480000000001,175,75
2026-05-09 16:02:18.345,2,-0.2,1.29,0.61,13.8576,91.8742,-51.7734,175,75
2026-05-09 16:02:18.357,1,0.12,-1.55,1.98,383.3208,-274.63520000000005,56.2122,175,75
2026-05-09 16:02:18.357,3,0.32,-0.42,1.46,186.1726,-24.0316,153.8448,175,75
2026-05-09 16:02:18.357,4,0.19,0.85,1.46,9.9138,62.24820000000001,36.462799999999994,175,75
2026-05-09 16:02:18.357,5,-0.11,-0.08,0.01,47.674200000000006,-144.2082,93.1148,175,75
2026-05-09 16:02:18.367,1,0.19,-1.45,1.63,351.4308,-366.58520000000004,46.2822,175,75
2026-05-09 16:02:18.367,3,0.3,-0.09,0.83,191.7226,-69.09160000000001,144.1448,175,75
2026-05-09 16:02:18.367,5,-0.22,-0.1,-0.32,64.6542,-170.2182,116.46480000000001,175,75
2026-05-09 16:02:18.367,4,0.19,0.87,1.5,1.8038000000000007,36.57820000000001,14.4528,175,75
2026-05-09 16:02:18.367,2,-0.43,1.21,0.68,-15.1024,-12.515799999999999,-11.8934,175,75
2026-05-09 16:02:18.371,1,0.08,-1.48,0.63,322.4008,-413.96520000000004,37.0722,175,75
2026-05-09 16:02:18.371,3,-0.27,0.28,0.92,213.7926,1.3383999999999996,151.1548,175,75
2026-05-09 16:02:18.384,5,-0.32,-0.09,-0.72,74.3142,-204.2482,126.1148,175,75
2026-05-09 16:02:18.384,4,0.2,0.87,1.47,-4.656199999999998,17.0682,-1.2772000000000006,175,75
2026-05-09 16:02:18.384,2,-0.35,1.01,0.55,-9.9224,-53.8558,-7.6934,175,75
2026-05-09 16:02:18.384,1,-0.61,-1.43,-0.6,298.2608,-419.33520000000004,19.142200000000003,175,75
2026-05-09 16:02:18.384,3,-0.38,0.24,1.21,205.74259999999998,43.4684,174.0848,175,75
2026-05-09 16:02:18.392,5,-0.36,0.15,-1.42,96.3542,-233.9082,122.5648,175,75
2026-05-09 16:02:18.392,2,-0.36,0.75,0.54,-14.6724,-87.7058,-5.8633999999999995,175,75
2026-05-09 16:02:18.392,4,0.19,0.85,1.4,-8.6862,6.518200000000004,-13.107199999999999,175,75
2026-05-09 16:02:18.392,3,0.35,-0.05,1.35,172.1526,9.0184,169.9348,175,75
2026-05-09 16:02:18.392,1,-0.96,-1.04,-1.77,278.3208,-221.8952,-31.587799999999998,175,75
2026-05-09 16:02:18.406,4,0.18,0.83,1.36,-12.216199999999999,6.158200000000004,-21.8272,175,75
2026-05-09 16:02:18.406,3,0.55,0.08,1.07,135.1326,-87.50160000000001,142.7448,175,75
2026-05-09 16:02:18.416,4,0.19,0.8,1.34,-18.6862,21.338200000000004,-31.8272,175,75
2026-05-09 16:02:18.417,1,0.81,0.05,-0.47,227.58079999999998,-104.6352,6.3422,175,75
2026-05-09 16:02:18.417,5,-0.52,0.02,-0.89,78.9742,-252.88819999999998,51.3148,175,75
2026-05-09 16:02:18.427,3,0.63,0.51,0.43,85.01259999999999,-64.6416,135.4248,175,75
2026-05-09 16:02:18.427,5,-0.31,-0.07,-0.45,49.034200000000006,-243.9582,61.1248,175,75
2026-05-09 16:02:18.427,1,-1.29,1.03,-4.44,266.1208,-409.9352,138.8422,175,75
2026-05-09 16:02:18.439,5,-0.07,-0.33,-0.39,43.5142,-193.7082,78.49480000000001,175,75
2026-05-09 16:02:18.439,3,0.8,0.61,0.5,46.0526,-84.64160000000001,111.8948,175,75
2026-05-09 16:02:18.454,4,0.37,0.6,1.47,-23.3162,61.9482,-30.8472,175,75
2026-05-09 16:02:18.475,2,-0.5,0.27,0.21,-4.5524,-158.4358,-19.1534,175,75
2026-05-09 16:02:18.475,2,-0.47,-0.04,0.18,-15.772400000000001,-180.01579999999998,2.6166,175,75
2026-05-09 16:02:18.475,1,-2.37,1.86,6.23,-777.6592,-104.9352,212.6822,175,75
2026-05-09 16:02:18.475,2,-0.34,-0.4,0.22,-27.3024,-199.5358,21.1466,175,75
2026-05-09 16:02:18.475,4,0.3,0.02,1.55,-15.0262,-38.84179999999999,-21.0372,175,75
2026-05-09 16:02:18.486,3,0.17,0.72,0.6,-34.3774,-5.8616,50.364799999999995,175,75
2026-05-09 16:02:18.486,5,0.73,-0.05,-0.43,-32.035799999999995,247.3818,-69.39519999999999,175,75
2026-05-09 16:02:18.486,1,2.32,-1.03,0.94,-21.9292,-89.1452,-14.2078,175,75
2026-05-09 16:02:18.486,4,0.26,-0.26,1.32,-16.056199999999997,-43.7218,-9.9372,175,75
2026-05-09 16:02:18.503,5,2.0,-1.42,0.22,15.504199999999999,247.3818,24.1248,175,75
2026-05-09 16:02:18.503,3,0.4,0.86,1.08,-108.57740000000001,-12.3816,-49.2652,175,75
2026-05-09 16:02:18.518,1,0.65,-1.27,0.43,-133.5092,-26.895200000000003,-16.0378,175,75
2026-05-09 16:02:18.518,3,0.24,0.88,1.04,-111.07740000000001,-29.7616,-54.9352,175,75
2026-05-09 16:02:18.529,3,-0.08,0.81,0.66,-103.7074,1.6383999999999994,-67.3152,175,75
2026-05-09 16:02:18.529,1,0.91,0.44,0.43,-91.73920000000001,12.7448,20.1822,175,75
2026-05-09 16:02:18.529,2,-1.03,-2.81,-0.45,-26.7524,-223.79579999999999,263.64660000000003,175,75
2026-05-09 16:02:18.536,3,-0.19,0.69,0.59,-93.9474,42.4384,-103.71520000000001,175,75
2026-05-09 16:02:18.538,5,-1.2,0.1,2.0,-27.285800000000002,247.3818,-107.0552,175,75
2026-05-09 16:02:18.541,2,-2.87,-3.01,-0.99,-11.502400000000002,-147.51579999999998,-88.1734,175,75
2026-05-09 16:02:18.541,3,-0.17,0.78,0.7,-106.9974,70.05839999999999,-140.4252,175,75
2026-05-09 16:02:18.542,4,1.57,-0.85,1.51,-35.386199999999995,156.8282,74.7628,175,75
2026-05-09 16:02:18.556,1,-0.37,1.18,0.5,-87.4192,-34.0252,6.882199999999999,175,75
2026-05-09 16:02:18.556,2,-2.08,-2.5,-0.85,-17.3624,-64.1058,-246.41340000000002,175,75
2026-05-09 16:02:18.556,3,0.24,1.17,0.89,-139.0674,75.96839999999999,-162.01520000000002,175,75
2026-05-09 16:02:18.556,1,-0.38,0.58,0.4,-40.3392,-30.5452,1.4022000000000001,175,75
2026-05-09 16:02:18.556,5,-2.0,0.24,2.0,-85.2658,247.3818,-250.2952,175,75
2026-05-09 16:02:18.567,2,-1.07,-1.64,-0.6,-19.9224,-5.685799999999997,-316.10339999999997,175,75
2026-05-09 16:02:18.567,3,0.37,1.42,0.92,-174.7974,66.7684,-168.7852,175,75
2026-05-09 16:02:18.567,4,1.87,-0.94,1.76,-9.416199999999998,87.3182,56.7728,175,75
2026-05-09 16:02:18.567,1,-0.4,0.15,0.02,-19.849200000000003,-12.9852,-0.24780000000000002,175,75
2026-05-09 16:02:18.567,5,-2.0,0.65,2.0,-90.9558,-64.3982,-179.9352,175,75
2026-05-09 16:02:18.567,3,0.24,1.54,0.79,-196.6874,38.2884,-166.5252,175,75
2026-05-09 16:02:18.578,2,-0.61,-0.97,-0.44,-9.982400000000002,13.764200000000002,-303.42339999999996,175,75
2026-05-09 16:02:18.578,1,-0.42,-0.19,0.21,4.4708,32.3748,-10.6178,175,75
2026-05-09 16:02:18.578,5,-2.0,0.51,2.0,-102.6558,-252.88819999999998,4.0848,175,75
2026-05-09 16:02:18.578,2,-0.11,-0.55,-0.33,6.3576,6.504200000000001,-242.32340000000002,175,75
2026-05-09 16:02:18.590,1,-0.25,-0.63,0.5,17.7108,49.9348,-5.7978000000000005,175,75
2026-05-09 16:02:18.590,5,-0.84,0.33,2.0,-91.7058,-252.88819999999998,102.65480000000001,175,75
2026-05-09 16:02:18.590,4,1.55,-0.72,1.59,-19.3562,78.8982,20.3028,175,75
2026-05-09 16:02:18.590,2,0.14,-0.12,-0.29,25.0776,21.3242,-71.7734,175,75
2026-05-09 16:02:18.590,3,0.46,0.81,0.16,-231.8774,45.4884,-199.14520000000002,175,75
2026-05-09 16:02:18.603,5,0.17,0.1,2.0,-17.8258,-252.88819999999998,220.9548,175,75
2026-05-09 16:02:18.603,4,1.44,-0.46,1.76,-31.6062,88.9582,23.7228,175,75
2026-05-09 16:02:18.603,3,-0.16,0.69,0.76,-247.3674,145.2384,-200.8552,175,75
2026-05-09 16:02:18.603,5,0.37,0.17,2.0,16.4542,-252.88819999999998,249.9748,175,75
2026-05-09 16:02:18.616,1,-0.31,-0.6,1.04,19.840799999999998,79.3848,-8.8478,175,75
2026-05-09 16:02:18.616,2,-0.44,-0.45,-0.16,54.047599999999996,64.9842,184.74659999999997,175,75
2026-05-09 16:02:18.616,5,0.2,0.12,2.0,-24.445800000000002,-252.88819999999998,249.9748,175,75
2026-05-09 16:02:18.626,1,-0.3,-0.62,1.32,12.4608,87.6848,-6.1578,175,75
2026-05-09 16:02:18.626,4,0.91,-0.3,2.11,-19.836199999999998,58.77820000000001,21.102800000000002,175,75
2026-05-09 16:02:18.626,5,0.54,-0.34,1.53,-63.1058,-252.88819999999998,249.9748,175,75
2026-05-09 16:02:18.637,3,-9.0,4.59,6.7,71.3526,438.28839999999997,237.68479999999997,175,75
2026-05-09 16:02:18.637,1,-0.23,-0.69,1.48,8.9908,87.37480000000001,-3.2977999999999996,175,75
2026-05-09 16:02:18.637,4,0.66,-0.2,2.25,-16.7262,24.5682,2.6827999999999994,175,75
2026-05-09 16:02:18.637,2,-0.85,-0.96,0.04,31.2376,105.1642,134.4466,175,75
2026-05-09 16:02:18.637,5,0.83,-0.77,0.93,-69.9658,-252.88819999999998,249.9748,175,75
2026-05-09 16:02:18.648,3,-6.41,0.58,10.76,717.2726,646.2784,503.65479999999997,175,75
2026-05-09 16:02:18.648,1,-0.24,-0.76,1.5,5.2708,101.4648,-1.0377999999999998,175,75
2026-05-09 16:02:18.648,2,-0.5,-0.69,0.17,31.607599999999998,93.1542,51.8266,175,75
2026-05-09 16:02:18.648,3,-0.24,-8.57,9.59,317.7626,-865.0616,-307.0752,175,75
2026-05-09 16:02:18.659,4,0.62,0.26,2.33,-6.976199999999999,-67.56179999999999,-31.0972,175,75
2026-05-09 16:02:18.662,4,0.55,0.51,2.23,9.423800000000002,-140.55180000000001,-30.7272,175,75
2026-05-09 16:02:18.676,2,-0.66,-0.25,0.32,32.0876,18.334200000000003,-47.1434,175,75
2026-05-09 16:02:18.676,2,-0.6,0.06,0.33,25.5676,-37.2158,-108.3034,175,75
2026-05-09 16:02:18.676,1,-0.33,-0.62,2.41,-14.7292,80.3048,-3.5378,175,75
2026-05-09 16:02:18.676,3,-0.68,3.46,-1.47,-561.5074,-490.1216,40.4848,175,75
2026-05-09 16:02:18.676,5,0.26,-1.36,-0.25,70.9042,33.561800000000005,-79.0252,175,75
2026-05-09 16:02:18.676,4,0.34,0.62,2.0,29.553800000000003,-214.4518,-27.9272,175,75
2026-05-09 16:02:18.687,2,-0.44,0.23,0.3,12.6976,-64.6558,-120.7434,175,75
2026-05-09 16:02:18.700,1,0.2,0.25,1.53,-38.029199999999996,20.1248,-12.5078,175,75
2026-05-09 16:02:18.700,3,-0.43,-0.54,-2.18,99.8926,182.91840000000002,7.194800000000001,175,75
2026-05-09 16:02:18.700,4,-0.07,0.6,1.56,33.5138,-263.6018,-37.0672,175,75
2026-05-09 16:02:18.700,1,0.19,0.7,0.58,-50.099199999999996,-5.6752,-14.6978,175,75
2026-05-09 16:02:18.714,5,-0.79,-0.11,0.38,100.4542,89.4518,-250.2952,175,75
2026-05-09 16:02:18.714,2,-0.82,0.61,0.06,-12.662400000000002,-40.1358,91.8266,175,75
2026-05-09 16:02:18.714,5,-0.64,0.26,0.43,80.55420000000001,60.2518,-250.2952,175,75
2026-05-09 16:02:18.725,1,-0.57,1.23,0.13,-47.779199999999996,32.1348,0.5422,175,75
2026-05-09 16:02:18.725,3,0.55,-1.26,2.22,139.4026,454.3884,-93.3552,175,75
2026-05-09 16:02:18.725,4,-0.1,0.82,1.24,16.0738,-216.5918,-56.7072,175,75
2026-05-09 16:02:18.725,2,-0.32,0.5,0.15,-11.322400000000002,-44.1058,97.1866,175,75
2026-05-09 16:02:18.725,5,-0.52,0.64,0.42,42.424200000000006,31.881800000000002,-250.2952,175,75
2026-05-09 16:02:18.735,4,-0.04,0.97,1.14,11.313800000000002,-173.7818,-52.257200000000005,175,75
2026-05-09 16:02:18.735,1,0.22,1.15,2.14,-33.2692,153.4148,17.4922,175,75
2026-05-09 16:02:18.735,2,-0.76,0.52,0.16,-11.872400000000003,-41.3558,51.6366,175,75
2026-05-09 16:02:18.738,5,-0.08,0.84,0.1,-6.2158,-10.508199999999999,-250.2952,175,75
2026-05-09 16:02:18.738,1,0.41,1.61,2.91,-2.0492,58.4148,21.1522,175,75
2026-05-09 16:02:18.752,5,1.77,1.17,-0.61,-31.1658,-81.8582,-250.2952,175,75
2026-05-09 16:02:18.752,4,0.0,1.03,1.01,25.463800000000006,-71.1018,-24.3272,175,75
2026-05-09 16:02:18.752,2,-0.75,0.64,0.12,-11.752400000000002,-3.6158,2.0065999999999997,175,75
2026-05-09 16:02:18.752,1,0.41,2.27,3.0,63.930800000000005,33.714800000000004,32.562200000000004,175,75
2026-05-09 16:02:18.752,3,0.39,-0.17,0.88,33.372600000000006,-56.3416,27.684800000000003,175,75
2026-05-09 16:02:18.763,5,1.44,1.21,-0.32,-22.355800000000002,-134.1582,-71.0452,175,75
2026-05-09 16:02:18.764,4,-0.07,0.8,1.02,39.1238,-26.5918,-3.5372000000000003,175,75
2026-05-09 16:02:18.764,2,-0.39,0.68,0.17,-11.622400000000003,-4.895799999999998,8.7166,175,75
2026-05-09 16:02:18.764,1,0.39,2.93,3.34,129.11079999999998,9.4548,43.5922,175,75
2026-05-09 16:02:18.764,3,0.29,-0.38,0.39,79.0426,12.618400000000001,-8.295200000000001,175,75
2026-05-09 16:02:18.774,5,0.27,1.23,-0.12,-70.3258,-127.2982,-40.7352,175,75
2026-05-09 16:02:18.774,4,-0.18,0.61,1.11,40.7738,-3.5417999999999985,7.0728,175,75
2026-05-09 16:02:18.774,2,-0.31,0.67,0.28,-16.8124,-8.2458,50.2966,175,75
2026-05-09 16:02:18.774,1,0.74,2.64,3.93,184.5408,-10.3652,100.6722,175,75
2026-05-09 16:02:18.774,5,0.12,0.61,-0.07,-93.0758,-108.0582,-33.7352,175,75
2026-05-09 16:02:18.785,3,0.47,-0.33,0.74,98.2426,84.0184,15.674799999999998,175,75
2026-05-09 16:02:18.785,2,-0.15,0.49,0.35,-23.7624,-22.0958,78.2266,175,75
2026-05-09 16:02:18.785,1,0.58,1.72,3.33,218.6808,-68.9652,94.7522,175,75
2026-05-09 16:02:18.785,5,0.02,0.26,0.02,-89.80579999999999,-77.1682,-24.2652,175,75
2026-05-09 16:02:18.796,3,0.51,-0.2,1.02,96.1126,53.2284,27.254799999999996,175,75
2026-05-09 16:02:18.796,4,-0.33,0.37,1.23,22.963800000000006,33.348200000000006,7.0127999999999995,175,75
2026-05-09 16:02:18.796,1,0.43,1.27,2.04,245.2108,-111.4052,93.7822,175,75
2026-05-09 16:02:18.796,5,-0.02,0.15,0.05,-70.6058,-36.7682,-21.1452,175,75
2026-05-09 16:02:18.796,4,-0.31,0.36,1.26,14.9138,42.068200000000004,-0.23720000000000052,175,75
2026-05-09 16:02:18.803,3,0.5,-0.04,0.91,101.90259999999999,28.528399999999998,33.5348,175,75
2026-05-09 16:02:18.803,1,0.07,0.85,1.15,255.5108,-96.5252,102.8622,175,75
2026-05-09 16:02:18.803,2,-0.14,-0.14,0.42,-47.2324,-98.7958,74.3266,175,75
2026-05-09 16:02:18.803,4,-0.26,0.41,1.27,12.0538,47.12820000000001,-7.067200000000001,175,75
2026-05-09 16:02:18.807,3,0.57,0.06,0.76,111.96260000000001,28.288400000000003,41.9548,175,75
2026-05-09 16:02:18.839,2,-0.56,0.14,-0.05,-34.312400000000004,-113.6758,3.3466000000000005,175,75
2026-05-09 16:02:18.839,5,0.3,0.21,-0.13,48.674200000000006,121.9418,128.3448,175,75
2026-05-09 16:02:18.839,4,0.16,0.56,1.31,21.803800000000003,103.65820000000001,-16.5872,175,75
2026-05-09 16:02:18.841,3,-0.06,0.05,1.37,110.87259999999999,71.82839999999999,80.91479999999999,175,75
2026-05-09 16:02:18.850,4,0.46,0.51,1.31,17.3538,104.68820000000001,-22.6172,175,75
2026-05-09 16:02:18.861,1,-1.72,-2.21,-3.22,-120.09920000000001,1006.4648,-317.98780000000005,175,75
2026-05-09 16:02:18.861,2,-0.52,0.22,-0.12,-17.9724,-94.6558,6.6966,175,75
2026-05-09 16:02:18.861,1,3.97,0.25,4.2,-146.19920000000002,852.1347999999999,-163.0478,175,75
2026-05-09 16:02:18.861,2,-0.53,0.03,-0.08,-11.4424,-67.5758,41.1466,175,75
2026-05-09 16:02:18.865,5,1.07,0.05,0.14,60.7042,203.1718,249.9748,175,75
2026-05-09 16:02:18.880,5,1.49,0.08,0.56,31.234199999999998,148.4718,249.9748,175,75
2026-05-09 16:02:18.880,3,-0.58,0.04,1.34,62.3926,-27.5016,96.82480000000001,175,75
2026-05-09 16:02:18.880,1,-0.42,0.46,1.37,-45.459199999999996,19.6948,4.2622,175,75
2026-05-09 16:02:18.895,3,-0.64,0.06,0.98,51.7226,-9.0916,94.0848,175,75
2026-05-09 16:02:18.900,4,0.68,-0.13,1.08,13.943800000000001,247.8582,46.1628,175,75
2026-05-09 16:02:18.913,5,0.65,-1.33,1.95,-20.035800000000002,113.8218,35.3148,175,75
2026-05-09 16:02:18.913,1,-0.36,-0.49,0.57,-29.0592,-38.4152,2.6222,175,75
2026-05-09 16:02:18.924,2,-1.19,-1.81,-0.58,7.8876,-56.175799999999995,175.9066,175,75
2026-05-09 16:02:18.924,5,0.91,-0.55,2.0,-65.0358,247.3818,-226.0052,175,75
2026-05-09 16:02:18.942,4,0.57,-0.58,1.83,-32.4662,172.4382,29.392799999999998,175,75
2026-05-09 16:02:18.942,5,0.13,-0.88,2.0,-86.0758,247.3818,-250.2952,175,75
2026-05-09 16:02:18.942,2,-1.24,-1.57,-0.5,25.0776,19.1842,-10.7434,175,75
2026-05-09 16:02:18.953,5,-0.44,-0.91,2.0,-82.5458,247.3818,-250.2952,175,75
2026-05-09 16:02:18.954,3,-0.07,0.04,0.49,-64.2574,-44.5816,19.144799999999996,175,75
2026-05-09 16:02:18.954,2,-0.91,-1.39,-0.19,17.7676,17.904200000000003,-55.0034,175,75
2026-05-09 16:02:18.999,3,0.32,-0.01,0.63,-182.1774,-20.6716,-96.15520000000001,175,75
2026-05-09 16:02:18.999,4,0.64,-0.45,1.5,-38.1962,17.438200000000005,51.712799999999994,175,75
2026-05-09 16:02:18.999,2,-0.35,-1.07,0.19,-41.7524,4.864200000000002,-5.8633999999999995,175,75
2026-05-09 16:02:18.999,4,0.68,-0.4,1.51,-41.5462,28.348200000000002,49.882799999999996,175,75
2026-05-09 16:02:18.999,5,-1.53,0.23,2.0,68.6842,-252.88819999999998,-131.8852,175,75
2026-05-09 16:02:18.999,2,-0.5,-0.87,0.2,-59.0024,-0.8157999999999994,19.8066,175,75
2026-05-09 16:02:19.003,3,0.31,0.0,0.7,-203.4574,-45.3116,-108.4752,175,75
2026-05-09 16:02:19.004,5,-1.19,0.31,2.0,95.08420000000001,-252.88819999999998,-13.6852,175,75
2026-05-09 16:02:19.007,4,0.82,-0.22,1.63,-46.7962,47.43820000000001,36.712799999999994,175,75
2026-05-09 16:02:19.019,2,-0.64,-0.61,0.17,-61.932399999999994,14.2542,17.0066,175,75
2026-05-09 16:02:19.019,4,0.95,0.02,1.72,-53.316199999999995,58.8382,21.2228,175,75
2026-05-09 16:02:19.019,5,-0.67,0.3,1.5,98.5442,-252.88819999999998,42.9448,175,75
2026-05-09 16:02:19.019,3,0.34,0.01,0.79,-214.8674,-45.9816,-115.5452,175,75
2026-05-09 16:02:19.019,1,0.42,-0.35,2.34,62.8308,106.8248,-36.2878,175,75
2026-05-09 16:02:19.032,2,-0.97,0.16,0.27,-19.372400000000003,107.3642,-74.1534,175,75
2026-05-09 16:02:19.032,4,0.92,0.7,1.97,-69.5962,90.1782,7.3228,175,75
2026-05-09 16:02:19.044,5,0.77,0.17,0.51,77.3242,-252.88819999999998,150.8348,175,75
2026-05-09 16:02:19.044,3,0.34,-0.04,0.75,-219.5574,-40.0616,-120.18520000000001,175,75
2026-05-09 16:02:19.044,2,-0.96,0.56,0.36,12.9476,162.1742,-115.4934,175,75
2026-05-09 16:02:19.044,5,1.76,-0.07,-0.37,82.6542,-252.88819999999998,248.1148,175,75
2026-05-09 16:02:19.048,4,0.68,0.94,2.08,-57.5862,89.4482,-7.9272,175,75
2026-05-09 16:02:19.049,2,-0.32,1.13,0.47,39.8376,225.4642,-54.0334,175,75
2026-05-09 16:02:19.060,1,0.3,-0.37,0.45,-264.4892,-114.2652,-72.7478,175,75
2026-05-09 16:02:19.060,5,2.0,-0.22,-2.0,145.7442,-252.88819999999998,249.9748,175,75
2026-05-09 16:02:19.060,3,0.58,-0.22,0.38,-200.8374,36.2184,-128.9652,175,75
2026-05-09 16:02:19.060,2,-0.78,1.6,0.56,45.0176,220.8942,19.3266,175,75
2026-05-09 16:02:19.073,5,2.0,-0.06,-2.0,214.5342,-227.4882,249.9748,175,75
2026-05-09 16:02:19.073,3,0.64,-0.09,0.49,-191.6874,74.07839999999999,-124.3252,175,75
2026-05-09 16:02:19.073,4,0.38,0.87,2.18,-22.586199999999998,18.348200000000002,-37.1272,175,75
2026-05-09 16:02:19.073,1,-0.07,-1.43,-1.41,-450.6492,-150.6152,-60.9178,175,75
2026-05-09 16:02:19.086,5,-1.49,-0.43,-1.35,133.2442,-90.8682,-21.7752,175,75
2026-05-09 16:02:19.099,4,0.28,0.7,2.0,-10.206199999999999,-57.321799999999996,-76.0372,175,75
2026-05-09 16:02:19.106,5,-2.0,0.3,0.05,25.9342,-252.88819999999998,-203.2152,175,75
2026-05-09 16:02:19.118,2,-0.31,0.75,0.67,-23.822400000000002,-151.8458,103.9566,175,75
2026-05-09 16:02:19.118,2,-0.67,0.76,0.48,-27.2324,-251.6658,56.1466,175,75
2026-05-09 16:02:19.118,4,0.24,0.74,1.84,-6.6061999999999985,-77.81179999999999,-96.6472,175,75
2026-05-09 16:02:19.118,4,0.21,0.79,1.68,-3.1361999999999988,-80.98179999999999,-107.0072,175,75
2026-05-09 16:02:19.118,5,-1.51,0.24,0.01,-50.8658,-252.88819999999998,-244.6952,175,75
2026-05-09 16:02:19.118,4,0.17,0.79,1.53,3.9438000000000013,-69.7618,-107.19720000000001,175,75
2026-05-09 16:02:19.131,2,-1.08,0.81,0.11,-5.2824,-268.37579999999997,12.1266,175,75
2026-05-09 16:02:19.131,4,0.15,0.71,1.43,13.513800000000002,-43.901799999999994,-98.6572,175,75
2026-05-09 16:02:19.131,1,-0.33,-1.18,0.8,-502.4792,152.6848,-42.1978,175,75
2026-05-09 16:02:19.131,2,-1.03,0.72,-0.14,28.3076,-258.4958,30.2966,175,75
2026-05-09 16:02:19.144,5,-0.25,-0.14,-0.79,-110.9658,-252.88819999999998,-194.9452,175,75
2026-05-09 16:02:19.144,4,0.18,0.47,1.28,26.1338,3.1082000000000036,-82.9872,175,75
2026-05-09 16:02:19.144,2,-1.25,0.32,-0.22,45.937599999999996,-176.6058,105.4766,175,75
2026-05-09 16:02:19.144,3,2.76,-2.83,4.1,243.18259999999998,33.4684,-155.6052,175,75
2026-05-09 16:02:19.155,5,0.43,0.09,-0.86,-108.9358,-252.88819999999998,-110.25519999999999,175,75
2026-05-09 16:02:19.155,1,0.16,-0.08,1.51,-435.5892,262.4348,-65.3078,175,75
2026-05-09 16:02:19.155,4,0.27,0.2,1.2,33.083800000000004,58.16820000000001,-66.88719999999999,175,75
2026-05-09 16:02:19.155,3,4.85,0.18,1.03,-50.1074,-652.9316,114.4548,175,75
2026-05-09 16:02:19.155,5,0.35,0.38,-0.61,-116.7158,-165.63819999999998,-45.2852,175,75
2026-05-09 16:02:19.155,2,-0.78,-0.32,-0.21,18.0076,-78.3158,143.7166,175,75
2026-05-09 16:02:19.166,1,0.39,0.1,1.72,-413.9392,235.3648,-71.6478,175,75
2026-05-09 16:02:19.166,2,-1.0,-0.76,-0.18,-20.712400000000002,-8.185799999999997,136.6966,175,75
2026-05-09 16:02:19.166,5,0.28,0.43,-0.48,-117.5158,-48.2082,-18.0852,175,75
2026-05-09 16:02:19.180,1,0.33,-0.22,1.65,-373.2092,194.3848,-86.95779999999999,175,75
2026-05-09 16:02:19.180,5,0.61,0.41,-0.59,-93.6458,99.8518,-6.5152,175,75
2026-05-09 16:02:19.180,3,-1.65,-1.37,-1.1,61.7226,223.7784,90.1248,175,75
2026-05-09 16:02:19.180,2,-1.17,-1.03,-0.16,-46.0824,93.9442,136.2166,175,75
2026-05-09 16:02:19.180,4,0.5,-0.21,1.56,36.1938,171.5182,-30.057199999999998,175,75
2026-05-09 16:02:19.195,5,1.18,0.46,-0.59,-62.6258,247.3818,6.3348,175,75
2026-05-09 16:02:19.195,2,-0.96,-1.23,-0.11,-48.3324,149.98420000000002,154.5666,175,75
2026-05-09 16:02:19.195,3,0.06,-1.33,0.42,159.9526,168.5284,-107.68520000000001,175,75
2026-05-09 16:02:19.211,5,2.0,0.96,-0.04,-73.1758,247.3818,55.7348,175,75
2026-05-09 16:02:19.211,2,-0.83,-1.26,-0.07,-30.592399999999998,149.79420000000002,164.92659999999998,175,75
2026-05-09 16:02:19.211,2,-0.82,-1.19,-0.01,0.017599999999999838,126.2042,153.1066,175,75
2026-05-09 16:02:19.215,5,1.12,0.65,-0.62,-146.4158,247.3818,-12.3352,175,75
2026-05-09 16:02:19.230,1,0.2,0.54,2.3,-289.30920000000003,96.5848,-72.8078,175,75
2026-05-09 16:02:19.230,5,2.0,0.36,-0.22,-182.9058,247.3818,0.3648,175,75
2026-05-09 16:02:19.237,4,0.84,-0.17,2.07,27.8438,51.9482,-54.507200000000005,175,75
2026-05-09 16:02:19.238,3,-0.31,-0.55,1.59,68.7926,52.5584,61.464800000000004,175,75
2026-05-09 16:02:19.238,4,0.88,-0.08,2.02,24.553800000000003,37.678200000000004,-57.7372,175,75
2026-05-09 16:02:19.238,3,-0.31,-1.09,1.47,58.98259999999999,31.9484,27.6248,175,75
2026-05-09 16:02:19.241,2,-0.67,-0.75,-0.05,81.9076,-52.2158,-11.4134,175,75
2026-05-09 16:02:19.254,5,-1.29,-0.82,2.0,-105.8658,233.0118,249.9748,175,75
2026-05-09 16:02:19.254,3,0.07,-1.28,1.76,47.8826,27.0084,21.4048,175,75
2026-05-09 16:02:19.254,2,-0.39,-0.83,-0.05,61.3576,-106.3558,-50.553399999999996,175,75
2026-05-09 16:02:19.264,1,0.29,1.77,2.57,-205.5892,6.644799999999998,-43.6578,175,75
2026-05-09 16:02:19.264,5,-2.0,-0.77,2.0,-71.1258,163.9318,243.9348,175,75
2026-05-09 16:02:19.264,2,-0.09,-1.16,-0.13,19.5876,-130.3258,-41.5334,175,75
2026-05-09 16:02:19.264,1,0.23,2.1,2.43,-153.5092,-17.7452,-26.8978,175,75
2026-05-09 16:02:19.264,4,0.53,-0.59,1.66,34.5538,-12.501799999999998,-6.1572000000000005,175,75
2026-05-09 16:02:19.268,5,-2.0,-1.07,1.97,-55.745799999999996,125.98179999999999,34.4148,175,75
2026-05-09 16:02:19.268,2,0.02,-1.48,-0.29,-15.2224,-108.0658,14.686599999999999,175,75
2026-05-09 16:02:19.277,4,0.35,-0.68,1.56,26.253800000000005,-28.971799999999998,-6.1572000000000005,175,75
2026-05-09 16:02:19.277,5,-2.0,-1.45,1.75,-2.1458,48.2618,-140.7552,175,75
2026-05-09 16:02:19.277,2,-0.35,-1.59,-0.46,-17.4224,-27.215799999999998,78.3466,175,75
2026-05-09 16:02:19.284,1,0.14,2.26,2.45,-23.759200000000003,-18.1752,-11.4078,175,75
2026-05-09 16:02:19.284,3,-0.43,-0.43,1.11,23.612599999999997,4.9384,1.764800000000001,175,75
2026-05-09 16:02:19.299,5,-2.0,-1.57,2.0,50.2242,-47.898199999999996,-211.8452,175,75
2026-05-09 16:02:19.299,1,0.17,2.05,2.57,89.29079999999999,-74.5752,-3.9678,175,75
2026-05-09 16:02:19.311,4,0.52,-0.24,1.67,6.0738,-15.611799999999997,-1.2172000000000005,175,75
2026-05-09 16:02:19.311,5,-0.75,-0.7,2.0,89.8742,-252.88819999999998,-250.2952,175,75
2026-05-09 16:02:19.311,2,-0.86,-1.26,-0.49,81.41760000000001,176.01420000000002,41.0866,175,75
2026-05-09 16:02:19.316,5,0.46,0.19,2.0,118.4242,-252.88819999999998,-250.2952,175,75
2026-05-09 16:02:19.326,3,-0.22,-0.79,1.08,-12.8474,-56.7716,-45.1252,175,75
2026-05-09 16:02:19.326,5,1.42,0.65,1.81,97.2942,-252.88819999999998,-250.2952,175,75
2026-05-09 16:02:19.333,4,0.56,-0.15,1.69,-6.6061999999999985,-33.7818,49.6928,175,75
2026-05-09 16:02:19.351,1,0.29,1.57,1.87,221.67079999999999,-51.9552,14.872200000000001,175,75
2026-05-09 16:02:19.351,2,-0.37,-0.65,0.07,89.4676,34.794200000000004,-140.8034,175,75
2026-05-09 16:02:19.351,3,0.08,-1.03,0.77,-23.0374,-56.7716,-45.3652,175,75
2026-05-09 16:02:19.362,4,0.27,-0.17,1.62,-3.006199999999999,-119.2118,44.2728,175,75
2026-05-09 16:02:19.362,2,-0.3,-0.5,0.07,56.8476,0.404200000000003,-152.75340000000003,175,75
2026-05-09 16:02:19.374,1,0.08,1.2,1.87,320.2708,-20.9752,34.2622,175,75
2026-05-09 16:02:19.374,5,1.77,0.64,0.66,19.3842,39.9718,28.924799999999998,175,75
2026-05-09 16:02:19.374,2,-0.05,-0.36,0.04,22.4576,-14.045799999999996,-136.16340000000002,175,75
2026-05-09 16:02:19.374,4,0.17,-0.02,1.52,-8.6162,-161.40179999999998,20.7328,175,75
2026-05-09 16:02:19.385,1,0.05,0.92,2.01,359.0508,-10.8552,49.452200000000005,175,75
2026-05-09 16:02:19.385,2,-0.01,-0.14,0.02,5.9976,4.434200000000001,-74.4634,175,75
2026-05-09 16:02:19.385,5,0.8,0.73,0.73,-11.2658,129.8518,40.1648,175,75
2026-05-09 16:02:19.385,4,0.16,0.18,1.37,-12.826199999999998,-182.5018,7.132799999999999,175,75
2026-05-09 16:02:19.385,1,0.06,0.65,2.04,385.6308,-8.3552,63.592200000000005,175,75
2026-05-09 16:02:19.385,3,0.9,-0.66,0.37,-20.1674,-100.9816,-21.7652,175,75
2026-05-09 16:02:19.391,5,0.09,0.61,0.64,-36.6658,154.1718,-4.6852,175,75
2026-05-09 16:02:19.392,4,0.16,0.34,1.18,-12.216199999999999,-177.4418,8.172799999999999,175,75
2026-05-09 16:02:19.392,2,-0.25,0.05,0.04,13.2476,72.8442,3.4666000000000006,175,75
2026-05-09 16:02:19.392,1,0.09,0.43,2.0,398.50079999999997,-12.135200000000001,71.8222,175,75
2026-05-09 16:02:19.395,5,-0.22,0.42,0.43,-37.6258,103.5218,-59.0852,175,75
2026-05-09 16:02:19.418,4,0.16,0.44,1.02,-12.466199999999999,-146.1018,17.012800000000002,175,75
2026-05-09 16:02:19.418,1,0.03,0.26,1.92,406.1208,-20.005200000000002,84.3222,175,75
2026-05-09 16:02:19.418,2,-0.22,-0.08,0.1,26.9076,100.2242,7.9765999999999995,175,75
2026-05-09 16:02:19.418,2,-0.38,-0.23,0.17,32.827600000000004,99.49419999999999,-11.7734,175,75
2026-05-09 16:02:19.418,1,-0.01,0.08,1.93,410.5108,-27.925200000000004,95.79220000000001,175,75
2026-05-09 16:02:19.418,5,0.33,0.5,0.5,32.2842,-52.468199999999996,-46.8152,175,75
2026-05-09 16:02:19.433,5,0.45,0.54,0.65,46.574200000000005,-64.3382,-14.7552,175,75
2026-05-09 16:02:19.433,2,-0.56,-0.17,0.25,24.8976,85.2842,-51.7734,175,75
2026-05-09 16:02:19.433,1,0.01,-0.12,1.93,410.69079999999997,-54.0852,108.4122,175,75
2026-05-09 16:02:19.433,3,1.03,-0.01,0.15,45.5626,-84.94160000000001,34.324799999999996,175,75
2026-05-09 16:02:19.433,2,-0.58,0.09,0.31,15.267600000000002,65.6542,-98.4234,175,75
2026-05-09 16:02:19.447,5,0.28,0.45,0.55,52.7342,-68.4082,19.0248,175,75
2026-05-09 16:02:19.447,2,-0.48,0.35,0.34,8.8576,56.5042,-127.8134,175,75
2026-05-09 16:02:19.469,1,0.17,-0.38,1.94,396.7908,-141.0352,135.3622,175,75
2026-05-09 16:02:19.469,3,-0.04,-0.45,0.99,153.1826,58.8384,115.85479999999998,175,75
2026-05-09 16:02:19.469,5,-0.01,0.32,0.38,51.1242,-92.6582,80.2248,175,75
2026-05-09 16:02:19.469,1,0.2,-0.6,2.03,389.3508,-184.9352,142.0722,175,75
2026-05-09 16:02:19.483,2,-0.43,1.23,0.19,7.3976,4.984200000000001,-35.4334,175,75
2026-05-09 16:02:19.487,2,-0.41,1.13,0.16,9.1676,-21.545799999999996,-26.2834,175,75
2026-05-09 16:02:19.487,5,-0.05,0.09,0.18,43.4742,-102.7882,102.29480000000001,175,75
2026-05-09 16:02:19.498,4,0.19,0.84,1.73,-21.426199999999998,-40.73179999999999,-20.9772,175,75
2026-05-09 16:02:19.507,5,-0.1,-0.11,0.01,53.3442,-101.3982,116.10480000000001,175,75
2026-05-09 16:02:19.507,1,-0.39,-1.25,2.34,362.7108,-359.8152,92.0122,175,75
2026-05-09 16:02:19.507,2,-0.45,0.85,0.22,0.8776000000000002,-45.50580000000001,-25.8634,175,75
2026-05-09 16:02:19.512,1,-0.29,-1.47,1.36,328.7408,-454.02520000000004,70.6022,175,75
2026-05-09 16:02:19.519,5,-0.25,-0.33,-0.64,112.3242,-124.95819999999999,152.3148,175,75
2026-05-09 16:02:19.520,4,0.05,0.88,1.64,-26.916199999999996,-40.37179999999999,-46.0972,175,75
2026-05-09 16:02:19.528,1,-0.52,-1.5,0.04,304.1708,-389.63520000000005,36.8222,175,75
2026-05-09 16:02:19.528,2,-0.46,0.71,0.22,-0.6524000000000001,-8.675799999999999,-42.0234,175,75
2026-05-09 16:02:19.528,5,-0.25,-0.34,-0.79,158.5242,-166.0982,181.32479999999998,175,75
2026-05-09 16:02:19.528,4,0.06,0.84,1.63,-21.1862,-17.501799999999996,-47.677200000000006,175,75
2026-05-09 16:02:19.528,3,0.27,0.11,1.53,183.1226,45.9684,173.9048,175,75
2026-05-09 16:02:19.534,1,-0.64,-1.15,-0.98,296.6108,-261.52520000000004,12.1922,175,75
2026-05-09 16:02:19.534,2,-0.45,0.68,0.22,6.7876,-17.825799999999997,-43.4834,175,75
2026-05-09 16:02:19.538,5,-0.28,-0.1,-1.48,207.3542,-209.2382,195.1848,175,75
2026-05-09 16:02:19.545,5,-0.15,0.16,-1.59,199.4142,-214.8682,169.7848,175,75
2026-05-09 16:02:19.545,3,0.29,0.16,1.33,164.6526,-84.33160000000001,138.04479999999998,175,75
2026-05-09 16:02:19.549,1,-0.45,-0.99,-1.73,320.7608,-18.5352,-65.5478,175,75
2026-05-09 16:02:19.568,3,0.32,0.22,0.9,133.0026,-108.6016,127.50479999999999,175,75
2026-05-09 16:02:19.568,3,0.46,0.47,0.62,101.42259999999999,-72.44160000000001,134.9348,175,75
2026-05-09 16:02:19.587,4,0.45,0.82,1.73,-20.9362,53.8382,-65.3072,175,75
2026-05-09 16:02:19.588,3,0.47,0.7,0.57,78.0026,-65.19160000000001,129.4548,175,75
2026-05-09 16:02:19.588,1,-1.41,-2.41,0.35,-328.0292,832.4947999999999,-302.56780000000003,175,75
2026-05-09 16:02:19.588,2,-0.53,0.54,0.22,-3.5224,-92.9458,-35.6134,175,75
2026-05-09 16:02:19.588,2,-0.58,0.43,0.16,-12.5424,-145.4458,-31.7734,175,75
2026-05-09 16:02:19.592,2,-0.7,0.17,0.09,-15.892400000000002,-185.99579999999997,-14.7034,175,75
2026-05-09 16:02:19.592,3,0.37,0.76,0.53,60.01259999999999,-64.1516,117.19479999999999,175,75
2026-05-09 16:02:19.596,3,0.3,0.75,0.51,37.0226,-59.4516,92.3748,175,75
2026-05-09 16:02:19.605,5,0.54,-0.56,-0.35,-2.0358,247.3818,9.8248,175,75
2026-05-09 16:02:19.622,2,-0.78,-0.25,0.06,-17.7224,-216.3558,14.936599999999999,175,75
2026-05-09 16:02:19.622,4,0.34,-0.03,1.75,13.7538,30.7882,-37.677200000000006,175,75
2026-05-09 16:02:19.622,5,0.78,-0.57,-0.22,-9.1758,247.3818,7.2948,175,75
2026-05-09 16:02:19.649,3,0.23,0.72,0.59,-0.3474000000000004,-43.2916,63.354800000000004,175,75
2026-05-09 16:02:19.649,1,-2.31,-0.41,1.41,-1.3192,-139.5152,-10.9178,175,75
2026-05-09 16:02:19.649,4,0.37,-0.24,1.61,14.493800000000002,33.718199999999996,-24.2072,175,75
2026-05-09 16:02:19.649,2,-0.8,-0.68,0.05,-22.9724,-238.49579999999997,48.1666,175,75
2026-05-09 16:02:19.649,5,2.0,0.33,-0.22,17.0242,247.3818,31.6048,175,75
2026-05-09 16:02:19.660,3,0.12,0.88,0.76,-77.23740000000001,-27.7516,-2.9252000000000002,175,75
2026-05-09 16:02:19.660,1,0.56,-0.42,0.3,-14.9192,-121.7052,-7.687799999999999,175,75
2026-05-09 16:02:19.660,2,-0.79,-1.16,0.02,-36.8724,-256.9658,96.3366,175,75
2026-05-09 16:02:19.660,4,0.54,-0.46,1.48,21.5038,74.2082,-3.5972000000000004,175,75
2026-05-09 16:02:19.660,1,-0.1,-1.69,-0.48,-63.7592,-44.0252,6.152200000000001,175,75
2026-05-09 16:02:19.660,2,-1.45,-1.98,-0.37,-61.932399999999994,-216.11579999999998,211.14659999999998,175,75
2026-05-09 16:02:19.665,3,0.37,1.13,0.93,-83.3974,-55.6116,-26.5252,175,75
2026-05-09 16:02:19.665,5,-1.93,-1.37,2.0,39.744200000000006,247.3818,-250.2952,175,75
2026-05-09 16:02:19.690,5,2.0,1.04,2.0,1.0042,173.61180000000002,-250.2952,175,75
2026-05-09 16:02:19.712,5,1.42,0.5,2.0,-162.5558,247.3818,-250.2952,175,75
2026-05-09 16:02:19.712,4,1.17,-0.49,2.03,16.9238,112.00820000000002,45.242799999999995,175,75
2026-05-09 16:02:19.712,3,-0.08,1.01,0.74,-92.4274,-37.3216,-54.5152,175,75
2026-05-09 16:02:19.712,5,-0.45,0.51,2.0,-204.5758,247.3818,-250.2952,175,75
2026-05-09 16:02:19.712,4,1.2,-0.68,2.07,19.4938,65.2382,67.8728,175,75
2026-05-09 16:02:19.712,3,0.2,1.19,0.78,-119.6174,-30.8616,-115.5452,175,75
2026-05-09 16:02:19.725,2,-2.41,-1.78,-0.62,3.7976,42.9042,-74.5834,175,75
2026-05-09 16:02:19.725,1,0.24,-0.05,0.78,-43.029199999999996,-3.7852000000000006,7.4322,175,75
2026-05-09 16:02:19.725,5,-1.83,0.21,2.0,-218.6658,247.3818,-250.2952,175,75
2026-05-09 16:02:19.725,4,1.09,-0.95,1.98,21.9238,19.3882,79.5728,175,75
2026-05-09 16:02:19.725,5,-2.0,0.04,2.0,-172.4158,224.2318,-230.1052,175,75
2026-05-09 16:02:19.725,2,-1.47,-1.65,-0.12,30.447599999999998,2.5442,-99.0934,175,75
2026-05-09 16:02:19.731,5,-2.0,0.3,2.0,-125.7658,35.1918,-94.9452,175,75
2026-05-09 16:02:19.731,3,0.23,1.49,0.61,-170.5374,25.1184,-128.5952,175,75
2026-05-09 16:02:19.731,2,-1.24,-1.67,-0.03,2.9476,-1.6657999999999973,-41.4734,175,75
2026-05-09 16:02:19.747,4,0.87,-0.88,1.83,-24.9662,-12.081799999999998,47.992799999999995,175,75
2026-05-09 16:02:19.747,1,-0.42,-0.61,0.45,29.290799999999997,15.5448,-6.4078,175,75
2026-05-09 16:02:19.747,3,0.9,0.7,0.68,-195.4074,34.9984,-202.86520000000002,175,75
2026-05-09 16:02:19.747,5,-1.29,0.81,2.0,-54.285799999999995,-203.6882,162.23479999999998,175,75
2026-05-09 16:02:19.747,1,-0.5,-0.62,0.73,42.2808,58.294799999999995,-8.1778,175,75
2026-05-09 16:02:19.747,3,0.65,0.47,0.64,-208.5174,44.1384,-208.0452,175,75
2026-05-09 16:02:19.757,5,-0.99,0.43,2.0,-8.2158,-252.88819999999998,224.1248,175,75
2026-05-09 16:02:19.757,4,1.22,-0.18,1.93,-38.3162,12.438200000000005,35.3028,175,75
2026-05-09 16:02:19.757,2,-1.39,-1.23,0.12,-12.7224,139.0642,32.6166,175,75
2026-05-09 16:02:19.774,4,1.23,0.07,1.99,-38.2562,11.888200000000001,48.2328,175,75
2026-05-09 16:02:19.774,2,-1.18,-0.83,0.37,40.6276,116.7542,-35.3134,175,75
2026-05-09 16:02:19.775,5,0.33,-0.32,2.0,-25.1758,-252.88819999999998,249.9748,175,75
2026-05-09 16:02:19.775,3,-0.86,0.28,1.81,-201.2674,167.7384,-245.36520000000002,175,75
2026-05-09 16:02:19.786,4,0.94,0.24,2.13,-35.9962,4.748200000000004,54.6928,175,75
2026-05-09 16:02:19.786,3,-3.96,1.62,3.37,-106.07740000000001,293.10839999999996,-155.8552,175,75
2026-05-09 16:02:19.786,5,0.69,-0.55,1.35,-5.9658,-252.88819999999998,249.9748,175,75
2026-05-09 16:02:19.786,2,-1.03,-0.57,0.47,58.9776,68.0942,-83.1734,175,75
2026-05-09 16:02:19.786,1,-0.38,-0.55,1.73,39.8408,112.01480000000001,10.1222,175,75
2026-05-09 16:02:19.786,3,-8.83,3.82,6.62,134.6526,490.35839999999996,212.7448,175,75
2026-05-09 16:02:19.786,4,0.56,0.33,2.28,-32.4662,-7.321799999999998,48.782799999999995,175,75
2026-05-09 16:02:19.796,2,-0.87,-0.25,0.47,62.2176,7.234200000000001,-133.48340000000002,175,75
2026-05-09 16:02:19.796,1,-0.34,-0.35,1.8,33.3808,122.4348,15.062199999999999,175,75
2026-05-09 16:02:19.796,3,-4.2,-1.82,9.4,734.2226,591.8883999999999,370.3048,175,75
2026-05-09 16:02:19.796,2,-0.7,0.12,0.41,47.9476,-69.53580000000001,-197.1434,175,75
2026-05-09 16:02:19.800,5,1.51,-1.54,-0.78,75.1342,-252.88819999999998,249.9748,175,75
2026-05-09 16:02:19.800,1,-0.13,0.04,2.33,13.8608,147.8648,23.2922,175,75
2026-05-09 16:02:19.804,5,1.71,-1.62,-1.39,75.2942,-251.5382,136.0248,175,75
2026-05-09 16:02:19.817,1,-0.01,-0.03,2.16,-5.8292,131.7648,16.5222,175,75
2026-05-09 16:02:19.841,2,0.56,1.41,0.07,8.3076,-148.1858,-23.3034,175,75
2026-05-09 16:02:19.841,2,-1.02,1.67,-0.1,11.5476,-105.0158,52.2466,175,75
2026-05-09 16:02:19.841,4,0.25,0.57,2.13,12.113800000000003,-188.5418,-10.917200000000001,175,75
2026-05-09 16:02:19.841,2,-1.14,0.97,-0.09,20.5076,-3.7357999999999976,72.4966,175,75
2026-05-09 16:02:19.841,5,-0.88,-0.5,0.11,91.7942,-39.9882,-250.2952,175,75
2026-05-09 16:02:19.841,3,0.82,-0.92,-1.24,103.2426,218.4084,-48.2952,175,75
2026-05-09 16:02:19.858,4,-0.12,0.65,1.69,14.063800000000002,-261.0418,-33.4172,175,75
2026-05-09 16:02:19.880,2,-1.32,0.38,0.21,-49.062400000000004,149.00420000000003,20.6066,175,75
2026-05-09 16:02:19.882,2,-0.73,0.5,0.16,-29.672400000000003,179.3142,-39.1534,175,75
2026-05-09 16:02:19.893,5,0.46,0.47,-0.33,-10.1258,-59.5882,-250.2952,175,75
2026-05-09 16:02:19.893,1,0.87,2.85,2.61,133.9308,-31.645200000000003,30.482200000000002,175,75
2026-05-09 16:02:19.902,4,0.18,1.03,1.21,6.383800000000003,-142.6218,-36.7672,175,75
2026-05-09 16:02:19.902,5,0.9,0.97,-0.82,-47.2258,-23.9282,-250.2952,175,75
2026-05-09 16:02:19.902,2,-0.29,0.55,0.27,-12.6024,163.82420000000002,-51.1634,175,75
2026-05-09 16:02:19.902,4,0.14,0.84,1.25,33.4538,-33.6618,12.8628,175,75
2026-05-09 16:02:19.914,4,0.1,0.58,1.42,35.583800000000004,9.208200000000001,22.442800000000002,175,75
2026-05-09 16:02:19.914,4,0.24,0.36,1.6,19.303800000000003,21.6382,3.902799999999999,175,75
2026-05-09 16:02:19.914,5,0.07,0.95,-0.59,-104.22579999999999,24.3918,-118.39519999999999,175,75
2026-05-09 16:02:19.925,3,0.82,-0.22,1.37,97.2126,85.54839999999999,59.8748,175,75
2026-05-09 16:02:19.925,1,0.6,0.79,2.09,206.30079999999998,-132.92520000000002,51.2822,175,75
2026-05-09 16:02:19.925,2,-0.35,0.38,0.5,-27.9724,146.32420000000002,67.9766,175,75
2026-05-09 16:02:19.925,4,0.49,0.3,1.72,7.053800000000001,-7.321799999999998,-27.807199999999998,175,75
2026-05-09 16:02:19.937,5,0.07,0.62,-0.3,-116.5158,44.101800000000004,-86.4052,175,75
2026-05-09 16:02:19.937,2,-0.05,0.07,0.6,-30.532400000000003,84.7942,62.2466,175,75
2026-05-09 16:02:19.937,3,0.7,-0.2,1.33,96.7226,20.2384,84.9348,175,75
2026-05-09 16:02:19.937,4,0.65,0.41,1.78,11.383800000000003,-44.0318,-51.5872,175,75
2026-05-09 16:02:19.937,2,-0.26,-0.04,0.6,-22.7224,20.224200000000003,42.0666,175,75
2026-05-09 16:02:19.937,1,1.35,0.25,0.72,199.3508,-157.5052,56.882200000000005,175,75
2026-05-09 16:02:19.965,4,0.73,0.56,1.76,14.363800000000003,-52.141799999999996,-67.1972,175,75
2026-05-09 16:02:19.965,4,0.82,0.66,1.79,11.383800000000003,-31.101799999999997,-71.94720000000001,175,75
2026-05-09 16:02:19.965,3,0.17,0.02,1.23,86.23259999999999,8.4084,120.91479999999999,175,75
2026-05-09 16:02:19.965,5,0.17,0.06,0.08,-18.945800000000002,208.8918,117.21480000000001,175,75
2026-05-09 16:02:19.982,1,-0.92,-10.02,-6.37,-304.6092,190.9148,-98.2978,175,75
2026-05-09 16:02:19.982,3,-0.06,-0.04,1.3,68.73259999999999,-4.8216,124.9348,175,75
2026-05-09 16:02:19.982,4,0.86,0.45,1.82,26.9238,-31.401799999999998,-70.30720000000001,175,75
2026-05-09 16:02:19.982,2,-0.56,0.43,-0.1,39.7776,-122.3958,9.8666,175,75
2026-05-09 16:02:19.984,4,0.75,0.25,1.79,37.8438,-58.17179999999999,-67.8072,175,75
2026-05-09 16:02:19.994,3,-0.28,-0.04,1.23,45.872600000000006,-20.7316,123.84479999999999,175,75
2026-05-09 16:02:20.002,2,-0.54,0.19,-0.27,55.0176,-180.5658,47.0666,175,75
2026-05-09 16:02:20.002,5,0.61,0.27,0.56,-4.7058,153.6818,249.9748,175,75
2026-05-09 16:02:20.015,2,-0.33,-0.3,-0.26,55.2676,-204.3458,86.1466,175,75
2026-05-09 16:02:20.015,3,-0.44,0.06,1.15,28.7326,-26.2216,121.9548,175,75
2026-05-09 16:02:20.015,5,0.91,0.34,1.12,-4.235799999999999,-11.818200000000001,249.9748,175,75
2026-05-09 16:02:20.015,2,-0.6,-0.97,-0.43,47.4576,-125.3858,68.1666,175,75
2026-05-09 16:02:20.015,1,-0.84,0.53,1.36,-3.4492,-46.285199999999996,23.4722,175,75
2026-05-09 16:02:20.015,4,0.64,-0.33,1.62,46.3838,-81.6518,-49.5672,175,75
2026-05-09 16:02:20.015,5,0.2,-0.49,1.91,-12.055800000000001,-107.3082,249.9748,175,75
2026-05-09 16:02:20.026,3,-0.53,0.27,1.06,10.682599999999997,-29.1516,112.50479999999999,175,75
2026-05-09 16:02:20.026,2,-0.83,-1.39,-0.72,41.117599999999996,-32.705799999999996,62.5566,175,75
2026-05-09 16:02:20.026,1,-1.11,-0.61,0.69,18.4408,-51.8352,23.6522,175,75
2026-05-09 16:02:20.026,4,0.73,-0.42,1.53,56.6838,-114.70179999999999,-43.2272,175,75
2026-05-09 16:02:20.026,5,1.38,-1.54,2.0,-8.8658,-80.8282,115.65480000000001,175,75
2026-05-09 16:02:20.026,3,-0.49,0.37,1.11,6.052599999999998,-34.031600000000005,106.8948,175,75
2026-05-09 16:02:20.041,4,0.79,-0.42,1.47,63.083800000000004,-127.4418,-44.3872,175,75
2026-05-09 16:02:20.041,1,-0.33,-1.14,0.58,-4.0592,6.1548,3.5322,175,75
2026-05-09 16:02:20.041,5,1.37,-1.37,2.0,19.2442,32.7918,-126.23519999999999,175,75
2026-05-09 16:02:20.041,2,-1.24,-1.74,-0.84,21.2976,115.0442,83.1066,175,75
2026-05-09 16:02:20.041,1,0.06,-1.47,0.97,11.7308,30.7348,-15.4278,175,75
2026-05-09 16:02:20.051,3,-0.53,0.36,1.22,-21.1474,-76.83160000000001,103.59479999999999,175,75
2026-05-09 16:02:20.051,4,1.01,-0.33,1.35,65.8938,-112.3818,-41.647200000000005,175,75
2026-05-09 16:02:20.051,2,-1.67,-1.44,-0.62,32.1576,249.98420000000002,77.4966,175,75
2026-05-09 16:02:20.074,1,0.09,-1.07,1.29,21.240799999999997,9.574799999999998,-23.787799999999997,175,75
2026-05-09 16:02:20.074,5,-0.79,-0.66,2.0,-49.105799999999995,247.3818,-250.2952,175,75
2026-05-09 16:02:20.074,1,-0.11,-0.74,0.9,29.290799999999997,12.1348,-20.677799999999998,175,75
2026-05-09 16:02:20.084,3,-0.55,0.29,1.07,-39.317400000000006,-111.47160000000001,89.57480000000001,175,75
2026-05-09 16:02:20.084,2,-1.57,-1.01,-0.21,50.4476,329.0042,26.8266,175,75
2026-05-09 16:02:20.084,4,1.17,-0.29,1.07,74.6738,-69.1518,7.442799999999999,175,75
2026-05-09 16:02:20.084,5,-0.6,-0.26,2.0,-71.9058,247.3818,-250.2952,175,75
2026-05-09 16:02:20.084,3,-0.35,0.13,0.4,-83.3374,-117.2616,31.464799999999997,175,75
2026-05-09 16:02:20.109,1,0.04,-0.75,0.74,39.9608,2.7447999999999997,-21.587799999999998,175,75
2026-05-09 16:02:20.109,4,0.87,-0.4,1.0,75.8338,-63.42179999999999,24.762800000000002,175,75
2026-05-09 16:02:20.109,2,-1.14,-0.88,0.71,47.3976,301.93420000000003,-60.3134,175,75
2026-05-09 16:02:20.109,1,0.17,-0.76,0.73,55.2708,-1.6452000000000009,-21.3478,175,75
2026-05-09 16:02:20.109,5,-1.84,0.08,2.0,-57.965799999999994,61.451800000000006,-187.0352,175,75
2026-05-09 16:02:20.121,1,0.03,-0.75,0.61,82.3408,-4.2652,-17.0778,175,75
2026-05-09 16:02:20.121,4,0.4,-0.35,1.07,46.7438,-46.2818,31.042800000000003,175,75
2026-05-09 16:02:20.121,3,-0.23,0.09,0.15,-108.6474,-53.9016,-0.3652000000000015,175,75
2026-05-09 16:02:20.125,3,0.05,-0.1,0.52,-127.7274,-23.3616,-46.6452,175,75
2026-05-09 16:02:20.125,5,-1.91,0.29,2.0,-77.05579999999999,-75.8982,-177.14520000000002,175,75
2026-05-09 16:02:20.145,1,-0.2,-0.75,1.0,153.4408,-11.705200000000001,-0.6778,175,75
2026-05-09 16:02:20.145,5,-0.9,0.26,2.0,-79.5458,-252.88819999999998,-121.62519999999999,175,75
2026-05-09 16:02:20.145,1,0.1,-0.55,0.93,178.6808,57.98480000000001,-29.267799999999998,175,75
2026-05-09 16:02:20.145,5,-0.32,0.16,1.95,-26.5458,-252.88819999999998,-49.7852,175,75
2026-05-09 16:02:20.145,2,-0.83,-0.92,1.21,-129.4324,-129.5958,-35.2534,175,75
2026-05-09 16:02:20.145,5,0.06,0.19,1.46,49.934200000000004,-252.88819999999998,25.8948,175,75
2026-05-09 16:02:20.155,2,-1.13,-0.04,0.77,-115.5324,-159.77579999999998,-99.5834,175,75
2026-05-09 16:02:20.155,3,0.71,-0.11,0.44,-200.4074,-63.4216,-133.1752,175,75
2026-05-09 16:02:20.160,1,0.15,0.2,1.54,57.1008,148.9648,-71.2178,175,75
2026-05-09 16:02:20.160,2,-1.11,0.39,0.59,-72.1724,-136.7858,-158.17340000000002,175,75
2026-05-09 16:02:20.160,4,0.49,0.72,1.2,-30.696199999999997,-4.511799999999997,-1.3972000000000007,175,75
2026-05-09 16:02:20.166,5,1.26,0.6,0.77,93.0142,-252.88819999999998,173.0248,175,75
2026-05-09 16:02:20.186,4,0.6,1.02,1.18,-38.136199999999995,9.938200000000002,-9.147200000000002,175,75
2026-05-09 16:02:20.198,2,-0.69,0.72,0.48,-28.642400000000002,-114.1058,-189.76340000000002,175,75
2026-05-09 16:02:20.198,3,0.59,0.08,0.35,-207.1774,16.2784,-122.2552,175,75
2026-05-09 16:02:20.198,5,2.0,0.43,-1.29,116.5342,-252.88819999999998,249.9748,175,75
2026-05-09 16:02:20.198,5,1.79,-0.75,-0.98,144.2942,-202.8182,249.9748,175,75
2026-05-09 16:02:20.210,3,0.68,-0.43,-0.04,-217.7874,67.79839999999999,-141.7652,175,75
2026-05-09 16:02:20.210,5,0.41,-1.05,-2.0,156.0942,-83.3282,215.8948,175,75
2026-05-09 16:02:20.210,1,0.1,-0.98,-0.11,-429.9192,-46.8352,-114.3978,175,75
2026-05-09 16:02:20.210,3,0.8,-0.51,0.09,-208.7674,101.15839999999999,-147.3752,175,75
2026-05-09 16:02:20.220,1,-0.29,-1.91,-0.56,-510.1592,-69.8152,-103.7878,175,75
2026-05-09 16:02:20.220,3,0.65,-0.52,0.74,-204.1874,119.74839999999999,-138.6552,175,75
2026-05-09 16:02:20.220,4,-0.12,0.51,1.29,-16.1162,116.3982,-22.737199999999998,175,75
2026-05-09 16:02:20.226,5,-1.53,-0.45,-0.62,135.7742,-126.9282,-54.2652,175,75
2026-05-09 16:02:20.237,3,0.72,-0.5,1.57,-202.4874,137.5584,-137.0152,175,75
2026-05-09 16:02:20.237,4,0.34,0.45,1.31,-30.9962,137.4982,-47.5572,175,75
2026-05-09 16:02:20.237,2,-0.66,-0.12,0.55,-13.392400000000002,-140.5058,101.1466,175,75
2026-05-09 16:02:20.237,5,-1.64,0.0,0.06,72.4242,-181.8782,-128.98520000000002,175,75
2026-05-09 16:02:20.237,1,0.14,-2.36,1.25,-571.4392,-90.9752,-76.70779999999999,175,75
2026-05-09 16:02:20.246,3,-2.62,1.76,3.4,-130.3474,169.7484,-15.0652,175,75
2026-05-09 16:02:20.247,4,0.59,0.57,1.36,-38.9262,125.9682,-64.3272,175,75
2026-05-09 16:02:20.247,5,-1.48,0.17,0.25,-9.3758,-216.7682,-186.5052,175,75
2026-05-09 16:02:20.247,3,-5.37,2.24,4.51,-73.0374,287.73839999999996,157.6848,175,75
2026-05-09 16:02:20.269,5,-1.24,0.22,-0.02,-88.1158,-251.69819999999999,-205.89520000000002,175,75
2026-05-09 16:02:20.269,5,-0.52,0.26,-0.45,-152.0858,-252.88819999999998,-178.9452,175,75
2026-05-09 16:02:20.282,2,-1.07,0.03,0.24,-33.8224,-119.53580000000001,54.6266,175,75
2026-05-09 16:02:20.282,3,-3.62,1.92,5.7,115.99259999999998,320.9084,107.50479999999999,175,75
2026-05-09 16:02:20.282,2,-1.3,0.48,-0.06,-25.5924,-112.8858,-33.3634,175,75
2026-05-09 16:02:20.282,1,-0.87,-1.1,0.7,-553.3892,-92.8652,-11.527800000000001,175,75
2026-05-09 16:02:20.282,1,-0.89,-0.39,0.81,-492.1092,-8.1152,7.4322,175,75
2026-05-09 16:02:20.282,4,0.72,0.46,1.47,-10.0262,166.5182,-48.9572,175,75
2026-05-09 16:02:20.290,2,-1.41,0.86,-0.26,0.38759999999999994,-104.7158,-95.4934,175,75
2026-05-09 16:02:20.290,3,6.43,-2.11,1.8,68.98259999999999,-283.1116,-109.8152,175,75
2026-05-09 16:02:20.290,2,-1.2,0.37,-0.38,58.8576,31.6842,89.0766,175,75
2026-05-09 16:02:20.304,5,0.7,0.41,-0.81,-180.6158,-9.3582,-53.2752,175,75
2026-05-09 16:02:20.304,1,0.05,0.53,0.66,-423.2092,86.0348,31.7622,175,75
2026-05-09 16:02:20.317,3,-1.62,0.58,0.04,-132.1774,-592.1416,255.06480000000002,175,75
2026-05-09 16:02:20.317,5,1.03,0.6,-0.73,-159.4258,147.0118,-48.5552,175,75
2026-05-09 16:02:20.317,4,0.5,-0.32,1.67,7.173800000000002,75.7282,-48.6572,175,75
2026-05-09 16:02:20.317,3,-3.51,0.07,-0.92,-75.4074,58.5984,187.8648,175,75
2026-05-09 16:02:20.317,2,-0.6,-1.36,-0.05,-22.6624,104.5542,154.2566,175,75
2026-05-09 16:02:20.317,5,1.3,0.55,-0.58,-139.3658,247.3818,-53.6152,175,75
2026-05-09 16:02:20.325,5,1.89,0.59,-0.45,-124.3458,247.3818,-45.3552,175,75
2026-05-09 16:02:20.350,1,0.27,-0.32,0.78,-363.4492,164.9348,-4.1478,175,75
2026-05-09 16:02:20.366,5,2.0,0.63,2.0,-237.8158,247.3818,249.9748,175,75
2026-05-09 16:02:20.366,2,-1.56,-1.2,-0.23,95.7476,-38.9858,-25.3134,175,75
2026-05-09 16:02:20.366,5,0.26,-0.59,2.0,-167.8858,233.36180000000002,155.1548,175,75
2026-05-09 16:02:20.366,2,-0.98,-1.2,-0.16,93.3776,-148.0058,-135.7434,175,75
2026-05-09 16:02:20.384,1,0.4,0.88,2.8,-181.7392,153.6548,-34.1478,175,75
2026-05-09 16:02:20.384,5,-0.79,-1.0,2.0,-119.80579999999999,247.3818,46.2648,175,75
2026-05-09 16:02:20.402,5,-2.0,-1.57,1.5,35.324200000000005,247.3818,11.1548,175,75
2026-05-09 16:02:20.402,3,-0.42,-0.17,1.21,42.6326,-18.901600000000002,30.674799999999998,175,75
2026-05-09 16:02:20.402,2,-0.55,-1.35,-0.71,6.6076,-213.3158,-110.7434,175,75
2026-05-09 16:02:20.414,5,-2.0,-1.63,2.0,90.9342,65.1018,83.38480000000001,175,75
2026-05-09 16:02:20.414,4,0.42,-0.28,1.61,-0.38619999999999877,35.238200000000006,-1.8272000000000004,175,75
2026-05-09 16:02:20.414,2,-0.83,-1.27,-1.03,17.2176,-69.8358,-59.5234,175,75
2026-05-09 16:02:20.435,5,-2.0,-1.22,2.0,71.6542,-247.16819999999998,106.8948,175,75
2026-05-09 16:02:20.435,5,-1.93,-0.93,2.0,62.394200000000005,-252.88819999999998,-19.9252,175,75
2026-05-09 16:02:20.435,1,0.34,1.61,2.62,46.000800000000005,-54.395199999999996,7.982199999999999,175,75
2026-05-09 16:02:20.435,1,0.31,1.5,2.64,82.5808,-70.4852,18.592200000000002,175,75
2026-05-09 16:02:20.435,3,-0.47,-0.42,0.97,-3.0374000000000017,-55.5516,-46.2852,175,75
2026-05-09 16:02:20.446,4,0.53,-0.18,1.53,6.6838,-13.781799999999997,33.7228,175,75
2026-05-09 16:02:20.446,5,-0.18,-0.34,2.0,23.144199999999998,-252.88819999999998,-141.3052,175,75
2026-05-09 16:02:20.446,3,-0.3,-0.45,0.98,-10.5974,-50.6716,-52.315200000000004,175,75
2026-05-09 16:02:20.446,1,0.37,1.37,2.61,143.6808,-88.8452,30.9122,175,75
2026-05-09 16:02:20.446,4,0.46,-0.11,1.54,3.2738000000000014,-19.151799999999998,45.7928,175,75
2026-05-09 16:02:20.446,5,1.32,-0.21,1.65,10.1442,-252.88819999999998,-208.39520000000002,175,75
2026-05-09 16:02:20.464,5,1.72,-0.09,0.88,30.304199999999998,-252.88819999999998,-236.61520000000002,175,75
2026-05-09 16:02:20.464,2,-0.87,-0.64,-0.25,85.56760000000001,208.82420000000002,14.7466,175,75
2026-05-09 16:02:20.464,3,-0.03,-0.73,0.9,-18.4574,-62.2616,-54.3952,175,75
2026-05-09 16:02:20.464,4,0.45,-0.01,1.62,0.6438000000000006,-54.031800000000004,50.672799999999995,175,75
2026-05-09 16:02:20.464,1,0.4,1.22,2.17,253.5608,-94.5752,45.7922,175,75
2026-05-09 16:02:20.476,2,-0.74,-0.56,-0.1,68.4976,158.6442,4.1366000000000005,175,75
2026-05-09 16:02:20.476,1,0.34,1.09,2.05,294.6008,-78.1752,48.9022,175,75
2026-05-09 16:02:20.487,5,2.0,0.46,0.11,15.1242,-143.4782,-213.58520000000001,175,75
2026-05-09 16:02:20.487,3,0.46,-0.88,0.91,-28.767400000000002,-58.2916,-60.3052,175,75
2026-05-09 16:02:20.487,1,0.34,0.83,2.01,346.5508,-44.145199999999996,51.4622,175,75
2026-05-09 16:02:20.514,1,0.35,0.53,2.02,389.3508,-7.9252,54.8722,175,75
2026-05-09 16:02:20.514,3,0.65,-0.9,0.75,-37.177400000000006,-78.36160000000001,-42.4952,175,75
2026-05-09 16:02:20.514,4,0.31,0.46,1.14,-17.586199999999998,-153.5418,22.192800000000002,175,75
2026-05-09 16:02:20.514,2,-0.55,-0.38,0.2,-31.812400000000004,-29.405799999999996,-69.9434,175,75
2026-05-09 16:02:20.514,5,-0.28,0.3,0.52,-7.5458,233.86180000000002,-139.7752,175,75
2026-05-09 16:02:20.538,5,-0.63,0.46,0.37,3.7842,139.0118,-208.4752,175,75
2026-05-09 16:02:20.538,2,-0.57,-0.1,0.12,-35.5324,-56.2358,-87.5734,175,75
2026-05-09 16:02:20.538,4,0.15,0.53,1.04,-20.9362,-117.75179999999999,33.5428,175,75
2026-05-09 16:02:20.538,3,0.99,-0.2,0.41,-15.537400000000002,-95.7916,-2.6251999999999995,175,75
2026-05-09 16:02:20.538,4,-0.05,0.59,1.09,-21.5462,-63.541799999999995,48.6628,175,75
2026-05-09 16:02:20.545,2,-0.48,0.23,0.04,-27.602400000000003,-82.1558,-85.8034,175,75
2026-05-09 16:02:20.545,1,0.43,-0.26,1.49,444.1708,-11.2852,77.9222,175,75
2026-05-09 16:02:20.545,5,0.56,0.92,0.79,40.6542,-76.5382,-91.61519999999999,175,75
2026-05-09 16:02:20.564,5,0.29,0.82,0.73,31.0142,-91.0182,-48.1352,175,75
2026-05-09 16:02:20.564,2,-0.45,0.6,-0.09,-14.6724,-105.5658,-50.4334,175,75
2026-05-09 16:02:20.564,3,0.58,0.18,0.38,36.6626,-106.7716,57.504799999999996,175,75
2026-05-09 16:02:20.564,1,0.36,-0.39,1.4,440.6308,-17.255200000000002,80.4222,175,75
2026-05-09 16:02:20.564,3,0.27,0.01,0.36,80.7426,-63.9716,86.8948,175,75
2026-05-09 16:02:20.564,1,0.38,-0.53,1.49,437.2208,-31.5852,81.5822,175,75
2026-05-09 16:02:20.564,4,0.1,0.67,1.53,-31.1162,49.68820000000001,39.392799999999994,175,75
2026-05-09 16:02:20.568,2,-0.6,0.89,-0.22,-4.312399999999999,-118.31580000000001,-10.8634,175,75
2026-05-09 16:02:20.568,5,0.15,0.46,0.5,36.0142,-97.81819999999999,-11.5052,175,75
2026-05-09 16:02:20.572,3,-0.15,-0.06,0.53,122.9426,8.5984,120.91479999999999,175,75
2026-05-09 16:02:20.572,1,0.29,-0.65,1.64,432.7108,-59.145199999999996,79.6922,175,75
2026-05-09 16:02:20.590,3,-0.72,-0.07,1.1,154.7126,79.6284,152.6248,175,75
2026-05-09 16:02:20.590,1,0.01,-0.67,1.81,423.3808,-125.1852,87.4322,175,75
2026-05-09 16:02:20.598,1,-0.03,-0.86,1.97,403.0108,-191.2252,84.6322,175,75
2026-05-09 16:02:20.599,5,-0.25,0.06,0.28,58.6942,-122.0382,90.90480000000001,175,75
2026-05-09 16:02:20.610,3,-0.33,-0.51,1.84,204.1626,51.7084,171.5248,175,75
2026-05-09 16:02:20.626,1,0.03,-0.93,1.67,342.2808,-368.1152,55.672200000000004,175,75
2026-05-09 16:02:20.626,3,-0.41,0.16,1.38,224.83259999999999,35.9084,188.5948,175,75
2026-05-09 16:02:20.626,5,-0.5,-0.27,-0.58,129.8542,-193.69819999999999,158.3648,175,75
2026-05-09 16:02:20.639,2,-0.36,0.85,-0.09,-44.6724,69.1242,1.1466,175,75
2026-05-09 16:02:20.639,4,0.04,0.8,1.49,-25.0262,-105.73179999999999,-33.1672,175,75
2026-05-09 16:02:20.639,4,-0.03,0.78,1.4,-25.996199999999998,-90.25179999999999,-42.1972,175,75
2026-05-09 16:02:20.639,1,-0.02,-0.99,0.21,308.0108,-272.01520000000005,-10.2478,175,75
2026-05-09 16:02:20.644,3,0.2,-0.21,1.47,177.1526,-32.4416,186.5248,175,75
2026-05-09 16:02:20.655,4,0.14,0.86,1.28,-26.666199999999996,-22.011799999999997,-42.007200000000005,175,75
2026-05-09 16:02:20.655,3,0.56,-0.05,0.96,139.2826,-102.44160000000001,163.41479999999999,175,75
2026-05-09 16:02:20.655,5,0.2,0.17,-1.44,229.3242,-237.5982,215.5548,175,75
