Time,ID,Ax,Ay,Az,Gx,Gy,Gz,H,W
2026-05-09 16:04:24.864,5,-0.04,-0.28,-0.06,25.9962,-21.5518,91.239,175,75
2026-05-09 16:04:24.864,4,0.34,0.44,1.32,-27.788,105.27700000000002,-5.742400000000001,175,75
2026-05-09 16:04:24.864,2,-0.72,0.04,0.21,-7.038600000000002,-183.6186,27.159399999999998,175,75
2026-05-09 16:04:24.864,3,0.5,0.94,0.43,5.3354,-6.6213999999999995,31.0964,175,75
2026-05-09 16:04:24.878,2,-0.8,-0.16,0.08,-0.20860000000000412,-189.8986,42.8394,175,75
2026-05-09 16:04:24.878,3,0.29,0.95,0.14,-10.2746,33.4386,-2.743599999999997,175,75
2026-05-09 16:04:24.878,5,0.44,-0.32,-0.1,11.3062,160.9582,8.199,175,75
2026-05-09 16:04:24.889,1,1.67,2.29,2.97,-95.6686,-73.4928,107.3056,175,75
2026-05-09 16:04:24.889,1,-0.74,-0.33,0.53,14.8214,-15.5728,20.6556,175,75
2026-05-09 16:04:24.902,2,-0.93,-0.85,-0.01,21.381399999999996,-151.96859999999998,81.4294,175,75
2026-05-09 16:04:24.902,5,1.49,-0.25,0.01,-9.1038,246.2982,-36.841,175,75
2026-05-09 16:04:24.902,3,0.24,0.91,0.76,-56.6146,129.7886,-33.5336,175,75
2026-05-09 16:04:24.911,1,-0.23,-0.89,0.72,-36.2186,-12.3328,-5.2644,175,75
2026-05-09 16:04:24.911,3,0.1,0.93,1.03,-69.8546,126.7386,-55.483599999999996,175,75
2026-05-09 16:04:24.912,4,0.81,-0.69,1.52,-20.348,125.827,-10.1324,175,75
2026-05-09 16:04:24.924,5,2.0,-0.72,1.79,-20.983800000000002,246.2982,196.31900000000002,175,75
2026-05-09 16:04:24.924,2,-0.92,-1.48,-0.16,38.09139999999999,-82.4586,134.9094,175,75
2026-05-09 16:04:24.924,1,0.18,-0.98,0.88,-36.5786,18.6972,-10.4444,175,75
2026-05-09 16:04:24.924,4,0.8,-0.76,1.63,-26.817999999999998,123.99700000000001,-22.0224,175,75
2026-05-09 16:04:24.934,5,-0.07,-0.54,2.0,18.1562,141.24820000000003,90.839,175,75
2026-05-09 16:04:24.934,2,-1.11,-1.61,-0.21,46.3214,-56.538599999999995,145.1494,175,75
2026-05-09 16:04:24.934,4,0.81,-0.75,1.8,-43.528,107.40700000000001,-31.5424,175,75
2026-05-09 16:04:24.945,5,0.99,0.09,2.0,0.8862000000000001,8.8282,-14.460999999999999,175,75
2026-05-09 16:04:24.945,1,0.05,-0.71,0.88,-32.3086,-1.7227999999999994,-8.0044,175,75
2026-05-09 16:04:24.945,5,2.0,0.54,2.0,-36.973800000000004,229.53820000000002,-72.381,175,75
2026-05-09 16:04:24.964,5,1.32,0.36,2.0,-61.943799999999996,246.2982,-246.90099999999998,175,75
2026-05-09 16:04:24.964,3,-0.17,1.06,1.21,-92.8346,138.7486,-141.7036,175,75
2026-05-09 16:04:24.964,1,0.32,-0.48,1.04,-30.9086,-11.3028,-6.054399999999999,175,75
2026-05-09 16:04:24.964,5,-0.26,0.46,2.0,-40.7538,246.2982,-246.90099999999998,175,75
2026-05-09 16:04:24.980,5,-1.71,0.42,2.0,-7.6538,196.3082,-70.961,175,75
2026-05-09 16:04:24.980,4,0.76,-0.86,1.83,-46.147999999999996,56.677,-13.672400000000001,175,75
2026-05-09 16:04:24.980,2,-1.36,-1.7,-0.24,52.6014,-33.248599999999996,134.41940000000002,175,75
2026-05-09 16:04:24.980,1,0.06,-0.4,0.49,-17.988599999999998,-23.6128,-4.224399999999999,175,75
2026-05-09 16:04:24.994,5,-2.0,0.63,2.0,-25.933799999999998,102.0582,-140.46099999999998,175,75
2026-05-09 16:04:24.994,2,-1.55,-1.8,-0.26,52.84139999999999,-19.1586,92.6494,175,75
2026-05-09 16:04:25.008,3,0.06,1.29,1.09,-141.00459999999998,69.1786,-173.96359999999999,175,75
2026-05-09 16:04:25.023,3,-0.69,1.05,1.35,-160.94459999999998,15.3286,-174.5736,175,75
2026-05-09 16:04:25.023,1,-0.38,-0.76,0.85,6.7714,4.677199999999999,-11.724400000000001,175,75
2026-05-09 16:04:25.023,3,-1.02,1.06,1.62,-160.94459999999998,25.208599999999997,-174.5136,175,75
2026-05-09 16:04:25.029,4,0.89,-0.36,1.73,-60.598,6.376999999999995,7.487599999999999,175,75
2026-05-09 16:04:25.044,5,0.17,-0.35,1.96,-10.5338,-176.2918,253.369,175,75
2026-05-09 16:04:25.044,3,-8.08,3.95,5.32,36.3054,263.5686,232.4964,175,75
2026-05-09 16:04:25.049,2,-0.57,-0.9,0.43,50.1014,56.571400000000004,-64.1806,175,75
2026-05-09 16:04:25.049,4,0.58,0.04,1.85,-57.608000000000004,-9.053000000000004,0.9575999999999993,175,75
2026-05-09 16:04:25.078,4,0.58,0.3,1.88,-58.528000000000006,-25.763000000000005,-15.9924,175,75
2026-05-09 16:04:25.078,5,1.51,-1.2,0.87,-43.1038,-253.97179999999997,253.369,175,75
2026-05-09 16:04:25.078,4,0.63,0.55,1.81,-58.528000000000006,-49.173,-14.6524,175,75
2026-05-09 16:04:25.089,4,0.56,0.68,1.66,-51.147999999999996,-60.273,-3.4924000000000017,175,75
2026-05-09 16:04:25.089,1,-0.35,-0.58,2.75,-39.568599999999996,133.1472,14.0656,175,75
2026-05-09 16:04:25.089,3,3.1,-0.37,-0.19,-365.0346,-672.9614,-199.2036,175,75
2026-05-09 16:04:25.089,4,0.4,0.66,1.49,-37.178,-46.613,8.527599999999998,175,75
2026-05-09 16:04:25.089,1,-0.22,-0.51,3.05,-56.2186,128.9472,10.2256,175,75
2026-05-09 16:04:25.100,3,0.09,1.22,-1.55,-379.0546,-387.65139999999997,60.91640000000001,175,75
2026-05-09 16:04:25.100,5,1.06,-2.0,-0.47,-71.4238,-147.0518,87.709,175,75
2026-05-09 16:04:25.100,2,-0.53,0.79,0.12,23.701399999999996,22.2414,14.3594,175,75
2026-05-09 16:04:25.100,1,0.35,-0.22,2.82,-79.4486,44.307199999999995,11.9956,175,75
2026-05-09 16:04:25.113,5,-0.53,-1.45,0.0,-15.783800000000001,-4.9618,-125.561,175,75
2026-05-09 16:04:25.113,4,0.11,0.56,1.55,-37.238,28.32699999999999,23.647599999999997,175,75
2026-05-09 16:04:25.123,2,-0.08,-0.1,0.35,9.731399999999997,36.8114,58.0194,175,75
2026-05-09 16:04:25.123,2,-0.82,-0.03,0.37,-8.738600000000005,30.101399999999998,13.3794,175,75
2026-05-09 16:04:25.134,5,-1.16,-0.25,0.23,37.0762,22.118199999999998,-246.90099999999998,175,75
2026-05-09 16:04:25.134,1,-0.47,0.42,-0.41,-141.3386,-66.9128,19.735599999999998,175,75
2026-05-09 16:04:25.134,3,1.2,-1.66,2.5,140.1454,395.8786,-123.41359999999999,175,75
2026-05-09 16:04:25.134,4,0.3,0.83,1.82,-42.488,42.836999999999996,5.897599999999999,175,75
2026-05-09 16:04:25.134,2,-1.18,0.31,0.26,-14.8386,70.2314,-41.4306,175,75
2026-05-09 16:04:25.144,5,-0.64,0.24,0.22,29.096200000000003,14.3282,-246.90099999999998,175,75
2026-05-09 16:04:25.144,3,2.37,-0.4,2.89,70.33539999999999,165.9386,-85.7936,175,75
2026-05-09 16:04:25.144,4,0.36,0.94,1.9,-31.818,9.236999999999995,-0.07240000000000002,175,75
2026-05-09 16:04:25.144,1,0.23,0.63,3.5,-78.5986,114.0672,-9.774399999999998,175,75
2026-05-09 16:04:25.144,2,-1.0,0.6,0.23,-1.428600000000003,84.55139999999999,-101.1906,175,75
2026-05-09 16:04:25.144,5,-0.42,0.67,0.18,2.0262000000000002,21.0182,-246.90099999999998,175,75
2026-05-09 16:04:25.151,4,0.3,0.9,1.87,-10.108,-38.443000000000005,-7.272400000000001,175,75
2026-05-09 16:04:25.164,5,0.3,1.13,-0.25,-55.9938,29.9882,-246.90099999999998,175,75
2026-05-09 16:04:25.164,3,0.42,-0.47,0.64,64.6654,-10.0914,30.3064,175,75
2026-05-09 16:04:25.174,5,2.0,1.08,-0.98,-72.0338,65.5182,-246.90099999999998,175,75
2026-05-09 16:04:25.174,4,0.19,0.61,1.72,12.762,-70.093,-9.8324,175,75
2026-05-09 16:04:25.174,3,0.28,-0.46,0.34,101.97540000000001,45.0886,26.5864,175,75
2026-05-09 16:04:25.174,1,0.81,2.68,3.28,136.9514,-123.3128,5.2256,175,75
2026-05-09 16:04:25.174,4,0.11,0.39,1.59,23.362,-78.93299999999999,-9.9524,175,75
2026-05-09 16:04:25.184,5,1.54,1.5,-0.98,-77.2638,105.2182,-203.90099999999998,175,75
2026-05-09 16:04:25.184,3,0.88,-0.75,0.72,123.80540000000002,97.0986,41.766400000000004,175,75
2026-05-09 16:04:25.184,2,-0.48,0.77,0.26,49.8514,105.2914,63.0794,175,75
2026-05-09 16:04:25.184,1,0.47,2.72,2.96,218.29139999999998,-72.6428,19.925600000000003,175,75
2026-05-09 16:04:25.184,5,-0.02,1.13,-0.54,-97.2838,74.23819999999999,-129.981,175,75
2026-05-09 16:04:25.200,4,-0.01,0.07,1.33,31.232000000000003,-72.713,-17.5124,175,75
2026-05-09 16:04:25.200,3,0.99,-0.69,0.66,121.55540000000002,29.848599999999998,61.52640000000001,175,75
2026-05-09 16:04:25.200,5,-0.49,0.98,-0.23,-120.27380000000001,22.958199999999998,-135.071,175,75
2026-05-09 16:04:25.200,1,0.29,1.63,3.02,287.8714,-94.2928,49.1956,175,75
2026-05-09 16:04:25.210,2,0.18,-0.13,0.55,20.951399999999996,-97.8186,87.9594,175,75
2026-05-09 16:04:25.210,3,0.68,-0.63,0.45,131.30540000000002,25.458599999999997,78.2364,175,75
2026-05-09 16:04:25.210,1,0.07,0.92,2.79,333.6614,-108.4328,60.4756,175,75
2026-05-09 16:04:25.249,4,0.3,0.3,1.45,8.431999999999999,48.877,-42.5124,175,75
2026-05-09 16:04:25.249,2,-0.69,0.06,0.04,8.451399999999996,-127.63860000000001,-37.1006,175,75
2026-05-09 16:04:25.249,2,-0.79,0.34,-0.06,16.8114,-116.72860000000001,-51.9206,175,75
2026-05-09 16:04:25.249,1,-1.56,0.45,-5.46,500.25140000000005,-840.0828,172.2356,175,75
2026-05-09 16:04:25.249,5,0.05,-0.06,0.29,-5.3138000000000005,54.3582,140.09900000000002,175,75
2026-05-09 16:04:25.249,4,0.62,0.42,1.78,5.562000000000001,107.537,-39.7124,175,75
2026-05-09 16:04:25.261,2,-0.95,0.55,-0.11,29.791399999999996,-83.18860000000001,-30.640600000000003,175,75
2026-05-09 16:04:25.261,1,-2.04,-8.62,-14.28,4.8814,-437.4628,79.0056,175,75
2026-05-09 16:04:25.261,5,-0.06,-0.08,0.29,34.4162,32.6682,214.679,175,75
2026-05-09 16:04:25.261,3,0.1,-0.52,1.1,128.1954,-5.7614,128.9664,175,75
2026-05-09 16:04:25.261,4,0.62,0.25,1.9,9.772000000000002,114.977,-46.9624,175,75
2026-05-09 16:04:25.274,5,-0.03,-0.04,0.36,65.9662,-0.9718,253.369,175,75
2026-05-09 16:04:25.274,2,-1.13,0.36,-0.21,39.0014,-57.638600000000004,8.079400000000001,175,75
2026-05-09 16:04:25.274,1,-3.94,0.44,-9.48,-183.8386,873.2072,-170.2644,175,75
2026-05-09 16:04:25.274,4,0.63,0.01,1.92,12.882000000000001,133.507,-47.882400000000004,175,75
2026-05-09 16:04:25.274,3,-0.37,-0.34,0.77,81.43539999999999,-24.001399999999997,121.03640000000001,175,75
2026-05-09 16:04:25.274,5,0.15,-0.04,0.48,82.11619999999999,-39.2018,253.369,175,75
2026-05-09 16:04:25.285,2,-1.21,-0.11,-0.2,29.431399999999996,-59.528600000000004,49.7294,175,75
2026-05-09 16:04:25.285,1,5.35,0.09,4.05,-87.43860000000001,1195.5872,-133.4944,175,75
2026-05-09 16:04:25.285,4,0.78,-0.5,1.92,23.302000000000003,149.727,-45.562400000000004,175,75
2026-05-09 16:04:25.285,3,-0.36,-0.03,0.39,52.9554,5.028600000000001,85.60640000000001,175,75
2026-05-09 16:04:25.285,5,0.49,0.07,0.59,81.0362,-67.4018,253.369,175,75
2026-05-09 16:04:25.296,2,-0.88,-0.7,-0.19,5.521399999999996,-70.80860000000001,108.6294,175,75
2026-05-09 16:04:25.296,3,0.02,0.28,0.26,47.4654,15.3286,47.55640000000001,175,75
2026-05-09 16:04:25.296,4,0.82,-0.85,2.02,33.732,146.737,-40.5024,175,75
2026-05-09 16:04:25.296,1,0.36,2.24,1.27,-68.2286,-79.83279999999999,-25.074399999999997,175,75
2026-05-09 16:04:25.307,2,-0.87,-1.34,-0.23,-14.288600000000002,-46.9086,125.2694,175,75
2026-05-09 16:04:25.307,5,1.16,-0.36,1.18,6.5062,-92.7218,253.369,175,75
2026-05-09 16:04:25.307,4,0.7,-1.03,2.21,47.882000000000005,129.237,-42.452400000000004,175,75
2026-05-09 16:04:25.307,2,-1.25,-1.6,-0.36,-19.898600000000002,21.4514,159.29940000000002,175,75
2026-05-09 16:04:25.320,3,-0.17,0.71,1.05,7.895400000000002,61.1886,87.2564,175,75
2026-05-09 16:04:25.320,1,-0.93,-0.2,0.45,-5.2986,-72.4028,38.9456,175,75
2026-05-09 16:04:25.334,5,0.8,-1.72,2.0,-15.2338,70.9782,-154.111,175,75
2026-05-09 16:04:25.334,3,0.34,0.22,0.63,-20.9446,-46.3714,49.99640000000001,175,75
2026-05-09 16:04:25.334,1,-0.13,-1.15,-0.19,-10.9086,-0.3827999999999996,18.5256,175,75
2026-05-09 16:04:25.334,2,-1.84,-1.54,-0.48,24.001399999999997,190.2314,161.91940000000002,175,75
2026-05-09 16:04:25.334,3,0.44,0.13,0.26,-69.0546,-75.8914,25.9164,175,75
2026-05-09 16:04:25.344,5,0.99,-0.51,1.91,-45.8538,109.5782,-246.90099999999998,175,75
2026-05-09 16:04:25.344,1,0.07,-1.64,-0.34,6.0414,47.667199999999994,-15.564400000000001,175,75
2026-05-09 16:04:25.344,3,0.58,0.21,-0.01,-107.59459999999999,-75.0314,13.906400000000001,175,75
2026-05-09 16:04:25.344,5,2.0,-0.37,2.0,-76.6638,246.2982,-246.90099999999998,175,75
2026-05-09 16:04:25.356,2,-1.83,-1.21,-0.16,80.28139999999999,249.3714,97.0994,175,75
2026-05-09 16:04:25.356,1,0.51,-0.91,0.66,40.3714,56.6272,-20.014400000000002,175,75
2026-05-09 16:04:25.356,2,-1.36,-0.97,0.28,121.20139999999999,210.47140000000002,27.159399999999998,175,75
2026-05-09 16:04:25.356,3,0.53,0.28,-0.03,-144.3046,-43.8114,-14.263599999999997,175,75
2026-05-09 16:04:25.356,5,2.0,-0.21,2.0,-156.5638,246.2982,-110.651,175,75
2026-05-09 16:04:25.365,5,0.25,-0.35,2.0,-153.69379999999998,246.2982,63.028999999999996,175,75
2026-05-09 16:04:25.378,1,-0.24,-0.8,1.05,72.9914,43.1472,6.6356,175,75
2026-05-09 16:04:25.378,5,-1.47,-0.69,2.0,-73.49380000000001,216.1182,33.199,175,75
2026-05-09 16:04:25.378,3,0.55,0.33,0.47,-195.94459999999998,-36.501400000000004,-66.5836,175,75
2026-05-09 16:04:25.378,2,-0.66,-0.91,0.75,66.1314,-15.2586,-17.1006,175,75
2026-05-09 16:04:25.392,1,-0.11,-0.99,0.98,84.51140000000001,51.3772,23.035600000000002,175,75
2026-05-09 16:04:25.392,5,-2.0,-0.44,2.0,-33.613800000000005,108.0882,-50.811,175,75
2026-05-09 16:04:25.392,4,0.11,0.06,1.54,93.61200000000001,-94.72300000000001,1.9975999999999985,175,75
2026-05-09 16:04:25.392,3,0.49,0.23,0.62,-228.50459999999998,-48.8114,-95.30359999999999,175,75
2026-05-09 16:04:25.392,2,-0.49,-0.97,0.74,-10.448600000000006,-113.85860000000001,1.7994,175,75
2026-05-09 16:04:25.408,2,-0.43,-0.9,0.72,-85.2686,-166.65859999999998,33.4494,175,75
2026-05-09 16:04:25.408,4,-0.08,0.32,1.35,72.272,-113.38300000000001,1.6975999999999996,175,75
2026-05-09 16:04:25.408,1,0.29,-1.1,1.49,101.8914,120.03720000000001,31.025599999999997,175,75
2026-05-09 16:04:25.428,3,0.2,-0.22,1.21,-273.2046,-28.0214,-142.6236,175,75
2026-05-09 16:04:25.428,5,-0.67,-0.11,1.3,45.026199999999996,-253.97179999999997,-105.481,175,75
2026-05-09 16:04:25.444,5,0.15,-0.01,0.95,68.5262,-253.97179999999997,-65.33099999999999,175,75
2026-05-09 16:04:25.444,1,-0.07,0.23,2.32,-16.3986,158.2072,-29.894399999999997,175,75
2026-05-09 16:04:25.444,3,0.06,-0.45,1.46,-273.50460000000004,-64.9714,-178.7836,175,75
2026-05-09 16:04:25.444,5,1.01,0.16,0.44,86.0162,-253.97179999999997,-18.051,175,75
2026-05-09 16:04:25.464,5,2.0,0.07,-0.22,109.4462,-253.97179999999997,89.299,175,75
2026-05-09 16:04:25.464,4,-0.11,0.8,0.78,39.772000000000006,-30.573000000000004,32.6676,175,75
2026-05-09 16:04:25.476,3,0.21,-0.57,1.36,-229.1746,-60.281400000000005,-172.2536,175,75
2026-05-09 16:04:25.476,2,0.03,1.37,0.46,47.0514,115.1014,-3.6306000000000003,175,75
2026-05-09 16:04:25.476,4,-0.17,0.68,0.83,16.542,77.59700000000001,35.7176,175,75
2026-05-09 16:04:25.489,3,0.41,-0.44,1.56,-198.3246,-12.2914,-164.6336,175,75
2026-05-09 16:04:25.489,1,-0.42,-1.37,-0.96,-393.5986,-3.3127999999999993,-47.0244,175,75
2026-05-09 16:04:25.489,4,-0.11,0.62,0.83,5.862000000000002,116.37700000000001,31.6376,175,75
2026-05-09 16:04:25.489,2,-0.93,1.29,0.52,35.4614,148.03140000000002,54.419399999999996,175,75
2026-05-09 16:04:25.489,5,0.02,0.03,-1.25,207.9462,-10.0618,180.25900000000001,175,75
2026-05-09 16:04:25.489,4,-0.03,0.55,0.83,-0.47799999999999976,147.83700000000002,22.427599999999998,175,75
2026-05-09 16:04:25.489,3,0.37,-0.07,1.89,-153.69459999999998,-44.4814,-161.2236,175,75
2026-05-09 16:04:25.504,5,-1.15,0.09,-1.16,198.4762,-10.5218,29.029,175,75
2026-05-09 16:04:25.504,1,-0.38,-2.96,-0.34,-494.3886,74.3672,-73.9744,175,75
2026-05-09 16:04:25.504,4,0.07,0.48,0.86,-3.097999999999999,179.907,12.487599999999999,175,75
2026-05-09 16:04:25.504,3,0.28,0.67,1.88,-96.1346,-28.571399999999997,-157.3136,175,75
2026-05-09 16:04:25.504,2,-0.49,0.5,0.44,-35.5086,86.81139999999999,56.4294,175,75
2026-05-09 16:04:25.516,5,-1.59,0.13,-0.97,172.8562,-84.2318,-109.851,175,75
2026-05-09 16:04:25.516,1,-0.24,-2.17,0.88,-529.4485999999999,37.417199999999994,-88.0044,175,75
2026-05-09 16:04:25.517,2,-1.15,0.58,0.32,-43.6786,131.8114,36.0094,175,75
2026-05-09 16:04:25.517,5,-1.33,0.11,-0.99,142.70620000000002,-156.2018,-198.161,175,75
2026-05-09 16:04:25.517,3,-1.64,1.72,2.2,-57.5946,11.188600000000001,-46.1536,175,75
2026-05-09 16:04:25.532,4,0.32,0.56,1.16,-6.207999999999999,240.58700000000002,-4.522400000000001,175,75
2026-05-09 16:04:25.532,5,-0.65,0.18,-1.16,112.1262,-204.02179999999998,-226.361,175,75
2026-05-09 16:04:25.532,1,-0.29,-2.14,1.41,-542.1286,-0.7528000000000006,-28.5544,175,75
2026-05-09 16:04:25.532,1,-0.27,-1.52,0.43,-505.29859999999996,-64.1628,-27.334399999999995,175,75
2026-05-09 16:04:25.541,5,0.22,0.31,-1.23,79.5162,-193.7918,-188.40099999999998,175,75
2026-05-09 16:04:25.542,4,0.54,0.46,1.47,-1.2080000000000002,246.617,-9.0424,175,75
2026-05-09 16:04:25.542,1,-0.27,-0.36,0.41,-474.3886,44.6772,-35.1344,175,75
2026-05-09 16:04:25.542,2,-1.28,0.29,0.25,4.611399999999996,313.58140000000003,13.8694,175,75
2026-05-09 16:04:25.554,5,0.33,0.49,-0.88,26.556199999999997,-138.52179999999998,-124.64099999999999,175,75
2026-05-09 16:04:25.554,3,-0.34,0.75,4.41,427.8354,390.6386,12.686400000000003,175,75
2026-05-09 16:04:25.554,4,0.56,0.24,1.6,6.902000000000001,223.99699999999999,-12.082400000000002,175,75
2026-05-09 16:04:25.554,2,-1.21,-0.01,0.43,4.911399999999997,350.8414,35.5794,175,75
2026-05-09 16:04:25.564,5,0.15,0.46,-0.53,-38.8738,-79.62180000000001,-74.441,175,75
2026-05-09 16:04:25.564,3,5.1,-2.08,0.4,171.0054,-123.2614,127.7464,175,75
2026-05-09 16:04:25.564,4,0.57,0.02,1.73,6.052,208.937,-22.1524,175,75
2026-05-09 16:04:25.564,1,0.28,0.25,1.23,-429.74859999999995,71.80720000000001,-17.764400000000002,175,75
2026-05-09 16:04:25.565,5,0.39,0.48,-0.5,-89.6538,1.0282000000000004,-48.511,175,75
2026-05-09 16:04:25.576,2,-0.83,-0.41,0.6,0.4013999999999953,340.4714,63.8694,175,75
2026-05-09 16:04:25.576,3,-2.9,0.25,-0.03,-0.8245999999999993,-302.1114,338.2964,175,75
2026-05-09 16:04:25.576,4,0.67,-0.18,1.91,-2.7880000000000003,198.017,-26.0524,175,75
2026-05-09 16:04:25.576,2,-0.3,-0.75,0.64,9.371399999999998,248.7014,92.1594,175,75
2026-05-09 16:04:25.576,5,0.94,0.53,-0.73,-113.77380000000001,123.1882,-30.601000000000003,175,75
2026-05-09 16:04:25.576,1,0.32,-0.23,1.07,-409.0786,87.2972,-20.934399999999997,175,75
2026-05-09 16:04:25.579,3,-3.72,-1.18,-0.26,69.3554,157.2886,276.95640000000003,175,75
2026-05-09 16:04:25.593,1,0.3,-0.32,1.36,-385.05859999999996,93.5172,-29.834399999999995,175,75
2026-05-09 16:04:25.593,5,1.41,0.5,-0.91,-107.74380000000001,246.2982,2.649,175,75
2026-05-09 16:04:25.593,2,-0.29,-1.11,0.67,6.5613999999999955,49.071400000000004,141.97940000000003,175,75
2026-05-09 16:04:25.593,4,0.76,-0.32,2.09,-9.068,168.997,-28.1224,175,75
2026-05-09 16:04:25.593,3,-0.47,-2.19,0.66,140.5154,260.4586,-8.963599999999998,175,75
2026-05-09 16:04:25.593,1,0.19,-0.36,1.58,-357.1286,72.1172,-25.014400000000002,175,75
2026-05-09 16:04:25.601,5,2.0,0.62,-0.66,-98.1838,246.2982,56.059,175,75
2026-05-09 16:04:25.601,2,-0.37,-1.4,0.44,21.931399999999996,-108.0086,199.23940000000002,175,75
2026-05-09 16:04:25.601,3,0.04,-1.5,2.22,175.21540000000002,60.5186,-151.15359999999998,175,75
2026-05-09 16:04:25.615,5,2.0,1.01,-0.14,-122.7638,246.2982,151.429,175,75
2026-05-09 16:04:25.615,1,0.05,-0.19,1.85,-314.68859999999995,55.8972,-18.7344,175,75
2026-05-09 16:04:25.615,4,0.91,-0.39,2.47,-14.437999999999999,110.517,-48.7924,175,75
2026-05-09 16:04:25.615,5,2.0,1.12,0.95,-188.8138,246.2982,204.769,175,75
2026-05-09 16:04:25.628,1,0.47,0.47,2.11,-292.67859999999996,45.8972,-13.8544,175,75
2026-05-09 16:04:25.628,5,-0.52,-0.48,2.0,-163.9038,-27.0718,100.799,175,75
2026-05-09 16:04:25.628,3,0.34,-1.07,2.81,65.6354,-153.32139999999998,153.9664,175,75
2026-05-09 16:04:25.639,1,0.88,0.73,2.19,-251.76860000000002,10.5872,6.9356,175,75
2026-05-09 16:04:25.639,5,2.0,-0.25,2.0,-180.19379999999998,-172.8818,-4.841,175,75
2026-05-09 16:04:25.639,3,-0.25,-0.38,1.15,57.715399999999995,-128.32139999999998,106.0364,175,75
2026-05-09 16:04:25.649,5,2.0,-0.84,2.0,-179.3038,246.2982,7.8389999999999995,175,75
2026-05-09 16:04:25.656,5,1.19,-1.22,1.96,-146.44379999999998,246.2982,15.709,175,75
2026-05-09 16:04:25.671,2,-0.76,-1.37,-1.08,54.371399999999994,-284.0386,-142.04059999999998,175,75
2026-05-09 16:04:25.671,3,-0.82,0.43,0.88,75.9454,29.2986,69.99640000000001,175,75
2026-05-09 16:04:25.685,1,0.46,2.08,2.44,13.901399999999999,-52.702799999999996,8.0356,175,75
2026-05-09 16:04:25.685,4,0.33,-0.93,2.14,41.602000000000004,-118.19300000000001,-56.9024,175,75
2026-05-09 16:04:25.704,5,-2.0,-0.98,2.0,86.75619999999999,-163.6118,-122.801,175,75
2026-05-09 16:04:25.719,4,0.42,-0.33,2.22,-13.398,-106.983,-14.2224,175,75
2026-05-09 16:04:25.719,3,-0.21,-1.33,1.2,-0.5846,-66.3114,-18.8436,175,75
2026-05-09 16:04:25.726,5,0.48,0.36,1.8,84.4362,-253.97179999999997,-246.90099999999998,175,75
2026-05-09 16:04:25.740,2,-0.48,-0.72,-0.31,86.6214,240.53140000000002,-34.4206,175,75
2026-05-09 16:04:25.740,4,0.15,-0.31,2.15,-8.648,-227.403,-28.1224,175,75
2026-05-09 16:04:25.740,1,0.45,1.4,1.75,275.00140000000005,-43.3728,41.0856,175,75
2026-05-09 16:04:25.740,5,0.93,0.65,1.39,85.1362,-253.97179999999997,-246.90099999999998,175,75
2026-05-09 16:04:25.740,3,0.24,-1.28,0.76,13.075400000000002,-96.4314,-38.593599999999995,175,75
2026-05-09 16:04:25.754,5,1.79,0.93,1.01,69.1462,-253.97179999999997,-246.90099999999998,175,75
2026-05-09 16:04:25.754,2,-0.33,-0.6,-0.15,91.7414,224.3714,-41.0706,175,75
2026-05-09 16:04:25.754,4,0.06,-0.17,1.94,-14.258,-285.943,-38.9724,175,75
2026-05-09 16:04:25.764,5,2.0,1.12,0.41,10.0962,-1.6218,23.869,175,75
2026-05-09 16:04:25.779,2,-0.33,-0.35,0.06,99.6114,85.2314,-59.5406,175,75
2026-05-09 16:04:25.779,1,0.34,0.66,1.96,386.2214,30.957199999999997,50.345600000000005,175,75
2026-05-09 16:04:25.779,4,-0.19,0.22,1.11,-15.597999999999999,-292.403,-48.062400000000004,175,75
2026-05-09 16:04:25.779,1,0.35,0.48,1.98,414.88140000000004,41.6272,55.1056,175,75
2026-05-09 16:04:25.779,3,1.04,-1.29,-0.11,29.605400000000003,-121.8014,15.7364,175,75
2026-05-09 16:04:25.791,4,-0.26,0.35,0.97,-13.888,-247.713,-43.1224,175,75
2026-05-09 16:04:25.791,5,0.27,0.96,0.38,-49.8438,128.27820000000003,52.038999999999994,175,75
2026-05-09 16:04:25.791,2,-0.37,-0.33,0.15,74.9114,29.0114,-78.0806,175,75
2026-05-09 16:04:25.791,1,0.34,0.36,2.03,432.08140000000003,41.2572,60.2856,175,75
2026-05-09 16:04:25.795,4,-0.32,0.51,0.97,-17.238,-181.003,-23.7324,175,75
2026-05-09 16:04:25.795,5,0.06,0.8,0.29,-60.653800000000004,104.6882,11.259,175,75
2026-05-09 16:04:25.809,3,0.98,-0.76,-0.45,93.4454,-81.0714,49.8164,175,75
2026-05-09 16:04:25.809,5,0.12,0.68,0.2,-46.8138,50.1682,-3.521,175,75
2026-05-09 16:04:25.809,1,0.17,0.12,2.05,453.6014,-2.4627999999999997,76.0856,175,75
2026-05-09 16:04:25.818,2,-0.21,-0.1,0.31,-5.6886000000000045,21.571399999999997,-83.81060000000001,175,75
2026-05-09 16:04:25.818,5,0.27,0.56,0.19,-10.2938,-15.0718,8.299,175,75
2026-05-09 16:04:25.838,1,0.3,-0.32,1.95,452.14140000000003,-67.4028,84.98559999999999,175,75
2026-05-09 16:04:25.838,3,0.86,-1.04,0.33,146.7354,15.6386,104.8764,175,75
2026-05-09 16:04:25.838,2,-0.41,0.48,0.33,5.461399999999998,12.9714,-100.3406,175,75
2026-05-09 16:04:25.848,1,0.11,-0.48,1.82,443.4814,-109.5328,81.6356,175,75
2026-05-09 16:04:25.848,4,-0.2,0.88,1.21,-23.887999999999998,-56.793000000000006,-3.9124000000000017,175,75
2026-05-09 16:04:25.869,2,-0.41,1.02,0.41,31.071399999999997,7.731399999999999,-112.3506,175,75
2026-05-09 16:04:25.870,4,-0.13,1.12,1.14,-36.448,-24.723000000000003,-11.7224,175,75
2026-05-09 16:04:25.870,1,0.12,-0.88,1.74,424.39140000000003,-211.6628,59.735600000000005,175,75
2026-05-09 16:04:25.870,5,-0.08,0.04,0.25,32.4662,-65.7818,49.589,175,75
2026-05-09 16:04:25.870,2,-0.43,1.29,0.41,26.201399999999996,-13.068600000000002,-85.6406,175,75
2026-05-09 16:04:25.881,4,-0.11,1.17,1.14,-33.338,9.177,-0.8624000000000009,175,75
2026-05-09 16:04:25.881,5,-0.11,-0.04,0.14,32.0562,-76.1018,68.379,175,75
2026-05-09 16:04:25.881,2,-0.64,1.12,0.51,12.541399999999998,-58.1886,-54.9106,175,75
2026-05-09 16:04:25.892,1,-0.13,-1.3,1.36,391.3414,-275.44280000000003,34.4956,175,75
2026-05-09 16:04:25.892,3,0.57,0.07,0.95,190.6354,-29.541400000000003,114.0864,175,75
2026-05-09 16:04:25.892,5,-0.16,-0.11,-0.01,38.7662,-93.9818,93.569,175,75
2026-05-09 16:04:25.892,2,-0.66,0.92,0.38,0.7713999999999963,-105.8686,-37.5906,175,75
2026-05-09 16:04:25.892,4,-0.15,0.97,1.24,-26.028,55.457,15.957599999999998,175,75
2026-05-09 16:04:25.892,3,-0.78,0.45,1.58,184.7254,60.0886,154.2664,175,75
2026-05-09 16:04:25.908,2,-0.72,0.62,0.39,-21.9086,-145.1386,-15.3406,175,75
2026-05-09 16:04:25.908,4,-0.15,0.85,1.37,-28.038,77.71699999999998,15.6576,175,75
2026-05-09 16:04:25.908,5,-0.27,-0.28,-0.46,77.2162,-155.0718,146.419,175,75
2026-05-09 16:04:25.908,1,0.14,-1.18,0.58,336.0414,-349.7728,5.8356,175,75
2026-05-09 16:04:25.908,3,0.04,0.25,1.63,139.8454,37.038599999999995,161.8264,175,75
2026-05-09 16:04:25.919,2,-0.77,0.47,0.38,-37.888600000000004,-163.1286,-2.8406000000000002,175,75
2026-05-09 16:04:25.919,4,-0.1,0.79,1.48,-32.308,89.84700000000001,11.2676,175,75
2026-05-09 16:04:25.919,5,-0.24,-0.44,-0.66,106.7062,-174.90179999999998,147.149,175,75
2026-05-09 16:04:25.919,1,-0.32,-1.06,-0.29,314.58140000000003,-346.30280000000005,-0.6844000000000001,175,75
2026-05-09 16:04:25.919,3,0.4,-0.02,1.3,107.22540000000001,-68.0814,155.9764,175,75
2026-05-09 16:04:25.930,2,-0.94,0.38,0.36,-45.93860000000001,-155.9286,-10.5206,175,75
2026-05-09 16:04:25.930,4,-0.01,0.78,1.62,-37.178,97.107,2.4875999999999987,175,75
2026-05-09 16:04:25.930,3,0.44,0.1,0.65,78.74539999999999,-120.9514,137.2564,175,75
2026-05-09 16:04:25.944,5,-0.07,-0.07,-1.27,147.9162,-169.1318,75.63900000000001,175,75
2026-05-09 16:04:25.944,2,-1.01,0.42,0.3,-35.448600000000006,-114.7686,-36.010600000000004,175,75
2026-05-09 16:04:25.944,4,0.23,0.76,1.79,-37.848,85.707,-6.662400000000001,175,75
2026-05-09 16:04:25.944,3,0.75,0.35,0.24,45.5154,-91.37140000000001,115.3664,175,75
2026-05-09 16:04:25.944,5,-0.1,0.02,-1.13,140.02620000000002,-157.18179999999998,46.379,175,75
2026-05-09 16:04:25.948,3,0.99,0.5,0.2,25.3354,-71.0114,116.15640000000002,175,75
2026-05-09 16:04:25.969,1,-0.25,0.56,-3.24,283.1114,-297.88280000000003,30.415599999999998,175,75
2026-05-09 16:04:25.969,2,-0.63,0.61,0.29,0.4613999999999976,-77.02860000000001,-37.0406,175,75
2026-05-09 16:04:25.969,4,0.61,0.54,2.02,-21.817999999999998,15.396999999999998,-37.452400000000004,175,75
2026-05-09 16:04:25.982,2,-0.59,0.56,0.32,11.381399999999998,-90.5686,-17.840600000000002,175,75
2026-05-09 16:04:25.982,5,0.0,-0.07,-0.11,47.2462,-66.0318,81.57900000000001,175,75
2026-05-09 16:04:25.982,1,-1.05,-5.05,-7.5,-480.17859999999996,34.0072,123.3956,175,75
2026-05-09 16:04:25.982,2,-0.61,0.32,0.35,15.101399999999996,-124.4686,1.0093999999999999,175,75
2026-05-09 16:04:25.982,4,0.67,0.33,1.96,-5.287999999999999,-24.603,-56.5424,175,75
2026-05-09 16:04:25.985,5,0.27,-0.15,-0.21,19.6062,26.4682,41.928999999999995,175,75
2026-05-09 16:04:26.003,3,0.35,0.92,0.37,-49.3046,41.7386,42.49640000000001,175,75
2026-05-09 16:04:26.010,5,1.1,-0.36,-0.52,0.8962000000000003,246.2982,-48.841,175,75
2026-05-09 16:04:26.010,2,-0.6,-0.57,0.28,-6.608600000000003,-265.9886,50.8194,175,75
2026-05-09 16:04:26.023,5,2.0,-0.63,-0.49,12.7462,246.2982,-55.671,175,75
2026-05-09 16:04:26.023,2,-0.75,-1.55,0.09,-32.8286,-328.4286,142.1594,175,75
2026-05-09 16:04:26.035,5,2.0,-2.0,0.09,116.2862,246.2982,-41.491,175,75
2026-05-09 16:04:26.035,1,0.97,-1.46,1.09,-89.5086,-52.1528,-6.234399999999999,175,75
2026-05-09 16:04:26.035,4,0.25,-0.59,1.44,-6.327999999999999,-96.553,-7.692400000000001,175,75
2026-05-09 16:04:26.035,3,-0.07,0.87,0.92,-132.7746,33.568599999999996,-49.693599999999996,175,75
2026-05-09 16:04:26.035,1,1.39,-1.3,0.03,-136.2786,19.8572,32.8456,175,75
2026-05-09 16:04:26.059,5,1.57,-1.33,2.0,89.5862,246.2982,253.369,175,75
2026-05-09 16:04:26.059,2,-1.23,-1.97,-0.22,-34.598600000000005,-260.7486,163.5694,175,75
2026-05-09 16:04:26.059,4,0.3,-0.74,1.34,-6.148,-23.873000000000005,-3.9724000000000004,175,75
2026-05-09 16:04:26.059,5,-0.96,-0.43,2.0,148.33620000000002,149.50820000000002,78.679,175,75
2026-05-09 16:04:26.081,3,0.03,0.91,0.76,-127.8346,79.4186,-139.5736,175,75
2026-05-09 16:04:26.081,1,-0.23,0.67,0.24,-89.3286,-18.552799999999998,54.4356,175,75
2026-05-09 16:04:26.081,5,0.68,0.86,2.0,1.8462,246.2982,-246.90099999999998,175,75
2026-05-09 16:04:26.081,4,1.04,-0.88,1.85,-13.458,76.80699999999999,42.6676,175,75
2026-05-09 16:04:26.088,2,-1.99,-1.91,-0.45,14.431399999999996,21.2614,-60.0906,175,75
2026-05-09 16:04:26.088,5,-1.41,1.07,2.0,-81.0338,246.2982,-246.90099999999998,175,75
2026-05-09 16:04:26.088,4,1.18,-0.98,2.02,-14.868,81.37700000000001,59.92759999999999,175,75
2026-05-09 16:04:26.088,1,-0.24,0.35,0.43,-52.1286,-20.5728,6.7556,175,75
2026-05-09 16:04:26.100,4,1.33,-1.09,2.18,-11.508,61.806999999999995,67.6076,175,75
2026-05-09 16:04:26.100,3,0.24,1.61,0.98,-190.03459999999998,103.9286,-186.2236,175,75
2026-05-09 16:04:26.100,4,1.34,-1.11,2.27,-8.828,9.177,58.03759999999999,175,75
2026-05-09 16:04:26.109,2,-1.29,-1.4,-0.05,47.1714,-14.408600000000002,-117.1606,175,75
2026-05-09 16:04:26.109,1,-0.41,-0.19,0.3,-24.2086,19.9172,-11.3544,175,75
2026-05-09 16:04:26.109,1,-0.43,-0.56,0.24,-7.618600000000001,11.3172,-14.8344,175,75
2026-05-09 16:04:26.109,5,-2.0,1.14,2.0,-179.07379999999998,-109.5218,-222.49099999999999,175,75
2026-05-09 16:04:26.109,2,-1.0,-1.32,0.08,41.9314,-22.0886,-93.3806,175,75
2026-05-09 16:04:26.120,3,0.67,1.38,0.86,-208.6346,71.0686,-192.7436,175,75
2026-05-09 16:04:26.120,4,1.24,-0.98,2.25,-13.278,-14.413000000000004,42.4276,175,75
2026-05-09 16:04:26.138,1,-0.16,-1.46,0.85,-6.2186,84.4272,17.5456,175,75
2026-05-09 16:04:26.138,2,-0.69,-1.37,0.26,6.871399999999998,19.0114,7.7694,175,75
2026-05-09 16:04:26.138,3,-0.83,0.78,1.07,-219.91459999999998,102.6486,-213.0436,175,75
2026-05-09 16:04:26.138,3,-1.13,0.99,1.91,-199.97459999999998,156.60860000000002,-222.1936,175,75
2026-05-09 16:04:26.138,4,0.9,-0.22,2.1,-19.497999999999998,-70.69300000000001,40.7776,175,75
2026-05-09 16:04:26.145,5,-0.06,-0.03,2.0,27.806199999999997,-146.3518,253.369,175,75
2026-05-09 16:04:26.161,2,-0.85,-0.95,0.32,12.721399999999997,29.7414,0.8794,175,75
2026-05-09 16:04:26.161,5,-0.03,0.04,2.0,-13.763800000000002,-253.97179999999997,253.369,175,75
2026-05-09 16:04:26.161,2,-0.93,-0.69,0.32,27.601399999999998,8.151399999999999,-49.9106,175,75
2026-05-09 16:04:26.161,1,-0.07,-1.12,1.76,-27.4386,137.59720000000002,37.1156,175,75
2026-05-09 16:04:26.170,5,-0.04,-0.48,1.88,-108.49380000000001,-253.97179999999997,253.369,175,75
2026-05-09 16:04:26.170,2,-0.96,-0.3,0.32,47.541399999999996,-45.8686,-128.45059999999998,175,75
2026-05-09 16:04:26.186,4,0.66,0.31,1.89,-6.028,-149.413,-2.5724,175,75
2026-05-09 16:04:26.186,3,-12.25,5.49,8.75,353.80539999999996,430.02860000000004,558.8463999999999,175,75
2026-05-09 16:04:26.186,1,-0.01,-1.07,2.04,-32.2486,156.62720000000002,49.9256,175,75
2026-05-09 16:04:26.186,3,0.08,-6.86,10.66,678.9354000000001,234.35860000000002,237.9264,175,75
2026-05-09 16:04:26.186,5,1.31,-2.0,0.08,-72.0838,-253.97179999999997,253.369,175,75
2026-05-09 16:04:26.188,4,0.61,0.49,1.66,3.0020000000000007,-175.453,-8.672400000000001,175,75
2026-05-09 16:04:26.198,1,0.13,-0.58,2.59,-28.528599999999997,154.9772,47.305600000000005,175,75
2026-05-09 16:04:26.202,4,0.54,0.57,1.44,9.282,-179.72299999999998,-10.072400000000002,175,75
2026-05-09 16:04:26.219,2,-0.93,0.49,0.16,68.94139999999999,-131.4786,-245.76059999999998,175,75
2026-05-09 16:04:26.219,5,-0.27,-2.0,-0.8,37.9862,-66.6518,3.399,175,75
2026-05-09 16:04:26.219,1,0.59,-0.13,1.98,-7.0085999999999995,50.4072,21.7556,175,75
2026-05-09 16:04:26.219,4,0.42,0.58,1.23,9.341999999999999,-159.663,-3.852400000000001,175,75
2026-05-09 16:04:26.239,3,7.17,1.19,-1.88,-455.5246,-727.2914000000001,-219.6336,175,75
2026-05-09 16:04:26.239,2,-0.24,0.7,0.14,68.0914,-135.68859999999998,-243.8706,175,75
2026-05-09 16:04:26.239,2,-0.32,1.06,-0.06,60.7714,-62.8786,-20.820600000000002,175,75
2026-05-09 16:04:26.262,2,-0.27,0.07,0.19,-14.4086,74.2514,91.3694,175,75
2026-05-09 16:04:26.262,5,-0.08,1.03,0.08,93.61619999999999,61.6382,-246.90099999999998,175,75
2026-05-09 16:04:26.266,3,-0.13,-1.33,1.52,182.9554,447.5886,-106.64359999999999,175,75
2026-05-09 16:04:26.280,5,2.0,1.78,-1.54,28.9662,123.1882,-210.411,175,75
2026-05-09 16:04:26.280,2,-0.79,0.55,0.11,27.841399999999997,164.9814,-62.470600000000005,175,75
2026-05-09 16:04:26.280,3,1.82,-0.2,2.4,87.22540000000001,19.848599999999998,31.826400000000003,175,75
2026-05-09 16:04:26.280,4,0.48,0.63,1.61,2.8819999999999997,23.326999999999998,18.647599999999997,175,75
2026-05-09 16:04:26.280,4,0.41,0.5,1.62,7.942,-21.373000000000005,5.347599999999998,175,75
2026-05-09 16:04:26.283,1,0.5,2.09,3.56,101.9514,-44.6528,6.8156,175,75
2026-05-09 16:04:26.301,4,0.26,0.38,1.54,7.332000000000001,-52.043000000000006,-10.3824,175,75
2026-05-09 16:04:26.301,2,-0.36,0.52,0.24,45.95139999999999,149.5514,-39.4206,175,75
2026-05-09 16:04:26.301,3,0.67,-0.7,1.16,68.3254,-127.5314,83.10640000000001,175,75
2026-05-09 16:04:26.301,2,-0.58,0.44,0.32,33.8214,144.4314,20.7594,175,75
2026-05-09 16:04:26.301,3,0.22,-0.82,0.54,83.0154,-85.2814,62.3164,175,75
2026-05-09 16:04:26.307,1,0.55,2.07,3.58,144.0914,-48.7428,11.5656,175,75
2026-05-09 16:04:26.308,4,0.2,0.35,1.41,2.3320000000000007,-57.283,-25.742400000000004,175,75
2026-05-09 16:04:26.327,3,0.88,-0.5,0.61,116.6754,-14.481399999999999,70.30640000000001,175,75
2026-05-09 16:04:26.327,2,-0.27,0.09,0.45,2.351399999999998,62.3014,34.2994,175,75
2026-05-09 16:04:26.327,4,0.18,0.44,1.35,-1.267999999999999,-29.113000000000003,-36.1724,175,75
2026-05-09 16:04:26.327,3,0.67,-0.43,0.6,120.8854,-42.0414,83.77640000000001,175,75
2026-05-09 16:04:26.345,3,0.37,-0.34,0.53,126.97540000000001,-24.851399999999998,82.6264,175,75
2026-05-09 16:04:26.345,2,-0.51,0.3,0.21,1.5013999999999967,-60.318599999999996,-8.0806,175,75
2026-05-09 16:04:26.345,4,0.2,0.49,1.42,-0.16799999999999926,1.9869999999999948,-36.2324,175,75
2026-05-09 16:04:26.345,4,0.27,0.53,1.49,0.7420000000000009,28.696999999999996,-39.1624,175,75
2026-05-09 16:04:26.345,3,0.24,-0.29,0.65,143.93540000000002,16.7986,85.1864,175,75
2026-05-09 16:04:26.358,1,0.23,0.57,1.9,332.44140000000004,-92.6428,57.055600000000005,175,75
2026-05-09 16:04:26.358,2,-0.48,0.61,0.03,9.981399999999997,-81.5386,-5.030600000000001,175,75
2026-05-09 16:04:26.358,5,0.32,-0.26,0.2,7.4262,111.9782,162.089,175,75
2026-05-09 16:04:26.358,1,0.52,0.37,1.29,339.76140000000004,-124.83279999999999,73.9456,175,75
2026-05-09 16:04:26.358,3,0.06,-0.17,1.03,177.9554,37.5886,81.7064,175,75
2026-05-09 16:04:26.371,4,0.5,0.61,1.81,1.232000000000001,45.82699999999999,-56.7824,175,75
2026-05-09 16:04:26.371,5,-0.02,-0.14,0.33,45.4362,70.6182,253.369,175,75
2026-05-09 16:04:26.371,2,-0.57,0.74,-0.09,18.091399999999997,-62.33859999999999,22.5294,175,75
2026-05-09 16:04:26.371,1,-0.29,0.73,-2.49,404.58140000000003,-592.7028,135.7156,175,75
2026-05-09 16:04:26.371,3,0.18,-0.16,1.17,179.7854,33.2586,90.05640000000001,175,75
2026-05-09 16:04:26.381,2,-0.73,0.69,-0.13,24.6714,-32.7586,32.9594,175,75
2026-05-09 16:04:26.386,5,-0.35,-0.01,0.41,71.4462,-13.2118,253.369,175,75
2026-05-09 16:04:26.403,5,-0.25,-0.07,0.39,65.5162,-62.101800000000004,253.369,175,75
2026-05-09 16:04:26.403,1,-5.03,-1.96,-9.69,562.5014,-893.4928,176.5656,175,75
2026-05-09 16:04:26.404,2,-0.7,0.03,-0.05,26.9914,45.041399999999996,39.6594,175,75
2026-05-09 16:04:26.404,4,0.71,0.32,1.95,24.772000000000002,31.067,-82.7524,175,75
2026-05-09 16:04:26.404,3,0.18,-0.07,0.93,144.90540000000001,-17.351399999999998,106.3464,175,75
2026-05-09 16:04:26.412,1,-2.98,0.12,-4.67,-247.3786,1067.4171999999999,-186.6644,175,75
2026-05-09 16:04:26.412,4,0.61,0.1,1.85,35.44200000000001,11.006999999999998,-80.5624,175,75
2026-05-09 16:04:26.412,5,0.2,-0.18,0.33,54.346199999999996,-89.4418,253.369,175,75
2026-05-09 16:04:26.412,3,-0.03,0.64,0.48,75.08539999999999,-6.0114,84.3264,175,75
2026-05-09 16:04:26.423,5,0.73,-0.39,0.3,41.846199999999996,-65.56179999999999,239.909,175,75
2026-05-09 16:04:26.423,1,-0.86,0.16,4.17,-542.2486,475.4672,-133.1844,175,75
2026-05-09 16:04:26.423,4,0.48,-0.23,1.64,42.572,7.4069999999999965,-74.1024,175,75
2026-05-09 16:04:26.434,5,1.27,-0.78,0.27,13.0462,18.7682,88.299,175,75
2026-05-09 16:04:26.434,1,-0.85,3.65,4.56,-500.48859999999996,57.7872,154.13559999999998,175,75
2026-05-09 16:04:26.434,4,0.4,-0.52,1.46,43.242000000000004,30.517000000000003,-61.9624,175,75
2026-05-09 16:04:26.434,2,-0.46,-0.46,0.05,22.841399999999997,11.991399999999999,60.2694,175,75
2026-05-09 16:04:26.446,5,1.41,-1.03,0.55,-8.3438,107.7482,-39.631,175,75
2026-05-09 16:04:26.446,2,-0.22,-0.91,0.09,17.111399999999996,-41.9686,84.4794,175,75
2026-05-09 16:04:26.446,2,-0.08,-1.47,0.14,10.221399999999997,-101.7286,129.29940000000002,175,75
2026-05-09 16:04:26.446,3,-0.42,0.38,0.94,2.6454000000000004,0.45860000000000023,112.5564,175,75
2026-05-09 16:04:26.446,2,-0.39,-1.95,0.02,5.041399999999996,-124.5886,200.1494,175,75
2026-05-09 16:04:26.446,5,1.37,-0.76,1.44,-45.7438,161.6682,-92.461,175,75
2026-05-09 16:04:26.456,1,-0.68,-0.68,1.26,0.2514000000000003,-37.032799999999995,-35.7444,175,75
2026-05-09 16:04:26.456,4,0.27,-0.78,1.48,33.122,112.537,-11.2924,175,75
2026-05-09 16:04:26.471,3,0.05,0.14,0.17,-63.2046,-45.5814,38.296400000000006,175,75
2026-05-09 16:04:26.471,4,0.34,-0.52,1.79,21.541999999999998,131.737,-24.5824,175,75
2026-05-09 16:04:26.485,3,0.08,0.08,0.19,-73.44460000000001,-16.251399999999997,19.0864,175,75
2026-05-09 16:04:26.485,5,2.0,1.49,2.0,-210.4938,192.52820000000003,-211.231,175,75
2026-05-09 16:04:26.485,1,0.54,-0.65,1.1,-33.1686,17.0572,-12.2144,175,75
2026-05-09 16:04:26.485,2,-1.75,-2.06,-0.27,51.6814,12.7914,77.2294,175,75
2026-05-09 16:04:26.496,5,2.0,-0.08,2.0,-246.48379999999997,246.2982,-75.231,175,75
2026-05-09 16:04:26.496,3,0.08,0.28,0.3,-117.65459999999999,21.738599999999998,-44.2636,175,75
2026-05-09 16:04:26.496,5,0.51,-0.49,2.0,-235.6138,246.2982,41.888999999999996,175,75
2026-05-09 16:04:26.509,2,-1.04,-1.73,0.24,93.3314,-2.4586000000000006,-107.8406,175,75
2026-05-09 16:04:26.509,4,0.58,-0.23,2.2,14.402000000000001,-27.103,40.2876,175,75
2026-05-09 16:04:26.509,2,-0.56,-1.59,0.47,101.9314,-52.148599999999995,-135.52059999999997,175,75
2026-05-09 16:04:26.509,5,-1.73,-0.77,2.0,-134.6238,246.2982,68.519,175,75
2026-05-09 16:04:26.509,3,0.08,0.38,0.44,-139.66459999999998,54.9086,-79.6336,175,75
2026-05-09 16:04:26.509,4,0.33,-0.47,2.09,15.382000000000001,-104.233,49.3176,175,75
2026-05-09 16:04:26.524,5,-2.0,-0.79,2.0,-49.8838,246.2982,-32.391000000000005,175,75
2026-05-09 16:04:26.524,3,0.11,0.4,0.69,-158.0846,68.3186,-94.8736,175,75
2026-05-09 16:04:26.524,2,-0.26,-1.41,0.54,88.1514,-110.07860000000001,-131.3106,175,75
2026-05-09 16:04:26.524,4,0.09,-0.62,1.95,3.492000000000001,-177.343,42.977599999999995,175,75
2026-05-09 16:04:26.536,2,-0.39,-1.16,0.34,55.1014,-147.8186,-116.2506,175,75
2026-05-09 16:04:26.536,3,0.08,0.35,1.04,-182.59459999999999,48.3786,-109.14359999999999,175,75
2026-05-09 16:04:26.536,1,-0.05,-1.04,0.15,72.81139999999999,34.1272,31.385600000000004,175,75
2026-05-09 16:04:26.536,4,-0.13,-0.47,1.74,-21.328,-263.32300000000004,19.7376,175,75
2026-05-09 16:04:26.536,5,-2.0,-0.09,2.0,17.766199999999998,-65.8718,-202.141,175,75
2026-05-09 16:04:26.547,3,0.07,0.29,1.2,-196.19459999999998,14.2986,-116.4636,175,75
2026-05-09 16:04:26.547,2,-0.59,-0.79,0.09,14.311399999999997,-154.83859999999999,-125.4606,175,75
2026-05-09 16:04:26.547,1,-0.11,-0.88,0.97,121.53139999999999,93.02720000000001,43.455600000000004,175,75
2026-05-09 16:04:26.547,4,-0.17,-0.2,1.46,-31.387999999999998,-310.57300000000004,-5.3824000000000005,175,75
2026-05-09 16:04:26.547,5,-2.0,0.18,2.0,17.7762,-253.97179999999997,-98.681,175,75
2026-05-09 16:04:26.547,3,0.06,0.17,1.32,-214.0546,-29.6714,-120.5436,175,75
2026-05-09 16:04:26.558,2,-0.93,-0.3,0.03,-23.7986,-74.7086,-170.82059999999998,175,75
2026-05-09 16:04:26.558,1,0.18,-0.71,1.32,127.38140000000001,162.6672,29.985599999999998,175,75
2026-05-09 16:04:26.558,4,-0.03,0.06,1.13,-17.918,-295.023,-19.4024,175,75
2026-05-09 16:04:26.558,5,-1.32,0.15,2.0,50.6462,-253.97179999999997,-17.421,175,75
2026-05-09 16:04:26.558,2,-0.95,0.07,0.14,-31.428600000000003,17.601399999999998,-198.6306,175,75
2026-05-09 16:04:26.566,1,0.14,-0.4,1.61,109.2114,170.34720000000002,15.2256,175,75
2026-05-09 16:04:26.566,5,-0.51,0.09,1.61,94.1062,-253.97179999999997,36.608999999999995,175,75
2026-05-09 16:04:26.579,3,0.09,-0.08,1.2,-240.6446,-79.0014,-114.02359999999999,175,75
2026-05-09 16:04:26.579,5,0.37,0.06,1.11,116.3562,-253.97179999999997,98.63900000000001,175,75
2026-05-09 16:04:26.579,4,0.42,0.47,0.89,2.3320000000000007,-185.883,16.2076,175,75
2026-05-09 16:04:26.579,2,-0.73,1.26,0.45,18.881399999999996,311.3814,-98.0206,175,75
2026-05-09 16:04:26.590,1,0.09,0.37,1.75,-17.6186,160.7072,-9.954400000000001,175,75
2026-05-09 16:04:26.590,3,0.14,-0.29,1.11,-242.53459999999998,-91.0114,-114.6336,175,75
2026-05-09 16:04:26.590,1,0.24,0.47,0.61,-114.3886,72.5372,-10.324399999999999,175,75
2026-05-09 16:04:26.606,5,1.75,-0.23,-0.18,159.7862,-253.97179999999997,253.369,175,75
2026-05-09 16:04:26.620,3,0.32,-0.35,0.84,-208.44459999999998,-18.6914,-112.5636,175,75
2026-05-09 16:04:26.620,2,-0.99,1.23,1.03,38.8214,399.5514,-94.9106,175,75
2026-05-09 16:04:26.620,5,2.0,0.02,-2.0,253.7862,-253.97179999999997,253.369,175,75
2026-05-09 16:04:26.620,4,0.34,1.28,1.32,-20.108,-17.773000000000003,15.597599999999998,175,75
2026-05-09 16:04:26.620,2,-0.65,0.9,0.9,-33.988600000000005,15.231399999999999,24.359399999999997,175,75
2026-05-09 16:04:26.630,3,0.32,-0.24,0.87,-155.7046,-15.2114,-115.0636,175,75
2026-05-09 16:04:26.631,5,1.02,-0.06,-2.0,253.7862,-140.43179999999998,253.369,175,75
2026-05-09 16:04:26.631,4,0.19,1.35,1.44,-10.658,-18.073000000000004,7.977600000000001,175,75
2026-05-09 16:04:26.641,3,0.23,-0.05,1.01,-133.3246,-3.8713999999999995,-101.3436,175,75
2026-05-09 16:04:26.641,4,0.07,1.22,1.48,-12.058,-7.403000000000002,-2.0824000000000016,175,75
2026-05-09 16:04:26.641,3,0.32,0.12,1.05,-112.59459999999999,17.218600000000002,-98.2336,175,75
2026-05-09 16:04:26.643,1,-0.3,-2.72,-0.06,-541.3385999999999,32.417199999999994,-41.9644,175,75
2026-05-09 16:04:26.653,5,-1.69,-0.44,-1.32,214.4362,-121.6318,-134.831,175,75
2026-05-09 16:04:26.653,4,0.05,0.98,1.5,-19.868,28.086999999999996,-15.012400000000001,175,75
2026-05-09 16:04:26.653,3,0.38,0.49,1.12,-88.1446,52.218599999999995,-101.7636,175,75
2026-05-09 16:04:26.653,5,-1.48,-0.49,-0.79,154.3162,-179.62179999999998,-188.911,175,75
2026-05-09 16:04:26.666,1,-0.37,-2.55,0.87,-536.6386,84.4872,-50.194399999999995,175,75
2026-05-09 16:04:26.666,4,0.17,0.87,1.53,-24.258,52.657000000000004,-23.4324,175,75
2026-05-09 16:04:26.666,3,0.51,0.82,1.5,-56.004599999999996,87.40859999999999,-89.4536,175,75
2026-05-09 16:04:26.666,5,-1.35,-0.28,-0.19,85.5762,-210.99179999999998,-215.781,175,75
2026-05-09 16:04:26.666,2,-1.21,0.91,0.09,11.261399999999997,-295.3186,55.5794,175,75
2026-05-09 16:04:26.666,1,-0.47,-2.11,1.96,-522.7386,80.2872,-45.264399999999995,175,75
2026-05-09 16:04:26.678,3,-2.12,1.83,2.61,-12.4146,141.85860000000002,14.996400000000005,175,75
2026-05-09 16:04:26.678,4,0.36,0.8,1.6,-23.887999999999998,58.267,-34.0424,175,75
2026-05-09 16:04:26.678,5,-1.26,-0.1,-0.02,15.9762,-232.22179999999997,-220.721,175,75
2026-05-09 16:04:26.690,4,0.48,0.72,1.64,-19.378,43.817,-42.7624,175,75
2026-05-09 16:04:26.690,3,-8.35,4.05,5.33,228.80540000000002,492.46860000000004,306.8264,175,75
2026-05-09 16:04:26.690,1,0.04,-0.05,1.48,-427.24859999999995,111.0772,-6.904399999999999,175,75
2026-05-09 16:04:26.717,2,-1.05,-0.55,-0.0,4.001399999999997,163.8814,80.8794,175,75
2026-05-09 16:04:26.717,5,1.02,0.52,-0.79,-201.3438,21.5882,-79.81099999999999,175,75
2026-05-09 16:04:26.717,4,0.69,0.13,1.45,3.3019999999999996,67.537,-31.2324,175,75
2026-05-09 16:04:26.740,3,-2.16,0.94,0.97,-22.714599999999997,-138.51139999999998,290.4864,175,75
2026-05-09 16:04:26.740,2,-0.76,-0.84,0.05,-9.4786,177.3014,93.1994,175,75
2026-05-09 16:04:26.747,5,1.45,0.42,-0.63,-113.1138,246.2982,29.629,175,75
2026-05-09 16:04:26.764,5,2.0,1.05,0.03,-143.6738,246.2982,72.91900000000001,175,75
2026-05-09 16:04:26.764,4,0.87,-0.68,1.42,25.742,123.14699999999999,0.8375999999999983,175,75
2026-05-09 16:04:26.764,3,0.27,0.04,1.88,121.97540000000001,157.5286,-56.4036,175,75
2026-05-09 16:04:26.764,2,-0.82,-1.69,-0.11,29.791399999999996,-12.028600000000003,156.1294,175,75
2026-05-09 16:04:26.785,5,2.0,0.78,2.0,-246.48379999999997,246.2982,110.24900000000001,175,75
2026-05-09 16:04:26.785,3,-0.34,-0.82,1.65,61.2454,-50.891400000000004,74.69640000000001,175,75
2026-05-09 16:04:26.785,1,0.26,0.43,1.84,-232.61860000000001,46.0172,-4.7744,175,75
2026-05-09 16:04:26.785,4,1.34,-0.17,1.97,6.661999999999999,116.92699999999999,-36.6024,175,75
2026-05-09 16:04:26.785,5,2.0,-0.62,2.0,-246.48379999999997,206.53820000000002,249.459,175,75
2026-05-09 16:04:26.795,3,-0.22,-1.27,1.56,56.3054,-38.0814,34.936400000000006,175,75
2026-05-09 16:04:26.795,2,-1.23,-1.2,-0.46,78.94139999999999,-91.7886,-101.56060000000001,175,75
2026-05-09 16:04:26.795,1,0.41,1.09,2.11,-186.6386,22.667199999999998,-8.4944,175,75
2026-05-09 16:04:26.795,4,1.28,-0.22,1.93,18.972,96.197,-20.5024,175,75
2026-05-09 16:04:26.795,5,1.19,-1.46,2.0,-198.7138,246.2982,194.989,175,75
2026-05-09 16:04:26.795,3,0.13,-1.02,1.37,53.9354,-33.0814,34.7564,175,75
2026-05-09 16:04:26.808,2,-0.86,-1.04,-0.46,68.5714,-128.6186,-119.7906,175,75
2026-05-09 16:04:26.809,4,1.09,-0.46,1.81,33.55200000000001,74.727,-5.932400000000001,175,75
2026-05-09 16:04:26.809,1,0.44,1.51,2.29,-134.26860000000002,-12.4028,-2.5144,175,75
2026-05-09 16:04:26.809,5,-0.24,0.01,2.0,-117.1738,246.2982,160.34900000000002,175,75
2026-05-09 16:04:26.809,3,-0.12,-0.71,1.31,53.2554,-32.8414,30.246400000000005,175,75
2026-05-09 16:04:26.819,2,-0.65,-1.17,-0.52,52.111399999999996,-150.68859999999998,-98.5706,175,75
2026-05-09 16:04:26.819,4,0.78,-0.84,1.66,34.952,54.60699999999999,5.8376,175,75
2026-05-09 16:04:26.819,5,-2.0,-1.55,2.0,-3.9037999999999995,246.2982,59.059,175,75
2026-05-09 16:04:26.819,1,0.43,1.9,2.37,-59.6286,-46.72280000000001,-6.1144,175,75
2026-05-09 16:04:26.829,3,-0.19,-0.51,1.07,54.4754,-16.1314,13.8464,175,75
2026-05-09 16:04:26.829,2,-0.59,-1.44,-0.63,35.7114,-126.78860000000002,-58.9906,175,75
2026-05-09 16:04:26.829,1,0.44,2.12,2.42,-1.4586000000000006,-82.33279999999999,-4.404399999999999,175,75
2026-05-09 16:04:26.829,5,-2.0,-1.66,2.0,68.75619999999999,219.9582,-84.481,175,75
2026-05-09 16:04:26.829,4,0.6,-1.04,1.61,16.602,46.737,3.7075999999999993,175,75
2026-05-09 16:04:26.829,2,-0.69,-1.59,-0.78,27.661399999999997,-56.72859999999999,-7.9606,175,75
2026-05-09 16:04:26.840,3,-0.38,-0.48,1.13,53.8654,8.0186,8.3564,175,75
2026-05-09 16:04:26.840,1,0.37,2.08,2.29,66.4714,-113.9828,6.1456,175,75
2026-05-09 16:04:26.851,4,0.56,-1.01,1.65,6.112000000000002,33.757,-5.322400000000001,175,75
2026-05-09 16:04:26.851,5,-2.0,-0.74,2.0,107.5262,-253.97179999999997,-246.90099999999998,175,75
2026-05-09 16:04:26.851,2,-0.86,-1.53,-0.88,36.871399999999994,68.4014,41.6194,175,75
2026-05-09 16:04:26.851,4,0.56,-0.83,1.74,5.1320000000000014,-5.693000000000005,-16.602400000000003,175,75
2026-05-09 16:04:26.851,1,0.37,1.76,2.2,156.2814,-117.58279999999999,19.4956,175,75
2026-05-09 16:04:26.864,5,-1.29,-0.11,2.0,131.8562,-253.97179999999997,-246.90099999999998,175,75
2026-05-09 16:04:26.864,2,-0.86,-1.29,-0.75,62.721399999999996,154.4314,48.4494,175,75
2026-05-09 16:04:26.887,1,0.41,1.48,1.94,256.83140000000003,-92.52279999999999,22.9756,175,75
2026-05-09 16:04:26.887,3,0.09,-1.1,0.99,18.3854,-57.5914,-22.6836,175,75
2026-05-09 16:04:26.887,1,0.42,1.39,1.84,293.6614,-73.4328,22.5456,175,75
2026-05-09 16:04:26.908,1,0.38,1.24,1.73,338.0514,-47.032799999999995,26.565600000000003,175,75
2026-05-09 16:04:26.908,2,-0.55,-0.72,-0.02,81.3214,129.9214,-46.6806,175,75
2026-05-09 16:04:26.908,2,-0.45,-0.56,0.11,57.4114,94.19139999999999,-68.7506,175,75
2026-05-09 16:04:26.908,3,0.43,-1.16,0.78,13.255400000000002,-87.59140000000001,-15.793599999999998,175,75
2026-05-09 16:04:26.919,4,0.34,-0.01,1.27,-12.847999999999999,-125.213,-17.5124,175,75
2026-05-09 16:04:26.919,3,0.68,-1.22,0.57,-0.8845999999999998,-100.2814,-8.653599999999997,175,75
2026-05-09 16:04:26.919,5,1.64,0.88,0.61,25.0462,151.4882,58.699,175,75
2026-05-09 16:04:26.919,2,-0.19,-0.28,0.33,1.201399999999996,34.9814,-94.6606,175,75
2026-05-09 16:04:26.935,3,0.86,-1.04,0.4,1.0053999999999998,-106.98140000000001,-1.8935999999999993,175,75
2026-05-09 16:04:26.935,2,0.05,-0.12,0.38,-20.0886,23.7614,-71.56060000000001,175,75
2026-05-09 16:04:26.935,5,-0.42,0.62,0.22,-13.223799999999999,163.6082,66.249,175,75
2026-05-09 16:04:26.950,1,0.35,0.4,1.8,428.2914,0.22719999999999985,47.305600000000005,175,75
2026-05-09 16:04:26.971,3,1.22,-0.63,0.15,15.575400000000002,-116.9214,17.076400000000003,175,75
2026-05-09 16:04:26.971,3,0.96,-0.31,0.09,33.565400000000004,-109.0014,37.1964,175,75
2026-05-09 16:04:26.971,1,0.34,0.25,1.79,436.83140000000003,-9.4128,51.025600000000004,175,75
2026-05-09 16:04:26.982,5,0.61,0.37,0.56,14.1362,-99.1718,-53.371,175,75
2026-05-09 16:04:26.982,4,-0.07,0.59,1.38,-28.768,-78.803,-8.612400000000001,175,75
2026-05-09 16:04:26.982,4,-0.11,0.68,1.46,-29.558,-81.123,-12.4524,175,75
2026-05-09 16:04:26.986,5,0.35,0.31,0.47,37.096199999999996,-58.1818,35.479,175,75
2026-05-09 16:04:26.997,5,0.09,0.33,0.43,35.9662,-58.0118,42.659,175,75
2026-05-09 16:04:26.997,1,0.21,-0.31,1.68,434.51140000000004,-105.2628,57.845600000000005,175,75
2026-05-09 16:04:27.011,4,-0.16,0.78,1.55,-29.558,-92.593,-21.962400000000002,175,75
2026-05-09 16:04:27.011,3,0.43,-0.38,0.44,120.8854,-19.541400000000003,92.9264,175,75
2026-05-09 16:04:27.011,3,0.11,-0.4,0.4,124.6654,4.5986,104.02640000000001,175,75
2026-05-09 16:04:27.016,5,-0.03,0.22,0.27,21.666200000000003,-72.37180000000001,51.708999999999996,175,75
2026-05-09 16:04:27.030,2,-0.4,0.65,0.32,-20.878600000000006,-69.6486,-40.8806,175,75
2026-05-09 16:04:27.030,3,-0.28,-0.33,0.68,131.0054,59.718599999999995,114.3264,175,75
2026-05-09 16:04:27.051,5,-0.07,-0.05,0.04,27.2162,-96.1918,90.769,175,75
2026-05-09 16:04:27.051,2,-0.28,0.94,0.29,19.6714,-10.0786,-12.230599999999999,175,75
2026-05-09 16:04:27.051,4,-0.26,0.79,1.54,-26.758,-148.56300000000002,-46.052400000000006,175,75
2026-05-09 16:04:27.051,4,-0.31,0.73,1.48,-25.538,-153.073,-49.2824,175,75
2026-05-09 16:04:27.064,1,0.19,-1.01,1.35,361.1014,-281.18280000000004,15.8356,175,75
2026-05-09 16:04:27.064,3,-0.33,0.48,1.18,193.99540000000002,54.9086,154.3264,175,75
2026-05-09 16:04:27.069,3,-0.17,0.27,1.44,191.30540000000002,25.208599999999997,143.65640000000002,175,75
2026-05-09 16:04:27.083,3,0.33,-0.09,1.18,153.3854,-58.931400000000004,138.90640000000002,175,75
2026-05-09 16:04:27.092,4,-0.27,0.7,1.38,-27.058,-119.483,-52.452400000000004,175,75
2026-05-09 16:04:27.104,5,0.0,0.09,-1.44,132.8562,-245.75179999999997,99.129,175,75
2026-05-09 16:04:27.104,3,0.31,0.11,0.5,101.7954,-64.0614,129.0864,175,75
2026-05-09 16:04:27.104,2,-0.45,0.52,0.32,-10.508600000000001,-54.7686,-28.5106,175,75
2026-05-09 16:04:27.104,2,-0.45,0.54,0.3,-6.728600000000004,-48.3086,-32.7706,175,75
2026-05-09 16:04:27.109,2,-0.5,0.54,0.32,-3.678600000000003,-9.8986,-31.4906,175,75
2026-05-09 16:04:27.123,5,0.14,-0.2,-0.7,73.3562,-131.1718,102.539,175,75
2026-05-09 16:04:27.148,2,-0.48,0.32,0.41,-11.3686,-17.5786,-24.300600000000003,175,75
2026-05-09 16:04:27.148,2,-0.45,-0.0,0.51,-15.328600000000002,-38.7986,-11.6206,175,75
2026-05-09 16:04:27.166,1,0.81,1.34,0.97,-71.8286,-418.74280000000005,36.635600000000004,175,75
2026-05-09 16:04:27.184,5,1.16,-0.52,-0.08,33.9962,246.2982,-42.871,175,75
2026-05-09 16:04:27.184,2,-0.43,-1.47,0.48,-44.8986,-244.52859999999998,132.8394,175,75
2026-05-09 16:04:27.184,4,0.61,-0.51,1.51,28.432,77.71699999999998,-0.8024000000000004,175,75
2026-05-09 16:04:27.197,3,0.22,0.88,1.14,-93.75460000000001,43.9886,-18.4136,175,75
2026-05-09 16:04:27.197,5,0.58,-0.54,2.0,94.8062,246.2982,-180.24099999999999,175,75
2026-05-09 16:04:27.197,4,0.78,-0.61,1.49,34.772000000000006,92.77700000000002,4.257599999999998,175,75
2026-05-09 16:04:27.208,3,0.28,1.08,1.09,-108.0846,-3.2013999999999996,-43.9636,175,75
2026-05-09 16:04:27.208,2,-1.41,-1.74,-0.02,-34.348600000000005,-281.7886,164.29940000000002,175,75
2026-05-09 16:04:27.208,1,0.86,-1.5,0.76,-74.3886,27.417199999999998,40.1056,175,75
2026-05-09 16:04:27.220,4,0.93,-0.68,1.58,36.602000000000004,89.607,23.157599999999995,175,75
2026-05-09 16:04:27.220,5,2.0,0.61,2.0,-64.8538,246.2982,-235.521,175,75
2026-05-09 16:04:27.220,4,0.89,-0.76,1.72,31.662000000000003,70.39699999999999,49.3176,175,75
2026-05-09 16:04:27.220,1,0.26,0.37,0.87,-86.51859999999999,-24.8328,66.2056,175,75
2026-05-09 16:04:27.241,4,0.86,-0.9,1.81,28.552000000000003,51.617,66.3876,175,75
2026-05-09 16:04:27.241,5,-1.66,0.61,2.0,-176.97379999999998,246.2982,-246.90099999999998,175,75
2026-05-09 16:04:27.241,2,-1.92,-2.41,-0.45,14.851399999999996,-16.418599999999998,-47.7106,175,75
2026-05-09 16:04:27.241,3,0.1,1.44,0.54,-160.4546,61.248599999999996,-137.4436,175,75
2026-05-09 16:04:27.252,4,1.0,-1.11,1.82,28.732000000000003,21.006999999999998,66.3876,175,75
2026-05-09 16:04:27.252,1,-0.26,0.47,0.58,-64.80860000000001,-47.642799999999994,39.0656,175,75
2026-05-09 16:04:27.252,5,-2.0,0.38,2.0,-148.5938,246.2982,-246.90099999999998,175,75
2026-05-09 16:04:27.252,4,1.13,-1.21,1.78,27.572,-17.223000000000003,57.0576,175,75
2026-05-09 16:04:27.258,5,-2.0,0.48,2.0,-133.79379999999998,169.62820000000002,-170.731,175,75
2026-05-09 16:04:27.258,1,-0.17,-0.04,0.01,-24.2686,-18.1928,31.7556,175,75
2026-05-09 16:04:27.258,3,0.14,1.55,0.49,-198.75459999999998,68.2586,-145.3036,175,75
2026-05-09 16:04:27.275,5,-2.0,0.58,2.0,-124.3138,-11.1418,-53.941,175,75
2026-05-09 16:04:27.287,2,-1.62,-1.71,-0.17,43.2714,51.571400000000004,-73.7506,175,75
2026-05-09 16:04:27.287,1,-0.74,-0.53,0.82,17.081400000000002,38.27719999999999,16.0256,175,75
2026-05-09 16:04:27.287,3,-0.28,0.7,0.64,-230.3946,106.0686,-182.5036,175,75
2026-05-09 16:04:27.301,4,1.26,-0.61,1.85,-5.167999999999999,-23.263000000000005,42.3076,175,75
2026-05-09 16:04:27.301,2,-1.27,-1.25,0.08,55.1014,90.9014,-49.970600000000005,175,75
2026-05-09 16:04:27.301,5,-1.42,0.4,2.0,-68.7538,-172.0518,230.059,175,75
2026-05-09 16:04:27.301,1,-0.6,-0.75,0.91,18.4214,66.80720000000001,12.1156,175,75
2026-05-09 16:04:27.301,5,-1.34,0.18,2.0,-27.8238,-253.97179999999997,253.369,175,75
2026-05-09 16:04:27.301,4,1.24,-0.32,1.97,-12.118,-32.343,42.727599999999995,175,75
2026-05-09 16:04:27.311,2,-1.09,-1.01,0.23,58.7014,87.9114,-27.840600000000002,175,75
2026-05-09 16:04:27.328,5,-0.89,-0.08,2.0,-134.78379999999999,-253.97179999999997,253.369,175,75
2026-05-09 16:04:27.328,2,-0.9,-0.77,0.33,62.7814,68.64139999999999,-26.1306,175,75
2026-05-09 16:04:27.328,4,0.89,0.14,1.98,-1.7579999999999991,-107.28300000000002,10.347599999999998,175,75
2026-05-09 16:04:27.328,1,-0.44,-0.8,1.17,13.5414,151.5072,27.425600000000003,175,75
2026-05-09 16:04:27.328,5,0.91,-1.11,1.22,-149.54379999999998,-253.97179999999997,253.369,175,75
2026-05-09 16:04:27.353,5,1.52,-1.8,-0.16,-33.6638,-253.97179999999997,253.369,175,75
2026-05-09 16:04:27.371,3,0.41,2.91,-0.19,-381.19460000000004,-665.6414000000001,234.5164,175,75
2026-05-09 16:04:27.371,1,-0.14,-0.8,2.68,-24.4486,168.8872,20.5956,175,75
2026-05-09 16:04:27.371,4,0.52,0.67,1.55,16.842,-160.763,-1.8424000000000014,175,75
2026-05-09 16:04:27.371,4,0.35,0.6,1.37,32.94200000000001,-160.273,12.487599999999999,175,75
2026-05-09 16:04:27.371,2,-0.65,0.21,0.15,68.5114,-137.2686,-137.23059999999998,175,75
2026-05-09 16:04:27.371,5,1.27,-1.81,-1.11,29.6062,-77.4618,-36.071000000000005,175,75
2026-05-09 16:04:27.378,3,0.45,-1.93,-1.57,-467.8346,1.9186,115.18639999999999,175,75
2026-05-09 16:04:27.378,3,0.23,-1.36,-1.29,-83.56460000000001,118.7486,-3.113599999999998,175,75
2026-05-09 16:04:27.383,2,-0.6,0.61,-0.08,41.20139999999999,-90.74860000000001,43.1994,175,75
2026-05-09 16:04:27.383,4,0.2,0.41,1.21,42.391999999999996,-141.793,22.2476,175,75
2026-05-09 16:04:27.387,3,-0.83,-1.85,-0.22,175.5154,155.45860000000002,-121.83359999999999,175,75
2026-05-09 16:04:27.409,2,-1.06,0.55,-0.11,35.1014,-9.158600000000002,91.0694,175,75
2026-05-09 16:04:27.409,1,0.65,0.31,1.07,-92.67859999999999,-66.9128,12.4256,175,75
2026-05-09 16:04:27.422,1,0.08,0.56,0.04,-109.99860000000001,-66.4228,10.2256,175,75
2026-05-09 16:04:27.422,3,1.75,0.44,2.05,113.3254,345.8186,-133.2336,175,75
2026-05-09 16:04:27.422,1,-0.22,0.79,0.91,-106.8286,48.8772,10.2256,175,75
2026-05-09 16:04:27.422,4,0.35,0.73,1.23,7.5120000000000005,-39.963,0.2875999999999994,175,75
2026-05-09 16:04:27.435,5,-0.45,0.43,0.4,95.2862,18.118199999999998,-246.90099999999998,175,75
2026-05-09 16:04:27.435,1,0.25,1.13,2.42,-54.3286,21.927200000000003,24.925600000000003,175,75
2026-05-09 16:04:27.435,3,0.66,0.03,1.3,72.40540000000001,-66.7414,20.6664,175,75
2026-05-09 16:04:27.435,2,-0.49,0.99,0.2,28.451399999999996,139.3114,-7.8406,175,75
2026-05-09 16:04:27.442,3,0.21,-0.2,0.37,112.1654,23.8086,1.7064000000000021,175,75
2026-05-09 16:04:27.445,5,1.21,0.88,-1.09,6.3862000000000005,-58.1218,-147.65099999999998,175,75
2026-05-09 16:04:27.458,3,0.34,-0.33,0.32,139.6654,106.4886,12.3764,175,75
2026-05-09 16:04:27.458,5,0.43,0.97,-0.79,-16.293799999999997,-115.1918,31.339000000000002,175,75
2026-05-09 16:04:27.458,2,-0.4,0.97,0.23,28.631399999999996,138.6414,17.9594,175,75
2026-05-09 16:04:27.472,4,0.0,0.46,1.44,26.352,-62.523,-16.1124,175,75
2026-05-09 16:04:27.472,3,0.46,-0.33,0.67,148.3254,120.3286,21.0964,175,75
2026-05-09 16:04:27.472,5,-0.06,0.69,-0.35,-50.5638,-140.68179999999998,83.24900000000001,175,75
2026-05-09 16:04:27.472,4,-0.05,0.32,1.38,17.572,-67.953,-31.2924,175,75
2026-05-09 16:04:27.483,3,0.33,-0.15,0.9,141.9754,96.9786,26.7064,175,75
2026-05-09 16:04:27.483,5,-0.06,0.34,-0.13,-68.5738,-124.8318,73.069,175,75
2026-05-09 16:04:27.483,1,0.86,1.77,3.71,252.0814,-2.5228,74.98559999999999,175,75
2026-05-09 16:04:27.483,2,0.06,0.21,0.52,15.891399999999997,-3.0686000000000018,54.9094,175,75
2026-05-09 16:04:27.483,4,-0.07,0.29,1.34,10.322,-75.94300000000001,-44.5824,175,75
2026-05-09 16:04:27.496,2,0.01,-0.03,0.53,3.821399999999997,-70.8686,45.0894,175,75
2026-05-09 16:04:27.496,1,0.39,1.03,3.06,296.7114,-46.97280000000001,60.775600000000004,175,75
2026-05-09 16:04:27.496,4,-0.09,0.4,1.38,4.462,-75.453,-55.4424,175,75
2026-05-09 16:04:27.496,2,-0.09,-0.09,0.42,-2.2786000000000044,-110.6286,27.7094,175,75
2026-05-09 16:04:27.509,1,0.53,0.49,1.72,339.1514,-26.2428,59.555600000000005,175,75
2026-05-09 16:04:27.509,5,0.03,-0.3,0.08,-1.3637999999999995,30.2782,35.568999999999996,175,75
2026-05-09 16:04:27.509,3,0.22,0.04,1.19,152.58540000000002,55.998599999999996,80.7964,175,75
2026-05-09 16:04:27.509,2,-0.27,0.0,0.2,-4.168600000000001,-137.7586,8.079400000000001,175,75
2026-05-09 16:04:27.517,5,0.13,-0.37,0.05,26.816200000000002,78.8282,42.259,175,75
2026-05-09 16:04:27.517,3,0.24,0.0,1.28,152.52540000000002,31.068600000000004,93.6564,175,75
2026-05-09 16:04:27.538,4,0.28,0.64,1.51,-16.028,-48.07300000000001,-95.9324,175,75
2026-05-09 16:04:27.538,2,-0.63,0.36,-0.17,7.481399999999997,-98.1286,-13.5106,175,75
2026-05-09 16:04:27.559,5,0.95,0.09,0.28,65.0662,177.5882,241.029,175,75
2026-05-09 16:04:27.573,5,0.85,0.15,1.04,-12.7738,43.1282,253.369,175,75
2026-05-09 16:04:27.573,2,-0.93,-0.01,-0.16,23.701399999999996,63.6414,36.6194,175,75
2026-05-09 16:04:27.573,2,-0.76,-0.53,0.05,32.111399999999996,121.3214,71.0694,175,75
2026-05-09 16:04:27.573,2,-0.5,-1.01,0.26,37.4114,126.45139999999999,103.1394,175,75
2026-05-09 16:04:27.586,4,0.6,-0.45,1.19,5.622,-6.8530000000000015,-25.992400000000004,175,75
2026-05-09 16:04:27.604,5,0.67,-0.69,1.46,-40.9138,77.9582,-55.571000000000005,175,75
2026-05-09 16:04:27.604,3,-0.55,0.21,0.86,41.7954,67.5886,69.1464,175,75
2026-05-09 16:04:27.604,4,0.82,-0.93,1.2,-9.558,28.817,-8.002400000000002,175,75
2026-05-09 16:04:27.609,3,-0.17,0.06,0.96,19.3554,18.0186,62.436400000000006,175,75
2026-05-09 16:04:27.609,1,0.37,-1.38,0.03,-4.5085999999999995,80.7072,4.195600000000001,175,75
2026-05-09 16:04:27.620,1,0.44,-1.29,0.87,2.9914000000000005,109.1872,1.8155999999999999,175,75
2026-05-09 16:04:27.620,3,0.09,-0.08,0.83,-17.1646,-48.5114,48.296400000000006,175,75
2026-05-09 16:04:27.627,2,-1.95,-1.73,-0.18,47.3514,-92.2086,27.0394,175,75
2026-05-09 16:04:27.635,1,0.48,-0.88,1.02,14.6414,44.4272,0.5956000000000001,175,75
2026-05-09 16:04:27.635,4,1.11,0.04,1.46,-27.368000000000002,22.596999999999994,-20.5024,175,75
2026-05-09 16:04:27.647,2,-1.9,-1.62,-0.07,38.761399999999995,-39.0986,-77.0406,175,75
2026-05-09 16:04:27.647,1,-0.01,-0.68,0.62,24.3314,43.697199999999995,10.7156,175,75
2026-05-09 16:04:27.647,3,-0.01,-0.02,0.22,-91.25460000000001,-71.98140000000001,4.576400000000003,175,75
2026-05-09 16:04:27.647,5,-0.91,-0.72,2.0,-246.48379999999997,246.2982,-30.361,175,75
2026-05-09 16:04:27.649,3,0.04,0.06,0.27,-108.2046,-47.6514,-27.013599999999997,175,75
2026-05-09 16:04:27.669,5,-1.7,-0.96,2.0,-84.9038,173.18820000000002,-246.90099999999998,175,75
2026-05-09 16:04:27.669,1,0.16,-0.8,0.49,75.25139999999999,21.5072,32.2356,175,75
2026-05-09 16:04:27.692,2,-0.52,-0.72,0.45,19.4914,-28.488599999999998,-95.3406,175,75
2026-05-09 16:04:27.692,3,0.31,0.02,0.73,-176.00459999999998,-77.23140000000001,-71.9536,175,75
2026-05-09 16:04:27.692,1,0.17,-0.64,0.57,97.38140000000001,35.227199999999996,31.0856,175,75
2026-05-09 16:04:27.692,4,0.65,-0.34,1.27,19.401999999999997,27.537,74.4376,175,75
2026-05-09 16:04:27.692,3,0.22,-0.11,0.69,-201.6746,-77.7214,-88.9636,175,75
2026-05-09 16:04:27.702,1,0.1,-0.34,1.09,126.5914,20.3472,34.1956,175,75
2026-05-09 16:04:27.702,5,-1.1,0.21,2.0,144.7862,-209.3018,-156.531,175,75
2026-05-09 16:04:27.702,4,0.42,-0.25,1.15,7.212,13.756999999999998,72.6076,175,75
2026-05-09 16:04:27.702,3,0.26,-0.18,0.73,-219.6046,-65.2214,-112.3736,175,75
2026-05-09 16:04:27.702,2,-0.73,-0.65,0.42,-17.5886,-95.6286,41.2494,175,75
2026-05-09 16:04:27.713,5,-1.35,0.6,2.0,152.99620000000002,-253.97179999999997,-73.78099999999999,175,75
2026-05-09 16:04:27.713,1,0.36,-0.4,0.78,151.6514,62.2372,19.1356,175,75
2026-05-09 16:04:27.713,4,0.37,-0.02,1.14,6.052,19.486999999999995,63.5276,175,75
2026-05-09 16:04:27.713,3,0.43,-0.14,0.8,-236.06459999999998,-56.9214,-132.6236,175,75
2026-05-09 16:04:27.713,2,-1.02,-0.44,0.42,-20.6886,-40.8686,15.3994,175,75
2026-05-09 16:04:27.724,5,-1.16,0.74,1.7,130.0762,-253.97179999999997,-81.67099999999999,175,75
2026-05-09 16:04:27.724,1,0.47,-0.4,0.82,140.1214,113.02720000000001,-9.5244,175,75
2026-05-09 16:04:27.724,3,0.52,-0.13,0.76,-244.3646,-46.251400000000004,-140.0036,175,75
2026-05-09 16:04:27.724,5,-0.65,0.61,1.24,101.4962,-253.97179999999997,-99.431,175,75
2026-05-09 16:04:27.732,4,0.4,0.36,1.32,-7.848,74.667,62.2476,175,75
2026-05-09 16:04:27.732,1,0.24,0.13,1.41,88.1114,173.6372,-34.834399999999995,175,75
2026-05-09 16:04:27.743,5,0.04,0.4,0.81,83.0562,-253.97179999999997,-83.371,175,75
2026-05-09 16:04:27.743,1,0.25,0.28,1.34,25.5514,136.1972,-31.294399999999996,175,75
2026-05-09 16:04:27.759,3,0.48,-0.21,0.86,-239.3046,10.938600000000001,-141.3436,175,75
2026-05-09 16:04:27.759,4,0.41,0.53,1.46,-17.178,93.447,56.4476,175,75
2026-05-09 16:04:27.759,2,-1.41,0.27,0.48,20.221399999999996,107.1214,-124.42060000000001,175,75
2026-05-09 16:04:27.759,2,-1.58,0.74,0.5,57.051399999999994,165.59140000000002,-188.6906,175,75
2026-05-09 16:04:27.769,5,1.78,-0.07,-0.54,124.0962,-253.97179999999997,124.21900000000001,175,75
2026-05-09 16:04:27.769,2,-1.12,1.59,0.48,103.7614,231.81140000000002,-245.8806,175,75
2026-05-09 16:04:27.769,3,0.47,-0.23,0.82,-233.3846,31.738599999999998,-146.3436,175,75
2026-05-09 16:04:27.769,1,0.35,-0.61,-1.12,-247.2486,20.0972,-53.974399999999996,175,75
2026-05-09 16:04:27.783,2,-0.17,1.69,0.45,108.0914,251.3814,-127.2906,175,75
2026-05-09 16:04:27.783,1,0.35,-1.12,-0.36,-395.9686,51.9872,-93.3044,175,75
2026-05-09 16:04:27.783,5,1.53,0.63,-2.0,253.7862,-244.22179999999997,253.369,175,75
2026-05-09 16:04:27.783,2,-1.56,1.92,0.07,132.5414,168.94140000000002,-86.92060000000001,175,75
2026-05-09 16:04:27.783,3,0.41,-0.33,1.07,-203.75459999999998,58.8086,-133.8436,175,75
2026-05-09 16:04:27.783,4,-0.45,1.24,2.03,-4.678,-147.833,-18.1824,175,75
2026-05-09 16:04:27.794,5,0.57,0.33,-1.88,253.7862,-151.06179999999998,253.369,175,75
2026-05-09 16:04:27.794,1,0.4,-1.61,0.49,-480.54859999999996,-82.0328,-95.3844,175,75
2026-05-09 16:04:27.794,2,-1.63,1.27,0.26,98.45139999999999,27.181399999999996,-27.0406,175,75
2026-05-09 16:04:27.794,3,0.39,-0.31,1.43,-167.1046,116.0686,-128.4736,175,75
2026-05-09 16:04:27.794,4,-0.68,1.03,1.81,-4.928,-195.333,-34.1624,175,75
2026-05-09 16:04:27.794,5,-0.74,-0.46,-2.0,245.55620000000002,-96.2118,119.57900000000001,175,75
2026-05-09 16:04:27.805,2,-1.51,0.71,0.37,19.981399999999997,-21.6586,113.3194,175,75
2026-05-09 16:04:27.805,1,0.3,-1.9,0.84,-533.7185999999999,-172.15279999999998,-86.29440000000001,175,75
2026-05-09 16:04:27.805,3,0.21,-0.12,2.02,-117.53460000000001,113.01859999999999,-130.5436,175,75
2026-05-09 16:04:27.805,4,-0.72,0.83,1.58,-6.997999999999999,-196.553,-39.4024,175,75
2026-05-09 16:04:27.805,5,-1.51,-0.81,-1.92,193.2962,-117.7218,-96.731,175,75
2026-05-09 16:04:27.818,1,-0.15,-1.57,0.76,-564.8786,-197.3328,-77.3944,175,75
2026-05-09 16:04:27.818,3,-0.44,1.0,2.35,-74.4246,38.928599999999996,-121.22359999999999,175,75
2026-05-09 16:04:27.818,5,-1.32,-0.41,-0.91,126.0362,-193.6018,-147.15099999999998,175,75
2026-05-09 16:04:27.820,1,-0.33,-1.55,1.33,-571.3385999999999,-134.4128,-49.5244,175,75
2026-05-09 16:04:27.829,5,-1.1,-0.17,-0.2,41.8662,-253.97179999999997,-102.291,175,75
2026-05-09 16:04:27.829,3,-4.46,2.81,3.02,-66.5546,-11.6214,135.12640000000002,175,75
2026-05-09 16:04:27.845,4,-0.4,0.68,1.24,-19.008,-88.44300000000001,-29.462400000000002,175,75
2026-05-09 16:04:27.845,3,-6.66,5.31,4.75,161.0654,199.29860000000002,282.5564,175,75
2026-05-09 16:04:27.845,2,-2.51,0.29,0.74,-42.708600000000004,133.0314,92.8394,175,75
2026-05-09 16:04:27.845,4,-0.12,0.51,1.16,-22.788,-54.353,-19.8324,175,75
2026-05-09 16:04:27.857,3,0.83,-0.7,4.39,360.0854,353.7486,37.07640000000001,175,75
2026-05-09 16:04:27.857,2,-1.35,-0.35,-0.03,27.1714,197.66140000000001,92.6494,175,75
2026-05-09 16:04:27.857,5,-0.53,0.22,-0.06,-209.5838,-210.97179999999997,-124.521,175,75
2026-05-09 16:04:27.857,4,0.18,0.26,1.08,-27.058,-28.683000000000003,-16.352400000000003,175,75
2026-05-09 16:04:27.866,5,0.49,0.19,-0.5,-224.28379999999999,-93.4818,-161.281,175,75
2026-05-09 16:04:27.878,1,-0.03,-0.15,0.62,-394.3286,71.5072,34.2556,175,75
2026-05-09 16:04:27.878,3,-2.19,0.2,0.18,-62.4146,-422.3514,314.1464,175,75
2026-05-09 16:04:27.878,5,1.53,0.14,-1.11,-195.10379999999998,90.6982,-136.811,175,75
2026-05-09 16:04:27.878,2,-1.01,-0.78,0.25,96.9314,11.081399999999999,93.5094,175,75
2026-05-09 16:04:27.893,5,1.6,0.56,-1.39,-153.98379999999997,246.2982,-90.451,175,75
2026-05-09 16:04:27.893,5,0.88,0.76,-0.92,-142.6838,246.2982,-96.33099999999999,175,75
2026-05-09 16:04:27.906,3,-0.78,-2.03,0.92,194.96540000000002,278.0786,33.906400000000005,175,75
2026-05-09 16:04:27.906,2,-0.82,-1.01,0.23,87.4114,0.47139999999999915,115.8794,175,75
2026-05-09 16:04:27.906,2,-0.56,-1.29,0.14,46.1314,-36.5986,137.76940000000002,175,75
2026-05-09 16:04:27.916,5,1.54,1.07,-0.54,-165.5238,246.2982,-106.72099999999999,175,75
2026-05-09 16:04:27.919,5,2.0,1.72,0.1,-246.4238,246.2982,-33.481,175,75
2026-05-09 16:04:27.936,5,2.0,1.46,0.37,-246.48379999999997,246.2982,56.509,175,75
2026-05-09 16:04:27.936,2,-0.62,-1.36,-0.37,2.661399999999997,-33.068599999999996,77.2894,175,75
2026-05-09 16:04:27.936,4,1.56,-0.66,1.63,-8.398,198.207,15.777599999999998,175,75
2026-05-09 16:04:27.946,1,-0.24,0.03,2.22,-196.9486,227.59720000000002,26.1456,175,75
2026-05-09 16:04:27.946,5,2.0,2.0,2.0,-246.48379999999997,246.2982,253.369,175,75
2026-05-09 16:04:27.972,5,-0.05,-0.71,2.0,-246.48379999999997,152.24820000000003,253.369,175,75
2026-05-09 16:04:27.972,3,-0.25,-0.39,1.85,62.465399999999995,-20.821399999999997,46.766400000000004,175,75
2026-05-09 16:04:27.972,5,0.16,-1.26,2.0,-246.48379999999997,246.2982,253.369,175,75
2026-05-09 16:04:27.972,1,0.25,0.96,2.52,-84.0786,194.3672,-1.5443999999999996,175,75
2026-05-09 16:04:27.983,4,1.43,-0.57,1.73,13.612000000000002,126.61699999999999,-9.102400000000001,175,75
2026-05-09 16:04:28.006,4,0.93,-1.01,1.45,26.052000000000003,67.65700000000001,8.277599999999998,175,75
2026-05-09 16:04:28.006,3,-0.37,-0.15,1.21,45.1454,-46.681400000000004,47.016400000000004,175,75
2026-05-09 16:04:28.006,2,-0.2,-1.13,-0.44,79.00139999999999,-100.07860000000001,-15.4606,175,75
2026-05-09 16:04:28.006,2,-0.17,-1.36,-0.53,62.4114,-101.5986,11.009400000000001,175,75
2026-05-09 16:04:28.006,5,-2.0,-2.0,2.0,-1.1837999999999997,246.2982,48.419,175,75
2026-05-09 16:04:28.013,1,0.31,1.65,2.74,-3.7186000000000003,54.857200000000006,10.6556,175,75
2026-05-09 16:04:28.013,3,-0.73,-0.24,1.02,42.3454,-6.8614,26.3464,175,75
2026-05-09 16:04:28.013,2,-0.32,-1.47,-0.71,39.0614,-66.6586,34.9694,175,75
2026-05-09 16:04:28.026,1,0.39,1.74,2.67,32.3814,-14.4728,23.5856,175,75
2026-05-09 16:04:28.026,5,-2.0,-2.0,2.0,78.3462,-32.9018,-111.021,175,75
2026-05-09 16:04:28.026,3,-0.6,-0.33,1.24,41.5554,29.0486,-4.5135999999999985,175,75
2026-05-09 16:04:28.057,5,-2.0,-0.86,2.0,113.4462,-253.97179999999997,-246.90099999999998,175,75
2026-05-09 16:04:28.057,2,-0.71,-1.36,-0.73,12.961399999999998,103.4614,3.2594000000000003,175,75
2026-05-09 16:04:28.057,1,0.35,1.39,2.19,121.22139999999999,-102.7028,46.8756,175,75
2026-05-09 16:04:28.057,3,-0.27,-0.53,1.33,11.2454,-23.931399999999996,-14.3936,175,75
2026-05-09 16:04:28.057,2,-0.6,-1.17,-0.52,22.541399999999996,146.9314,-19.9706,175,75
2026-05-09 16:04:28.068,1,0.36,1.24,1.98,165.79139999999998,-109.5328,48.275600000000004,175,75
2026-05-09 16:04:28.068,3,-0.21,-0.68,1.24,6.9154,-20.5214,-26.6436,175,75
2026-05-09 16:04:28.068,5,1.27,0.53,1.5,117.47619999999999,-253.97179999999997,-246.90099999999998,175,75
2026-05-09 16:04:28.068,4,0.64,-0.54,1.5,-8.708,58.147,-26.2324,175,75
2026-05-09 16:04:28.079,2,-0.33,-0.77,-0.03,54.121399999999994,159.4314,-48.510600000000004,175,75
2026-05-09 16:04:28.079,5,2.0,1.1,0.68,102.3462,-221.43179999999998,-246.90099999999998,175,75
2026-05-09 16:04:28.079,2,-0.22,-0.64,0.14,65.22139999999999,133.0914,-57.3506,175,75
2026-05-09 16:04:28.089,5,2.0,1.24,0.53,108.6862,-50.0718,-77.871,175,75
2026-05-09 16:04:28.089,3,0.3,-0.97,1.07,3.1354000000000006,-52.961400000000005,-25.793599999999998,175,75
2026-05-09 16:04:28.089,1,0.34,0.74,1.68,327.69140000000004,-56.422799999999995,59.2556,175,75
2026-05-09 16:04:28.089,5,1.75,1.09,0.78,78.4462,130.37820000000002,45.479,175,75
2026-05-09 16:04:28.089,2,-0.17,-0.54,0.23,46.7414,-1.9686000000000003,-53.8706,175,75
2026-05-09 16:04:28.089,1,0.3,0.59,1.71,354.2114,-48.1328,62.665600000000005,175,75
2026-05-09 16:04:28.103,3,0.39,-1.06,0.86,1.6753999999999998,-65.0314,-13.473599999999998,175,75
2026-05-09 16:04:28.103,4,0.01,-0.11,1.86,-5.537999999999999,-145.273,-40.1924,175,75
2026-05-09 16:04:28.129,5,0.32,0.48,0.86,11.4162,-102.51180000000001,68.769,175,75
2026-05-09 16:04:28.129,2,-0.51,0.08,0.23,26.8114,40.041399999999996,-70.5206,175,75
2026-05-09 16:04:28.129,3,0.68,-0.52,0.34,34.6054,-65.8914,34.0864,175,75
2026-05-09 16:04:28.138,2,-0.38,0.15,0.35,29.4914,55.5914,-69.4806,175,75
2026-05-09 16:04:28.138,5,0.66,0.0,0.54,11.446200000000001,-73.3018,69.38900000000001,175,75
2026-05-09 16:04:28.138,1,0.12,-0.57,1.22,443.8414,-86.2428,64.8056,175,75
2026-05-09 16:04:28.149,3,0.5,-0.43,0.57,64.72540000000001,-41.3114,53.656400000000005,175,75
2026-05-09 16:04:28.149,2,-0.34,0.19,0.38,25.341399999999997,44.4914,-69.8506,175,75
2026-05-09 16:04:28.161,4,-0.21,0.7,1.02,-10.478,-73.803,-15.1324,175,75
2026-05-09 16:04:28.161,1,-0.05,-0.7,1.25,441.95140000000004,-98.55279999999999,61.5056,175,75
2026-05-09 16:04:28.161,3,0.61,-0.58,0.62,87.9554,-13.141399999999999,68.5964,175,75
2026-05-09 16:04:28.181,2,-0.35,0.27,0.38,18.091399999999997,11.8714,-71.8606,175,75
2026-05-09 16:04:28.181,1,-0.1,-0.82,1.51,441.3414,-109.0428,53.525600000000004,175,75
2026-05-09 16:04:28.181,1,-0.0,-1.07,1.81,430.9214,-146.6028,48.8256,175,75
2026-05-09 16:04:28.190,2,-0.4,0.72,0.26,3.0213999999999963,-79.2286,-70.0306,175,75
2026-05-09 16:04:28.190,1,0.02,-1.26,1.82,410.7314,-214.1028,44.3756,175,75
2026-05-09 16:04:28.202,4,-0.27,0.94,1.66,-8.888,-29.903000000000002,-32.3924,175,75
2026-05-09 16:04:28.202,5,0.0,0.02,0.06,53.8362,-92.1018,35.708999999999996,175,75
2026-05-09 16:04:28.202,4,-0.35,0.96,1.7,-10.108,-67.71300000000001,-41.0524,175,75
2026-05-09 16:04:28.202,2,-0.42,1.15,0.13,14.981399999999997,-81.5386,-40.150600000000004,175,75
2026-05-09 16:04:28.203,1,-0.15,-1.22,1.05,344.82140000000004,-306.4828,50.4756,175,75
2026-05-09 16:04:28.207,3,0.12,-0.02,1.47,164.5454,29.238599999999998,89.99640000000001,175,75
2026-05-09 16:04:28.207,4,-0.48,0.93,1.71,-11.328,-104.78300000000002,-46.7224,175,75
2026-05-09 16:04:28.215,5,-0.04,-0.01,-0.03,83.9962,-124.0218,85.909,175,75
2026-05-09 16:04:28.227,1,-0.56,-1.01,0.4,316.5914,-288.62280000000004,23.215600000000002,175,75
2026-05-09 16:04:28.227,2,-0.63,0.91,0.06,19.851399999999998,-44.5886,-30.090600000000002,175,75
2026-05-09 16:04:28.227,1,-0.53,-0.9,0.06,306.83140000000003,-241.2428,6.5656,175,75
2026-05-09 16:04:28.227,5,-0.16,-0.09,-0.21,96.0562,-129.3918,93.509,175,75
2026-05-09 16:04:28.239,2,-0.67,0.73,0.09,9.791399999999998,-18.858600000000003,-33.6906,175,75
2026-05-09 16:04:28.239,1,-0.2,-0.78,0.08,298.8414,-164.9628,6.1456,175,75
2026-05-09 16:04:28.239,5,-0.3,-0.12,-0.51,106.22619999999999,-144.0718,103.309,175,75
2026-05-09 16:04:28.239,3,-0.55,0.83,1.1,213.74540000000002,100.3286,98.0464,175,75
2026-05-09 16:04:28.239,4,-0.68,0.87,1.54,-10.898,-102.833,-52.882400000000004,175,75
2026-05-09 16:04:28.249,1,0.11,-0.39,-0.08,304.33140000000003,-109.1028,13.2156,175,75
2026-05-09 16:04:28.249,2,-0.58,0.62,0.16,0.4013999999999953,-10.318600000000002,-35.8806,175,75
2026-05-09 16:04:28.249,5,-0.43,-0.47,-0.47,147.3762,-182.1318,124.489,175,75
2026-05-09 16:04:28.249,3,-0.03,0.59,1.17,182.83540000000002,87.8286,121.4664,175,75
2026-05-09 16:04:28.261,4,-0.49,0.87,1.47,-12.668,-46.063,-40.382400000000004,175,75
2026-05-09 16:04:28.261,2,-0.6,0.54,0.21,-3.4986000000000033,-15.868600000000002,-37.3506,175,75
2026-05-09 16:04:28.261,5,-0.08,-0.3,-1.19,163.6662,-226.3918,154.78900000000002,175,75
2026-05-09 16:04:28.261,3,0.14,0.52,0.95,162.58540000000002,42.5286,96.7664,175,75
2026-05-09 16:04:28.261,4,-0.24,0.83,1.44,-9.437999999999999,12.476999999999997,-28.912399999999998,175,75
2026-05-09 16:04:28.266,5,0.67,-0.25,-1.78,177.71620000000001,-210.0718,168.209,175,75
2026-05-09 16:04:28.283,5,0.75,-0.34,-1.58,160.21620000000001,-104.4618,119.699,175,75
2026-05-09 16:04:28.283,3,0.14,0.67,0.75,130.6954,63.748599999999996,85.7364,175,75
2026-05-09 16:04:28.283,4,0.21,0.65,1.47,0.9320000000000004,79.11699999999999,-2.0824000000000016,175,75
2026-05-09 16:04:28.283,1,-0.03,-0.77,1.0,-340.9686,912.5372,-145.2644,175,75
2026-05-09 16:04:28.294,5,0.11,-0.22,-0.56,115.1562,-26.9018,81.869,175,75
2026-05-09 16:04:28.294,3,0.32,1.01,0.79,101.3654,99.1786,98.71640000000001,175,75
2026-05-09 16:04:28.294,2,-0.61,-0.3,0.31,-29.6586,-119.5286,-1.0706,175,75
2026-05-09 16:04:28.294,5,-0.19,-0.29,0.11,72.6762,17.6082,82.059,175,75
2026-05-09 16:04:28.301,3,0.23,0.83,0.77,45.6954,4.538600000000001,76.27640000000001,175,75
2026-05-09 16:04:28.314,5,-0.11,-0.41,0.39,42.3962,65.7782,93.649,175,75
2026-05-09 16:04:28.314,4,0.44,0.06,1.44,10.802,-5.273000000000003,14.867599999999998,175,75
2026-05-09 16:04:28.314,1,0.24,1.59,7.01,-864.3886,35.8972,14.1356,175,75
2026-05-09 16:04:28.314,1,0.91,2.64,2.72,-230.23860000000002,-174.7128,72.78559999999999,175,75
2026-05-09 16:04:28.325,2,-0.65,-1.15,0.35,-47.458600000000004,-180.1386,54.4794,175,75
2026-05-09 16:04:28.325,5,0.22,-0.35,0.46,12.0862,146.15820000000002,92.629,175,75
2026-05-09 16:04:28.336,1,-1.26,0.33,0.8,-3.0486000000000004,-118.2528,31.9356,175,75
2026-05-09 16:04:28.336,5,2.0,-0.25,0.52,-39.583800000000004,246.2982,48.038999999999994,175,75
2026-05-09 16:04:28.348,1,0.42,-1.03,-0.01,-79.20859999999999,-143.5528,2.1156000000000006,175,75
2026-05-09 16:04:28.348,2,-1.53,-1.96,-0.22,-37.278600000000004,-153.0686,126.4294,175,75
2026-05-09 16:04:28.348,5,2.0,-0.18,0.72,-43.2338,246.2982,-60.261,175,75
2026-05-09 16:04:28.348,3,0.03,1.16,1.12,-37.7746,-11.9214,-0.42359999999999687,175,75
2026-05-09 16:04:28.348,4,1.39,-0.98,1.47,13.672,202.227,89.4976,175,75
2026-05-09 16:04:28.372,4,1.41,-0.9,1.97,-21.878,152.537,51.5676,175,75
2026-05-09 16:04:28.372,5,2.0,0.77,2.0,-133.07379999999998,246.2982,-246.90099999999998,175,75
2026-05-09 16:04:28.372,2,-2.31,-1.99,-0.4,-2.458600000000004,-23.1886,-6.6806,175,75
2026-05-09 16:04:28.385,3,0.18,0.91,0.6,-86.6746,-86.4314,-79.2036,175,75
2026-05-09 16:04:28.385,5,0.37,-0.28,2.0,-134.35379999999998,246.2982,-246.90099999999998,175,75
2026-05-09 16:04:28.385,4,1.3,-0.8,2.11,-30.108,77.40700000000001,35.4176,175,75
2026-05-09 16:04:28.385,1,0.77,-0.18,0.75,-52.0086,-4.9028,26.9356,175,75
2026-05-09 16:04:28.385,5,-1.03,-0.31,2.0,-116.3438,246.2982,-246.90099999999998,175,75
2026-05-09 16:04:28.395,3,0.41,1.01,0.26,-116.43459999999999,-71.0114,-126.89359999999999,175,75
2026-05-09 16:04:28.395,4,1.17,-0.88,1.97,-11.208,16.497,39.1376,175,75
2026-05-09 16:04:28.407,1,-0.17,-0.03,0.34,-2.858599999999999,-11.6628,38.5856,175,75
2026-05-09 16:04:28.407,5,-2.0,0.3,2.0,-49.1038,76.0882,-20.551,175,75
2026-05-09 16:04:28.419,2,-1.4,-1.62,0.07,33.2714,35.8414,-45.4606,175,75
2026-05-09 16:04:28.419,5,-2.0,0.59,2.0,-36.3938,-114.8118,101.149,175,75
2026-05-09 16:04:28.426,2,-1.32,-1.49,0.13,33.4514,46.2614,-21.550600000000003,175,75
2026-05-09 16:04:28.426,2,-1.26,-1.36,0.21,33.7014,66.9314,-10.3406,175,75
2026-05-09 16:04:28.426,5,-1.71,0.78,2.0,-50.5538,-196.12179999999998,93.769,175,75
2026-05-09 16:04:28.441,2,-1.12,-1.18,0.3,38.8814,86.6314,-14.240599999999999,175,75
2026-05-09 16:04:28.441,4,1.0,-0.95,1.83,-26.938,-59.293000000000006,10.167599999999998,175,75
2026-05-09 16:04:28.444,3,-0.9,1.01,1.61,-171.31459999999998,122.76859999999999,-201.40359999999998,175,75
2026-05-09 16:04:28.444,4,0.88,-0.57,1.97,-27.978,-120.333,-6.662400000000001,175,75
2026-05-09 16:04:28.455,2,-0.94,-0.88,0.39,52.4114,78.8814,-41.010600000000004,175,75
2026-05-09 16:04:28.456,1,-0.47,-0.71,1.25,52.5014,156.1972,44.8656,175,75
2026-05-09 16:04:28.456,3,-12.01,6.08,7.96,318.93539999999996,480.4586,655.6063999999999,175,75
2026-05-09 16:04:28.456,2,-0.86,-0.49,0.41,65.8314,31.9914,-81.56060000000001,175,75
2026-05-09 16:04:28.475,5,0.96,-0.29,1.33,-29.8538,-253.97179999999997,253.369,175,75
2026-05-09 16:04:28.475,4,0.65,0.04,1.74,-18.768,-225.573,-60.3224,175,75
2026-05-09 16:04:28.475,2,-0.8,-0.14,0.41,71.2014,-13.798600000000002,-121.6206,175,75
2026-05-09 16:04:28.475,1,0.21,-0.66,2.08,32.3814,156.0772,39.2556,175,75
2026-05-09 16:04:28.486,5,1.25,-0.81,0.6,-11.2538,-253.97179999999997,253.369,175,75
2026-05-09 16:04:28.486,2,-0.76,0.12,0.39,70.1614,-41.6586,-153.6306,175,75
2026-05-09 16:04:28.486,4,0.59,0.4,1.49,-22.918,-258.933,-85.19239999999999,175,75
2026-05-09 16:04:28.486,3,0.4,-4.01,2.96,-297.5946,-811.0714,-491.0336,175,75
2026-05-09 16:04:28.486,1,0.17,-0.54,2.13,21.471400000000003,117.41720000000001,31.995600000000003,175,75
2026-05-09 16:04:28.495,5,1.51,-1.2,-0.03,33.1262,-253.97179999999997,253.369,175,75
2026-05-09 16:04:28.524,2,-0.07,0.63,0.29,40.8314,-7.3986,-33.8706,175,75
2026-05-09 16:04:28.524,5,0.1,-0.61,0.05,97.8462,16.1782,-0.7809999999999997,175,75
2026-05-09 16:04:28.524,1,0.38,-0.1,2.13,-0.05860000000000021,87.1172,12.915600000000001,175,75
2026-05-09 16:04:28.524,2,-0.82,0.83,0.21,32.111399999999996,21.751399999999997,47.4094,175,75
2026-05-09 16:04:28.524,2,-0.91,0.63,0.27,24.371399999999998,41.2614,72.5294,175,75
2026-05-09 16:04:28.524,3,1.18,-1.71,-1.15,-52.7746,94.7186,24.576400000000003,175,75
2026-05-09 16:04:28.536,1,0.62,0.64,1.32,-29.208599999999997,47.967200000000005,12.605599999999999,175,75
2026-05-09 16:04:28.536,3,0.69,-1.66,0.04,11.6754,119.5386,-58.723600000000005,175,75
2026-05-09 16:04:28.536,1,0.56,0.95,0.75,-38.3486,8.517199999999999,7.1756,175,75
2026-05-09 16:04:28.547,5,-0.79,-0.2,0.38,83.25619999999999,72.0182,-242.611,175,75
2026-05-09 16:04:28.547,3,0.58,-0.74,2.24,50.6354,119.2386,-40.5436,175,75
2026-05-09 16:04:28.569,4,0.16,1.01,1.37,-6.327999999999999,52.10699999999999,7.727600000000001,175,75
2026-05-09 16:04:28.578,5,-0.42,0.45,-0.09,20.8662,-22.3018,-246.90099999999998,175,75
2026-05-09 16:04:28.578,2,-0.43,1.07,0.13,38.2114,-72.2086,22.9594,175,75
2026-05-09 16:04:28.584,1,0.91,1.91,2.86,114.94139999999999,51.3172,15.1056,175,75
2026-05-09 16:04:28.584,1,0.99,2.2,2.72,165.5514,38.697199999999995,15.9556,175,75
2026-05-09 16:04:28.599,5,0.52,-0.4,0.11,15.2662,-75.4518,-246.90099999999998,175,75
2026-05-09 16:04:28.599,2,-0.47,0.82,0.09,37.231399999999994,-73.6186,46.9794,175,75
2026-05-09 16:04:28.599,1,0.54,1.99,2.52,192.6914,47.5372,20.2256,175,75
2026-05-09 16:04:28.637,4,0.48,0.34,1.39,-5.898,43.38699999999999,-45.6824,175,75
2026-05-09 16:04:28.638,2,-0.49,-0.15,0.04,-15.568600000000004,-61.5986,17.4694,175,75
2026-05-09 16:04:28.638,2,-0.6,-0.11,-0.06,-8.128600000000006,-36.9686,-4.4206,175,75
2026-05-09 16:04:28.638,4,0.66,0.33,1.42,-1.9379999999999988,66.007,-44.1024,175,75
2026-05-09 16:04:28.638,5,-0.07,0.02,-0.3,1.7662000000000002,-40.7218,23.139,175,75
2026-05-09 16:04:28.648,2,-0.76,0.11,-0.13,10.891399999999997,-1.0486000000000004,-18.3806,175,75
2026-05-09 16:04:28.648,1,-3.86,-4.08,-11.13,333.4214,-247.6428,126.6956,175,75
2026-05-09 16:04:28.658,2,-0.86,0.3,-0.06,33.6314,49.5514,-15.2106,175,75
2026-05-09 16:04:28.659,3,-0.19,0.08,1.07,133.3854,97.5886,87.0164,175,75
2026-05-09 16:04:28.659,4,0.7,0.09,1.57,16.172,54.977,-43.9124,175,75
2026-05-09 16:04:28.659,5,0.22,-0.05,-0.01,31.026200000000003,41.3082,41.608999999999995,175,75
2026-05-09 16:04:28.659,1,0.02,-1.66,0.4,-228.89860000000002,895.8972,-216.2344,175,75
2026-05-09 16:04:28.674,2,-0.89,0.08,0.03,40.8314,75.4714,6.4894,175,75
2026-05-09 16:04:28.674,3,-0.28,-0.12,1.34,104.5454,80.0886,98.8464,175,75
2026-05-09 16:04:28.674,3,-0.36,-0.14,1.22,82.28540000000001,30.3286,96.0364,175,75
2026-05-09 16:04:28.677,2,-0.92,-0.24,0.07,34.1814,65.1614,33.1394,175,75
2026-05-09 16:04:28.695,5,1.14,-0.1,0.04,41.1462,214.97820000000002,160.889,175,75
2026-05-09 16:04:28.695,2,-0.89,-0.69,0.11,19.431399999999996,28.821399999999997,68.8094,175,75
2026-05-09 16:04:28.695,4,0.27,-0.73,1.3,19.772000000000002,-25.823000000000004,-38.1224,175,75
2026-05-09 16:04:28.695,1,-1.85,-0.09,0.88,15.2514,-12.0328,-1.4744000000000002,175,75
2026-05-09 16:04:28.695,3,-0.75,-0.13,0.8,46.1854,37.5886,95.3664,175,75
2026-05-09 16:04:28.706,5,1.46,0.19,0.34,31.416200000000003,246.2982,253.369,175,75
2026-05-09 16:04:28.706,2,-0.78,-1.18,0.11,-1.058600000000002,-19.708599999999997,122.3494,175,75
2026-05-09 16:04:28.706,5,0.39,0.03,1.91,-35.4238,59.2082,253.369,175,75
2026-05-09 16:04:28.706,1,-0.03,-0.69,0.52,-47.4986,33.63720000000001,14.1356,175,75
2026-05-09 16:04:28.717,2,-0.98,-1.63,0.03,-3.558600000000002,-31.178599999999996,168.5094,175,75
2026-05-09 16:04:28.717,4,0.2,-1.0,1.11,9.712,-61.793000000000006,-27.6324,175,75
2026-05-09 16:04:28.717,5,1.75,-0.71,2.0,-79.3938,14.9582,67.869,175,75
2026-05-09 16:04:28.717,3,-0.55,0.01,1.01,33.565400000000004,22.038600000000002,41.0364,175,75
2026-05-09 16:04:28.728,2,-1.44,-1.84,-0.15,16.261399999999995,54.7414,154.5994,175,75
2026-05-09 16:04:28.745,5,2.0,-0.11,2.0,-191.0638,223.06820000000002,-65.261,175,75
2026-05-09 16:04:28.745,2,-1.53,-1.92,-0.21,53.511399999999995,123.1514,100.0294,175,75
2026-05-09 16:04:28.760,4,0.6,-0.11,1.27,-36.088,-41.243,-80.74239999999999,175,75
2026-05-09 16:04:28.760,5,0.33,-0.72,2.0,-204.07379999999998,246.2982,108.519,175,75
2026-05-09 16:04:28.760,4,0.76,0.09,1.28,-32.428,-24.483000000000004,-8.3024,175,75
2026-05-09 16:04:28.772,1,0.01,-0.53,0.36,102.0814,-1.9128000000000007,1.0856000000000003,175,75
2026-05-09 16:04:28.772,5,-2.0,-1.7,2.0,-123.9038,246.2982,-35.941,175,75
2026-05-09 16:04:28.772,4,0.46,-0.08,1.16,-13.097999999999999,-0.5730000000000004,53.45759999999999,175,75
2026-05-09 16:04:28.772,2,-0.94,-1.04,0.26,88.2714,75.8414,-106.2506,175,75
2026-05-09 16:04:28.772,3,0.02,-0.1,0.3,-132.2846,-80.7014,-42.8036,175,75
2026-05-09 16:04:28.784,5,-2.0,-1.46,2.0,-50.7438,246.2982,-214.261,175,75
2026-05-09 16:04:28.784,1,0.11,-0.65,0.48,140.73139999999998,-12.9428,9.1356,175,75
2026-05-09 16:04:28.784,4,0.22,-0.37,1.18,-10.538,29.306999999999995,66.6376,175,75
2026-05-09 16:04:28.784,2,-0.76,-0.92,0.3,44.5514,67.4814,-95.7006,175,75
2026-05-09 16:04:28.784,3,0.28,-0.08,0.54,-154.66459999999998,-71.0714,-64.2636,175,75
2026-05-09 16:04:28.796,4,0.15,-0.45,1.29,-24.378,54.787,62.17759999999999,175,75
2026-05-09 16:04:28.796,3,0.44,-0.03,0.69,-178.3246,-89.9714,-77.50359999999999,175,75
2026-05-09 16:04:28.796,5,-2.0,-0.64,2.0,84.7362,-4.7818,-189.671,175,75
2026-05-09 16:04:28.796,2,-0.61,-0.81,0.39,-7.158600000000003,113.3414,-60.8806,175,75
2026-05-09 16:04:28.810,1,-0.18,-0.81,1.04,212.5614,-27.6428,28.525599999999997,175,75
2026-05-09 16:04:28.810,3,0.47,0.06,0.74,-208.0246,-110.9514,-82.3136,175,75
2026-05-09 16:04:28.810,5,-2.0,0.05,2.0,106.9662,-245.46179999999998,-149.781,175,75
2026-05-09 16:04:28.810,2,-0.38,-0.64,0.47,-25.3286,195.7714,-15.820599999999999,175,75
2026-05-09 16:04:28.810,4,0.68,0.18,1.72,-44.498000000000005,79.547,39.3176,175,75
2026-05-09 16:04:28.821,3,0.46,0.13,0.67,-230.5246,-110.7614,-94.75359999999999,175,75
2026-05-09 16:04:28.821,5,-1.83,0.34,2.0,90.6662,-253.97179999999997,-159.811,175,75
2026-05-09 16:04:28.821,1,0.41,-0.66,0.72,224.7014,34.797200000000004,-0.9943999999999997,175,75
2026-05-09 16:04:28.821,2,-0.35,-0.28,0.49,-8.558600000000006,236.2614,11.679400000000001,175,75
2026-05-09 16:04:28.821,1,0.24,-0.34,0.14,162.01139999999998,55.52720000000001,-10.4444,175,75
2026-05-09 16:04:28.835,5,-1.0,0.49,1.55,66.8162,-253.97179999999997,-166.751,175,75
2026-05-09 16:04:28.835,2,-0.43,0.1,0.53,19.981399999999997,246.0814,-2.4706,175,75
2026-05-09 16:04:28.835,4,0.75,0.95,1.9,-29.988,62.287,36.9976,175,75
2026-05-09 16:04:28.835,5,-0.09,0.4,0.74,67.0562,-253.97179999999997,-118.58099999999999,175,75
2026-05-09 16:04:28.846,2,-0.56,0.5,0.55,52.4114,235.7714,-46.6806,175,75
2026-05-09 16:04:28.846,1,-0.35,0.48,0.19,27.9314,143.8872,-29.9544,175,75
2026-05-09 16:04:28.846,3,0.6,0.18,0.6,-229.66459999999998,-34.3614,-109.14359999999999,175,75
2026-05-09 16:04:28.846,4,0.62,1.24,1.91,-20.478,46.737,18.7076,175,75
2026-05-09 16:04:28.846,5,0.58,0.42,0.25,64.5062,-253.97179999999997,-66.551,175,75
2026-05-09 16:04:28.846,1,-0.49,1.12,-0.74,-40.1786,72.3572,-27.574399999999997,175,75
2026-05-09 16:04:28.849,2,-0.71,1.04,0.57,84.1814,215.6514,-104.2406,175,75
2026-05-09 16:04:28.852,3,0.62,-0.04,0.63,-224.66459999999998,-6.1314,-109.5136,175,75
2026-05-09 16:04:28.852,4,0.49,1.34,1.89,-11.088,17.287,12.1776,175,75
2026-05-09 16:04:28.859,5,2.0,0.29,-0.78,78.00619999999999,-253.97179999999997,96.349,175,75
2026-05-09 16:04:28.863,3,0.62,-0.19,0.67,-223.9946,9.5986,-123.2336,175,75
2026-05-09 16:04:28.863,4,0.27,1.23,1.78,3.362000000000002,-24.723000000000003,10.8376,175,75
2026-05-09 16:04:28.872,1,-0.04,-0.75,-1.65,-413.7186,125.28720000000001,-64.1644,175,75
2026-05-09 16:04:28.872,2,-0.25,1.99,0.34,76.56139999999999,86.3814,-39.7906,175,75
2026-05-09 16:04:28.884,5,1.7,0.67,-2.0,221.9762,-216.3518,253.369,175,75
2026-05-09 16:04:28.884,4,0.05,0.92,1.57,16.842,-62.593,4.4976,175,75
2026-05-09 16:04:28.884,1,-0.01,-1.6,-1.27,-486.7686,109.6172,-79.1644,175,75
2026-05-09 16:04:28.884,3,0.96,-0.21,0.89,-203.0246,92.2786,-122.3736,175,75
2026-05-09 16:04:28.884,2,-0.64,1.45,0.33,46.4414,-26.788600000000002,-9.7906,175,75
2026-05-09 16:04:28.895,5,0.06,-0.15,-2.0,162.95620000000002,-118.4918,122.159,175,75
2026-05-09 16:04:28.895,4,-0.12,0.61,1.36,13.362000000000002,-64.783,-16.962400000000002,175,75
2026-05-09 16:04:28.895,3,0.62,-0.12,1.78,-171.8046,100.8186,-107.6236,175,75
2026-05-09 16:04:28.895,5,-1.47,-0.69,-1.52,127.1462,-141.77179999999998,-37.101000000000006,175,75
2026-05-09 16:04:28.906,4,-0.11,0.55,1.26,0.32200000000000095,-39.053000000000004,-35.6224,175,75
2026-05-09 16:04:28.906,1,-0.3,-3.89,0.26,-584.3886,130.7072,-62.4544,175,75
2026-05-09 16:04:28.906,2,-0.89,0.52,0.22,-52.768600000000006,-134.0986,122.0994,175,75
2026-05-09 16:04:28.906,5,-1.91,-0.31,-0.72,100.6262,-252.18179999999998,-94.541,175,75
2026-05-09 16:04:28.906,3,0.42,0.16,2.31,-139.66459999999998,97.4686,-138.4136,175,75
2026-05-09 16:04:28.910,1,0.12,-3.31,1.3,-566.8886,90.77720000000001,-72.9444,175,75
2026-05-09 16:04:28.910,4,0.14,0.75,1.24,-18.588,30.82699999999999,-45.9924,175,75
2026-05-09 16:04:28.912,2,-0.28,0.45,0.14,-65.6286,-140.68859999999998,158.5694,175,75
2026-05-09 16:04:28.916,5,-1.67,-0.12,0.01,39.886199999999995,-253.97179999999997,-83.47099999999999,175,75
2026-05-09 16:04:28.916,3,0.85,0.67,1.95,-109.66460000000001,82.8886,-135.8536,175,75
2026-05-09 16:04:28.921,1,-0.26,-2.2,1.33,-592.7386,45.77719999999999,-46.544399999999996,175,75
2026-05-09 16:04:28.927,2,-1.29,0.38,0.13,-43.0686,-146.4186,7.899399999999999,175,75
2026-05-09 16:04:28.927,3,-1.01,1.89,2.43,-79.3046,87.0986,-43.2936,175,75
2026-05-09 16:04:28.927,5,-1.45,0.04,0.22,-56.9438,-253.97179999999997,-43.491,175,75
2026-05-09 16:04:28.941,1,-0.55,-1.65,1.66,-520.5486,92.72720000000001,-21.474400000000003,175,75
2026-05-09 16:04:28.941,2,-1.5,0.42,-0.23,-5.998600000000003,-8.428600000000001,-31.3706,175,75
2026-05-09 16:04:28.941,5,-1.3,-0.0,-0.06,-137.03379999999999,-253.97179999999997,-22.171,175,75
2026-05-09 16:04:28.941,3,-5.89,3.87,4.12,-9.4846,145.7586,204.3864,175,75
2026-05-09 16:04:28.941,4,0.45,0.89,1.38,-1.6980000000000004,108.207,-29.8324,175,75
2026-05-09 16:04:28.952,2,-0.65,0.34,-0.24,10.221399999999997,44.3114,-32.7706,175,75
2026-05-09 16:04:28.952,5,-0.97,0.11,-0.27,-210.5238,-253.97179999999997,-51.291000000000004,175,75
2026-05-09 16:04:28.952,1,-0.15,-0.18,2.08,-481.7686,158.2072,-20.504399999999997,175,75
2026-05-09 16:04:28.952,3,-3.72,2.15,4.95,295.3954,529.7185999999999,200.0564,175,75
2026-05-09 16:04:28.952,4,0.45,0.62,1.45,4.462,116.67699999999999,-22.6924,175,75
2026-05-09 16:04:28.952,2,-0.57,0.31,-0.19,5.161399999999997,67.5414,13.6294,175,75
2026-05-09 16:04:28.968,1,0.54,0.47,2.38,-445.35859999999997,126.19720000000001,-15.9944,175,75
2026-05-09 16:04:28.968,3,6.09,-4.31,2.39,248.9354,-118.8114,-209.0236,175,75
2026-05-09 16:04:28.968,2,-0.76,0.07,-0.11,-5.878600000000002,95.2914,47.4694,175,75
2026-05-09 16:04:28.968,1,0.27,0.18,1.78,-426.2786,89.30720000000001,-3.4944000000000006,175,75
2026-05-09 16:04:28.984,5,0.95,0.34,-1.04,-246.48379999999997,-36.0418,-147.581,175,75
2026-05-09 16:04:28.984,2,-0.63,-0.32,-0.01,-11.848600000000005,114.3714,56.489399999999996,175,75
2026-05-09 16:04:28.984,4,0.57,-0.22,1.45,10.802,149.907,-16.782400000000003,175,75
2026-05-09 16:04:28.984,1,0.07,-0.15,1.5,-404.3286,111.2572,-20.9944,175,75
2026-05-09 16:04:28.984,3,-4.38,0.21,-0.87,-92.8946,164.8486,307.9264,175,75
2026-05-09 16:04:28.984,5,1.79,0.4,-1.96,-187.97379999999998,218.43820000000002,-114.761,175,75
2026-05-09 16:04:28.997,2,-0.47,-0.81,0.03,-12.1586,103.4014,70.0294,175,75
2026-05-09 16:04:28.997,4,0.64,-0.49,1.41,18.672,148.627,-8.3024,175,75
2026-05-09 16:04:28.997,1,0.01,-0.23,1.67,-384.3886,112.5972,-40.3844,175,75
2026-05-09 16:04:29.007,5,0.93,0.8,-1.21,-138.94379999999998,246.2982,-128.251,175,75
2026-05-09 16:04:29.007,2,-0.27,-1.43,0.1,-5.148600000000002,61.8714,96.6194,175,75
2026-05-09 16:04:29.007,4,0.69,-0.68,1.39,24.712,150.097,-2.8824000000000005,175,75
2026-05-09 16:04:29.007,1,-0.04,-0.2,1.87,-358.7786,105.0372,-48.1244,175,75
2026-05-09 16:04:29.007,3,-0.67,-0.99,0.01,197.40540000000001,19.718600000000002,-135.5436,175,75
2026-05-09 16:04:29.007,5,1.66,1.39,-0.6,-145.5838,246.2982,-138.811,175,75
2026-05-09 16:04:29.007,4,0.77,-0.79,1.43,25.562,159.727,-5.932400000000001,175,75
2026-05-09 16:04:29.019,2,-0.26,-1.99,-0.06,-6.428600000000003,15.4714,128.19940000000003,175,75
2026-05-09 16:04:29.019,3,0.26,-0.18,0.74,111.43539999999999,215.38860000000003,-107.44359999999999,175,75
2026-05-09 16:04:29.019,4,0.94,-0.77,1.57,21.112,173.327,-18.4324,175,75
2026-05-09 16:04:29.019,2,-0.53,-2.02,-0.16,3.3313999999999986,-2.4586000000000006,132.8994,175,75
2026-05-09 16:04:29.031,1,0.08,-0.16,1.24,-326.3986,22.4772,-27.824399999999997,175,75
2026-05-09 16:04:29.031,5,2.0,2.0,-0.52,-246.48379999999997,246.2982,-48.321000000000005,175,75
2026-05-09 16:04:29.031,4,1.2,-0.64,1.8,15.012,172.897,-32.1524,175,75
2026-05-09 16:04:29.031,1,0.01,0.18,1.41,-304.93859999999995,31.807199999999998,-11.9044,175,75
2026-05-09 16:04:29.039,5,2.0,2.0,-1.87,-246.48379999999997,246.2982,-3.441,175,75
2026-05-09 16:04:29.040,4,1.35,-0.46,2.03,14.832,148.757,-34.4024,175,75
2026-05-09 16:04:29.046,2,-1.19,-1.61,-0.4,41.9314,-24.5886,-7.4106000000000005,175,75
2026-05-09 16:04:29.046,1,0.14,0.68,1.8,-279.68859999999995,-3.3127999999999993,3.5256000000000003,175,75
2026-05-09 16:04:29.046,5,1.24,2.0,2.0,-246.48379999999997,246.2982,253.369,175,75
2026-05-09 16:04:29.060,2,-0.82,-1.51,-0.32,57.3514,-37.0886,-81.7406,175,75
2026-05-09 16:04:29.060,1,0.01,0.94,1.82,-225.9686,-15.8128,10.2256,175,75
2026-05-09 16:04:29.060,5,-2.0,-0.86,2.0,-246.48379999999997,155.8982,253.369,175,75
2026-05-09 16:04:29.073,5,-2.0,-0.98,2.0,-203.8438,156.9582,253.369,175,75
2026-05-09 16:04:29.073,3,-1.1,0.15,0.64,48.4454,-13.0214,50.60640000000001,175,75
2026-05-09 16:04:29.085,5,-2.0,-2.0,2.0,-75.4538,96.37819999999999,246.309,175,75
2026-05-09 16:04:29.095,3,-0.96,-0.09,0.91,51.6754,75.3886,3.3564000000000007,175,75
2026-05-09 16:04:29.095,2,-0.37,-1.5,-0.29,56.9914,-94.9586,-16.3106,175,75
2026-05-09 16:04:29.095,5,-2.0,-2.0,2.0,65.3162,47.2682,32.229,175,75
2026-05-09 16:04:29.099,1,0.32,1.72,2.18,-12.188600000000001,-62.7628,-9.5844,175,75
2026-05-09 16:04:29.099,5,-2.0,-2.0,2.0,159.0462,-32.5018,-56.741,175,75
2026-05-09 16:04:29.107,1,0.23,1.69,2.18,31.5914,-47.2128,-5.1944,175,75
2026-05-09 16:04:29.107,3,-0.21,-0.39,1.76,8.4454,-5.2814,-27.193599999999996,175,75
2026-05-09 16:04:29.107,2,-0.62,-1.4,-0.61,81.9314,-55.868599999999994,10.6994,175,75
2026-05-09 16:04:29.108,1,0.26,1.57,2.37,77.50139999999999,-36.7228,1.0856000000000003,175,75
2026-05-09 16:04:29.127,3,-0.67,-0.36,1.22,-14.6646,-59.0614,-38.9036,175,75
2026-05-09 16:04:29.127,5,0.71,-0.56,2.0,103.5462,-253.97179999999997,-246.90099999999998,175,75
2026-05-09 16:04:29.147,1,0.44,1.24,2.07,221.9514,-62.8228,28.5856,175,75
2026-05-09 16:04:29.147,5,1.66,0.44,1.32,165.4362,-253.97179999999997,-246.90099999999998,175,75
2026-05-09 16:04:29.150,1,0.46,1.06,1.9,257.5014,-51.422799999999995,30.105600000000003,175,75
2026-05-09 16:04:29.168,4,0.11,-0.14,1.44,-3.708,-112.28300000000002,-20.742400000000004,175,75
2026-05-09 16:04:29.168,3,-0.01,-0.92,0.86,-34.364599999999996,-70.6414,-57.1936,175,75
2026-05-09 16:04:29.168,1,0.46,0.84,1.82,292.38140000000004,-36.5428,27.605600000000003,175,75
2026-05-09 16:04:29.168,5,2.0,0.74,0.45,161.21620000000001,-79.9518,-246.90099999999998,175,75
2026-05-09 16:04:29.168,4,0.09,-0.04,1.43,-8.218,-134.663,-25.0124,175,75
2026-05-09 16:04:29.183,5,2.0,1.18,0.58,179.4762,-80.0018,-128.801,175,75
2026-05-09 16:04:29.183,2,-0.4,-0.33,-0.22,38.3914,106.5114,-29.2406,175,75
2026-05-09 16:04:29.183,2,-0.48,-0.18,-0.13,40.4614,140.4714,-11.980599999999999,175,75
2026-05-09 16:04:29.183,3,0.68,-0.83,0.95,-40.214600000000004,-60.641400000000004,-58.9636,175,75
2026-05-09 16:04:29.194,5,1.13,1.56,0.67,126.4462,17.2182,-26.421,175,75
2026-05-09 16:04:29.194,1,0.58,0.27,1.97,375.7314,-17.9428,26.565600000000003,175,75
2026-05-09 16:04:29.194,2,-0.49,-0.18,-0.01,45.221399999999996,156.2014,-19.2406,175,75
2026-05-09 16:04:29.203,2,-0.46,-0.18,0.14,46.56139999999999,163.4014,-28.5106,175,75
2026-05-09 16:04:29.203,4,-0.05,0.57,1.34,-24.137999999999998,-173.683,-29.8324,175,75
2026-05-09 16:04:29.214,5,0.07,1.08,0.15,44.1562,38.4882,46.299,175,75
2026-05-09 16:04:29.214,2,-0.36,-0.1,0.3,41.1314,158.4014,-37.2306,175,75
2026-05-09 16:04:29.214,1,0.54,-0.0,1.93,420.4314,-24.6528,31.995600000000003,175,75
2026-05-09 16:04:29.225,5,-0.01,0.89,-0.0,42.2862,-18.1418,98.18900000000001,175,75
2026-05-09 16:04:29.225,2,-0.32,0.03,0.4,34.121399999999994,137.3614,-45.0906,175,75
2026-05-09 16:04:29.225,3,0.88,-0.07,0.63,-9.3646,-86.4314,-15.733599999999997,175,75
2026-05-09 16:04:29.235,5,0.15,0.64,-0.07,49.4062,-67.7718,151.439,175,75
2026-05-09 16:04:29.235,4,-0.03,0.72,1.2,-20.108,-159.233,-14.6524,175,75
2026-05-09 16:04:29.235,2,-0.28,0.2,0.47,25.521399999999996,100.7714,-51.8006,175,75
2026-05-09 16:04:29.235,3,0.64,0.18,0.56,17.645400000000002,-77.59140000000001,14.026399999999999,175,75
2026-05-09 16:04:29.245,5,0.33,0.41,-0.03,63.706199999999995,-96.7518,204.959,175,75
2026-05-09 16:04:29.245,1,0.42,-0.22,1.93,438.7214,-45.142799999999994,42.4256,175,75
2026-05-09 16:04:29.245,4,-0.01,0.69,1.16,-19.198,-145.153,-6.602400000000001,175,75
2026-05-09 16:04:29.245,2,-0.28,0.42,0.48,16.8114,40.9014,-54.7306,175,75
2026-05-09 16:04:29.245,1,0.43,-0.34,1.94,440.9214,-62.522800000000004,45.775600000000004,175,75
2026-05-09 16:04:29.248,5,0.45,0.23,0.13,78.6062,-90.5418,246.449,175,75
2026-05-09 16:04:29.248,4,0.01,0.66,1.16,-20.778,-131.853,-4.652400000000001,175,75
2026-05-09 16:04:29.265,5,0.35,0.16,0.24,86.0962,-67.5218,253.369,175,75
2026-05-09 16:04:29.265,2,-0.34,0.61,0.46,12.231399999999997,-7.1486,-51.8006,175,75
2026-05-09 16:04:29.265,3,0.25,0.05,0.84,79.90540000000001,-17.901400000000002,61.156400000000005,175,75
2026-05-09 16:04:29.265,1,0.31,-0.47,1.87,439.51140000000004,-97.2128,50.0456,175,75
2026-05-09 16:04:29.265,4,0.04,0.69,1.21,-27.488,-119.113,-11.7224,175,75
2026-05-09 16:04:29.265,2,-0.38,0.8,0.42,10.651399999999997,-48.3686,-46.7406,175,75
2026-05-09 16:04:29.274,5,0.23,0.05,0.24,88.8262,-43.3318,253.369,175,75
2026-05-09 16:04:29.274,1,0.35,-0.59,1.72,437.9914,-123.19279999999999,51.205600000000004,175,75
2026-05-09 16:04:29.274,3,-0.08,0.04,0.93,113.99539999999999,3.0186,91.8264,175,75
2026-05-09 16:04:29.274,4,0.08,0.77,1.26,-31.998,-96.793,-20.8024,175,75
2026-05-09 16:04:29.289,1,0.17,-0.71,1.57,431.0414,-160.5728,50.8956,175,75
2026-05-09 16:04:29.289,3,-0.61,0.19,1.29,139.6654,61.678599999999996,117.25640000000001,175,75
2026-05-09 16:04:29.289,4,0.13,0.81,1.28,-31.328,-76.613,-25.2624,175,75
2026-05-09 16:04:29.289,2,-0.46,1.17,0.25,15.341399999999997,-129.83859999999999,-27.7706,175,75
2026-05-09 16:04:29.289,5,-0.14,-0.13,0.18,95.5862,-22.541800000000002,233.769,175,75
2026-05-09 16:04:29.289,1,-0.02,-0.89,1.57,422.9314,-189.1028,44.735600000000005,175,75
2026-05-09 16:04:29.304,3,-0.59,0.09,1.64,163.5654,72.4686,153.1664,175,75
2026-05-09 16:04:29.304,5,-0.29,-0.18,0.14,100.7162,-27.9418,211.979,175,75
2026-05-09 16:04:29.304,4,0.2,0.82,1.29,-27.368000000000002,-54.543000000000006,-27.3324,175,75
2026-05-09 16:04:29.304,2,-0.57,1.17,0.31,14.371399999999998,-145.0786,-15.580599999999999,175,75
2026-05-09 16:04:29.304,1,-0.07,-1.0,1.79,412.69140000000004,-220.87279999999998,32.4256,175,75
2026-05-09 16:04:29.315,5,-0.44,-0.28,0.08,109.75619999999999,-40.101800000000004,185.399,175,75
2026-05-09 16:04:29.315,3,-0.35,0.14,1.39,175.3954,15.4586,157.5564,175,75
2026-05-09 16:04:29.315,2,-0.5,1.18,0.14,10.521399999999996,-148.3686,-17.0406,175,75
2026-05-09 16:04:29.315,1,-0.09,-1.19,2.11,397.38140000000004,-296.8528,23.885600000000004,175,75
2026-05-09 16:04:29.315,4,0.18,0.75,1.34,-23.398,-40.453,-33.1824,175,75
2026-05-09 16:04:29.325,5,-0.52,-0.33,0.02,122.0362,-56.8218,158.029,175,75
2026-05-09 16:04:29.325,3,-0.65,0.39,1.42,178.93540000000002,37.218599999999995,174.87640000000002,175,75
2026-05-09 16:04:29.325,2,-0.55,0.98,0.14,-5.088600000000003,-116.72860000000001,-16.0706,175,75
2026-05-09 16:04:29.325,1,-0.02,-1.39,1.67,385.31140000000005,-371.8528,8.5256,175,75
2026-05-09 16:04:29.335,5,-0.61,-0.28,-0.08,136.6862,-85.1918,135.159,175,75
2026-05-09 16:04:29.335,3,-0.51,0.45,1.61,189.6054,30.388599999999997,202.9264,175,75
2026-05-09 16:04:29.335,2,-0.55,0.77,0.15,-16.2986,-78.6186,-12.900599999999999,175,75
2026-05-09 16:04:29.335,5,-0.71,-0.42,-0.29,148.1862,-121.0418,114.149,175,75
2026-05-09 16:04:29.346,4,0.13,0.73,1.45,-30.418,-44.173,-59.522400000000005,175,75
2026-05-09 16:04:29.346,3,0.11,0.04,1.7,172.6454,-39.3014,223.1064,175,75
2026-05-09 16:04:29.346,2,-0.55,0.65,0.17,-16.488600000000005,-56.9686,-15.820599999999999,175,75
2026-05-09 16:04:29.346,1,-0.26,-1.34,-0.22,354.64140000000003,-335.81280000000004,-18.974400000000003,175,75
2026-05-09 16:04:29.346,4,0.18,0.75,1.44,-32.788,-41.493,-73.1224,175,75
2026-05-09 16:04:29.358,1,-0.3,-1.13,-1.76,353.9014,-257.2728,-22.4544,175,75
2026-05-09 16:04:29.358,3,0.35,-0.08,1.4,81.30539999999999,-132.4114,216.4664,175,75
2026-05-09 16:04:29.358,5,-0.68,0.11,-0.79,133.4462,-193.09179999999998,33.799,175,75
2026-05-09 16:04:29.358,4,0.3,0.79,1.38,-35.958,-16.983000000000004,-81.66239999999999,175,75
2026-05-09 16:04:29.372,3,0.12,0.33,0.7,79.6654,-183.7514,163.9664,175,75
2026-05-09 16:04:29.372,1,-2.54,-0.99,-10.59,496.5914,-1142.4628,-36.7844,175,75
2026-05-09 16:04:29.372,5,-0.2,-0.12,-0.69,90.3462,-192.03179999999998,-12.271,175,75
2026-05-09 16:04:29.372,2,-0.58,0.56,0.21,-11.9786,-59.3486,-21.800600000000003,175,75
2026-05-09 16:04:29.382,1,-8.13,-5.29,-13.89,271.1014,-28.4328,59.3756,175,75
2026-05-09 16:04:29.382,5,0.55,-0.44,-1.06,44.7562,-129.52179999999998,-37.711000000000006,175,75
2026-05-09 16:04:29.382,4,0.61,0.72,1.33,-30.168,97.227,-54.952400000000004,175,75
2026-05-09 16:04:29.396,3,0.47,0.72,0.32,82.77539999999999,-40.281400000000005,157.4364,175,75
2026-05-09 16:04:29.396,1,1.23,-0.42,1.12,-392.61859999999996,766.9872,-20.8044,175,75
2026-05-09 16:04:29.396,2,-0.57,0.2,0.23,-35.9986,-85.74860000000001,-1.5606,175,75
2026-05-09 16:04:29.396,4,0.62,0.51,1.46,-11.998,114.237,-39.7724,175,75
2026-05-09 16:04:29.407,5,0.23,-0.36,-0.48,-14.883799999999999,39.6882,-22.451,175,75
2026-05-09 16:04:29.407,1,-5.46,-0.08,4.54,-589.5086,667.9671999999999,-202.6944,175,75
2026-05-09 16:04:29.407,3,0.26,0.6,0.37,73.3254,-45.2214,131.8864,175,75
2026-05-09 16:04:29.407,4,0.56,0.29,1.63,-2.308,92.65700000000001,-34.5224,175,75
2026-05-09 16:04:29.407,5,0.08,-0.2,-0.14,-49.3438,97.8582,-31.681,175,75
2026-05-09 16:04:29.407,2,-0.58,-0.12,0.22,-45.3886,-107.5186,12.839400000000001,175,75
2026-05-09 16:04:29.413,3,0.05,0.74,0.19,60.1454,-26.071399999999997,101.0364,175,75
2026-05-09 16:04:29.413,2,-0.55,-0.52,0.22,-50.878600000000006,-130.0786,32.1594,175,75
2026-05-09 16:04:29.424,5,0.37,-0.3,-0.07,-69.2138,168.77820000000003,-48.251000000000005,175,75
2026-05-09 16:04:29.424,1,0.04,1.1,1.44,42.1414,-151.5428,141.8156,175,75
2026-05-09 16:04:29.424,3,0.02,0.87,0.36,44.1754,33.6286,80.4864,175,75
2026-05-09 16:04:29.424,4,0.27,-0.16,1.71,-16.028,12.776999999999994,-37.452400000000004,175,75
2026-05-09 16:04:29.424,2,-0.49,-1.12,0.25,-49.4786,-146.7286,67.2294,175,75
2026-05-09 16:04:29.435,5,0.91,-0.44,-0.05,-63.463800000000006,246.2982,-49.131,175,75
2026-05-09 16:04:29.435,1,-1.33,-1.97,1.08,48.3614,-27.5228,5.1056,175,75
2026-05-09 16:04:29.435,2,-0.37,-1.49,0.11,-45.878600000000006,-154.9586,119.7894,175,75
2026-05-09 16:04:29.435,5,1.96,-0.71,0.19,-30.3838,246.2982,-40.801,175,75
2026-05-09 16:04:29.446,4,0.3,-0.33,1.51,-15.228,-0.6330000000000027,-26.352400000000003,175,75
2026-05-09 16:04:29.446,1,0.74,-2.79,0.2,-60.668600000000005,-15.6928,-62.3944,175,75
2026-05-09 16:04:29.446,5,2.0,-0.99,0.53,-1.7438000000000002,246.2982,-81.661,175,75
2026-05-09 16:04:29.457,3,0.1,1.02,0.75,5.455400000000001,60.6986,45.4264,175,75
2026-05-09 16:04:29.457,4,0.4,-0.46,1.32,-3.6479999999999997,16.126999999999995,-12.4524,175,75
2026-05-09 16:04:29.457,1,1.28,-1.51,0.18,-68.95859999999999,25.5872,-11.7844,175,75
2026-05-09 16:04:29.457,5,0.29,-0.66,2.0,37.166199999999996,246.2982,-246.90099999999998,175,75
2026-05-09 16:04:29.457,4,0.51,-0.54,1.26,2.152000000000001,44.117,1.6975999999999996,175,75
2026-05-09 16:04:29.465,3,0.34,1.02,0.58,2.1054000000000013,8.688600000000001,-12.013599999999997,175,75
2026-05-09 16:04:29.465,4,0.68,-0.6,1.35,0.8620000000000001,76.737,23.337599999999995,175,75
2026-05-09 16:04:29.477,3,0.61,1.06,0.19,-19.784599999999998,-0.2113999999999998,-49.3936,175,75
2026-05-09 16:04:29.477,2,-1.88,-2.62,-0.21,17.721399999999996,-91.41860000000001,76.4894,175,75
2026-05-09 16:04:29.477,1,0.56,0.17,1.01,-55.6086,-17.8228,31.205599999999997,175,75
2026-05-09 16:04:29.477,5,1.87,0.41,2.0,-124.0438,246.2982,-118.941,175,75
2026-05-09 16:04:29.496,5,-0.59,0.19,2.0,-152.7038,246.2982,-231.46099999999998,175,75
2026-05-09 16:04:29.496,1,-0.12,0.77,0.62,-50.5486,-51.6028,25.415599999999998,175,75
2026-05-09 16:04:29.496,4,1.13,-0.75,1.86,-11.328,76.49699999999999,75.5976,175,75
2026-05-09 16:04:29.496,3,0.61,1.04,-0.17,-65.8846,61.9786,-105.61359999999999,175,75
2026-05-09 16:04:29.496,2,-1.62,-2.31,-0.03,24.6714,-47.0286,-107.3506,175,75
2026-05-09 16:04:29.496,5,-1.71,0.36,2.0,-148.8338,246.2982,-246.90099999999998,175,75
2026-05-09 16:04:29.507,4,1.22,-0.85,1.96,-6.388,22.836999999999996,72.11760000000001,175,75
2026-05-09 16:04:29.507,3,0.79,1.01,-0.05,-92.1046,92.76859999999999,-145.3636,175,75
2026-05-09 16:04:29.507,5,-2.0,0.26,2.0,-101.7538,246.2982,-143.691,175,75
2026-05-09 16:04:29.507,1,-0.27,0.31,0.13,-6.028599999999999,-53.7428,18.035600000000002,175,75
2026-05-09 16:04:29.519,3,0.48,1.02,0.58,-121.43459999999999,106.7386,-161.8336,175,75
2026-05-09 16:04:29.519,5,-2.0,0.2,2.0,-79.4438,27.3282,-86.411,175,75
2026-05-09 16:04:29.519,1,-0.2,-0.19,0.06,28.1114,-3.1928,20.2256,175,75
2026-05-09 16:04:29.519,2,-0.92,-1.44,-0.01,28.631399999999996,-69.6486,-130.0906,175,75
2026-05-09 16:04:29.527,4,1.2,-0.7,1.72,-1.7579999999999991,-37.283,51.9976,175,75
2026-05-09 16:04:29.527,1,-0.23,-0.45,0.33,54.3914,38.7572,21.5056,175,75
2026-05-09 16:04:29.540,4,1.23,-0.51,1.64,-9.068,-21.123000000000005,56.3876,175,75
2026-05-09 16:04:29.540,3,-7.2,3.11,4.76,77.58539999999999,357.5886,129.3864,175,75
2026-05-09 16:04:29.540,5,-0.81,0.22,2.0,-63.4238,-197.49179999999998,121.41900000000001,175,75
2026-05-09 16:04:29.540,2,-0.86,-0.91,-0.11,55.7714,-70.2586,-102.9606,175,75
2026-05-09 16:04:29.540,1,-0.21,-0.41,0.61,65.00139999999999,75.4672,19.3156,175,75
2026-05-09 16:04:29.555,5,-1.0,-0.14,2.0,-4.793799999999999,-253.97179999999997,253.369,175,75
2026-05-09 16:04:29.555,2,-0.8,-0.82,-0.15,64.9814,-53.4886,-94.7906,175,75
2026-05-09 16:04:29.555,3,-5.53,0.94,7.87,519.2954000000001,578.3186,443.9664,175,75
2026-05-09 16:04:29.561,5,-0.52,-0.19,2.0,1.3462,-253.97179999999997,253.369,175,75
2026-05-09 16:04:29.561,2,-0.74,-0.71,-0.13,69.4914,-26.538600000000002,-84.2406,175,75
2026-05-09 16:04:29.561,4,0.96,-0.13,1.83,-15.288,-15.153000000000002,71.69760000000001,175,75
2026-05-09 16:04:29.561,3,0.46,-8.04,7.03,248.07540000000003,-526.9814,-162.0136,175,75
2026-05-09 16:04:29.572,5,0.42,-0.31,2.0,-12.473799999999999,-253.97179999999997,253.369,175,75
2026-05-09 16:04:29.572,2,-0.66,-0.53,-0.01,64.7314,24.5514,-70.2706,175,75
2026-05-09 16:04:29.572,4,0.76,0.0,1.94,-17.428,-36.61300000000001,57.9176,175,75
2026-05-09 16:04:29.572,3,0.36,-3.77,1.97,-468.99460000000005,-644.8514,-419.0836,175,75
2026-05-09 16:04:29.581,1,-0.12,-0.67,1.12,65.5514,121.50720000000001,22.605600000000003,175,75
2026-05-09 16:04:29.581,5,0.67,-0.51,1.29,-35.8238,-253.97179999999997,253.369,175,75
2026-05-09 16:04:29.581,2,-0.56,-0.33,0.1,54.121399999999994,71.0214,-45.400600000000004,175,75
2026-05-09 16:04:29.581,1,0.0,-0.7,1.43,66.53139999999999,136.8672,20.285600000000002,175,75
2026-05-09 16:04:29.598,2,-0.6,-0.04,0.19,42.111399999999996,100.9614,-17.4706,175,75
2026-05-09 16:04:29.598,4,0.46,0.3,1.92,-17.238,-81.373,21.3876,175,75
2026-05-09 16:04:29.598,1,0.2,-0.46,1.63,65.3714,122.2372,18.0956,175,75
2026-05-09 16:04:29.598,5,2.0,-1.14,0.06,11.5962,-253.97179999999997,253.369,175,75
2026-05-09 16:04:29.598,2,-0.65,0.1,0.26,37.721399999999996,101.0214,-11.3706,175,75
2026-05-09 16:04:29.609,4,0.43,0.41,1.83,-11.448,-94.113,14.617599999999998,175,75
2026-05-09 16:04:29.609,5,2.0,-1.03,-0.43,38.1162,-246.21179999999998,153.919,175,75
2026-05-09 16:04:29.609,1,0.22,-0.18,1.79,56.8914,81.0172,19.3156,175,75
2026-05-09 16:04:29.609,3,0.06,-1.82,-0.38,24.2354,211.60860000000002,55.126400000000004,175,75
2026-05-09 16:04:29.620,2,-0.64,0.18,0.33,35.1614,72.7314,-14.7906,175,75
2026-05-09 16:04:29.620,4,0.39,0.46,1.67,-0.10800000000000054,-105.63300000000001,16.6976,175,75
2026-05-09 16:04:29.620,1,0.45,0.13,1.91,53.2314,41.3172,20.165599999999998,175,75
2026-05-09 16:04:29.620,4,0.31,0.45,1.57,8.732,-111.673,18.587600000000002,175,75
2026-05-09 16:04:29.630,2,-0.57,0.23,0.4,29.551399999999997,22.6614,-18.930600000000002,175,75
2026-05-09 16:04:29.630,5,0.44,-0.76,-0.08,81.0862,131.8882,-162.531,175,75
2026-05-09 16:04:29.630,1,0.53,0.32,1.64,38.781400000000005,30.777199999999997,11.0256,175,75
2026-05-09 16:04:29.630,4,0.23,0.44,1.52,10.992,-113.19300000000001,14.3176,175,75
2026-05-09 16:04:29.642,2,-0.48,0.35,0.4,18.331399999999995,-31.0486,-16.2506,175,75
2026-05-09 16:04:29.642,5,-0.15,-0.6,0.06,114.1562,189.27820000000003,-219.251,175,75
2026-05-09 16:04:29.642,1,0.66,0.61,1.29,9.7014,3.5172000000000008,0.10559999999999992,175,75
2026-05-09 16:04:29.642,4,0.16,0.49,1.5,7.5120000000000005,-111.243,6.937599999999998,175,75
2026-05-09 16:04:29.642,3,0.52,-0.27,1.76,12.1054,61.608599999999996,-112.6836,175,75
2026-05-09 16:04:29.652,2,-0.44,0.5,0.34,11.621399999999998,-68.54860000000001,-10.580599999999999,175,75
2026-05-09 16:04:29.652,5,-0.49,-0.47,0.1,149.5662,194.12820000000002,-236.481,175,75
2026-05-09 16:04:29.652,1,0.61,0.79,0.99,-17.6786,-24.9628,-10.324399999999999,175,75
2026-05-09 16:04:29.652,4,0.15,0.63,1.51,3.0020000000000007,-98.563,-6.722400000000001,175,75
2026-05-09 16:04:29.662,2,-0.47,0.67,0.28,9.731399999999997,-89.3486,-5.3406,175,75
2026-05-09 16:04:29.662,5,-0.66,-0.19,0.09,171.80620000000002,176.75820000000002,-246.90099999999998,175,75
2026-05-09 16:04:29.673,5,-0.75,0.1,-0.01,171.5762,141.8382,-246.90099999999998,175,75
2026-05-09 16:04:29.673,4,0.27,0.8,1.53,5.992000000000001,-88.93299999999999,-17.8824,175,75
2026-05-09 16:04:29.673,3,0.67,-0.11,1.36,45.0254,12.8286,-23.723599999999998,175,75
2026-05-09 16:04:29.673,1,0.34,1.04,0.84,-45.6686,-59.47280000000001,-18.434399999999997,175,75
2026-05-09 16:04:29.673,2,-0.53,0.9,0.17,16.1314,-92.63860000000001,-3.9905999999999997,175,75
2026-05-09 16:04:29.686,5,-0.84,0.41,-0.16,142.2862,65.2482,-246.90099999999998,175,75
2026-05-09 16:04:29.686,2,-0.62,1.03,0.1,26.201399999999996,-71.9086,-0.09060000000000007,175,75
2026-05-09 16:04:29.686,4,0.33,0.94,1.54,11.112000000000002,-84.66300000000001,-23.672400000000003,175,75
2026-05-09 16:04:29.686,3,0.35,0.18,0.92,84.84540000000001,74.2386,-28.5336,175,75
2026-05-09 16:04:29.686,4,0.32,0.96,1.52,15.382000000000001,-81.91300000000001,-26.4124,175,75
2026-05-09 16:04:29.693,3,0.32,0.33,1.23,124.90540000000001,140.26860000000002,-18.533599999999996,175,75
2026-05-09 16:04:29.704,5,0.48,0.78,-0.62,72.3462,-213.75179999999997,-84.431,175,75
2026-05-09 16:04:29.704,2,-0.59,0.83,0.11,27.601399999999998,-3.1286000000000005,22.0994,175,75
2026-05-09 16:04:29.704,4,0.3,0.84,1.48,19.651999999999997,-69.843,-33.2424,175,75
2026-05-09 16:04:29.704,3,0.24,0.49,1.53,142.1654,133.5686,-9.143599999999998,175,75
2026-05-09 16:04:29.704,1,0.69,1.93,2.12,69.9414,54.0672,-16.474400000000003,175,75
2026-05-09 16:04:29.716,5,0.86,0.9,-0.69,27.276200000000003,-230.7618,32.469,175,75
2026-05-09 16:04:29.716,5,0.52,0.66,-0.71,-9.4238,-204.1118,88.199,175,75
2026-05-09 16:04:29.716,1,0.99,2.1,2.97,123.23140000000001,78.8772,-10.934399999999998,175,75
2026-05-09 16:04:29.729,4,0.43,0.64,1.39,12.882000000000001,-22.833000000000006,-44.4024,175,75
2026-05-09 16:04:29.729,2,-0.48,0.42,0.27,18.151399999999995,13.0314,29.179399999999998,175,75
2026-05-09 16:04:29.729,5,0.06,0.3,-0.71,-17.513800000000003,-171.1018,91.18900000000001,175,75
2026-05-09 16:04:29.729,3,-0.07,0.77,1.16,156.55540000000002,49.4786,8.296400000000002,175,75
2026-05-09 16:04:29.729,1,2.3,1.41,0.45,147.9914,-118.6828,5.7156,175,75
2026-05-09 16:04:29.729,4,0.58,0.63,1.36,8.062000000000001,9.306999999999995,-50.0724,175,75
2026-05-09 16:04:29.743,2,-0.4,0.24,0.3,15.711399999999998,-13.3086,24.4194,175,75
2026-05-09 16:04:29.743,5,-0.13,0.12,-0.57,-3.6537999999999995,-139.93179999999998,66.219,175,75
2026-05-09 16:04:29.743,3,-0.42,0.98,1.19,144.90540000000001,76.6086,38.35640000000001,175,75
2026-05-09 16:04:29.743,1,-0.25,1.63,-3.23,242.38139999999999,-606.7228,67.3056,175,75
2026-05-09 16:04:29.743,2,-0.43,0.15,0.32,16.501399999999997,-44.7086,19.2394,175,75
2026-05-09 16:04:29.749,5,-0.06,0.02,-0.35,10.8362,-99.5218,49.739,175,75
2026-05-09 16:04:29.749,3,-0.3,0.77,1.24,119.05539999999999,72.5886,74.1464,175,75
2026-05-09 16:04:29.749,1,-4.04,-2.0,-5.58,232.01139999999998,-231.6628,43.3356,175,75
2026-05-09 16:04:29.764,5,0.16,-0.02,-0.2,24.4962,-42.531800000000004,51.059,175,75
2026-05-09 16:04:29.765,4,0.75,0.62,1.5,13.181999999999999,71.92699999999999,-46.052400000000006,175,75
2026-05-09 16:04:29.765,3,-0.22,0.65,1.12,95.6354,26.608600000000003,77.80640000000001,175,75
2026-05-09 16:04:29.765,1,-0.32,-0.24,1.4,-210.6686,585.4072,-112.57440000000001,175,75
2026-05-09 16:04:29.773,5,0.19,0.01,-0.04,33.9862,31.438200000000002,74.99900000000001,175,75
2026-05-09 16:04:29.773,4,0.7,0.43,1.59,20.261999999999997,88.87700000000001,-41.4724,175,75
2026-05-09 16:04:29.773,2,-0.69,-0.1,0.16,14.001399999999997,-108.18860000000001,22.409399999999998,175,75
2026-05-09 16:04:29.773,3,-0.23,0.57,0.91,66.18539999999999,-0.0913999999999997,83.2964,175,75
2026-05-09 16:04:29.773,1,-1.24,0.26,3.37,-375.29859999999996,-27.7028,-42.2144,175,75
2026-05-09 16:04:29.785,5,0.38,-0.06,0.07,38.3062,108.5382,94.009,175,75
2026-05-09 16:04:29.785,4,0.64,0.09,1.64,27.022000000000002,92.59700000000001,-31.5424,175,75
2026-05-09 16:04:29.785,3,-0.16,0.4,0.81,42.3454,-2.9613999999999994,90.30640000000001,175,75
2026-05-09 16:04:29.785,2,-0.78,-0.39,0.11,11.681399999999996,-114.8986,38.7494,175,75
2026-05-09 16:04:29.785,1,-0.64,0.34,1.33,-1.7086000000000006,-88.4328,30.8356,175,75
2026-05-09 16:04:29.795,5,0.61,-0.11,0.11,40.8762,194.0782,121.46900000000001,175,75
2026-05-09 16:04:29.795,1,-0.58,-0.28,0.79,-44.3886,10.287199999999999,16.0856,175,75
2026-05-09 16:04:29.805,5,1.02,-0.03,0.18,42.0562,246.2982,155.429,175,75
2026-05-09 16:04:29.805,2,-0.75,-0.77,0.12,10.771399999999996,-103.30860000000001,58.5694,175,75
2026-05-09 16:04:29.805,3,-0.2,0.11,0.91,9.845400000000001,-17.961399999999998,90.4264,175,75
2026-05-09 16:04:29.817,5,1.5,-0.06,0.11,45.916199999999996,246.2982,177.609,175,75
2026-05-09 16:04:29.817,2,-0.64,-1.24,0.1,9.671399999999997,-71.9086,88.07939999999999,175,75
2026-05-09 16:04:29.817,4,0.39,-0.43,1.48,25.622000000000003,69.667,-4.952400000000001,175,75
2026-05-09 16:04:29.817,3,-0.22,-0.1,0.94,-9.6646,-37.7214,81.8264,175,75
2026-05-09 16:04:29.817,5,1.14,0.13,1.01,17.456200000000003,246.2982,253.369,175,75
2026-05-09 16:04:29.829,2,-0.63,-1.62,0.05,14.311399999999997,-30.6886,124.5394,175,75
2026-05-09 16:04:29.829,4,0.32,-0.44,1.48,16.352,73.62700000000001,-2.8224,175,75
2026-05-09 16:04:29.829,1,0.04,-0.04,0.91,0.9813999999999998,12.1172,-10.324399999999999,175,75
2026-05-09 16:04:29.839,2,-0.79,-1.84,-0.08,24.371399999999998,7.7913999999999985,135.45940000000002,175,75
2026-05-09 16:04:29.839,4,0.38,-0.34,1.56,8.732,83.327,-4.042400000000001,175,75
2026-05-09 16:04:29.839,5,0.84,-0.89,2.0,-24.613799999999998,-96.6818,-73.651,175,75
2026-05-09 16:04:29.839,1,0.05,-0.19,0.83,15.9814,16.9872,-9.404399999999999,175,75
2026-05-09 16:04:29.851,4,0.52,-0.18,1.7,4.282,89.787,-1.5424000000000007,175,75
2026-05-09 16:04:29.851,2,-1.24,-1.7,-0.15,37.7814,41.9914,81.7394,175,75
2026-05-09 16:04:29.851,5,2.0,0.04,2.0,-55.8238,-11.2118,-97.181,175,75
2026-05-09 16:04:29.851,1,0.17,-0.4,0.52,36.8314,26.3772,1.9356,175,75
2026-05-09 16:04:29.851,4,0.68,-0.08,1.8,3.911999999999999,91.55699999999999,10.2876,175,75
2026-05-09 16:04:29.862,3,-0.13,-0.05,1.01,-68.5646,-89.6714,26.3464,175,75
2026-05-09 16:04:29.862,2,-1.53,-1.41,-0.09,46.9914,75.2314,1.6794,175,75
2026-05-09 16:04:29.862,1,0.26,-0.57,0.45,60.3714,36.2572,4.435600000000001,175,75
2026-05-09 16:04:29.862,4,0.78,-0.09,1.86,7.692,79.727,32.4876,175,75
2026-05-09 16:04:29.873,2,-1.36,-1.11,0.17,53.8814,101.14139999999999,-67.3506,175,75
2026-05-09 16:04:29.873,5,0.81,-0.41,2.0,-131.5938,246.2982,43.769,175,75
2026-05-09 16:04:29.873,3,-0.15,0.01,0.86,-96.19460000000001,-99.2414,-1.2835999999999963,175,75
2026-05-09 16:04:29.873,1,0.22,-0.53,0.55,80.1214,31.0172,-0.3843999999999994,175,75
2026-05-09 16:04:29.873,4,0.65,-0.28,1.78,13.972000000000001,40.946999999999996,54.4976,175,75
2026-05-09 16:04:29.878,3,-0.15,-0.02,0.81,-114.91460000000001,-87.7214,-22.013599999999997,175,75
2026-05-09 16:04:29.878,2,-1.03,-0.86,0.44,53.511399999999995,108.2114,-75.2706,175,75
2026-05-09 16:04:29.880,1,-0.08,-0.48,0.53,101.3414,23.5772,1.6356000000000002,175,75
2026-05-09 16:04:29.887,5,-2.0,-1.27,2.0,-72.7238,246.2982,-179.231,175,75
2026-05-09 16:04:29.888,3,-0.09,-0.11,0.88,-134.1746,-67.6514,-40.733599999999996,175,75
2026-05-09 16:04:29.900,4,0.42,-0.46,1.59,8.431999999999999,10.216999999999999,55.4776,175,75
2026-05-09 16:04:29.900,2,-0.67,-0.77,0.57,42.6014,77.5414,-52.900600000000004,175,75
2026-05-09 16:04:29.900,1,-0.28,-0.54,0.6,122.75139999999999,24.677200000000003,2.1756,175,75
2026-05-09 16:04:29.900,3,0.02,-0.26,1.01,-155.03459999999998,-53.2014,-59.203599999999994,175,75
2026-05-09 16:04:29.900,5,-1.64,-0.96,2.0,-31.053800000000003,95.37819999999999,-231.281,175,75
2026-05-09 16:04:29.911,2,-0.49,-0.84,0.57,25.8314,26.5114,-22.9606,175,75
2026-05-09 16:04:29.911,3,0.11,-0.35,1.09,-172.7746,-62.7214,-77.6236,175,75
2026-05-09 16:04:29.912,5,-1.55,-0.51,2.0,-9.3938,-37.9018,-200.871,175,75
2026-05-09 16:04:29.912,1,-0.4,-0.6,1.06,161.7114,-37.4028,12.3656,175,75
2026-05-09 16:04:29.924,5,-1.49,-0.09,2.0,11.7062,-152.4418,-160.881,175,75
2026-05-09 16:04:29.924,3,0.13,-0.27,0.95,-187.8346,-69.1814,-97.9236,175,75
2026-05-09 16:04:29.925,4,0.72,-0.16,1.22,-12.788,65.037,27.607599999999998,175,75
2026-05-09 16:04:29.925,1,-0.39,-0.24,0.72,180.98139999999998,17.5372,4.3756,175,75
2026-05-09 16:04:29.925,2,-0.87,-0.78,0.36,-27.278600000000004,-48.7386,69.4194,175,75
2026-05-09 16:04:29.935,5,-1.36,0.06,2.0,41.3062,-253.97179999999997,-142.291,175,75
2026-05-09 16:04:29.935,4,0.94,-0.02,1.13,-16.758,108.08700000000002,41.5676,175,75
2026-05-09 16:04:29.935,3,0.19,-0.16,0.8,-191.4946,-34.6114,-109.5736,175,75
2026-05-09 16:04:29.935,1,0.26,0.31,0.91,170.1914,67.5972,-3.064399999999999,175,75
2026-05-09 16:04:29.935,5,-0.98,0.27,1.97,43.2162,-253.97179999999997,-110.161,175,75
2026-05-09 16:04:29.939,2,-1.33,-0.41,0.18,-24.288600000000002,10.651399999999999,34.849399999999996,175,75
2026-05-09 16:04:29.941,3,0.35,-0.12,0.8,-186.8646,-13.6314,-117.5636,175,75
2026-05-09 16:04:29.941,4,1.04,0.07,1.08,-24.198,169.177,53.157599999999995,175,75
2026-05-09 16:04:29.943,1,0.14,0.45,1.02,121.16139999999999,99.7972,-6.6044,175,75
2026-05-09 16:04:29.946,5,-0.47,0.39,1.45,29.956200000000003,-253.97179999999997,-74.36099999999999,175,75
2026-05-09 16:04:29.960,2,-1.3,-0.08,0.13,-4.048600000000004,83.3414,-45.8806,175,75
2026-05-09 16:04:29.960,4,0.99,0.21,1.3,-39.867999999999995,198.207,36.6376,175,75
2026-05-09 16:04:29.960,5,-0.03,0.43,0.92,12.1262,-253.97179999999997,-35.011,175,75
