Time,ID,Ax,Ay,Az,Gx,Gy,Gz,H,W
2026-05-09 16:07:19.370,1,-0.72,-1.07,1.7,-1.6681999999999997,135.1026,-9.4786,175,75
2026-05-09 16:07:19.381,3,-3.72,2.41,3.07,-106.232,103.97879999999999,-51.12479999999999,175,75
2026-05-09 16:07:19.381,4,0.98,-0.37,1.54,-18.728399999999997,91.4766,45.8076,175,75
2026-05-09 16:07:19.381,5,-1.03,0.09,2.0,-99.9726,-252.6136,224.93720000000002,175,75
2026-05-09 16:07:19.381,3,-7.07,3.73,5.35,9.738,344.7188,179.85520000000002,175,75
2026-05-09 16:07:19.387,1,-0.67,-0.99,2.08,-22.5182,172.2426,-11.248600000000001,175,75
2026-05-09 16:07:19.387,5,-0.11,-0.78,1.86,-100.7826,-252.6136,242.6072,175,75
2026-05-09 16:07:19.398,1,-0.68,-0.83,2.68,-44.6482,213.2826,-3.0786000000000002,175,75
2026-05-09 16:07:19.398,2,-0.58,-0.83,0.31,16.7728,54.8694,-74.61420000000001,175,75
2026-05-09 16:07:19.398,4,0.56,0.06,1.63,-26.4084,57.456599999999995,25.2576,175,75
2026-05-09 16:07:19.415,5,1.53,-1.44,0.53,-67.55260000000001,-252.6136,242.6072,175,75
2026-05-09 16:07:19.415,2,-0.53,-0.56,0.32,15.6728,10.359400000000003,-106.9942,175,75
2026-05-09 16:07:19.415,1,-0.55,-0.91,3.26,-62.26820000000001,228.3426,-2.5886000000000005,175,75
2026-05-09 16:07:19.415,4,0.43,0.28,1.64,-29.0884,35.9966,23.677599999999998,175,75
2026-05-09 16:07:19.426,2,-0.54,-0.24,0.28,15.1828,-40.0706,-138.7642,175,75
2026-05-09 16:07:19.426,1,-0.49,-0.86,3.5,-76.0582,189.3126,3.6314,175,75
2026-05-09 16:07:19.426,5,2.0,-2.0,-0.59,-5.462599999999999,-252.6136,242.6072,175,75
2026-05-09 16:07:19.426,1,0.15,-0.64,3.36,-88.9182,126.8726,12.231399999999999,175,75
2026-05-09 16:07:19.432,2,-0.53,-0.04,0.23,11.9528,-69.0906,-156.0142,175,75
2026-05-09 16:07:19.432,2,-0.36,0.09,0.18,5.7328,-73.4206,-153.5742,175,75
2026-05-09 16:07:19.442,5,0.27,-1.36,-0.53,90.33739999999999,86.8564,-62.25279999999999,175,75
2026-05-09 16:07:19.442,3,1.13,-2.31,-2.86,-94.16199999999999,130.1988,-105.9348,175,75
2026-05-09 16:07:19.442,1,-0.14,-0.05,0.17,-146.5382,-67.3974,50.461400000000005,175,75
2026-05-09 16:07:19.448,5,-0.81,-0.79,-0.07,122.30739999999999,146.16639999999998,-196.2128,175,75
2026-05-09 16:07:19.464,3,-0.19,-1.33,-1.59,170.348,270.1388,-131.0548,175,75
2026-05-09 16:07:19.464,5,-1.21,-0.34,0.16,129.2274,141.9964,-257.6628,175,75
2026-05-09 16:07:19.464,2,-0.98,0.8,-0.1,24.0228,62.3694,54.775800000000004,175,75
2026-05-09 16:07:19.468,5,-1.08,0.15,0.24,115.5474,120.01639999999999,-257.6628,175,75
2026-05-09 16:07:19.483,4,0.4,0.75,1.46,-22.568399999999997,102.4566,27.9976,175,75
2026-05-09 16:07:19.483,5,-0.8,0.65,0.32,72.9074,94.5864,-257.6628,175,75
2026-05-09 16:07:19.483,2,-1.01,0.87,0.02,32.562799999999996,133.76940000000002,-7.664199999999999,175,75
2026-05-09 16:07:19.494,5,-0.7,0.98,0.19,9.5374,62.6364,-257.6628,175,75
2026-05-09 16:07:19.494,1,1.09,1.64,4.0,40.3518,-28.4274,45.0914,175,75
2026-05-09 16:07:19.494,3,0.47,-0.37,1.7,52.788,-19.9812,46.565200000000004,175,75
2026-05-09 16:07:19.507,4,0.11,0.95,1.61,1.3416000000000001,93.00659999999999,28.427599999999998,175,75
2026-05-09 16:07:19.507,3,0.8,-0.91,1.36,61.628,-37.3612,47.0552,175,75
2026-05-09 16:07:19.507,5,0.85,1.11,-0.41,-91.8626,-49.843599999999995,-257.6628,175,75
2026-05-09 16:07:19.525,5,1.64,1.31,-0.57,-76.04260000000001,-142.4236,-199.50279999999998,175,75
2026-05-09 16:07:19.525,3,1.0,-1.34,0.99,71.078,-87.36120000000001,60.7752,175,75
2026-05-09 16:07:19.525,2,-0.19,0.6,0.35,-9.5072,161.0294,61.2958,175,75
2026-05-09 16:07:19.525,4,-0.26,0.29,1.49,50.7316,31.0566,45.4976,175,75
2026-05-09 16:07:19.538,2,0.11,0.32,0.52,-18.7172,115.4194,56.235800000000005,175,75
2026-05-09 16:07:19.538,4,-0.31,0.15,1.4,46.0916,26.7866,31.107599999999998,175,75
2026-05-09 16:07:19.538,1,0.95,2.42,3.06,244.8618,-46.9074,50.641400000000004,175,75
2026-05-09 16:07:19.538,3,0.79,-1.06,0.44,77.428,-78.52120000000001,64.79520000000001,175,75
2026-05-09 16:07:19.538,1,0.79,1.63,2.8,286.3218,-74.1574,70.2114,175,75
2026-05-09 16:07:19.538,5,0.32,0.48,0.27,-111.24260000000001,-81.2736,-14.3228,175,75
2026-05-09 16:07:19.542,3,0.54,-0.57,0.39,116.01800000000001,-10.7712,66.01520000000001,175,75
2026-05-09 16:07:19.554,5,0.11,0.03,0.36,-88.30260000000001,-21.8636,-17.8128,175,75
2026-05-09 16:07:19.554,2,-0.09,0.05,0.62,-23.5972,2.129400000000004,2.0958000000000006,175,75
2026-05-09 16:07:19.554,3,0.4,-0.31,0.55,151.38799999999998,-1.5011999999999999,78.0252,175,75
2026-05-09 16:07:19.577,3,0.2,-0.27,0.5,168.76800000000003,-18.8812,96.9252,175,75
2026-05-09 16:07:19.577,2,-0.21,0.31,0.52,-23.9572,-64.7606,-21.014200000000002,175,75
2026-05-09 16:07:19.590,4,0.1,0.98,1.61,25.9116,56.17659999999999,-1.9323999999999995,175,75
2026-05-09 16:07:19.590,2,-0.32,0.74,0.26,-34.0772,-117.14059999999999,-2.0542,175,75
2026-05-09 16:07:19.590,5,-0.1,0.23,0.22,55.4074,37.9864,97.2372,175,75
2026-05-09 16:07:19.590,2,-0.4,0.83,0.15,-34.9972,-120.56060000000001,21.7258,175,75
2026-05-09 16:07:19.596,5,-0.03,0.32,0.04,63.5874,0.13640000000000008,127.9172,175,75
2026-05-09 16:07:19.609,1,-5.49,-3.43,-11.78,238.1518,-478.4874,43.141400000000004,175,75
2026-05-09 16:07:19.609,5,0.36,0.24,-0.16,77.20739999999999,-0.8735999999999997,150.6472,175,75
2026-05-09 16:07:19.609,2,-0.4,0.77,0.08,-30.2972,-109.89059999999999,38.3758,175,75
2026-05-09 16:07:19.609,3,0.09,0.55,0.76,63.578,30.1988,120.4652,175,75
2026-05-09 16:07:19.625,5,0.53,0.18,-0.27,88.6074,15.036400000000002,185.59720000000002,175,75
2026-05-09 16:07:19.625,2,-0.3,0.46,0.04,-22.3772,-83.7906,46.485800000000005,175,75
2026-05-09 16:07:19.625,2,-0.24,0.07,0.03,-14.7572,-55.1906,47.8258,175,75
2026-05-09 16:07:19.625,3,-0.18,0.36,1.2,45.718,14.718800000000002,144.0052,175,75
2026-05-09 16:07:19.629,5,0.59,0.15,-0.23,89.50739999999999,37.376400000000004,208.6972,175,75
2026-05-09 16:07:19.629,4,0.63,0.1,1.68,35.601600000000005,134.7166,11.8476,175,75
2026-05-09 16:07:19.640,2,0.01,-0.39,0.07,-4.8172,-37.9306,52.1558,175,75
2026-05-09 16:07:19.640,3,0.11,-0.14,0.99,13.948,-61.6912,116.6852,175,75
2026-05-09 16:07:19.640,1,-1.39,1.27,5.27,-808.5582,349.19259999999997,-183.86860000000001,175,75
2026-05-09 16:07:19.640,3,0.11,-0.23,0.48,-24.041999999999998,-121.6212,83.0852,175,75
2026-05-09 16:07:19.651,2,0.31,-0.97,0.13,4.1528,-53.970600000000005,61.3558,175,75
2026-05-09 16:07:19.651,3,0.18,-0.11,-0.02,-83.062,-108.94120000000001,53.0252,175,75
2026-05-09 16:07:19.658,5,1.1,-0.21,0.08,61.007400000000004,122.1764,242.6072,175,75
2026-05-09 16:07:19.661,3,0.22,0.02,-0.09,-120.812,-52.8412,37.3552,175,75
2026-05-09 16:07:19.662,4,0.55,-1.32,1.33,67.8616,136.5466,34.4676,175,75
2026-05-09 16:07:19.675,5,1.34,-0.01,0.59,20.4674,194.3864,242.6072,175,75
2026-05-09 16:07:19.675,2,-0.39,-1.97,0.0,-3.5972,-104.58059999999999,213.6758,175,75
2026-05-09 16:07:19.675,1,-0.39,0.06,0.84,26.5118,0.4725999999999999,0.8913999999999997,175,75
2026-05-09 16:07:19.675,3,0.27,0.19,0.11,-137.702,-15.9512,17.1152,175,75
2026-05-09 16:07:19.675,5,1.46,0.04,1.22,-23.3726,247.6564,237.0672,175,75
2026-05-09 16:07:19.686,2,-0.88,-2.03,-0.2,-3.4772,-104.7006,260.81579999999997,175,75
2026-05-09 16:07:19.686,4,0.5,-1.23,1.57,57.9816,149.10660000000001,24.9576,175,75
2026-05-09 16:07:19.686,1,0.19,-1.11,-0.42,-14.3482,11.812599999999998,-3.5086000000000004,175,75
2026-05-09 16:07:19.686,3,0.3,0.39,0.37,-140.622,-14.801200000000001,3.0852000000000004,175,75
2026-05-09 16:07:19.686,5,2.0,-2.0,2.0,52.8674,247.6564,204.2672,175,75
2026-05-09 16:07:19.699,2,-1.64,-1.93,-0.39,0.9828000000000001,-67.8106,201.5458,175,75
2026-05-09 16:07:19.699,4,0.62,-0.99,1.83,52.8616,149.8366,-1.7523999999999997,175,75
2026-05-09 16:07:19.699,1,0.06,-0.74,-0.32,-10.3182,85.3526,-34.6586,175,75
2026-05-09 16:07:19.699,3,0.29,0.43,0.56,-153.85199999999998,-17.3612,3.755200000000002,175,75
2026-05-09 16:07:19.710,1,0.29,-0.67,0.77,20.531799999999997,41.572599999999994,-41.3086,175,75
2026-05-09 16:07:19.723,2,-2.26,-1.68,-0.41,5.6128,-4.150599999999997,16.0558,175,75
2026-05-09 16:07:19.723,3,0.08,0.35,0.53,-173.24200000000002,-9.8012,-6.6648,175,75
2026-05-09 16:07:19.723,1,-0.35,-0.71,0.92,36.8718,18.522599999999997,-31.1886,175,75
2026-05-09 16:07:19.723,5,-2.0,-0.22,1.42,-61.7426,247.6564,-117.3728,175,75
2026-05-09 16:07:19.723,4,0.86,-0.35,2.21,19.021600000000003,51.2966,-13.702399999999999,175,75
2026-05-09 16:07:19.733,3,-0.13,0.27,0.63,-187.512,26.4888,-43.7448,175,75
2026-05-09 16:07:19.733,1,-0.34,-1.3,0.64,57.4218,10.5926,-13.3186,175,75
2026-05-09 16:07:19.744,2,-1.03,-1.07,0.02,24.2728,-24.220599999999997,-166.8142,175,75
2026-05-09 16:07:19.744,5,-2.0,-0.43,1.15,-43.6626,120.8964,-257.6628,175,75
2026-05-09 16:07:19.744,1,-0.26,-1.52,0.77,80.0418,51.2626,-1.4286000000000003,175,75
2026-05-09 16:07:19.744,2,-0.73,-0.83,0.16,26.4028,-51.3506,-145.71419999999998,175,75
2026-05-09 16:07:19.751,4,0.33,-0.51,1.83,41.8816,-71.5034,51.0476,175,75
2026-05-09 16:07:19.771,2,-0.58,-0.79,0.26,17.5028,-54.28059999999999,-112.05420000000001,175,75
2026-05-09 16:07:19.771,5,-2.0,0.32,2.0,-87.07260000000001,-57.1736,-257.6628,175,75
2026-05-09 16:07:19.771,1,-0.1,-1.86,1.07,91.3218,98.0326,16.191399999999998,175,75
2026-05-09 16:07:19.771,5,-1.52,0.54,2.0,-160.7226,-252.6136,-257.6628,175,75
2026-05-09 16:07:19.781,2,-0.68,-0.69,0.47,-36.1572,30.419400000000003,11.3558,175,75
2026-05-09 16:07:19.781,5,-0.97,-0.02,1.62,-156.90259999999998,-252.6136,-121.6028,175,75
2026-05-09 16:07:19.781,3,-0.19,0.15,1.61,-233.372,-9.3112,-106.6648,175,75
2026-05-09 16:07:19.781,4,-0.04,-0.09,0.87,29.991600000000002,-140.3434,-52.12239999999999,175,75
2026-05-09 16:07:19.781,5,-0.65,-0.73,0.57,-86.04260000000001,-252.6136,76.5872,175,75
2026-05-09 16:07:19.781,3,-0.34,0.04,1.52,-234.28199999999998,-1.6912000000000003,-115.1448,175,75
2026-05-09 16:07:19.781,2,-0.89,-0.27,0.47,-53.1672,76.5194,49.6558,175,75
2026-05-09 16:07:19.793,4,0.3,0.28,0.88,14.381599999999999,-101.08340000000001,-42.182399999999994,175,75
2026-05-09 16:07:19.793,1,-0.18,0.6,2.91,13.8218,331.3226,-29.3586,175,75
2026-05-09 16:07:19.807,5,0.6,-0.23,0.97,37.437400000000004,-252.6136,225.8272,175,75
2026-05-09 16:07:19.807,1,-0.03,0.83,3.02,-90.1982,275.8426,-58.6286,175,75
2026-05-09 16:07:19.807,4,0.11,1.0,0.87,-40.7984,-0.7134,47.577600000000004,175,75
2026-05-09 16:07:19.807,5,1.03,-0.26,0.62,79.14739999999999,-252.6136,242.6072,175,75
2026-05-09 16:07:19.821,2,-1.04,0.86,0.52,12.6228,80.2994,-139.67419999999998,175,75
2026-05-09 16:07:19.847,3,-0.08,0.12,1.35,-110.262,45.0788,-104.2948,175,75
2026-05-09 16:07:19.847,1,-0.83,-3.09,-0.68,-495.1982,4.8026,-71.3086,175,75
2026-05-09 16:07:19.858,2,-1.22,1.13,0.53,-8.8372,139.01940000000002,40.3258,175,75
2026-05-09 16:07:19.858,3,0.01,0.46,1.59,-70.132,54.778800000000004,-99.9648,175,75
2026-05-09 16:07:19.858,2,-0.69,0.95,0.59,-22.2572,91.38940000000001,20.815800000000003,175,75
2026-05-09 16:07:19.868,4,0.32,1.27,2.09,-40.2484,213.9766,41.4776,175,75
2026-05-09 16:07:19.868,3,0.43,0.96,1.93,-37.942,60.328799999999994,-95.1448,175,75
2026-05-09 16:07:19.868,4,0.62,1.18,2.18,-26.5884,93.4966,19.4676,175,75
2026-05-09 16:07:19.868,5,-0.99,0.25,-0.55,153.1174,94.8964,-229.6728,175,75
2026-05-09 16:07:19.868,2,-0.88,0.89,0.54,-32.7972,31.5194,15.4458,175,75
2026-05-09 16:07:19.878,1,-0.01,-1.54,2.23,-504.3482,-36.2374,-75.7586,175,75
2026-05-09 16:07:19.878,3,0.78,1.18,2.25,-26.781999999999996,42.028800000000004,-74.7748,175,75
2026-05-09 16:07:19.878,5,-1.17,0.38,-0.44,129.66740000000001,30.2664,-257.6628,175,75
2026-05-09 16:07:19.878,1,0.05,-1.19,1.38,-478.0082,-94.5874,-63.318599999999996,175,75
2026-05-09 16:07:19.888,4,0.54,0.88,1.95,6.461600000000001,-8.153400000000005,-1.6323999999999987,175,75
2026-05-09 16:07:19.888,2,-0.84,0.75,0.26,-34.6272,-32.8106,34.1058,175,75
2026-05-09 16:07:19.902,5,-0.58,0.37,-0.69,78.8874,-116.06360000000001,-242.1428,175,75
2026-05-09 16:07:19.902,1,-0.28,-0.13,0.18,-449.4682,5.9626,-14.178600000000001,175,75
2026-05-09 16:07:19.908,2,-0.72,0.14,0.09,-36.8272,-102.0206,111.66579999999999,175,75
2026-05-09 16:07:19.927,5,0.73,0.46,-0.83,38.5674,-161.7336,-63.00279999999999,175,75
2026-05-09 16:07:19.927,4,0.77,0.41,1.38,35.3016,69.5266,-5.8424,175,75
2026-05-09 16:07:19.927,1,-0.31,-0.19,0.38,-435.2582,27.422599999999996,-8.508600000000001,175,75
2026-05-09 16:07:19.927,1,-0.08,-0.28,0.73,-423.2482,66.6926,-6.7386,175,75
2026-05-09 16:07:19.927,4,0.78,0.2,1.41,53.9016,124.89659999999999,13.0076,175,75
2026-05-09 16:07:19.927,2,-0.74,-0.39,0.08,-47.6772,-96.5906,123.6758,175,75
2026-05-09 16:07:19.927,3,4.42,-2.46,0.62,95.958,-512.3012,-6.424799999999998,175,75
2026-05-09 16:07:19.938,5,1.13,0.52,-0.72,-3.6726,-83.9136,0.5871999999999993,175,75
2026-05-09 16:07:19.956,3,-2.18,-0.77,-1.01,124.378,370.1988,185.7052,175,75
2026-05-09 16:07:19.956,2,-1.23,-0.97,-0.18,-58.1072,52.9194,128.0658,175,75
2026-05-09 16:07:19.957,1,0.27,0.01,1.48,-318.3682,48.9526,-7.7686,175,75
2026-05-09 16:07:19.957,3,-0.93,-1.04,1.26,270.228,335.1988,-106.48479999999999,175,75
2026-05-09 16:07:19.972,1,0.4,0.29,1.6,-275.9282,49.1326,-4.7886,175,75
2026-05-09 16:07:19.972,5,1.7,-0.08,0.35,-19.1926,247.6564,135.84720000000002,175,75
2026-05-09 16:07:19.984,5,2.0,-0.88,1.42,-25.3526,247.6564,131.0072,175,75
2026-05-09 16:07:19.984,1,0.56,0.54,1.57,-232.9482,39.0126,5.5814,175,75
2026-05-09 16:07:19.984,2,-1.04,-1.47,-0.74,77.8728,36.519400000000005,34.1658,175,75
2026-05-09 16:07:19.984,5,2.0,-2.0,2.0,-70.30260000000001,247.6564,242.6072,175,75
2026-05-09 16:07:19.996,1,0.6,0.77,1.76,-194.9582,49.312599999999996,5.0914,175,75
2026-05-09 16:07:19.996,3,-0.48,-1.52,2.08,60.538,-105.16120000000001,98.4552,175,75
2026-05-09 16:07:19.996,2,-0.94,-1.34,-0.69,81.8328,57.6794,-22.2342,175,75
2026-05-09 16:07:20.006,5,-1.03,-0.51,2.0,161.97740000000002,247.6564,242.6072,175,75
2026-05-09 16:07:20.006,4,0.7,-0.74,1.39,21.8216,72.1566,-44.8024,175,75
2026-05-09 16:07:20.006,5,-2.0,0.12,2.0,76.9374,247.6564,173.1172,175,75
2026-05-09 16:07:20.017,1,0.55,1.79,2.16,-85.5682,23.032600000000002,-1.6086000000000003,175,75
2026-05-09 16:07:20.017,4,0.64,-0.87,1.39,24.3216,83.3066,-12.242399999999998,175,75
2026-05-09 16:07:20.017,5,-2.0,0.13,0.98,8.5974,136.00639999999999,-145.72279999999998,175,75
2026-05-09 16:07:20.034,5,-2.0,-0.51,0.47,5.9874,-24.8536,-257.6628,175,75
2026-05-09 16:07:20.034,2,0.03,-1.66,-0.15,26.4028,121.63940000000001,41.845800000000004,175,75
2026-05-09 16:07:20.034,1,0.36,2.31,2.53,69.1918,-33.4874,5.0914,175,75
2026-05-09 16:07:20.044,5,-2.0,-0.71,0.3,41.6174,-175.6336,-257.6628,175,75
2026-05-09 16:07:20.044,4,0.39,-1.37,1.42,29.2616,9.406599999999997,42.2076,175,75
2026-05-09 16:07:20.044,3,-0.73,-0.58,0.86,40.108000000000004,-38.6412,36.5052,175,75
2026-05-09 16:07:20.044,2,-0.1,-1.67,-0.13,28.6628,121.0894,108.24579999999999,175,75
2026-05-09 16:07:20.055,5,-1.72,-0.85,0.45,92.30739999999999,-237.2336,-257.6628,175,75
2026-05-09 16:07:20.055,1,0.32,2.08,2.63,138.0318,-59.827400000000004,9.9714,175,75
2026-05-09 16:07:20.055,4,0.18,-1.37,1.41,26.0316,-30.343400000000003,46.177600000000005,175,75
2026-05-09 16:07:20.055,3,-0.86,-1.26,1.0,53.158,8.308800000000002,9.735199999999999,175,75
2026-05-09 16:07:20.055,2,-0.58,-1.47,-0.33,65.9828,104.0194,111.05579999999999,175,75
2026-05-09 16:07:20.067,5,0.04,-0.75,1.04,128.3074,-179.0336,-257.6628,175,75
2026-05-09 16:07:20.067,1,0.45,1.86,2.65,201.9318,-62.4574,24.1814,175,75
2026-05-09 16:07:20.067,4,-0.1,-1.03,1.3,10.3616,-41.5034,4.4076,175,75
2026-05-09 16:07:20.067,2,-0.76,-1.35,-0.41,83.1728,71.7594,36.3558,175,75
2026-05-09 16:07:20.067,5,0.86,0.17,2.0,114.95739999999999,-187.0736,-257.6628,175,75
2026-05-09 16:07:20.080,4,-0.19,-0.69,1.19,-0.7384,-28.093400000000003,-60.23239999999999,175,75
2026-05-09 16:07:20.080,5,0.77,0.92,2.0,99.58739999999999,-252.6136,-79.3528,175,75
2026-05-09 16:07:20.080,1,0.59,1.45,2.44,294.0118,-72.5774,32.9014,175,75
2026-05-09 16:07:20.080,4,0.05,-0.38,1.12,3.1716,-12.363399999999999,-103.28240000000001,175,75
2026-05-09 16:07:20.091,3,0.37,-1.45,0.94,27.298000000000002,-112.66120000000001,-2.524799999999999,175,75
2026-05-09 16:07:20.091,5,0.84,1.5,2.0,37.0374,-252.6136,-79.89280000000001,175,75
2026-05-09 16:07:20.091,2,-0.57,-1.1,-0.17,72.3228,37.4894,-158.5742,175,75
2026-05-09 16:07:20.091,1,0.47,1.22,2.23,336.2618,-70.0774,34.1214,175,75
2026-05-09 16:07:20.091,3,0.55,-1.58,0.61,28.458,-136.0812,15.4052,175,75
2026-05-09 16:07:20.103,4,0.62,0.09,1.24,9.451600000000001,-41.1434,-47.7924,175,75
2026-05-09 16:07:20.103,2,-0.37,-0.75,-0.01,49.6328,58.8894,-194.3142,175,75
2026-05-09 16:07:20.103,4,0.4,0.38,1.18,4.1416,-55.8934,37.4576,175,75
2026-05-09 16:07:20.105,5,2.0,1.19,1.52,-32.172599999999996,-125.45360000000001,-176.3628,175,75
2026-05-09 16:07:20.117,2,0.02,-0.36,0.18,27.3228,91.5794,-186.0742,175,75
2026-05-09 16:07:20.117,1,0.32,0.69,2.13,395.2318,-48.677400000000006,25.3414,175,75
2026-05-09 16:07:20.117,4,0.05,0.44,1.02,11.461599999999999,-37.7234,67.9376,175,75
2026-05-09 16:07:20.117,3,0.93,-1.5,-0.33,32.118,-159.8612,21.075200000000002,175,75
2026-05-09 16:07:20.117,5,2.0,0.72,0.76,18.3374,-14.7736,-73.4828,175,75
2026-05-09 16:07:20.117,2,0.31,0.09,0.23,13.3528,148.95940000000002,-57.484199999999994,175,75
2026-05-09 16:07:20.131,4,-0.22,0.36,0.93,25.061600000000002,-0.4134000000000029,56.177600000000005,175,75
2026-05-09 16:07:20.131,1,0.22,0.38,2.14,411.8118,-68.2474,30.951399999999996,175,75
2026-05-09 16:07:20.131,5,0.88,0.61,0.61,45.1474,47.0364,-50.022800000000004,175,75
2026-05-09 16:07:20.131,3,1.13,-1.22,-0.75,45.658,-104.0612,36.4452,175,75
2026-05-09 16:07:20.131,2,-0.25,0.42,0.28,10.5528,185.3594,37.7058,175,75
2026-05-09 16:07:20.145,5,0.37,0.49,0.55,53.827400000000004,54.8964,-48.1028,175,75
2026-05-09 16:07:20.145,3,0.9,-0.91,-0.35,79.378,-44.8012,41.985200000000006,175,75
2026-05-09 16:07:20.145,4,-0.23,0.29,0.99,23.771600000000003,36.7866,36.5376,175,75
2026-05-09 16:07:20.145,1,0.11,0.19,2.01,427.8518,-81.7874,27.6514,175,75
2026-05-09 16:07:20.157,2,0.09,0.28,0.53,18.2328,141.51940000000002,16.175800000000002,175,75
2026-05-09 16:07:20.157,3,0.76,-0.63,0.5,131.75799999999998,46.848800000000004,52.29520000000001,175,75
2026-05-09 16:07:20.157,5,-0.12,0.44,0.52,45.2274,-33.693599999999996,-17.8328,175,75
2026-05-09 16:07:20.167,2,-0.21,0.15,0.64,22.0128,80.77940000000001,-20.1642,175,75
2026-05-09 16:07:20.167,1,0.17,-0.04,1.81,439.0118,-104.6474,26.2514,175,75
2026-05-09 16:07:20.167,2,-0.22,0.2,0.65,18.9628,23.469400000000004,-39.6142,175,75
2026-05-09 16:07:20.177,4,-0.16,0.8,1.31,-16.528399999999998,36.846599999999995,30.5676,175,75
2026-05-09 16:07:20.177,1,0.16,-0.21,1.8,441.5118,-120.4374,25.4014,175,75
2026-05-09 16:07:20.177,5,-0.03,0.37,0.4,13.107399999999998,-95.0336,-23.302799999999998,175,75
2026-05-09 16:07:20.177,2,-0.14,0.38,0.57,16.4028,-39.64059999999999,-45.8942,175,75
2026-05-09 16:07:20.190,3,-0.7,-0.08,1.2,197.90800000000002,109.10879999999999,123.3952,175,75
2026-05-09 16:07:20.190,5,0.1,0.28,0.3,-3.722600000000001,-100.2436,-25.0828,175,75
2026-05-09 16:07:20.190,1,0.17,-0.35,1.75,443.4618,-149.0374,25.031399999999998,175,75
2026-05-09 16:07:20.190,4,-0.12,1.12,1.45,-14.268400000000002,42.3966,21.5976,175,75
2026-05-09 16:07:20.204,5,0.18,0.18,0.16,-19.9426,-92.9736,-18.9628,175,75
2026-05-09 16:07:20.204,2,-0.26,1.04,0.25,21.3428,-135.0106,-1.2042000000000002,175,75
2026-05-09 16:07:20.204,4,-0.07,1.17,1.51,-12.2584,41.9066,23.7376,175,75
2026-05-09 16:07:20.204,1,-0.11,-0.63,1.54,441.9318,-189.7674,24.1814,175,75
2026-05-09 16:07:20.210,5,0.17,0.09,0.02,-33.8826,-82.84360000000001,-3.2927999999999997,175,75
2026-05-09 16:07:20.210,3,0.47,-0.35,0.79,239.988,-34.7312,73.8752,175,75
2026-05-09 16:07:20.210,2,-0.35,1.26,0.11,31.3428,-143.9706,8.985800000000001,175,75
2026-05-09 16:07:20.210,4,-0.08,1.11,1.53,-10.7984,29.956599999999998,23.6076,175,75
2026-05-09 16:07:20.224,5,0.05,-0.0,-0.09,-45.0126,-79.7236,14.8172,175,75
2026-05-09 16:07:20.224,1,-0.37,-1.03,1.4,439.9218,-182.4574,8.6314,175,75
2026-05-09 16:07:20.224,3,-0.1,0.63,0.51,265.898,74.2888,56.565200000000004,175,75
2026-05-09 16:07:20.224,2,-0.4,1.13,0.08,30.1828,-125.68059999999998,8.8558,175,75
2026-05-09 16:07:20.236,1,-0.36,-1.48,1.35,431.9918,-170.6274,-6.1286,175,75
2026-05-09 16:07:20.236,3,-1.11,1.04,1.51,253.88800000000003,245.8788,129.73520000000002,175,75
2026-05-09 16:07:20.236,4,-0.11,0.85,1.5,-9.1484,2.3965999999999994,13.3076,175,75
2026-05-09 16:07:20.236,2,-0.4,0.82,0.02,21.0428,-66.2306,1.2957999999999998,175,75
2026-05-09 16:07:20.236,5,-0.26,-0.28,-0.43,-26.6026,-117.1336,58.3672,175,75
2026-05-09 16:07:20.246,3,0.31,0.37,2.16,242.788,128.30880000000002,134.0652,175,75
2026-05-09 16:07:20.246,4,-0.1,0.79,1.48,-12.378400000000001,-3.583400000000001,3.6076000000000015,175,75
2026-05-09 16:07:20.246,2,-0.46,0.53,0.04,-0.5471999999999999,-2.140599999999999,-7.6042000000000005,175,75
2026-05-09 16:07:20.246,5,-0.44,-0.38,-0.66,-1.0826000000000002,-164.2136,81.2772,175,75
2026-05-09 16:07:20.261,4,-0.06,0.8,1.45,-16.2884,-4.003400000000003,-5.102399999999998,175,75
2026-05-09 16:07:20.261,5,-0.5,-0.27,-0.9,20.9574,-220.52360000000002,88.9472,175,75
2026-05-09 16:07:20.262,2,-0.41,0.46,0.1,-9.0772,31.329400000000003,-18.214199999999998,175,75
2026-05-09 16:07:20.262,3,0.5,-0.09,1.02,161.20800000000003,-20.9512,119.1852,175,75
2026-05-09 16:07:20.267,5,-0.24,0.01,-1.16,21.8874,-252.6136,61.1472,175,75
2026-05-09 16:07:20.284,5,0.23,0.2,-1.36,-0.7626,-229.4036,4.927199999999999,175,75
2026-05-09 16:07:20.284,3,0.81,0.02,0.78,130.83800000000002,-71.44120000000001,102.7852,175,75
2026-05-09 16:07:20.311,4,0.16,0.89,1.44,-9.698400000000001,47.0866,-9.2524,175,75
2026-05-09 16:07:20.311,2,-0.45,0.53,0.27,-24.5072,-42.810599999999994,-28.644199999999998,175,75
2026-05-09 16:07:20.311,1,-9.34,-0.93,-10.62,519.2518,-751.4174,-67.2186,175,75
2026-05-09 16:07:20.311,4,0.26,0.76,1.46,-4.208399999999999,74.95660000000001,-7.672399999999998,175,75
2026-05-09 16:07:20.322,5,-0.02,0.22,-0.3,-16.752599999999997,-75.73360000000001,2.7471999999999994,175,75
2026-05-09 16:07:20.322,1,-0.56,-6.39,-14.06,211.3218,-116.5374,363.32140000000004,175,75
2026-05-09 16:07:20.322,2,-0.46,0.45,0.26,-29.8172,-68.4206,-14.004199999999999,175,75
2026-05-09 16:07:20.322,4,0.35,0.54,1.45,2.6216,99.9566,-2.4824,175,75
2026-05-09 16:07:20.322,3,0.76,0.24,0.31,15.288000000000004,-120.6512,99.6152,175,75
2026-05-09 16:07:20.322,5,0.37,0.13,-0.33,-16.7026,-0.03359999999999985,-0.7927999999999997,175,75
2026-05-09 16:07:20.333,2,-0.42,0.24,0.27,-32.9872,-98.0606,3.9258000000000006,175,75
2026-05-09 16:07:20.333,1,-1.6,-1.63,1.92,-383.3082,977.3026,-230.8786,175,75
2026-05-09 16:07:20.333,4,0.43,0.23,1.41,13.4116,113.8566,5.377600000000001,175,75
2026-05-09 16:07:20.333,3,0.61,0.35,0.55,-10.322,-96.8112,76.3152,175,75
2026-05-09 16:07:20.333,5,0.67,0.02,-0.39,-1.7926000000000002,98.76639999999999,16.1772,175,75
2026-05-09 16:07:20.333,1,-3.39,-0.51,6.34,-795.6882,847.6726,-339.41859999999997,175,75
2026-05-09 16:07:20.345,3,0.38,0.49,0.8,-37.572,-76.6212,63.455200000000005,175,75
2026-05-09 16:07:20.345,5,1.11,-0.02,-0.39,10.3474,201.9864,32.52719999999999,175,75
2026-05-09 16:07:20.345,4,0.4,-0.17,1.34,24.931600000000003,105.6266,18.9176,175,75
2026-05-09 16:07:20.345,2,-0.3,-0.83,0.31,-44.8772,-191.9606,54.9558,175,75
2026-05-09 16:07:20.345,5,1.7,0.1,-0.34,12.087399999999999,247.6564,45.74720000000001,175,75
2026-05-09 16:07:20.356,4,0.3,-0.64,1.18,31.271600000000003,118.00659999999999,39.7076,175,75
2026-05-09 16:07:20.356,1,0.34,-0.74,1.83,-90.1982,-87.87740000000001,-33.2586,175,75
2026-05-09 16:07:20.356,2,-0.29,-1.44,0.29,-50.1172,-220.0106,114.77579999999999,175,75
2026-05-09 16:07:20.356,3,0.13,0.24,0.92,-103.982,-99.1212,9.365200000000002,175,75
2026-05-09 16:07:20.368,4,0.26,-1.05,1.08,29.991600000000002,147.3366,61.5976,175,75
2026-05-09 16:07:20.368,1,0.74,-0.55,0.8,-170.9882,-81.4774,-28.628600000000002,175,75
2026-05-09 16:07:20.368,5,2.0,1.85,-1.2,9.6274,247.6564,107.6972,175,75
2026-05-09 16:07:20.379,4,0.41,-1.41,1.16,18.1716,168.5566,80.3776,175,75
2026-05-09 16:07:20.379,1,0.59,0.4,-0.1,-146.7882,-49.3474,26.2514,175,75
2026-05-09 16:07:20.379,5,2.0,2.0,2.0,-80.0826,247.6564,200.9272,175,75
2026-05-09 16:07:20.379,2,-1.13,-2.27,-0.15,-64.2072,-201.4706,271.2358,175,75
2026-05-09 16:07:20.379,3,0.43,0.56,0.53,-161.35199999999998,-104.1212,-52.404799999999994,175,75
2026-05-09 16:07:20.390,4,0.54,-1.62,1.29,5.4816,175.2666,89.7676,175,75
2026-05-09 16:07:20.390,3,0.2,0.66,0.43,-198.67200000000003,-40.9512,-62.1548,175,75
2026-05-09 16:07:20.402,4,0.61,-1.73,1.45,-2.4384,159.9566,87.2076,175,75
2026-05-09 16:07:20.402,5,-2.0,-0.57,1.89,118.44739999999999,247.6564,60.7672,175,75
2026-05-09 16:07:20.402,1,-0.08,0.88,0.69,-106.7282,14.862599999999999,33.4514,175,75
2026-05-09 16:07:20.413,4,0.6,-1.73,1.56,1.1516,137.1566,71.0476,175,75
2026-05-09 16:07:20.413,2,-3.13,-2.45,-0.58,-16.7072,-1.7805999999999962,-83.6442,175,75
2026-05-09 16:07:20.413,1,-0.09,0.21,0.48,-80.8682,-1.9074000000000009,19.4814,175,75
2026-05-09 16:07:20.423,3,-0.09,0.66,0.49,-258.182,69.3488,-128.9248,175,75
2026-05-09 16:07:20.423,5,-2.0,0.13,1.02,92.3774,80.7764,-242.2128,175,75
2026-05-09 16:07:20.423,4,0.64,-1.78,1.67,11.881599999999999,107.0266,44.5276,175,75
2026-05-09 16:07:20.423,2,-2.25,-2.09,-0.41,1.7128,29.3194,-176.5042,175,75
2026-05-09 16:07:20.423,3,-0.12,0.83,0.53,-278.73199999999997,115.38879999999999,-157.52479999999997,175,75
2026-05-09 16:07:20.423,1,-0.02,-0.1,0.42,-57.458200000000005,-2.4574000000000007,8.141399999999999,175,75
2026-05-09 16:07:20.435,5,-2.0,0.74,1.78,21.337400000000002,-146.7836,-257.6628,175,75
2026-05-09 16:07:20.435,4,0.7,-1.84,1.7,13.1716,78.3666,27.5176,175,75
2026-05-09 16:07:20.435,2,-1.49,-1.64,-0.26,13.6628,29.629400000000004,-189.1842,175,75
2026-05-09 16:07:20.435,1,-0.36,-0.25,0.24,-25.748199999999997,7.672600000000001,0.9513999999999998,175,75
2026-05-09 16:07:20.435,5,-2.0,0.99,2.0,-52.8226,-252.6136,-202.0528,175,75
2026-05-09 16:07:20.446,4,0.69,-1.62,1.64,-3.2384,70.44659999999999,8.677600000000002,175,75
2026-05-09 16:07:20.446,2,-1.07,-1.34,-0.14,20.2428,23.0394,-147.7242,175,75
2026-05-09 16:07:20.446,1,-0.61,-0.46,0.5,-6.5382,30.782599999999995,-5.6986,175,75
2026-05-09 16:07:20.454,3,-0.06,1.04,1.34,-342.702,107.7688,-185.8748,175,75
2026-05-09 16:07:20.464,4,0.81,-1.11,1.59,-22.508399999999998,92.8866,-20.2324,175,75
2026-05-09 16:07:20.464,1,-0.74,-0.99,0.61,9.0718,64.0726,-12.158600000000002,175,75
2026-05-09 16:07:20.464,5,0.34,0.77,2.0,-151.27259999999998,-252.6136,126.4072,175,75
2026-05-09 16:07:20.475,5,1.27,0.62,2.0,-169.0726,-252.6136,242.6072,175,75
2026-05-09 16:07:20.475,2,-0.85,-1.2,0.0,10.1828,69.0194,-19.614199999999997,175,75
2026-05-09 16:07:20.475,4,1.1,-0.25,1.87,-36.2284,65.3266,16.657600000000002,175,75
2026-05-09 16:07:20.475,3,0.22,0.79,0.97,-368.852,26.8488,-220.02479999999997,175,75
2026-05-09 16:07:20.484,5,2.0,0.34,2.0,-131.18259999999998,-248.7536,242.6072,175,75
2026-05-09 16:07:20.484,2,-0.97,-0.94,0.04,1.8928,113.1594,35.5058,175,75
2026-05-09 16:07:20.484,1,-0.59,-1.45,1.64,-5.1982,88.15259999999999,-19.0486,175,75
2026-05-09 16:07:20.484,4,0.92,0.18,2.01,-45.7384,31.546599999999998,49.5876,175,75
2026-05-09 16:07:20.495,5,1.81,-0.48,2.0,-54.4026,-210.7936,242.6072,175,75
2026-05-09 16:07:20.508,1,-0.28,-1.01,2.29,-28.678199999999997,112.9126,15.6414,175,75
2026-05-09 16:07:20.509,2,-0.99,-0.38,0.08,14.8228,102.85940000000001,-7.1141999999999985,175,75
2026-05-09 16:07:20.509,5,0.51,-0.76,1.06,8.5474,-187.6436,242.6072,175,75
2026-05-09 16:07:20.519,3,-1.37,-0.06,3.13,-307.392,124.10879999999999,-234.22480000000002,175,75
2026-05-09 16:07:20.519,2,-0.86,-0.15,0.17,25.4328,55.2394,-66.6842,175,75
2026-05-09 16:07:20.519,5,0.36,-1.1,0.49,15.8274,-200.3236,242.6072,175,75
2026-05-09 16:07:20.519,3,-7.06,1.91,5.12,-197.022,175.6288,103.1452,175,75
2026-05-09 16:07:20.525,2,-0.78,0.07,0.2,30.6128,10.969400000000002,-120.1042,175,75
2026-05-09 16:07:20.525,1,0.06,-0.41,2.92,-41.2382,125.1026,42.531400000000005,175,75
2026-05-09 16:07:20.525,4,0.42,0.46,2.01,4.9916,-78.6434,18.0076,175,75
2026-05-09 16:07:20.549,2,-0.59,0.46,0.21,32.992799999999995,-36.9606,-177.11419999999998,175,75
2026-05-09 16:07:20.549,3,-5.61,-4.34,9.48,339.438,-68.58120000000001,49.425200000000004,175,75
2026-05-09 16:07:20.549,1,0.48,-0.35,2.08,-66.90820000000001,88.5226,19.4814,175,75
2026-05-09 16:07:20.549,4,0.17,0.62,1.52,22.311600000000002,-162.3634,-13.952399999999999,175,75
2026-05-09 16:07:20.562,2,-0.36,1.71,-0.07,20.7928,-19.0306,23.245800000000003,175,75
2026-05-09 16:07:20.562,1,-0.01,-0.26,0.84,-111.2382,50.4726,18.0214,175,75
2026-05-09 16:07:20.572,4,0.15,0.72,1.29,24.5716,-159.8034,-20.2924,175,75
2026-05-09 16:07:20.572,3,9.3,0.98,-0.94,-197.392,-847.9112,-187.58479999999997,175,75
2026-05-09 16:07:20.585,5,-0.45,-0.5,-0.34,112.70739999999999,13.426400000000001,-257.6628,175,75
2026-05-09 16:07:20.585,2,-0.91,0.94,0.06,18.2928,60.7794,31.2958,175,75
2026-05-09 16:07:20.585,3,-2.44,-0.38,-2.6,-395.322,-42.9112,172.0552,175,75
2026-05-09 16:07:20.585,4,0.17,0.79,0.95,32.251599999999996,-54.0034,10.867600000000001,175,75
2026-05-09 16:07:20.595,5,-0.35,-0.2,-0.03,58.437400000000004,61.8864,-257.6628,175,75
2026-05-09 16:07:20.595,3,-0.64,-1.16,-2.98,-73.312,321.9088,-52.824799999999996,175,75
2026-05-09 16:07:20.608,1,0.43,1.23,3.74,45.1018,-1.1774000000000004,4.4814,175,75
2026-05-09 16:07:20.608,5,-0.12,0.57,0.22,-64.9526,115.9664,-257.6628,175,75
2026-05-09 16:07:20.608,2,-0.91,0.01,0.38,-71.9472,126.8794,48.9258,175,75
2026-05-09 16:07:20.622,1,0.19,1.82,3.5,111.0218,1.4525999999999986,0.2113999999999998,175,75
2026-05-09 16:07:20.622,4,0.12,0.55,0.98,46.1516,82.94659999999999,46.4776,175,75
2026-05-09 16:07:20.622,3,-0.06,-0.53,0.93,272.298,556.7887999999999,-112.7648,175,75
2026-05-09 16:07:20.622,5,-0.05,0.81,0.28,-130.5726,126.91639999999998,-257.6628,175,75
2026-05-09 16:07:20.622,2,-0.76,-0.01,0.42,-55.727199999999996,141.9994,20.1458,175,75
2026-05-09 16:07:20.622,1,0.44,2.06,3.73,173.4618,3.522599999999999,11.491399999999999,175,75
2026-05-09 16:07:20.627,5,0.55,1.07,0.05,-178.6926,136.0664,-257.6628,175,75
2026-05-09 16:07:20.627,4,0.21,0.23,1.19,39.5116,140.6866,50.4376,175,75
2026-05-09 16:07:20.641,2,-0.11,0.01,0.23,-33.9572,95.0494,-17.724199999999996,175,75
2026-05-09 16:07:20.642,3,1.71,0.02,2.58,196.56799999999998,329.4088,-20.5748,175,75
2026-05-09 16:07:20.642,4,0.23,0.12,1.29,33.9016,120.1366,33.6076,175,75
2026-05-09 16:07:20.642,1,0.41,1.73,3.67,216.6918,-44.287400000000005,33.2014,175,75
2026-05-09 16:07:20.648,1,0.3,1.03,3.29,262.7918,-83.7974,53.141400000000004,175,75
2026-05-09 16:07:20.654,2,0.21,0.08,0.58,-19.8772,0.10940000000000083,21.0558,175,75
2026-05-09 16:07:20.660,1,0.32,0.66,3.02,292.1218,-134.2874,63.0814,175,75
2026-05-09 16:07:20.660,3,0.49,-1.2,0.2,117.11800000000001,-153.5112,128.4552,175,75
2026-05-09 16:07:20.666,5,0.44,0.55,0.66,-177.8126,-6.803599999999999,-105.1228,175,75
2026-05-09 16:07:20.690,2,-0.3,0.2,0.28,-38.1072,-38.2406,13.1858,175,75
2026-05-09 16:07:20.690,3,0.36,-1.45,-0.51,173.45800000000003,-47.6612,96.5652,175,75
2026-05-09 16:07:20.690,4,0.11,0.29,1.32,31.0316,93.6166,-28.952399999999997,175,75
2026-05-09 16:07:20.701,4,0.19,0.48,1.36,23.4116,113.4366,-37.0624,175,75
2026-05-09 16:07:20.701,1,0.07,-0.21,1.84,338.0318,-194.4074,56.1914,175,75
2026-05-09 16:07:20.701,2,-0.55,0.34,0.13,-31.397199999999998,-16.040599999999998,-11.994200000000001,175,75
2026-05-09 16:07:20.701,3,0.86,-0.56,0.45,227.548,139.1088,68.2752,175,75
2026-05-09 16:07:20.701,4,0.23,0.59,1.4,19.811600000000002,137.3366,-36.6924,175,75
2026-05-09 16:07:20.701,2,-0.53,0.45,0.09,-18.6572,14.629400000000002,-14.8542,175,75
2026-05-09 16:07:20.712,5,0.3,-0.15,0.67,-43.0726,108.7064,78.24719999999999,175,75
2026-05-09 16:07:20.712,1,0.53,-0.51,1.56,352.0518,-168.1874,60.891400000000004,175,75
2026-05-09 16:07:20.712,3,0.7,-0.28,0.88,221.75799999999998,122.57879999999999,92.8452,175,75
2026-05-09 16:07:20.712,5,0.09,-0.21,0.57,-4.622599999999999,114.2064,169.0672,175,75
2026-05-09 16:07:20.712,2,-0.51,0.6,0.07,4.2728,69.9294,2.705800000000001,175,75
2026-05-09 16:07:20.712,1,-0.4,0.14,-1.27,322.5418,-512.0274,151.13139999999999,175,75
2026-05-09 16:07:20.732,2,-0.49,0.59,0.11,24.2728,102.3694,18.495800000000003,175,75
2026-05-09 16:07:20.740,5,-0.61,0.17,0.34,63.9874,-20.6936,242.6072,175,75
2026-05-09 16:07:20.741,4,0.67,0.33,1.65,22.3716,266.96659999999997,-44.9824,175,75
2026-05-09 16:07:20.752,1,-4.59,-2.19,-12.93,-138.1882,-83.48740000000001,-13.8086,175,75
2026-05-09 16:07:20.752,3,0.2,0.09,1.12,119.438,-8.7012,91.2552,175,75
2026-05-09 16:07:20.752,5,-0.33,0.01,0.14,65.14739999999999,-47.623599999999996,242.6072,175,75
2026-05-09 16:07:20.752,2,-0.36,-0.1,0.18,39.3328,48.82940000000001,58.985800000000005,175,75
2026-05-09 16:07:20.762,4,0.68,-0.01,1.67,36.9516,247.9466,-30.712399999999995,175,75
2026-05-09 16:07:20.763,1,0.67,-0.97,0.25,-238.8582,1066.4526,-202.2886,175,75
2026-05-09 16:07:20.763,3,-0.04,0.36,0.73,67.058,-14.671199999999999,80.5852,175,75
2026-05-09 16:07:20.763,5,0.38,-0.17,-0.03,70.7174,-49.383599999999994,224.1172,175,75
2026-05-09 16:07:20.763,2,-0.16,-0.67,0.14,39.4528,-3.240599999999997,82.7058,175,75
2026-05-09 16:07:20.763,4,0.47,-0.42,1.64,53.1716,220.4466,-21.452399999999997,175,75
2026-05-09 16:07:20.773,1,-2.89,-0.32,5.18,-613.7382,481.9926,-218.3186,175,75
2026-05-09 16:07:20.773,5,1.51,-0.35,-0.28,71.92739999999999,2.4764000000000004,183.09720000000002,175,75
2026-05-09 16:07:20.773,3,-0.21,0.68,0.53,49.007999999999996,15.9988,49.855199999999996,175,75
2026-05-09 16:07:20.773,4,0.25,-0.75,1.57,54.3816,212.3366,-12.7324,175,75
2026-05-09 16:07:20.773,2,-0.04,-1.3,0.22,41.772800000000004,-32.7506,111.7858,175,75
2026-05-09 16:07:20.787,5,2.0,-0.72,-0.24,61.6474,98.3164,134.65720000000002,175,75
2026-05-09 16:07:20.787,4,0.11,-0.99,1.55,45.9116,212.0866,-4.3123999999999985,175,75
2026-05-09 16:07:20.787,3,-0.35,0.75,0.87,40.598,83.49879999999999,50.40520000000001,175,75
2026-05-09 16:07:20.797,1,0.34,-0.71,1.59,67.2418,14.9826,-62.648599999999995,175,75
2026-05-09 16:07:20.797,2,-0.72,-2.17,-0.07,53.0528,-7.810600000000001,271.3558,175,75
2026-05-09 16:07:20.797,5,2.0,-2.0,2.0,35.6674,247.6564,57.10719999999999,175,75
2026-05-09 16:07:20.797,3,-0.11,0.32,0.53,-47.092,-4.1212,26.9852,175,75
2026-05-09 16:07:20.809,2,-1.0,-2.49,-0.3,64.7628,12.799400000000002,332.3358,175,75
2026-05-09 16:07:20.809,5,1.23,0.3,2.0,168.9874,247.6564,242.6072,175,75
2026-05-09 16:07:20.826,5,-1.75,0.07,2.0,33.8074,247.6564,68.79719999999999,175,75
2026-05-09 16:07:20.826,1,0.73,-0.63,0.64,-43.9782,32.9726,-1.0086000000000002,175,75
2026-05-09 16:07:20.826,1,0.02,-0.1,0.24,-10.8082,-15.4374,17.961399999999998,175,75
2026-05-09 16:07:20.826,5,-2.0,-0.23,1.51,14.7274,247.6564,-99.6328,175,75
2026-05-09 16:07:20.826,2,-2.46,-2.9,-0.44,73.1728,48.3494,-72.9042,175,75
2026-05-09 16:07:20.839,1,0.28,-0.12,0.18,22.0518,10.472599999999998,32.9014,175,75
2026-05-09 16:07:20.839,4,0.04,-0.94,1.48,41.5216,180.32659999999998,-33.0924,175,75
2026-05-09 16:07:20.852,1,-0.45,-0.44,0.38,63.0918,-5.317400000000001,39.421400000000006,175,75
2026-05-09 16:07:20.852,2,-1.35,-2.12,-0.1,38.0528,79.9294,-223.7042,175,75
2026-05-09 16:07:20.852,3,-0.16,0.58,0.57,-174.16199999999998,70.9388,-107.6448,175,75
2026-05-09 16:07:20.852,4,0.89,-0.7,1.81,56.461600000000004,162.0266,-46.0224,175,75
2026-05-09 16:07:20.865,5,-2.0,0.66,1.73,-63.33259999999999,-175.2836,-257.6628,175,75
2026-05-09 16:07:20.865,4,1.16,-0.32,2.03,12.0716,103.5566,73.1276,175,75
2026-05-09 16:07:20.865,1,-0.93,-0.58,0.55,129.0718,18.282600000000002,52.781400000000005,175,75
2026-05-09 16:07:20.865,3,0.15,0.85,1.26,-210.502,6.788799999999999,-150.7548,175,75
2026-05-09 16:07:20.865,2,-0.76,-0.57,0.19,-17.1872,52.189400000000006,-207.7842,175,75
2026-05-09 16:07:20.865,5,-2.0,0.57,1.2,-112.4226,-252.6136,-257.6628,175,75
2026-05-09 16:07:20.877,1,-0.62,-1.24,0.88,196.2618,73.0926,40.7014,175,75
2026-05-09 16:07:20.877,3,0.13,0.86,1.55,-244.952,-55.7112,-128.01479999999998,175,75
2026-05-09 16:07:20.877,5,-1.65,-0.04,0.41,-75.04260000000001,-252.6136,-222.2428,175,75
2026-05-09 16:07:20.889,4,0.48,-0.05,1.69,-18.048399999999997,74.3466,85.3776,175,75
2026-05-09 16:07:20.889,5,-0.35,0.04,0.93,-42.3526,-252.6136,-80.3428,175,75
2026-05-09 16:07:20.889,2,-0.77,0.21,0.3,-26.7072,83.3494,-136.5642,175,75
2026-05-09 16:07:20.889,4,0.35,0.15,1.8,-8.2984,44.956599999999995,40.3176,175,75
2026-05-09 16:07:20.900,1,0.15,-0.44,1.21,113.1518,301.7526,-15.0286,175,75
2026-05-09 16:07:20.900,2,-0.58,0.65,0.28,-28.3472,114.2594,-66.44420000000001,175,75
2026-05-09 16:07:20.900,5,0.69,0.31,1.51,-13.302599999999998,-252.6136,54.13719999999999,175,75
2026-05-09 16:07:20.900,4,0.31,0.47,1.97,-6.6484000000000005,10.3266,4.287600000000001,175,75
2026-05-09 16:07:20.916,1,-0.79,0.64,2.21,-16.6682,312.4826,-29.968600000000002,175,75
2026-05-09 16:07:20.916,5,1.39,0.18,1.46,46.8974,-252.6136,214.2972,175,75
2026-05-09 16:07:20.926,1,0.05,1.34,0.97,-153.3082,227.6026,-38.688599999999994,175,75
2026-05-09 16:07:20.926,5,1.72,0.07,0.79,140.8974,-252.6136,242.6072,175,75
2026-05-09 16:07:20.926,4,0.01,1.39,2.0,-32.5684,-50.5334,-24.922399999999996,175,75
2026-05-09 16:07:20.937,5,2.0,-0.12,-0.41,201.9274,-252.6136,242.6072,175,75
2026-05-09 16:07:20.937,3,0.26,-0.02,0.91,-295.62199999999996,-157.1712,-78.6848,175,75
2026-05-09 16:07:20.937,4,-0.01,1.6,1.88,-26.8984,-79.49340000000001,-33.9524,175,75
2026-05-09 16:07:20.937,5,2.0,0.04,-2.0,192.1074,-19.5536,242.6072,175,75
2026-05-09 16:07:20.955,5,1.44,-1.13,-2.0,160.59740000000002,209.3964,90.8372,175,75
2026-05-09 16:07:20.955,3,-0.11,-0.82,1.42,-243.372,-134.8612,-77.76480000000001,175,75
2026-05-09 16:07:20.955,2,-0.87,0.84,0.47,-38.1672,7.859400000000001,88.0058,175,75
2026-05-09 16:07:20.955,1,-0.32,-2.04,-0.65,-553.0082,12.972599999999998,-84.7186,175,75
2026-05-09 16:07:20.955,4,0.18,1.34,1.39,13.1016,-78.4534,-15.042399999999999,175,75
2026-05-09 16:07:20.966,5,-0.73,-1.33,-1.48,214.59740000000002,194.6764,39.717200000000005,175,75
2026-05-09 16:07:20.966,3,-0.28,-0.94,1.84,-187.572,-67.4812,-98.3748,175,75
2026-05-09 16:07:20.966,2,-0.91,0.51,0.41,-61.2172,-45.92059999999999,133.1858,175,75
2026-05-09 16:07:20.966,1,-0.7,-3.74,-0.26,-624.8982,94.37259999999999,-69.3586,175,75
2026-05-09 16:07:20.966,2,-0.55,0.41,0.35,-62.9272,-97.5106,142.7658,175,75
2026-05-09 16:07:20.966,5,-1.9,-0.71,-0.78,254.6174,80.04639999999999,1.6571999999999996,175,75
2026-05-09 16:07:20.976,3,-0.15,-0.38,1.7,-143.982,-15.5912,-131.2448,175,75
2026-05-09 16:07:20.976,4,0.35,0.88,1.07,14.3216,90.1366,-3.032400000000001,175,75
2026-05-09 16:07:20.976,5,-2.0,-0.35,-0.47,254.6174,-65.7736,-44.7928,175,75
2026-05-09 16:07:20.987,2,-1.01,0.52,0.34,-49.6872,-138.9106,85.99579999999999,175,75
2026-05-09 16:07:20.987,3,0.34,0.66,1.46,-94.952,55.0788,-127.5248,175,75
2026-05-09 16:07:20.987,4,0.5,0.81,1.14,4.2616,167.57659999999998,-7.852399999999998,175,75
2026-05-09 16:07:20.987,5,-2.0,0.05,-0.36,210.6074,-207.1836,-91.4328,175,75
2026-05-09 16:07:20.987,2,-1.55,0.78,0.01,-33.1072,-116.7206,4.3458000000000006,175,75
2026-05-09 16:07:20.990,1,-0.59,-2.22,1.67,-587.2782,22.3626,-58.3786,175,75
2026-05-09 16:07:20.990,4,0.63,0.82,1.34,2.2516,210.9366,-11.512399999999998,175,75
2026-05-09 16:07:20.992,3,-0.72,2.04,1.98,-32.572,154.83880000000002,-10.994799999999998,175,75
2026-05-09 16:07:21.002,5,-1.62,0.23,-0.49,130.2674,-252.6136,-116.31280000000001,175,75
2026-05-09 16:07:21.002,2,-1.25,0.88,-0.13,-4.9372,-87.4506,-49.9242,175,75
2026-05-09 16:07:21.002,1,-0.37,-1.6,1.78,-507.6982,57.852599999999995,-48.568599999999996,175,75
2026-05-09 16:07:21.002,4,0.72,0.72,1.62,17.491600000000002,206.7266,-15.2324,175,75
2026-05-09 16:07:21.014,5,-1.14,0.34,-0.74,25.997400000000003,-252.6136,-137.6828,175,75
2026-05-09 16:07:21.014,3,-3.4,2.69,4.48,312.238,518.6787999999999,229.2452,175,75
2026-05-09 16:07:21.014,1,-0.07,-0.36,1.89,-472.6982,94.98259999999999,-49.9086,175,75
2026-05-09 16:07:21.017,5,-0.3,0.36,-0.93,-96.5926,-252.6136,-163.50279999999998,175,75
2026-05-09 16:07:21.029,4,0.56,0.43,1.76,41.5216,141.8466,-22.672399999999996,175,75
2026-05-09 16:07:21.029,2,-1.07,0.65,-0.25,8.6028,3.469400000000004,117.0358,175,75
2026-05-09 16:07:21.029,1,0.2,0.21,1.79,-441.0582,105.4126,-40.148599999999995,175,75
2026-05-09 16:07:21.029,5,0.07,0.16,-0.88,-177.7826,-252.6136,-198.84279999999998,175,75
2026-05-09 16:07:21.040,4,0.31,0.13,1.7,53.9016,103.1266,-27.3624,175,75
2026-05-09 16:07:21.040,3,5.42,-2.4,1.73,180.598,-233.7612,-73.9848,175,75
2026-05-09 16:07:21.040,2,-0.95,0.11,-0.09,-16.4572,50.5394,174.4658,175,75
2026-05-09 16:07:21.040,5,-0.11,0.36,-0.6,-217.0126,-171.6836,-257.6628,175,75
2026-05-09 16:07:21.040,1,0.09,-0.29,1.62,-416.6682,95.1026,-40.148599999999995,175,75
2026-05-09 16:07:21.040,3,-0.11,-0.03,-0.42,-38.062,-533.0912000000001,321.1352,175,75
2026-05-09 16:07:21.054,2,0.15,-0.78,0.09,-43.6572,106.8794,145.9958,175,75
2026-05-09 16:07:21.054,5,-0.26,0.7,-0.28,-240.0726,-71.81360000000001,-257.6628,175,75
2026-05-09 16:07:21.054,4,-0.01,-0.39,1.44,59.9916,126.9666,-19.9824,175,75
2026-05-09 16:07:21.054,1,-0.07,-0.49,1.72,-391.7282,90.5326,-61.5486,175,75
2026-05-09 16:07:21.054,2,-0.44,-1.03,0.05,-48.5972,130.9694,135.6258,175,75
2026-05-09 16:07:21.058,1,-0.12,-0.26,1.86,-364.7082,78.5826,-68.98859999999999,175,75
2026-05-09 16:07:21.072,2,0.12,-1.69,0.19,-33.5972,126.7594,172.4558,175,75
2026-05-09 16:07:21.072,5,2.0,1.14,-0.66,-245.65259999999998,247.6564,-182.78279999999998,175,75
2026-05-09 16:07:21.072,3,-0.46,-0.92,2.2,182.368,146.9088,-200.38479999999998,175,75
2026-05-09 16:07:21.072,4,0.07,-0.66,1.25,52.9216,179.7166,-5.8424,175,75
2026-05-09 16:07:21.085,5,2.0,1.95,-0.05,-245.65259999999998,247.6564,92.7772,175,75
2026-05-09 16:07:21.085,1,0.11,0.05,1.96,-327.33820000000003,-2.2674000000000003,-27.1586,175,75
2026-05-09 16:07:21.085,4,0.12,-0.65,1.26,46.461600000000004,195.32659999999998,-5.5924,175,75
2026-05-09 16:07:21.096,2,-0.06,-2.09,0.23,-32.7972,25.599400000000003,227.88580000000002,175,75
2026-05-09 16:07:21.096,4,0.27,-0.57,1.38,39.2016,232.3966,-6.7524,175,75
2026-05-09 16:07:21.106,5,2.0,2.0,2.0,-245.65259999999998,247.6564,242.6072,175,75
2026-05-09 16:07:21.106,1,0.22,0.49,1.98,-247.7582,33.0926,4.3614,175,75
2026-05-09 16:07:21.106,3,-0.31,-2.18,1.61,33.458,-84.3112,90.9552,175,75
2026-05-09 16:07:21.106,5,-1.31,-1.84,2.0,-245.65259999999998,-128.4436,242.6072,175,75
2026-05-09 16:07:21.117,4,0.49,-0.48,1.63,38.4716,253.9766,0.31760000000000055,175,75
2026-05-09 16:07:21.117,3,-0.34,-1.49,1.39,59.678,-17.1112,-4.224799999999998,175,75
2026-05-09 16:07:21.117,5,2.0,-2.0,2.0,-236.6426,-22.9436,242.6072,175,75
2026-05-09 16:07:21.117,2,-0.46,-1.86,0.06,7.2628,-130.50060000000002,-65.4642,175,75
2026-05-09 16:07:21.133,1,0.2,1.67,2.96,-77.3382,17.062599999999996,-14.238600000000002,175,75
2026-05-09 16:07:21.133,5,0.4,-2.0,2.0,-80.3326,191.7964,242.6072,175,75
2026-05-09 16:07:21.133,2,-0.14,-1.79,-0.01,10.7928,-165.13060000000002,-69.55420000000001,175,75
2026-05-09 16:07:21.149,4,0.33,-1.0,1.97,16.0316,98.00659999999999,72.7576,175,75
2026-05-09 16:07:21.149,5,-2.0,-1.43,1.71,156.8574,174.2864,167.7672,175,75
2026-05-09 16:07:21.149,1,0.3,2.04,2.85,71.6318,-101.2974,-0.20860000000000012,175,75
2026-05-09 16:07:21.162,4,0.38,-1.18,1.92,5.8515999999999995,76.5466,43.9176,175,75
2026-05-09 16:07:21.162,5,-2.0,-1.25,2.0,166.8874,-20.7636,-123.3328,175,75
2026-05-09 16:07:21.162,1,0.27,1.74,2.56,111.9318,-99.5874,9.1214,175,75
2026-05-09 16:07:21.162,3,-0.63,-1.16,0.75,27.238,-16.9912,-1.6647999999999996,175,75
2026-05-09 16:07:21.173,2,-0.47,-1.55,-0.54,49.5728,-66.9606,-34.554199999999994,175,75
2026-05-09 16:07:21.184,5,-1.09,-1.05,2.0,45.8874,-252.6136,-257.6628,175,75
2026-05-09 16:07:21.184,1,0.45,1.31,2.15,217.5418,-58.1274,17.4714,175,75
2026-05-09 16:07:21.200,4,0.66,-0.47,1.9,-28.478399999999997,-60.8934,26.5376,175,75
2026-05-09 16:07:21.200,5,0.21,-0.54,1.65,79.6074,-252.6136,-257.6628,175,75
2026-05-09 16:07:21.200,3,0.49,-0.88,0.74,9.008000000000003,-118.58120000000001,-12.584799999999998,175,75
2026-05-09 16:07:21.200,5,1.79,0.19,1.23,118.1374,-252.6136,-257.6628,175,75
2026-05-09 16:07:21.212,4,0.43,-0.19,1.79,-37.7484,-106.7534,31.967599999999997,175,75
2026-05-09 16:07:21.212,1,0.51,1.1,1.92,324.3718,-12.5774,25.0914,175,75
2026-05-09 16:07:21.212,3,0.53,-1.06,0.44,10.958000000000002,-124.55120000000001,2.3552,175,75
2026-05-09 16:07:21.212,5,2.0,0.76,0.98,117.89739999999999,-252.6136,-257.6628,175,75
2026-05-09 16:07:21.212,2,-0.42,-0.33,-0.08,83.7828,149.3194,-148.7642,175,75
2026-05-09 16:07:21.224,1,0.52,0.84,1.93,365.2918,17.1226,32.5914,175,75
2026-05-09 16:07:21.224,5,2.0,1.18,0.71,103.2674,-130.4236,-257.6628,175,75
2026-05-09 16:07:21.224,3,0.74,-1.14,0.26,21.567999999999998,-83.52120000000001,-7.644799999999998,175,75
2026-05-09 16:07:21.224,2,0.07,-0.1,0.14,52.7428,219.9894,-82.4842,175,75
2026-05-09 16:07:21.234,5,2.0,1.19,0.51,97.4674,29.8764,-208.0828,175,75
2026-05-09 16:07:21.235,1,0.54,0.6,2.02,395.16179999999997,25.352599999999995,41.681400000000004,175,75
2026-05-09 16:07:21.235,4,-0.09,0.23,1.65,-40.0084,-169.7334,24.407600000000002,175,75
2026-05-09 16:07:21.235,2,0.06,0.18,0.25,23.9628,257.9794,1.4858000000000002,175,75
2026-05-09 16:07:21.245,5,1.23,0.62,0.66,107.0474,140.3264,-99.36280000000001,175,75
2026-05-09 16:07:21.245,1,0.51,0.33,2.05,415.2318,20.0426,50.641400000000004,175,75
2026-05-09 16:07:21.245,4,-0.13,0.35,1.59,-32.5084,-164.8034,23.8576,175,75
2026-05-09 16:07:21.245,2,0.11,0.19,0.33,18.2328,229.19940000000003,9.9558,175,75
2026-05-09 16:07:21.256,1,0.46,0.07,2.02,432.7318,14.742599999999998,59.3014,175,75
2026-05-09 16:07:21.256,2,-0.03,0.09,0.38,28.1128,158.2794,-7.9642,175,75
2026-05-09 16:07:21.256,5,-0.45,0.5,0.61,81.0174,211.7464,-98.5428,175,75
2026-05-09 16:07:21.267,1,0.46,-0.13,2.01,444.1918,1.7525999999999993,64.48140000000001,175,75
2026-05-09 16:07:21.267,3,0.57,-0.26,0.19,88.398,-44.0012,17.965200000000003,175,75
2026-05-09 16:07:21.267,5,-0.59,0.35,0.48,74.56739999999999,160.5864,-83.3028,175,75
2026-05-09 16:07:21.279,2,-0.11,0.09,0.42,39.8828,64.3194,-31.504199999999997,175,75
2026-05-09 16:07:21.279,3,0.48,-0.13,0.46,121.878,-7.6612,37.2352,175,75
2026-05-09 16:07:21.279,5,-0.56,0.27,0.15,91.6074,48.586400000000005,-2.9628000000000005,175,75
2026-05-09 16:07:21.279,2,-0.15,0.21,0.38,35.8528,2.429400000000001,-53.8842,175,75
2026-05-09 16:07:21.288,4,-0.08,0.63,1.48,-24.818399999999997,-160.4134,32.8776,175,75
2026-05-09 16:07:21.288,1,0.32,-0.45,1.98,446.4418,-59.3474,74.12140000000001,175,75
2026-05-09 16:07:21.288,3,0.64,-0.39,0.47,147.488,6.548799999999999,67.0552,175,75
2026-05-09 16:07:21.288,5,-0.68,0.51,0.21,116.9974,-97.3336,85.04719999999999,175,75
2026-05-09 16:07:21.288,2,-0.2,0.42,0.27,20.3728,-31.5306,-64.3742,175,75
2026-05-09 16:07:21.305,5,-0.23,0.57,0.27,102.0174,-164.0936,102.1472,175,75
2026-05-09 16:07:21.305,3,0.42,-0.48,0.37,151.01800000000003,30.1988,73.51520000000001,175,75
2026-05-09 16:07:21.315,5,0.46,0.39,0.15,84.83739999999999,-165.1036,134.2672,175,75
2026-05-09 16:07:21.316,1,0.42,-0.65,1.8,444.9218,-95.62740000000001,69.6014,175,75
2026-05-09 16:07:21.316,3,-0.09,-0.35,0.66,163.27800000000002,94.46879999999999,77.0552,175,75
2026-05-09 16:07:21.316,4,-0.07,0.85,1.45,-15.3684,-160.0434,18.4276,175,75
2026-05-09 16:07:21.327,2,-0.49,1.01,0.07,2.5028,-41.11059999999999,-57.9642,175,75
2026-05-09 16:07:21.344,4,-0.07,1.07,1.4,3.8416,-127.9734,19.157600000000002,175,75
2026-05-09 16:07:21.344,5,0.23,-0.05,-0.19,81.0274,-88.26360000000001,222.58720000000002,175,75
2026-05-09 16:07:21.344,3,0.19,-0.2,0.97,208.45800000000003,17.6388,80.1652,175,75
2026-05-09 16:07:21.344,2,-0.6,1.24,0.18,8.1128,33.0394,-21.684199999999997,175,75
2026-05-09 16:07:21.344,4,-0.15,1.04,1.41,8.6516,-110.2234,23.4876,175,75
2026-05-09 16:07:21.346,5,0.08,-0.18,-0.34,86.7474,-75.01360000000001,214.87720000000002,175,75
2026-05-09 16:07:21.358,3,0.35,0.14,0.66,217.178,58.1888,62.595200000000006,175,75
2026-05-09 16:07:21.358,1,0.07,-1.37,1.36,388.8218,-249.3474,11.251399999999999,175,75
2026-05-09 16:07:21.358,5,-0.04,-0.2,-0.56,104.05739999999999,-70.4736,197.0372,175,75
2026-05-09 16:07:21.372,1,0.32,-1.2,1.1,360.6518,-275.0774,7.4113999999999995,175,75
2026-05-09 16:07:21.372,2,-0.47,0.9,0.25,-4.5672,36.4594,-7.9642,175,75
2026-05-09 16:07:21.372,4,-0.22,0.97,1.46,12.8616,-78.8234,25.4976,175,75
2026-05-09 16:07:21.372,3,-0.21,0.85,1.66,251.07800000000003,125.8088,77.5952,175,75
2026-05-09 16:07:21.384,2,-0.35,0.67,0.34,-18.1672,20.049400000000002,-3.514199999999999,175,75
2026-05-09 16:07:21.384,3,0.14,0.13,1.34,145.228,-139.31119999999999,160.9552,175,75
2026-05-09 16:07:21.384,2,-0.47,0.53,0.4,-32.0072,-60.4306,-24.184199999999997,175,75
2026-05-09 16:07:21.401,5,-0.77,-0.02,-0.6,19.0074,-161.3236,34.587199999999996,175,75
2026-05-09 16:07:21.401,4,0.14,0.71,1.44,12.8616,-18.6434,5.2576,175,75
2026-05-09 16:07:21.412,2,-0.41,0.56,0.4,-32.2572,-110.62060000000001,-30.404199999999996,175,75
2026-05-09 16:07:21.412,1,-0.3,-0.36,-4.59,361.2618,-496.7174,-31.128600000000002,175,75
2026-05-09 16:07:21.412,5,-0.67,-0.04,-0.51,-13.9226,-190.6236,0.5372000000000003,175,75
2026-05-09 16:07:21.412,1,-6.04,-1.84,-10.22,374.1918,-771.4174,-15.8786,175,75
2026-05-09 16:07:21.417,5,0.05,-0.24,-0.61,-28.732599999999998,-175.2036,-13.1628,175,75
2026-05-09 16:07:21.439,5,0.73,-0.38,-0.75,-21.4426,-88.12360000000001,-19.802799999999998,175,75
2026-05-09 16:07:21.439,3,0.65,0.92,0.44,47.977999999999994,-58.8812,113.3352,175,75
2026-05-09 16:07:21.439,2,-0.62,0.22,0.28,-55.4872,-181.23059999999998,-7.174200000000001,175,75
2026-05-09 16:07:21.451,1,-4.36,-1.46,-1.7,-590.0182,496.3926,-63.748599999999996,175,75
2026-05-09 16:07:21.451,3,0.4,0.87,0.41,33.458,-61.8712,116.07520000000001,175,75
2026-05-09 16:07:21.451,2,-0.74,-0.07,0.27,-59.2072,-184.4606,8.9258,175,75
2026-05-09 16:07:21.451,3,0.18,0.78,0.38,14.678000000000004,-41.3212,100.7752,175,75
2026-05-09 16:07:21.462,2,-0.73,-0.51,0.27,-58.6572,-184.7606,41.3558,175,75
2026-05-09 16:07:21.462,1,-1.75,2.26,7.46,-943.0082,-22.6374,-5.5786,175,75
2026-05-09 16:07:21.462,5,0.42,-0.23,-0.17,12.3874,182.3464,-34.0928,175,75
2026-05-09 16:07:21.462,3,0.01,0.73,0.45,-22.332,2.7687999999999997,69.3052,175,75
2026-05-09 16:07:21.462,2,-0.52,-0.99,0.26,-55.977199999999996,-201.29059999999998,82.7658,175,75
2026-05-09 16:07:21.462,1,-1.07,2.0,1.34,-127.87819999999999,-260.31739999999996,70.5214,175,75
2026-05-09 16:07:21.475,5,0.89,-0.13,0.03,7.6974,247.6564,-39.052800000000005,175,75
2026-05-09 16:07:21.475,4,0.27,-0.52,1.2,45.7316,188.0066,57.397600000000004,175,75
2026-05-09 16:07:21.475,3,-0.02,0.67,0.6,-67.572,31.4788,38.6952,175,75
2026-05-09 16:07:21.475,4,0.33,-0.91,1.1,45.851600000000005,251.4166,69.8976,175,75
2026-05-09 16:07:21.475,1,0.06,-1.98,0.06,39.681799999999996,39.8626,-32.7686,175,75
2026-05-09 16:07:21.482,5,2.0,-0.64,0.32,16.2774,247.6564,-31.1528,175,75
2026-05-09 16:07:21.482,3,0.13,0.65,0.83,-104.712,19.5288,1.0152,175,75
2026-05-09 16:07:21.482,2,-0.49,-2.04,0.25,-54.2072,-235.19059999999996,240.9358,175,75
2026-05-09 16:07:21.497,1,1.27,-2.28,-0.37,-95.0782,-92.6374,-51.7986,175,75
2026-05-09 16:07:21.497,4,0.81,-1.57,1.34,32.5616,310.2666,106.35759999999999,175,75
2026-05-09 16:07:21.497,2,-1.02,-2.57,0.07,-50.4872,-215.80059999999997,284.7158,175,75
2026-05-09 16:07:21.497,5,0.49,0.31,2.0,17.4674,247.6564,120.2072,175,75
2026-05-09 16:07:21.508,1,1.3,-0.7,0.3,-91.2382,82.12259999999999,13.391399999999999,175,75
2026-05-09 16:07:21.508,3,0.18,1.12,0.82,-125.872,7.1588,-34.904799999999994,175,75
2026-05-09 16:07:21.508,5,-0.22,0.3,2.0,12.927399999999999,117.1364,-40.312799999999996,175,75
2026-05-09 16:07:21.508,2,-2.13,-3.08,-0.11,-46.5172,-188.30059999999997,175.07580000000002,175,75
2026-05-09 16:07:21.519,3,0.11,1.13,0.65,-134.892,22.5788,-23.8048,175,75
2026-05-09 16:07:21.519,1,0.33,0.22,0.73,-85.1982,-2.4574000000000007,13.9314,175,75
2026-05-09 16:07:21.519,2,-2.88,-3.27,-0.14,-48.9572,-151.7206,42.095800000000004,175,75
2026-05-09 16:07:21.519,5,2.0,1.07,2.0,-77.30260000000001,247.6564,-186.41279999999998,175,75
2026-05-09 16:07:21.519,4,0.83,-1.79,2.0,29.6916,256.2966,111.7876,175,75
2026-05-09 16:07:21.530,3,-0.05,0.66,0.43,-141.172,34.348800000000004,-62.2148,175,75
2026-05-09 16:07:21.530,1,-0.09,0.54,0.91,-81.90820000000001,-3.2474000000000007,32.0414,175,75
2026-05-09 16:07:21.530,5,-0.67,0.07,2.0,-130.0326,247.6564,-257.6628,175,75
2026-05-09 16:07:21.530,4,0.79,-1.69,2.23,42.4316,218.6166,70.6876,175,75
2026-05-09 16:07:21.530,2,-2.7,-2.76,-0.2,-50.8472,-50.50059999999999,-98.0942,175,75
2026-05-09 16:07:21.544,3,-0.36,0.61,0.19,-175.012,102.21879999999999,-128.6248,175,75
2026-05-09 16:07:21.544,5,-1.63,-0.3,2.0,-144.8626,247.6564,-257.6628,175,75
2026-05-09 16:07:21.544,1,0.13,0.38,0.81,-68.5582,-42.6374,10.7014,175,75
2026-05-09 16:07:21.544,4,0.86,-1.57,2.42,51.4016,161.5466,14.5876,175,75
2026-05-09 16:07:21.544,2,-1.92,-1.89,-0.17,-36.2172,5.7794000000000025,-159.61419999999998,175,75
2026-05-09 16:07:21.554,3,-0.29,0.87,0.19,-207.632,160.0188,-152.64479999999998,175,75
2026-05-09 16:07:21.554,1,0.05,0.28,0.32,-40.928200000000004,-52.6974,12.841399999999998,175,75
2026-05-09 16:07:21.554,5,-1.51,-0.12,2.0,-142.3126,223.3464,-121.6028,175,75
2026-05-09 16:07:21.554,2,-1.65,-1.21,-0.16,-5.5472,36.8194,-137.05419999999998,175,75
2026-05-09 16:07:21.554,1,0.02,-0.16,-0.11,-2.1482,-12.6374,17.961399999999998,175,75
2026-05-09 16:07:21.567,3,0.08,0.97,0.69,-221.48199999999997,200.0188,-187.9448,175,75
2026-05-09 16:07:21.567,4,1.15,-1.03,2.32,-18.1784,37.5766,30.6276,175,75
2026-05-09 16:07:21.567,5,-2.0,-0.17,2.0,-37.4626,-124.8636,154.7372,175,75
2026-05-09 16:07:21.580,3,0.01,0.95,0.94,-236.66199999999998,174.3488,-168.8648,175,75
2026-05-09 16:07:21.580,1,-0.25,-0.77,0.38,32.4218,59.5626,32.2914,175,75
2026-05-09 16:07:21.590,1,-0.21,-1.19,0.55,35.9618,62.73259999999999,31.8614,175,75
2026-05-09 16:07:21.590,4,0.81,-0.72,1.83,-21.4684,45.8066,49.287600000000005,175,75
2026-05-09 16:07:21.590,2,-1.27,-0.77,-0.13,55.7928,67.3694,-67.5442,175,75
2026-05-09 16:07:21.590,5,-1.87,0.01,2.0,-6.982600000000001,-252.6136,99.2372,175,75
2026-05-09 16:07:21.600,1,-0.3,-1.05,0.96,32.1218,110.4726,34.671400000000006,175,75
2026-05-09 16:07:21.600,3,-0.29,0.08,0.87,-255.93200000000002,78.4388,-200.26479999999998,175,75
2026-05-09 16:07:21.600,5,-0.46,-0.39,2.0,-27.3626,-252.6136,80.21719999999999,175,75
2026-05-09 16:07:21.600,3,-0.82,-0.02,1.62,-248.73199999999997,140.6288,-212.82479999999998,175,75
2026-05-09 16:07:21.611,1,-0.44,-1.02,1.49,17.7318,127.0626,45.821400000000004,175,75
2026-05-09 16:07:21.611,4,0.57,-0.43,2.15,-10.5484,6.116599999999998,30.1976,175,75
2026-05-09 16:07:21.611,5,0.81,-0.53,1.48,-8.912600000000001,-252.6136,128.4272,175,75
2026-05-09 16:07:21.611,1,-0.36,-0.97,1.81,12.3618,135.2926,51.681400000000004,175,75
2026-05-09 16:07:21.622,2,-0.73,-0.65,0.2,37.0728,158.4094,37.3358,175,75
2026-05-09 16:07:21.622,4,0.45,-0.2,2.2,-25.1284,-30.413400000000003,1.1776,175,75
2026-05-09 16:07:21.622,3,-8.3,3.03,6.05,80.048,465.5088,298.6352,175,75
2026-05-09 16:07:21.622,1,-0.3,-0.88,1.97,11.261800000000001,150.9026,49.1214,175,75
2026-05-09 16:07:21.635,5,1.33,-0.93,0.19,93.9874,-252.6136,242.6072,175,75
2026-05-09 16:07:21.635,1,-0.21,-0.63,1.97,3.8818,166.2026,43.391400000000004,175,75
2026-05-09 16:07:21.658,5,1.58,-0.98,-1.19,181.34740000000002,5.696400000000001,198.5072,175,75
2026-05-09 16:07:21.658,3,1.61,1.97,-0.11,-533.852,-888.2112000000001,47.845200000000006,175,75
2026-05-09 16:07:21.671,2,-0.15,0.59,0.42,30.1228,33.769400000000005,-56.20419999999999,175,75
2026-05-09 16:07:21.671,5,0.13,-0.76,-0.52,178.9574,86.9564,117.74719999999999,175,75
2026-05-09 16:07:21.678,1,0.45,-0.08,1.87,-71.1782,25.782599999999995,6.5614,175,75
2026-05-09 16:07:21.678,2,-0.32,0.93,0.31,13.0528,-26.650599999999997,26.1158,175,75
2026-05-09 16:07:21.718,1,0.26,1.37,2.8,-51.2382,39.2526,-8.8686,175,75
2026-05-09 16:07:21.733,4,0.06,0.87,1.2,35.851600000000005,-148.5234,-12.062399999999998,175,75
2026-05-09 16:07:21.733,5,-0.35,0.34,0.1,12.307400000000001,-25.9036,-257.6628,175,75
2026-05-09 16:07:21.733,4,0.14,0.72,1.12,42.5616,-113.39340000000001,-1.9323999999999995,175,75
2026-05-09 16:07:21.733,2,-0.87,0.51,-0.14,-27.3172,-32.3906,10.0158,175,75
2026-05-09 16:07:21.761,5,0.71,0.87,-0.29,-78.35260000000001,-16.1536,-257.6628,175,75
2026-05-09 16:07:21.761,1,0.9,2.66,3.45,199.2518,-28.547400000000003,0.8913999999999997,175,75
2026-05-09 16:07:21.761,2,-0.49,0.6,-0.13,-18.7772,48.769400000000005,28.495800000000003,175,75
2026-05-09 16:07:21.761,4,0.17,0.47,1.07,49.5116,-85.4734,3.3076000000000008,175,75
2026-05-09 16:07:21.761,2,-0.43,0.61,-0.02,-16.7072,112.9194,59.8958,175,75
2026-05-09 16:07:21.772,4,0.16,0.23,1.03,45.9116,-61.263400000000004,-0.4723999999999986,175,75
2026-05-09 16:07:21.772,1,0.61,1.97,3.18,246.6318,-35.437400000000004,21.2514,175,75
2026-05-09 16:07:21.772,5,1.33,0.98,-0.57,-104.41260000000001,-3.9335999999999998,-177.3828,175,75
2026-05-09 16:07:21.784,1,0.36,1.27,2.84,285.9018,-37.3974,36.0114,175,75
2026-05-09 16:07:21.784,2,-0.19,0.22,0.28,-24.4472,174.37939999999998,58.1858,175,75
2026-05-09 16:07:21.784,4,0.11,0.12,0.99,22.1916,-17.1134,-23.342399999999998,175,75
2026-05-09 16:07:21.784,5,0.3,0.7,-0.19,-125.9326,10.1364,-46.052800000000005,175,75
2026-05-09 16:07:21.808,2,-0.09,0.12,0.4,-29.8772,148.5294,43.0658,175,75
2026-05-09 16:07:21.808,5,0.11,0.43,0.05,-121.24260000000001,40.4164,-66.1528,175,75
2026-05-09 16:07:21.808,4,0.1,0.29,1.01,5.7916,24.8966,-41.752399999999994,175,75
2026-05-09 16:07:21.825,5,0.0,-0.24,0.03,-44.3426,102.6364,-65.5228,175,75
2026-05-09 16:07:21.825,2,-0.2,0.25,0.49,-37.0672,23.1594,8.0058,175,75
2026-05-09 16:07:21.825,5,0.42,-0.36,0.17,0.21740000000000048,109.7064,0.6771999999999991,175,75
2026-05-09 16:07:21.825,2,-0.27,0.34,0.43,-39.8172,-28.6706,7.455800000000001,175,75
2026-05-09 16:07:21.837,1,-2.06,0.96,-6.4,587.9118,-852.8774,170.4014,175,75
2026-05-09 16:07:21.837,4,0.51,0.9,1.25,-20.008399999999998,253.6166,-42.852399999999996,175,75
2026-05-09 16:07:21.837,3,-0.01,-0.41,1.46,160.168,69.83879999999999,97.90520000000001,175,75
2026-05-09 16:07:21.837,2,-0.39,0.32,0.32,-38.9572,-72.4506,25.385800000000003,175,75
2026-05-09 16:07:21.837,1,-5.46,-3.72,-8.7,-256.5982,511.0226,-123.6886,175,75
2026-05-09 16:07:21.845,4,0.57,0.76,1.39,-12.628400000000001,295.3266,-14.2524,175,75
2026-05-09 16:07:21.860,1,4.74,0.79,3.46,-194.2882,1404.1326000000001,-144.23860000000002,175,75
2026-05-09 16:07:21.901,3,0.21,-0.11,0.63,-11.291999999999998,-95.0412,52.7852,175,75
2026-05-09 16:07:21.913,5,1.47,0.06,2.0,-133.08259999999999,104.37639999999999,-257.6628,175,75
2026-05-09 16:07:21.913,2,-0.56,-2.02,-0.05,-17.6772,-73.0606,248.6758,175,75
2026-05-09 16:07:21.913,2,-1.08,-2.33,-0.24,-9.3272,-55.370599999999996,240.8758,175,75
2026-05-09 16:07:21.934,2,-1.91,-2.0,-0.06,-4.627199999999999,56.0894,-31.7442,175,75
2026-05-09 16:07:21.934,3,0.01,-0.06,-0.39,-155.93200000000002,6.8488,-25.694799999999997,175,75
2026-05-09 16:07:21.945,5,-1.21,-1.18,2.0,-127.1726,247.6564,62.4072,175,75
2026-05-09 16:07:21.945,5,-2.0,-1.02,1.9,-45.6426,207.2964,11.0672,175,75
2026-05-09 16:07:21.948,3,0.18,0.07,-0.01,-177.152,34.0488,-78.5548,175,75
2026-05-09 16:07:21.969,1,0.0,-1.19,0.97,104.8618,-25.9874,23.871399999999998,175,75
2026-05-09 16:07:21.969,4,0.44,-0.41,1.54,44.9916,-13.3934,93.24759999999999,175,75
2026-05-09 16:07:21.969,2,-0.23,-0.63,0.73,-12.0672,19.379400000000004,-86.2642,175,75
2026-05-09 16:07:21.969,3,0.42,0.01,0.48,-242.452,-19.8612,-100.8748,175,75
2026-05-09 16:07:21.979,1,-0.23,-1.29,1.15,129.4918,1.262599999999999,33.2014,175,75
2026-05-09 16:07:21.979,4,0.29,-0.43,1.48,34.9316,-39.133399999999995,82.6976,175,75
2026-05-09 16:07:21.979,1,0.1,-1.1,1.07,149.6218,76.26259999999999,15.401399999999999,175,75
2026-05-09 16:07:21.979,5,-2.0,-0.02,2.0,22.2774,-219.7336,-180.78279999999998,175,75
2026-05-09 16:07:21.987,2,-0.01,-0.55,0.81,-20.1172,-62.5106,-56.624199999999995,175,75
2026-05-09 16:07:21.987,3,0.32,-0.14,0.54,-270.012,-25.3412,-109.9048,175,75
2026-05-09 16:07:22.012,2,-0.36,0.0,0.56,-33.1072,-149.8306,-29.734199999999994,175,75
2026-05-09 16:07:22.012,1,-0.17,0.38,2.27,48.7618,202.4226,-18.1386,175,75
2026-05-09 16:07:22.012,3,0.36,-0.4,0.83,-290.502,-54.0012,-141.2448,175,75
2026-05-09 16:07:22.012,5,0.16,0.05,1.05,103.36739999999999,-252.6136,-8.4728,175,75
2026-05-09 16:07:22.012,1,-0.78,1.17,2.12,-56.1182,166.1426,-36.3086,175,75
2026-05-09 16:07:22.032,2,-0.71,1.4,0.11,16.2228,-25.370599999999996,-54.4942,175,75
2026-05-09 16:07:22.044,5,2.0,0.32,-1.88,236.94740000000002,-252.6136,242.6072,175,75
2026-05-09 16:07:22.044,4,0.17,0.94,1.36,-41.5884,23.796599999999998,1.3576000000000015,175,75
2026-05-09 16:07:22.044,5,1.99,0.53,-2.0,228.8374,-65.7836,242.6072,175,75
2026-05-09 16:07:22.057,4,0.03,0.97,1.36,-38.538399999999996,48.1866,-1.3923999999999985,175,75
2026-05-09 16:07:22.057,2,-0.78,1.42,-0.06,22.0128,14.499400000000001,-19.374200000000002,175,75
2026-05-09 16:07:22.057,5,0.3,-0.38,-1.89,155.3374,87.5864,17.2172,175,75
2026-05-09 16:07:22.076,5,-1.19,-0.75,-1.04,141.1074,83.54639999999999,-110.1228,175,75
2026-05-09 16:07:22.091,1,0.12,-3.0,1.17,-513.7982,137.1226,-25.6386,175,75
2026-05-09 16:07:22.091,4,0.13,0.75,1.51,-49.8184,122.0266,-21.2624,175,75
2026-05-09 16:07:22.091,3,0.44,0.29,2.51,-225.012,29.348800000000004,-141.4848,175,75
2026-05-09 16:07:22.091,4,0.16,0.67,1.55,-52.6884,122.8266,-32.3624,175,75
2026-05-09 16:07:22.091,1,0.28,-1.68,0.74,-525.9882,42.852599999999995,-6.3686,175,75
2026-05-09 16:07:22.091,3,-1.21,1.16,2.21,-241.05200000000002,-24.801199999999998,-14.414799999999998,175,75
2026-05-09 16:07:22.101,5,-1.31,-0.13,-0.5,61.5674,-231.2536,-141.34279999999998,175,75
2026-05-09 16:07:22.101,3,-6.24,4.18,4.91,96.508,215.80880000000002,254.36520000000002,175,75
2026-05-09 16:07:22.116,5,-1.07,-0.2,-0.74,17.6274,-252.6136,-114.9128,175,75
2026-05-09 16:07:22.116,4,0.18,0.59,1.57,-46.9584,116.1766,-49.0124,175,75
2026-05-09 16:07:22.116,1,-0.01,-0.89,1.94,-425.8082,84.3126,5.9514000000000005,175,75
2026-05-09 16:07:22.116,3,-2.27,0.68,6.88,327.058,108.30879999999999,134.36520000000002,175,75
2026-05-09 16:07:22.116,5,-0.49,-0.24,-1.04,-23.6126,-252.6136,-93.0528,175,75
2026-05-09 16:07:22.132,2,-0.73,0.39,-0.07,-18.0472,106.0894,15.325800000000001,175,75
2026-05-09 16:07:22.132,4,0.3,0.46,1.5,-31.958399999999997,132.3366,-47.9724,175,75
2026-05-09 16:07:22.132,2,-0.79,-0.03,0.02,-20.2972,123.88940000000001,53.2558,175,75
2026-05-09 16:07:22.145,5,0.2,0.22,-0.65,-116.5626,-160.0336,-119.9928,175,75
2026-05-09 16:07:22.145,2,-0.79,-0.66,0.1,-29.0772,140.1094,71.2958,175,75
2026-05-09 16:07:22.145,4,0.46,-0.0,1.36,1.2716,207.57659999999998,-18.892399999999995,175,75
2026-05-09 16:07:22.163,2,-0.8,-1.18,0.12,-42.0672,126.0294,110.3258,175,75
2026-05-09 16:07:22.163,5,0.32,0.63,-0.09,-180.5626,41.656400000000005,-202.2128,175,75
2026-05-09 16:07:22.163,4,0.54,-0.3,1.4,16.401600000000002,225.7466,-0.9623999999999988,175,75
2026-05-09 16:07:22.163,1,0.04,-0.24,1.35,-312.8782,121.08259999999999,-5.458600000000001,175,75
2026-05-09 16:07:22.163,3,-1.1,-2.16,-0.62,64.988,243.1288,120.16520000000001,175,75
2026-05-09 16:07:22.177,1,-0.0,-0.42,1.47,-288.4282,142.1826,-17.2186,175,75
2026-05-09 16:07:22.177,4,0.51,-0.54,1.48,21.8216,214.0466,11.6576,175,75
2026-05-09 16:07:22.177,2,-0.94,-1.5,-0.0,-44.9372,33.6494,180.38580000000002,175,75
2026-05-09 16:07:22.177,5,2.0,0.87,-0.47,-184.3626,247.6564,13.577200000000001,175,75
2026-05-09 16:07:22.177,4,0.47,-0.64,1.54,22.8016,211.5466,11.177600000000002,175,75
2026-05-09 16:07:22.189,3,-0.31,-0.59,-0.2,115.228,196.05880000000002,-24.104799999999997,175,75
2026-05-09 16:07:22.189,2,-1.12,-1.59,-0.19,-18.6572,-27.8106,153.6158,175,75
2026-05-09 16:07:22.191,4,0.6,-0.61,1.7,31.7616,223.1866,-4.742399999999998,175,75
2026-05-09 16:07:22.196,5,2.0,0.86,0.23,-245.65259999999998,247.6564,198.74720000000002,175,75
2026-05-09 16:07:22.216,1,0.25,0.5,1.47,-226.5982,74.98259999999999,11.8614,175,75
2026-05-09 16:07:22.239,3,0.21,-0.04,2.41,51.757999999999996,-151.2012,58.575199999999995,175,75
2026-05-09 16:07:22.239,1,0.33,1.18,1.79,-110.1382,61.1426,-17.7686,175,75
2026-05-09 16:07:22.239,4,0.94,-0.81,1.98,71.8816,145.9366,51.9076,175,75
2026-05-09 16:07:22.239,5,-1.07,-2.0,1.34,-42.1626,247.6564,242.6072,175,75
2026-05-09 16:07:22.250,4,0.66,-1.1,1.83,64.63159999999999,82.0866,66.2976,175,75
2026-05-09 16:07:22.250,1,0.52,1.77,2.35,-16.2382,2.3026,-35.6386,175,75
2026-05-09 16:07:22.250,2,-0.68,-1.48,-0.79,31.4028,-34.7606,-56.754200000000004,175,75
2026-05-09 16:07:22.250,5,-2.0,-1.56,1.77,68.2474,247.6564,227.77720000000002,175,75
2026-05-09 16:07:22.250,4,0.51,-1.24,1.71,56.211600000000004,60.3866,51.717600000000004,175,75
2026-05-09 16:07:22.261,2,-0.67,-1.42,-0.84,32.0728,20.049400000000002,-36.3842,175,75
2026-05-09 16:07:22.261,1,0.48,1.89,2.28,42.0518,-54.467400000000005,-29.718600000000002,175,75
2026-05-09 16:07:22.261,4,0.49,-1.18,1.65,48.711600000000004,48.7966,24.7676,175,75
2026-05-09 16:07:22.261,3,-0.62,-0.59,1.01,33.038000000000004,9.0488,-15.024799999999999,175,75
2026-05-09 16:07:22.275,5,-2.0,-0.98,2.0,105.5774,-173.9136,-242.4828,175,75
2026-05-09 16:07:22.275,1,0.4,1.67,2.18,91.3818,-78.48740000000001,-25.2086,175,75
2026-05-09 16:07:22.275,2,-0.61,-1.03,-0.61,51.1028,160.5394,10.2658,175,75
2026-05-09 16:07:22.275,3,-0.61,-0.62,0.92,24.558,-36.2012,-36.2448,175,75
2026-05-09 16:07:22.286,1,0.43,1.56,2.08,130.77179999999998,-80.6874,-22.7686,175,75
2026-05-09 16:07:22.286,4,0.57,-0.71,1.66,49.9916,11.546599999999998,10.8076,175,75
2026-05-09 16:07:22.286,3,-0.41,-0.76,0.78,9.868000000000002,-45.221199999999996,-40.7548,175,75
2026-05-09 16:07:22.309,2,-0.44,-0.7,-0.16,72.1328,174.13940000000002,-2.424199999999999,175,75
2026-05-09 16:07:22.309,4,0.34,-0.26,1.61,32.8016,-53.763400000000004,39.5876,175,75
2026-05-09 16:07:22.309,5,1.54,0.47,1.24,125.55739999999999,-252.6136,-257.6628,175,75
2026-05-09 16:07:22.309,1,0.39,1.3,1.77,270.7718,-61.2374,-4.0486,175,75
2026-05-09 16:07:22.325,5,2.0,0.97,0.78,123.80739999999999,-252.6136,-257.6628,175,75
2026-05-09 16:07:22.325,4,0.13,-0.16,1.53,22.491600000000002,-93.7634,39.9576,175,75
2026-05-09 16:07:22.325,3,0.26,-0.9,0.82,4.188000000000002,-60.221199999999996,-40.6948,175,75
2026-05-09 16:07:22.325,2,-0.32,-0.61,0.03,69.8828,127.4294,-14.9842,175,75
2026-05-09 16:07:22.325,2,-0.26,-0.56,0.15,58.8428,76.7594,-26.144199999999998,175,75
2026-05-09 16:07:22.325,3,0.43,-0.98,0.79,8.098000000000003,-55.5912,-35.1448,175,75
2026-05-09 16:07:22.336,5,2.0,1.74,0.69,92.72739999999999,-176.4236,-196.47279999999998,175,75
2026-05-09 16:07:22.336,4,0.0,-0.08,1.45,17.8016,-110.83340000000001,25.867600000000003,175,75
2026-05-09 16:07:22.336,2,-0.26,-0.5,0.2,37.3828,19.4994,-36.5042,175,75
2026-05-09 16:07:22.336,3,0.67,-0.99,0.77,8.278000000000002,-65.2812,-34.3548,175,75
2026-05-09 16:07:22.354,5,0.86,0.8,0.66,33.6374,94.8964,-50.3828,175,75
2026-05-09 16:07:22.354,1,0.27,0.54,1.77,374.3118,6.752599999999999,9.3014,175,75
2026-05-09 16:07:22.354,3,0.93,-0.86,0.55,2.7880000000000003,-93.0912,-20.444799999999997,175,75
2026-05-09 16:07:22.354,2,-0.36,-0.34,0.21,-7.7972,-29.400599999999997,-49.374199999999995,175,75
2026-05-09 16:07:22.365,5,0.25,0.55,0.61,10.407399999999999,165.41639999999998,-68.0228,175,75
2026-05-09 16:07:22.365,1,0.33,0.32,1.81,396.5118,10.5926,13.571399999999999,175,75
2026-05-09 16:07:22.365,4,0.07,0.36,1.4,1.8816000000000002,-122.48339999999999,4.897600000000001,175,75
2026-05-09 16:07:22.365,2,-0.36,-0.21,0.16,-18.1072,-19.700599999999994,-46.624199999999995,175,75
2026-05-09 16:07:22.365,5,-0.13,0.41,0.49,1.1474000000000002,187.3464,-87.7728,175,75
2026-05-09 16:07:22.377,1,0.32,0.2,1.77,405.0418,5.2926,22.711399999999998,175,75
2026-05-09 16:07:22.377,3,0.77,-0.66,0.07,24.498000000000005,-92.05120000000001,9.245200000000004,175,75
2026-05-09 16:07:22.377,4,0.05,0.52,1.35,-1.5284,-121.20339999999999,3.7376000000000005,175,75
2026-05-09 16:07:22.377,1,0.27,0.05,1.8,411.1418,-0.1374000000000013,29.4214,175,75
2026-05-09 16:07:22.377,5,-0.22,0.34,0.28,9.4374,152.69639999999998,-77.70280000000001,175,75
2026-05-09 16:07:22.388,4,0.01,0.61,1.3,-3.3584,-114.98339999999999,1.5376000000000012,175,75
2026-05-09 16:07:22.388,2,-0.4,0.11,0.12,-2.1272,13.829400000000001,-37.6642,175,75
2026-05-09 16:07:22.407,4,-0.01,0.72,1.28,-5.548400000000001,-100.83340000000001,-0.7823999999999991,175,75
2026-05-09 16:07:22.407,1,0.3,-0.32,1.97,418.8218,-53.9174,43.0214,175,75
2026-05-09 16:07:22.407,2,-0.4,0.27,0.14,7.0128,23.959400000000002,-47.6042,175,75
2026-05-09 16:07:22.407,4,-0.04,0.79,1.3,-7.0784,-84.1934,0.8076000000000008,175,75
2026-05-09 16:07:22.407,2,-0.43,0.45,0.17,11.1628,31.329400000000003,-55.8342,175,75
2026-05-09 16:07:22.407,5,0.26,0.58,0.56,44.3774,-91.5836,100.2872,175,75
2026-05-09 16:07:22.419,1,0.32,-0.52,1.89,417.0518,-85.8674,45.211400000000005,175,75
2026-05-09 16:07:22.419,3,0.71,-0.55,0.61,119.128,21.8488,73.4552,175,75
2026-05-09 16:07:22.419,5,0.3,0.24,0.39,46.827400000000004,-97.8836,121.8172,175,75
2026-05-09 16:07:22.419,4,-0.05,0.85,1.33,-6.0984,-64.9834,-1.202399999999999,175,75
2026-05-09 16:07:22.430,2,-0.5,0.93,0.19,7.2028,56.6394,-54.67419999999999,175,75
2026-05-09 16:07:22.430,1,0.16,-0.71,1.84,409.6818,-133.3074,46.1314,175,75
2026-05-09 16:07:22.430,5,0.18,0.1,0.28,51.6974,-98.26360000000001,139.4572,175,75
2026-05-09 16:07:22.430,3,0.08,-0.44,0.79,119.98800000000001,55.1988,98.2752,175,75
2026-05-09 16:07:22.443,1,0.04,-0.89,1.86,395.4718,-185.9874,42.101400000000005,175,75
2026-05-09 16:07:22.443,5,0.1,0.01,0.17,53.8874,-96.4636,142.6672,175,75
2026-05-09 16:07:22.443,3,-0.59,0.08,1.5,162.668,118.97879999999999,115.4052,175,75
2026-05-09 16:07:22.443,2,-0.43,1.31,0.34,2.9328000000000003,85.71940000000001,-21.324199999999998,175,75
2026-05-09 16:07:22.457,1,-0.06,-0.99,1.91,366.7518,-272.5174,38.2614,175,75
2026-05-09 16:07:22.469,3,0.41,-0.11,1.26,162.178,-29.1912,105.28519999999999,175,75
2026-05-09 16:07:22.469,5,-0.01,-0.09,-0.4,45.0974,-111.20360000000001,135.09720000000002,175,75
2026-05-09 16:07:22.479,4,0.13,0.89,1.25,-7.198400000000001,20.6866,-19.682399999999994,175,75
2026-05-09 16:07:22.479,5,-0.06,-0.05,-0.7,54.1674,-111.01360000000001,115.0272,175,75
2026-05-09 16:07:22.494,4,0.2,0.8,1.24,-6.5884,53.4366,-14.6824,175,75
2026-05-09 16:07:22.494,2,-0.33,0.56,0.61,-19.2672,-38.2406,-15.1042,175,75
2026-05-09 16:07:22.494,3,0.15,0.32,1.78,175.95800000000003,56.4788,141.3752,175,75
2026-05-09 16:07:22.505,5,-0.09,-0.24,-0.99,60.9874,-100.9436,43.547200000000004,175,75
2026-05-09 16:07:22.505,1,-0.25,-0.55,0.18,251.3818,-404.7674,-41.248599999999996,175,75
2026-05-09 16:07:22.505,2,-0.37,0.54,0.57,-17.8672,-89.3406,-23.154199999999996,175,75
2026-05-09 16:07:22.505,3,0.31,0.23,1.31,133.51800000000003,-62.971199999999996,150.6452,175,75
2026-05-09 16:07:22.505,5,-0.37,-0.18,-0.92,57.187400000000004,-119.09360000000001,14.4272,175,75
2026-05-09 16:07:22.516,2,-0.44,0.55,0.49,-19.8172,-123.6706,-21.504199999999997,175,75
2026-05-09 16:07:22.516,1,-0.86,-0.08,-1.18,229.1318,-243.3674,-65.8186,175,75
2026-05-09 16:07:22.516,4,0.29,0.58,1.37,-10.0084,114.1066,-25.172399999999996,175,75
2026-05-09 16:07:22.516,5,-0.54,-0.11,-0.76,46.8774,-153.5336,-7.4428,175,75
2026-05-09 16:07:22.527,3,-0.03,0.28,0.62,123.76800000000001,-60.9512,123.69520000000001,175,75
2026-05-09 16:07:22.527,2,-0.54,0.54,0.38,-25.2372,-149.0906,-12.2342,175,75
2026-05-09 16:07:22.527,5,-0.44,-0.09,-0.64,33.9174,-180.9636,-10.8328,175,75
2026-05-09 16:07:22.527,4,0.34,0.54,1.36,-8.2384,131.0566,-29.8624,175,75
2026-05-09 16:07:22.538,3,0.38,0.33,0.51,108.828,-28.2712,90.8352,175,75
2026-05-09 16:07:22.538,1,-1.21,0.39,-6.8,299.6218,-818.8574,1.3113999999999997,175,75
2026-05-09 16:07:22.538,2,-0.59,0.49,0.3,-28.897199999999998,-161.23059999999998,-2.2942,175,75
2026-05-09 16:07:22.538,4,0.38,0.52,1.32,-5.7384,152.82659999999998,-34.3124,175,75
2026-05-09 16:07:22.538,5,0.12,-0.11,-0.63,24.7174,-182.4236,22.8172,175,75
2026-05-09 16:07:22.548,1,-10.78,-1.6,-10.22,248.8818,-356.9674,64.1814,175,75
2026-05-09 16:07:22.548,2,-0.66,0.34,0.23,-32.3172,-162.1406,8.7958,175,75
2026-05-09 16:07:22.548,4,0.43,0.49,1.28,-3.2384,189.1066,-31.5124,175,75
2026-05-09 16:07:22.559,3,0.41,0.83,0.41,55.958,-50.9512,97.7252,175,75
2026-05-09 16:07:22.559,4,0.44,0.42,1.31,0.18159999999999998,227.6366,-19.3724,175,75
2026-05-09 16:07:22.571,3,0.25,0.77,0.31,39.498000000000005,-38.7012,82.4752,175,75
2026-05-09 16:07:22.571,2,-0.81,-0.09,0.17,-28.1072,-128.06060000000002,19.6558,175,75
2026-05-09 16:07:22.571,1,-6.06,-0.56,5.66,-760.3182,741.8726,-212.2886,175,75
2026-05-09 16:07:22.571,5,0.17,-0.14,-0.3,1.0974,36.156400000000005,22.557199999999998,175,75
2026-05-09 16:07:22.571,3,0.12,0.76,0.31,18.158,-10.4712,57.845200000000006,175,75
2026-05-09 16:07:22.582,1,0.26,1.76,6.36,-701.1182,161.0226,31.741400000000002,175,75
2026-05-09 16:07:22.582,5,0.31,-0.11,-0.17,-10.4026,105.9964,-7.7428,175,75
2026-05-09 16:07:22.582,2,-0.76,-0.5,0.15,-23.2272,-149.7606,45.7558,175,75
2026-05-09 16:07:22.582,4,0.33,0.09,1.57,14.7516,254.2266,17.6376,175,75
2026-05-09 16:07:22.582,3,0.02,0.78,0.45,-7.881999999999998,46.3588,29.425200000000004,175,75
2026-05-09 16:07:22.585,5,1.05,-0.14,-0.18,-20.732599999999998,208.72639999999998,-17.8928,175,75
2026-05-09 16:07:22.593,1,0.86,-2.11,1.11,7.4818,-44.7074,-3.4386,175,75
2026-05-09 16:07:22.593,2,-0.67,-1.06,0.15,-26.7672,-195.37060000000002,110.8758,175,75
2026-05-09 16:07:22.593,4,0.22,-0.15,1.66,22.0716,227.3966,33.4876,175,75
2026-05-09 16:07:22.593,1,1.52,-2.34,1.34,-66.8482,47.672599999999996,-14.7886,175,75
2026-05-09 16:07:22.600,5,2.0,-1.27,-0.28,7.8274,247.6564,-21.4428,175,75
2026-05-09 16:07:22.600,3,-0.37,0.93,0.61,-48.492,108.4388,7.845200000000002,175,75
2026-05-09 16:07:22.611,4,0.14,-0.42,1.69,26.951600000000003,201.0566,50.1976,175,75
2026-05-09 16:07:22.611,3,-0.06,0.91,0.98,-61.052,84.83879999999999,-29.104799999999997,175,75
2026-05-09 16:07:22.611,5,2.0,1.08,-2.0,82.30739999999999,247.6564,-11.8128,175,75
2026-05-09 16:07:22.627,1,0.67,0.32,0.27,-80.6282,-27.0274,61.491400000000006,175,75
2026-05-09 16:07:22.627,5,-2.0,0.2,2.0,61.9474,247.6564,171.21720000000002,175,75
2026-05-09 16:07:22.641,3,0.26,1.41,0.77,-87.762,-12.0512,-89.2248,175,75
2026-05-09 16:07:22.641,4,0.18,-0.99,1.65,39.2016,156.6666,77.4576,175,75
2026-05-09 16:07:22.641,3,0.4,1.17,0.54,-91.602,-8.8812,-71.3648,175,75
2026-05-09 16:07:22.641,4,0.31,-1.21,1.71,39.3816,145.7466,82.57759999999999,175,75
2026-05-09 16:07:22.655,5,-1.93,0.35,2.0,-66.63260000000001,247.6564,-156.03279999999998,175,75
2026-05-09 16:07:22.655,1,-0.21,0.92,0.99,-68.5582,-18.547400000000003,34.1214,175,75
2026-05-09 16:07:22.655,3,0.29,0.9,0.58,-112.942,-4.2512,-103.4348,175,75
2026-05-09 16:07:22.655,2,-2.77,-2.57,-0.47,-47.1272,-2.2605999999999966,-0.7741999999999987,175,75
2026-05-09 16:07:22.655,1,-0.2,0.65,0.78,-42.6982,-40.6274,8.4514,175,75
2026-05-09 16:07:22.671,4,1.08,-1.61,2.18,15.2416,23.8566,80.74759999999999,175,75
2026-05-09 16:07:22.671,2,-2.01,-1.84,-0.27,-10.9072,11.389400000000002,-207.7242,175,75
2026-05-09 16:07:22.683,4,0.96,-1.38,2.1,-0.7984,-43.7034,67.2676,175,75
2026-05-09 16:07:22.683,2,-1.55,-1.22,-0.12,8.4228,-4.3405999999999985,-236.7542,175,75
2026-05-09 16:07:22.688,5,-2.0,-0.16,2.0,-1.7725999999999997,-174.27360000000002,55.857200000000006,175,75
2026-05-09 16:07:22.688,3,0.39,1.36,-0.03,-250.93200000000002,40.6888,-179.2948,175,75
2026-05-09 16:07:22.702,1,-0.25,-0.69,0.76,54.3718,59.432599999999994,-10.938600000000001,175,75
2026-05-09 16:07:22.702,2,-1.27,-0.92,-0.04,13.7228,-3.8505999999999965,-225.1042,175,75
2026-05-09 16:07:22.716,3,-0.48,0.95,1.01,-255.99200000000002,130.4488,-158.3748,175,75
2026-05-09 16:07:22.716,4,0.66,-0.84,1.9,-27.508399999999998,-90.2834,48.7976,175,75
2026-05-09 16:07:22.716,5,-1.73,0.02,2.0,11.7074,-252.6136,162.3272,175,75
2026-05-09 16:07:22.716,2,-1.01,-0.72,0.09,13.7228,18.349400000000003,-194.55419999999998,175,75
2026-05-09 16:07:22.716,1,-0.21,-0.67,1.1,54.1318,70.0426,-4.3586,175,75
2026-05-09 16:07:22.716,4,0.59,-0.52,1.85,-33.9084,-85.1634,46.4176,175,75
2026-05-09 16:07:22.727,5,-0.22,-0.27,2.0,1.3574000000000002,-252.6136,210.6472,175,75
2026-05-09 16:07:22.727,1,-0.17,-0.69,1.2,50.9618,63.0326,1.6213999999999997,175,75
2026-05-09 16:07:22.727,3,-7.3,3.88,5.32,14.378,520.3888,117.1152,175,75
2026-05-09 16:07:22.727,4,0.58,-0.23,1.89,-33.5984,-89.1934,46.2976,175,75
2026-05-09 16:07:22.727,1,-0.27,-0.65,1.17,47.791799999999995,75.4726,11.4314,175,75
2026-05-09 16:07:22.727,5,0.13,-0.18,1.94,7.337400000000001,-252.6136,242.6072,175,75
2026-05-09 16:07:22.739,2,-0.47,-0.6,0.33,4.3328,114.2594,-45.404199999999996,175,75
2026-05-09 16:07:22.739,4,0.52,0.02,1.91,-34.8184,-107.9734,40.5676,175,75
2026-05-09 16:07:22.746,4,0.42,0.22,1.88,-38.538399999999996,-124.2534,28.8576,175,75
2026-05-09 16:07:22.746,5,1.09,-0.96,0.44,49.437400000000004,-252.6136,242.6072,175,75
2026-05-09 16:07:22.761,2,-0.36,-0.03,0.43,15.7928,63.9594,53.2558,175,75
2026-05-09 16:07:22.761,1,-0.01,-0.67,1.89,47.0518,143.0326,21.2514,175,75
2026-05-09 16:07:22.761,4,0.32,0.45,1.77,-39.2684,-129.6134,15.1376,175,75
2026-05-09 16:07:22.774,5,2.0,-1.44,-1.99,83.08739999999999,-252.6136,242.6072,175,75
2026-05-09 16:07:22.774,2,-0.46,0.17,0.46,29.0228,4.139400000000002,33.3758,175,75
2026-05-09 16:07:22.774,1,0.02,-0.38,2.31,30.1618,113.3426,10.091399999999998,175,75
2026-05-09 16:07:22.776,3,1.04,1.56,-2.17,-565.682,-284.6712,-24.354799999999997,175,75
2026-05-09 16:07:22.794,5,-0.01,-0.99,-0.46,84.4674,-8.9136,-4.3528,175,75
2026-05-09 16:07:22.794,1,-0.0,-0.1,2.23,7.0518,107.3626,4.6014,175,75
2026-05-09 16:07:22.794,3,1.35,-0.48,-2.99,-245.562,-125.5912,-37.9448,175,75
2026-05-09 16:07:22.804,2,-0.56,0.21,0.42,35.0028,-44.340599999999995,2.7658000000000005,175,75
2026-05-09 16:07:22.804,1,0.18,0.2,2.17,-16.5982,97.1826,3.5114,175,75
2026-05-09 16:07:22.804,2,-0.51,0.18,0.35,22.5628,-91.8406,-28.334199999999996,175,75
2026-05-09 16:07:22.804,5,-0.68,-0.64,0.11,84.03739999999999,22.5064,-109.25280000000001,175,75
2026-05-09 16:07:22.804,3,-0.29,-1.85,-0.86,122.848,316.2388,61.075199999999995,175,75
2026-05-09 16:07:22.817,4,-0.0,0.63,1.49,4.0816,-100.95339999999999,42.0276,175,75
2026-05-09 16:07:22.817,2,-0.44,0.45,0.14,-5.8472,-118.12060000000001,5.875800000000001,175,75
2026-05-09 16:07:22.836,3,1.47,-0.94,2.57,94.258,155.8788,-197.64479999999998,175,75
2026-05-09 16:07:22.836,3,1.68,0.64,1.63,21.148000000000003,43.8588,-36.4248,175,75
2026-05-09 16:07:22.836,1,-0.02,1.12,1.24,-62.458200000000005,37.5426,22.2914,175,75
2026-05-09 16:07:22.847,4,0.18,0.95,1.43,1.5216,-72.8434,21.1776,175,75
2026-05-09 16:07:22.847,2,-0.59,0.94,-0.09,6.7728,-63.7906,14.1058,175,75
2026-05-09 16:07:22.847,1,0.35,1.23,2.25,-12.8182,74.6826,27.4114,175,75
2026-05-09 16:07:22.847,3,0.69,0.12,1.05,25.478,15.5088,20.955200000000005,175,75
2026-05-09 16:07:22.847,5,-0.19,0.56,-0.07,-32.0426,-38.883599999999994,-257.6628,175,75
2026-05-09 16:07:22.847,1,0.52,1.41,2.37,32.4818,25.172599999999996,22.1714,175,75
2026-05-09 16:07:22.847,4,0.37,1.07,1.31,22.431600000000003,-5.773400000000002,38.2476,175,75
2026-05-09 16:07:22.873,4,0.34,0.9,1.29,37.5616,28.3066,48.427600000000005,175,75
2026-05-09 16:07:22.893,4,0.27,0.43,1.54,35.7316,68.00659999999999,26.9676,175,75
2026-05-09 16:07:22.893,1,0.66,1.47,2.97,215.1618,-24.587400000000002,44.061400000000006,175,75
2026-05-09 16:07:22.904,5,-0.22,0.56,-0.32,-95.66260000000001,-40.2536,-59.36280000000001,175,75
2026-05-09 16:07:22.917,3,0.4,0.11,1.02,119.258,73.3788,29.185200000000002,175,75
2026-05-09 16:07:22.917,1,0.52,0.96,2.3,233.0918,-35.9874,37.2914,175,75
2026-05-09 16:07:22.917,1,0.64,0.53,1.37,239.6818,-45.0174,37.781400000000005,175,75
2026-05-09 16:07:22.917,2,-0.32,0.15,0.59,-32.6772,124.9294,1.2358000000000011,175,75
2026-05-09 16:07:22.917,4,0.59,0.64,1.43,24.5716,99.89659999999999,-19.432399999999994,175,75
2026-05-09 16:07:22.935,5,0.15,-0.07,0.05,2.9574,76.23639999999999,-23.5428,175,75
2026-05-09 16:07:22.935,3,0.57,0.09,1.25,113.70800000000001,40.7488,51.4452,175,75
2026-05-09 16:07:22.956,2,-0.31,0.37,0.61,-25.6672,26.639400000000002,-35.8942,175,75
2026-05-09 16:07:22.956,5,0.28,0.21,0.02,70.30739999999999,118.8864,176.99720000000002,175,75
2026-05-09 16:07:22.969,2,-0.42,0.44,0.53,-23.5972,-29.400599999999997,-14.7342,175,75
2026-05-09 16:07:22.983,3,-0.37,-0.19,1.25,49.867999999999995,6.298799999999999,93.7552,175,75
2026-05-09 16:07:22.983,5,1.2,0.29,0.0,62.6374,131.8064,242.6072,175,75
2026-05-09 16:07:22.983,1,-0.1,0.55,4.4,-529.2882,370.1726,-83.1986,175,75
2026-05-09 16:07:22.983,4,0.72,-0.08,2.05,51.0916,236.8466,-11.0224,175,75
2026-05-09 16:07:22.983,4,0.53,-0.36,2.05,53.101600000000005,193.7366,-20.9024,175,75
2026-05-09 16:07:23.009,5,1.9,0.18,-0.02,54.9874,189.2364,242.6072,175,75
2026-05-09 16:07:23.009,5,2.0,-0.15,0.17,44.9974,247.6564,242.6072,175,75
2026-05-09 16:07:23.009,3,-0.67,-0.11,1.09,28.708,9.5288,71.6852,175,75
2026-05-09 16:07:23.009,1,-0.93,0.12,1.55,-29.1682,-19.767400000000002,-12.348600000000001,175,75
2026-05-09 16:07:23.009,2,-0.09,-1.03,0.46,-10.1772,-235.68059999999997,155.50580000000002,175,75
2026-05-09 16:07:23.019,2,-0.08,-1.45,0.29,-6.2172,-251.9606,188.0658,175,75
2026-05-09 16:07:23.019,5,1.1,-0.04,1.07,-0.1726000000000001,247.6564,242.6072,175,75
2026-05-09 16:07:23.019,4,0.53,-0.89,1.71,56.641600000000004,134.95659999999998,-38.822399999999995,175,75
2026-05-09 16:07:23.019,3,-0.57,0.16,1.19,21.268,9.0488,37.2952,175,75
2026-05-09 16:07:23.019,1,-0.5,-0.96,1.05,-45.3782,10.3526,-47.898599999999995,175,75
2026-05-09 16:07:23.020,5,2.0,-2.0,2.0,72.75739999999999,247.6564,203.2072,175,75
2026-05-09 16:07:23.032,4,0.58,-1.01,1.61,61.461600000000004,117.5166,-40.172399999999996,175,75
2026-05-09 16:07:23.032,1,0.74,-1.35,1.09,-2.7581999999999995,18.8926,-46.4886,175,75
2026-05-09 16:07:23.032,3,-0.48,0.42,1.64,5.718,-6.0812,49.2452,175,75
2026-05-09 16:07:23.032,5,2.0,-1.19,2.0,161.16740000000001,247.6564,134.1972,175,75
2026-05-09 16:07:23.032,2,-0.96,-2.11,-0.47,19.8828,-97.14059999999999,125.3258,175,75
2026-05-09 16:07:23.032,4,0.66,-1.11,1.68,64.8716,121.78659999999999,-38.4024,175,75
2026-05-09 16:07:23.046,5,-1.23,-0.46,2.0,81.78739999999999,247.6564,38.297200000000004,175,75
2026-05-09 16:07:23.046,2,-1.26,-2.26,-0.71,24.4528,-63.970600000000005,60.5658,175,75
2026-05-09 16:07:23.060,1,0.35,-1.26,0.79,-12.8782,-4.4674000000000005,-29.8486,175,75
2026-05-09 16:07:23.060,5,-2.0,-0.38,2.0,2.2474,247.6564,-148.12279999999998,175,75
2026-05-09 16:07:23.060,2,-1.67,-2.21,-0.69,27.8728,-5.430599999999998,-16.324199999999998,175,75
2026-05-09 16:07:23.060,1,0.22,-0.36,0.69,4.8018,6.022599999999999,-6.0686,175,75
2026-05-09 16:07:23.060,5,-2.0,-0.44,1.61,-36.0426,247.6564,-257.6628,175,75
2026-05-09 16:07:23.060,2,-1.66,-2.01,-0.52,32.6228,96.2694,-89.1242,175,75
2026-05-09 16:07:23.065,4,0.79,-1.09,2.15,55.851600000000005,-12.053400000000003,9.587600000000002,175,75
2026-05-09 16:07:23.070,5,-2.0,-0.66,1.23,-22.8326,226.9364,-257.6628,175,75
2026-05-09 16:07:23.070,1,0.07,-0.2,0.47,30.8318,-23.8574,-2.1586000000000003,175,75
2026-05-09 16:07:23.081,2,-1.39,-1.8,-0.3,36.6528,143.1594,-106.5642,175,75
2026-05-09 16:07:23.081,4,0.43,-0.94,1.87,51.8816,-105.3434,19.157600000000002,175,75
2026-05-09 16:07:23.081,3,-0.24,0.29,0.31,-113.672,-11.3812,-58.3148,175,75
2026-05-09 16:07:23.081,5,-2.0,-0.25,1.74,-20.9026,-13.6336,-257.6628,175,75
2026-05-09 16:07:23.081,1,-0.01,-0.1,0.31,66.6318,-29.0974,5.9514000000000005,175,75
2026-05-09 16:07:23.081,2,-1.3,-1.57,-0.06,40.3128,172.36939999999998,-95.4642,175,75
2026-05-09 16:07:23.092,3,-0.02,0.38,0.6,-127.332,12.948800000000002,-73.31479999999999,175,75
2026-05-09 16:07:23.092,4,0.12,-0.78,1.59,43.961600000000004,-159.7334,24.0976,175,75
2026-05-09 16:07:23.092,5,-2.0,0.18,1.74,-70.1726,-252.6136,-257.6628,175,75
2026-05-09 16:07:23.092,2,-1.25,-1.33,0.14,42.1328,197.5494,-79.3142,175,75
2026-05-09 16:07:23.092,1,-0.04,-0.16,0.34,123.8218,-42.4574,17.351399999999998,175,75
2026-05-09 16:07:23.107,3,0.2,0.42,0.93,-151.902,-5.2812,-76.3648,175,75
2026-05-09 16:07:23.107,1,-0.28,-0.3,0.62,161.4418,-75.7474,42.4714,175,75
2026-05-09 16:07:23.107,4,-0.24,-0.4,1.12,27.0116,-154.5534,27.9976,175,75
2026-05-09 16:07:23.107,3,0.22,0.42,1.05,-170.562,-22.1112,-73.1348,175,75
2026-05-09 16:07:23.116,2,-1.26,-0.78,0.48,48.6028,203.5894,-74.55420000000001,175,75
2026-05-09 16:07:23.116,1,0.21,-0.76,0.69,218.0918,-24.037399999999998,8.0214,175,75
2026-05-09 16:07:23.116,4,-0.1,-0.2,1.07,22.3716,-111.5034,30.7476,175,75
2026-05-09 16:07:23.116,5,0.39,0.32,2.0,-80.49260000000001,-252.6136,-239.9228,175,75
2026-05-09 16:07:23.116,3,0.22,0.41,1.16,-180.072,-40.5912,-78.1948,175,75
2026-05-09 16:07:23.127,5,0.83,0.69,2.0,-76.71260000000001,-252.6136,-122.28280000000001,175,75
2026-05-09 16:07:23.127,3,0.31,0.46,1.24,-183.49200000000002,-56.4412,-85.9948,175,75
2026-05-09 16:07:23.144,2,-1.37,0.23,0.46,61.5928,58.589400000000005,-176.2642,175,75
2026-05-09 16:07:23.144,5,0.64,0.6,1.86,-46.8526,-252.6136,-20.7128,175,75
2026-05-09 16:07:23.144,3,0.38,0.59,1.22,-188.24200000000002,-79.0612,-86.4248,175,75
2026-05-09 16:07:23.156,3,0.42,0.64,1.09,-188.312,-86.2012,-79.53479999999999,175,75
2026-05-09 16:07:23.156,4,0.43,0.85,1.18,-14.088400000000002,-35.1634,39.647600000000004,175,75
2026-05-09 16:07:23.156,2,-1.37,0.96,0.3,61.6528,-15.130600000000001,-265.04420000000005,175,75
2026-05-09 16:07:23.156,1,0.03,0.01,0.29,49.251799999999996,180.7126,-14.108600000000001,175,75
2026-05-09 16:07:23.167,2,0.51,1.9,0.24,53.8428,-58.42059999999999,-279.73420000000004,175,75
2026-05-09 16:07:23.167,5,1.16,-0.24,0.13,114.8274,-252.6136,193.58720000000002,175,75
2026-05-09 16:07:23.179,5,1.24,-0.2,-0.37,176.1474,-252.6136,242.6072,175,75
2026-05-09 16:07:23.179,3,0.48,0.4,0.62,-179.28199999999998,-29.4312,-67.9448,175,75
2026-05-09 16:07:23.197,5,1.17,-0.05,-1.08,205.7774,-252.6136,242.6072,175,75
2026-05-09 16:07:23.197,1,0.01,-0.92,-0.85,-396.0582,167.9126,-96.0086,175,75
2026-05-09 16:07:23.197,2,-2.38,1.74,-0.07,49.4528,25.049400000000002,-35.0442,175,75
2026-05-09 16:07:23.197,3,0.25,0.23,0.82,-178.372,-4.1912,-58.6248,175,75
2026-05-09 16:07:23.197,4,-0.38,0.86,1.4,36.5216,-36.693400000000004,22.6376,175,75
2026-05-09 16:07:23.197,1,-0.37,-1.49,-0.71,-501.1182,90.1026,-88.1386,175,75
2026-05-09 16:07:23.211,5,1.95,-0.94,-0.9,223.53740000000002,-113.51360000000001,170.02720000000002,175,75
2026-05-09 16:07:23.211,3,0.3,0.06,1.31,-165.202,20.1388,-78.4348,175,75
2026-05-09 16:07:23.211,1,-0.71,-2.46,-0.37,-563.6782,111.3926,-65.1486,175,75
2026-05-09 16:07:23.211,4,-0.56,0.64,1.31,19.2616,-23.523400000000002,-8.402399999999998,175,75
2026-05-09 16:07:23.211,5,0.53,-0.51,-2.0,166.6274,4.1464,-48.3528,175,75
2026-05-09 16:07:23.211,3,0.81,0.05,2.1,-134.042,9.718800000000002,-109.5348,175,75
2026-05-09 16:07:23.218,4,-0.51,0.69,1.25,-6.5884,25.016599999999997,-38.5824,175,75
2026-05-09 16:07:23.226,5,-1.21,-0.32,-0.81,98.33739999999999,-107.26360000000001,-132.7628,175,75
2026-05-09 16:07:23.243,3,-0.49,1.19,3.21,-89.282,-2.0512,-37.5848,175,75
2026-05-09 16:07:23.243,1,-0.78,-3.41,0.36,-633.7982,69.9226,-23.6886,175,75
2026-05-09 16:07:23.243,2,0.42,-0.26,0.62,-104.6272,-122.6906,105.5058,175,75
2026-05-09 16:07:23.243,1,-0.79,-2.78,1.17,-626.7282,93.9526,5.6414,175,75
2026-05-09 16:07:23.243,4,-0.22,0.9,1.3,-28.478399999999997,125.2666,-39.1324,175,75
2026-05-09 16:07:23.243,5,-1.39,-0.08,-0.34,45.7374,-205.1236,-128.2128,175,75
2026-05-09 16:07:23.254,4,0.02,1.0,1.42,-35.2484,206.5466,-15.9624,175,75
2026-05-09 16:07:23.254,4,0.24,0.88,1.62,-27.568399999999997,265.6866,5.8676,175,75
2026-05-09 16:07:23.254,5,-1.34,-0.01,-0.3,-10.0426,-252.6136,-125.3728,175,75
2026-05-09 16:07:23.254,2,-1.35,0.52,-0.3,-39.1472,-48.3006,-15.404199999999998,175,75
2026-05-09 16:07:23.254,1,-0.57,-1.86,1.65,-590.3182,66.9926,32.9014,175,75
2026-05-09 16:07:23.261,1,-0.46,-0.98,1.2,-524.2282,138.4626,45.461400000000005,175,75
2026-05-09 16:07:23.261,2,-0.94,0.34,-0.29,-5.4872,-121.0406,-93.94420000000001,175,75
2026-05-09 16:07:23.281,2,-0.55,0.05,-0.11,5.7328,-126.4706,-81.0142,175,75
2026-05-09 16:07:23.282,3,3.95,-2.28,-0.09,26.878,-301.14119999999997,-165.4448,175,75
2026-05-09 16:07:23.282,5,-0.55,0.37,-0.3,-179.8726,-252.6136,-167.7028,175,75
2026-05-09 16:07:23.300,5,-0.34,0.59,-0.02,-224.1426,-216.1336,-234.84279999999998,175,75
2026-05-09 16:07:23.300,2,-0.85,0.05,-0.27,4.3928,-21.410599999999995,77.94579999999999,175,75
2026-05-09 16:07:23.300,1,-0.02,-0.42,1.58,-423.4282,165.9626,51.311400000000006,175,75
2026-05-09 16:07:23.300,4,0.25,-0.16,1.96,5.7316,9.1066,-37.4824,175,75
2026-05-09 16:07:23.300,3,-2.03,-1.31,-1.82,46.328,510.68879999999996,123.2052,175,75
2026-05-09 16:07:23.311,5,0.34,0.6,-0.02,-245.65259999999998,-98.26360000000001,-257.6628,175,75
2026-05-09 16:07:23.311,5,2.0,0.49,-0.51,-244.3826,90.9964,-208.4328,175,75
2026-05-09 16:07:23.322,3,-1.23,-1.21,0.59,222.238,415.4488,-117.4048,175,75
2026-05-09 16:07:23.322,1,0.11,-0.45,2.02,-359.2282,184.9826,14.301399999999997,175,75
2026-05-09 16:07:23.322,4,0.55,-0.49,1.36,47.5616,-21.083400000000005,-29.432399999999994,175,75
2026-05-09 16:07:23.322,5,2.0,1.38,-0.98,-204.18259999999998,247.6564,81.68719999999999,175,75
2026-05-09 16:07:23.322,2,-0.69,-1.45,-0.22,2.2628000000000004,154.49939999999998,134.5958,175,75
2026-05-09 16:07:23.333,3,0.38,-0.27,2.6,166.01800000000003,390.7488,-229.1648,175,75
2026-05-09 16:07:23.333,1,0.16,-0.14,2.06,-335.1382,156.8726,17.2914,175,75
2026-05-09 16:07:23.333,2,-0.36,-1.78,-0.03,9.5728,194.01940000000002,161.1158,175,75
2026-05-09 16:07:23.333,5,2.0,2.0,0.47,-245.65259999999998,247.6564,214.4172,175,75
2026-05-09 16:07:23.333,3,1.93,0.58,3.0,39.008,58.5588,43.205200000000005,175,75
2026-05-09 16:07:23.333,1,0.09,-0.08,2.08,-311.5982,162.0026,18.2614,175,75
2026-05-09 16:07:23.343,2,-0.42,-1.61,0.18,6.5928,170.2994,158.3158,175,75
2026-05-09 16:07:23.343,3,0.13,-0.59,1.87,6.508000000000003,-122.5412,71.3752,175,75
2026-05-09 16:07:23.343,1,0.23,0.17,2.4,-279.2282,158.7626,12.841399999999998,175,75
2026-05-09 16:07:23.351,5,2.0,1.04,0.76,-245.65259999999998,247.6564,152.4272,175,75
2026-05-09 16:07:23.351,3,-0.27,-1.04,1.12,-12.511999999999999,-76.50120000000001,20.465200000000003,175,75
2026-05-09 16:07:23.365,5,-0.76,-0.69,2.0,-245.65259999999998,191.9664,242.6072,175,75
2026-05-09 16:07:23.365,1,0.28,0.93,2.73,-225.2582,123.95259999999999,13.6914,175,75
2026-05-09 16:07:23.365,3,0.14,-1.25,0.99,6.018000000000001,-44.9212,-6.0548,175,75
2026-05-09 16:07:23.365,4,1.33,-0.09,1.46,38.531600000000005,69.8966,0.017599999999999838,175,75
2026-05-09 16:07:23.369,4,1.14,-0.08,1.45,48.711600000000004,35.1966,6.5376,175,75
2026-05-09 16:07:23.369,1,0.4,1.37,2.96,-172.3382,87.2426,13.261399999999998,175,75
2026-05-09 16:07:23.384,5,-0.74,-2.0,2.0,-19.412599999999998,90.12639999999999,242.6072,175,75
2026-05-09 16:07:23.385,2,-0.5,-1.27,0.27,-1.5172,-116.3506,-8.454199999999998,175,75
2026-05-09 16:07:23.385,1,0.42,1.86,3.22,-105.4482,26.392599999999995,2.1014,175,75
2026-05-09 16:07:23.385,3,-0.13,-1.23,0.61,1.4480000000000004,-33.3312,-3.9848,175,75
2026-05-09 16:07:23.385,2,-0.41,-1.47,0.14,-31.577199999999998,-173.06060000000002,12.3358,175,75
2026-05-09 16:07:23.385,5,-2.0,-1.96,1.78,151.3774,112.4464,242.6072,175,75
2026-05-09 16:07:23.396,1,0.47,2.16,3.37,-54.4082,-30.7474,-0.08860000000000023,175,75
2026-05-09 16:07:23.396,2,-0.44,-1.62,-0.01,-47.7372,-176.04059999999998,37.9458,175,75
2026-05-09 16:07:23.396,3,-0.11,-0.88,0.95,32.608000000000004,48.0088,-45.2048,175,75
2026-05-09 16:07:23.396,5,-2.0,-1.4,2.0,220.59740000000002,30.4464,179.2072,175,75
2026-05-09 16:07:23.408,1,0.46,2.23,3.28,11.9318,-111.59740000000001,8.141399999999999,175,75
2026-05-09 16:07:23.408,4,0.11,-1.02,0.9,54.141600000000004,-28.523400000000002,71.9676,175,75
2026-05-09 16:07:23.408,5,-2.0,-0.97,2.0,185.2974,-88.8236,-152.12279999999998,175,75
2026-05-09 16:07:23.408,2,-0.57,-1.78,-0.22,-42.7972,-121.7206,57.765800000000006,175,75
2026-05-09 16:07:23.430,2,-0.67,-1.84,-0.4,-15.057199999999998,-46.840599999999995,60.7558,175,75
2026-05-09 16:07:23.430,1,0.41,1.53,2.54,136.8718,-143.8574,13.991399999999999,175,75
2026-05-09 16:07:23.430,5,-1.39,-1.02,2.0,21.6674,-219.2636,-257.6628,175,75
2026-05-09 16:07:23.430,2,-0.78,-1.7,-0.55,26.5928,7.679400000000001,43.375800000000005,175,75
2026-05-09 16:07:23.430,3,-0.04,-0.93,1.51,-14.591999999999999,-18.4512,-48.2548,175,75
2026-05-09 16:07:23.443,2,-0.98,-1.4,-0.52,57.0728,40.299400000000006,-3.334199999999999,175,75
2026-05-09 16:07:23.443,5,0.33,-0.59,2.0,62.8774,-252.6136,-257.6628,175,75
2026-05-09 16:07:23.443,3,0.33,-0.88,1.4,-42.512,-68.3912,-52.3348,175,75
2026-05-09 16:07:23.458,4,0.52,-0.41,1.1,23.471600000000002,32.0266,14.037600000000001,175,75
2026-05-09 16:07:23.458,2,-0.93,-1.09,-0.3,69.0928,79.5694,-69.0642,175,75
2026-05-09 16:07:23.458,3,0.38,-0.78,1.07,-60.872,-104.1212,-48.684799999999996,175,75
2026-05-09 16:07:23.458,5,1.84,0.62,0.68,206.3374,-252.6136,-257.6628,175,75
2026-05-09 16:07:23.458,1,0.43,0.95,1.95,305.7718,-77.4574,2.1714,175,75
2026-05-09 16:07:23.469,2,-0.76,-0.78,-0.04,55.6128,103.5294,-97.3542,175,75
2026-05-09 16:07:23.469,3,0.44,-0.79,0.71,-63.372,-119.86120000000001,-44.904799999999994,175,75
2026-05-09 16:07:23.469,5,2.0,1.58,0.77,231.81740000000002,-252.6136,-257.6628,175,75
2026-05-09 16:07:23.469,1,0.42,0.68,1.86,346.9918,-54.1574,1.8014,175,75
2026-05-09 16:07:23.481,2,-0.57,-0.44,0.21,31.2228,124.0794,-100.2842,175,75
2026-05-09 16:07:23.481,4,0.42,0.34,1.16,-20.1284,9.406599999999997,86.9076,175,75
2026-05-09 16:07:23.481,1,0.39,0.47,1.8,376.3818,-38.3074,1.9813999999999996,175,75
2026-05-09 16:07:23.492,4,0.23,0.55,1.09,-23.478399999999997,33.9166,78.54759999999999,175,75
2026-05-09 16:07:23.492,5,1.44,1.46,0.89,101.4874,-50.023599999999995,-68.6328,175,75
2026-05-09 16:07:23.502,4,0.21,0.63,1.12,-17.688399999999998,52.8866,68.5476,175,75
2026-05-09 16:07:23.502,2,-0.07,0.15,0.38,-0.05719999999999992,108.1594,-41.9342,175,75
2026-05-09 16:07:23.502,1,0.34,0.0,1.66,416.0218,-30.7474,7.6514,175,75
2026-05-09 16:07:23.507,5,0.36,0.52,0.5,48.3574,83.84639999999999,-7.252800000000001,175,75
2026-05-09 16:07:23.522,1,0.34,-0.18,1.67,424.0118,-29.3474,9.671399999999998,175,75
2026-05-09 16:07:23.522,5,0.05,0.31,0.31,58.7074,77.8964,41.827200000000005,175,75
2026-05-09 16:07:23.522,4,0.19,0.61,1.25,-12.7484,89.8966,86.96759999999999,175,75
2026-05-09 16:07:23.522,2,-0.05,0.52,0.43,-6.707199999999999,5.599400000000003,19.0458,175,75
2026-05-09 16:07:23.525,1,0.36,-0.3,1.72,425.3518,-42.757400000000004,8.141399999999999,175,75
2026-05-09 16:07:23.536,3,0.27,-0.01,0.46,39.738,-27.8412,32.175200000000004,175,75
2026-05-09 16:07:23.556,4,0.21,0.58,1.28,-16.4684,97.6966,73.1876,175,75
2026-05-09 16:07:23.556,3,0.15,-0.16,0.64,82.728,-11.321200000000001,63.815200000000004,175,75
2026-05-09 16:07:23.556,5,-0.0,0.37,0.24,92.00739999999999,-141.8136,159.99720000000002,175,75
2026-05-09 16:07:23.568,3,-0.38,-0.18,0.54,105.598,48.1288,96.0752,175,75
2026-05-09 16:07:23.568,2,-0.48,0.66,0.12,-21.0972,-54.090599999999995,-27.724199999999996,175,75
2026-05-09 16:07:23.568,1,0.25,-0.45,1.54,408.9418,-103.0074,13.321399999999999,175,75
2026-05-09 16:07:23.568,4,0.38,0.94,1.46,-27.688399999999998,66.72659999999999,27.5776,175,75
2026-05-09 16:07:23.568,5,0.13,0.2,0.13,84.4374,-158.77360000000002,176.62720000000002,175,75
2026-05-09 16:07:23.579,1,0.17,-0.55,1.73,403.4018,-132.8774,15.7014,175,75
2026-05-09 16:07:23.579,4,0.26,1.09,1.54,-27.0784,49.8366,21.8476,175,75
2026-05-09 16:07:23.579,5,0.13,0.05,0.05,84.9874,-162.6836,195.33720000000002,175,75
2026-05-09 16:07:23.594,3,-0.83,-0.11,2.09,199.25799999999998,202.1588,116.50519999999999,175,75
2026-05-09 16:07:23.594,1,0.1,-0.73,1.95,400.7118,-171.1774,11.1314,175,75
2026-05-09 16:07:23.594,5,0.03,-0.04,-0.02,86.1274,-166.83360000000002,206.4772,175,75
2026-05-09 16:07:23.594,4,0.1,1.09,1.6,-20.618399999999998,37.8866,17.2676,175,75
2026-05-09 16:07:23.607,2,-0.64,1.25,0.03,-7.497199999999999,11.819400000000002,-20.224199999999996,175,75
2026-05-09 16:07:23.607,2,-0.55,1.29,0.06,-7.3772,71.9394,-4.0642,175,75
2026-05-09 16:07:23.607,1,-0.26,-0.85,2.08,391.6918,-215.6274,2.2314,175,75
2026-05-09 16:07:23.607,3,-0.64,0.23,2.14,197.668,85.07879999999999,167.78519999999997,175,75
2026-05-09 16:07:23.607,4,-0.0,0.97,1.66,-14.818399999999999,30.996599999999997,12.6376,175,75
2026-05-09 16:07:23.619,2,-0.41,1.29,0.17,6.7128000000000005,95.71940000000001,5.9358,175,75
2026-05-09 16:07:23.619,5,-0.33,-0.47,-0.26,114.8774,-175.1736,189.49720000000002,175,75
2026-05-09 16:07:23.619,4,-0.06,0.81,1.69,-14.698400000000001,21.8466,2.457600000000001,175,75
2026-05-09 16:07:23.619,2,-0.31,1.08,0.27,-1.0971999999999997,89.5694,12.0958,175,75
2026-05-09 16:07:23.629,4,-0.06,0.73,1.69,-18.2384,12.086599999999999,-9.4324,175,75
2026-05-09 16:07:23.629,2,-0.3,0.78,0.38,-20.9772,55.4794,14.1058,175,75
2026-05-09 16:07:23.629,1,-0.12,-1.26,1.1,317.5418,-407.1474,5.8214,175,75
2026-05-09 16:07:23.629,5,-0.55,-0.35,-0.46,149.66740000000001,-213.6336,149.2272,175,75
2026-05-09 16:07:23.629,4,-0.03,0.68,1.63,-22.258399999999998,2.766599999999997,-23.1524,175,75
2026-05-09 16:07:23.629,3,0.31,-0.19,1.56,164.498,-83.52120000000001,192.96519999999998,175,75
2026-05-09 16:07:23.641,2,-0.37,0.6,0.41,-33.8372,7.069400000000002,8.7958,175,75
2026-05-09 16:07:23.641,1,-0.67,-1.02,-0.4,270.2918,-367.8774,-23.198600000000003,175,75
2026-05-09 16:07:23.641,3,0.37,-0.19,0.99,102.298,-125.6512,175.46519999999998,175,75
2026-05-09 16:07:23.647,4,0.03,0.63,1.54,-22.8084,5.6266,-30.592399999999998,175,75
2026-05-09 16:07:23.647,2,-0.38,0.48,0.4,-33.2872,-43.61059999999999,2.2158000000000007,175,75
2026-05-09 16:07:23.647,5,-0.82,-0.19,-0.47,133.6874,-252.6136,84.99719999999999,175,75
2026-05-09 16:07:23.669,2,-0.44,0.4,0.37,-32.3772,-79.5806,-2.2341999999999995,175,75
2026-05-09 16:07:23.669,5,-0.26,-0.4,-0.72,51.7374,-252.6136,40.4572,175,75
2026-05-09 16:07:23.669,4,0.25,0.57,1.4,-31.898399999999995,72.6366,-38.032399999999996,175,75
2026-05-09 16:07:23.685,4,0.35,0.5,1.42,-33.358399999999996,108.6766,-23.952399999999997,175,75
2026-05-09 16:07:23.685,2,-0.6,0.17,0.2,-45.4272,-119.09060000000001,-2.6041999999999987,175,75
2026-05-09 16:07:23.685,1,-0.71,-0.05,2.37,-464.0982,893.3426,-95.51859999999999,175,75
2026-05-09 16:07:23.706,5,-0.01,-0.49,-0.33,-22.9626,-10.5536,-32.912800000000004,175,75
2026-05-09 16:07:23.706,3,0.03,1.04,0.11,63.458,-30.711199999999998,81.3752,175,75
2026-05-09 16:07:23.706,4,0.27,0.09,1.45,-5.6784,129.6566,14.8276,175,75
2026-05-09 16:07:23.706,5,0.06,-0.42,-0.23,-52.7526,104.5364,-101.1028,175,75
2026-05-09 16:07:23.716,1,2.08,3.91,3.76,-219.7682,83.5226,109.9114,175,75
2026-05-09 16:07:23.716,3,0.05,1.23,0.34,54.798,51.1788,55.6452,175,75
2026-05-09 16:07:23.716,4,0.22,-0.13,1.45,-1.8984,150.9366,25.0176,175,75
2026-05-09 16:07:23.716,2,-0.56,-0.89,0.09,-67.9272,-122.93059999999998,47.275800000000004,175,75
2026-05-09 16:07:23.716,5,0.34,-0.46,-0.13,-75.9826,218.3864,-153.3328,175,75
2026-05-09 16:07:23.716,1,-0.99,-1.34,2.14,48.641799999999996,40.2926,41.6214,175,75
2026-05-09 16:07:23.729,3,0.17,1.29,0.82,44.988,69.77879999999999,50.8352,175,75
2026-05-09 16:07:23.729,4,0.25,-0.34,1.42,-1.3484000000000003,180.8666,35.077600000000004,175,75
2026-05-09 16:07:23.729,5,1.72,-0.96,-0.16,-68.8926,247.6564,-181.72279999999998,175,75
2026-05-09 16:07:23.729,1,0.07,-1.96,1.36,-8.9182,-113.3074,-65.0886,175,75
2026-05-09 16:07:23.729,2,-0.47,-1.52,0.09,-63.5972,-75.3106,90.2658,175,75
2026-05-09 16:07:23.739,3,0.18,1.27,1.02,29.128,45.9988,46.315200000000004,175,75
2026-05-09 16:07:23.739,5,2.0,-1.85,0.1,30.2574,247.6564,-210.03279999999998,175,75
2026-05-09 16:07:23.739,1,0.52,-1.43,0.4,-44.8382,-32.8174,-29.9086,175,75
2026-05-09 16:07:23.739,2,-0.61,-1.78,-0.0,-66.6472,-33.0606,139.4058,175,75
2026-05-09 16:07:23.744,4,0.53,-0.73,1.43,8.6516,232.3966,47.6976,175,75
2026-05-09 16:07:23.756,1,0.79,-1.45,-0.07,-46.0582,-17.1474,-19.6586,175,75
2026-05-09 16:07:23.756,2,-1.0,-1.98,-0.13,-49.2072,-6.170599999999997,175.6258,175,75
2026-05-09 16:07:23.756,5,2.0,1.61,1.9,20.6874,247.6564,-53.582800000000006,175,75
2026-05-09 16:07:23.756,3,0.4,1.15,0.51,-9.892,-3.6412,-5.994799999999998,175,75
2026-05-09 16:07:23.767,4,0.65,-0.86,1.6,17.0116,237.7666,50.8676,175,75
2026-05-09 16:07:23.767,1,0.94,-0.78,1.09,-38.5582,56.1426,1.1914,175,75
2026-05-09 16:07:23.767,2,-1.67,-1.93,-0.18,-17.557199999999998,15.909400000000002,150.0158,175,75
2026-05-09 16:07:23.767,4,0.76,-0.98,1.82,22.3716,216.8466,64.52759999999999,175,75
2026-05-09 16:07:23.778,1,0.76,-0.41,1.2,-44.0382,-3.3074000000000003,12.5314,175,75
2026-05-09 16:07:23.799,5,0.79,1.77,2.0,-55.8526,246.0564,-65.1928,175,75
2026-05-09 16:07:23.799,2,-2.04,-1.95,-0.16,11.7728,20.049400000000002,71.2958,175,75
2026-05-09 16:07:23.799,4,0.81,-1.25,2.02,26.401600000000002,161.4166,89.0376,175,75
2026-05-09 16:07:23.799,5,-0.96,0.87,2.0,-158.3826,247.6564,-257.6628,175,75
2026-05-09 16:07:23.809,2,-1.89,-2.11,-0.05,25.0628,10.849400000000003,-3.334199999999999,175,75
2026-05-09 16:07:23.809,4,0.84,-1.58,2.04,25.791600000000003,86.2966,103.4276,175,75
2026-05-09 16:07:23.809,3,0.75,1.26,0.22,-97.022,35.8788,-104.1048,175,75
2026-05-09 16:07:23.814,1,0.09,0.28,0.24,-20.138199999999998,-49.7074,24.3614,175,75
2026-05-09 16:07:23.814,2,-1.48,-2.19,0.04,21.2228,-1.0405999999999977,-36.624199999999995,175,75
2026-05-09 16:07:23.814,4,0.74,-1.74,1.93,19.5116,39.5866,99.9576,175,75
2026-05-09 16:07:23.827,2,-1.26,-2.04,0.05,10.4328,-11.410599999999995,-38.2142,175,75
2026-05-09 16:07:23.827,3,0.54,1.2,0.49,-108.982,80.5088,-128.01479999999998,175,75
2026-05-09 16:07:23.827,5,-2.0,-0.99,2.0,-99.1726,123.9264,-190.6028,175,75
2026-05-09 16:07:23.840,3,0.05,1.11,1.14,-119.222,76.5488,-145.1448,175,75
2026-05-09 16:07:23.840,4,0.64,-1.39,1.75,-6.5283999999999995,57.8266,53.5476,175,75
2026-05-09 16:07:23.840,5,-1.93,-0.59,2.0,-2.9226,-120.48360000000001,141.59720000000002,175,75
2026-05-09 16:07:23.840,3,-0.57,1.04,1.61,-127.762,59.468799999999995,-159.1048,175,75
2026-05-09 16:07:23.840,5,-1.83,-0.04,2.0,51.2874,-203.0336,222.58720000000002,175,75
2026-05-09 16:07:23.850,4,0.76,-0.95,1.85,-12.5084,66.6066,48.1876,175,75
2026-05-09 16:07:23.850,2,-1.01,-1.28,0.03,25.9828,37.9194,-44.4942,175,75
2026-05-09 16:07:23.850,3,-6.62,2.36,3.71,14.378,394.16880000000003,52.595200000000006,175,75
2026-05-09 16:07:23.850,4,0.78,-0.61,1.95,-17.3784,54.8366,63.5476,175,75
2026-05-09 16:07:23.862,1,-0.33,-0.31,0.82,84.4318,74.98259999999999,12.9614,175,75
2026-05-09 16:07:23.862,5,-0.64,0.07,2.0,-14.982599999999998,-252.6136,183.65720000000002,175,75
2026-05-09 16:07:23.862,3,-7.3,3.27,7.33,499.318,617.6988,549.0652,175,75
2026-05-09 16:07:23.862,4,0.59,-0.24,1.99,-30.5484,26.546599999999998,71.0476,175,75
2026-05-09 16:07:23.862,2,-0.83,-0.89,0.13,44.022800000000004,30.7194,-59.67419999999999,175,75
2026-05-09 16:07:23.874,5,0.45,-0.22,1.87,-52.5226,-252.6136,237.5672,175,75
2026-05-09 16:07:23.874,4,0.38,0.06,1.96,-40.9784,-0.4734000000000016,44.0376,175,75
2026-05-09 16:07:23.875,3,1.48,-9.53,7.05,339.558,-475.89119999999997,-265.1448,175,75
2026-05-09 16:07:23.886,1,-0.21,-0.48,1.17,83.1518,98.40259999999999,10.2814,175,75
2026-05-09 16:07:23.886,3,0.61,-4.34,2.28,-293.43199999999996,-772.3612,-382.6448,175,75
2026-05-09 16:07:23.897,5,1.49,-0.81,0.68,-42.6226,-252.6136,242.6072,175,75
2026-05-09 16:07:23.900,2,-0.6,-0.06,0.27,29.2728,-34.1506,-143.7042,175,75
2026-05-09 16:07:23.900,3,1.51,0.82,-1.54,-388.37199999999996,-178.7012,8.5152,175,75
2026-05-09 16:07:23.914,5,2.0,-0.99,-0.46,-19.1226,-113.6636,98.4772,175,75
2026-05-09 16:07:23.914,3,1.5,-0.8,-2.01,-152.332,-213.6412,16.135200000000005,175,75
2026-05-09 16:07:23.914,4,0.31,0.66,1.55,-15.068399999999999,-60.2234,9.467600000000001,175,75
2026-05-09 16:07:23.914,1,-0.08,-0.12,1.85,69.1318,82.8526,-3.2586000000000004,175,75
2026-05-09 16:07:23.925,5,1.07,-0.74,-0.28,-2.9025999999999996,51.8264,-50.672799999999995,175,75
2026-05-09 16:07:23.925,2,-0.48,0.19,0.26,20.9828,-47.6306,-152.11419999999998,175,75
2026-05-09 16:07:23.925,4,0.32,0.58,1.35,4.7516,-43.3934,29.2876,175,75
2026-05-09 16:07:23.935,5,0.47,-0.5,0.05,14.9374,147.41639999999998,-152.78279999999998,175,75
2026-05-09 16:07:23.935,2,-0.6,0.74,0.18,6.162800000000001,10.479400000000002,32.3958,175,75
2026-05-09 16:07:23.935,3,0.28,-2.98,0.94,47.788,378.5588,-55.1448,175,75
2026-05-09 16:07:23.935,1,0.18,0.24,1.89,39.9218,40.9026,-6.1286,175,75
2026-05-09 16:07:23.935,4,0.23,0.5,1.28,9.7516,-23.6434,40.6276,175,75
2026-05-09 16:07:23.935,5,0.03,-0.24,0.22,30.8674,192.8064,-214.31279999999998,175,75
2026-05-09 16:07:23.952,1,0.32,0.4,1.81,2.9118000000000004,14.312599999999998,-16.1286,175,75
2026-05-09 16:07:23.952,4,0.15,0.53,1.33,6.461600000000001,2.3965999999999994,43.7976,175,75
2026-05-09 16:07:23.952,2,-0.03,0.25,0.37,-9.7572,-10.010599999999997,42.275800000000004,175,75
2026-05-09 16:07:23.952,3,1.19,-0.64,2.03,24.128,148.43880000000001,-193.4948,175,75
2026-05-09 16:07:23.963,4,0.14,0.64,1.47,2.7416,37.5766,43.1276,175,75
2026-05-09 16:07:23.963,1,0.34,0.6,1.26,-42.8782,-34.1574,-14.598600000000001,175,75
2026-05-09 16:07:23.963,5,-0.37,0.24,0.07,35.5974,121.5364,-237.7028,175,75
2026-05-09 16:07:23.963,3,1.48,0.24,1.79,-6.052,78.3788,-52.7048,175,75
2026-05-09 16:07:23.963,1,0.44,0.61,0.88,-65.01820000000001,-66.9674,-16.0686,175,75
2026-05-09 16:07:23.980,2,-0.53,0.54,0.21,-24.7572,-48.7906,-37.904199999999996,175,75
2026-05-09 16:07:23.980,4,0.33,0.87,1.75,17.9816,32.6966,32.757600000000004,175,75
2026-05-09 16:07:23.980,5,0.0,0.53,-0.18,20.3774,-186.55360000000002,-96.7428,175,75
2026-05-09 16:07:23.980,3,0.56,0.2,1.22,15.288000000000004,5.5688,-11.664799999999998,175,75
2026-05-09 16:07:23.980,1,0.25,0.88,0.49,-76.3582,-95.7474,-11.3086,175,75
2026-05-09 16:07:23.980,2,-0.41,0.84,0.12,-16.4572,-55.4306,-42.7842,175,75
2026-05-09 16:07:23.995,5,0.3,0.72,-0.17,-2.3326000000000002,-220.1536,-80.5728,175,75
2026-05-09 16:07:23.995,4,0.33,0.91,1.78,29.3216,-13.153400000000005,17.6376,175,75
2026-05-09 16:07:23.995,3,0.14,0.36,0.86,64.928,35.5688,-19.4148,175,75
2026-05-09 16:07:23.997,4,0.27,0.88,1.71,31.521600000000003,-39.8634,6.7876,175,75
2026-05-09 16:07:24.011,2,-0.6,1.37,0.04,8.8428,2.4894000000000034,13.555800000000001,175,75
2026-05-09 16:07:24.011,5,0.37,0.29,-0.44,7.6874,-204.3736,-19.122799999999998,175,75
2026-05-09 16:07:24.011,3,0.41,0.15,0.98,110.16799999999999,80.38879999999999,14.245200000000004,175,75
2026-05-09 16:07:24.011,1,0.38,1.96,1.14,9.0718,-10.627400000000002,3.6314,175,75
2026-05-09 16:07:24.022,3,0.17,0.17,1.15,115.16799999999999,99.52879999999999,24.7352,175,75
2026-05-09 16:07:24.022,5,0.06,0.15,-0.38,28.587400000000002,-192.0436,2.5372000000000003,175,75
2026-05-09 16:07:24.022,1,1.16,2.19,2.35,54.1318,61.0226,0.2813999999999999,175,75
2026-05-09 16:07:24.035,5,-0.19,0.08,-0.31,46.9474,-185.3436,5.2372,175,75
2026-05-09 16:07:24.035,2,-0.34,0.63,0.26,-5.8472,53.0394,26.425800000000002,175,75
2026-05-09 16:07:24.035,3,0.1,0.33,1.57,106.208,94.71879999999999,29.9152,175,75
2026-05-09 16:07:24.035,4,0.08,0.53,1.44,27.6216,-2.9734000000000016,-1.1423999999999985,175,75
2026-05-09 16:07:24.035,2,-0.34,0.36,0.34,-21.5172,49.4994,22.3358,175,75
2026-05-09 16:07:24.037,5,-0.29,0.09,-0.24,62.077400000000004,-183.2936,1.4271999999999991,175,75
2026-05-09 16:07:24.050,1,1.24,1.39,1.19,124.6818,-62.937400000000004,-2.2886,175,75
2026-05-09 16:07:24.050,5,-0.36,0.1,-0.17,69.97739999999999,-181.9636,-1.0228000000000002,175,75
2026-05-09 16:07:24.050,2,-0.27,0.17,0.44,-32.4372,26.879400000000004,7.155800000000001,175,75
2026-05-09 16:07:24.050,3,-0.1,0.87,1.66,64.678,-25.3412,75.2252,175,75
2026-05-09 16:07:24.050,1,0.16,2.37,-0.71,176.6318,-299.5874,75.2814,175,75
2026-05-09 16:07:24.062,4,0.13,0.39,1.48,20.1216,13.976599999999998,-18.342399999999998,175,75
2026-05-09 16:07:24.062,5,-0.28,0.12,-0.14,72.9874,-177.6736,2.8271999999999995,175,75
2026-05-09 16:07:24.062,2,-0.29,0.22,0.42,-26.0372,-24.8906,-16.014200000000002,175,75
2026-05-09 16:07:24.062,4,0.19,0.41,1.49,15.7316,7.456599999999998,-34.6224,175,75
2026-05-09 16:07:24.074,5,-0.12,0.11,-0.13,75.3274,-160.4136,19.6572,175,75
2026-05-09 16:07:24.074,1,-1.35,-4.93,-5.48,63.5218,-51.4174,11.8014,175,75
2026-05-09 16:07:24.074,2,-0.39,0.38,0.3,-12.6772,-79.8206,-28.334199999999996,175,75
2026-05-09 16:07:24.074,3,-0.37,0.63,1.25,77.668,-56.4412,113.3352,175,75
2026-05-09 16:07:24.074,4,0.25,0.51,1.49,10.6016,6.416599999999999,-52.852399999999996,175,75
2026-05-09 16:07:24.091,3,-0.33,0.39,0.94,67.298,-49.0612,111.8052,175,75
2026-05-09 16:07:24.091,5,0.36,0.01,-0.17,88.8574,-68.84360000000001,77.29719999999999,175,75
2026-05-09 16:07:24.091,4,0.3,0.47,1.42,10.4816,52.8866,-26.392399999999995,175,75
2026-05-09 16:07:24.105,5,0.53,-0.06,-0.21,102.0174,4.5364,104.3372,175,75
2026-05-09 16:07:24.105,2,-0.73,0.07,0.17,-22.6172,-87.5706,23.495800000000003,175,75
2026-05-09 16:07:24.105,1,-0.18,1.03,2.59,-139.8982,-108.3674,61.311400000000006,175,75
2026-05-09 16:07:24.105,4,0.31,0.27,1.43,16.8216,95.50659999999999,2.0276000000000014,175,75
2026-05-09 16:07:24.105,3,-0.34,0.37,0.74,34.188,-20.0412,102.0552,175,75
2026-05-09 16:07:24.117,2,-0.69,-0.34,0.22,-35.727199999999996,-68.0606,56.9658,175,75
2026-05-09 16:07:24.117,1,-1.26,-0.78,0.93,-21.7282,-14.1574,3.5713999999999997,175,75
2026-05-09 16:07:24.117,4,0.45,-0.16,1.54,25.241600000000002,139.4066,34.4676,175,75
2026-05-09 16:07:24.117,5,1.79,-0.14,-0.38,116.17739999999999,247.6564,125.13719999999999,175,75
2026-05-09 16:07:24.117,2,-0.39,-1.13,0.33,-47.3772,-49.64059999999999,101.4258,175,75
2026-05-09 16:07:24.129,1,-0.66,-0.02,0.51,-44.6482,-7.147400000000001,6.5614,175,75
2026-05-09 16:07:24.129,4,0.65,-0.54,1.69,24.6916,125.9966,48.1276,175,75
2026-05-09 16:07:24.147,5,2.0,-0.63,-0.69,124.67739999999999,247.6564,110.3172,175,75
2026-05-09 16:07:24.147,1,0.1,0.28,0.63,-26.968200000000003,15.172600000000001,-6.9186,175,75
2026-05-09 16:07:24.147,5,2.0,-0.89,-0.45,160.9874,247.6564,133.27720000000002,175,75
2026-05-09 16:07:24.147,2,-0.15,-1.97,0.14,-54.5072,-34.1506,177.6458,175,75
2026-05-09 16:07:24.147,2,-0.43,-2.12,0.24,-54.4472,-29.8906,245.6858,175,75
2026-05-09 16:07:24.147,4,0.73,-0.94,1.81,20.4216,59.5866,39.4676,175,75
2026-05-09 16:07:24.147,5,1.72,1.84,-1.11,150.2674,247.6564,176.55720000000002,175,75
2026-05-09 16:07:24.149,2,-0.86,-2.26,0.09,-41.5772,-28.4206,275.32579999999996,175,75
2026-05-09 16:07:24.149,1,-0.07,0.39,0.7,3.2718,47.422599999999996,-13.438600000000001,175,75
2026-05-09 16:07:24.160,3,-0.15,0.56,1.08,-14.771999999999998,-15.9512,68.6952,175,75
2026-05-09 16:07:24.181,1,0.13,-0.15,0.67,18.8818,22.1826,-16.6786,175,75
2026-05-09 16:07:24.182,3,-0.2,0.49,1.33,-28.372,-37.9112,82.5952,175,75
2026-05-09 16:07:24.182,2,-1.81,-2.08,-0.11,-12.7372,-20.860599999999998,191.60580000000002,175,75
2026-05-09 16:07:24.182,5,2.0,-0.21,2.0,-62.632600000000004,103.2864,-257.6628,175,75
2026-05-09 16:07:24.195,2,-2.59,-1.67,-0.21,12.9928,-19.6406,24.2258,175,75
2026-05-09 16:07:24.195,1,0.19,-0.65,0.28,73.9418,36.992599999999996,-18.198600000000003,175,75
2026-05-09 16:07:24.217,2,-2.47,-1.39,-0.19,31.2828,-10.980599999999995,-139.3142,175,75
2026-05-09 16:07:24.217,1,0.19,-0.5,0.49,98.70179999999999,26.6926,-16.1286,175,75
2026-05-09 16:07:24.217,3,-0.31,0.58,0.97,-79.282,-46.9312,-3.624799999999997,175,75
2026-05-09 16:07:24.217,2,-1.72,-1.25,-0.14,32.6228,-25.5606,-196.0742,175,75
2026-05-09 16:07:24.234,5,-2.0,-0.88,2.0,-174.33259999999999,247.6564,-117.4728,175,75
2026-05-09 16:07:24.234,2,-1.14,-1.16,-0.08,22.5028,-41.78059999999999,-171.0742,175,75
2026-05-09 16:07:24.234,1,-0.04,-0.6,0.36,118.1518,6.692599999999999,-7.7086,175,75
2026-05-09 16:07:24.234,4,0.54,-1.07,1.36,24.201600000000003,124.1666,112.93759999999999,175,75
2026-05-09 16:07:24.258,1,0.03,-0.51,0.45,177.4218,-2.0874000000000006,15.5214,175,75
2026-05-09 16:07:24.258,2,-0.69,-1.33,0.05,-10.7872,77.1894,-26.8142,175,75
2026-05-09 16:07:24.258,3,0.12,0.12,1.09,-150.502,-95.41120000000001,-44.4748,175,75
2026-05-09 16:07:24.258,1,-0.09,-0.66,0.92,192.4818,-29.9574,34.181400000000004,175,75
2026-05-09 16:07:24.258,4,0.44,-1.14,1.57,8.7716,126.9066,82.63759999999999,175,75
2026-05-09 16:07:24.269,3,0.23,0.04,0.97,-160.99200000000002,-93.8812,-63.3748,175,75
2026-05-09 16:07:24.269,5,-1.09,-0.08,2.0,96.2674,-252.6136,-59.282799999999995,175,75
2026-05-09 16:07:24.269,1,0.52,-0.6,0.97,248.8218,33.5226,29.9714,175,75
2026-05-09 16:07:24.269,5,-0.61,0.15,2.0,116.11739999999999,-252.6136,33.13719999999999,175,75
2026-05-09 16:07:24.269,3,0.38,0.13,0.9,-172.09199999999998,-91.14120000000001,-75.75479999999999,175,75
2026-05-09 16:07:24.280,1,0.8,-0.87,0.68,258.4618,54.8026,19.7914,175,75
2026-05-09 16:07:24.280,3,0.55,0.24,0.74,-176.17200000000003,-96.5612,-80.6948,175,75
2026-05-09 16:07:24.280,5,0.04,0.38,1.72,94.9174,-252.6136,58.1772,175,75
2026-05-09 16:07:24.290,2,-1.12,0.11,0.37,31.4028,273.4694,5.875800000000001,175,75
2026-05-09 16:07:24.290,5,0.54,0.26,1.05,71.33739999999999,-252.6136,77.93719999999999,175,75
2026-05-09 16:07:24.290,3,0.53,0.32,0.56,-173.002,-74.25120000000001,-80.2048,175,75
2026-05-09 16:07:24.290,1,0.25,0.0,0.18,144.4918,187.7326,-36.248599999999996,175,75
2026-05-09 16:07:24.290,2,-1.05,0.65,0.5,66.2828,234.25940000000003,-89.1242,175,75
2026-05-09 16:07:24.290,4,0.42,1.08,1.82,-52.1984,10.6266,-44.492399999999996,175,75
2026-05-09 16:07:24.300,5,0.6,0.16,0.38,71.0974,-252.6136,137.7672,175,75
2026-05-09 16:07:24.300,3,0.63,0.31,0.65,-163.61200000000002,-51.2612,-75.3848,175,75
2026-05-09 16:07:24.300,2,-0.9,1.1,0.62,95.61280000000001,190.4794,-195.3442,175,75
2026-05-09 16:07:24.300,5,0.42,0.1,-0.2,83.44739999999999,-252.6136,183.9472,175,75
2026-05-09 16:07:24.300,4,0.2,1.41,1.72,-37.5084,14.836599999999999,-71.9924,175,75
2026-05-09 16:07:24.311,2,1.2,1.44,0.93,85.7928,169.37939999999998,-176.0742,175,75
2026-05-09 16:07:24.312,5,2.0,-0.27,-1.7,106.08739999999999,-252.6136,196.1772,175,75
2026-05-09 16:07:24.312,4,0.1,1.36,1.64,-11.7684,14.346599999999999,-61.6924,175,75
2026-05-09 16:07:24.312,2,-0.37,1.84,0.73,18.4828,118.5894,75.6858,175,75
2026-05-09 16:07:24.323,4,-0.11,0.95,1.48,13.2316,17.946599999999997,-36.6324,175,75
2026-05-09 16:07:24.323,1,0.23,-0.21,-0.03,-348.1282,62.79259999999999,-82.4686,175,75
2026-05-09 16:07:24.323,2,-0.66,1.18,0.53,-8.597199999999999,37.6794,100.74579999999999,175,75
2026-05-09 16:07:24.334,5,0.53,-0.85,-2.0,81.11739999999999,-52.1036,-151.3628,175,75
2026-05-09 16:07:24.334,1,0.1,-0.69,-0.2,-411.4782,43.3426,-53.748599999999996,175,75
2026-05-09 16:07:24.345,5,-0.92,-0.85,-1.71,85.56739999999999,-129.9136,-165.5528,175,75
2026-05-09 16:07:24.345,3,0.77,-0.14,1.84,-142.152,-58.151199999999996,-101.8548,175,75
2026-05-09 16:07:24.345,4,-0.34,0.41,1.3,9.6316,78.5566,-38.5824,175,75
2026-05-09 16:07:24.349,5,-1.4,-0.49,-0.91,90.45739999999999,-237.7136,-138.3828,175,75
2026-05-09 16:07:24.357,5,-1.34,-0.12,-0.29,48.3074,-252.6136,-84.1528,175,75
2026-05-09 16:07:24.357,3,-0.96,0.92,2.35,-128.062,-7.1112,-28.4348,175,75
2026-05-09 16:07:24.379,3,-2.58,1.54,3.27,-52.152,40.1388,45.0352,175,75
2026-05-09 16:07:24.379,4,0.02,0.91,1.44,-3.1784000000000003,120.9966,-56.812400000000004,175,75
2026-05-09 16:07:24.379,2,-0.83,0.54,-0.04,-69.1472,-213.06060000000002,-34.0042,175,75
2026-05-09 16:07:24.379,2,-1.02,0.69,-0.26,-37.1872,-207.81060000000002,-62.7242,175,75
2026-05-09 16:07:24.387,5,-0.98,0.14,0.09,-149.90259999999998,-252.6136,-39.86280000000001,175,75
2026-05-09 16:07:24.399,3,3.78,-3.03,0.26,103.768,-117.5412,-128.13479999999998,175,75
2026-05-09 16:07:24.418,2,-1.47,0.44,-0.27,15.5528,29.439400000000003,35.0758,175,75
2026-05-09 16:07:24.418,2,-1.38,0.02,-0.17,5.3128,131.8194,75.44579999999999,175,75
2026-05-09 16:07:24.418,5,1.25,0.27,-1.13,-178.7826,-4.6836,-132.62279999999998,175,75
2026-05-09 16:07:24.418,3,-3.05,-0.26,-1.74,-69.652,157.4588,240.28520000000003,175,75
2026-05-09 16:07:24.421,4,0.22,0.14,1.49,47.3116,143.6766,0.25760000000000005,175,75
2026-05-09 16:07:24.421,2,-0.67,-0.56,-0.02,-21.5172,196.51940000000002,100.99579999999999,175,75
2026-05-09 16:07:24.428,5,2.0,0.35,-1.78,-101.5126,201.41639999999998,-29.9728,175,75
2026-05-09 16:07:24.428,3,-0.97,-1.66,-0.18,111.07799999999999,368.6788,2.4152000000000022,175,75
2026-05-09 16:07:24.445,5,1.03,1.09,-0.99,-68.24260000000001,247.6564,21.4372,175,75
2026-05-09 16:07:24.445,2,-0.49,-1.42,0.27,-45.2372,210.5994,148.6758,175,75
2026-05-09 16:07:24.455,1,0.44,0.69,0.79,-313.7382,28.032599999999995,-20.5786,175,75
2026-05-09 16:07:24.455,1,-0.15,-0.47,0.32,-321.0582,40.6526,-34.8486,175,75
2026-05-09 16:07:24.455,5,0.86,1.39,-0.26,-107.7526,247.6564,-27.9728,175,75
2026-05-09 16:07:24.455,2,0.02,-1.71,-0.29,-52.7372,179.74939999999998,179.22580000000002,175,75
2026-05-09 16:07:24.455,1,-0.33,-0.57,0.46,-307.5782,67.2426,-33.8686,175,75
2026-05-09 16:07:24.455,4,0.48,-0.64,1.45,64.99159999999999,145.9366,17.1476,175,75
2026-05-09 16:07:24.467,5,1.42,1.59,0.09,-187.40259999999998,247.6564,-73.53280000000001,175,75
2026-05-09 16:07:24.467,3,1.51,0.54,2.5,47.298,105.38879999999999,55.8952,175,75
2026-05-09 16:07:24.467,2,-0.54,-1.69,0.19,-12.4972,140.7194,189.28580000000002,175,75
2026-05-09 16:07:24.467,5,2.0,1.74,0.29,-245.65259999999998,247.6564,-106.2628,175,75
2026-05-09 16:07:24.480,4,0.65,-0.71,1.53,67.4916,126.9066,5.8676,175,75
2026-05-09 16:07:24.480,2,-0.92,-1.52,0.08,29.0928,83.7094,162.2158,175,75
2026-05-09 16:07:24.480,1,-0.4,-0.33,1.0,-258.6182,110.9626,-7.7686,175,75
2026-05-09 16:07:24.480,5,2.0,1.67,-0.61,-245.65259999999998,247.6564,-73.9428,175,75
2026-05-09 16:07:24.480,4,0.72,-0.66,1.6,67.6216,106.4166,-5.2324,175,75
2026-05-09 16:07:24.514,5,2.0,2.0,2.0,-245.65259999999998,247.6564,242.6072,175,75
2026-05-09 16:07:24.514,5,-1.37,-0.85,2.0,-245.65259999999998,199.5664,242.6072,175,75
2026-05-09 16:07:24.514,3,0.39,-0.76,1.26,27.488,12.768800000000002,-8.0148,175,75
2026-05-09 16:07:24.514,2,-1.3,-1.06,0.07,94.5128,-83.4206,-32.6642,175,75
2026-05-09 16:07:24.514,4,0.77,-0.47,1.66,64.7516,72.1566,-15.172399999999998,175,75
2026-05-09 16:07:24.531,1,-0.02,0.47,1.83,-164.4082,88.8926,-11.9786,175,75
2026-05-09 16:07:24.531,3,0.32,-0.69,1.27,18.768,-12.0512,5.225200000000001,175,75
2026-05-09 16:07:24.531,5,-1.47,-2.0,2.0,-203.4126,66.3164,242.6072,175,75
2026-05-09 16:07:24.531,4,0.62,-0.26,1.54,55.3616,6.7866,-10.9624,175,75
2026-05-09 16:07:24.531,1,-0.04,0.66,1.74,-127.2082,63.092600000000004,-10.6386,175,75
2026-05-09 16:07:24.541,5,-2.0,-2.0,1.34,-69.0126,8.0264,242.6072,175,75
2026-05-09 16:07:24.541,2,-0.62,-1.04,0.07,38.7828,-235.0106,-69.6742,175,75
2026-05-09 16:07:24.547,2,-0.43,-1.14,-0.02,4.0928,-288.8506,-40.8942,175,75
2026-05-09 16:07:24.547,1,0.15,1.16,1.7,-45.568200000000004,44.3726,-13.6286,175,75
2026-05-09 16:07:24.561,5,-2.0,-2.0,1.97,204.1774,-130.2936,47.477199999999996,175,75
2026-05-09 16:07:24.561,4,0.12,-0.78,1.22,46.821600000000004,42.7666,56.8476,175,75
2026-05-09 16:07:24.561,2,-0.7,-1.49,-0.43,-34.9372,-254.4606,49.2258,175,75
2026-05-09 16:07:24.561,3,-0.04,-0.53,1.72,-1.9019999999999992,4.6588,-47.644800000000004,175,75
